right,left,explain.started,explain.stopped,key_resp_3.keys,key_resp_3.rt,key_resp_3.duration,participant,session,date,expName,psychopyVersion,OS,frameRate,study_id,explain_2.started,explain_2.stopped,key_resp_4.keys,key_resp_4.rt,key_resp_4.duration,explain_3.started,explain_3.stopped,key_resp_5.keys,key_resp_5.rt,key_resp_5.duration,fixation.started,fixation.stopped,practice.started,practice.stopped,response.started,response.stopped,key_resp.keys,feedback.started,feedback.stopped,trials_2.thisRepN,trials_2.thisTrialN,trials_2.thisN,trials_2.thisIndex,trials_2.ran,dot_ratio,key_resp.rt,key_resp.duration,explain_4.started,explain_4.stopped,key_resp_6.keys,key_resp_6.rt,key_resp_6.duration,dotDisplay.started,dotDisplay.stopped,ITI.started,polygon_1.pos,polygon_1.edges,polygon_2.pos,polygon_2.edges,polygon_3.pos,polygon_3.edges,polygon_4.pos,polygon_4.edges,polygon_5.pos,polygon_5.edges,polygon_6.pos,polygon_6.edges,polygon_7.pos,polygon_7.edges,polygon_8.pos,polygon_8.edges,polygon_9.pos,polygon_9.edges,polygon_10.pos,polygon_10.edges,polygon_11.pos,polygon_11.edges,polygon_12.pos,polygon_12.edges,polygon_13.pos,polygon_13.edges,polygon_14.pos,polygon_14.edges,polygon_15.pos,polygon_15.edges,polygon_16.pos,polygon_16.edges,polygon_17.pos,polygon_17.edges,polygon_18.pos,polygon_18.edges,polygon_19.pos,polygon_19.edges,polygon_20.pos,polygon_20.edges,polygon_21.pos,polygon_21.edges,polygon_22.pos,polygon_22.edges,polygon_23.pos,polygon_23.edges,polygon_24.pos,polygon_24.edges,polygon_25.pos,polygon_25.edges,polygon_26.pos,polygon_26.edges,polygon_27.pos,polygon_27.edges,polygon_28.pos,polygon_28.edges,polygon_29.pos,polygon_29.edges,polygon_30.pos,polygon_30.edges,polygon_31.pos,polygon_31.edges,polygon_32.pos,polygon_32.edges,dot_size,ITI.stopped,trials.thisRepN,trials.thisTrialN,trials.thisN,trials.thisIndex,trials.ran,break_2.started,break_2.stopped,trials_3.thisRepN,trials_3.thisTrialN,trials_3.thisN,trials_3.thisIndex,trials_3.ran
subject chose diamond,subject chose dot,0.0003,19.4103,space,4.3972,,571a78f06a1c6300114b8d80,683aef5d17c2d5a2d3bfc02b,2025-05-31_13h00.58.304,shape_ratio,2024.1.5,Win32,61.34969325,683ae9196541af24d3a69e58,,,,,,,,,,,,,,,,,,,,,,,,,,,,,,,,,,,,,,,,,,,,,,,,,,,,,,,,,,,,,,,,,,,,,,,,,,,,,,,,,,,,,,,,,,,,,,,,,,,,,,,,,,,,,,,,,
,,,,,,,571a78f06a1c6300114b8d80,683aef5d17c2d5a2d3bfc02b,2025-05-31_13h00.58.304,shape_ratio,2024.1.5,Win32,61.34969325,683ae9196541af24d3a69e58,19.4107,49.7719,space,0.3423,,,,,,,,,,,,,,,,,,,,,,,,,,,,,,,,,,,,,,,,,,,,,,,,,,,,,,,,,,,,,,,,,,,,,,,,,,,,,,,,,,,,,,,,,,,,,,,,,,,,,,,,,,,,,
,,,,,,,571a78f06a1c6300114b8d80,683aef5d17c2d5a2d3bfc02b,2025-05-31_13h00.58.304,shape_ratio,2024.1.5,Win32,61.34969325,683ae9196541af24d3a69e58,,,,,,49.7721,53.8899,space,1.1035,,,,,,,,,,,,,,,,,,,,,,,,,,,,,,,,,,,,,,,,,,,,,,,,,,,,,,,,,,,,,,,,,,,,,,,,,,,,,,,,,,,,,,,,,,,,,,,,,,,,,,,,
,,,,,,,571a78f06a1c6300114b8d80,683aef5d17c2d5a2d3bfc02b,2025-05-31_13h00.58.304,shape_ratio,2024.1.5,Win32,61.34969325,683ae9196541af24d3a69e58,,,,,,,,,,,53.9083,54.4078,54.4082,54.7181,54.7181,56.1405,,56.1406,57.2418,0.0,0.0,0.0,1.0,1.0,0.8,,,,,,,,,,,,,,,,,,,,,,,,,,,,,,,,,,,,,,,,,,,,,,,,,,,,,,,,,,,,,,,,,,,,,,,,,,,,,,,,,,,,,,,,
,,,,,,,571a78f06a1c6300114b8d80,683aef5d17c2d5a2d3bfc02b,2025-05-31_13h00.58.304,shape_ratio,2024.1.5,Win32,61.34969325,683ae9196541af24d3a69e58,,,,,,,,,,,57.2427,57.7405,57.7406,57.9788,57.9788,58.7754,right,58.7756,59.8747,0.0,1.0,1.0,0.0,1.0,0.2,0.7785,,,,,,,,,,,,,,,,,,,,,,,,,,,,,,,,,,,,,,,,,,,,,,,,,,,,,,,,,,,,,,,,,,,,,,,,,,,,,,,,,,,,,,,
,,,,,,,571a78f06a1c6300114b8d80,683aef5d17c2d5a2d3bfc02b,2025-05-31_13h00.58.304,shape_ratio,2024.1.5,Win32,61.34969325,683ae9196541af24d3a69e58,,,,,,,,,,,,,,,,,,,,,,,,,,,,59.8754,65.1272,space,2.2442,,,,,,,,,,,,,,,,,,,,,,,,,,,,,,,,,,,,,,,,,,,,,,,,,,,,,,,,,,,,,,,,,,,,,,,,,,,,,,,,,,
,,,,,,,571a78f06a1c6300114b8d80,683aef5d17c2d5a2d3bfc02b,2025-05-31_13h00.58.304,shape_ratio,2024.1.5,Win32,61.34969325,683ae9196541af24d3a69e58,,,,,,,,,,,65.1415,65.6306,,,65.8782,66.4953,right,,,,,,,,0.1,0.5935,,,,,,,65.6309,65.8781,66.496,"[0.05161429645265301,-0.08863316657698848]",4.0,"[0.016247712383037138,-0.17297006126717693]",4.0,"[-0.1591611703646741,0.07516585098083414]",4.0,"[-0.1004482326219628,0.015374664280530156]",100.0,"[0.09068833458502683,0.04260316099516626]",4.0,"[0.04670122066506655,-0.13903510265517297]",4.0,"[-0.00784873703158474,0.071750180234575]",4.0,"[-0.041815192793467994,0.17175775085022513]",4.0,"[0.08058060314925249,0.12026694433189791]",4.0,"[-0.03561059515762127,-0.08565409879533345]",4.0,"[0.1489877042324723,-0.09500612165340508]",4.0,"[0.12640813093762907,-0.1495128037938322]",4.0,"[-0.09551470167165478,0.13859603258045822]",4.0,"[0.18944652599048875,-0.006563433645667036]",4.0,"[-0.06097013370000651,-0.1342742409815558]",4.0,"[-0.15675741474395824,0.029382248690012353]",4.0,"[-0.035936785165724905,-0.17398370532929347]",4.0,"[-0.11990292813462816,-0.05187647653228298]",4.0,"[0.06986570590922676,-0.04892338850882816]",4.0,"[0.008937611993523588,0.026222066504785587]",4.0,"[0.0406693597596649,0.07772791350381827]",100.0,"[-0.05770356019035536,0.009479236588015014]",100.0,"[0.013268160762830748,0.15697214542600993]",4.0,"[-0.053831432801692655,-0.032388411012675825]",4.0,"[0.16725477389574464,0.08145087103269316]",4.0,"[-0.11878542334032992,-0.130635347037775]",4.0,"[0.003926605400818214,-0.11302625235528828]",4.0,"[-0.06727391645183378,0.09934752612196984]",4.0,"[-0.15908371011678768,-0.04180975815575669]",4.0,"[-0.15281605631229933,-0.09474523342350913]",4.0,"[-0.08469533232424523,0.060598653553877585]",4.0,"[-0.151913184747278,0.1181627627073625]",4.0,"[0.02,0.02]",67.595,0.0,0.0,0.0,202.0,1.0,,,,,,,
,,,,,,,571a78f06a1c6300114b8d80,683aef5d17c2d5a2d3bfc02b,2025-05-31_13h00.58.304,shape_ratio,2024.1.5,Win32,61.34969325,683ae9196541af24d3a69e58,,,,,,,,,,,67.596,68.0945,,,68.3469,69.0782,left,,,,,,,,0.9,0.727,,,,,,,68.095,68.3468,69.0782,"[-0.11334778303410022,-0.027545960061746852]",100.0,"[-0.10131326779026184,0.1232741489886687]",100.0,"[0.19626072096452823,0.014928030622415501]",100.0,"[0.15158450684653357,-0.07256283817532679]",100.0,"[-0.15219755764998563,-0.07038711915527501]",100.0,"[0.051129422080503424,0.021007557909150643]",4.0,"[-0.03138075692189638,-0.0024112994049485387]",100.0,"[0.07787736610654464,-0.1709034737195106]",4.0,"[0.11293100453554376,-0.03435134841715842]",4.0,"[-0.19403934221036526,-0.021877541381771556]",100.0,"[0.09019805878851833,0.06949267464180099]",100.0,"[-0.03168233349090838,0.11638659017585082]",100.0,"[-0.04978639045379982,0.16102567728404832]",100.0,"[0.0119914832296115,-0.196499956975029]",100.0,"[0.006177812873411431,0.17899888627560515]",100.0,"[-0.13050492368530192,0.04520665649489059]",100.0,"[-0.08607179262729248,0.03755302170071591]",100.0,"[-0.13060242281348844,-0.10625499374559107]",100.0,"[0.05609795922773275,-0.06907158184514846]",100.0,"[-0.1661368349490766,0.08199425466793783]",100.0,"[-0.04454247166671241,0.06141526215803252]",100.0,"[-0.09848656163241476,0.16954009091522204]",100.0,"[0.17108946692468957,-0.022889594252016806]",100.0,"[0.04849318440404314,0.1929692699897202]",100.0,"[-0.00004991896303990776,-0.1497724674329112]",100.0,"[0.0039576418959907465,-0.052414649875103005]",100.0,"[-0.05968643929899201,-0.05905340024617032]",100.0,"[0.0815566485896632,-0.12198652879283596]",100.0,"[0.11940415780148246,0.02914381004895486]",100.0,"[-0.10449501660488675,-0.15075962919020544]",100.0,"[0.007114177138467061,0.032314733980369784]",100.0,"[-0.14666876366210993,0.005181150942606815]",100.0,"[0.02,0.02]",70.1797,0.0,1.0,1.0,11.0,1.0,,,,,,,
,,,,,,,571a78f06a1c6300114b8d80,683aef5d17c2d5a2d3bfc02b,2025-05-31_13h00.58.304,shape_ratio,2024.1.5,Win32,61.34969325,683ae9196541af24d3a69e58,,,,,,,,,,,70.1804,70.6797,,,70.9359,71.7962,right,,,,,,,,0.5,0.8436,,,,,,,70.6797,70.9358,71.7962,"[0.12034913773057232,0.040579135239672486]",100.0,"[0.08202778446464654,-0.05452068778878055]",4.0,"[-0.12221235475725004,-0.0038153128593761735]",4.0,"[-0.08594056447237815,-0.17867412165348276]",4.0,"[0.013975861377785824,-0.16742854809256813]",100.0,"[-0.006911510985805317,-0.07067426937429355]",4.0,"[0.0428409520485146,0.15399757502493677]",4.0,"[0.11738967650636102,-0.10828817177381521]",100.0,"[-0.050502204045737596,-0.05106672662281763]",100.0,"[-0.18914739950270754,0.0573140925422927]",4.0,"[-0.026477616493343882,0.18866734575211327]",4.0,"[0.13961878712638884,-0.010125765469864913]",100.0,"[0.04343418003309222,0.053345401472066165]",4.0,"[-0.12670159084163088,0.057621407029370686]",100.0,"[-0.04402391327747964,-0.19506309577883818]",4.0,"[0.000832933547009857,0.1292434009188512]",100.0,"[0.17243897658865673,0.0330578999301748]",4.0,"[-0.13663647105575838,-0.05461311360097647]",4.0,"[0.08683208877291197,0.1347606357239068]",100.0,"[-0.19267823601736792,-0.01469815820824931]",4.0,"[-0.1328734182170541,0.14708056613356987]",4.0,"[0.0448507636222061,-0.015319058870423032]",100.0,"[0.019547110773687794,0.19475713649808293]",100.0,"[-0.1306723127470728,-0.12185027048852257]",100.0,"[0.09589727645029497,-0.006193510954646015]",4.0,"[-0.0634493332300071,0.08844914416287819]",100.0,"[0.0015159015719065727,0.07132518805372261]",100.0,"[0.004010326426306811,0.021135452746191156]",100.0,"[-0.05207961707952637,-0.003561432919613691]",4.0,"[0.04542251265125513,-0.07112235248054184]",100.0,"[0.02058222026112085,-0.10533688405432598]",4.0,"[-0.08870475046897054,0.14424549226440606]",100.0,"[0.02,0.02]",72.8964,0.0,2.0,2.0,112.0,1.0,,,,,,,
,,,,,,,571a78f06a1c6300114b8d80,683aef5d17c2d5a2d3bfc02b,2025-05-31_13h00.58.304,shape_ratio,2024.1.5,Win32,61.34969325,683ae9196541af24d3a69e58,,,,,,,,,,,72.8972,73.3961,,,73.6506,74.2966,left,,,,,,,,0.9,0.6296,,,,,,,73.3962,73.6505,74.2967,"[-0.1130743967225091,-0.11430801201454267]",100.0,"[0.13149034115882052,0.010365248831525321]",100.0,"[-0.19107491582316125,0.010807367367347614]",100.0,"[-0.163246253127411,0.10886486191879798]",100.0,"[-0.0044358210770846585,0.05102706492896484]",100.0,"[0.11212133912921621,0.11201943100685637]",100.0,"[-0.09801030859700598,-0.16914996701331342]",100.0,"[0.029359724477280903,-0.1924353839558955]",100.0,"[-0.03253558437637597,0.0004692755176338511]",100.0,"[0.13195071412226184,-0.05183475275433697]",100.0,"[0.020542677305499427,0.01135153514844083]",100.0,"[-0.06801058496662667,0.08204073515736703]",100.0,"[0.07275813616886494,-0.048211490220838586]",100.0,"[0.1018409282581495,0.04844644187951052]",4.0,"[0.18751014243658884,-0.03907867144494992]",100.0,"[0.04941641179250797,0.06422108906088173]",100.0,"[0.05919797981713494,0.15271124742785158]",100.0,"[-0.12956938976354274,0.1472407143857936]",100.0,"[0.021296972216787353,0.17173327360381238]",100.0,"[-0.10123429903858744,0.0178916302506026]",100.0,"[-0.19317352416716843,-0.03324870374185737]",100.0,"[0.07867623872189057,-0.09035964643290939]",4.0,"[0.17804161861386558,0.06777714820711779]",100.0,"[0.08522935056973785,-0.15636063596420707]",4.0,"[0.02954654251885267,-0.05693621394455941]",100.0,"[-0.10984315891846747,-0.05339117979860794]",100.0,"[-0.14747640548079274,0.019631883579522898]",100.0,"[-0.05443835216216433,-0.14888602791053]",100.0,"[-0.06870227116651088,0.12858701857446897]",100.0,"[-0.05537490039726344,0.17601320371724177]",100.0,"[0.1703622330064078,-0.08637557345530035]",100.0,"[-0.01090193401699819,-0.11651267156478722]",100.0,"[0.02,0.02]",75.3968,0.0,3.0,3.0,6.0,1.0,,,,,,,
,,,,,,,571a78f06a1c6300114b8d80,683aef5d17c2d5a2d3bfc02b,2025-05-31_13h00.58.304,shape_ratio,2024.1.5,Win32,61.34969325,683ae9196541af24d3a69e58,,,,,,,,,,,75.3975,75.9013,,,76.1513,76.5142,left,,,,,,,,0.9,0.3533,,,,,,,75.9014,76.1512,76.5144,"[0.050064383293855916,0.17976436048498964]",100.0,"[0.12401659161780476,0.050336596647181375]",100.0,"[0.13974107489080823,-0.12795847358412563]",100.0,"[-0.10536336603016351,-0.0006651470281733446]",100.0,"[0.021084745130917456,-0.1098696665567162]",100.0,"[-0.0417126658817082,-0.0684635268655136]",100.0,"[-0.18762973487153073,-0.005876068412911575]",100.0,"[0.173524723095474,0.09478926246440031]",100.0,"[-0.015950491205108615,0.13399219096710543]",4.0,"[-0.12332234576339081,-0.07164421670311819]",100.0,"[0.0673475972402596,0.011268896743245868]",100.0,"[-0.1895983094121361,0.06061896296514511]",100.0,"[-0.18786637733383735,-0.06525923326009711]",100.0,"[0.024191493273180206,0.08716647723358588]",100.0,"[-0.13450877185464824,0.12261623177125107]",100.0,"[-0.11334287458927551,0.06017011408989817]",100.0,"[0.007343682126122435,0.049151699335284134]",100.0,"[-0.0343501701235815,-0.16907081446158156]",100.0,"[-0.07987159873515863,-0.11856693891553553]",100.0,"[0.0427462799647701,-0.021555638582704564]",4.0,"[0.16481091245441776,0.032037763305751754]",100.0,"[-0.12500224365006254,-0.1230256757494336]",100.0,"[-0.09271201841769144,0.12533634524190254]",4.0,"[0.19225492989452714,-0.0030848822076843785]",100.0,"[-0.04724527452977315,0.16864848979377856]",100.0,"[0.09879820056781942,0.14353290612778832]",100.0,"[0.07986586305378364,-0.12578206988568238]",100.0,"[0.18106658527084324,-0.07041882000058963]",100.0,"[0.03896244415186248,0.1285764464033461]",100.0,"[0.0767036177385826,-0.07995026773186546]",100.0,"[-0.012824383148660858,0.1951270333767853]",100.0,"[0.11539900524379966,-0.011577754997874867]",100.0,"[0.02,0.02]",77.6153,0.0,4.0,4.0,25.0,1.0,,,,,,,
,,,,,,,571a78f06a1c6300114b8d80,683aef5d17c2d5a2d3bfc02b,2025-05-31_13h00.58.304,shape_ratio,2024.1.5,Win32,61.34969325,683ae9196541af24d3a69e58,,,,,,,,,,,77.616,78.1149,,,78.368,78.9155,right,,,,,,,,0.1,0.5233,,,,,,,78.1149,78.368,78.9156,"[-0.14012398460858294,-0.03260164958602001]",4.0,"[-0.18551112175508597,-0.00275727606858356]",4.0,"[0.07975000298754929,-0.15904942648756942]",4.0,"[-0.04770152632236269,-0.07001410936888214]",4.0,"[-0.07214957805804757,0.019899764216699187]",100.0,"[-0.09718933634476506,0.12749630289920472]",4.0,"[0.09149615875657388,-0.06891459817845169]",4.0,"[-0.08303077322443804,0.16890321378031792]",4.0,"[-0.05679819071691774,-0.16791555958893137]",4.0,"[-0.1118143384843987,-0.08028035710731356]",4.0,"[0.019282016613703226,0.08223112903756657]",4.0,"[0.08084970032606491,0.09363073245454935]",4.0,"[-0.004946084030816602,-0.1457965684011968]",4.0,"[0.1634899355901753,-0.02062878264588491]",100.0,"[0.11551860368297154,0.03191277122343721]",4.0,"[-0.006353635277144069,0.1454532227731528]",4.0,"[-0.0007959113160211368,-0.011599161988533222]",4.0,"[-0.06981993572904399,-0.11823759590445411]",4.0,"[-0.013943008296393195,0.036158316432334726]",4.0,"[-0.11176820770950321,0.000009585821162468597]",4.0,"[-0.1357830651039132,0.03535861707027017]",4.0,"[0.03516084218620851,0.13587667090877484]",100.0,"[0.10377437990720717,0.15746699350575546]",4.0,"[0.038893054387618704,-0.062382400000782115]",4.0,"[0.08420492854053373,-0.11701069038133066]",4.0,"[-0.08981831606659985,-0.04105473548378012]",4.0,"[-0.05603738818483492,0.12849823132196028]",4.0,"[-0.04051303230348778,-0.017583436532688516]",4.0,"[0.14378926206275028,-0.0801302328132552]",4.0,"[0.06756298244903775,-0.024553488558109897]",4.0,"[-0.08956055595052247,0.07594089841422189]",4.0,"[-0.11724941543137878,-0.15981889047266137]",4.0,"[0.02,0.02]",80.0156,0.0,5.0,5.0,191.0,1.0,,,,,,,
,,,,,,,571a78f06a1c6300114b8d80,683aef5d17c2d5a2d3bfc02b,2025-05-31_13h00.58.304,shape_ratio,2024.1.5,Win32,61.34969325,683ae9196541af24d3a69e58,,,,,,,,,,,80.0163,80.5166,,,80.7659,81.2662,right,,,,,,,,0.5,0.4725,,,,,,,80.5166,80.7658,81.2663,"[-0.08746790165110419,0.1615420124738527]",4.0,"[-0.07103978189337337,0.08547344683529887]",100.0,"[-0.09755152665704611,-0.027481299213982683]",100.0,"[0.04777930722021027,-0.06207558635617685]",100.0,"[-0.09960434841845206,-0.07513202303779648]",100.0,"[-0.15770331809011143,0.06860984619821439]",100.0,"[0.10271032603956863,-0.1613347805842522]",4.0,"[-0.10986165379903647,0.03450634958194353]",4.0,"[-0.1440075161428676,-0.13373412692017453]",100.0,"[-0.07010913248400909,-0.12086490715856558]",100.0,"[-0.006617319831403905,0.0048693954797032705]",100.0,"[0.10975338790525102,-0.0009354681111209153]",4.0,"[0.07845100209594084,0.15809074627835348]",100.0,"[-0.022756124761839094,-0.1341110197816065]",4.0,"[-0.1463514248117299,-0.04922644581983594]",4.0,"[0.06664872105671686,-0.0019460455534849245]",4.0,"[0.18680691243488048,-0.0567956545035992]",4.0,"[0.17067761831296563,0.0769786492555139]",4.0,"[0.15349690130595633,-0.0025213191058070417]",100.0,"[0.011750886862647069,-0.04059532789798489]",4.0,"[-0.035458238589658235,-0.09452101915280646]",4.0,"[0.05072407839666464,-0.16249644465177923]",100.0,"[-0.10861296212084112,0.10779799069322607]",4.0,"[-0.1391516657765387,-0.004521334498769717]",4.0,"[-0.02413878269818605,0.1820199235511803]",100.0,"[0.10527340683207853,-0.04619520011311136]",4.0,"[-0.02109280070024421,0.04966514732972079]",100.0,"[0.07937159764972943,0.10957855181221994]",100.0,"[0.014815277951501277,-0.08496771653917048]",4.0,"[-0.17957043765788636,-0.022529677279347453]",100.0,"[0.13797734117294302,0.10943068993394157]",100.0,"[0.1934938724407189,0.023744724466472418]",4.0,"[0.02,0.02]",82.3664,0.0,6.0,6.0,119.0,1.0,,,,,,,
,,,,,,,571a78f06a1c6300114b8d80,683aef5d17c2d5a2d3bfc02b,2025-05-31_13h00.58.304,shape_ratio,2024.1.5,Win32,61.34969325,683ae9196541af24d3a69e58,,,,,,,,,,,82.3671,82.8663,,,83.1169,83.3832,left,,,,,,,,0.6,0.2378,,,,,,,82.8663,83.1169,83.3832,"[-0.07222499256403153,0.1615407474092129]",4.0,"[0.008253663576891173,0.04711239389517241]",100.0,"[-0.06472761733117718,-0.1427669138704763]",100.0,"[0.03846365033232365,-0.19196080579523114]",100.0,"[0.012691187351560813,-0.13122389914026505]",4.0,"[0.014303253288589191,-0.051934607717510566]",100.0,"[-0.09522606943737491,0.004429557037606049]",100.0,"[0.1431905682920395,-0.12448973267980006]",4.0,"[-0.05050921731006073,0.09389352255201404]",4.0,"[0.1343127216298476,-0.072409649588587]",4.0,"[-0.09274146646211698,0.10832549697275687]",4.0,"[-0.006884948185551865,0.10280975748139971]",100.0,"[-0.14961422049822753,0.10724109847781313]",100.0,"[-0.0748249607182889,-0.07453004487446631]",4.0,"[0.1224473239520005,0.12850969336488746]",100.0,"[0.1196131538735949,0.06034911107131673]",100.0,"[0.09230426924220043,-0.03920924904813578]",100.0,"[-0.10899599390285918,-0.16131000074824114]",100.0,"[0.06687041858919897,-0.09696888157428127]",4.0,"[0.08427727892621263,0.003285656862986956]",100.0,"[-0.1411160308298035,-0.019009252187350206]",100.0,"[0.1645645577963142,0.06931845825705492]",4.0,"[0.06896090251488625,0.04698870796194906]",100.0,"[0.07297468838909894,-0.16447511077855917]",4.0,"[-0.16790574579891113,-0.09736077440682868]",4.0,"[-0.02924831464826491,-0.10066287988488347]",4.0,"[-0.01356646903921979,-0.005540847971760408]",4.0,"[-0.028119374987501427,-0.16671300921090879]",100.0,"[0.013583268272236338,0.14211722932249907]",100.0,"[0.09335224397464145,0.09389319079944614]",100.0,"[-0.09916748770475466,0.04469697736962057]",100.0,"[0.16413410031837317,0.009114903276926377]",100.0,"[0.02,0.02]",84.4842,0.0,7.0,7.0,56.0,1.0,,,,,,,
,,,,,,,571a78f06a1c6300114b8d80,683aef5d17c2d5a2d3bfc02b,2025-05-31_13h00.58.304,shape_ratio,2024.1.5,Win32,61.34969325,683ae9196541af24d3a69e58,,,,,,,,,,,84.4849,84.9837,,,85.2345,85.7342,left,,,,,,,,0.55,0.4774,,,,,,,84.9839,85.2343,85.7343,"[-0.07049932495411322,-0.17498638664665436]",100.0,"[-0.14196612886775198,0.08909030846044094]",4.0,"[-0.1972198488381879,0.0002091824970930215]",4.0,"[0.03477495890521005,-0.08190645696227528]",100.0,"[0.03128514635720121,0.06538284069232828]",4.0,"[0.10401464579360657,-0.07930384948126988]",100.0,"[0.14844720558540928,-0.029203368162223898]",100.0,"[0.0706259129301169,0.08696698113297675]",100.0,"[0.0631925876516837,-0.03924639154735328]",4.0,"[-0.11262056932600538,-0.09165299371138838]",4.0,"[0.10091622120638509,0.128550240709657]",100.0,"[-0.0027475512084680262,0.018879178425963407]",4.0,"[-0.14140793865316761,-0.1390172062536961]",100.0,"[-0.009997676460562255,0.19221935222987596]",4.0,"[0.11928260100868747,0.006031615312934435]",100.0,"[-0.00046506661820138487,-0.13412764750454645]",4.0,"[-0.1632588536093426,-0.02486460249493639]",100.0,"[0.05094496008229994,0.15854917721572]",100.0,"[-0.07583020733491615,-0.042067354481239404]",4.0,"[0.036151480063619755,0.11670152290788757]",4.0,"[-0.11694288178774474,-0.030815674428252508]",100.0,"[-0.006564121754357982,0.09132710800101096]",4.0,"[-0.09166101626650579,0.14098392160877382]",100.0,"[0.1393510201681162,-0.1423239171816049]",4.0,"[-0.00161401745161138,0.14078808576043275]",4.0,"[0.11277800843929817,0.057802484863155174]",100.0,"[-0.11242588761196906,0.05081311871308789]",100.0,"[0.16104474743863406,-0.07470106658210193]",100.0,"[-0.05651146987538379,0.010228300666068932]",100.0,"[-0.09000105910632386,0.09689903937441632]",4.0,"[-0.17959010591442362,0.048050826768987226]",100.0,"[0.06588914151741407,-0.17643282797572832]",100.0,"[0.02,0.02]",86.8354,0.0,8.0,8.0,60.0,1.0,,,,,,,
,,,,,,,571a78f06a1c6300114b8d80,683aef5d17c2d5a2d3bfc02b,2025-05-31_13h00.58.304,shape_ratio,2024.1.5,Win32,61.34969325,683ae9196541af24d3a69e58,,,,,,,,,,,86.8359,87.3349,,,87.5735,87.9684,left,,,,,,,,0.9,0.3737,,,,,,,87.3349,87.5734,87.9685,"[-0.05689125531214,-0.18730230228311204]",100.0,"[-0.013935000938588609,-0.06457526361404761]",100.0,"[-0.07412049746256684,0.17608583376978693]",100.0,"[-0.02933298191974509,0.006277702203920273]",100.0,"[-0.07580153382334481,0.05623997445668763]",100.0,"[0.012279793633871362,-0.021858611800841588]",100.0,"[0.057572550937660706,-0.07195536847656474]",100.0,"[0.06585050778579303,-0.1241516849983648]",100.0,"[-0.11498415419561511,-0.022832300043658563]",100.0,"[-0.12295674106987953,0.1289486565091044]",100.0,"[0.09426710258497449,-0.03755007975658142]",100.0,"[0.17037574216958598,0.09915533426713335]",100.0,"[0.13064663312748806,0.05015177145863914]",4.0,"[0.001905381445218638,0.19051849271641247]",100.0,"[-0.039001350738703006,-0.1464634843136343]",100.0,"[-0.06532038115582109,-0.1150091275515306]",100.0,"[0.0210771752513646,0.10809298357702214]",100.0,"[-0.02805680549206924,0.15316877921364846]",4.0,"[0.021021255780226254,-0.09966649638524892]",100.0,"[-0.13096701528587273,-0.11270457401144349]",100.0,"[-0.046622827071411216,0.08431932403874752]",100.0,"[0.14270047251447174,-0.060380909523523006]",100.0,"[-0.1422781207972778,0.066020383983168]",4.0,"[0.07437601809822855,0.16594137717322943]",100.0,"[-0.15129629567077185,-0.04948883450176788]",100.0,"[-0.19409220169438615,0.000668791218659581]",100.0,"[0.135334693201024,0.12988374442767217]",100.0,"[0.0933628329645197,0.08573921748375132]",100.0,"[-0.10035752618956148,-0.14510182860717613]",100.0,"[0.18297868037102427,0.010456349100770722]",100.0,"[-0.06007293504285354,-0.06876302341100432]",100.0,"[0.0816524189681384,-0.1662204676298933]",100.0,"[0.02,0.02]",89.069,0.0,9.0,9.0,20.0,1.0,,,,,,,
,,,,,,,571a78f06a1c6300114b8d80,683aef5d17c2d5a2d3bfc02b,2025-05-31_13h00.58.304,shape_ratio,2024.1.5,Win32,61.34969325,683ae9196541af24d3a69e58,,,,,,,,,,,89.0697,89.5692,,,89.8198,90.0054,right,,,,,,,,0.1,0.1665,,,,,,,89.5692,89.8196,90.0054,"[-0.07490766781428854,-0.09682206780852834]",100.0,"[0.19913393739466428,0.00782631722674664]",4.0,"[0.03130109737570203,-0.04431859884416702]",4.0,"[0.09362356635548263,0.02038503598815332]",4.0,"[-0.05242297928435078,0.16707048262586116]",4.0,"[-0.09072425830264352,0.02790054046741463]",4.0,"[-0.1834158116479701,0.032723227024249256]",4.0,"[-0.09342442330530996,-0.14996254777542914]",4.0,"[-0.04492481071585091,0.08967606176674055]",4.0,"[0.07176314131735502,-0.029868027495488253]",4.0,"[-0.02813956840288546,-0.007282948335209333]",4.0,"[-0.013356196942592127,0.14203452362630717]",4.0,"[0.07452302098230179,-0.16854452900941724]",100.0,"[-0.15912552882654912,-0.007205730694344923]",4.0,"[0.14550589872952666,-0.07041187420973787]",4.0,"[-0.12569744203039118,0.13513720632949275]",4.0,"[-0.018716143987024668,-0.06619741679014453]",4.0,"[-0.08953125006232424,-0.03544323830471095]",100.0,"[-0.03199287658634835,-0.11258689129706999]",4.0,"[0.010552489493524162,0.020199391262443238]",4.0,"[0.1808552492704431,0.05515980348932802]",4.0,"[-0.13341342454217797,0.05202240274709942]",4.0,"[0.04997126413783682,-0.13334196385794103]",4.0,"[0.11805817047192312,0.14608084014955225]",4.0,"[-0.16572070337507225,0.10026641283826251]",4.0,"[0.1290491987700296,-0.031852959923030055]",4.0,"[-0.15260525062574223,-0.11631665375931102]",4.0,"[0.12899782895581544,0.0908836347778855]",4.0,"[0.12682808860279218,-0.10957387812817265]",4.0,"[0.08704785182307526,0.09147511843570509]",4.0,"[0.06465145935484802,0.13983771157489447]",4.0,"[0.026706611114214844,0.1609241573283373]",4.0,"[0.02,0.02]",91.1027,0.0,10.0,10.0,197.0,1.0,,,,,,,
,,,,,,,571a78f06a1c6300114b8d80,683aef5d17c2d5a2d3bfc02b,2025-05-31_13h00.58.304,shape_ratio,2024.1.5,Win32,61.34969325,683ae9196541af24d3a69e58,,,,,,,,,,,91.1034,91.6029,,,91.8543,92.1205,right,,,,,,,,0.4,0.2372,,,,,,,91.6029,91.8543,92.1206,"[-0.12393671033753331,-0.14954575031407583]",4.0,"[-0.012187180557197235,-0.1859598367984764]",4.0,"[0.039802504995817396,-0.013603926404922875]",4.0,"[0.07687706548440604,0.17655551593603896]",4.0,"[0.003976683803830385,-0.0935662116988715]",100.0,"[-0.04404104745857756,0.015808773152497752]",100.0,"[0.07977734077722669,-0.0011797175620344423]",4.0,"[-0.07802011036145956,-0.07490515528660746]",4.0,"[0.1088659059499998,-0.11770559871735703]",100.0,"[-0.13347642015583144,0.058063127917864395]",100.0,"[-0.12259729386946946,-0.017393800816984835]",4.0,"[-0.19486640613721465,-0.024852541336727273]",100.0,"[0.0154784021640382,0.075661840764084]",4.0,"[0.15408996064759328,-0.09253135182521723]",100.0,"[0.15944227456125282,0.050337584147610796]",100.0,"[-0.17121693947512098,0.07783120380916979]",4.0,"[0.12852924112822184,-0.02095834666446972]",100.0,"[-0.1292942815794081,0.13614737103835278]",4.0,"[-0.1912366462682933,0.02868281144771625]",4.0,"[0.1555229774057042,0.1198690725823269]",100.0,"[-0.10143462755239324,0.09694701693694034]",4.0,"[0.19692162981781228,-0.018753106711162502]",4.0,"[0.09562466220714357,0.1388226302047103]",100.0,"[0.0013336591551787493,-0.13680798718499299]",4.0,"[-0.08510781776977937,-0.1283543185000369]",4.0,"[-0.0074631778966387915,0.1848986685883706]",4.0,"[0.07614796024602005,-0.14756600871877118]",100.0,"[-0.13125361857804965,-0.1041666449934402]",4.0,"[0.0757536558830136,-0.05704876917143829]",100.0,"[-0.040002023874963925,0.06284439941743526]",4.0,"[0.03632242305662949,0.03810285265132508]",100.0,"[-0.04090144645395073,0.11614308985854614]",4.0,"[0.02,0.02]",93.2217,0.0,11.0,11.0,164.0,1.0,,,,,,,
,,,,,,,571a78f06a1c6300114b8d80,683aef5d17c2d5a2d3bfc02b,2025-05-31_13h00.58.304,shape_ratio,2024.1.5,Win32,61.34969325,683ae9196541af24d3a69e58,,,,,,,,,,,93.2225,93.7222,,,93.9722,94.4875,left,,,,,,,,0.6,0.4851,,,,,,,93.7224,93.9721,94.4876,"[-0.181876272785392,0.050701749752516526]",100.0,"[-0.09961547197646946,-0.06198476322788115]",100.0,"[0.09626182408016398,0.12061259012741435]",4.0,"[-0.1007854916687226,0.10404176813854199]",100.0,"[-0.1072580161059109,0.06149330825931921]",4.0,"[-0.045715958746209914,0.10293611056190495]",4.0,"[0.14035799471253727,-0.07974777377707147]",100.0,"[-0.09114355142437162,-0.11090514717504499]",100.0,"[0.00036451178733283476,0.11455562208632039]",4.0,"[0.13388154966633278,-0.13974272904324403]",100.0,"[0.17410296964065614,0.08119664794244265]",100.0,"[-0.16954586789700574,-0.07301467536981093]",100.0,"[-0.03631906217089983,-0.09627996395450149]",100.0,"[0.17402463165872817,0.027796975107865923]",100.0,"[-0.0006053633302741472,0.05642030062565235]",100.0,"[-0.09943095226144738,0.15010106004897225]",100.0,"[0.1007709229585813,0.04410403353737329]",100.0,"[-0.14258982527213207,-0.12080002701738002]",100.0,"[-0.1349311789015067,0.02945030088695778]",4.0,"[0.03360523965026633,-0.1355024521673151]",100.0,"[0.13180745219606643,-0.037053870626882604]",4.0,"[-0.05500400597508026,0.031094791884086717]",100.0,"[0.059260388258591465,0.14421849900540365]",4.0,"[0.19400812263386438,-0.032948689688810553]",4.0,"[0.09210324343911452,-0.09852892760890114]",4.0,"[0.12244673279066967,0.0041301543210509415]",100.0,"[0.015350525860221627,0.15426196688820626]",4.0,"[-0.038145789816042934,-0.044693742728673796]",100.0,"[-0.04209026602984038,0.15962669659516165]",100.0,"[0.03596919164362069,-0.004664019489997928]",4.0,"[0.05434471630312041,0.0387383861335669]",4.0,"[-0.06641005960782444,-0.156011550650924]",4.0,"[0.02,0.02]",95.5884,0.0,12.0,12.0,38.0,1.0,,,,,,,
,,,,,,,571a78f06a1c6300114b8d80,683aef5d17c2d5a2d3bfc02b,2025-05-31_13h00.58.304,shape_ratio,2024.1.5,Win32,61.34969325,683ae9196541af24d3a69e58,,,,,,,,,,,95.5891,96.0884,,,96.3408,96.5729,left,,,,,,,,0.9,0.2146,,,,,,,96.0884,96.3408,96.573,"[0.16596897990642367,-0.035673589157474074]",100.0,"[-0.032072117684454365,0.09986932403341812]",100.0,"[-0.18778285730153746,-0.04556379990613819]",100.0,"[-0.11391927277261593,0.11622726152524228]",100.0,"[-0.011731121187176551,0.1649678058585737]",4.0,"[0.06964803119575005,-0.10086848170846155]",100.0,"[-0.07947858266750672,0.004118460213963381]",100.0,"[-0.03387138998147193,-0.18990920145742926]",100.0,"[-0.12163983681567925,-0.07152337533534295]",100.0,"[0.05820161088880842,0.07005191623382256]",100.0,"[0.019389676561577477,-0.01554953836523711]",100.0,"[0.015161691296655235,0.03032300514601714]",100.0,"[0.04898189178977088,-0.1402062781885651]",100.0,"[0.16092887703391803,-0.08413472057018427]",100.0,"[0.042966489291096484,0.11037051186873573]",100.0,"[-0.14879528044049922,-0.001954175235850749]",100.0,"[-0.006730915758679878,-0.12740625263960373]",100.0,"[0.11963011446553709,0.15719763905236747]",100.0,"[-0.14743117417964086,-0.10996955451349572]",4.0,"[-0.11468490385602365,0.049562494492280666]",100.0,"[0.02795696218298954,0.17894290995582385]",100.0,"[0.013573420855895864,-0.05732317560368537]",4.0,"[0.12655621210998078,0.06177331461534695]",100.0,"[0.17453652588137997,0.053472554097447424]",100.0,"[0.1971542816715957,0.011389831022625413]",100.0,"[-0.18386745621237593,0.03870757205633444]",100.0,"[-0.15633142313783627,0.08921502944599012]",100.0,"[-0.08749428840801009,0.17718330116152983]",100.0,"[0.12406051804357265,-0.1414722958520844]",100.0,"[-0.07123572724397512,-0.15254911196851176]",100.0,"[0.06609883779786405,0.006538047988929803]",100.0,"[0.10347321495491077,-0.06008611240305998]",100.0,"[0.02,0.02]",97.6724,0.0,13.0,13.0,9.0,1.0,,,,,,,
,,,,,,,571a78f06a1c6300114b8d80,683aef5d17c2d5a2d3bfc02b,2025-05-31_13h00.58.304,shape_ratio,2024.1.5,Win32,61.34969325,683ae9196541af24d3a69e58,,,,,,,,,,,97.6732,98.1718,,,98.4263,98.7891,right,,,,,,,,0.4,0.3343,,,,,,,98.1718,98.4262,98.7891,"[-0.00736155682767795,-0.14626617599154013]",100.0,"[-0.10081494642211711,0.1234845610342913]",4.0,"[-0.054975808139255455,0.05410823161076413]",100.0,"[0.012213199265197436,0.07843708545069177]",4.0,"[-0.1682129331628465,-0.053132913237893584]",4.0,"[-0.02585751132939841,0.17719476510720752]",100.0,"[-0.13555556523644205,-0.07649533186846508]",4.0,"[-0.15591931747749044,0.10559654356756239]",4.0,"[0.024351502991770718,-0.10848250318744039]",4.0,"[0.05411412963083729,0.1295771075460784]",100.0,"[-0.014688270605519844,0.03814831690592945]",4.0,"[0.0804078000938478,0.07871601152559876]",100.0,"[-0.06472506574289043,-0.1170843293535034]",4.0,"[-0.03935504223360091,0.13658785641916402]",100.0,"[0.14165508061592422,-0.11337178821987619]",4.0,"[-0.06562017410774025,-0.18612650570768396]",4.0,"[-0.09456507415042134,-0.0693581729393325]",4.0,"[0.11416893677992056,0.04921958072885785]",4.0,"[0.12126471098323517,0.14405903220301458]",100.0,"[0.06528175476532007,-0.17480046345850417]",100.0,"[-0.09067712256067935,-0.01862055672366468]",100.0,"[0.06109386830911712,0.0396724156211014]",100.0,"[0.09423561792173989,-0.010188813600673818]",4.0,"[0.19736713931641353,-0.015144725211766427]",4.0,"[0.18382124644970804,0.06040197279594901]",100.0,"[-0.11584093693393037,0.03911701171873952]",100.0,"[0.09855593590029765,-0.05943504818243442]",4.0,"[0.04592830713608726,-0.011587449275030172]",4.0,"[-0.08575607533906938,0.17742182185822933]",4.0,"[-0.17104238944042593,0.012719565822582272]",100.0,"[0.008373887726919205,-0.18321085475680102]",4.0,"[-0.00768140222686714,-0.05866215004956081]",4.0,"[0.02,0.02]",99.8899,0.0,14.0,14.0,158.0,1.0,,,,,,,
,,,,,,,571a78f06a1c6300114b8d80,683aef5d17c2d5a2d3bfc02b,2025-05-31_13h00.58.304,shape_ratio,2024.1.5,Win32,61.34969325,683ae9196541af24d3a69e58,,,,,,,,,,,99.8903,100.3898,,,100.6407,101.1403,left,,,,,,,,0.5,0.4702,,,,,,,100.3898,100.6407,101.1404,"[-0.005234341032287294,-0.04484993417142254]",4.0,"[0.06194280149404158,0.0545008993340177]",100.0,"[-0.1411623373350759,0.03206723264868785]",4.0,"[0.01022560973436833,-0.007662585949142144]",100.0,"[-0.03742337717668341,0.02340392228922171]",4.0,"[-0.018063968932697936,0.10422691493903927]",100.0,"[-0.03710397884575817,-0.12969311240411974]",100.0,"[-0.16972178924829445,-0.011261690685435715]",4.0,"[-0.06899613139626004,-0.16050937129508866]",100.0,"[0.0456201341446353,0.13571097895708492]",4.0,"[0.06786185433936105,-0.0957273801057781]",4.0,"[-0.15906736548027467,-0.11960614486735437]",4.0,"[0.10868741155494108,0.0830879718337544]",4.0,"[0.03284261510309904,-0.13236668722190587]",4.0,"[-0.11314443724591741,-0.03918702296833302]",100.0,"[-0.11934660889402077,-0.0842972068979029]",4.0,"[0.09798929974760627,-0.14608537558399426]",4.0,"[0.19582232874825725,0.00840378164652448]",100.0,"[-0.1539040517102261,0.09407944452824116]",100.0,"[0.10636634033785031,-0.04183126374784019]",4.0,"[0.0909353920878427,0.021945677782062144]",100.0,"[-0.04801942006994699,0.17310551462996107]",100.0,"[0.13267947328344815,0.12351562277512579]",100.0,"[0.14721787258592886,-0.08126621452535542]",4.0,"[0.036016239530637824,0.17999746862238086]",100.0,"[-0.08381217217229443,0.11995426133745027]",4.0,"[-0.0956812657230926,0.0704567617600021]",100.0,"[0.054465793722987405,-0.014571590378783193]",100.0,"[-0.005560328037211112,-0.1821941575360246]",100.0,"[-0.07801467258936307,-0.06062001501589312]",4.0,"[0.005430593480237429,0.04612402003018743]",4.0,"[0.1696961706866543,0.09826983351567273]",100.0,"[0.02,0.02]",102.2406,0.0,15.0,15.0,118.0,1.0,,,,,,,
,,,,,,,571a78f06a1c6300114b8d80,683aef5d17c2d5a2d3bfc02b,2025-05-31_13h00.58.304,shape_ratio,2024.1.5,Win32,61.34969325,683ae9196541af24d3a69e58,,,,,,,,,,,102.2411,102.7413,,,102.993,103.2407,left,,,,,,,,0.45,0.2431,,,,,,,102.7414,102.9929,103.2408,"[0.1917268107879491,-0.016405496981871433]",100.0,"[-0.060781471283345746,-0.11395859504609422]",4.0,"[-0.037983711522371295,-0.03155079792820113]",100.0,"[-0.059346659601309956,-0.0700737272501613]",100.0,"[0.055497161942388795,0.142706889853875]",100.0,"[-0.0670570976616206,0.004109089711580401]",4.0,"[-0.11025641244675326,0.05493427096327792]",4.0,"[0.016916780531157666,0.008022177364114522]",100.0,"[-0.0024787650799654305,0.14242322931639595]",4.0,"[-0.08442267016205657,0.13065696181561562]",4.0,"[-0.00012244760347674706,-0.1901048664866865]",4.0,"[-0.12648663254533124,-0.05452137527963509]",100.0,"[0.13049147220771323,-0.09194533703574485]",4.0,"[-0.053739274920521614,0.17689826661223604]",100.0,"[0.11465184874081269,0.03363196496130067]",4.0,"[-0.09698007909508141,-0.023090335755840092]",4.0,"[0.09094111761538166,0.1648077588927818]",100.0,"[0.003396157953640441,0.06839037420754371]",100.0,"[-0.055227645398386205,-0.1551690473591678]",4.0,"[-0.18544604487480632,-0.058986356795226264]",4.0,"[-0.17280516722628128,0.06697928871385132]",100.0,"[0.13582400782611137,-0.040344258567918734]",4.0,"[0.018474660190788954,-0.07895193358577712]",4.0,"[0.08449720243070198,-0.03196529869797747]",4.0,"[0.07107926007635319,-0.12168096268975756]",4.0,"[-0.04509205748403355,0.05298591938422941]",100.0,"[-0.1865456310157158,-0.01781099209831535]",100.0,"[0.013380439195251915,-0.1359892323905892]",4.0,"[0.14282875884099905,0.11733046387249245]",4.0,"[0.15427449925228953,-0.12497066838950147]",100.0,"[-0.12505056578193197,-0.09784630775850928]",4.0,"[0.05872278139823351,-0.07047987784286251]",100.0,"[0.02,0.02]",104.341,0.0,16.0,16.0,149.0,1.0,,,,,,,
,,,,,,,571a78f06a1c6300114b8d80,683aef5d17c2d5a2d3bfc02b,2025-05-31_13h00.58.304,shape_ratio,2024.1.5,Win32,61.34969325,683ae9196541af24d3a69e58,,,,,,,,,,,104.3419,104.8413,,,105.0924,105.3247,right,,,,,,,,0.45,0.2177,,,,,,,104.8414,105.0923,105.3248,"[0.11218635811287506,0.0015936236979818231]",100.0,"[0.0965088973752012,-0.042816590816793315]",4.0,"[0.0841234190726159,-0.11377374750971095]",4.0,"[0.038280604138422755,0.01583894286199451]",4.0,"[-0.06740000127531988,0.022369174774917292]",100.0,"[0.07105190174122683,0.10171409887435494]",4.0,"[0.1466187411490821,0.1058121430241198]",100.0,"[-0.06709568783477032,0.07242529897601495]",4.0,"[-0.12242470221758336,-0.013832226612337302]",4.0,"[0.18004599494645615,-0.05768117370161703]",100.0,"[-0.029451156603741854,-0.12355805580593851]",100.0,"[-0.03197809701833408,-0.006269940091974164]",4.0,"[-0.10770859539265812,-0.15746978285665]",100.0,"[-0.17301773605576715,-0.07129713597027704]",4.0,"[-0.11907458053732212,0.1422988838102984]",100.0,"[0.13747215688194225,-0.1350626543080208]",100.0,"[-0.024448280444941475,-0.04641058564818477]",4.0,"[-0.1556490108657695,0.02315251552950358]",100.0,"[-0.0418511226027249,0.15629597021355404]",4.0,"[0.1798346473229865,-0.01722805945229865]",4.0,"[-0.11979096792300573,0.08227756559791372]",100.0,"[0.1639340035121048,0.051146352363875235]",4.0,"[-0.015049206918729038,-0.16944822089587763]",4.0,"[0.10972784010803001,0.13734300551199194]",4.0,"[-0.08778540073185333,-0.0908464732936363]",100.0,"[-0.1548942119390755,-0.1222557783848939]",4.0,"[0.0095584230645088,0.08911292362650651]",4.0,"[-0.008186252718241473,0.12684974766526014]",100.0,"[0.020568315893902636,-0.12213872090940085]",4.0,"[0.026457110435443076,-0.17199613352746293]",4.0,"[0.031267081283662616,0.15832831347978912]",100.0,"[0.05253830874373964,-0.02655985943220197]",100.0,"[0.02,0.02]",106.4251,0.0,17.0,17.0,120.0,1.0,,,,,,,
,,,,,,,571a78f06a1c6300114b8d80,683aef5d17c2d5a2d3bfc02b,2025-05-31_13h00.58.304,shape_ratio,2024.1.5,Win32,61.34969325,683ae9196541af24d3a69e58,,,,,,,,,,,106.4257,106.9253,,,107.1787,107.3936,right,,,,,,,,0.1,0.2039,,,,,,,106.9253,107.1787,107.3937,"[-0.11315680193062182,-0.08617964972181193]",4.0,"[-0.12985615650127488,0.07891085822025157]",4.0,"[0.11669155485245938,0.13025027208690537]",4.0,"[0.17126965130937113,-0.10109737070867542]",4.0,"[-0.07649745740865005,0.10967879903561775]",4.0,"[-0.09243286205648879,-0.025847767438893554]",4.0,"[-0.015127209333906143,0.11427880767702009]",4.0,"[-0.1522718642271143,0.026223910698965607]",4.0,"[-0.10772707832940327,0.023388916105928696]",4.0,"[0.08505067659884284,0.0022295024506424703]",100.0,"[-0.030726578573902597,-0.11027893637545576]",4.0,"[0.02784115333857041,0.11835565280023767]",4.0,"[0.08458028962392704,-0.047463592055078746]",4.0,"[-0.08974022377750743,0.06627408681488736]",4.0,"[-0.16626984606190273,0.10755798263940909]",4.0,"[0.04020057800038224,-0.08812158907822376]",4.0,"[0.12566095283369316,0.08862698525177612]",100.0,"[0.027917523096353238,0.01332356125757068]",100.0,"[0.1275696699236809,0.040987362720389574]",4.0,"[0.1324895075540076,-0.0791896745389142]",4.0,"[0.06728354805533969,-0.12505010546837986]",4.0,"[0.048986087768882094,0.15581351828318205]",4.0,"[0.002100141464067993,0.19097757059768922]",4.0,"[-0.07404169460054656,-0.17292058107952926]",4.0,"[-0.05726046840239399,-0.05862901258780346]",4.0,"[0.0234600329365771,-0.16131611722300784]",4.0,"[0.19637412945866342,0.03341437273521088]",4.0,"[-0.010193878966686956,-0.007449253983668734]",4.0,"[-0.06926277087785078,0.1660288658298587]",4.0,"[-0.04209981045856381,0.04910019418688174]",4.0,"[0.07076110620081265,-0.18279939995591452]",4.0,"[-0.1297072728945357,0.14520415796694325]",4.0,"[0.02,0.02]",108.4937,0.0,18.0,18.0,189.0,1.0,,,,,,,
,,,,,,,571a78f06a1c6300114b8d80,683aef5d17c2d5a2d3bfc02b,2025-05-31_13h00.58.304,shape_ratio,2024.1.5,Win32,61.34969325,683ae9196541af24d3a69e58,,,,,,,,,,,108.4942,108.9939,,,109.244,109.393,left,,,,,,,,0.1,0.127,,,,,,,108.9939,109.244,109.3931,"[0.09209199604300214,0.02344757296933217]",4.0,"[0.10431262219999678,-0.12477185766150697]",4.0,"[0.06146640761539962,-0.1502255623822905]",4.0,"[0.0770347911889744,-0.06777930666616427]",4.0,"[0.05853749058077529,0.10773252292193261]",4.0,"[-0.10140634268126884,-0.06095513865519255]",4.0,"[-0.034498907575243175,0.08883432304046818]",4.0,"[-0.016534466938623538,-0.01314442310276489]",4.0,"[0.009022159599890205,0.16350469936678574]",4.0,"[0.07730930433884255,0.15486625350876748]",4.0,"[-0.0011336938036224035,-0.13165816369014413]",4.0,"[-0.12402757231793775,0.010983094902745795]",4.0,"[0.04660000759654507,-0.19272603037542677]",4.0,"[-0.04824331058652427,0.031942419540284026]",4.0,"[0.13118536385717133,0.07443867383755554]",4.0,"[-0.06580751349306954,0.13149921493381916]",4.0,"[0.1954466324793898,-0.027271828013084972]",4.0,"[0.11690615380815701,-0.049620932845092926]",100.0,"[-0.06523738167768783,0.18199743418023978]",100.0,"[-0.1451206305648778,-0.1078498339209246]",4.0,"[-0.09299043658204309,-0.14571256803927543]",4.0,"[-0.16827840900461413,-0.03765986135278495]",4.0,"[-0.047428053898421606,-0.08660948891769005]",4.0,"[0.08087499105298071,-0.02739053824507547]",4.0,"[0.034490702519378684,0.033977483038115125]",4.0,"[0.009887440952702033,0.09019949467766478]",100.0,"[-0.13288911768556871,0.08874349256917163]",4.0,"[-0.046273273741921965,-0.04589466861076682]",4.0,"[0.14705397199638595,0.1149298508494466]",4.0,"[-0.0430330702010364,-0.12881332413844795]",4.0,"[-0.18788498810935267,0.02832370413690596]",4.0,"[-0.036060318588343895,-0.18388618782524413]",4.0,"[0.02,0.02]",110.4937,0.0,19.0,19.0,181.0,1.0,,,,,,,
,,,,,,,571a78f06a1c6300114b8d80,683aef5d17c2d5a2d3bfc02b,2025-05-31_13h00.58.304,shape_ratio,2024.1.5,Win32,61.34969325,683ae9196541af24d3a69e58,,,,,,,,,,,110.4946,110.9938,,,111.2457,111.6106,right,,,,,,,,0.4,0.3394,,,,,,,110.9939,111.2457,111.6107,"[-0.04435108214172055,0.09718840147376387]",4.0,"[0.11437179339752038,0.02929225233808334]",4.0,"[-0.09372558859069388,0.08851250247694221]",100.0,"[0.16492329756131766,-0.04137176883858453]",4.0,"[-0.11774943929202689,0.050081543161815616]",100.0,"[-0.007737523882588065,-0.007485061310447365]",4.0,"[-0.17828143305821767,-0.01008863261522143]",4.0,"[0.01288787048808532,-0.11267184803536924]",100.0,"[0.15813956115400873,0.06922416517460671]",100.0,"[-0.0763615473694053,0.005322130122536098]",4.0,"[-0.08505502463456494,0.17090773589385652]",4.0,"[0.06418224267182898,0.03296206876610492]",100.0,"[0.1089213510190439,-0.16193056944427311]",4.0,"[-0.02342720252091928,-0.049964053980204114]",4.0,"[0.08625384938087545,-0.03543272399060304]",100.0,"[0.04149183419557356,-0.04423552895225481]",100.0,"[0.08925855523565668,0.06412795695480046]",100.0,"[0.056032832791611316,-0.1002805440074298]",100.0,"[-0.06792701119249155,-0.1588910475668999]",100.0,"[0.06693554231395626,-0.1849844590761932]",4.0,"[-0.12117631689744528,-0.1260084177639825]",4.0,"[0.17671190209555368,-0.08461023048167544]",4.0,"[-0.18336553862994587,-0.06770516944291342]",4.0,"[0.10988740469512066,0.09924742098274746]",100.0,"[-0.12533699805916945,0.11619208069114195]",4.0,"[0.1505745720944338,-0.11577812687418103]",4.0,"[-0.14123015369280997,0.010533370405321478]",100.0,"[0.17707766846774528,0.01747600892233594]",4.0,"[-0.019021151839415235,0.19334164827744213]",100.0,"[-0.1790234605938657,0.03455388717851652]",4.0,"[-0.0863544017114297,-0.07102258334881778]",4.0,"[0.0030907252110503234,-0.16120101279777227]",4.0,"[0.02,0.02]",112.7107,0.0,20.0,20.0,165.0,1.0,,,,,,,
,,,,,,,571a78f06a1c6300114b8d80,683aef5d17c2d5a2d3bfc02b,2025-05-31_13h00.58.304,shape_ratio,2024.1.5,Win32,61.34969325,683ae9196541af24d3a69e58,,,,,,,,,,,112.7113,113.212,,,113.4633,113.8785,left,,,,,,,,0.55,0.3839,,,,,,,113.2121,113.4632,113.8786,"[0.07534887288768936,0.06660425029796499]",100.0,"[0.009832240978355377,-0.06769365650508133]",4.0,"[-0.07286887887003815,-0.12547629565606971]",4.0,"[0.05767613001110755,0.15890551133114628]",4.0,"[-0.09164382451175963,0.10396753990916631]",100.0,"[0.10148333269959608,-0.048209190142531375]",100.0,"[-0.03903310478904101,0.09379500428944444]",100.0,"[-0.017944375218380916,0.023263788168565617]",100.0,"[0.12450942604740436,-0.13333694623523162]",4.0,"[0.11760214740354484,0.0579737705898227]",4.0,"[0.05036329562818406,-0.1576095074118472]",4.0,"[0.15840577808542627,-0.10063393738549738]",100.0,"[-0.15000505342014506,-0.07820344590148995]",4.0,"[-0.1319011143741167,0.018040404241207966]",4.0,"[-0.11473548127418758,-0.049460322862821184]",4.0,"[0.08014570088026017,0.0046013663992780585]",100.0,"[-0.04542320220089127,0.17330571680437926]",4.0,"[-0.010267901867853108,0.13789658562120902]",100.0,"[0.15871708912500784,-0.000762734585996555]",4.0,"[-0.1382427538725933,0.10191725348974898]",100.0,"[-0.12689677733247326,0.1435756433599551]",4.0,"[0.18183224567436104,0.05763067307763227]",4.0,"[-0.1035235104948979,0.04774558449129588]",100.0,"[0.008414486972239132,0.09614599786081869]",100.0,"[0.13394307624220497,0.13955075567566227]",100.0,"[-0.16609866210778337,0.041222481883392545]",100.0,"[-0.1836233425875485,-0.03557280847894784]",100.0,"[-0.11837432019151659,-0.10838753060581957]",100.0,"[0.0065646745905594,-0.025561970405081513]",100.0,"[0.0399598142136669,0.021983536532245836]",100.0,"[-0.0006085672260517112,-0.15382988820507737]",100.0,"[-0.035774059869824924,-0.056346717535993414]",4.0,"[0.02,0.02]",114.9795,0.0,21.0,21.0,75.0,1.0,,,,,,,
,,,,,,,571a78f06a1c6300114b8d80,683aef5d17c2d5a2d3bfc02b,2025-05-31_13h00.58.304,shape_ratio,2024.1.5,Win32,61.34969325,683ae9196541af24d3a69e58,,,,,,,,,,,114.9799,115.4788,,,115.7319,115.9458,left,,,,,,,,0.55,0.2065,,,,,,,115.4789,115.7319,115.9459,"[-0.1481199060889542,0.06099439397713967]",100.0,"[0.13262502203768597,-0.017794867709072407]",100.0,"[-0.035209675578106205,-0.16922668417309344]",4.0,"[0.02632597778468739,0.1637972929687212]",100.0,"[0.11636152033713439,0.08399310446057541]",4.0,"[0.05076497904065187,0.04137226421904721]",4.0,"[0.03610042427580522,-0.1843390108063059]",4.0,"[0.1851956941989054,0.03988431145399416]",100.0,"[0.0783587826896247,-0.046405721396438095]",100.0,"[-0.0429384074051983,-0.043013458103013526]",4.0,"[0.07770404677954063,0.11690681761093845]",100.0,"[-0.03275845852174786,0.1730455482196273]",100.0,"[0.13900618820758778,-0.11285831044990138]",4.0,"[0.19113727230861025,-0.04998588741063165]",100.0,"[0.10158456398936833,-0.16784148281225106]",100.0,"[-0.1607642288150328,0.018536483656943496]",100.0,"[0.07967897566734412,-0.10225152591603762]",100.0,"[0.04563366858917842,0.08700886813028115]",4.0,"[-0.12054602622373255,0.15873335854623297]",4.0,"[-0.07508802551957934,0.17231777595680597]",4.0,"[-0.06417765816793712,0.08948600173840557]",100.0,"[0.02563846900371734,-0.043889050030125165]",100.0,"[0.010335017814109622,0.022345036998048132]",100.0,"[-0.13536720175153236,0.10442440204158714]",4.0,"[-0.13163483572427367,-0.12092614103082701]",100.0,"[0.15906052663547074,0.08285664130852821]",100.0,"[-0.06912787583635592,-0.1210742223629477]",100.0,"[0.026268401876327393,-0.13046798430296583]",4.0,"[-0.02549184120873139,-0.0008606309891006709]",4.0,"[-0.11461670780096617,-0.028234686446251253]",4.0,"[-0.09230573168049243,0.03349917226029183]",4.0,"[-0.11000053071378996,-0.1655202453236127]",100.0,"[0.02,0.02]",117.0455,0.0,22.0,22.0,65.0,1.0,,,,,,,
,,,,,,,571a78f06a1c6300114b8d80,683aef5d17c2d5a2d3bfc02b,2025-05-31_13h00.58.304,shape_ratio,2024.1.5,Win32,61.34969325,683ae9196541af24d3a69e58,,,,,,,,,,,117.0461,117.5459,,,117.7842,117.9793,left,,,,,,,,0.45,0.1676,,,,,,,117.546,117.7842,117.9794,"[-0.029609296021098228,0.13898309079314353]",4.0,"[0.055806177611301126,0.11868751145433605]",4.0,"[-0.1805943504253883,-0.014676739222220734]",100.0,"[-0.13463148520005014,0.04916942597063419]",4.0,"[-0.0420846048616374,-0.09385891433273057]",100.0,"[0.18028157879529344,0.07481216194328626]",100.0,"[-0.14025255325780298,-0.07631409391900645]",4.0,"[0.18397260659668446,-0.056868946849420225]",4.0,"[0.05039106756018908,-0.18792325340328456]",4.0,"[0.14182517722108504,-0.09722255009602426]",100.0,"[0.02628873064476897,0.1459357436793133]",4.0,"[0.08089128157962054,0.016582782107623026]",4.0,"[-0.09100708477044113,0.09053181273738946]",100.0,"[0.12917206527953165,-0.14760119471576708]",100.0,"[-0.028160876569146343,0.020429436819513775]",100.0,"[0.06505468376168155,-0.07405925292110282]",4.0,"[-0.006743265115026751,-0.05589009219025327]",4.0,"[0.12531664740652734,0.024001028444101104]",100.0,"[0.006947073927084806,-0.19860519655429604]",100.0,"[0.1030573496721908,-0.043002229615035276]",100.0,"[0.003327639535223963,-0.13035819271198995]",100.0,"[-0.048249206522926774,-0.15480075618308073]",100.0,"[0.135972252494798,0.11939716764294725]",4.0,"[-0.009451300435676024,0.10161697828413012]",4.0,"[-0.10484457553689826,-0.049738684209273624]",100.0,"[-0.13360812934605126,-0.11797597688888338]",4.0,"[0.13368718815383226,0.07391635112615969]",100.0,"[-0.034851102326445706,-0.026455324843248612]",4.0,"[-0.1840516097361609,0.05423103077718833]",4.0,"[-0.057682234632984164,0.17032853462029796]",4.0,"[-0.11983192504219449,0.11952103940308542]",4.0,"[0.005510994902453729,0.06009822886029137]",4.0,"[0.02,0.02]",119.0805,0.0,23.0,23.0,130.0,1.0,,,,,,,
,,,,,,,571a78f06a1c6300114b8d80,683aef5d17c2d5a2d3bfc02b,2025-05-31_13h00.58.304,shape_ratio,2024.1.5,Win32,61.34969325,683ae9196541af24d3a69e58,,,,,,,,,,,119.0809,119.5815,,,119.8311,120.1971,left,,,,,,,,0.9,0.3336,,,,,,,119.5816,119.8311,120.1973,"[-0.12053545480009593,0.12951056212573953]",100.0,"[0.07914080138363402,-0.022980838215519432]",100.0,"[0.14277197559582502,-0.11201694620356349]",100.0,"[0.1674818738814661,0.03784213301916401]",100.0,"[-0.003644528200635821,0.16601401493414017]",100.0,"[-0.010950052536174874,-0.13404187263972117]",100.0,"[0.016932462363747958,-0.06841542520786434]",100.0,"[0.03920342657106677,-0.18780576877455168]",100.0,"[0.007642791829221267,-0.028907339481977292]",100.0,"[-0.05517889082289288,0.18612999803868516]",100.0,"[-0.15187807344340296,0.08932663741124859]",100.0,"[-0.13338813355674678,0.0016140790452835359]",100.0,"[-0.13398515920328105,-0.04245603443459643]",100.0,"[0.08337492373155739,0.17334191211063765]",100.0,"[0.13534284641308075,-0.0655345155133944]",100.0,"[-0.03895745058166615,0.08349948431908344]",100.0,"[-0.027543192715265622,0.13381985442177027]",100.0,"[0.05802192342239497,-0.061569628991436615]",4.0,"[0.14995935688610773,0.1270611153106209]",100.0,"[-0.005678963442255428,-0.197584236900803]",100.0,"[-0.07801778196280026,0.12134093949454033]",4.0,"[-0.09243974949373612,-0.10579502729550766]",100.0,"[0.034286866304025054,0.05618099024177256]",4.0,"[0.044659890977923854,-0.14564506101907795]",100.0,"[0.11567136009320282,0.06094017816044502]",100.0,"[0.09821807785893238,0.021128570919859632]",100.0,"[-0.032231431709324486,-0.06439626739523582]",100.0,"[-0.09225294151910837,0.07466294921213967]",100.0,"[-0.1367277945195528,-0.09090028998391561]",100.0,"[0.040671041852943526,0.16975555350705207]",100.0,"[-0.17950302169214913,0.024618646076223345]",100.0,"[0.19585120318376087,0.006572597186413814]",100.0,"[0.02,0.02]",121.2977,0.0,24.0,24.0,19.0,1.0,,,,,,,
,,,,,,,571a78f06a1c6300114b8d80,683aef5d17c2d5a2d3bfc02b,2025-05-31_13h00.58.304,shape_ratio,2024.1.5,Win32,61.34969325,683ae9196541af24d3a69e58,,,,,,,,,,,121.298,121.7974,,,122.0503,122.2311,right,,,,,,,,0.1,0.1572,,,,,,,121.7975,122.0503,122.2313,"[0.09462008266087578,0.13731259432975723]",4.0,"[0.0549669523735754,-0.08713278663130736]",4.0,"[0.12922102241794278,-0.013265147393265123]",4.0,"[-0.10171221339434511,0.16808412574607878]",4.0,"[-0.008665979706860966,0.03958146631964572]",4.0,"[0.16660095118748255,-0.075904111022326]",4.0,"[-0.1511581125006923,-0.09833436689104799]",4.0,"[-0.11504072467061034,-0.061896999711883394]",4.0,"[-0.0029472483604141135,0.12079316268660843]",4.0,"[-0.02289071006167456,-0.131624213302145]",4.0,"[0.19071459737411103,0.052568634463637465]",4.0,"[-0.08702761219348892,-0.00013217739436368147]",4.0,"[0.10725895019365306,0.04673308592017405]",4.0,"[-0.06357601669484456,0.04788774607697973]",4.0,"[-0.16626789561212688,0.1031691547060828]",4.0,"[0.09624144427889202,-0.12247658346894735]",4.0,"[0.03252473808848916,-0.1769876749980454]",4.0,"[-0.02889407045222979,0.15772507680746706]",4.0,"[0.09394294578208366,-0.07244241050475261]",4.0,"[-0.002329374444274298,0.19651036260223054]",4.0,"[0.0681592946832611,0.1704872240890281]",100.0,"[-0.030496454608281983,-0.1849293712399675]",4.0,"[-0.008650629406854819,-0.025221309001626877]",4.0,"[-0.17099627772119713,0.0261814241227353]",100.0,"[-0.047945232229631374,-0.06342838877960766]",4.0,"[0.07036076584150829,-0.0033488443731930764]",4.0,"[-0.0847311991721942,-0.1474671791212096]",4.0,"[-0.1590288334085311,-0.02899521430315132]",100.0,"[0.061529936581356554,0.03901619147925281]",4.0,"[0.1996100627207342,0.003940868756090795]",4.0,"[0.03149935970820737,-0.025409681695132705]",4.0,"[0.13468029306128732,0.0907496265076682]",4.0,"[0.02,0.02]",123.3324,0.0,25.0,25.0,198.0,1.0,,,,,,,
,,,,,,,571a78f06a1c6300114b8d80,683aef5d17c2d5a2d3bfc02b,2025-05-31_13h00.58.304,shape_ratio,2024.1.5,Win32,61.34969325,683ae9196541af24d3a69e58,,,,,,,,,,,123.3331,123.8322,,,124.0862,124.5838,right,,,,,,,,0.55,0.4677,,,,,,,123.8323,124.0862,124.584,"[-0.1354409302713012,0.08148084533994837]",100.0,"[0.09300139167894826,0.06525584679132033]",100.0,"[-0.09369380912579342,0.11895646436262472]",4.0,"[0.042380735265944165,0.1199107248010618]",4.0,"[-0.18394993404602744,-0.0306923555059366]",4.0,"[0.041614236110489394,-0.026244303327823685]",100.0,"[0.06877194881349762,0.18694963545990664]",4.0,"[0.1782616630344027,-0.009793143781028213]",100.0,"[-0.06022558871018855,-0.0650243060531251]",100.0,"[-0.04228161649406642,0.1750895834703185]",100.0,"[0.09337506702122242,0.02267828325961172]",4.0,"[-0.0768246144088831,-0.0195842189426048]",100.0,"[0.054814652295604435,-0.12135622432126912]",4.0,"[-0.06436794086554305,0.049154759562236236]",100.0,"[-0.08195328956882958,-0.13491594572458823]",100.0,"[0.028583179302524953,0.01588078642768847]",4.0,"[-0.03831442467582826,-0.1599891138560822]",100.0,"[-0.01927384335576184,0.1363878603145865]",100.0,"[0.004748739525009074,0.10242956649639628]",100.0,"[0.14608662867161964,0.08061285851573666]",4.0,"[-0.15617563185827207,0.12465093116893568]",4.0,"[0.13749771588777088,-0.09961435022864079]",100.0,"[-0.14144706700714865,-0.09461127407590877]",4.0,"[0.08690641172031224,-0.15204133739709497]",100.0,"[-0.12489185905102555,0.02766748736012044]",100.0,"[0.04345986353335162,-0.16430786047655546]",4.0,"[-0.012736834600743374,-0.0358668525964246]",4.0,"[-0.19308805901610943,0.04040519317558167]",100.0,"[0.09158376959825688,0.12452386057470896]",4.0,"[0.028302284806134316,0.18279476012506404]",100.0,"[-0.0794008216560898,-0.18205268943112005]",100.0,"[0.0006839405746482034,-0.1852733903161449]",4.0,"[0.02,0.02]",125.6836,0.0,26.0,26.0,61.0,1.0,,,,,,,
,,,,,,,571a78f06a1c6300114b8d80,683aef5d17c2d5a2d3bfc02b,2025-05-31_13h00.58.304,shape_ratio,2024.1.5,Win32,61.34969325,683ae9196541af24d3a69e58,,,,,,,,,,,125.6839,126.1823,,,126.4344,126.7173,left,,,,,,,,0.4,0.2506,,,,,,,126.1823,126.4342,126.7173,"[0.14681287095718115,-0.01844097479401447]",100.0,"[0.17783145692145874,-0.05952655889890657]",4.0,"[-0.046698473694751136,0.1477209630173197]",4.0,"[0.07197153062752365,-0.045970115297824354]",4.0,"[-0.025489115481699746,-0.023258583424352847]",4.0,"[-0.004845097521074724,0.16293314125269312]",4.0,"[-0.04482755592360874,-0.14245161160455944]",100.0,"[-0.13579614568552872,0.08234688690744314]",100.0,"[-0.11061375154082881,-0.15307970570722973]",4.0,"[0.08492607085042993,-0.14338560235440376]",4.0,"[-0.004742533447427618,-0.18724375081078876]",4.0,"[0.05115010244453636,-0.11436809065427593]",100.0,"[0.05258566696278894,0.04171975171365129]",100.0,"[0.16375898001275543,0.05289735678747449]",100.0,"[0.032121212051670345,0.10015417470880396]",100.0,"[0.009011375726162637,-0.10126456757728632]",4.0,"[-0.04492475980985136,0.08433105956570865]",4.0,"[-0.14267882283965458,0.01575672284128231]",4.0,"[-0.08254678214765127,-0.04878024113474253]",4.0,"[0.09460032759443639,-0.09253515852187294]",4.0,"[-0.16821315547696886,0.10795532890380048]",4.0,"[0.1364711927727987,-0.11133749166697876]",4.0,"[-0.044631642828869646,-0.06560085162941981]",100.0,"[-0.026291253201064197,0.044011082792953266]",100.0,"[-0.12752128486005768,-0.10942625469328003]",100.0,"[0.07002600640445494,0.15479509817813517]",100.0,"[-0.01018536875913821,0.11905691894922285]",4.0,"[0.13265037278178293,0.08102357248871155]",4.0,"[-0.18065942260418605,-0.010286496141533657]",100.0,"[0.09056750159083433,0.07265350952445203]",4.0,"[0.06794939729880771,-0.18006526521824673]",100.0,"[0.10642652881286833,0.0008568492872887395]",4.0,"[0.02,0.02]",127.8163,0.0,27.0,27.0,157.0,1.0,,,,,,,
,,,,,,,571a78f06a1c6300114b8d80,683aef5d17c2d5a2d3bfc02b,2025-05-31_13h00.58.304,shape_ratio,2024.1.5,Win32,61.34969325,683ae9196541af24d3a69e58,,,,,,,,,,,127.8171,128.3165,,,128.5705,128.8006,left,,,,,,,,0.55,0.2172,,,,,,,128.3165,128.5705,128.8006,"[0.04993145819573317,0.03014396426499257]",4.0,"[-0.1077501644318883,-0.11729498694708129]",100.0,"[-0.10309064102821638,0.02892539542862858]",100.0,"[-0.12726387445140333,0.10512656848131963]",4.0,"[0.03179204741699576,0.10432848881643693]",4.0,"[0.13100809336829464,0.0018578012396820846]",100.0,"[0.06897458334209024,0.08403996861230437]",4.0,"[0.07068164690448997,-0.162748509958465]",100.0,"[0.07368936364691844,-0.054949888451807656]",4.0,"[0.04821772292666761,-0.012939316033356102]",4.0,"[-0.0409845826049132,0.07044738173055526]",100.0,"[-0.1678476592006985,0.021742578047212788]",4.0,"[0.14304964253336577,-0.1294957227304759]",4.0,"[-0.13649785773586362,-0.045366354940859034]",100.0,"[0.03433508741181765,-0.13250231334549592]",4.0,"[-0.019381823034438975,-0.11578136531191244]",4.0,"[0.09151747310858231,0.17332531038485083]",4.0,"[0.1689999376125,-0.05361651238670104]",100.0,"[0.058158293825774955,-0.09365059914144948]",100.0,"[0.020018708924720536,-0.07982048771495166]",100.0,"[-0.03727498096705087,-0.18952505374427905]",4.0,"[0.005868207128257415,-0.00750180483506208]",100.0,"[-0.08155684717860298,0.13856127338718666]",100.0,"[0.1551460030426286,-0.09116335664869941]",100.0,"[-0.10025151663457166,-0.023023890381756718]",100.0,"[-0.03572392087080026,0.17232793120011092]",100.0,"[0.14167962600878214,0.12604626947175204]",100.0,"[-0.09545374317390386,0.0805423245519416]",4.0,"[-0.1791183221888895,-0.030801377344571456]",4.0,"[-0.12210044342836149,0.1449480938355832]",100.0,"[0.009156771757039108,-0.1945261900665541]",100.0,"[0.0465069393988531,0.17410385492505975]",100.0,"[0.02,0.02]",129.9023,0.0,28.0,28.0,67.0,1.0,,,,,,,
,,,,,,,571a78f06a1c6300114b8d80,683aef5d17c2d5a2d3bfc02b,2025-05-31_13h00.58.304,shape_ratio,2024.1.5,Win32,61.34969325,683ae9196541af24d3a69e58,,,,,,,,,,,129.9029,130.4014,,,130.654,130.9008,left,,,,,,,,0.9,0.2387,,,,,,,130.4014,130.6539,130.9009,"[0.07151279598295379,-0.14359091507899566]",100.0,"[-0.014960114678147915,0.02846048323482124]",100.0,"[0.009864255574301265,0.06187505186797979]",100.0,"[0.06904940555396312,0.12382708941710174]",100.0,"[-0.19065553870076193,-0.009180315298886068]",100.0,"[0.030794767085811074,-0.18784605424892115]",100.0,"[-0.014717281035756537,-0.08838996882677826]",100.0,"[0.08615135905936191,-0.04112334285247659]",100.0,"[-0.18148667460623877,-0.051082109045734556]",100.0,"[-0.11806101678528495,0.030640502433855344]",100.0,"[-0.07209986402436105,0.09719495504800409]",100.0,"[-0.1588999217490581,0.10737128193049462]",100.0,"[-0.1702165082097671,-0.09852292983319577]",100.0,"[0.018545979403885367,-0.05975450351606174]",100.0,"[-0.09361537675766127,-0.13263566408609634]",100.0,"[0.18133496105603683,0.05861895194689005]",100.0,"[0.14924600138265182,-0.06804380161748572]",4.0,"[-0.08593764089957538,0.14195621449788742]",4.0,"[0.1168503404402237,0.08687676430282867]",100.0,"[0.15253541684346877,0.004524593651965483]",100.0,"[0.0767791424060667,0.0005713702273737685]",100.0,"[-0.14450086592332756,-0.1375200182528775]",100.0,"[0.10590375062873732,-0.11664251956719618]",100.0,"[0.0007041782431019475,-0.0199174785866127]",100.0,"[0.10686688630196332,0.141427459278908]",100.0,"[0.06637135510314612,0.06882648947189936]",100.0,"[-0.08838369958249283,-0.17672889366270475]",100.0,"[0.005135381377230462,0.1787924711679561]",100.0,"[-0.01658248378663563,0.11807269528691736]",100.0,"[-0.0009354366818074258,-0.14946656839386502]",100.0,"[-0.0962997745201403,-0.08219015298737051]",4.0,"[0.04021471176394853,-0.09816104634289385]",100.0,"[0.02,0.02]",132.003,0.0,29.0,29.0,18.0,1.0,,,,,,,
,,,,,,,571a78f06a1c6300114b8d80,683aef5d17c2d5a2d3bfc02b,2025-05-31_13h00.58.304,shape_ratio,2024.1.5,Win32,61.34969325,683ae9196541af24d3a69e58,,,,,,,,,,,132.0037,132.5024,,,132.7528,132.9188,left,,,,,,,,0.55,0.1411,,,,,,,132.5025,132.7528,132.919,"[-0.06514746458484731,-0.17946292859207646]",4.0,"[0.004918235095958559,-0.17980517683507383]",100.0,"[0.08081004158707994,0.07356484045104857]",100.0,"[0.00215880240328845,0.15977037909494424]",100.0,"[-0.1909760035979817,0.05445653592265763]",4.0,"[0.1105727633718818,0.14245353957912518]",4.0,"[0.10662066455476113,-0.12513197731364384]",4.0,"[0.027550679403859284,-0.007367295958890297]",100.0,"[-0.058999559126478154,-0.13367932833430032]",4.0,"[0.09177282172667686,0.02154146247735599]",100.0,"[0.028917619546028492,0.09885262223472267]",4.0,"[-0.03430139070442959,-0.0032744670228803843]",100.0,"[-0.05571242860870423,0.059631882031996514]",4.0,"[0.16364871964138358,-0.02920805610238179]",100.0,"[-0.08389832380394176,-0.08383473987960965]",100.0,"[-0.19909524630723874,-0.011410494414363311]",100.0,"[-0.03289673754521482,-0.08712707107676916]",4.0,"[-0.14734730305283827,-0.07627392752094778]",4.0,"[-0.05435050676386129,-0.053309759943768874]",100.0,"[0.1705070298645421,-0.0886812508055142]",100.0,"[0.0865363993074538,-0.09006165025023757]",100.0,"[-0.0047791744115552965,0.05403134539452502]",100.0,"[-0.14091719416212703,-0.03135812542648966]",100.0,"[0.15670089346981508,0.11023492940500733]",100.0,"[-0.18790112868831194,-0.0538653072635798]",4.0,"[-0.009666957036350402,0.19856218178556273]",100.0,"[0.13011509881899197,-0.0017030962058509492]",100.0,"[-0.1378596155572175,0.11059514201179897]",4.0,"[0.026537906414105732,-0.12254701796561497]",4.0,"[0.14336627273785538,0.06997699285160833]",4.0,"[0.04456312048280544,0.15084911828540634]",100.0,"[-0.07615603137238255,0.1372801958581217]",4.0,"[0.02,0.02]",134.0192,0.0,30.0,30.0,66.0,1.0,,,,,,,
,,,,,,,571a78f06a1c6300114b8d80,683aef5d17c2d5a2d3bfc02b,2025-05-31_13h00.58.304,shape_ratio,2024.1.5,Win32,61.34969325,683ae9196541af24d3a69e58,,,,,,,,,,,134.0199,134.5206,,,134.7736,134.9701,right,,,,,,,,0.45,0.1703,,,,,,,134.5206,134.7736,134.9701,"[0.0654313079063204,0.04531910930423114]",4.0,"[0.036276006532371424,-0.008369370883951205]",4.0,"[0.0661357988647993,0.12645788635248867]",4.0,"[-0.09284816572432476,0.028381582428248293]",100.0,"[-0.01851968814664347,0.18623918447988602]",4.0,"[-0.1706636809814937,0.09226448468692024]",4.0,"[-0.17169369864509293,0.04311804761774848]",4.0,"[0.1495456669037198,-0.036784274735509645]",100.0,"[0.04941001073561666,-0.10286350760996756]",4.0,"[-0.12043452378800708,0.14515202364672605]",100.0,"[0.03180821501789425,0.090071358010234]",4.0,"[-0.010347689928961238,-0.09956486159462012]",4.0,"[0.13442772658026916,0.07591848895775753]",4.0,"[-0.0016116997884647163,-0.05506123472580882]",100.0,"[0.01305075264645931,-0.15454434117532606]",100.0,"[-0.1465513286805175,-0.0729824616096107]",100.0,"[-0.04314218953655261,0.004637953851995035]",100.0,"[0.0908708633776665,-0.03537021055062328]",4.0,"[0.02204181523025357,0.18278278479907945]",100.0,"[-0.0004120560083993564,0.11503711657602599]",4.0,"[-0.10092742726042014,-0.07467447724789007]",4.0,"[-0.11969791353564167,-0.009987499450637902]",4.0,"[-0.05915600327054091,-0.11980958223544473]",4.0,"[0.19231427749875774,-0.038103989824257715]",4.0,"[-0.07105998987227471,0.1313015784385099]",100.0,"[0.16728094536809407,-0.07896820517628263]",100.0,"[-0.19482061986362004,-0.004718046045706803]",4.0,"[0.10209509224996899,-0.0808373185038571]",100.0,"[0.1773017792313505,0.08408138051206354]",100.0,"[-0.1782271995176017,-0.04447391050584971]",100.0,"[0.13830743261644976,0.12851705614222234]",100.0,"[-0.05591935989513358,0.07734894723768858]",4.0,"[0.02,0.02]",136.0708,0.0,31.0,31.0,129.0,1.0,,,,,,,
,,,,,,,571a78f06a1c6300114b8d80,683aef5d17c2d5a2d3bfc02b,2025-05-31_13h00.58.304,shape_ratio,2024.1.5,Win32,61.34969325,683ae9196541af24d3a69e58,,,,,,,,,,,136.0717,136.5696,,,136.8208,137.3866,left,,,,,,,,0.5,0.5389,,,,,,,136.5698,136.8207,137.3867,"[-0.068881563628858,-0.06759497532490603]",100.0,"[0.051698355499980767,0.15713066699791206]",4.0,"[0.19761590343875007,0.020119899942839706]",100.0,"[-0.08687340386581723,-0.010146531821933476]",4.0,"[0.13081262848583472,0.0028093282459462562]",100.0,"[-0.1363871433333292,-0.1397820736852938]",4.0,"[-0.08695762546401416,-0.13669257702799295]",100.0,"[-0.15603278001441148,0.09702449324850927]",100.0,"[-0.05444466087543888,-0.19092265270243283]",100.0,"[-0.02189318361060266,0.09488465759485407]",4.0,"[0.09619066361295474,-0.07833689324443134]",100.0,"[0.009619811447864753,-0.13605889761623097]",100.0,"[-0.075893483630261,0.0773495454210985]",4.0,"[0.058008605883686455,-0.03300880412834423]",4.0,"[-0.1187382979817813,-0.0930513770487961]",4.0,"[-0.14960500047919,0.04666860754230432]",4.0,"[-0.1352338894223536,0.007387122958454995]",4.0,"[0.012218053216803111,0.051785284382712064]",4.0,"[-0.0017900436555652868,-0.09723005942336563]",4.0,"[0.0676797318845892,0.1186563594167285]",100.0,"[0.03475992648443636,-0.06604110245581152]",100.0,"[0.09305682068392747,0.16701572674889675]",4.0,"[-0.007750118895023468,-0.1818721050398178]",100.0,"[-0.013721464519220114,0.1458549445650908]",4.0,"[-0.13577515874633292,0.13946813187287746]",100.0,"[0.13894053199914957,0.12169969436617904]",4.0,"[-0.07023714184120698,0.13203512499706402]",100.0,"[0.043400188145686996,-0.18746564679273695]",4.0,"[0.09254195431983904,-0.12308925893592433]",100.0,"[-0.04110993027862824,0.19418891256484097]",4.0,"[0.02682515055520492,-0.005647504435183057]",100.0,"[0.15959277123603885,-0.07200458141711139]",100.0,"[0.02,0.02]",138.4871,0.0,32.0,32.0,92.0,1.0,,,,,,,
,,,,,,,571a78f06a1c6300114b8d80,683aef5d17c2d5a2d3bfc02b,2025-05-31_13h00.58.304,shape_ratio,2024.1.5,Win32,61.34969325,683ae9196541af24d3a69e58,,,,,,,,,,,138.4879,138.9871,,,139.2381,139.5214,left,,,,,,,,0.6,0.2505,,,,,,,138.9871,139.2381,139.5215,"[-0.07613639101047548,0.07806688519411578]",100.0,"[0.06733852422751274,-0.155666542964336]",4.0,"[0.10257922918351053,-0.040731807197128836]",4.0,"[0.1387501254105196,-0.017133102300368117]",4.0,"[-0.17878692219541265,-0.0835542307858712]",4.0,"[-0.11902264507460224,0.012231982089443405]",100.0,"[0.10707369676914845,0.08793636095127459]",100.0,"[0.11685935781076856,0.1479911563922332]",100.0,"[-0.08512095340469844,-0.06309380279418499]",4.0,"[0.11610765746931671,-0.09319720260126386]",4.0,"[-0.12620708446898052,0.10161112834663309]",100.0,"[-0.06026375762502236,0.12554309550881523]",100.0,"[-0.1675900834234296,0.020507468256741306]",4.0,"[-0.0372912785949394,-0.050811223318309805]",100.0,"[0.020392575018049947,0.16190288793217353]",100.0,"[0.06022153856139479,0.14601086895308227]",4.0,"[0.00003317201433346264,0.09249124999853306]",100.0,"[0.00025044374568869947,-0.13452332593347097]",100.0,"[-0.04691407052444307,0.03431540571154397]",100.0,"[0.06634167839982587,0.016223663906832726]",4.0,"[0.021878854520035428,-0.16852799007218022]",100.0,"[0.10727824119102443,0.03847231278249093]",100.0,"[-0.03940636575448977,-0.10464100922744142]",4.0,"[0.0754226911916718,-0.10123697418780374]",100.0,"[0.005198087876747105,-0.002153099500231293]",100.0,"[-0.13233062232629605,0.06072561704142126]",100.0,"[-0.1302817570529628,0.15081660976819727]",4.0,"[-0.1556248756653174,-0.04355602764300628]",100.0,"[0.03190051309750087,-0.0629831468788]",100.0,"[-0.10262822132452344,-0.1093471830076178]",100.0,"[-0.19458289972273538,-0.011950183890088536]",4.0,"[0.16483647313177513,0.10366465383322648]",4.0,"[0.02,0.02]",140.621,0.0,33.0,33.0,58.0,1.0,,,,,,,
,,,,,,,571a78f06a1c6300114b8d80,683aef5d17c2d5a2d3bfc02b,2025-05-31_13h00.58.304,shape_ratio,2024.1.5,Win32,61.34969325,683ae9196541af24d3a69e58,,,,,,,,,,,140.6214,141.1219,,,141.3731,141.8737,left,,,,,,,,0.4,0.4738,,,,,,,141.122,141.373,141.8738,"[0.136023512526677,0.1454940338833817]",4.0,"[0.10198629206266671,0.021212667560338426]",100.0,"[-0.10649432380252596,0.05141763387059601]",4.0,"[0.016286882766189854,-0.06294047950479235]",4.0,"[-0.17889894172942133,0.08719045010396012]",4.0,"[0.041530225323510576,-0.11834778473681125]",4.0,"[0.07406234159072361,-0.05681274563147402]",100.0,"[0.17473906787517474,-0.09254637565508658]",4.0,"[-0.12515308741364878,0.1023523362262329]",100.0,"[0.029954425743347897,0.019255764101624377]",4.0,"[0.015426460963912456,-0.1826849554298957]",4.0,"[0.14439646327036598,0.06635368601454963]",100.0,"[0.1908194798743513,-0.028135679723926953]",100.0,"[0.0911134161897907,0.12393032839311605]",4.0,"[-0.03395997559350508,0.19168495198827426]",4.0,"[-0.02326902753516002,-0.10952093135554318]",100.0,"[-0.0282547264652175,-0.02221844527061429]",4.0,"[0.09760414771773915,-0.0900384848265775]",100.0,"[0.051067919125289615,0.0926050318142091]",100.0,"[-0.09051828975743795,0.12826329104443734]",4.0,"[-0.059893449821657764,0.009008022062683372]",4.0,"[-0.1000197698237086,-0.11364011270834681]",4.0,"[0.06573920406664514,-0.01133000569124687]",100.0,"[0.06700809720545474,0.17177983017747664]",4.0,"[-0.0428877977831787,0.08131952836012127]",4.0,"[-0.1572641542820508,-0.05629413366823443]",100.0,"[-0.1068059877793114,-0.024033662402769794]",100.0,"[-0.042704007747267576,0.12198489260903445]",100.0,"[-0.192787306940224,0.03725495981038265]",4.0,"[0.00436075563999369,0.11849613758927012]",100.0,"[-0.059733457844644844,-0.0658724586671249]",4.0,"[0.06077583278735512,-0.18958211080061077]",4.0,"[0.02,0.02]",142.9736,0.0,34.0,34.0,150.0,1.0,,,,,,,
,,,,,,,571a78f06a1c6300114b8d80,683aef5d17c2d5a2d3bfc02b,2025-05-31_13h00.58.304,shape_ratio,2024.1.5,Win32,61.34969325,683ae9196541af24d3a69e58,,,,,,,,,,,142.9744,143.4724,,,143.7251,143.9895,right,,,,,,,,0.55,0.2346,,,,,,,143.4726,143.7251,143.9896,"[0.07202146255628428,0.10360941847709675]",4.0,"[-0.11133348867982662,-0.026867860053938004]",100.0,"[0.0035714839996058055,0.03921890426793925]",4.0,"[0.1191937525781774,0.04943258337136361]",100.0,"[0.06796315037775885,-0.13108416607873435]",100.0,"[0.008320458446154104,0.17637236538891826]",100.0,"[0.09910963961330485,0.1352035080247014]",4.0,"[-0.07156903553775154,-0.1414270434420388]",100.0,"[0.053431114300457966,-0.05523739127738597]",100.0,"[-0.10852441204734653,0.1654288955776702]",4.0,"[0.15588500140847827,-0.066789153835648]",4.0,"[0.1689322108923325,-0.10633328512324754]",4.0,"[-0.1598737891741442,-0.03265051617062583]",4.0,"[-0.1340789558816974,-0.08542901043581021]",4.0,"[-0.0883997259605091,0.03191067987244607]",100.0,"[-0.03198602399537278,0.1721585203889448]",100.0,"[-0.19897685488996736,-0.012522026887911082]",100.0,"[-0.12927543820444126,0.10566596194731445]",4.0,"[-0.0073649167104421365,0.08754483772240247]",100.0,"[0.07166618975410652,0.0000720988376686362]",100.0,"[0.1898619728190077,0.05184039374687145]",4.0,"[0.1685031323974406,0.10264431414055596]",100.0,"[-0.03975662660907753,0.05619217105273277]",100.0,"[0.09677038038381235,-0.04961590333850951]",4.0,"[-0.0009396365333010762,-0.1791153947265547]",4.0,"[-0.14186433125911224,0.03636482770144361]",100.0,"[-0.003780909491686694,-0.07693270224220493]",100.0,"[0.009323297165869394,0.13082805798242064]",100.0,"[-0.040578524792468734,-0.029338856696645457]",4.0,"[-0.017418790803334142,-0.13119472958231512]",100.0,"[-0.057051785872729736,0.12047166618355014]",100.0,"[-0.1373858896479956,-0.1342709873485981]",4.0,"[0.02,0.02]",145.0895,0.0,35.0,35.0,69.0,1.0,,,,,,,
,,,,,,,571a78f06a1c6300114b8d80,683aef5d17c2d5a2d3bfc02b,2025-05-31_13h00.58.304,shape_ratio,2024.1.5,Win32,61.34969325,683ae9196541af24d3a69e58,,,,,,,,,,,145.0905,145.5895,,,145.8408,146.2233,left,,,,,,,,0.55,0.3622,,,,,,,145.5895,145.8407,146.2234,"[-0.05882954708846063,0.06430604782864499]",4.0,"[0.007028867959048468,-0.09108586382888094]",4.0,"[-0.02810427028154609,-0.15318980305745247]",100.0,"[0.08530027463040156,-0.003422538558317228]",4.0,"[0.03894349789911085,0.111879871120162]",100.0,"[0.03548557063639701,0.03917121734985552]",4.0,"[0.1756791185358276,0.02573994773080601]",4.0,"[0.08926387974206182,0.058073223751705184]",100.0,"[-0.16933036467673118,0.08391798702800113]",4.0,"[0.14733107170492518,-0.12183616188722587]",4.0,"[-0.15559011790278487,-0.0584617427467245]",100.0,"[0.034804502807012444,-0.1316645851988567]",4.0,"[0.08486558270431421,0.18001827806642937]",100.0,"[0.040206854397601056,-0.18561133887160383]",100.0,"[-0.1219641271690413,-0.004841430133260557]",4.0,"[-0.13997359390745656,-0.11318751466315648]",100.0,"[0.146796147609169,0.09369769596097922]",4.0,"[0.1437611082517639,-0.008247794333854298]",100.0,"[-0.08294948618539798,-0.056514339269714754]",100.0,"[-0.05177314023921796,-0.11572263461499223]",4.0,"[0.050962277276306575,-0.03333622114943414]",4.0,"[-0.032912069947483365,0.1950354676627894]",100.0,"[-0.028684804389686208,0.11876768664869938]",4.0,"[0.07380017498561924,0.1409136403697641]",100.0,"[-0.05890360005878437,-0.01083469524370496]",100.0,"[-0.07551523134451349,0.1513665212772303]",100.0,"[-0.1526057387672064,0.1214516131937249]",100.0,"[-0.08950121963881337,0.09157571408013421]",100.0,"[-0.03952235230012421,-0.06798712819008786]",100.0,"[-0.011467472397529222,0.05833892535295088]",100.0,"[0.12261670216378648,0.03234609161219248]",4.0,"[0.11928261886051761,0.14690717062652603]",100.0,"[0.02,0.02]",147.3252,0.0,36.0,36.0,82.0,1.0,,,,,,,
,,,,,,,571a78f06a1c6300114b8d80,683aef5d17c2d5a2d3bfc02b,2025-05-31_13h00.58.304,shape_ratio,2024.1.5,Win32,61.34969325,683ae9196541af24d3a69e58,,,,,,,,,,,147.3257,147.8243,,,148.0757,148.3911,left,,,,,,,,0.1,0.2834,,,,,,,147.8244,148.0757,148.3911,"[-0.059212899478704596,-0.13711422727866734]",4.0,"[0.1526176978353705,0.06862307862180032]",4.0,"[-0.12461832548653348,0.10989060552929396]",4.0,"[-0.0896886390007179,0.01008958071159793]",4.0,"[-0.004267480242463419,-0.062142499327547604]",4.0,"[0.04008031450977479,0.1492465345866498]",4.0,"[-0.04578587200771042,0.10691201676803827]",4.0,"[-0.11983838509758099,-0.11368260790526685]",4.0,"[0.012186495256541589,-0.19467704023898844]",4.0,"[-0.0964098076051906,-0.05476267277988188]",4.0,"[0.08431198127079587,-0.06588522546464952]",4.0,"[0.07221477958919822,-0.001375324171572723]",4.0,"[0.15745017109420906,-0.07068713568920579]",4.0,"[0.11797791087211565,0.14973192782871866]",4.0,"[0.04369096649402255,-0.07146881155933606]",4.0,"[-0.1526854783815606,0.054717806515745995]",100.0,"[-0.021299942474486962,0.16035779704057473]",4.0,"[0.020958214130832126,-0.13259701199936946]",100.0,"[-0.040402445174014076,0.027363440546292986]",4.0,"[0.1316239812574873,-0.13038118134547944]",4.0,"[0.0857156918858493,0.10312000597306915]",4.0,"[-0.16400055777350162,-0.018118877338426383]",4.0,"[0.06630650242460832,-0.12545973762192086]",4.0,"[-0.0001248413400300775,-0.019401813621473488]",4.0,"[0.020563824469795013,0.08863987909420523]",4.0,"[0.01726509486251404,0.017301888377529565]",4.0,"[0.13261870835189885,0.02887404827859334]",100.0,"[0.0648283172332084,0.04438701897420301]",4.0,"[-0.13376171942711568,-0.07185529495569143]",4.0,"[0.0015759737295082405,0.19997046309274555]",4.0,"[-0.06444290737852136,-0.09326976342072013]",4.0,"[-0.1771885454435624,-0.06280533309460172]",4.0,"[0.02,0.02]",149.4926,0.0,37.0,37.0,199.0,1.0,,,,,,,
,,,,,,,571a78f06a1c6300114b8d80,683aef5d17c2d5a2d3bfc02b,2025-05-31_13h00.58.304,shape_ratio,2024.1.5,Win32,61.34969325,683ae9196541af24d3a69e58,,,,,,,,,,,149.4932,149.9935,,,150.2416,150.5917,left,,,,,,,,0.9,0.3368,,,,,,,149.9936,150.2416,150.5917,"[0.004758940561834527,-0.015707640157828405]",100.0,"[0.0663872723860413,0.09262287595595038]",100.0,"[0.030013507812205104,0.06991657699751903]",100.0,"[-0.13131024930318372,-0.1450359613633796]",100.0,"[-0.06534053555378853,-0.07907729639766335]",100.0,"[-0.04812683750488166,0.01769966228147282]",100.0,"[-0.11697393202216423,0.030292881923375908]",4.0,"[0.000584244117806343,0.19012542921965933]",100.0,"[-0.02412426391214392,0.09353740270076805]",100.0,"[-0.15631054497447777,0.044421258232231815]",100.0,"[-0.09270746670407358,-0.1200532861121914]",100.0,"[0.1081776678053104,0.11200856599105707]",100.0,"[0.07662040032407952,0.010802874141884456]",100.0,"[0.018550365890734083,-0.14790251229478724]",100.0,"[0.04674629237532398,0.16994859612916477]",100.0,"[0.11037686790077503,-0.02559922932519953]",4.0,"[-0.1285885470666374,0.1015525038323573]",100.0,"[-0.11887161323942448,0.14337786470255312]",100.0,"[-0.17759334254636722,-0.033087727953086336]",100.0,"[0.057641152197101045,-0.1612723689357537]",100.0,"[-0.16960201796250549,-0.10554395108025824]",100.0,"[0.14933547473686304,0.022874851480935036]",100.0,"[0.03910042473206217,-0.07661907515526238]",100.0,"[-0.06534194481438155,-0.1618618047202719]",100.0,"[-0.02059976171130373,-0.1705211486252258]",100.0,"[0.18474037498725834,-0.02484224452705833]",100.0,"[-0.0671576692641709,0.12038619170806351]",100.0,"[0.14848869011176213,0.0967704525402172]",100.0,"[0.01883598379206977,0.1388462189316685]",4.0,"[0.10412368618943137,-0.1250764014463726]",100.0,"[0.12671721308704245,-0.06551595927997438]",100.0,"[-0.09079520304620191,-0.03174499727871402]",100.0,"[0.02,0.02]",151.6917,0.0,38.0,38.0,0.0,1.0,,,,,,,
,,,,,,,571a78f06a1c6300114b8d80,683aef5d17c2d5a2d3bfc02b,2025-05-31_13h00.58.304,shape_ratio,2024.1.5,Win32,61.34969325,683ae9196541af24d3a69e58,,,,,,,,,,,151.6921,152.1922,,,152.4441,152.9435,left,,,,,,,,0.45,0.4817,,,,,,,152.1922,152.444,152.9436,"[0.04731863682847994,-0.1259424058358997]",4.0,"[-0.022344419488334964,0.19710607553275739]",4.0,"[-0.0854012875628481,0.16157092706156992]",4.0,"[0.12585492159343642,0.01403164430158542]",4.0,"[0.14235233011524162,-0.09032113101106724]",100.0,"[-0.14933519628233988,0.014583250452893494]",100.0,"[0.08334695927946513,-0.16990830893778572]",4.0,"[0.03033704380483637,-0.19013926859114105]",4.0,"[0.025826424330003664,0.04477127700945012]",100.0,"[-0.08791701810897536,-0.04636378525193985]",4.0,"[0.1466128452315623,-0.021679132824478944]",100.0,"[0.05622842647128116,0.16770026716876296]",100.0,"[0.031192232888504784,0.09461059358909342]",100.0,"[0.0856950810552158,-0.06601162081550278]",100.0,"[-0.05005161922759793,-0.16800127043784824]",4.0,"[-0.025127349361864455,0.11090674988521232]",4.0,"[-0.1330843089483417,0.13836924919516272]",4.0,"[-0.1836030029384644,-0.05326459357659062]",4.0,"[-0.1403652183922019,0.0986617004270436]",100.0,"[-0.148244643606652,-0.07965029253942989]",4.0,"[0.09083168791586217,0.05965626277490831]",4.0,"[0.17272807325623327,-0.05207648167541903]",100.0,"[0.14546505225549397,0.05115755532564705]",4.0,"[-0.11229277457545879,-0.09764185945720023]",4.0,"[0.055617758330152485,0.008328220756392161]",4.0,"[-0.09179048032706985,0.05077221276029125]",100.0,"[0.18011374225143043,0.013261032097550836]",4.0,"[-0.021493480497920676,-0.09060080959749146]",100.0,"[0.11929976912452256,0.11437967697346423]",4.0,"[-0.018205348013705568,0.045358316912640785]",100.0,"[-0.04817119074809048,0.01837872132584645]",100.0,"[-0.19227817604663114,0.024873357898307188]",100.0,"[0.02,0.02]",154.043,0.0,39.0,39.0,146.0,1.0,,,,,,,
,,,,,,,571a78f06a1c6300114b8d80,683aef5d17c2d5a2d3bfc02b,2025-05-31_13h00.58.304,shape_ratio,2024.1.5,Win32,61.34969325,683ae9196541af24d3a69e58,,,,,,,,,,,154.0434,154.5438,,,154.7947,155.0443,right,,,,,,,,0.5,0.2312,,,,,,,154.5438,154.7947,155.0443,"[0.04103233071985505,0.04224625973482861]",4.0,"[0.0817838154130891,-0.08589112624684192]",100.0,"[-0.046949319050834985,0.12149629848737314]",100.0,"[0.06000097967453602,0.1745462611670992]",4.0,"[0.06710440017828605,-0.04691415316303602]",100.0,"[-0.057652492291037555,-0.09773244518960293]",100.0,"[-0.11206102634466054,0.014967652687942763]",4.0,"[0.0024162690032877338,0.17363627998310469]",100.0,"[0.14021261513840216,0.03363207123859455]",4.0,"[-0.057414322348617326,0.004118090080066731]",4.0,"[0.12243943891280847,-0.10273479799459742]",100.0,"[-0.07198524225318963,0.0736263052151869]",4.0,"[0.18778162734987078,-0.006558270821113735]",100.0,"[0.15348441988423375,-0.053276265500944504]",4.0,"[-0.14434980365275893,-0.04403378682775632]",4.0,"[0.10044356504272987,-0.000033650377204919255]",100.0,"[0.02430394087177426,-0.18006431650073348]",4.0,"[0.009186538244174714,0.06859134869150814]",4.0,"[0.09776720567860075,-0.13646385852053652]",100.0,"[0.14488122785310106,0.10110736526433488]",4.0,"[-0.0001525294912291051,-0.06741181182501652]",4.0,"[-0.1541613782324002,0.05608267267018189]",100.0,"[-0.052934063439500405,0.1783305250771866]",100.0,"[0.05291427890685164,-0.14906342190225225]",100.0,"[-0.11940631760027248,0.13518302448650588]",100.0,"[-0.026476202847226224,-0.18483236717542217]",4.0,"[0.025685511842134554,-0.031631112105689446]",4.0,"[-0.09928920254283662,-0.028362996723822698]",4.0,"[-0.16149819842809596,-0.004980602277310838]",100.0,"[0.10702296266923089,0.1293086857805489]",100.0,"[-0.017693836371695866,-0.14427433606388457]",100.0,"[-0.08826500335171575,-0.1550887817092817]",4.0,"[0.02,0.02]",156.1451,0.0,40.0,40.0,108.0,1.0,,,,,,,
,,,,,,,571a78f06a1c6300114b8d80,683aef5d17c2d5a2d3bfc02b,2025-05-31_13h00.58.304,shape_ratio,2024.1.5,Win32,61.34969325,683ae9196541af24d3a69e58,,,,,,,,,,,156.1455,156.6447,,,156.8943,157.2439,left,,,,,,,,0.45,0.3322,,,,,,,156.6447,156.8943,157.244,"[0.03238383055561846,-0.13628763910735647]",100.0,"[0.06429088803911062,-0.02636700637946695]",100.0,"[-0.1071114289174149,0.05023922735488962]",100.0,"[0.11835945949324472,-0.04099842302791778]",4.0,"[-0.11445625286549237,-0.144751652391871]",100.0,"[-0.04654313286364102,0.0342673707112617]",4.0,"[0.1311672138305066,0.04098684156266718]",4.0,"[-0.01552597351891697,-0.1627850570116047]",100.0,"[-0.17419405367132276,-0.08244158547376258]",4.0,"[0.15735021476488825,-0.10492413272040681]",4.0,"[0.19673926921726534,-0.014862228083475208]",4.0,"[-0.006213044112747325,0.16622750865355584]",4.0,"[0.05392346878899122,-0.09606159848490974]",100.0,"[-0.006412415767462893,-0.08598139025167133]",4.0,"[-0.170346966108573,0.09749567766005587]",4.0,"[0.021426891248757025,0.13532235754409358]",100.0,"[0.07993925224557456,0.13106983225057947]",100.0,"[-0.13379448765763258,-0.034772230601353725]",4.0,"[-0.06430786892581386,-0.004173849529353838]",4.0,"[-0.05169160317567355,0.1841806305461729]",100.0,"[-0.09354061696455408,0.13831071008318138]",100.0,"[-0.06562970697083077,-0.18071225684612965]",4.0,"[-0.07013471990462136,-0.11535090559114519]",4.0,"[-0.04176087742244017,0.13195674515345757]",100.0,"[0.11975339243584314,-0.14351114807149812]",4.0,"[0.02606608028286106,-0.0007110175379139277]",4.0,"[-0.1267007622074095,-0.09599424242599397]",4.0,"[0.168001526222517,0.0681009541621615]",4.0,"[-0.18449225798215219,0.004055845344065308]",100.0,"[0.13223136612191194,0.1433523804932112]",100.0,"[-0.022065175520716115,0.09108703236548209]",100.0,"[0.04789503707660971,-0.18992098719861678]",4.0,"[0.02,0.02]",158.3443,0.0,41.0,41.0,147.0,1.0,,,,,,,
,,,,,,,571a78f06a1c6300114b8d80,683aef5d17c2d5a2d3bfc02b,2025-05-31_13h00.58.304,shape_ratio,2024.1.5,Win32,61.34969325,683ae9196541af24d3a69e58,,,,,,,,,,,158.3453,158.8448,,,159.0988,159.2947,left,,,,,,,,0.4,0.1771,,,,,,,158.8449,159.0988,159.2948,"[0.04698111338689997,0.09387904404906673]",100.0,"[0.13815725658578232,0.11554071509620777]",4.0,"[0.08312149652606422,-0.17393075048180073]",4.0,"[-0.059562227325779316,0.04011949573116866]",4.0,"[0.18145188279182511,0.06771074392875166]",4.0,"[-0.0393086644382739,0.14061114091759885]",4.0,"[-0.048188596036301455,-0.16376611377928332]",4.0,"[-0.12584423772303518,0.06935638384760404]",4.0,"[-0.01463807510878545,-0.10191070300749037]",4.0,"[0.18770635388687465,-0.06183590643388122]",100.0,"[0.07807342179453586,-0.10886749291635751]",4.0,"[-0.11002384513807285,-0.10530043126442278]",100.0,"[-0.15867878718266132,-0.02825588443161155]",4.0,"[0.03524957642391068,-0.013618250578658222]",100.0,"[-0.023729974227904405,0.07129507294502153]",4.0,"[0.005839950312636036,0.03812760870549726]",100.0,"[0.1428289649098975,0.01087078482898369]",4.0,"[-0.05372022019633306,0.10051432640839035]",100.0,"[-0.1892279628001808,0.024740706452937706]",100.0,"[-0.10419804686678241,0.12250639738651314]",4.0,"[-0.14377715443138983,0.02322988653754013]",100.0,"[0.0866312833153818,-0.025736174122096736]",100.0,"[0.006433033991067851,-0.19042388369471072]",100.0,"[0.038154597649637564,0.18162298518086958]",4.0,"[-0.1578463362196695,-0.11725510879174915]",100.0,"[0.09428817708831745,0.08706965784023701]",4.0,"[0.03532442682808389,-0.06545626537001419]",100.0,"[0.10760378978552944,0.048801902801439534]",4.0,"[-0.0648879628918282,-0.05102138690419798]",4.0,"[-0.007159103705663791,-0.027814141283400307]",4.0,"[0.11951236477103365,-0.08349574914778499]",100.0,"[0.016018630452066387,0.14605440919921123]",4.0,"[0.02,0.02]",160.3954,0.0,42.0,42.0,178.0,1.0,,,,,,,
,,,,,,,571a78f06a1c6300114b8d80,683aef5d17c2d5a2d3bfc02b,2025-05-31_13h00.58.304,shape_ratio,2024.1.5,Win32,61.34969325,683ae9196541af24d3a69e58,,,,,,,,,,,160.3959,160.8963,,,161.1458,161.3291,left,,,,,,,,0.5,0.152,,,,,,,160.8964,161.1457,161.3293,"[-0.11637882224256074,0.14334200709064834]",100.0,"[0.1870043203466122,0.014901090325733063]",100.0,"[-0.12766095472827688,-0.12841560368165794]",4.0,"[0.0791642879268937,0.10652423924437766]",4.0,"[-0.11389203225196153,0.048168914697543995]",100.0,"[0.05087146516437957,-0.07313087306902337]",100.0,"[-0.10341435263303118,-0.05789521910006319]",100.0,"[-0.023403550229036015,0.11703066914981684]",4.0,"[0.1251925235575898,-0.13826632231644873]",100.0,"[0.09692583721638402,-0.030411423122291902]",100.0,"[0.04954248598191583,0.07809059532382083]",4.0,"[-0.051937826875488854,-0.11199145312710165]",100.0,"[-0.16949367887037894,-0.020327768310006763]",100.0,"[0.05852513698399183,-0.1552072771087851]",4.0,"[-0.11114383945012969,0.0007837699249891128]",100.0,"[-0.01950752058054327,-0.006199621773481075]",4.0,"[0.16040498703325118,-0.059148274120261864]",4.0,"[0.11571659293955648,0.1519940072173965]",100.0,"[-0.16827996620114827,0.10268252089661443]",4.0,"[0.13454890334823286,0.046684149432402976]",100.0,"[-0.16739378119993045,0.037841456684769674]",100.0,"[-0.08149754654662626,0.08515380439228327]",4.0,"[-0.06790857009371137,0.04545777986508018]",100.0,"[0.1775542200343128,0.08011745708602963]",100.0,"[-0.003105985414024567,-0.18961622268705702]",4.0,"[-0.005842619204603372,0.17113879366096538]",100.0,"[0.1497471602971354,0.10993174371550718]",4.0,"[0.016752416498578136,-0.11247914899518546]",4.0,"[-0.03387291972031512,-0.049700655104333254]",4.0,"[0.016155903909412538,-0.15443880878882824]",4.0,"[-0.0038442447184236918,0.04756472614473076]",4.0,"[0.09257043690745438,-0.11009764431226483]",4.0,"[0.02,0.02]",162.4301,0.0,43.0,43.0,105.0,1.0,,,,,,,
,,,,,,,571a78f06a1c6300114b8d80,683aef5d17c2d5a2d3bfc02b,2025-05-31_13h00.58.304,shape_ratio,2024.1.5,Win32,61.34969325,683ae9196541af24d3a69e58,,,,,,,,,,,162.4305,162.9294,,,163.1802,163.4136,right,,,,,,,,0.5,0.2004,,,,,,,162.9294,163.1801,163.4137,"[-0.13246231250853038,0.023320199584549447]",100.0,"[-0.018232924568809757,-0.18241969544347325]",100.0,"[-0.04627610586912947,-0.0017779049642894502]",100.0,"[-0.009256673728128377,0.0836790978169473]",4.0,"[-0.1833041359038192,0.008508664720867228]",100.0,"[-0.1038413934007415,-0.09043800470327029]",100.0,"[-0.06391990232035216,-0.0656183380613181]",4.0,"[-0.13874175920117132,0.08970861524451006]",4.0,"[0.03779688958948424,0.00029014152225615564]",4.0,"[0.1605078101654345,0.04537291449516807]",100.0,"[0.10058313022592122,0.12442698822923344]",4.0,"[0.061707132613908706,-0.08359230875121626]",100.0,"[0.1821863645729774,-0.008409018348013565]",4.0,"[-0.0811902922125417,0.15280903970545753]",4.0,"[0.02031039736171807,-0.038930856553412184]",4.0,"[0.07305854512125635,0.03502711889524694]",4.0,"[0.10889980246482951,-0.05351597357949798]",100.0,"[-0.11072492567524941,-0.0375581682454333]",4.0,"[0.12351192434950126,-0.09784217811105939]",100.0,"[-0.10799207682215312,0.06376869805738336]",100.0,"[-0.04184039597518578,0.12334672472068219]",4.0,"[0.032486134867395634,0.1498225705913369]",100.0,"[0.06682261924402277,0.1866134786887324]",100.0,"[-0.16870929452233183,-0.033578842798477636]",100.0,"[-0.09024605414177404,-0.17302026003045526]",4.0,"[0.1712544120053649,-0.08370815224930522]",4.0,"[-0.15405634459381853,-0.08543670330183806]",4.0,"[-0.0044687257579696625,0.008171006836174837]",100.0,"[0.14567840100723126,-0.028289286590680016]",4.0,"[0.10364009921736499,-0.1655207626258642]",100.0,"[-0.028268385608720834,0.1792878989750403]",4.0,"[0.15256845613808764,0.1092787286435758]",100.0,"[0.02,0.02]",164.5153,0.0,44.0,44.0,98.0,1.0,,,,,,,
,,,,,,,571a78f06a1c6300114b8d80,683aef5d17c2d5a2d3bfc02b,2025-05-31_13h00.58.304,shape_ratio,2024.1.5,Win32,61.34969325,683ae9196541af24d3a69e58,,,,,,,,,,,164.5157,165.0137,,,165.2643,165.731,right,,,,,,,,0.4,0.4514,,,,,,,165.0137,165.2643,165.7312,"[-0.05925866795590283,0.1494935913930982]",100.0,"[-0.15250912549635662,0.1155058835961737]",4.0,"[0.10573125536070006,0.08729977506288328]",4.0,"[0.08011324791082085,0.13089305861214295]",4.0,"[-0.05022908178515072,-0.05737528681917115]",100.0,"[0.09643496729254288,-0.06381242887134189]",4.0,"[0.043425904587995744,-0.05428601873387022]",4.0,"[-0.0020332083449833933,-0.08461227776310344]",4.0,"[-0.1791192274943025,0.05675895531270455]",100.0,"[0.1711711675817606,0.027888719751717365]",4.0,"[-0.07192013650174162,-0.12965804816538012]",4.0,"[0.00875257504692026,0.007686023581888404]",100.0,"[-0.03280740367970545,0.19662101256737488]",4.0,"[0.0994495198601429,0.009655646947588647]",100.0,"[0.18213077080177534,-0.02334297964471652]",4.0,"[-0.1658732878326297,-0.10409695468127352]",4.0,"[-0.018782221008092213,-0.16906047431455812]",100.0,"[-0.11594120097351247,-0.031121573813045554]",100.0,"[0.03285257193572329,-0.1733520414328178]",100.0,"[-0.054339182914266794,0.009134944967038759]",4.0,"[-0.14677443840572021,-0.057949139043941694]",100.0,"[-0.09770496395585242,0.056807381023413164]",4.0,"[-0.12989255795608437,-0.14858081265309364]",4.0,"[0.04686720674976773,0.15968872496466838]",4.0,"[-0.07302095140686223,-0.17713254520621577]",4.0,"[0.02938778960672189,0.058487699246466594]",4.0,"[0.1521184570733123,0.12794636298067175]",4.0,"[-0.0007263607850308572,-0.13127446482220673]",100.0,"[-0.17450537040553704,-0.023503027992453095]",100.0,"[-0.09961119906909263,0.13577064293781926]",100.0,"[-0.06608758068157765,0.08860678774799256]",4.0,"[0.06151307541145541,-0.1452079792822556]",100.0,"[0.02,0.02]",166.8312,0.0,45.0,45.0,167.0,1.0,,,,,,,
,,,,,,,571a78f06a1c6300114b8d80,683aef5d17c2d5a2d3bfc02b,2025-05-31_13h00.58.304,shape_ratio,2024.1.5,Win32,61.34969325,683ae9196541af24d3a69e58,,,,,,,,,,,166.8319,167.3325,,,167.5819,167.9147,left,,,,,,,,0.45,0.3118,,,,,,,167.3325,167.5818,167.9148,"[0.05666612402260408,0.013658027667538002]",100.0,"[-0.12263732584398469,0.13997999404519715]",4.0,"[0.13397209055607326,-0.06139648351613046]",4.0,"[-0.07771021676206266,0.14438874216640457]",4.0,"[-0.08931699587243971,0.03251002441365381]",4.0,"[-0.08044796191377672,-0.06376824340623359]",4.0,"[0.016753242997335785,0.09329054777083996]",4.0,"[-0.07172690687224845,-0.11751576819873533]",4.0,"[0.027980435213958422,0.14379141373860163]",100.0,"[0.03793286864378574,-0.1347710737371907]",100.0,"[0.06611469932176925,0.18487121184771343]",4.0,"[0.09136994763348126,-0.06348952125917103]",100.0,"[0.15430927171981423,0.0837249045966309]",4.0,"[-0.12858002140738095,-0.127940761018521]",4.0,"[0.11338590252148611,0.026723610351775062]",4.0,"[-0.006325427512033343,-0.038744039720602266]",4.0,"[0.06009714211160366,0.05394535484082525]",100.0,"[0.1632764564418412,-0.002236416655225811]",4.0,"[-0.1557999631443792,0.10122928070909122]",100.0,"[-0.044250805026607075,0.17503295294257648]",100.0,"[-0.18089048598292093,-0.04715063070540081]",100.0,"[-0.12656380576270906,-0.03879316851300064]",100.0,"[-0.1393428276032551,0.0400158160673044]",4.0,"[-0.10956606327729192,0.07862357740129788]",4.0,"[-0.1672755090201914,-0.09652552563717816]",100.0,"[-0.05401484297854408,0.06303851225450822]",100.0,"[0.009649212974615455,0.02171141446563806]",4.0,"[0.049676227370710785,-0.06659847376321673]",4.0,"[0.08919468958275154,-0.1382564971740388]",100.0,"[0.1525209533517493,0.038442875538884834]",100.0,"[0.1805632630736531,-0.03877812519558371]",4.0,"[-0.0037372766039968134,-0.19011261637939061]",100.0,"[0.02,0.02]",169.016,0.0,46.0,46.0,145.0,1.0,,,,,,,
,,,,,,,571a78f06a1c6300114b8d80,683aef5d17c2d5a2d3bfc02b,2025-05-31_13h00.58.304,shape_ratio,2024.1.5,Win32,61.34969325,683ae9196541af24d3a69e58,,,,,,,,,,,169.0163,169.5162,,,169.7662,170.599,left,,,,,,,,0.55,0.8067,,,,,,,169.5164,169.7662,170.5991,"[-0.1278209721658186,0.08976033780260967]",4.0,"[-0.06989012128533349,0.04421115647002305]",4.0,"[-0.034069674532127385,-0.1250966226829333]",100.0,"[0.08666353440644876,0.025700261057850622]",100.0,"[0.08083573765054962,0.08525300981957347]",100.0,"[-0.03761110646583451,0.15863042222355825]",100.0,"[0.045530016809845704,0.19234678436319494]",4.0,"[-0.12421248680742027,-0.12348898952322607]",4.0,"[-0.060252702679284585,0.08868119077745241]",100.0,"[-0.1614955246673495,-0.032082018266972274]",4.0,"[-0.07716474730375242,-0.15385934768919204]",100.0,"[0.15510248746234873,-0.059422678919212456]",4.0,"[0.006812762461296701,0.06949440327962299]",100.0,"[-0.15508806757097526,0.023293013033759635]",100.0,"[0.13573251452991555,0.0915712521114213]",4.0,"[-0.015253502673920455,-0.03679946320434179]",100.0,"[0.09110464092922815,-0.12032968030863592]",100.0,"[-0.1500164575535839,-0.07636934898440793]",100.0,"[0.1570519887002015,0.008955778610785857]",4.0,"[0.05122305411847869,-0.17298694370675552]",4.0,"[0.13284192323489788,-0.12133954249871562]",4.0,"[0.09197261029945344,-0.06497393499132917]",100.0,"[0.03381373687117544,0.13227889516449237]",4.0,"[-0.02664418507650926,0.007136863574904917]",100.0,"[0.17863256007112582,0.04403735617779033]",100.0,"[-0.12352301709271947,0.14030719042445333]",100.0,"[0.04103968570101617,-0.04639294893300814]",100.0,"[0.03729288105530589,-0.08739391394530799]",100.0,"[0.003183447711411635,-0.1996353134114076]",4.0,"[0.19845239831882194,-0.004397633440228624]",100.0,"[-0.08038622562519053,-0.08433322587970109]",4.0,"[0.1331625558445643,0.1429971615317193]",4.0,"[0.02,0.02]",171.6995,0.0,47.0,47.0,71.0,1.0,,,,,,,
,,,,,,,571a78f06a1c6300114b8d80,683aef5d17c2d5a2d3bfc02b,2025-05-31_13h00.58.304,shape_ratio,2024.1.5,Win32,61.34969325,683ae9196541af24d3a69e58,,,,,,,,,,,171.7003,172.1994,,,172.4506,172.9499,left,,,,,,,,0.55,0.4799,,,,,,,172.1995,172.4505,172.95,"[0.03340081652673515,-0.15956278005470134]",4.0,"[0.04568901311436531,0.012858012268264751]",4.0,"[0.14343679552094293,-0.10215966980836055]",100.0,"[0.07799258399599492,0.17514479134066646]",4.0,"[-0.13274127106193645,0.019604474791752348]",100.0,"[0.19303687308801834,0.03166769063389801]",100.0,"[0.09329912514750723,-0.08022215933368046]",4.0,"[-0.05962772485475935,-0.13271164319446238]",4.0,"[0.04130531282707511,0.11377047495689845]",4.0,"[-0.018129317475879904,-0.1516484558451771]",100.0,"[0.13443657867637487,0.11511885658717422]",4.0,"[-0.12304709133989572,-0.032150561602117725]",4.0,"[-0.01922642790949764,0.1316583704048389]",4.0,"[-0.1452589015913603,-0.13261657448114214]",100.0,"[-0.1596468648466295,0.11396296371317303]",4.0,"[-0.05194175037201131,0.17692844135923602]",100.0,"[-0.09099650221306088,0.10421201420635325]",100.0,"[0.06662357957600945,0.08022724669258548]",100.0,"[-0.04050409020499277,-0.024021527204837752]",4.0,"[-0.028005877098812363,0.05105295451242809]",100.0,"[0.06259722565951285,-0.11376527391473458]",100.0,"[0.0962350324935126,-0.010205485253317367]",100.0,"[0.14724579303046842,0.025557785145563675]",100.0,"[-0.043964080985933116,-0.08990337944848506]",100.0,"[-0.09196900011013662,0.1773647514699538]",100.0,"[0.02166569238665801,0.1971935366963783]",100.0,"[0.006454039027517429,-0.010659659447429167]",100.0,"[-0.07834549919649801,0.022513575346500368]",100.0,"[-0.053634267809470934,-0.18092087747779115]",4.0,"[-0.08354997501340064,-0.06441767107644764]",4.0,"[0.005559087634510343,0.08621112990555896]",100.0,"[0.1318049191901678,-0.03148035139012401]",4.0,"[0.02,0.02]",174.0502,0.0,48.0,48.0,70.0,1.0,,,,,,,
,,,,,,,571a78f06a1c6300114b8d80,683aef5d17c2d5a2d3bfc02b,2025-05-31_13h00.58.304,shape_ratio,2024.1.5,Win32,61.34969325,683ae9196541af24d3a69e58,,,,,,,,,,,174.0506,174.5505,,,174.8024,175.118,left,,,,,,,,0.6,0.2854,,,,,,,174.5506,174.8024,175.1181,"[-0.023857926146054077,0.18060908747101426]",4.0,"[0.05523885155996559,0.013585646218705925]",100.0,"[-0.1611665779132517,-0.012072399555164176]",100.0,"[-0.10459542276503861,-0.16507193086885316]",100.0,"[-0.08880765305813929,-0.1252794976779063]",4.0,"[0.12792761486260554,0.05230818731264093]",4.0,"[0.12498508963069505,-0.11236950159904448]",100.0,"[0.055710945040084676,-0.08663587428574743]",4.0,"[0.008627200145064507,0.11010316798615359]",100.0,"[0.039142294325700336,0.13827301793419494]",4.0,"[-0.08345725171405342,-0.0036784808868850663]",100.0,"[-0.09070004803141833,0.07214939428823286]",100.0,"[0.13843110348524643,-0.009649706895474704]",4.0,"[0.08400906367252473,-0.03189092714998981]",100.0,"[0.050372536288001035,0.0944363948966825]",100.0,"[0.05498553347027244,0.1755819273868693]",100.0,"[0.09146295620438355,0.09236752842674935]",100.0,"[0.10746869752494866,0.15427966962961653]",100.0,"[0.028865496706876492,-0.028671013774958152]",4.0,"[0.18896109181392895,0.058497926930515975]",100.0,"[0.013155590095636417,0.04210490833395948]",100.0,"[-0.04313835105781771,0.08832740205238951]",4.0,"[-0.13829578804917353,-0.08687873807963903]",4.0,"[0.009388351437727288,-0.14695273718050095]",100.0,"[-0.08799902459344372,0.13580539343370399]",4.0,"[-0.181244241588905,0.06875286996863998]",100.0,"[-0.05917328911498052,-0.17221626587761388]",100.0,"[-0.0025127799200047964,-0.106225830662522]",100.0,"[-0.1559146300624786,0.1062293800410288]",100.0,"[-0.11035103773442291,-0.05769742219887391]",4.0,"[-0.04816439625993501,-0.022873314854379777]",4.0,"[0.062343828262494815,-0.1329502264347562]",4.0,"[0.02,0.02]",176.2176,0.0,49.0,49.0,59.0,1.0,,,,,,,
