right,left,explain.started,explain.stopped,key_resp_3.keys,key_resp_3.rt,key_resp_3.duration,participant,session,date,expName,psychopyVersion,OS,frameRate,study_id,explain_2.started,explain_2.stopped,key_resp_4.keys,key_resp_4.rt,key_resp_4.duration,explain_3.started,explain_3.stopped,key_resp_5.keys,key_resp_5.rt,key_resp_5.duration,fixation.started,fixation.stopped,practice.started,practice.stopped,response.started,response.stopped,key_resp.keys,feedback.started,feedback.stopped,trials_2.thisRepN,trials_2.thisTrialN,trials_2.thisN,trials_2.thisIndex,trials_2.ran,dot_ratio,key_resp.rt,key_resp.duration,explain_4.started,explain_4.stopped,key_resp_6.keys,key_resp_6.rt,key_resp_6.duration,dotDisplay.started,dotDisplay.stopped,ITI.started,polygon_1.pos,polygon_1.edges,polygon_2.pos,polygon_2.edges,polygon_3.pos,polygon_3.edges,polygon_4.pos,polygon_4.edges,polygon_5.pos,polygon_5.edges,polygon_6.pos,polygon_6.edges,polygon_7.pos,polygon_7.edges,polygon_8.pos,polygon_8.edges,polygon_9.pos,polygon_9.edges,polygon_10.pos,polygon_10.edges,polygon_11.pos,polygon_11.edges,polygon_12.pos,polygon_12.edges,polygon_13.pos,polygon_13.edges,polygon_14.pos,polygon_14.edges,polygon_15.pos,polygon_15.edges,polygon_16.pos,polygon_16.edges,polygon_17.pos,polygon_17.edges,polygon_18.pos,polygon_18.edges,polygon_19.pos,polygon_19.edges,polygon_20.pos,polygon_20.edges,polygon_21.pos,polygon_21.edges,polygon_22.pos,polygon_22.edges,polygon_23.pos,polygon_23.edges,polygon_24.pos,polygon_24.edges,polygon_25.pos,polygon_25.edges,polygon_26.pos,polygon_26.edges,polygon_27.pos,polygon_27.edges,polygon_28.pos,polygon_28.edges,polygon_29.pos,polygon_29.edges,polygon_30.pos,polygon_30.edges,polygon_31.pos,polygon_31.edges,polygon_32.pos,polygon_32.edges,dot_size,ITI.stopped,trials.thisRepN,trials.thisTrialN,trials.thisN,trials.thisIndex,trials.ran,break_2.started,break_2.stopped,trials_3.thisRepN,trials_3.thisTrialN,trials_3.thisN,trials_3.thisIndex,trials_3.ran
subject chose dot,subject chose diamond,0.0008,28.9471,space,13.9285,,5a0c4184fe645f0001e9f5dd,6842bb1ff95b8e86f01fcd1d,2025-06-06_11h02.05.578,shape_ratio,2024.1.5,Win32,59.88023952,6842b561977af9ba9b0f87ca,,,,,,,,,,,,,,,,,,,,,,,,,,,,,,,,,,,,,,,,,,,,,,,,,,,,,,,,,,,,,,,,,,,,,,,,,,,,,,,,,,,,,,,,,,,,,,,,,,,,,,,,,,,,,,,,,
,,,,,,,5a0c4184fe645f0001e9f5dd,6842bb1ff95b8e86f01fcd1d,2025-06-06_11h02.05.578,shape_ratio,2024.1.5,Win32,59.88023952,6842b561977af9ba9b0f87ca,28.9474,60.2469,space,1.2795,,,,,,,,,,,,,,,,,,,,,,,,,,,,,,,,,,,,,,,,,,,,,,,,,,,,,,,,,,,,,,,,,,,,,,,,,,,,,,,,,,,,,,,,,,,,,,,,,,,,,,,,,,,,,
,,,,,,,5a0c4184fe645f0001e9f5dd,6842bb1ff95b8e86f01fcd1d,2025-06-06_11h02.05.578,shape_ratio,2024.1.5,Win32,59.88023952,6842b561977af9ba9b0f87ca,,,,,,60.2473,65.4618,space,2.1976,,,,,,,,,,,,,,,,,,,,,,,,,,,,,,,,,,,,,,,,,,,,,,,,,,,,,,,,,,,,,,,,,,,,,,,,,,,,,,,,,,,,,,,,,,,,,,,,,,,,,,,,
,,,,,,,5a0c4184fe645f0001e9f5dd,6842bb1ff95b8e86f01fcd1d,2025-06-06_11h02.05.578,shape_ratio,2024.1.5,Win32,59.88023952,6842b561977af9ba9b0f87ca,,,,,,,,,,,65.4943,65.9633,65.9638,66.2141,66.2144,67.7133,,67.7138,68.8131,0.0,0.0,0.0,0.0,1.0,0.2,,,,,,,,,,,,,,,,,,,,,,,,,,,,,,,,,,,,,,,,,,,,,,,,,,,,,,,,,,,,,,,,,,,,,,,,,,,,,,,,,,,,,,,,
,,,,,,,5a0c4184fe645f0001e9f5dd,6842bb1ff95b8e86f01fcd1d,2025-06-06_11h02.05.578,shape_ratio,2024.1.5,Win32,59.88023952,6842b561977af9ba9b0f87ca,,,,,,,,,,,68.8141,69.3128,69.3128,69.5636,69.5637,70.3221,right,70.3222,71.4128,0.0,1.0,1.0,1.0,1.0,0.8,0.7339,,,,,,,,,,,,,,,,,,,,,,,,,,,,,,,,,,,,,,,,,,,,,,,,,,,,,,,,,,,,,,,,,,,,,,,,,,,,,,,,,,,,,,,
,,,,,,,5a0c4184fe645f0001e9f5dd,6842bb1ff95b8e86f01fcd1d,2025-06-06_11h02.05.578,shape_ratio,2024.1.5,Win32,59.88023952,6842b561977af9ba9b0f87ca,,,,,,,,,,,,,,,,,,,,,,,,,,,,71.4134,76.1155,space,1.6843,,,,,,,,,,,,,,,,,,,,,,,,,,,,,,,,,,,,,,,,,,,,,,,,,,,,,,,,,,,,,,,,,,,,,,,,,,,,,,,,,,
,,,,,,,5a0c4184fe645f0001e9f5dd,6842bb1ff95b8e86f01fcd1d,2025-06-06_11h02.05.578,shape_ratio,2024.1.5,Win32,59.88023952,6842b561977af9ba9b0f87ca,,,,,,,,,,,76.1619,76.6292,,,76.8803,77.5963,left,,,,,,,,0.55,0.7031,,,,,,,76.6299,76.8803,77.5971,"[0.12838935491219242,-0.057304518493763036]",100.0,"[0.17671337481308047,0.05528673778961803]",100.0,"[-0.12044905389375316,0.10803049464321941]",100.0,"[-0.17378421458814172,-0.07269516432542171]",4.0,"[-0.04280760022411304,-0.04714427037697848]",4.0,"[0.029999484336798547,-0.06958857270227661]",100.0,"[-0.07725996562966761,-0.11767126427211433]",4.0,"[0.11412669150094042,0.14401380447247092]",100.0,"[0.16825547984761627,-0.08196942298663487]",4.0,"[-0.09737255302781392,0.15376769978914345]",100.0,"[-0.014717901040323724,0.15543889396834978]",4.0,"[-0.008652180181970032,-0.005014601669563194]",100.0,"[-0.02111901831115653,0.03797754188113432]",4.0,"[-0.18488208015998508,-0.0016991340956273684]",100.0,"[-0.08712885511165434,-0.0431761345984215]",4.0,"[0.06672199406816383,-0.13654538705276673]",100.0,"[0.06648590129768663,0.18431924351342127]",4.0,"[-0.16633136291121706,0.04224781954107855]",100.0,"[-0.1368324286142234,-0.10359880578387043]",100.0,"[-0.13207443240293892,-0.007621823193857597]",4.0,"[0.06230369627243308,0.10297180324941159]",4.0,"[0.02871788575148223,0.04344554945598169]",100.0,"[0.1303752815643952,0.06700250919181631]",4.0,"[-0.030109187059603654,0.09132469276868475]",4.0,"[-0.10004723199387666,-0.08311470993691732]",100.0,"[0.08772224445348652,-0.06313196525984996]",100.0,"[0.14691186155161207,0.02677636546929082]",100.0,"[0.00368596137581536,-0.16208214774266824]",100.0,"[0.0046507859631196346,0.11602013280371393]",100.0,"[-0.13084429673823939,-0.14857765107424986]",100.0,"[-0.04413737301965652,-0.14165267186965197]",4.0,"[0.11990449754169606,-0.011322578635049702]",4.0,"[0.02,0.02]",78.6961,0.0,0.0,0.0,72.0,1.0,,,,,,,
,,,,,,,5a0c4184fe645f0001e9f5dd,6842bb1ff95b8e86f01fcd1d,2025-06-06_11h02.05.578,shape_ratio,2024.1.5,Win32,59.88023952,6842b561977af9ba9b0f87ca,,,,,,,,,,,78.6968,79.1961,,,79.4463,80.1311,left,,,,,,,,0.5,0.6746,,,,,,,79.1962,79.4462,80.1311,"[0.08683333803110256,-0.015227664950073685]",4.0,"[0.04566948069326827,-0.18506221178819504]",100.0,"[0.19243565539609916,0.04442078418828206]",4.0,"[0.10209420888864457,0.046016428655355664]",4.0,"[0.11842724042031162,0.09849076528288904]",100.0,"[-0.04931372311175057,0.18352471434504652]",4.0,"[-0.11004977926967466,-0.11067213291768895]",100.0,"[-0.01053017671199443,-0.11494599529688783]",100.0,"[-0.07273072287681329,0.0886188922526628]",4.0,"[0.04804145791861696,-0.1336618117714758]",100.0,"[-0.1532469477107066,-0.027105632614160914]",4.0,"[0.030485579804712875,0.02510211585015557]",4.0,"[0.04838086657298155,0.1658729447758412]",4.0,"[-0.02011660775673511,0.11983430079064863]",100.0,"[0.07132473281780417,0.09356779608818107]",100.0,"[0.1648795993413766,-0.04976703292766184]",4.0,"[-0.07419013404432995,-0.16485132709549938]",4.0,"[-0.1143320553846059,0.1305989857440819]",100.0,"[0.033615427777557105,0.0740867380056536]",4.0,"[-0.11074920937219103,0.01788845040621537]",4.0,"[-0.15389199528148276,-0.09073745152687034]",100.0,"[-0.10748052500464246,-0.06818840181790907]",100.0,"[-0.05069814194648436,0.05393778928681915]",100.0,"[-0.0047621496692030075,-0.15735850848468105]",100.0,"[0.16516597902062144,-0.10699398337955394]",100.0,"[0.10081790682357473,-0.12007496259516565]",100.0,"[-0.013776543845833352,0.015018558677624623]",4.0,"[-0.03353502844356079,-0.1869928869917883]",4.0,"[-0.1554280715391554,0.10008920211357106]",100.0,"[-0.1739872533498103,0.04183258690550352]",4.0,"[-0.09124887914341197,0.16609418085578748]",100.0,"[-0.0029347037894907266,-0.03453730064220306]",4.0,"[0.02,0.02]",81.2293,0.0,1.0,1.0,91.0,1.0,,,,,,,
,,,,,,,5a0c4184fe645f0001e9f5dd,6842bb1ff95b8e86f01fcd1d,2025-06-06_11h02.05.578,shape_ratio,2024.1.5,Win32,59.88023952,6842b561977af9ba9b0f87ca,,,,,,,,,,,81.2299,81.7292,,,81.9799,82.5789,right,,,,,,,,0.45,0.5882,,,,,,,81.7293,81.9799,82.5791,"[-0.025084460633425645,0.15015238607333295]",4.0,"[-0.007972740893876002,-0.13944488788726853]",4.0,"[0.009604750028655287,0.0338555565882837]",100.0,"[0.0076447061906486456,-0.0248046046055412]",100.0,"[0.05810963319021991,0.11213564012477988]",100.0,"[-0.08872537830755499,-0.1659676110901093]",100.0,"[0.0050161940105921884,-0.18336824195044876]",100.0,"[0.10149659963469383,0.14454928161625058]",4.0,"[0.1926512694655731,0.008131032044160989]",100.0,"[0.10182738444780186,-0.1252404415124812]",4.0,"[-0.0731124856435206,-0.10438120066818325]",4.0,"[0.17522165652924682,-0.07930881680805721]",4.0,"[-0.1312474674057657,-0.041847512931917734]",4.0,"[0.08841446677591777,0.020883449354102177]",100.0,"[0.19055819787211184,-0.03980387560943734]",4.0,"[0.014345283669193569,-0.07296796934594951]",100.0,"[0.046949074976497626,-0.04617563368532082]",4.0,"[-0.17098302893497813,-0.04793559898876901]",4.0,"[-0.06288246759303352,-0.0041367629175318235]",4.0,"[-0.10746924728781268,0.03346108672132333]",100.0,"[-0.1640916347794261,0.063340413792436]",100.0,"[-0.07021942418472689,0.10497444833616436]",4.0,"[0.14333088685655698,-0.12840478283647783]",4.0,"[0.08800817826251012,-0.17048892130563217]",4.0,"[-0.11330340817017477,-0.13234720852731618]",4.0,"[-0.029017847720587037,-0.09714153570470768]",4.0,"[0.13986379631293652,-0.05120540235529317]",100.0,"[0.14822686629836526,-0.009368368854758176]",100.0,"[0.09912521171689055,-0.04512510101174045]",100.0,"[0.13556086620941168,0.030913415963352855]",4.0,"[0.026704020741162286,0.19656326362466525]",4.0,"[-0.01941952796359541,0.09620225177492557]",100.0,"[0.02,0.02]",83.6794,0.0,2.0,2.0,132.0,1.0,,,,,,,
,,,,,,,5a0c4184fe645f0001e9f5dd,6842bb1ff95b8e86f01fcd1d,2025-06-06_11h02.05.578,shape_ratio,2024.1.5,Win32,59.88023952,6842b561977af9ba9b0f87ca,,,,,,,,,,,83.6799,84.1793,,,84.4301,85.2126,left,,,,,,,,0.4,0.7695,,,,,,,84.1793,84.4299,85.2127,"[0.11554132281830562,0.09931276785928397]",4.0,"[0.15907035464744482,0.010561839754388782]",4.0,"[-0.14398585797918245,0.12076113925803461]",4.0,"[-0.0319197628800649,0.1539483233899616]",100.0,"[-0.05297583423270265,0.08435637642540382]",100.0,"[-0.12144395410291257,-0.1087837376716862]",4.0,"[0.038636838552875176,-0.11743103321592321]",100.0,"[0.17869055136249176,-0.05056988369195879]",100.0,"[-0.05234194469298121,-0.05817210835649868]",4.0,"[0.06421987775335865,0.08043615199507566]",100.0,"[-0.10646412416339236,-0.009281257848004014]",4.0,"[0.13737500210269987,-0.08881664676531541]",4.0,"[-0.10820675846643965,-0.05330936606765691]",100.0,"[0.12531132165000583,-0.042723325334193214]",100.0,"[0.048894141413263245,0.0261440991466334]",100.0,"[-0.07031318255149281,0.03694917296194168]",4.0,"[-0.012328775076511282,-0.10239535046785087]",4.0,"[0.09524107859607149,-0.1329014378078602]",4.0,"[-0.13297121888420935,0.0626666583112804]",4.0,"[0.08428282756505866,-0.061399218179810006]",4.0,"[0.018021945913685212,0.11118351224930736]",100.0,"[-0.18591246474768755,-0.008674016469459452]",100.0,"[0.021193738594910177,-0.04840128532970771]",4.0,"[0.05224265097269723,-0.15768474828173082]",100.0,"[-0.016912431641315263,0.055770629865162485]",4.0,"[0.13766027502160724,-0.13197077337070934]",100.0,"[-0.031187235682641694,-0.014743355400450995]",4.0,"[-0.012428328227278051,-0.1535698735301865]",4.0,"[-0.16439939565296716,-0.07660754372374035]",4.0,"[0.11760227789721327,0.02446110912146822]",4.0,"[0.14206320666720487,0.13642782309377874]",4.0,"[0.0770824284727668,0.12961728291727592]",100.0,"[0.02,0.02]",86.3125,0.0,3.0,3.0,170.0,1.0,,,,,,,
,,,,,,,5a0c4184fe645f0001e9f5dd,6842bb1ff95b8e86f01fcd1d,2025-06-06_11h02.05.578,shape_ratio,2024.1.5,Win32,59.88023952,6842b561977af9ba9b0f87ca,,,,,,,,,,,86.313,86.8126,,,87.0633,87.429,right,,,,,,,,0.9,0.3533,,,,,,,86.8127,87.0632,87.4292,"[0.11138908897626958,0.02149250701534932]",100.0,"[0.05123055215208412,-0.15602076477818055]",100.0,"[0.17713189068706858,0.05679679159194801]",100.0,"[-0.12439150890964605,-0.07048539440958132]",100.0,"[-0.00383369478909378,0.16934320802088404]",100.0,"[-0.16401445464368092,0.022053345261624023]",100.0,"[0.04952989066817711,0.014591577237058354]",100.0,"[-0.07752061449885068,0.09256844591429741]",100.0,"[-0.029819057712231197,0.012937046310415727]",100.0,"[0.080067147158983,-0.04912017200768712]",100.0,"[0.13206404392822557,-0.05045022416348135]",100.0,"[-0.0204961411921587,0.10399408636194624]",4.0,"[0.11566959934525646,0.08329098194820053]",100.0,"[0.036532330235730166,-0.0461124821078683]",100.0,"[0.05158736982679045,0.18970835970984382]",100.0,"[0.07453648293151571,0.15282870915401128]",4.0,"[-0.05601873452699457,-0.06658382827080482]",100.0,"[-0.16464475348125693,-0.06689316836443103]",100.0,"[-0.0045489937768968935,-0.15513895090045132]",100.0,"[-0.12466664967645028,-0.14348922990831872]",100.0,"[0.025391749221044854,0.09550028636344528]",100.0,"[0.03430738306887324,0.14459579199728032]",100.0,"[-0.06277825316474234,-0.11661989884731093]",100.0,"[0.03513610191687597,0.05439986118454938]",100.0,"[-0.10732517249353278,0.0037751522760241497]",100.0,"[-0.02667725448641796,0.05799679313852725]",100.0,"[-0.039215549044132214,-0.19377953015796542]",100.0,"[-0.012591792046291649,-0.059421496420369896]",4.0,"[-0.14114011962583753,0.09752072955347775]",100.0,"[-0.12040632158046889,0.05798805192442595]",100.0,"[0.09907134096877367,-0.08785115657972142]",100.0,"[0.159276139818632,-0.09066610241937487]",100.0,"[0.02,0.02]",88.5292,0.0,4.0,4.0,3.0,1.0,,,,,,,
,,,,,,,5a0c4184fe645f0001e9f5dd,6842bb1ff95b8e86f01fcd1d,2025-06-06_11h02.05.578,shape_ratio,2024.1.5,Win32,59.88023952,6842b561977af9ba9b0f87ca,,,,,,,,,,,88.53,89.0292,,,89.2797,89.7959,right,,,,,,,,0.5,0.4998,,,,,,,89.0293,89.2797,89.7959,"[0.17396996781258733,0.08460733525828734]",100.0,"[0.024401447863473875,0.019857999660862245]",4.0,"[-0.09365891104920604,-0.045731826877243954]",100.0,"[0.045498857347358694,-0.1758266804558402]",100.0,"[0.10992777558546112,0.15702170234812982]",4.0,"[0.13557386985504763,-0.07592905198413144]",4.0,"[0.1835455359331873,0.016215589293557344]",100.0,"[0.03234490616591824,-0.0910659667715806]",100.0,"[0.15030587036833085,-0.0382430999249145]",4.0,"[-0.025689919719594004,0.06995774207004168]",100.0,"[-0.03829265370416773,-0.07775655420647855]",100.0,"[-0.08939027139484652,0.013521786499301192]",100.0,"[-0.17833540469550174,-0.041024155757474076]",4.0,"[0.13034810671268302,0.09476214072533123]",4.0,"[-0.011522084401004157,-0.13757777167462087]",4.0,"[0.07965928184084546,0.05108071413640583]",4.0,"[0.06207169669587183,-0.03650697370341569]",4.0,"[-0.07901872505343932,-0.09918867882502358]",4.0,"[-0.13136954174886575,-0.13765081195856166]",100.0,"[0.0014731605347830048,-0.1984948309785742]",100.0,"[-0.08448001411590593,0.13980798035408804]",4.0,"[0.1421315711797546,0.05160665362097283]",100.0,"[-0.15953770038525295,-0.09219496697882769]",100.0,"[0.061589219937078235,0.09150689908175716]",4.0,"[0.11734939239587326,-0.1569025438146488]",100.0,"[-0.09463132135110967,0.07203522446848867]",4.0,"[0.08512294205408003,0.005775452138846686]",100.0,"[-0.04442438914830292,0.01145684525066941]",100.0,"[-0.1534583696255953,0.10519333304981275]",100.0,"[-0.17373168823826063,0.01098925832409187]",4.0,"[0.09978465728982061,-0.11524095818910635]",4.0,"[0.03070424254959572,0.12455479822314972]",4.0,"[0.02,0.02]",90.896,0.0,5.0,5.0,95.0,1.0,,,,,,,
,,,,,,,5a0c4184fe645f0001e9f5dd,6842bb1ff95b8e86f01fcd1d,2025-06-06_11h02.05.578,shape_ratio,2024.1.5,Win32,59.88023952,6842b561977af9ba9b0f87ca,,,,,,,,,,,90.8964,91.3958,,,91.6462,91.9461,left,,,,,,,,0.45,0.2843,,,,,,,91.3959,91.6462,91.9463,"[-0.1353444934026967,0.017920403969408624]",4.0,"[-0.024027889825928614,-0.054676828264548505]",4.0,"[-0.09711565327704216,-0.06834177518570578]",100.0,"[0.10830548990577679,0.045021059518568295]",100.0,"[0.06343578786061077,0.0019155998292864121]",4.0,"[0.11806276036050739,-0.0321938326623163]",4.0,"[0.19412966417323338,-0.02090572007836009]",4.0,"[0.021632652796913704,-0.043813074476460406]",4.0,"[0.0064255233648780755,0.0996264996949668]",100.0,"[-0.010463848894650535,0.19234676767267064]",4.0,"[-0.1990535771398509,0.009262111152459717]",4.0,"[0.15570005664952866,-0.1145426865634419]",4.0,"[0.031307228365593145,-0.09248644647661736]",4.0,"[-0.18538900565791772,-0.032747612850264125]",4.0,"[0.011942990328351137,0.03537749764579957]",4.0,"[0.10508243075571744,-0.09857439060386015]",4.0,"[-0.057194451219956005,0.07106107367296513]",4.0,"[-0.05294671430835528,-0.11904391405396317]",100.0,"[-0.15833076750244165,0.101958902760061]",100.0,"[0.12308000816943096,0.14630714429417768]",100.0,"[-0.11422867494858503,-0.14390320713714935]",100.0,"[0.055471228558079844,0.10400159612496156]",4.0,"[-0.06499310741097646,-0.01924312412007915]",100.0,"[0.12458110446662331,0.09078466749596534]",4.0,"[0.18160677852065496,-0.07826379077679765]",100.0,"[-0.04885276265885626,0.14673701943017897]",100.0,"[0.10249548996410465,-0.15745227835835332]",100.0,"[0.1890719752068619,0.04502447774871958]",4.0,"[0.03413768038146788,0.15137738758704986]",100.0,"[-0.06427334257828544,-0.18891740318501132]",4.0,"[0.056040219165001966,-0.1551340952703386]",100.0,"[-0.050864181677943696,0.029531368940890774]",100.0,"[0.02,0.02]",93.0458,0.0,6.0,6.0,130.0,1.0,,,,,,,
,,,,,,,5a0c4184fe645f0001e9f5dd,6842bb1ff95b8e86f01fcd1d,2025-06-06_11h02.05.578,shape_ratio,2024.1.5,Win32,59.88023952,6842b561977af9ba9b0f87ca,,,,,,,,,,,93.0464,93.5458,,,93.7963,94.4791,left,,,,,,,,0.1,0.6659,,,,,,,93.5458,93.7963,94.4791,"[-0.058952983094576104,-0.1678450859896812]",4.0,"[0.1678748973893619,-0.05461983689370915]",4.0,"[0.08553871966520415,-0.124132181436013]",100.0,"[0.023243244297135236,-0.061776629694003875]",4.0,"[-0.00035916654866287247,-0.19528513085702118]",4.0,"[0.07015345322777376,0.137487316667312]",4.0,"[0.0407562944694002,-0.12234582349311701]",4.0,"[-0.053390159278232485,-0.06042647549932476]",4.0,"[0.08802975908402168,0.05035757443876524]",4.0,"[-0.1422712539999676,0.09046958243476963]",4.0,"[0.18484011255812804,0.02120583903490153]",4.0,"[0.12661345267992266,-0.03817450072213367]",4.0,"[0.10421269664789971,-0.16906642668174707]",4.0,"[-0.17673906618040183,-0.0674007066357016]",4.0,"[0.14357785419823696,0.13720973237870562]",4.0,"[-0.15459861340308884,0.026797277470462996]",100.0,"[-0.023557698453742937,0.19427850615586875]",4.0,"[0.003972731923318814,-0.1524439731432183]",4.0,"[-0.06188236079758569,0.12451099533538522]",4.0,"[0.0030819117005059125,0.14185956860155435]",4.0,"[-0.11014811956040836,0.06501876844243794]",4.0,"[0.07404622417157976,-0.06330323621351674]",4.0,"[0.032113452603366316,0.04498400537383471]",4.0,"[-0.09815948134419897,-0.02301462098839549]",4.0,"[0.0002678778714634319,-0.009737933435674143]",4.0,"[0.06400425726252403,-0.008907996606781666]",4.0,"[0.11426404390739976,0.004224162380694824]",4.0,"[0.05970768430550276,-0.15791711654214474]",4.0,"[0.06110374562147259,0.09783515447902286]",4.0,"[0.14324112265855837,-0.10096156603114005]",4.0,"[-0.14037124879506832,-0.10699729382525366]",4.0,"[-0.01595720751924439,-0.08673671035664422]",100.0,"[0.02,0.02]",95.579,0.0,7.0,7.0,206.0,1.0,,,,,,,
,,,,,,,5a0c4184fe645f0001e9f5dd,6842bb1ff95b8e86f01fcd1d,2025-06-06_11h02.05.578,shape_ratio,2024.1.5,Win32,59.88023952,6842b561977af9ba9b0f87ca,,,,,,,,,,,95.5795,96.079,,,96.3292,96.7625,left,,,,,,,,0.1,0.416,,,,,,,96.079,96.3292,96.7625,"[0.13471643857109844,0.1429240435003797]",4.0,"[-0.04198969274442008,0.014526477247641948]",4.0,"[-0.03177718709112635,-0.07031701357577809]",4.0,"[0.021009633865859963,-0.15840379424714807]",4.0,"[-0.11855355151938352,0.06192590511792358]",4.0,"[0.04568387751664767,0.05903630515935384]",4.0,"[-0.06541686271426285,-0.10413033468831179]",4.0,"[-0.027707412897920822,-0.17998974935779932]",4.0,"[0.1084988496749502,0.064059917807833]",4.0,"[-0.12940936331403055,-0.04257165780240089]",4.0,"[-0.06540979462503688,-0.021729424763851955]",4.0,"[0.06963651993145842,0.10214653716219256]",4.0,"[0.1568284790536911,-0.00015530371968110066]",4.0,"[-0.07671554261940454,0.14967822414573126]",100.0,"[0.09215629387676727,-0.038680948883883175]",4.0,"[-0.019319088457797017,0.11667108556157556]",4.0,"[0.12133406477767994,-0.14633918871695056]",100.0,"[-0.129270740901103,0.113453126365275]",4.0,"[-0.14532895775087726,0.0004688352229380414]",4.0,"[-0.17690664037794104,0.0905896250468747]",4.0,"[0.12764356316515077,-0.08717680533274602]",4.0,"[-0.014745805917021574,-0.13395109533089916]",4.0,"[-0.12730761942678614,-0.11224552609299857]",4.0,"[0.07096336539058115,-0.10013751569693831]",4.0,"[-0.1659188162484468,-0.07748035608355483]",4.0,"[-0.07474755713883065,0.04768002069617917]",4.0,"[-0.16326705788401674,0.04833009875482547]",4.0,"[-0.10300182705751666,0.01224311982064062]",4.0,"[0.009626856142152272,0.006976676428508556]",100.0,"[-0.02656870177490994,0.19180444346548264]",4.0,"[-0.0019195724897432425,-0.04024984967777943]",4.0,"[0.0915560273856572,0.007983382212016589]",4.0,"[0.02,0.02]",97.8623,0.0,8.0,8.0,182.0,1.0,,,,,,,
,,,,,,,5a0c4184fe645f0001e9f5dd,6842bb1ff95b8e86f01fcd1d,2025-06-06_11h02.05.578,shape_ratio,2024.1.5,Win32,59.88023952,6842b561977af9ba9b0f87ca,,,,,,,,,,,97.8628,98.3623,,,98.6129,98.946,right,,,,,,,,0.45,0.323,,,,,,,98.3623,98.6128,98.946,"[-0.016357541290519452,0.043642056510801885]",100.0,"[-0.010048319557492497,-0.09499209713890339]",4.0,"[-0.16630549725014207,-0.060890816860132965]",100.0,"[-0.06303461036937077,0.11048978704954673]",100.0,"[0.13346578292396752,0.012443075738695141]",4.0,"[0.06740364559073968,-0.1224259889331466]",4.0,"[0.09289792081563863,-0.06450691801162509]",4.0,"[-0.054574761619982454,-0.15690759043075012]",100.0,"[0.15908004687229205,0.07303496667068013]",4.0,"[0.04890359829040356,0.18973173424395445]",4.0,"[-0.004126484051890528,0.09586262957517601]",4.0,"[-0.08608831762430849,0.06554632706411558]",4.0,"[0.15572978293896755,-0.04876322417002853]",100.0,"[-0.05719752268578148,-0.018093855936350847]",100.0,"[-0.18761566593973403,0.033990069552345854]",100.0,"[0.14846264986016627,-0.09491693668998659]",4.0,"[-0.07094538378112714,-0.11039588239740228]",100.0,"[0.08519708615349812,0.13464839509649354]",100.0,"[0.018872428148307367,-0.04567735108636623]",100.0,"[0.06859275704743256,0.06858504301126349]",100.0,"[0.011347553790372777,0.13363902582931456]",4.0,"[-0.014625548313253278,0.16862195409980976]",100.0,"[0.053544087826713826,-0.0793538657864924]",100.0,"[-0.10279119981579735,-0.16265412581283767]",4.0,"[0.059813222931919915,0.021785960593159216]",4.0,"[-0.1566774237408667,-0.11259971035615628]",4.0,"[-0.10075784501144118,-0.029637921973639545]",100.0,"[0.016647165631953845,-0.13612153595350482]",4.0,"[0.09395998965389726,-0.1761181897761274]",4.0,"[0.05061809733075982,0.11294030275881807]",4.0,"[-0.13685027413710352,0.01986588302539878]",4.0,"[0.17650439430460932,0.03593931244251215]",4.0,"[0.02,0.02]",100.0455,0.0,9.0,9.0,143.0,1.0,,,,,,,
,,,,,,,5a0c4184fe645f0001e9f5dd,6842bb1ff95b8e86f01fcd1d,2025-06-06_11h02.05.578,shape_ratio,2024.1.5,Win32,59.88023952,6842b561977af9ba9b0f87ca,,,,,,,,,,,100.0461,100.5457,,,100.7961,101.329,right,,,,,,,,0.55,0.5167,,,,,,,100.5458,100.7961,101.329,"[-0.014676508677943907,-0.07503948110217112]",100.0,"[0.04551461653847954,0.08077900997937791]",4.0,"[-0.15783977186188664,0.05423911834925191]",4.0,"[0.19254425949667137,0.013778941202991982]",100.0,"[-0.00920021315377911,0.08707657264289341]",100.0,"[0.09688998947575737,-0.03036026652364003]",4.0,"[0.15396727828106008,-0.04887437975974234]",100.0,"[0.010042217928550664,0.1748556576481473]",100.0,"[-0.08229718722226263,0.008106659138709152]",4.0,"[0.12008079428347387,0.11892661249994667]",100.0,"[-0.016297734670987964,0.02010234550967843]",4.0,"[0.14954442859670894,0.010265841859760911]",100.0,"[-0.12548100214761504,-0.15500436662292758]",100.0,"[0.01572650149539527,-0.17151874765154157]",100.0,"[0.13184574598223214,0.055665493967013646]",100.0,"[0.011852573780408588,0.13432303296695824]",100.0,"[-0.14527256323577517,-0.07197332413308563]",100.0,"[-0.08848064413043905,0.05485743805930331]",4.0,"[0.0700551344240219,-0.14077205436121515]",4.0,"[0.03412600851673529,-0.09441613485587783]",4.0,"[-0.11210303248095667,-0.10964604882416021]",4.0,"[-0.16558746156363874,0.10564437112085093]",100.0,"[-0.07578871947049338,-0.16967005755234663]",100.0,"[0.07240853739593561,0.1106569895805996]",4.0,"[-0.06168551165835655,-0.061411475713805314]",100.0,"[-0.18699685573708544,-0.012924550408614538]",100.0,"[-0.046333316230463835,0.12521591205077978]",4.0,"[0.03126920193779396,0.043105496391207726]",4.0,"[-0.09722679780355911,0.16107585008687422]",4.0,"[-0.050177056699989696,0.07422682395002982]",100.0,"[-0.0003087273490647002,-0.13021112541711782]",100.0,"[0.07050718645671356,0.026510442050452214]",4.0,"[0.02,0.02]",102.4289,0.0,10.0,10.0,64.0,1.0,,,,,,,
,,,,,,,5a0c4184fe645f0001e9f5dd,6842bb1ff95b8e86f01fcd1d,2025-06-06_11h02.05.578,shape_ratio,2024.1.5,Win32,59.88023952,6842b561977af9ba9b0f87ca,,,,,,,,,,,102.4294,102.9287,,,103.1795,103.6623,right,,,,,,,,0.9,0.4686,,,,,,,102.9287,103.1794,103.6624,"[0.10327794676194127,-0.0025645029434570523]",4.0,"[0.061595703993155324,-0.036091329955935086]",100.0,"[0.12930301179051035,0.07859127618813738]",100.0,"[-0.11540498775076681,0.03835563792294488]",100.0,"[-0.15308665681750938,-0.02975368244317854]",100.0,"[0.08885225694687152,-0.07714320646772052]",4.0,"[-0.0674992324846431,0.005554615974152206]",100.0,"[0.02737098019905621,0.0750446133674476]",100.0,"[-0.12715473943620195,-0.15363719391241726]",100.0,"[-0.015949830278541938,0.1763004209452809]",100.0,"[-0.1904697213364645,0.026603620761161736]",100.0,"[0.004849360900176681,-0.011010035226854932]",100.0,"[-0.05008079729751478,0.05614759417148586]",100.0,"[0.011055110312919697,0.1302770881184486]",100.0,"[-0.15431864806742837,0.0882300602570838]",100.0,"[0.1515172396515168,0.029347205162981248]",100.0,"[0.022366978553638197,-0.1692764052944521]",100.0,"[0.19619375919789617,0.015974620901950374]",100.0,"[-0.010606758258564605,-0.13010764844385797]",100.0,"[-0.15586267336945211,-0.08496372879920477]",100.0,"[0.04042555436417261,-0.1310972057333825]",100.0,"[-0.047186009071321686,-0.09189377076144419]",100.0,"[0.18071624259290828,-0.05427013104977513]",4.0,"[0.15921367260142816,-0.10266549852665152]",100.0,"[0.08651467109743213,0.11385890530644278]",100.0,"[-0.10614259504281723,0.16284269931980244]",100.0,"[-0.007073164854697025,0.0447913189297202]",100.0,"[-0.08055164007957334,-0.11938043681896901]",100.0,"[0.13598003227557123,0.12448534905721187]",100.0,"[-0.05807247701001642,0.1771033694303625]",100.0,"[0.10701228288017657,0.04500844431056794]",100.0,"[-0.12212699009064706,-0.10737284410858743]",100.0,"[0.02,0.02]",104.7622,0.0,11.0,11.0,28.0,1.0,,,,,,,
,,,,,,,5a0c4184fe645f0001e9f5dd,6842bb1ff95b8e86f01fcd1d,2025-06-06_11h02.05.578,shape_ratio,2024.1.5,Win32,59.88023952,6842b561977af9ba9b0f87ca,,,,,,,,,,,104.7627,105.262,,,105.5127,105.8454,left,,,,,,,,0.1,0.3185,,,,,,,105.262,105.5127,105.8454,"[-0.09021371026755874,-0.014817298458086296]",4.0,"[-0.12856748070243337,-0.02952298009947858]",4.0,"[0.12493926475102664,0.12030191062107755]",4.0,"[0.16983767274021203,-0.008253265623410111]",4.0,"[0.1060892670484816,-0.09926336465401613]",4.0,"[0.17760952382338388,0.0469953786711336]",4.0,"[-0.09970888169849466,0.0963726668432133]",4.0,"[-0.04703982571996577,0.08459812821176275]",4.0,"[-0.06886605453722867,-0.0901445183130192]",4.0,"[0.014705887540811181,0.040384761399417296]",4.0,"[-0.18528087743877095,0.023152570137051517]",100.0,"[0.1256987369782204,0.07470756883445367]",4.0,"[0.08268094088340036,0.045075455833626106]",4.0,"[0.17423861201255655,-0.04805057358171884]",4.0,"[-0.025832107343863178,0.027092386551925363]",4.0,"[0.019475899232939926,0.1404481518780897]",4.0,"[0.06187330208531223,-0.06258835035352799]",4.0,"[-0.007338879640368813,-0.04325658210111937]",4.0,"[-0.09011147516821243,0.04264681924491564]",4.0,"[-0.16949821651932515,0.08769351323786946]",4.0,"[-0.1415475289123111,0.02451348791209369]",4.0,"[0.13677834640559716,-0.06255144626073059]",4.0,"[-0.12608202875862262,-0.12645486980108755]",100.0,"[0.05084150257388228,0.007051641481404302]",4.0,"[-0.040885564443748586,0.15515782848066284]",4.0,"[0.010931046052428308,-0.13471618986997316]",4.0,"[-0.027842008576560127,-0.10164581281010741]",100.0,"[-0.03458634214533702,-0.16107919614979954]",4.0,"[0.07936687177515728,0.16890686695539553]",4.0,"[0.16430457459888143,0.10688939473933823]",4.0,"[-0.003934728941376048,0.08940629962679315]",4.0,"[0.05857156868090516,-0.10687797772165217]",4.0,"[0.02,0.02]",106.9454,0.0,12.0,12.0,205.0,1.0,,,,,,,
,,,,,,,5a0c4184fe645f0001e9f5dd,6842bb1ff95b8e86f01fcd1d,2025-06-06_11h02.05.578,shape_ratio,2024.1.5,Win32,59.88023952,6842b561977af9ba9b0f87ca,,,,,,,,,,,106.9461,107.4456,,,107.6957,108.0455,left,,,,,,,,0.1,0.333,,,,,,,107.4457,107.6956,108.0455,"[0.01587010398751388,-0.0013004334890024949]",100.0,"[0.08956563807967141,-0.07090673002200654]",4.0,"[-0.12700062035147136,0.04951746085800657]",4.0,"[-0.06246547068678001,0.028372881037821745]",4.0,"[-0.019591641590405606,0.12994868852784675]",4.0,"[-0.11654341263740291,0.13058187780400943]",4.0,"[0.0676988376980676,0.17248266385458566]",4.0,"[-0.13883718197490671,-0.07320509968286187]",4.0,"[-0.1231871947343753,-0.1294745253782666]",4.0,"[0.08065560319024341,-0.11876257017375244]",4.0,"[0.034261428114250626,0.10457946787290309]",4.0,"[-0.05163968973026458,-0.04015264453554245]",4.0,"[0.05472912993284372,0.027094139455927035]",4.0,"[0.1329442353122747,-0.11729265228643773]",4.0,"[0.05983949632176747,-0.15588577228575387]",100.0,"[-0.18413349524995581,0.07706057221428529]",4.0,"[-0.07749829751220409,-0.11098136216503628]",4.0,"[-0.016680894288202786,0.0707592867986417]",4.0,"[-0.10807537001600726,-0.029059488331130236]",4.0,"[-0.19109417269660348,0.025949938731228677]",4.0,"[0.1608117938541548,-0.07870540817237184]",4.0,"[-0.13213000030883215,0.006175395435911143]",4.0,"[0.09933196267616462,0.03074583339007066]",4.0,"[0.14620889942307147,0.10854923003058681]",4.0,"[-0.09003027947865547,0.08333088953049293]",4.0,"[-0.1762167274877431,-0.05025764771894624]",4.0,"[0.1342306385847689,0.06916342992136892]",4.0,"[-0.048494713952475677,-0.15312111138205306]",4.0,"[0.061233733479950474,-0.033109106032585996]",4.0,"[0.07101181078616597,0.06706923900785874]",4.0,"[0.16853170562895753,-0.02073628653538662]",4.0,"[-0.057212015116583796,0.18306222078077447]",100.0,"[0.02,0.02]",109.1453,0.0,13.0,13.0,180.0,1.0,,,,,,,
,,,,,,,5a0c4184fe645f0001e9f5dd,6842bb1ff95b8e86f01fcd1d,2025-06-06_11h02.05.578,shape_ratio,2024.1.5,Win32,59.88023952,6842b561977af9ba9b0f87ca,,,,,,,,,,,109.1458,109.6456,,,109.9031,110.5455,right,,,,,,,,0.4,0.6218,,,,,,,109.6456,109.9031,110.5456,"[0.12063503218740756,0.016168095928695562]",4.0,"[-0.06935762830050861,-0.09283630564297557]",4.0,"[-0.07619287268712638,0.07564524565189949]",4.0,"[0.06255206673700987,0.0844020649710942]",4.0,"[0.1669035842236242,-0.09308077189278013]",4.0,"[-0.14616969336697816,0.049239360456229286]",100.0,"[0.19435279195975413,0.04449001656508231]",4.0,"[-0.019458843266795034,0.14926596418421245]",100.0,"[-0.12907168976582964,-0.07295182490713169]",4.0,"[-0.007490625868972884,-0.04405944514009268]",100.0,"[-0.04196837248473207,0.10876069206794528]",100.0,"[0.07865121170110688,-0.12905883297033469]",4.0,"[0.12520972061313804,-0.03538637614548679]",100.0,"[0.08794431662469818,-0.06617291608593698]",100.0,"[0.13243313671779838,0.13348985915968384]",4.0,"[0.017083231405088883,0.023692075041483605]",4.0,"[-0.18719218889446537,0.01717600177929695]",4.0,"[-0.10735182136571425,-0.11721285851498532]",4.0,"[-0.13009671004698165,-0.019072860524517114]",100.0,"[0.12437494872820905,-0.104156706560223]",100.0,"[0.05604982274051122,0.1814719590183181]",100.0,"[0.013671869714294217,-0.09863284812266901]",100.0,"[-0.12735437802702876,0.09834143625960654]",4.0,"[0.17253015155177306,-0.0018031588411091004]",4.0,"[-0.06412090704251781,-0.003630002425454299]",4.0,"[0.016205826617447846,0.09024645528144745]",4.0,"[-0.05987740383627464,-0.046167220057400864]",4.0,"[0.017929664767165225,-0.1990995332189288]",100.0,"[-0.059871039200924105,-0.14685958780901529]",4.0,"[0.06827617859581946,0.1382363096809435]",100.0,"[0.020925271297720916,0.1508375273197595]",100.0,"[0.0343870907782592,-0.027525404534939835]",4.0,"[0.02,0.02]",111.6454,0.0,14.0,14.0,176.0,1.0,,,,,,,
,,,,,,,5a0c4184fe645f0001e9f5dd,6842bb1ff95b8e86f01fcd1d,2025-06-06_11h02.05.578,shape_ratio,2024.1.5,Win32,59.88023952,6842b561977af9ba9b0f87ca,,,,,,,,,,,111.6458,112.1451,,,112.3902,112.9284,left,,,,,,,,0.45,0.5188,,,,,,,112.1452,112.3902,112.9284,"[-0.022352776445436602,-0.04045321094736581]",100.0,"[-0.016918655263991268,0.16718558915124312]",4.0,"[0.07815795916065792,0.05963570285762416]",100.0,"[0.1887783352706468,0.0014789073587455769]",100.0,"[-0.16253637135296967,0.10658321477472035]",4.0,"[0.1489073786309718,0.034097201678362325]",100.0,"[0.060849951599701024,-0.017159813336982747]",4.0,"[-0.0471690967477743,-0.17222167427198498]",4.0,"[0.04995202030649161,-0.10437144399973074]",4.0,"[-0.12979169989247089,0.14181636456407742]",4.0,"[0.0433388037800907,0.11967580906217638]",100.0,"[-0.07992358041300433,-0.1022421284818293]",4.0,"[0.018221458747713554,0.19505107334810837]",100.0,"[0.11612609970471963,-0.04459188809239804]",100.0,"[-0.054260271028671224,0.10534414002094614]",4.0,"[-0.12463120546906445,-0.12871993496869163]",4.0,"[0.06975857672038702,0.17404404253389702]",100.0,"[-0.052283391285892516,0.02386643148359544]",4.0,"[0.029745300094879436,0.04506687354475218]",100.0,"[-0.09576688007963523,0.07329182471609826]",4.0,"[-0.014911106174241802,0.06717814896008986]",4.0,"[-0.002885605112118226,-0.08293610982168415]",4.0,"[-0.1651258932102786,-0.10147337715008621]",4.0,"[0.18428281034149002,-0.04895598149203661]",100.0,"[-0.17761700584337017,0.05836907703428497]",4.0,"[-0.1817510263346438,0.01641263226354953]",4.0,"[0.10293391362316016,-0.08910519888435826]",100.0,"[-0.08819755850050685,0.13257744412170305]",4.0,"[-0.08822343518726423,-0.16276012672131235]",100.0,"[-0.001004272174321457,0.11096806667327308]",100.0,"[-0.01371570557329791,-0.19564073781299213]",4.0,"[0.10558993620587671,0.020568877015709378]",100.0,"[0.02,0.02]",114.0282,0.0,15.0,15.0,134.0,1.0,,,,,,,
,,,,,,,5a0c4184fe645f0001e9f5dd,6842bb1ff95b8e86f01fcd1d,2025-06-06_11h02.05.578,shape_ratio,2024.1.5,Win32,59.88023952,6842b561977af9ba9b0f87ca,,,,,,,,,,,114.0284,114.5284,,,114.779,115.2788,right,,,,,,,,0.5,0.4822,,,,,,,114.5284,114.779,115.279,"[-0.18422170902814314,0.027963646188672205]",4.0,"[-0.02705783346636477,-0.06477200120047794]",100.0,"[0.07694839296016397,0.04102302015987726]",4.0,"[0.14376521504172401,-0.07705338427863201]",100.0,"[-0.1266709071434873,0.1467131558994845]",100.0,"[0.010512626432808899,0.19430579994327238]",4.0,"[-0.003865895899971126,-0.1046837574780137]",100.0,"[-0.049319378166577874,-0.11795308779326381]",100.0,"[-0.14544801246573003,-0.054922600691033885]",4.0,"[-0.1312081173226332,0.0589085292836141]",100.0,"[-0.011839936446420722,-0.1783588870407345]",4.0,"[0.1937397104807702,-0.005407660140948395]",4.0,"[0.030659186271934275,-0.010114317271501383]",4.0,"[0.08156306955775443,-0.08862793217475418]",100.0,"[0.08695667856258067,0.17222168378103936]",100.0,"[0.13997088480030886,-0.13616254966278715]",4.0,"[-0.10297097659800497,0.011258289167186117]",4.0,"[0.058324389616343515,-0.14849893447525042]",4.0,"[0.11395415107217491,-0.006350410185205805]",100.0,"[-0.08687296090726916,0.09102085803371807]",100.0,"[-0.10338600990285765,-0.13032737147953682]",100.0,"[0.04121181682380376,0.07588845847112892]",100.0,"[0.04018252497136916,0.15333510765202396]",100.0,"[0.09536489392895015,0.09711025262657615]",4.0,"[-0.0750329115205278,0.051590854125973286]",4.0,"[0.17032528280682083,0.0914357136411474]",4.0,"[0.06748539566325289,-0.04292465789856752]",100.0,"[-0.1402142782398864,0.10682622499724517]",4.0,"[-0.10537221289956401,-0.07059548322451487]",100.0,"[0.0004619919524969777,0.04446101413302043]",4.0,"[-0.012265425530083798,0.006009483846956955]",100.0,"[-0.04582963662386889,0.1435572699758946]",4.0,"[0.02,0.02]",116.3788,0.0,16.0,16.0,96.0,1.0,,,,,,,
,,,,,,,5a0c4184fe645f0001e9f5dd,6842bb1ff95b8e86f01fcd1d,2025-06-06_11h02.05.578,shape_ratio,2024.1.5,Win32,59.88023952,6842b561977af9ba9b0f87ca,,,,,,,,,,,116.3793,116.8785,,,117.1294,117.7787,right,,,,,,,,0.6,0.6321,,,,,,,116.8786,117.1294,117.7787,"[0.1398782415801586,0.014236614959698163]",4.0,"[0.19730677488471207,-0.0011208160321771257]",100.0,"[-0.052078448623410614,-0.025930528692183572]",100.0,"[-0.11682668611832785,-0.01194988805085395]",4.0,"[0.09786494767543677,0.07042045324328644]",4.0,"[0.12905901093962913,0.13862901279943504]",100.0,"[-0.06807390544225213,0.10587371545250165]",100.0,"[-0.007942920824556497,0.05151763850005002]",4.0,"[0.14580989426726726,-0.07985636615520211]",100.0,"[0.09023080479912997,-0.01981946391156465]",100.0,"[-0.061906332906313116,0.016084783620851164]",100.0,"[-0.009226501624829941,-0.02676313240636646]",100.0,"[-0.17897536921489923,0.07793775318104046]",100.0,"[-0.11535904894930188,-0.08244408710218645]",100.0,"[-0.0015333759750008446,0.13845731359548646]",100.0,"[0.18099663474541416,-0.040739477423073905]",4.0,"[-0.1586881000517077,-0.004063371421740986]",4.0,"[0.06544266476859877,0.186677732238833]",100.0,"[0.03994496253547945,-0.11516154450396449]",4.0,"[-0.14469123457366828,-0.05286799751410288]",100.0,"[0.05220418312624604,-0.05592341589227994]",100.0,"[-0.028207626866879623,-0.1564032818843132]",4.0,"[-0.08899373874882101,-0.12469812524691971]",100.0,"[0.03977147064286208,0.10622793807300167]",100.0,"[-0.11385920212227926,0.11550219499049617]",4.0,"[-0.11755853158948099,-0.15293952938254415]",4.0,"[-0.06651767995061729,0.05934499812820143]",100.0,"[-0.08782012213491834,0.16887567261738237]",4.0,"[0.10287648641952574,-0.14104540461765983]",100.0,"[0.05540665220226775,-0.1850058285923694]",4.0,"[0.15683541817282204,0.09400194270384837]",100.0,"[0.09111398265286832,-0.07500338617861872]",4.0,"[0.02,0.02]",118.8783,0.0,17.0,17.0,53.0,1.0,,,,,,,
,,,,,,,5a0c4184fe645f0001e9f5dd,6842bb1ff95b8e86f01fcd1d,2025-06-06_11h02.05.578,shape_ratio,2024.1.5,Win32,59.88023952,6842b561977af9ba9b0f87ca,,,,,,,,,,,118.879,119.3787,,,119.629,120.0622,right,,,,,,,,0.55,0.4151,,,,,,,119.3788,119.629,120.0622,"[-0.026324016644655657,0.11120073149435886]",4.0,"[0.15056875537380376,0.06695341564829013]",4.0,"[-0.07575728588724921,0.0016241111756727248]",100.0,"[-0.07317541722415426,0.15506528945277773]",4.0,"[0.09380502050767643,0.002352588361243144]",100.0,"[0.07133514928342295,-0.04883251446331716]",100.0,"[0.0730489649528656,0.07674937979229791]",100.0,"[0.03279558697556376,-0.1548396197877755]",4.0,"[-0.0025399172006073897,-0.02466216789477366]",100.0,"[0.002235656842913363,0.07760386580708004]",4.0,"[0.09117939015529572,0.12011308318650388]",100.0,"[-0.023613282840136685,0.17006327179186848]",4.0,"[-0.07034576914264001,-0.16764668358846424]",100.0,"[-0.029546627370770455,-0.16111693229223462]",100.0,"[0.11409015733306076,0.0398619197091355]",100.0,"[0.13740881349995349,-0.0794594611223045]",4.0,"[0.04100106835950845,0.15478864213829932]",4.0,"[0.16577553007139548,0.10460459191019093]",4.0,"[0.16891666739532638,-0.017035208448111665]",4.0,"[0.00004516071195895847,-0.11518848944097446]",100.0,"[-0.0676862720270255,-0.10111218953506643]",4.0,"[-0.14713090423923106,-0.024396971468304957]",100.0,"[-0.12175127333460951,0.05504662800219102]",100.0,"[0.08371571254208825,-0.1114743245092641]",100.0,"[0.1516400469977654,-0.1294430819102955]",4.0,"[-0.06313742045210183,0.08254272397508396]",4.0,"[-0.02283161301890224,-0.07928311801663154]",100.0,"[-0.15235163194105006,-0.07851472824314419]",100.0,"[-0.13126082360486385,0.10315380983303023]",4.0,"[-0.1865771091833889,-0.046857382692769185]",100.0,"[0.0009710862705319374,0.03392052681883288]",100.0,"[-0.10600215705728572,-0.14856161566808687]",100.0,"[0.02,0.02]",121.1619,0.0,18.0,18.0,62.0,1.0,,,,,,,
,,,,,,,5a0c4184fe645f0001e9f5dd,6842bb1ff95b8e86f01fcd1d,2025-06-06_11h02.05.578,shape_ratio,2024.1.5,Win32,59.88023952,6842b561977af9ba9b0f87ca,,,,,,,,,,,121.1626,121.662,,,121.9123,122.1948,right,,,,,,,,0.9,0.2696,,,,,,,121.662,121.9122,122.1948,"[-0.1220757974878374,-0.10243710648671155]",100.0,"[0.06942025888860825,-0.0712338357117654]",100.0,"[-0.17083500456252376,0.0390936870474476]",100.0,"[-0.011969287284762911,-0.06589926958768402]",100.0,"[0.07238376927600493,0.04120813763788779]",100.0,"[0.1895177643075084,0.043779337364425734]",100.0,"[-0.07377773191721888,-0.12181385966265652]",100.0,"[-0.07119359638754283,0.05249655683544755]",100.0,"[0.044763806366425865,-0.028778975420921987]",100.0,"[-0.03817692268168283,0.11542153827754328]",100.0,"[-0.16466588788247072,-0.003304044019122209]",100.0,"[-0.11879442549871895,0.059054832487176696]",100.0,"[-0.013950841172323458,-0.0022010885234839896]",100.0,"[0.1536001565276812,-0.0022961085912716096]",100.0,"[0.07009584159467912,0.09442751420937641]",4.0,"[0.14803972952642414,-0.05728586767092812]",100.0,"[0.04906436678328434,0.18250879565029565]",100.0,"[0.030085405344058,-0.14528716079326903]",100.0,"[-0.11634002264481934,-0.021787161840885534]",100.0,"[0.030329291748661176,0.13309743697237794]",4.0,"[0.03539441027957949,-0.10073324613764391]",100.0,"[0.1387685955392542,0.0877868954299852]",100.0,"[-0.0919014645373579,0.13336812091520822]",100.0,"[-0.0055340191818493,0.18975265886616985]",100.0,"[-0.028148390573937625,0.050628180591306256]",100.0,"[-0.1608804448845633,0.11482748467790037]",100.0,"[0.07751482312232319,-0.17191532376063154]",100.0,"[-0.010287733613147148,-0.1729092567183775]",100.0,"[0.08674719297970968,-0.1117012224763051]",4.0,"[-0.1705879469346073,-0.04504191056271325]",100.0,"[0.09926184079942058,0.1540495286147689]",100.0,"[0.14728912732685412,0.1271742786574409]",100.0,"[0.02,0.02]",123.2952,0.0,19.0,19.0,9.0,1.0,,,,,,,
,,,,,,,5a0c4184fe645f0001e9f5dd,6842bb1ff95b8e86f01fcd1d,2025-06-06_11h02.05.578,shape_ratio,2024.1.5,Win32,59.88023952,6842b561977af9ba9b0f87ca,,,,,,,,,,,123.2957,123.7947,,,124.0453,124.5618,right,,,,,,,,0.4,0.4993,,,,,,,123.7948,124.0453,124.5618,"[-0.07573779232464548,0.10258811575807841]",4.0,"[-0.01331825367978598,-0.1804133931754137]",100.0,"[0.11278074750290452,-0.035054808849714875]",4.0,"[-0.11384392120142117,0.13209523974626955]",100.0,"[0.10007331195015944,0.10391942113728841]",4.0,"[0.1651886153322207,-0.062332626843953]",100.0,"[-0.18003811332519343,-0.009882035059054384]",4.0,"[-0.10632674208828567,-0.05805915690189675]",4.0,"[0.023301789039561382,0.1331842935194038]",100.0,"[-0.047191865811625835,0.0325862879756608]",100.0,"[0.1547548284589757,0.01683128173585432]",100.0,"[-0.03585228202964855,0.1319077296782101]",4.0,"[0.10110144246340609,0.051115149283892276]",4.0,"[0.018482011051529728,-0.1114738506601862]",4.0,"[-0.1414909614010438,0.09570215180386375]",4.0,"[-0.07268486676880456,-0.026866806446519037]",4.0,"[0.04609131229069323,0.04002399257400107]",4.0,"[0.07521941976399601,-0.006604168091072537]",4.0,"[0.13714543012356156,0.14275175060816647]",4.0,"[-0.17632705573313304,-0.05046179006181265]",100.0,"[0.012898506660346861,-0.036899702457375706]",100.0,"[0.044292813234443555,-0.19258073066007927]",100.0,"[0.005995678502999195,0.046075351004485274]",4.0,"[-0.08407241417003936,0.01232088111695494]",100.0,"[-0.005921570346758211,0.167880044132637]",100.0,"[0.04435580438677454,-0.1456834023166048]",4.0,"[-0.07164535510840501,-0.12746197777244297]",4.0,"[0.09572972646731359,-0.11476771657160964]",100.0,"[-0.11830041919528722,-0.15989348351381824]",4.0,"[-0.15989039144053926,-0.11318320928654345]",100.0,"[0.06921185105735901,0.16021426165837957]",4.0,"[-0.027269229352357705,0.08088444195080431]",4.0,"[0.02,0.02]",125.6619,0.0,20.0,20.0,157.0,1.0,,,,,,,
,,,,,,,5a0c4184fe645f0001e9f5dd,6842bb1ff95b8e86f01fcd1d,2025-06-06_11h02.05.578,shape_ratio,2024.1.5,Win32,59.88023952,6842b561977af9ba9b0f87ca,,,,,,,,,,,125.6623,126.1616,,,126.4124,126.7617,left,,,,,,,,0.45,0.3316,,,,,,,126.1617,126.4123,126.7617,"[-0.019431914722097734,0.12716321116620974]",4.0,"[0.1862472227304255,-0.06994219771108447]",100.0,"[-0.07506234425426372,-0.0722020641117145]",4.0,"[0.001122045713869476,-0.09068600198785973]",100.0,"[0.023349219597739293,0.024617583602426763]",4.0,"[0.13070814277282572,0.13984326574303355]",4.0,"[0.04716564811930731,-0.05583285566573466]",4.0,"[-0.05290356272788539,0.17926368109995838]",4.0,"[-0.03659955254965103,0.03878283059273696]",100.0,"[0.09740502630502258,-0.15218935448672058]",100.0,"[0.042859250720015896,0.0824845058695805]",4.0,"[-0.05377928369286519,0.09966354084492188]",4.0,"[-0.17012461695175396,0.03780209275841158]",100.0,"[-0.0047853657412965335,0.16590977208526836]",100.0,"[0.18525923070884862,0.051988009276403714]",4.0,"[-0.1349735052601977,-0.029295911719682023]",4.0,"[-0.11524869385836603,-0.08350596063969327]",4.0,"[0.04649750333487297,-0.18015326833171783]",100.0,"[-0.11644562514424177,0.14714101156147127]",100.0,"[-0.10916190577152776,-0.1583920138546015]",4.0,"[0.10281281373151771,0.026236038847589935]",100.0,"[-0.010406451234858668,-0.03394899390626503]",4.0,"[-0.07222227063584861,-0.12190400362436103]",4.0,"[-0.15395332897701244,0.10728140765244026]",4.0,"[0.16367749476626867,-0.029158802696862652]",4.0,"[0.15726501544308102,0.08441221765546567]",100.0,"[0.12257982245843524,-0.025763339970305853]",4.0,"[0.11724019906682366,0.07861543928593571]",100.0,"[-0.05298063549966167,-0.17048298086688712]",100.0,"[0.05752947685544084,-0.13896338126509566]",100.0,"[0.07393091369393304,0.17478252507249387]",100.0,"[0.1505265812687196,-0.09682611865555177]",4.0,"[0.02,0.02]",127.8614,0.0,21.0,21.0,124.0,1.0,,,,,,,
,,,,,,,5a0c4184fe645f0001e9f5dd,6842bb1ff95b8e86f01fcd1d,2025-06-06_11h02.05.578,shape_ratio,2024.1.5,Win32,59.88023952,6842b561977af9ba9b0f87ca,,,,,,,,,,,127.8617,128.3612,,,128.6121,128.8982,right,,,,,,,,0.9,0.2748,,,,,,,128.3612,128.6121,128.8983,"[0.0484818285759828,0.04329646062096839]",100.0,"[0.04357031795904198,-0.1911844561239666]",100.0,"[0.11376636168599859,0.023591681969093767]",4.0,"[-0.060207004172143405,0.18806151574492955]",100.0,"[0.06499947456319614,0.0887105810220241]",100.0,"[0.048589698311113795,0.12866829155845066]",100.0,"[-0.04014732621211788,-0.18391395819446976]",100.0,"[0.02736448458639745,0.18707437859219622]",100.0,"[0.1929595472113005,-0.0019446722122929692]",100.0,"[-0.1342802579004406,0.09534130246418344]",100.0,"[-0.008479402022262524,-0.05196034216747147]",100.0,"[0.1308472280443431,0.08854702497819292]",100.0,"[-0.1778078042233825,-0.008952800861013499]",100.0,"[-0.001252286792020021,0.14924384731541573]",100.0,"[0.022717644154073596,-0.1419524224308908]",4.0,"[0.10232327512590703,0.1250213245141817]",100.0,"[0.12435433374418668,-0.07391921198660262]",100.0,"[-0.09825408151333488,0.13274002233211507]",4.0,"[0.05544501074814783,-0.06159733454605889]",100.0,"[-0.03517741815526553,0.06148597591542472]",100.0,"[-0.12683817371426526,-0.13770192143729973]",100.0,"[0.053324257128327196,-0.11140403766487343]",100.0,"[0.009704239668231222,0.01042851308163462]",100.0,"[-0.04338971737009549,-0.01981208927747415]",100.0,"[-0.09501723719006842,-0.08985954806435213]",100.0,"[-0.07801290529250797,-0.049576022921035995]",100.0,"[0.1514921161280054,-0.026982539197089737]",100.0,"[-0.11007015792526488,0.037573765566784635]",100.0,"[0.12432933769150266,-0.14783047791001924]",100.0,"[0.07175610556316893,0.00510699664584718]",100.0,"[0.16806496254250064,-0.07308580994142247]",100.0,"[-0.16797402388120675,-0.07775716050610824]",100.0,"[0.02,0.02]",129.9947,0.0,22.0,22.0,2.0,1.0,,,,,,,
,,,,,,,5a0c4184fe645f0001e9f5dd,6842bb1ff95b8e86f01fcd1d,2025-06-06_11h02.05.578,shape_ratio,2024.1.5,Win32,59.88023952,6842b561977af9ba9b0f87ca,,,,,,,,,,,129.9953,130.4951,,,130.7451,131.0784,right,,,,,,,,0.5,0.3153,,,,,,,130.4952,130.7451,131.0785,"[0.12397664605110954,0.020048977634463866]",4.0,"[0.10414523691273816,0.0903916761085573]",100.0,"[0.16666793494633955,0.06982735401599016]",4.0,"[0.006617185216002726,-0.12695727206106555]",4.0,"[0.05850480475461411,-0.16791043985622026]",100.0,"[0.0030281022198587436,0.09917325778791145]",4.0,"[-0.16969082398375507,0.10246814279210975]",4.0,"[0.05106598365934423,-0.06026593824472569]",4.0,"[0.12757018875087206,-0.08601950215795165]",100.0,"[-0.05744784505851418,0.02860164354471089]",4.0,"[-0.11279721841251657,0.11344003597441206]",100.0,"[0.028153024687393325,0.0033304733796501768]",100.0,"[-0.06190707895526686,-0.035336777116355744]",100.0,"[0.07127704791603004,0.13686976164652145]",100.0,"[0.0872348870653737,-0.005705244506994437]",4.0,"[-0.1524342111764232,-0.025258196340719838]",4.0,"[-0.061894086810277436,-0.07556671911321841]",100.0,"[-0.060800659593466096,0.1282367413308003]",100.0,"[-0.06958206405087813,0.17828234675529914]",4.0,"[0.010091771675423904,0.17995110075501833]",4.0,"[0.15753760288418694,0.11950615511527596]",100.0,"[-0.11693324196564739,0.07129664165212034]",4.0,"[-0.17055820382894393,-0.09785350094168434]",4.0,"[-0.09637397924030468,0.001772238873679084]",100.0,"[0.13760156425912143,-0.03250065132690797]",100.0,"[-0.10767295010760337,-0.14135899725746826]",100.0,"[-0.0377939068620218,-0.13203218807426262]",4.0,"[0.16539689577445468,0.0018661186724922988]",100.0,"[0.014409978106057516,0.04405363693936239]",100.0,"[0.05558298122683413,0.062050881425844466]",4.0,"[-0.10999903727526697,-0.04873436609052709]",100.0,"[0.10092197568680171,-0.049705867627592236]",4.0,"[0.02,0.02]",132.1784,0.0,23.0,23.0,114.0,1.0,,,,,,,
,,,,,,,5a0c4184fe645f0001e9f5dd,6842bb1ff95b8e86f01fcd1d,2025-06-06_11h02.05.578,shape_ratio,2024.1.5,Win32,59.88023952,6842b561977af9ba9b0f87ca,,,,,,,,,,,132.179,132.6785,,,132.9283,133.3953,right,,,,,,,,0.6,0.4488,,,,,,,132.6785,132.9283,133.3955,"[0.17631305087623378,0.007551181825915606]",4.0,"[0.11221434357192646,0.11209417376278842]",4.0,"[-0.18646744149407946,-0.03639968636192722]",100.0,"[0.05427349909109494,0.09640629314471141]",4.0,"[-0.10516499716739443,0.10500902614708248]",100.0,"[-0.08514811893106122,0.048433375907630236]",4.0,"[0.12271780843667023,0.000519064267170631]",100.0,"[-0.116924292972176,-0.08623128513639668]",4.0,"[0.0991962198347131,-0.10146935783779949]",100.0,"[-0.0017067360696067654,-0.08483308989931566]",100.0,"[-0.11544744585931292,-0.12736371292798737]",100.0,"[0.10866151337892993,0.16130119040389065]",100.0,"[0.010423887749612436,-0.14216164535298292]",100.0,"[0.09162331681380065,-0.15137322982931994]",100.0,"[-0.09195439197412954,-0.039382017410581956]",4.0,"[-0.14152044161155114,-0.005457979316832839]",4.0,"[0.025659424367923362,0.01640250867626675]",4.0,"[-0.04741169646358788,-0.07327874909884692]",100.0,"[0.09031728083073357,0.060251834506025836]",100.0,"[-0.10265500937703688,0.15726183423154963]",4.0,"[-0.01992582626350102,0.0765622330113619]",4.0,"[0.019728127518248328,-0.0318111076037662]",100.0,"[-0.0012380614197394562,0.16674859549888343]",100.0,"[0.14636312568153048,-0.11192793844195305]",100.0,"[0.06432223019275976,0.027064624236377583]",4.0,"[0.05609559942797556,0.1866137904224371]",4.0,"[0.0275631343313236,0.13186741037050664]",100.0,"[0.04948982547506922,-0.09964412975677285]",100.0,"[0.1578076822108196,0.05964136486897888]",100.0,"[-0.028875124220992778,-0.11545574260650046]",100.0,"[-0.02268495065393764,-0.03809362361268722]",4.0,"[-0.028801380759541296,0.11574537627541279]",100.0,"[0.02,0.02]",134.495,0.0,24.0,24.0,42.0,1.0,,,,,,,
,,,,,,,5a0c4184fe645f0001e9f5dd,6842bb1ff95b8e86f01fcd1d,2025-06-06_11h02.05.578,shape_ratio,2024.1.5,Win32,59.88023952,6842b561977af9ba9b0f87ca,,,,,,,,,,,134.4954,134.9951,,,135.2455,135.8785,left,,,,,,,,0.5,0.6178,,,,,,,134.9952,135.2455,135.8785,"[0.03489588776110967,0.1659466652251647]",100.0,"[-0.08747191921810729,-0.10688536483489938]",4.0,"[0.017972317769048892,-0.17400416308847189]",100.0,"[0.16153377531813193,-0.09078276572690981]",4.0,"[-0.10369611141731211,0.023642631971514644]",4.0,"[0.13345840304909043,0.07137368439960878]",100.0,"[-0.1788705199781196,0.028901647051300848]",4.0,"[-0.024991028420437596,-0.01519970781818723]",100.0,"[-0.023284232491505165,-0.19849629347333386]",4.0,"[-0.058690883168612006,0.17250354545623625]",4.0,"[-0.012243415883374692,-0.136921074829335]",4.0,"[0.08832269635262383,0.041653784102450644]",100.0,"[0.08235626691325414,-0.07617136389393839]",4.0,"[-0.1224025837094273,0.06858730015457531]",4.0,"[-0.10027714327194658,-0.043181608782768825]",100.0,"[-0.13518241796007566,-0.10213113314446406]",4.0,"[0.00194259039194344,0.07967865235091101]",100.0,"[-0.07118651972081297,0.10027018963481339]",4.0,"[-0.03005583809611557,0.10436338539863352]",100.0,"[0.0324945772836119,-0.11585665097281136]",100.0,"[0.1187083180293321,-0.13674259776184083]",100.0,"[-0.016537722110189806,0.16780957723984816]",4.0,"[0.13511078414734176,-0.041489693330712715]",100.0,"[-0.09756964176961062,0.15417528983729606]",4.0,"[0.14577320971928026,0.11786248312260693]",100.0,"[-0.06580128721976668,-0.06716990390999684]",4.0,"[-0.0679537765398335,-0.18796853617841855]",100.0,"[0.02725283186086872,-0.015688369641065635]",100.0,"[-0.1787306852629504,-0.03727516542880139]",100.0,"[-0.11883502151896415,-0.1391880400636051]",4.0,"[0.07681207469819287,0.10268168791968156]",4.0,"[0.15801966881255322,0.027516700383239435]",100.0,"[0.02,0.02]",136.9784,0.0,25.0,25.0,108.0,1.0,,,,,,,
,,,,,,,5a0c4184fe645f0001e9f5dd,6842bb1ff95b8e86f01fcd1d,2025-06-06_11h02.05.578,shape_ratio,2024.1.5,Win32,59.88023952,6842b561977af9ba9b0f87ca,,,,,,,,,,,136.9789,137.4784,,,137.729,138.3949,left,,,,,,,,0.5,0.6483,,,,,,,137.4784,137.7289,138.3949,"[0.14459757670612405,-0.054616331724484185]",100.0,"[0.19009088406122648,-0.0474218109002959]",4.0,"[0.10071959914113837,0.049230062306273754]",100.0,"[-0.031883688115814574,-0.1447346791464959]",100.0,"[-0.01268801473016604,-0.059032093415603]",4.0,"[0.07445359806163389,0.08589941825852937]",100.0,"[0.04821355033844886,-0.050115057715600674]",100.0,"[0.1943900837598578,-0.0037366055486684324]",100.0,"[-0.06264852392933712,0.009940733067334898]",4.0,"[0.07272920047715363,-0.006560084746927673]",4.0,"[0.038429508939799746,-0.10352793406142281]",4.0,"[-0.12609787673023218,0.06617707735938955]",4.0,"[0.16055890383158247,0.06785307612194151]",100.0,"[-0.02862920182409485,-0.18996541205352432]",4.0,"[-0.0060553320558764945,0.03329634062903287]",100.0,"[0.09475816626457288,-0.14767834783226172]",100.0,"[0.06218242121258639,0.15842885464546907]",4.0,"[-0.09475965913512421,-0.12476526930230385]",4.0,"[-0.10791391134121478,0.14424358531126036]",4.0,"[-0.005390826908988728,-0.01690875141639161]",4.0,"[-0.04381448968952789,-0.0313199162893116]",4.0,"[0.03311204296831101,0.07969337433862282]",100.0,"[-0.11630893826977182,-0.07810029774168552]",4.0,"[-0.06516584973692088,0.07572622940145102]",100.0,"[-0.16714673421524728,-0.09563173035522311]",4.0,"[-0.16878670493481002,-0.009562733720269351]",100.0,"[0.12269676778320142,0.12001593006207192]",100.0,"[0.153074510792537,0.018454238258112536]",4.0,"[0.09955274540570824,-0.08977002726933832]",100.0,"[-0.12914932278980262,-0.15087134910335945]",100.0,"[-0.004722304431540202,0.1624451365623497]",100.0,"[0.024530653622819424,-0.1961156378709855]",4.0,"[0.02,0.02]",139.4946,0.0,26.0,26.0,105.0,1.0,,,,,,,
,,,,,,,5a0c4184fe645f0001e9f5dd,6842bb1ff95b8e86f01fcd1d,2025-06-06_11h02.05.578,shape_ratio,2024.1.5,Win32,59.88023952,6842b561977af9ba9b0f87ca,,,,,,,,,,,139.4954,139.9949,,,140.2452,140.6781,right,,,,,,,,0.9,0.4162,,,,,,,139.995,140.2452,140.6782,"[0.01875955173077623,0.153607137656913]",100.0,"[0.009571020654763186,-0.10878231417883691]",100.0,"[-0.06435831853349473,0.10386810494751354]",100.0,"[-0.0650406920216061,-0.17033908639830428]",100.0,"[0.04681118308164796,0.04491446173850496]",100.0,"[-0.06264876265025672,0.1557008221341504]",100.0,"[0.08448587905364961,-0.027111375012396657]",100.0,"[0.03850626349020822,-0.19305713726035545]",100.0,"[-0.02941300310674482,-0.08203358069560783]",100.0,"[-0.1128515562294943,-0.16139607770634973]",100.0,"[0.16387115809694214,0.0821000927653456]",100.0,"[-0.06487830184393173,-0.04669663911205564]",100.0,"[0.1413940063946372,-0.127340781981452]",100.0,"[-0.05711281776773232,0.008047505437034485]",100.0,"[-0.11839871123440797,0.1392558027960438]",100.0,"[-0.12876990726606105,-0.02309055811765807]",4.0,"[0.009382708476926247,0.014932099849326233]",100.0,"[0.07544786309992624,0.09841891332931041]",100.0,"[-0.14384019511623222,-0.06168601342990912]",100.0,"[0.0522570724704953,0.18173200609951193]",100.0,"[0.1282723687759811,-0.0010069512090806903]",100.0,"[0.07486557156437824,-0.08424225571911471]",100.0,"[-0.06684826129168409,0.04863731861096969]",4.0,"[0.08153285601226279,-0.15841207978544938]",100.0,"[-0.067705886191874,-0.11604528993590524]",100.0,"[0.008756919097997189,0.05871270000406971]",100.0,"[0.0073486940791950995,0.10030494785093386]",100.0,"[0.16737623011096533,-0.06338884020926848]",100.0,"[-0.18920293219035422,0.016131288340936942]",4.0,"[0.10709271378396791,0.14560334900048663]",100.0,"[-0.03359487226319566,0.1869444114146012]",100.0,"[-0.14541887188528826,0.04529508626741164]",100.0,"[0.02,0.02]",141.7782,0.0,27.0,27.0,8.0,1.0,,,,,,,
,,,,,,,5a0c4184fe645f0001e9f5dd,6842bb1ff95b8e86f01fcd1d,2025-06-06_11h02.05.578,shape_ratio,2024.1.5,Win32,59.88023952,6842b561977af9ba9b0f87ca,,,,,,,,,,,141.7786,142.2782,,,142.5286,142.9283,right,,,,,,,,0.55,0.3825,,,,,,,142.2782,142.5285,142.9283,"[-0.027225880933719287,-0.02186215006576073]",4.0,"[-0.0942933522275571,-0.03441682984919322]",100.0,"[-0.03975215426394193,0.0862141246052832]",100.0,"[-0.036823526864188674,0.035116104438636914]",100.0,"[0.07848278687222149,0.01286554623745518]",100.0,"[0.13035612832115345,-0.03630381078250687]",4.0,"[-0.10916244821101612,-0.1009749670618365]",4.0,"[-0.0166369509617745,-0.1435664773036374]",4.0,"[0.04357188166699359,0.1696804927674875]",100.0,"[-0.14822946027632933,-0.08204684398987129]",100.0,"[0.02227325750392822,0.05375619195063433]",4.0,"[-0.08655259640547401,0.050971667368009316]",100.0,"[-0.06726056502561813,0.13885210508462523]",100.0,"[-0.12205345209920812,0.14976411928122937]",4.0,"[-0.004696086796236329,-0.08145809597091286]",4.0,"[0.06366692961800087,-0.13231103244674358]",4.0,"[-0.14513382024401494,0.005670699135804427]",100.0,"[0.09057000474485548,0.12119264961085473]",100.0,"[0.041534533219831735,-0.0580569157260598]",100.0,"[-0.10298913432115754,-0.1514381656611459]",100.0,"[0.1251273439183629,0.0680657107085276]",4.0,"[-0.17846401592715888,0.06866337148405557]",100.0,"[0.08578645796283849,-0.027391503668351542]",100.0,"[-0.03945711331082147,-0.1942746746706798]",100.0,"[0.0015587188765186256,0.13346822021499402]",4.0,"[0.0806686058374531,-0.18188262446361192]",4.0,"[0.028482920593418882,0.008625016352924805]",100.0,"[0.08262112229870487,-0.08040550271781131]",100.0,"[-0.19001852072246678,-0.005639171690051413]",4.0,"[0.028980589622623672,-0.18724334201958676]",4.0,"[-0.09612898350625776,0.10552186770379883]",100.0,"[0.04910266538997707,0.08671117513629628]",4.0,"[0.02,0.02]",144.028,0.0,28.0,28.0,82.0,1.0,,,,,,,
,,,,,,,5a0c4184fe645f0001e9f5dd,6842bb1ff95b8e86f01fcd1d,2025-06-06_11h02.05.578,shape_ratio,2024.1.5,Win32,59.88023952,6842b561977af9ba9b0f87ca,,,,,,,,,,,144.0286,144.528,,,144.778,145.5451,left,,,,,,,,0.4,0.7564,,,,,,,144.5282,144.7779,145.5451,"[-0.14274559664773673,0.10220467672066091]",4.0,"[-0.19857179692638238,-0.020856749431883734]",4.0,"[-0.000763562826761542,0.1984378275107005]",4.0,"[-0.0581686839680574,-0.17153106512400204]",100.0,"[0.017902614176470866,-0.17403327617856487]",100.0,"[0.004860449246092755,-0.06045484904887543]",100.0,"[-0.036818343402624805,0.05945180165602944]",4.0,"[0.11169634033848316,0.11435108804801403]",4.0,"[0.036710012818184284,-0.1045616269387134]",4.0,"[-0.08088316328538031,0.16556512659332123]",100.0,"[0.19253064198574796,0.02175361316235789]",4.0,"[-0.1467121471948663,-0.1311737894476286]",4.0,"[-0.0994698961219054,0.07580771361438021]",4.0,"[0.10633191491952042,0.15806661557331947]",4.0,"[0.0527588438063666,0.11802308884764758]",4.0,"[0.12336657415116845,0.06408684500168087]",4.0,"[0.07250162099058526,0.02742223718529617]",4.0,"[-0.11393513681074088,-0.06613520688242344]",100.0,"[0.1027153164155473,-0.13965991648362705]",4.0,"[0.029347245746642832,0.06928687721379456]",100.0,"[-0.08205710815912683,-0.0962194678077594]",4.0,"[0.1792672475183898,0.06605120360566903]",100.0,"[-0.14857693561533772,-0.027351474703317658]",4.0,"[-0.014031726883054874,0.16005190183860127]",100.0,"[-0.09059741037394363,-0.000281648611294872]",100.0,"[0.09350428251433485,-0.055394206249923]",100.0,"[-0.16131615167563992,0.04574293437734333]",4.0,"[0.061641283111133864,-0.014376392490099204]",100.0,"[0.059710060252761585,-0.17277646194681182]",100.0,"[0.1728916344871812,-0.08059398132165532]",4.0,"[-0.15791243795167362,-0.07016454049657866]",4.0,"[-0.06967358236943476,-0.0372520518911546]",100.0,"[0.02,0.02]",146.6448,0.0,29.0,29.0,158.0,1.0,,,,,,,
,,,,,,,5a0c4184fe645f0001e9f5dd,6842bb1ff95b8e86f01fcd1d,2025-06-06_11h02.05.578,shape_ratio,2024.1.5,Win32,59.88023952,6842b561977af9ba9b0f87ca,,,,,,,,,,,146.6453,147.1448,,,147.3953,148.1782,right,,,,,,,,0.55,0.7714,,,,,,,147.1448,147.3952,148.1782,"[-0.1532561166506986,-0.08114384930961686]",4.0,"[-0.08662138089719482,-0.10600899029737343]",100.0,"[-0.18972574201114753,0.044680255218824405]",4.0,"[-0.16439256151968776,0.012909821403316707]",100.0,"[0.12646178472291905,0.09032742654150107]",4.0,"[0.020073905209592246,0.15415839303682285]",4.0,"[-0.042690500425202525,-0.07547504820680392]",100.0,"[0.0188969130042981,-0.0500505496567647]",100.0,"[0.05687243160142142,0.12261918409405745]",100.0,"[-0.1348245802344973,-0.13095853149904613]",4.0,"[0.01948315506489379,-0.15087163849244764]",4.0,"[0.04813517381555343,0.03305995931907477]",100.0,"[0.15440006731924497,-0.12284103265939593]",100.0,"[-0.04993334698603419,0.08840405168538934]",4.0,"[-0.14398030320851962,0.07366750780477867]",4.0,"[0.1966627198320253,0.021153553724433834]",100.0,"[0.007149140419404293,0.028586675335372288]",100.0,"[-0.13253727796844933,-0.01854454897140166]",4.0,"[0.12118845081447646,-0.10031088280239335]",100.0,"[0.11815259307097956,0.16085741387871305]",4.0,"[-0.09392222401152703,-0.006709387513727028]",100.0,"[-0.0002353654050815324,0.19116615395017364]",100.0,"[-0.10639774721879686,0.051781150441847903]",4.0,"[-0.15531306672456988,0.12406334344954362]",100.0,"[-0.05335201496716944,-0.010065817045421158]",4.0,"[-0.08401077476273552,-0.17697255054218386]",100.0,"[-0.09826347839628338,0.12351543766265545]",100.0,"[0.02568969528515291,0.07114770623143384]",100.0,"[0.06039991721212715,0.172481988076384]",100.0,"[0.1371393349031044,0.002278245147551994]",4.0,"[0.0008837218402839296,0.10860296256462126]",4.0,"[0.159052838466934,0.042709038710694196]",100.0,"[0.02,0.02]",149.2778,0.0,30.0,30.0,78.0,1.0,,,,,,,
,,,,,,,5a0c4184fe645f0001e9f5dd,6842bb1ff95b8e86f01fcd1d,2025-06-06_11h02.05.578,shape_ratio,2024.1.5,Win32,59.88023952,6842b561977af9ba9b0f87ca,,,,,,,,,,,149.2783,149.7779,,,150.0283,150.6282,right,,,,,,,,0.6,0.5826,,,,,,,149.778,150.0283,150.6282,"[0.029768919033104333,-0.12722472391462036]",4.0,"[-0.0688619030369203,0.04913129001282757]",100.0,"[0.11030780760856536,-0.07376832567201365]",100.0,"[0.15385931759260785,-0.014135084290083534]",4.0,"[-0.13388557925579855,0.04135474619075433]",4.0,"[0.13109002842071693,-0.14847341108370704]",4.0,"[-0.06457089437985054,0.130155160699486]",100.0,"[-0.09024327878500035,0.0970940764267535]",100.0,"[0.031010414845021855,-0.01547049066708634]",4.0,"[0.03410659271571322,0.14848005858122804]",4.0,"[0.11058940823402118,0.1449732921205155]",100.0,"[0.14607299577100044,0.09862613746354233]",100.0,"[0.08007047405183171,0.024435812639768663]",4.0,"[-0.05576025802125356,-0.046393305905337925]",100.0,"[-0.029788535110353315,-0.07834287712973714]",100.0,"[-0.15015222340416606,0.0835263738762739]",4.0,"[-0.17593431388113498,-0.052992894531363174]",100.0,"[0.16334155984545237,0.03064205110991526]",100.0,"[0.0923763780774031,-0.017266093804830105]",100.0,"[-0.19816902537060593,-0.004855586860669547]",100.0,"[-0.1001298040148762,0.016009752645247188]",100.0,"[-0.14061855349199406,-0.09080487596012005]",100.0,"[0.01943778647854033,0.03978412799409653]",4.0,"[-0.027326434300259685,-0.18457363903939297]",100.0,"[-0.15694219258970205,0.001722869492104824]",4.0,"[-0.07750615258603123,-0.13080629125837484]",100.0,"[0.0362285052371738,0.10309100256746827]",4.0,"[0.06874782281833157,-0.143215690002833]",4.0,"[0.017123206226431157,-0.06186933744354993]",100.0,"[-0.13030519759246365,0.11932351974373465]",100.0,"[-0.02651445203730363,0.019512741795233577]",100.0,"[-0.01013775254467217,0.16901084473197853]",4.0,"[0.02,0.02]",151.728,0.0,31.0,31.0,52.0,1.0,,,,,,,
,,,,,,,5a0c4184fe645f0001e9f5dd,6842bb1ff95b8e86f01fcd1d,2025-06-06_11h02.05.578,shape_ratio,2024.1.5,Win32,59.88023952,6842b561977af9ba9b0f87ca,,,,,,,,,,,151.7284,152.2275,,,152.4783,153.2281,right,,,,,,,,0.6,0.7321,,,,,,,152.2277,152.4783,153.2282,"[0.1107789683588776,0.06855495311243329]",100.0,"[0.09999900450020686,0.12037592923160154]",100.0,"[-0.13781293534359262,0.0405165288269533]",4.0,"[0.01583728210068041,0.13807528198280836]",100.0,"[0.06827055305290196,0.052007178867847705]",100.0,"[-0.17584209981644064,0.05843728369685491]",100.0,"[0.10977253522555362,-0.14997635184406868]",4.0,"[-0.05117064956154002,-0.0913226029871523]",4.0,"[-0.1289499295233224,-0.0838727268763358]",100.0,"[0.06267793449568178,-0.1230853771433417]",100.0,"[0.025540226152845357,-0.011555830933276707]",4.0,"[-0.08791293320833309,0.020377351908090778]",100.0,"[-0.0874853131042812,0.06697976667636134]",4.0,"[0.07522534799508727,0.1782150177637908]",100.0,"[0.004566733572614884,0.07930033920389351]",100.0,"[0.10864681151284056,-0.06854564523536162]",100.0,"[0.1471711500662299,-0.04378616442686776]",4.0,"[-0.01919334095056998,-0.02271351874193064]",100.0,"[0.0002927244430033292,-0.061830577099659945]",4.0,"[-0.059022985147003666,0.1252766621238489]",4.0,"[0.14301993430514723,0.09692481797519335]",4.0,"[0.182478962756217,0.029855864799812795]",4.0,"[-0.14491941105546619,-0.12197945827818374]",100.0,"[0.1163098150178705,0.005155014493585392]",100.0,"[0.0067640998810304135,-0.14737874350195582]",4.0,"[-0.11801668356836363,0.1318434772382848]",4.0,"[-0.061343042353447015,-0.02161395759739107]",100.0,"[-0.08937428065449105,-0.15493721665135604]",100.0,"[-0.010493175901569604,0.020811410620250034]",4.0,"[0.05377174063722682,0.09792325270617681]",100.0,"[-0.016662717447105853,-0.19637327894912046]",100.0,"[0.18465609186339682,-0.019335817370704778]",100.0,"[0.02,0.02]",154.328,0.0,32.0,32.0,50.0,1.0,,,,,,,
,,,,,,,5a0c4184fe645f0001e9f5dd,6842bb1ff95b8e86f01fcd1d,2025-06-06_11h02.05.578,shape_ratio,2024.1.5,Win32,59.88023952,6842b561977af9ba9b0f87ca,,,,,,,,,,,154.3284,154.828,,,155.0782,156.0776,right,,,,,,,,0.45,0.9816,,,,,,,154.828,155.0781,156.0776,"[-0.10386097865376667,0.11373276502850185]",4.0,"[0.03273512487018341,0.1484551505801751]",4.0,"[-0.04390055851485798,0.10183394093192388]",100.0,"[0.13783289046172828,-0.1251221474520073]",4.0,"[0.05495477591647112,-0.08791958678372525]",4.0,"[-0.17732737149816913,-0.032604091289049605]",4.0,"[0.025162494799388122,0.057046849861189325]",4.0,"[0.07802972852963708,-0.0022258542163573467]",4.0,"[0.06332566173247159,-0.15068086047522386]",100.0,"[-0.087610515144859,-0.15342340599720306]",4.0,"[0.15205463140004502,-0.05585403896764105]",100.0,"[-0.16948024754167654,0.0707254140066425]",4.0,"[-0.031360592986903184,0.17611366161340447]",4.0,"[-0.08690035525915007,0.16347354606961015]",100.0,"[-0.14117540721667726,-0.06426724293956203]",100.0,"[0.1009205090269774,0.1297754344379103]",100.0,"[0.14984653326334343,0.00784753316589104]",100.0,"[0.06931334632428647,0.07252381104917106]",100.0,"[-0.06469377216541199,-0.09303705678324943]",4.0,"[0.1624776795593657,0.08135613622272175]",100.0,"[-0.019268950768647996,0.030047893186388938]",4.0,"[0.008965944985814782,-0.11914381798710738]",4.0,"[0.054895036699857284,0.18559528140560866]",4.0,"[0.10302391322559701,-0.16844418121805324]",4.0,"[-0.13590188860338165,-0.14554144835998784]",100.0,"[-0.07856884852598484,0.05688295763883946]",4.0,"[-0.047400563071365066,-0.023126226639316894]",100.0,"[-0.12674942038230141,0.0060659586206871716]",100.0,"[-0.027447809006965064,-0.07119930981380125]",100.0,"[-0.00938682179224118,-0.16749190128324418]",100.0,"[-0.10417738297678979,-0.036796679249765624]",4.0,"[0.0349017441521001,0.009979384841521088]",4.0,"[0.02,0.02]",157.1779,0.0,33.0,33.0,146.0,1.0,,,,,,,
,,,,,,,5a0c4184fe645f0001e9f5dd,6842bb1ff95b8e86f01fcd1d,2025-06-06_11h02.05.578,shape_ratio,2024.1.5,Win32,59.88023952,6842b561977af9ba9b0f87ca,,,,,,,,,,,157.1785,157.6778,,,157.9278,158.53,right,,,,,,,,0.6,0.5901,,,,,,,157.6778,157.9278,158.5301,"[-0.0481489171990918,0.18081220674850776]",100.0,"[0.13184668902300803,-0.08718793720630162]",100.0,"[0.15763266246089577,0.05626490403328461]",4.0,"[-0.14277005018859693,-0.07518601986883583]",100.0,"[-0.08983903391958951,-0.07221602392967191]",100.0,"[0.04380366060751843,0.07371357424912509]",4.0,"[0.07152894825748689,-0.13242296687114216]",100.0,"[-0.07268212254527955,0.13446005380298454]",4.0,"[-0.06937408970413976,0.04880395417959817]",100.0,"[-0.0747310856589911,-0.1279087925674381]",100.0,"[0.1632615624145563,-0.051918474801232906]",4.0,"[-0.04311747629595896,0.013727083834720736]",100.0,"[0.01990869011815848,-0.12292503983589538]",100.0,"[0.059253638831499984,-0.09423917100067213]",4.0,"[-0.1259116884233266,-0.002582767279778074]",100.0,"[0.1352822871159646,0.019716089385866845]",4.0,"[-0.01535360685842244,-0.05835109040916698]",4.0,"[0.06646412876048405,-0.010879989645981053]",100.0,"[0.1778555993209327,-0.002707787676915984]",4.0,"[0.019238830940934683,0.15835073828646423]",100.0,"[-0.03249665225129766,-0.158493810211003]",4.0,"[0.09676637835364779,0.09302064702360788]",100.0,"[0.09327116399174179,0.1644563588866193]",4.0,"[0.11878759073675818,-0.14195474660441454]",4.0,"[-0.10120639292622652,0.1650137911156454]",100.0,"[-0.16515449244965075,0.029789973114710988]",100.0,"[0.003946315014980271,0.11453709371022427]",100.0,"[-0.020971286925848254,0.04976369126153841]",100.0,"[-0.15899883734082415,-0.0359123615489863]",4.0,"[-0.06519675478944015,-0.030285523693351836]",100.0,"[-0.12277103569857249,0.09934719703519242]",4.0,"[-0.05574740946747255,0.09532174209491581]",100.0,"[0.02,0.02]",159.6278,0.0,34.0,34.0,44.0,1.0,,,,,,,
,,,,,,,5a0c4184fe645f0001e9f5dd,6842bb1ff95b8e86f01fcd1d,2025-06-06_11h02.05.578,shape_ratio,2024.1.5,Win32,59.88023952,6842b561977af9ba9b0f87ca,,,,,,,,,,,159.6284,160.1278,,,160.3784,161.0612,right,,,,,,,,0.55,0.6678,,,,,,,160.1279,160.3783,161.0612,"[-0.014881478778279241,-0.14632384214214966]",4.0,"[0.0055799657980672756,0.06377493254667484]",100.0,"[0.09227953194035553,-0.05992542374095372]",4.0,"[-0.06228436874411765,0.0011401795971960125]",4.0,"[-0.013243704582065346,0.1609101099487072]",4.0,"[-0.0263904904575177,-0.19018121849305925]",100.0,"[0.18451085460847436,0.07234268033941325]",100.0,"[0.15543269670845325,-0.09228145783510806]",100.0,"[0.13258043035677028,0.1432006228028398]",100.0,"[-0.15833106371790537,0.04532973741914488]",100.0,"[-0.12215075344636642,-0.1369847193962202]",100.0,"[0.04559252103347814,0.11439671532583429]",100.0,"[-0.1131460036773515,0.11603975251895923]",100.0,"[-0.01194129322764014,-0.00918403179083474]",100.0,"[0.09015183704456142,-0.12789608892342824]",4.0,"[-0.09563339964627263,-0.031624558337529085]",100.0,"[0.08824424193234782,0.015318162630727496]",100.0,"[-0.13143721818893297,-0.07698619878963073]",4.0,"[0.1599146141350791,-0.042271406741905625]",4.0,"[0.05996750085382339,0.06856501356402454]",4.0,"[0.040998806123716036,-0.08449473795675712]",100.0,"[-0.17138057613535332,-0.07210870211769303]",4.0,"[0.0048287808419095555,0.10473545372390201]",100.0,"[-0.0775426804593092,-0.17163490388918637]",100.0,"[-0.052977093839754984,-0.08065978752666969]",4.0,"[-0.060987644248621034,0.14584301102356292]",4.0,"[0.13014999097056787,0.0815533871872914]",4.0,"[0.09829026373484408,0.11767415196905374]",4.0,"[-0.06518361536509189,0.08756740295104817]",4.0,"[-0.05685019416614626,-0.12931187925936607]",100.0,"[0.07494478471324952,0.15423242243811458]",100.0,"[0.015027490115253688,0.19339882002403888]",100.0,"[0.02,0.02]",162.1608,0.0,35.0,35.0,79.0,1.0,,,,,,,
,,,,,,,5a0c4184fe645f0001e9f5dd,6842bb1ff95b8e86f01fcd1d,2025-06-06_11h02.05.578,shape_ratio,2024.1.5,Win32,59.88023952,6842b561977af9ba9b0f87ca,,,,,,,,,,,162.1615,162.6611,,,162.9116,163.7136,right,,,,,,,,0.9,0.7905,,,,,,,162.6611,162.9116,163.7136,"[-0.13011850618141477,0.12543391104432067]",100.0,"[0.06380189580147287,0.060047145114735176]",100.0,"[-0.010499929268427702,0.003625398630220708]",4.0,"[0.16955766663766914,-0.05957318498760983]",100.0,"[0.04023848161087658,-0.15113280935066517]",100.0,"[-0.014656861233248072,-0.16259477076213924]",100.0,"[-0.07123309772872087,0.04151745952521744]",100.0,"[0.05742739892547551,0.006132658313873025]",100.0,"[-0.026013922881036454,-0.08729049888164657]",100.0,"[-0.018847943327202483,0.14031377874396225]",100.0,"[-0.17146242327572137,-0.0005352191348515342]",100.0,"[-0.11870442625589865,0.007458387434393227]",100.0,"[0.08086086727400564,-0.0965806401769647]",100.0,"[0.13483504003135094,0.011564973918291008]",100.0,"[-0.013421774767372215,0.09109946409767988]",100.0,"[0.09501782141453548,0.033421725820739046]",100.0,"[0.053413458034640524,0.15716132067639454]",100.0,"[0.08264185753536121,-0.14126269139096104]",100.0,"[-0.08611568271867995,0.11907216938353651]",4.0,"[-0.11016143871650974,-0.06257415065121227]",100.0,"[0.025598078912920003,-0.07685288105897149]",100.0,"[-0.1192085027842857,0.05222179417455333]",100.0,"[0.0982040992854235,0.12267631162819782]",100.0,"[0.17068489725656377,0.08578331770336618]",100.0,"[0.18869717793015925,0.024884504025362096]",100.0,"[-0.06445252594894946,-0.18361531806613027]",100.0,"[0.05699575160584598,0.11406849964052776]",100.0,"[-0.029590263859359523,0.19690513389337322]",100.0,"[-0.06952502177257125,-0.06867710601508084]",100.0,"[-0.09863225580428521,-0.11671295208238916]",100.0,"[0.1328027099413242,0.06100575001128014]",100.0,"[0.028560269494039822,0.19453096606474785]",4.0,"[0.02,0.02]",164.8111,0.0,36.0,36.0,11.0,1.0,,,,,,,
,,,,,,,5a0c4184fe645f0001e9f5dd,6842bb1ff95b8e86f01fcd1d,2025-06-06_11h02.05.578,shape_ratio,2024.1.5,Win32,59.88023952,6842b561977af9ba9b0f87ca,,,,,,,,,,,164.8116,165.311,,,165.5615,166.2107,left,,,,,,,,0.5,0.6365,,,,,,,165.311,165.5615,166.2108,"[0.02132118499779473,-0.046065527855140266]",4.0,"[0.10149654315055408,0.1250234989030233]",4.0,"[-0.05101196984163892,0.039126613441477484]",100.0,"[0.06729079996725455,0.03342120727508223]",100.0,"[-0.047071694561741005,-0.004432849022930702]",4.0,"[0.0033800045665869694,-0.18977140505267256]",4.0,"[-0.008690502281066227,0.03163779340273628]",100.0,"[-0.0782558848523417,-0.17678241068895717]",4.0,"[-0.1775754896365676,-0.0817416901172655]",100.0,"[-0.10078093767918418,-0.010167827225323015]",100.0,"[0.0472519780290553,0.08418579078780136]",4.0,"[0.12973524658775415,-0.08881224986727433]",4.0,"[0.03687334405272887,0.006751548598139721]",4.0,"[0.1530211946814807,-0.03889266682261972]",100.0,"[0.18414551885820551,0.04029275087431711]",100.0,"[-0.10414072097571014,-0.08676363995541671]",4.0,"[0.08149950725733983,-0.08657621084020309]",4.0,"[-0.10541601127795261,-0.12679455195651407]",4.0,"[-0.00024229206242584817,-0.101352721146616]",4.0,"[0.0916688921179405,0.1726582005619723]",4.0,"[0.0465293523436914,-0.17760843314413888]",100.0,"[0.11276678749959863,-0.1388343100886473]",100.0,"[-0.041902451141532876,0.15170901250650834]",100.0,"[0.14578305811750053,0.006355156507116731]",100.0,"[-0.138319689970211,0.1320729181762597]",100.0,"[-0.05265611645078051,0.09978252909257436]",4.0,"[-0.013524424285653902,-0.15103746462151119]",100.0,"[-0.051239798540428684,-0.0592276826963827]",100.0,"[0.05755319159134794,0.14370555696319384]",4.0,"[-0.051231256992514324,-0.13428325322548854]",100.0,"[0.06795194507643511,-0.044071331364433225]",100.0,"[-0.12812827796249915,0.07249897336014705]",4.0,"[0.02,0.02]",167.3112,0.0,37.0,37.0,118.0,1.0,,,,,,,
,,,,,,,5a0c4184fe645f0001e9f5dd,6842bb1ff95b8e86f01fcd1d,2025-06-06_11h02.05.578,shape_ratio,2024.1.5,Win32,59.88023952,6842b561977af9ba9b0f87ca,,,,,,,,,,,167.3118,167.8109,,,168.0618,168.6113,left,,,,,,,,0.4,0.5376,,,,,,,167.8111,168.0617,168.6114,"[0.00043521122042265617,-0.16416292218215706]",100.0,"[0.07779480769660149,-0.0882312486836452]",4.0,"[-0.17376715352446304,0.027107555113387805]",4.0,"[-0.05116935794108308,-0.062327092665211394]",4.0,"[-0.027194265106770282,0.10898769827642762]",4.0,"[0.1531422133738024,0.11391443777446586]",4.0,"[0.17421262449091482,0.07713071847685443]",4.0,"[0.06935193908897798,0.13045890075033714]",100.0,"[-0.12874772185321473,-0.14086827038531002]",4.0,"[0.13885967014253917,0.0037008516716994524]",100.0,"[0.08587438326270495,0.060357860551230734]",100.0,"[0.036055238975322895,-0.06507876103369159]",4.0,"[0.033498079001641354,0.15018393817460438]",4.0,"[-0.17604131406178294,-0.06829126354655718]",100.0,"[0.13422244688301044,-0.0650426309479493]",100.0,"[0.033598754696558396,0.001108884526191316]",4.0,"[-0.09248962118537558,0.12862189389705728]",100.0,"[-0.062071868462847186,0.16782637700683986]",4.0,"[-0.00461209105845771,-0.049043736153796556]",4.0,"[-0.016309873304838785,0.016937931849220357]",4.0,"[-0.13076967589257268,0.05879370363916447]",100.0,"[-0.13925074265635445,0.1092202395640928]",4.0,"[0.014036341203753197,0.09926201870747717]",100.0,"[0.10803834737709188,-0.02336930691387751]",100.0,"[-0.06412583206883465,0.008607987112467767]",4.0,"[0.16582929594836998,-0.1080738557150051]",4.0,"[0.07012014375949212,0.017889352983230432]",100.0,"[0.12634724978222805,-0.14729938497832448]",100.0,"[-0.07869833889839237,0.055997593783109964]",4.0,"[-0.10759206731345657,-0.07572344999772362]",4.0,"[-0.049368958718804146,-0.15349148254354264]",4.0,"[-0.0956362450702864,-0.020918576977009825]",100.0,"[0.02,0.02]",169.7108,0.0,38.0,38.0,169.0,1.0,,,,,,,
,,,,,,,5a0c4184fe645f0001e9f5dd,6842bb1ff95b8e86f01fcd1d,2025-06-06_11h02.05.578,shape_ratio,2024.1.5,Win32,59.88023952,6842b561977af9ba9b0f87ca,,,,,,,,,,,169.7114,170.2111,,,170.4616,170.8779,right,,,,,,,,0.9,0.3981,,,,,,,170.2112,170.4616,170.8779,"[-0.040659778295491535,0.015003842036687011]",100.0,"[-0.16393550991855735,-0.011569067371565855]",100.0,"[0.06675552316939694,-0.12923366405340506]",100.0,"[0.11143593784620759,-0.15645338974187042]",100.0,"[0.06931851372556816,0.14624621297760118]",100.0,"[-0.0200824210215088,-0.1341568723785363]",100.0,"[-0.06435500967810333,-0.08289482578522207]",100.0,"[0.14197138567711468,0.0032799736988255567]",100.0,"[0.13483598536905453,-0.07092267724994884]",100.0,"[-0.11230846638204088,-0.022538309888213877]",100.0,"[0.005490857124805599,-0.1857253455093275]",4.0,"[-0.11035079956938323,-0.07428145280455299]",100.0,"[0.0278796371952451,0.10202389826474773]",4.0,"[0.15937746354834625,-0.1148503896723746]",100.0,"[-0.09249003166266605,0.028073618880045847]",100.0,"[-0.0994238211199704,0.11390683618576149]",100.0,"[-0.13761848999269063,0.13207336645405265]",100.0,"[0.08203375692715485,-0.0710013150545787]",100.0,"[-0.06151364345450421,0.13050162982608468]",100.0,"[0.17736299715240997,-0.04759664173424806]",100.0,"[0.039599315115965296,-0.08230216986628544]",100.0,"[-0.0878805485724811,-0.15868886184655556]",100.0,"[0.05991711483833162,-0.011905647201971748]",100.0,"[-0.1464037442634127,0.02534720356093128]",100.0,"[-0.15072828443619032,0.08140517993043958]",100.0,"[-0.05213399956361106,-0.19171262141571196]",100.0,"[0.05187343871453307,0.052467120257699174]",100.0,"[0.014623442559416855,-0.037827579567010904]",100.0,"[-0.05919502211699463,-0.02212014130179556]",100.0,"[0.00827167454513421,0.15088694636787356]",4.0,"[-0.0455929348890941,0.1877221975343111]",100.0,"[0.10723117976269732,0.16871231060313596]",100.0,"[0.02,0.02]",171.9775,0.0,39.0,39.0,4.0,1.0,,,,,,,
,,,,,,,5a0c4184fe645f0001e9f5dd,6842bb1ff95b8e86f01fcd1d,2025-06-06_11h02.05.578,shape_ratio,2024.1.5,Win32,59.88023952,6842b561977af9ba9b0f87ca,,,,,,,,,,,171.9781,172.4776,,,172.7281,173.1276,right,,,,,,,,0.9,0.3828,,,,,,,172.4776,172.728,173.1276,"[0.03871395812669506,0.14765988791031917]",100.0,"[0.11868182318475123,-0.033632512600216935]",100.0,"[-0.00874088359576723,0.004347460005992611]",100.0,"[-0.12243672968418157,-0.11100159830086138]",100.0,"[-0.0915084418320009,0.09283695096187215]",100.0,"[0.14616919582077026,0.1069952196779588]",100.0,"[-0.00792877539627871,-0.11217289785807803]",100.0,"[-0.12019919913222048,0.15300786581919923]",100.0,"[0.19875497541498519,0.00405860686213704]",100.0,"[0.15507881166707435,0.055716518742813165]",100.0,"[0.02400615359294,-0.07019309511365573]",100.0,"[-0.12913840877463112,-0.0692576281595739]",100.0,"[0.06805400634915981,-0.165261482062405]",100.0,"[0.14291290145421945,-0.0016256528592321702]",100.0,"[-0.07556261320673938,-0.05372901635392132]",100.0,"[0.09535198031686436,0.09109630039509593]",100.0,"[-0.08198894307524256,0.13710730033582402]",100.0,"[0.1726161720147689,-0.08597317313908746]",100.0,"[0.07705824033608936,-0.002403092810179891]",4.0,"[-0.04122705170158362,-0.0898182789119415]",100.0,"[-0.056279027995706166,-0.16092025715956593]",4.0,"[-0.154085449289937,0.028178947758607537]",100.0,"[0.08523209199742843,0.039240561793335405]",100.0,"[0.0428949569046804,0.03974897425131482]",4.0,"[0.11035891002283314,-0.10050316675181374]",100.0,"[-0.029099804729702757,0.13638603771042682]",100.0,"[-0.07199843596564848,0.011463846421256457]",100.0,"[-0.02006972153926903,-0.052038043822700525]",100.0,"[0.025910285374146167,0.18761586069755296]",100.0,"[-0.16930268946374205,-0.0985406469896945]",100.0,"[-0.18934544260261374,0.05002197596103649]",100.0,"[-0.18372864637950145,-0.037906220031921685]",100.0,"[0.02,0.02]",174.2276,0.0,40.0,40.0,10.0,1.0,,,,,,,
,,,,,,,5a0c4184fe645f0001e9f5dd,6842bb1ff95b8e86f01fcd1d,2025-06-06_11h02.05.578,shape_ratio,2024.1.5,Win32,59.88023952,6842b561977af9ba9b0f87ca,,,,,,,,,,,174.2281,174.7272,,,174.9782,175.8609,left,,,,,,,,0.4,0.868,,,,,,,174.7272,174.9782,175.8609,"[-0.11014323832963387,0.10997632620117832]",100.0,"[-0.0003062055268918773,-0.17955194480024034]",4.0,"[0.0846434133927992,-0.017188229424133394]",4.0,"[0.049821836198871865,-0.06612729570411527]",4.0,"[-0.16814040387237283,-0.09706433411357333]",100.0,"[0.10490972808233698,-0.07380983979680242]",4.0,"[0.02688582306979237,0.17696068563156253]",4.0,"[0.01773256555342022,0.07877159196436714]",100.0,"[-0.1496931594732777,0.06981735179095822]",4.0,"[0.11870257573165063,-0.15901886051348726]",4.0,"[0.15531504558846387,-0.013934864600450349]",100.0,"[-0.0761139877711182,-0.05807234715255442]",4.0,"[-0.041958340114478875,0.1468947495469673]",100.0,"[-0.034228750993592245,0.012179895545221952]",100.0,"[-0.00135445671890171,-0.0989440126345009]",100.0,"[-0.16256039784738063,0.01915046365840399]",4.0,"[-0.0910077347885062,-0.1751324200838782]",100.0,"[0.026330500107735945,-0.0056761771426361626]",4.0,"[0.04036416978832713,-0.1651581775532511]",4.0,"[-0.0802620916797746,0.030721480474999795]",100.0,"[0.09021449664615849,0.052337890406627154]",4.0,"[-0.19833767393073432,-0.0013121440326183868]",4.0,"[-0.09901846005951999,-0.11020043088888003]",100.0,"[-0.02610649472084993,0.09379520326995251]",100.0,"[0.17979016148178134,-0.06354747496530466]",4.0,"[0.18843234619633067,0.04963733756727987]",4.0,"[-0.13818972906348326,-0.1399703583365351]",4.0,"[0.08935034223563494,0.16062991168049232]",100.0,"[0.14486144457878203,0.06638175227188456]",4.0,"[-0.01321927319665797,0.1916867924152687]",4.0,"[-0.12373448327709116,-0.021889858866096623]",100.0,"[-0.05626813773373104,-0.02156279693558668]",4.0,"[0.02,0.02]",176.9609,0.0,41.0,41.0,165.0,1.0,,,,,,,
,,,,,,,5a0c4184fe645f0001e9f5dd,6842bb1ff95b8e86f01fcd1d,2025-06-06_11h02.05.578,shape_ratio,2024.1.5,Win32,59.88023952,6842b561977af9ba9b0f87ca,,,,,,,,,,,176.9615,177.4609,,,177.7114,178.3105,left,,,,,,,,0.55,0.5807,,,,,,,177.4609,177.7114,178.3105,"[-0.0811970937162409,0.13544634182360826]",100.0,"[0.008067519930758472,0.12669268648267762]",100.0,"[0.06304683017521537,0.1398109485408348]",4.0,"[0.13545657692869278,-0.026675061327343378]",100.0,"[0.024546025818174798,0.0288256022543432]",100.0,"[0.06861070075593514,-0.13880436013821493]",4.0,"[-0.1130343695877578,0.05636691128995863]",100.0,"[-0.012820554981908965,0.17179984836896287]",4.0,"[0.11429079157345885,-0.1601611378780787]",100.0,"[-0.056309419927731155,-0.04029752679431801]",4.0,"[0.013829072547992158,-0.12486636209594289]",100.0,"[-0.04298441718852162,0.06285638592699885]",100.0,"[0.17844267047757026,-0.08790355932880521]",100.0,"[-0.13804005877931785,-0.007183334739446748]",100.0,"[-0.18572752401272155,0.0054593558055545]",4.0,"[0.14769315422438,0.07199462350832199]",4.0,"[0.03427931289339297,-0.061750855375711095]",4.0,"[-0.036784285381237736,-0.0026589527015651857]",100.0,"[-0.08889098390199801,-0.10580942014201154]",100.0,"[-0.15346342799224583,0.11875753307874386]",100.0,"[0.05728740089301846,0.0038532950437677555]",100.0,"[0.08817558998854247,0.1744564609189165]",4.0,"[-0.11255776311369482,0.09944856657926314]",4.0,"[-0.04898595185156122,-0.1348281242897921]",100.0,"[0.11157407963336965,-0.0740904782166001]",100.0,"[-0.10758608507204136,-0.14749524265730474]",4.0,"[-0.13469543399136588,-0.06706066424547662]",4.0,"[0.07725148187830068,0.10173292824957712]",100.0,"[-0.037463282737071515,-0.17516040527694798]",100.0,"[-0.0819048104403432,-0.17858714291959807]",4.0,"[0.006499720655451594,-0.01926523208187504]",4.0,"[-0.043075882127413735,-0.09055998940170883]",4.0,"[0.02,0.02]",179.4105,0.0,42.0,42.0,81.0,1.0,,,,,,,
,,,,,,,5a0c4184fe645f0001e9f5dd,6842bb1ff95b8e86f01fcd1d,2025-06-06_11h02.05.578,shape_ratio,2024.1.5,Win32,59.88023952,6842b561977af9ba9b0f87ca,,,,,,,,,,,179.4114,179.9108,,,180.161,180.561,left,,,,,,,,0.4,0.3821,,,,,,,179.911,180.161,180.5612,"[-0.14059621194566296,-0.09738683822187703]",100.0,"[0.0807974595733143,-0.14078855699463017]",100.0,"[0.06693965871028408,-0.08186770549141094]",4.0,"[0.009126276170692536,-0.08344310102078879]",4.0,"[0.00393045888686164,-0.1419936419367631]",4.0,"[0.190675046828536,-0.0028884580789751415]",4.0,"[-0.08168745029554528,-0.07997057564336936]",4.0,"[-0.04463142400821379,-0.04211777684734305]",4.0,"[-0.017949307825714505,0.013989572472439059]",4.0,"[0.0482605976854206,0.047682998269358894]",100.0,"[-0.10033578959545615,0.04377213462266891]",100.0,"[0.052217435287401436,-0.18277159151570435]",100.0,"[0.1261161732394067,-0.12171472633091782]",100.0,"[-0.11073217092625712,0.14213135261046042]",100.0,"[0.03827667513754186,-0.005276178073903648]",4.0,"[0.01522943318886059,0.11379195212493634]",100.0,"[0.0873302702790266,-0.0238610633021931]",100.0,"[0.11745129844646243,0.0075437477578372495]",100.0,"[0.07165814136527038,0.1675721954745677]",4.0,"[0.11191205099488881,0.12737825011701862]",100.0,"[0.14002269934792191,0.05343159163979419]",4.0,"[-0.10380256817057693,-0.11363571875382733]",4.0,"[-0.055031617235001225,0.14311670550755123]",4.0,"[-0.03719014114282727,0.0626503524842723]",4.0,"[-0.08652850276470161,0.17917587546173816]",4.0,"[-0.17713555135101658,0.016035831289627253]",4.0,"[0.011699694115224202,-0.04027539306310345]",4.0,"[-0.1604868513297806,0.0937225633152414]",100.0,"[0.15192724565914137,-0.022548352965897564]",4.0,"[0.08152465754092914,0.07573404558237072]",4.0,"[-0.0879432097908097,0.0854102439419566]",4.0,"[-0.15312698101361008,-0.03886985828852259]",100.0,"[0.02,0.02]",181.661,0.0,43.0,43.0,171.0,1.0,,,,,,,
,,,,,,,5a0c4184fe645f0001e9f5dd,6842bb1ff95b8e86f01fcd1d,2025-06-06_11h02.05.578,shape_ratio,2024.1.5,Win32,59.88023952,6842b561977af9ba9b0f87ca,,,,,,,,,,,181.6616,182.1608,,,182.4112,182.7472,left,,,,,,,,0.1,0.3236,,,,,,,182.1608,182.4111,182.7472,"[-0.08344268793740522,0.15712895807045296]",4.0,"[0.07615794855107089,0.06879450465936726]",4.0,"[-0.16523165131037398,0.10520199472660707]",100.0,"[0.03339991469308974,-0.0482401538255438]",4.0,"[0.13227793895733456,-0.09093342700356367]",4.0,"[-0.1610276464003483,-0.012991423349313542]",4.0,"[-0.13636233274552798,-0.08951169704302506]",4.0,"[-0.10358027288812871,-0.02290884579260121]",4.0,"[0.039078452892112474,0.1633068051778597]",4.0,"[-0.08919087227025624,-0.07267344182118339]",4.0,"[-0.10701858197886234,0.07183148583137483]",4.0,"[-0.026527150090518016,0.18451136577151336]",4.0,"[0.06190949622558689,0.006520144475074385]",4.0,"[-0.016778183610513225,-0.19928402895021158]",4.0,"[-0.033171292029057615,-0.11696390720501836]",100.0,"[0.15742117523811006,0.04287046101990749]",4.0,"[0.1782860430199946,-0.08646845333720252]",4.0,"[0.15262755796879046,0.09988910291802927]",4.0,"[0.04884259993047402,-0.13283096674543773]",4.0,"[0.008553599856638503,-0.09163822020869802]",4.0,"[0.13704937021478242,0.008266893388478741]",4.0,"[-0.07455788126518863,0.10038051357863234]",4.0,"[-0.06155102978968648,-0.01651747759462143]",4.0,"[0.025734204110629,0.07509251274692048]",4.0,"[0.186121156399441,-0.006516696295494701]",4.0,"[0.0963029828807701,-0.14693379406508722]",4.0,"[-0.14007717503779693,0.03949123673596209]",4.0,"[-0.12163609211395783,0.13743967130239168]",4.0,"[0.09336898891380811,0.173446482396465]",4.0,"[0.09123214487341647,-0.02208052401312316]",4.0,"[0.06901181843845913,0.12703876723413518]",4.0,"[-0.08575404766430066,-0.17339482468686654]",100.0,"[0.02,0.02]",183.844,0.0,44.0,44.0,199.0,1.0,,,,,,,
,,,,,,,5a0c4184fe645f0001e9f5dd,6842bb1ff95b8e86f01fcd1d,2025-06-06_11h02.05.578,shape_ratio,2024.1.5,Win32,59.88023952,6842b561977af9ba9b0f87ca,,,,,,,,,,,183.8446,184.344,,,184.5944,184.8939,left,,,,,,,,0.1,0.2794,,,,,,,184.3441,184.5944,184.894,"[0.04832763737575877,0.012410034706151806]",4.0,"[-0.1234828035658021,0.040576757186174296]",4.0,"[0.11392257384297047,0.05619532196358343]",4.0,"[-0.11365350773823288,-0.016188237849352242]",4.0,"[0.1279831986722881,0.13695806286065973]",100.0,"[0.14739817595474194,-0.04791799712659447]",4.0,"[-0.09539920357158828,0.10334523945175551]",4.0,"[0.04051226689883583,-0.1075286985302561]",4.0,"[-0.14379573915460256,0.12675554122774368]",4.0,"[-0.06616536957516132,-0.10375136540686546]",4.0,"[0.19290941807669898,0.034759428263010005]",4.0,"[-0.06790860344606202,0.019678176180386697]",4.0,"[-0.15226210757631584,-0.1287292877032003]",4.0,"[-0.012719416809774706,0.1273124154015642]",4.0,"[-0.05342798888626974,-0.03746824150256144]",4.0,"[-0.06370720980103367,-0.14677781832940426]",4.0,"[0.058720258524184214,-0.029403462325997644]",4.0,"[0.0774623595846327,-0.14899476827477126]",4.0,"[0.14304983858550538,0.024931813454021824]",4.0,"[0.043562307189233186,0.08041141267149308]",4.0,"[0.0057178345087934195,-0.06747430879941115]",4.0,"[0.02097414506378258,-0.14379808211501635]",4.0,"[-0.054562607366998375,0.0949204107590906]",4.0,"[0.0689743420139636,0.17413298693103127]",100.0,"[0.16007290744644587,-0.10793446937799031]",4.0,"[-0.002485142166963786,0.04092611532202414]",4.0,"[0.1267188062899628,-0.08315659869868465]",4.0,"[0.16646434544776317,0.08143599879127153]",4.0,"[-0.16437530398114975,0.05343149408361473]",100.0,"[-0.1268746606200212,-0.08773751098926859]",4.0,"[-0.08028735382306332,0.06271438712846379]",4.0,"[0.010815127369341005,-0.01220836842856386]",4.0,"[0.02,0.02]",185.9942,0.0,45.0,45.0,193.0,1.0,,,,,,,
,,,,,,,5a0c4184fe645f0001e9f5dd,6842bb1ff95b8e86f01fcd1d,2025-06-06_11h02.05.578,shape_ratio,2024.1.5,Win32,59.88023952,6842b561977af9ba9b0f87ca,,,,,,,,,,,185.9946,186.4941,,,186.7443,187.1276,right,,,,,,,,0.45,0.364,,,,,,,186.4941,186.7443,187.1276,"[-0.12812169352511205,0.11399519001055318]",4.0,"[0.013168696305327047,-0.1183262310733081]",4.0,"[-0.1797004930568754,0.02823406090674376]",4.0,"[-0.13172185013274745,-0.03598355929450684]",100.0,"[0.05463364549362324,0.10968562676923646]",4.0,"[-0.04995491606321058,-0.058176101900921574]",4.0,"[-0.0115978599811614,-0.15391751459331604]",100.0,"[0.08850316598541333,0.1437383546299188]",100.0,"[0.01776037576367127,-0.050100078072589295]",100.0,"[-0.018896543261363717,0.08901486247559959]",100.0,"[0.13698469294315457,0.1188229309899449]",4.0,"[-0.09172466852337974,0.13234049580903529]",4.0,"[0.18265555989079615,-0.005858850049908105]",100.0,"[0.01826195906039093,0.013770531425547712]",4.0,"[0.13432155895121228,0.0429298849719557]",4.0,"[0.1195351704512403,-0.05475584108628195]",100.0,"[-0.1538600574233846,0.07968542579059622]",4.0,"[-0.06633240677229991,-0.18611707582861853]",4.0,"[-0.022554964863798682,-0.007975927511826839]",100.0,"[0.10444690459200497,-0.10181239487030964]",100.0,"[-0.05583179878749388,0.04003944301051932]",100.0,"[-0.026860595595548483,0.15167823892996085]",4.0,"[0.07892560900144642,-0.16661986344924112]",100.0,"[0.0325465014755512,-0.19722538526544983]",4.0,"[0.10279597232093972,0.09108592865559344]",4.0,"[0.024443911625510916,0.08258256330509776]",4.0,"[-0.12585495953399314,0.034469082765436546]",4.0,"[-0.08616140451938631,0.003321823956983618]",100.0,"[-0.0017848841918448207,0.05185966242498648]",100.0,"[0.03531398257732496,0.18822211648705345]",4.0,"[-0.07266809469806312,-0.11535945764464842]",4.0,"[-0.10124604077133956,-0.07167963065055145]",100.0,"[0.02,0.02]",188.2272,0.0,46.0,46.0,131.0,1.0,,,,,,,
,,,,,,,5a0c4184fe645f0001e9f5dd,6842bb1ff95b8e86f01fcd1d,2025-06-06_11h02.05.578,shape_ratio,2024.1.5,Win32,59.88023952,6842b561977af9ba9b0f87ca,,,,,,,,,,,188.2279,188.7276,,,188.9784,189.594,right,,,,,,,,0.6,0.5982,,,,,,,188.7276,188.9783,189.5941,"[-0.058520665131293004,-0.05690106840473465]",100.0,"[0.11465494750245511,0.033965980563331964]",100.0,"[0.04216664334585519,0.11612736940690102]",4.0,"[-0.02273172652537225,0.043879994158438726]",4.0,"[0.1301580856059773,0.13899131096728573]",4.0,"[0.14010514132041776,0.09145585537537668]",100.0,"[-0.10095002879124357,0.06785509456446447]",4.0,"[0.18034597299549654,0.06269230914195788]",4.0,"[0.001711158881312542,-0.039645423143639585]",4.0,"[0.004879710298765657,-0.09754093082626657]",100.0,"[0.006712123546498477,0.09283326009847982]",100.0,"[-0.018406976737193024,0.16832308571530089]",100.0,"[-0.17496630447561645,-0.053811348373771925]",100.0,"[0.18837040709419695,-0.060360944114894365]",100.0,"[-0.12105945144867222,-0.11359435939231129]",100.0,"[0.08773114000705812,0.07052956605716047]",100.0,"[0.028800981147817338,0.019622677867460556]",4.0,"[0.08904572298079234,-0.06738026380290801]",100.0,"[-0.13282705471044765,-0.02131245874061046]",4.0,"[0.08405860689215953,-0.0011987365375852347]",100.0,"[0.19024041825594756,0.0012011644029368657]",100.0,"[0.06286704940328725,-0.09849571736258932]",4.0,"[0.07514543706852636,0.15113664904907917]",100.0,"[-0.09107691075758492,0.007514803542193389]",4.0,"[0.11929526195624764,-0.14289395685568843]",4.0,"[0.037332294994221214,-0.1781643433541987]",4.0,"[0.039992519144307806,0.18210471225796374]",4.0,"[-0.05985586014231476,-0.14423987919834944]",100.0,"[-0.12608301824360044,0.1326467615024891]",100.0,"[0.08522715582868917,0.11147751261750899]",100.0,"[-0.1278365831565258,0.02521512969275209]",100.0,"[-0.1927534205178382,-0.0013745208841179116]",100.0,"[0.02,0.02]",190.6938,0.0,47.0,47.0,45.0,1.0,,,,,,,
,,,,,,,5a0c4184fe645f0001e9f5dd,6842bb1ff95b8e86f01fcd1d,2025-06-06_11h02.05.578,shape_ratio,2024.1.5,Win32,59.88023952,6842b561977af9ba9b0f87ca,,,,,,,,,,,190.6945,191.1941,,,191.4442,191.827,right,,,,,,,,0.6,0.3691,,,,,,,191.1941,191.444,191.8272,"[-0.12511328548013861,-0.07528777905441242]",100.0,"[-0.13785613555911433,0.12231863887533378]",100.0,"[0.04808413537195445,-0.01683126023663089]",4.0,"[-0.04441882085998791,0.11357083926677594]",100.0,"[-0.09726451572365166,-0.14706974662078326]",4.0,"[0.16168106416078407,-0.02628710484510492]",100.0,"[-0.004102526551833463,0.060678945421607657]",100.0,"[-0.016668101787483784,0.01506030396499242]",4.0,"[0.03803213202059685,0.10273224182078305]",100.0,"[0.08708961427018218,-0.0016398916451867095]",100.0,"[0.08601169217135111,0.1786418951668629]",4.0,"[-0.1643138812846153,-0.02291406633466274]",100.0,"[-0.17910987586331928,0.018091128102452197]",4.0,"[0.07045642423081734,-0.13754508113251995]",100.0,"[-0.08204740669223799,0.0009165970355369931]",100.0,"[-0.13584898718715885,0.02430416765376645]",100.0,"[0.1214575760675631,0.11848500636124716]",4.0,"[0.11145017630603295,-0.0941624772813908]",100.0,"[-0.03965644004554646,-0.13115182041340054]",4.0,"[0.0802473265653355,0.12129706822782829]",4.0,"[0.05270464353406645,0.023039131042988846]",100.0,"[-0.0022007031058321196,-0.03714833438367801]",100.0,"[-0.04774011144932023,0.06920930580786651]",100.0,"[-0.006828608013514795,-0.17861822979897268]",4.0,"[0.03262576682054085,0.15606688199970156]",100.0,"[-0.07508055641715074,-0.07962394231539306]",100.0,"[-0.006159850934174346,0.17254585268115077]",100.0,"[0.003841837150674479,-0.10438880325125853]",4.0,"[-0.09434742698599932,0.06741614510590095]",4.0,"[0.14279056037524054,0.07891619525384375]",4.0,"[0.11944903428247139,-0.052194628849601174]",4.0,"[0.0647290930374109,0.06524567146056334]",100.0,"[0.02,0.02]",192.9274,0.0,48.0,48.0,43.0,1.0,,,,,,,
,,,,,,,5a0c4184fe645f0001e9f5dd,6842bb1ff95b8e86f01fcd1d,2025-06-06_11h02.05.578,shape_ratio,2024.1.5,Win32,59.88023952,6842b561977af9ba9b0f87ca,,,,,,,,,,,192.9279,193.4273,,,193.6774,194.0941,left,,,,,,,,0.1,0.3988,,,,,,,193.4273,193.6772,194.0942,"[-0.12476275703566429,-0.06710582194917468]",4.0,"[0.14112841934450288,-0.015927634729367205]",4.0,"[-0.16007370815458474,0.05464463096015435]",4.0,"[0.03857803192744744,0.17102023153785847]",4.0,"[-0.07631041083650264,0.09993626956642158]",4.0,"[-0.014061343620722184,0.13740697822119094]",4.0,"[0.12212149873488752,0.03023809162921146]",4.0,"[-0.06766869724691182,-0.03157053857550164]",4.0,"[-0.10875129410337801,0.0708677923058808]",4.0,"[-0.022059357060173496,-0.05433021338943865]",4.0,"[0.09630890235314883,0.08132963348344155]",4.0,"[-0.16841239731207167,-0.04522981511123166]",4.0,"[0.1417678864063755,0.07696956931443637]",4.0,"[0.08407563007955063,-0.027788329357766303]",100.0,"[-0.10590101226113505,0.16222425843739197]",100.0,"[-0.08440956904658968,-0.07761550544952169]",4.0,"[-0.07237287784466903,-0.16662116791598192]",4.0,"[0.06129880195908019,-0.07897249538959618]",4.0,"[0.11322718414030346,0.1591104972241999]",4.0,"[0.13776926759058908,-0.07427084202633881]",4.0,"[0.03772494217111416,0.009780225635696669]",4.0,"[-0.04397164987705269,0.17283788162476693]",4.0,"[-0.14291725515646603,0.12235848610871246]",4.0,"[-0.0033554425875634924,-0.0064731161403481915]",100.0,"[0.08015886172179928,0.023866157853077864]",4.0,"[-0.12257323336335745,-0.012456947330921384]",4.0,"[0.023070832902181787,-0.15365131447764183]",4.0,"[-0.19872583338278305,0.01123479535720202]",4.0,"[-0.16373014981646897,-0.09996537849634538]",4.0,"[-0.025463518442244416,-0.16482792325782686]",4.0,"[0.06068744108716339,-0.17324996458741623]",4.0,"[-0.04671889497786382,-0.09481273782809493]",4.0,"[0.02,0.02]",195.1936,0.0,49.0,49.0,181.0,1.0,,,,,,,
