right,left,explain.started,explain.stopped,key_resp_3.keys,key_resp_3.rt,key_resp_3.duration,participant,session,date,expName,psychopyVersion,OS,frameRate,study_id,explain_2.started,explain_2.stopped,key_resp_4.keys,key_resp_4.rt,key_resp_4.duration,explain_3.started,explain_3.stopped,key_resp_5.keys,key_resp_5.rt,key_resp_5.duration,fixation.started,fixation.stopped,practice.started,practice.stopped,response.started,response.stopped,key_resp.keys,feedback.started,feedback.stopped,trials_2.thisRepN,trials_2.thisTrialN,trials_2.thisN,trials_2.thisIndex,trials_2.ran,dot_ratio,key_resp.rt,key_resp.duration,explain_4.started,explain_4.stopped,key_resp_6.keys,key_resp_6.rt,key_resp_6.duration,dotDisplay.started,dotDisplay.stopped,ITI.started,polygon_1.pos,polygon_1.edges,polygon_2.pos,polygon_2.edges,polygon_3.pos,polygon_3.edges,polygon_4.pos,polygon_4.edges,polygon_5.pos,polygon_5.edges,polygon_6.pos,polygon_6.edges,polygon_7.pos,polygon_7.edges,polygon_8.pos,polygon_8.edges,polygon_9.pos,polygon_9.edges,polygon_10.pos,polygon_10.edges,polygon_11.pos,polygon_11.edges,polygon_12.pos,polygon_12.edges,polygon_13.pos,polygon_13.edges,polygon_14.pos,polygon_14.edges,polygon_15.pos,polygon_15.edges,polygon_16.pos,polygon_16.edges,polygon_17.pos,polygon_17.edges,polygon_18.pos,polygon_18.edges,polygon_19.pos,polygon_19.edges,polygon_20.pos,polygon_20.edges,polygon_21.pos,polygon_21.edges,polygon_22.pos,polygon_22.edges,polygon_23.pos,polygon_23.edges,polygon_24.pos,polygon_24.edges,polygon_25.pos,polygon_25.edges,polygon_26.pos,polygon_26.edges,polygon_27.pos,polygon_27.edges,polygon_28.pos,polygon_28.edges,polygon_29.pos,polygon_29.edges,polygon_30.pos,polygon_30.edges,polygon_31.pos,polygon_31.edges,polygon_32.pos,polygon_32.edges,dot_size,ITI.stopped,trials.thisRepN,trials.thisTrialN,trials.thisN,trials.thisIndex,trials.ran,break_2.started,break_2.stopped,trials_3.thisRepN,trials_3.thisTrialN,trials_3.thisN,trials_3.thisIndex,trials_3.ran
subject chose dot,subject chose diamond,0.0002,20.804,space,5.7903,,5a1d44eeab721b0001ef9566,6842bbd6679d2d9fbd464d4a,2025-06-06_11h58.55.530,shape_ratio,2024.1.5,Win32,120.4819277,6842b561977af9ba9b0f87ca,,,,,,,,,,,,,,,,,,,,,,,,,,,,,,,,,,,,,,,,,,,,,,,,,,,,,,,,,,,,,,,,,,,,,,,,,,,,,,,,,,,,,,,,,,,,,,,,,,,,,,,,,,,,,,,,,
,,,,,,,5a1d44eeab721b0001ef9566,6842bbd6679d2d9fbd464d4a,2025-06-06_11h58.55.530,shape_ratio,2024.1.5,Win32,120.4819277,6842b561977af9ba9b0f87ca,20.8041,52.7043,space,1.8938,,,,,,,,,,,,,,,,,,,,,,,,,,,,,,,,,,,,,,,,,,,,,,,,,,,,,,,,,,,,,,,,,,,,,,,,,,,,,,,,,,,,,,,,,,,,,,,,,,,,,,,,,,,,,
,,,,,,,5a1d44eeab721b0001ef9566,6842bbd6679d2d9fbd464d4a,2025-06-06_11h58.55.530,shape_ratio,2024.1.5,Win32,120.4819277,6842b561977af9ba9b0f87ca,,,,,,52.7043,57.5376,space,1.81,,,,,,,,,,,,,,,,,,,,,,,,,,,,,,,,,,,,,,,,,,,,,,,,,,,,,,,,,,,,,,,,,,,,,,,,,,,,,,,,,,,,,,,,,,,,,,,,,,,,,,,,
,,,,,,,5a1d44eeab721b0001ef9566,6842bbd6679d2d9fbd464d4a,2025-06-06_11h58.55.530,shape_ratio,2024.1.5,Win32,120.4819277,6842b561977af9ba9b0f87ca,,,,,,,,,,,57.5461,58.0375,58.0377,58.2876,58.2877,59.7878,,59.7879,60.8876,0.0,0.0,0.0,0.0,1.0,0.2,,,,,,,,,,,,,,,,,,,,,,,,,,,,,,,,,,,,,,,,,,,,,,,,,,,,,,,,,,,,,,,,,,,,,,,,,,,,,,,,,,,,,,,,
,,,,,,,5a1d44eeab721b0001ef9566,6842bbd6679d2d9fbd464d4a,2025-06-06_11h58.55.530,shape_ratio,2024.1.5,Win32,120.4819277,6842b561977af9ba9b0f87ca,,,,,,,,,,,60.8878,61.3874,61.3875,61.6377,61.6377,62.0878,right,62.0878,63.1875,0.0,1.0,1.0,1.0,1.0,0.8,0.4198,,,,,,,,,,,,,,,,,,,,,,,,,,,,,,,,,,,,,,,,,,,,,,,,,,,,,,,,,,,,,,,,,,,,,,,,,,,,,,,,,,,,,,,
,,,,,,,5a1d44eeab721b0001ef9566,6842bbd6679d2d9fbd464d4a,2025-06-06_11h58.55.530,shape_ratio,2024.1.5,Win32,120.4819277,6842b561977af9ba9b0f87ca,,,,,,,,,,,,,,,,,,,,,,,,,,,,63.1877,67.9877,space,1.799,,,,,,,,,,,,,,,,,,,,,,,,,,,,,,,,,,,,,,,,,,,,,,,,,,,,,,,,,,,,,,,,,,,,,,,,,,,,,,,,,,
,,,,,,,5a1d44eeab721b0001ef9566,6842bbd6679d2d9fbd464d4a,2025-06-06_11h58.55.530,shape_ratio,2024.1.5,Win32,120.4819277,6842b561977af9ba9b0f87ca,,,,,,,,,,,67.993,68.4876,,,68.7378,69.2376,left,,,,,,,,0.6,0.4798,,,,,,,68.4878,68.7378,69.2378,"[0.09571575354797089,0.15888872010335103]",100.0,"[-0.03663613762474313,-0.02241682904620454]",100.0,"[0.12762537543482264,-0.1284744620275096]",4.0,"[0.07137044549935737,-0.04487425995996991]",100.0,"[0.037696917459865996,0.03568981616576042]",4.0,"[0.029872934661451224,-0.16771853949094467]",4.0,"[-0.12671374331829924,0.13410927393406538]",100.0,"[0.12006673911065932,0.07089316031966755]",4.0,"[-0.13956372587949198,0.055957511266848836]",4.0,"[-0.06407626871059721,0.14252223735877861]",100.0,"[-0.07606514444790695,-0.18195340349092942]",4.0,"[-0.03347365938930249,-0.074362102255664]",100.0,"[-0.016103861719153095,0.19849665142462158]",100.0,"[-0.09887511755448626,-0.06723047392033181]",100.0,"[0.16704927560784857,-0.020567509447518575]",100.0,"[-0.10724458906232308,-0.135370376295406]",100.0,"[-0.04459468820039788,0.045027542572557935]",100.0,"[0.08596425199714602,0.0212932012040634]",4.0,"[-0.15364368826782962,-0.12370775021374981]",100.0,"[-0.10873668682294672,-0.02766547382034026]",100.0,"[0.014403996623101238,-0.020837768057242346]",4.0,"[0.018274406551811822,0.0946218184251242]",4.0,"[0.16883807964859393,0.08460446807063673]",4.0,"[-0.08238045146348255,0.09723780569157899]",100.0,"[0.019437900613232098,-0.08784916325299238]",4.0,"[-0.1773133371507676,-0.0012003992930848808]",100.0,"[-0.0177924147329967,-0.14114608023048414]",100.0,"[0.07518509615412812,0.07245792328922972]",100.0,"[0.08603605262874084,-0.10979283339595929]",100.0,"[0.03738159205985924,0.16878403995040894]",4.0,"[0.13780684579525085,-0.0480435125813789]",4.0,"[0.13556529083898738,0.1405872805795709]",100.0,"[0.02,0.02]",70.3377,0.0,0.0,0.0,39.0,1.0,,,,,,,
,,,,,,,5a1d44eeab721b0001ef9566,6842bbd6679d2d9fbd464d4a,2025-06-06_11h58.55.530,shape_ratio,2024.1.5,Win32,120.4819277,6842b561977af9ba9b0f87ca,,,,,,,,,,,70.3379,70.8376,,,71.0877,71.5377,right,,,,,,,,0.5,0.4422,,,,,,,70.8376,71.0877,71.5377,"[-0.062487267411052816,0.10656831910626391]",100.0,"[-0.1411251021174255,0.023305602234854762]",100.0,"[0.1132418683752438,-0.03476490299180375]",4.0,"[-0.07884580203190243,-0.15396377160884106]",100.0,"[-0.10563299622776454,-0.06271520055748747]",4.0,"[0.06509650102116214,-0.10625410652007515]",4.0,"[-0.13528081574012088,-0.11390544074915808]",100.0,"[-0.049533539934625684,0.15034860320270188]",4.0,"[0.13354668698079283,-0.13950665536445944]",100.0,"[-0.07373316211088157,0.03388353945528904]",100.0,"[0.1408758997647391,0.07883518193318079]",100.0,"[-0.1318859203312449,0.10819882067165384]",4.0,"[0.013596027258921142,0.04838234291823383]",4.0,"[0.09539584647511885,0.09330986815112675]",4.0,"[0.14020779524077404,0.010587928823596686]",4.0,"[-0.1865047648531329,0.02651743709082019]",100.0,"[-0.09464728619930357,-0.110161088316214]",4.0,"[-0.1664016939574182,-0.04289238849222397]",4.0,"[-0.04858949008750267,-0.18053623755737921]",100.0,"[0.027370416039259785,-0.14610296908595194]",100.0,"[-0.0005673518110474932,-0.09186069255179857]",100.0,"[0.04237754684271857,0.15524810800821084]",100.0,"[0.10013093732531513,0.03558888935176016]",4.0,"[-0.1968881800299553,-0.012397654093516676]",100.0,"[0.01068760439606666,-0.012292504958078912]",4.0,"[0.0052758081550377915,0.09854640897927967]",100.0,"[0.08335965774576291,-0.1460969545341319]",4.0,"[-0.04755440125850039,-0.04630444587798045]",100.0,"[-0.05741904084032695,-0.09217125803994826]",100.0,"[0.1576152901776319,-0.055488163722120835]",4.0,"[0.19012314385990858,0.042685017911032797]",4.0,"[0.09471632244735172,0.14371252985681865]",4.0,"[0.02,0.02]",72.6377,0.0,1.0,1.0,119.0,1.0,,,,,,,
,,,,,,,5a1d44eeab721b0001ef9566,6842bbd6679d2d9fbd464d4a,2025-06-06_11h58.55.530,shape_ratio,2024.1.5,Win32,120.4819277,6842b561977af9ba9b0f87ca,,,,,,,,,,,72.6378,73.1376,,,73.3878,73.9543,right,,,,,,,,0.9,0.566,,,,,,,73.1376,73.3878,73.9544,"[0.16394310393846445,-0.02708988653508253]",100.0,"[-0.030700948605250442,0.08603279497059627]",100.0,"[0.11555935625268703,0.11887582716415089]",100.0,"[0.07744542742432742,0.059716221164711675]",100.0,"[0.02322647958173216,-0.11189272545598211]",100.0,"[0.19845338802036339,0.021116678943673504]",100.0,"[-0.0010661419767685574,0.0532664620574026]",100.0,"[-0.10258397284744421,-0.055164041584265945]",100.0,"[0.11879101640639171,0.040173913444700934]",4.0,"[-0.011287158701763113,0.1352484134729866]",4.0,"[-0.16021141486005583,-0.028659764908641108]",100.0,"[0.04547877067523946,0.17236517699639184]",100.0,"[0.05921234240331626,-0.03127505248104462]",100.0,"[0.0676413494053029,-0.10991606177697792]",4.0,"[-0.0727099407827602,0.13850278768492488]",100.0,"[0.14093699798547568,-0.06681655664005161]",100.0,"[-0.11397418357734468,0.03324993302712711]",100.0,"[0.1212661194966158,-0.13236380893004768]",100.0,"[-0.0038120740410901954,-0.04808582247145378]",100.0,"[-0.021822817712758763,-0.005063995204193198]",100.0,"[0.035893255444699006,0.11753969743224879]",100.0,"[-0.03775117086181327,0.17617055962801684]",100.0,"[-0.12593985495556304,0.07538197949672287]",100.0,"[-0.11398211091446371,0.12568199876861463]",100.0,"[0.07963819059691957,0.13717738110727612]",100.0,"[0.05845666202097081,-0.15457305107174474]",100.0,"[-0.09278329788216488,-0.154838688245019]",100.0,"[-0.17623409991442512,0.06497771459769915]",100.0,"[0.028822399541714325,-0.0037363804868013805]",100.0,"[-0.17075057051277792,-0.08747188837912237]",100.0,"[-0.09243959643090009,-0.09720061217505305]",100.0,"[0.17764119463297154,0.08259345347896405]",100.0,"[0.02,0.02]",75.0543,0.0,2.0,2.0,11.0,1.0,,,,,,,
,,,,,,,5a1d44eeab721b0001ef9566,6842bbd6679d2d9fbd464d4a,2025-06-06_11h58.55.530,shape_ratio,2024.1.5,Win32,120.4819277,6842b561977af9ba9b0f87ca,,,,,,,,,,,75.0545,75.5543,,,75.8044,76.321,left,,,,,,,,0.55,0.5009,,,,,,,75.5544,75.8044,76.3211,"[-0.011638629874282127,-0.16242976115525995]",100.0,"[0.11252715784638805,0.031166854315731445]",100.0,"[0.10749369791170182,-0.09139704215935884]",100.0,"[-0.16324953316255245,-0.0877229629531987]",4.0,"[-0.11344070721042618,-0.03410841953503608]",100.0,"[0.10500147684106938,-0.1340901980522405]",4.0,"[-0.17239798044775154,0.006075542198332064]",100.0,"[0.1432468203247023,0.06135550821286414]",4.0,"[0.06134161064425098,-0.014167086980534892]",100.0,"[0.0048194128672818136,0.14943283265117213]",100.0,"[0.025400770533900174,0.015199596602525078]",100.0,"[-0.06320731090346042,-0.0032721321960364584]",100.0,"[-0.0385433241579667,-0.10205013495162585]",100.0,"[-0.022053006980981643,-0.011316781106394756]",100.0,"[0.11620522207841806,0.12942450444037754]",4.0,"[0.030572620876721645,0.09577869348031536]",100.0,"[-0.04289538023238889,0.03237621736559679]",4.0,"[0.06061882386311977,-0.17453855548986003]",100.0,"[-0.09750032070918975,0.14666415926157247]",4.0,"[0.018507785888257383,-0.05373655681339796]",4.0,"[0.17508207522024247,-0.07346911434792112]",4.0,"[-0.06764110926867921,-0.1846883687816867]",4.0,"[-0.019801186488224896,0.10800809329934041]",4.0,"[-0.15823383878764363,0.07262245702737853]",4.0,"[-0.18273986335172265,-0.0481338098200166]",4.0,"[0.1679631631980259,0.006921903431890403]",100.0,"[0.06668561289474856,0.06596369257524867]",4.0,"[0.05275670929021391,-0.1169019340397436]",4.0,"[-0.09283196112321133,-0.12341432607189509]",100.0,"[-0.14804745041309483,0.1325556502306465]",100.0,"[0.044491162418838805,0.18753556682416322]",100.0,"[0.054036378419568806,0.1393631477847234]",100.0,"[0.02,0.02]",77.421,0.0,3.0,3.0,72.0,1.0,,,,,,,
,,,,,,,5a1d44eeab721b0001ef9566,6842bbd6679d2d9fbd464d4a,2025-06-06_11h58.55.530,shape_ratio,2024.1.5,Win32,120.4819277,6842b561977af9ba9b0f87ca,,,,,,,,,,,77.4212,77.921,,,78.1713,78.8544,left,,,,,,,,0.45,0.663,,,,,,,77.921,78.1713,78.8544,"[-0.1404722890251266,-0.10523828295870052]",100.0,"[-0.17527243821792401,-0.011549474294336145]",100.0,"[0.01851662637720399,0.02130632048445382]",4.0,"[-0.03400646076201783,-0.020607020230654277]",4.0,"[0.08779171906418526,0.12747747106808952]",100.0,"[0.06372125326095761,-0.15664419757982165]",100.0,"[-0.11991313668333344,0.07824604557569886]",4.0,"[0.14994073475966568,0.047202851706790123]",100.0,"[-0.05657670202963135,-0.1783218240245474]",4.0,"[-0.09267685573173337,0.10791398199596397]",100.0,"[0.0350483522354208,0.12652864876461786]",4.0,"[-0.09614436584517853,0.021340941081766367]",4.0,"[0.042230746025615586,0.07312936540533613]",100.0,"[0.13124100255558205,0.101211053605508]",4.0,"[-0.048798569082414554,0.0501319194026809]",4.0,"[0.1684093680771081,-0.04429245060751141]",4.0,"[0.15712343201140203,-0.08301673367078086]",100.0,"[-0.09257328786202387,-0.08297051451394083]",4.0,"[-0.12118089418140321,-0.009982569195576328]",4.0,"[0.021940125360232036,0.18268582285559154]",4.0,"[-0.03936028368319631,0.17398605438403286]",100.0,"[0.09675730599717092,-0.13381481140343526]",4.0,"[0.047143256318284005,-0.01754199226598973]",100.0,"[0.004841696449039792,-0.19721656666392462]",4.0,"[0.1638181071884846,0.005447095186579049]",100.0,"[0.08449012836304942,0.06715476976393246]",100.0,"[0.024009967842375014,-0.0888876830967403]",4.0,"[-0.03440498293827553,-0.13094077240416307]",100.0,"[-0.060254890564854564,0.13478101936385217]",4.0,"[0.07760487091659768,-0.04902693121611109]",4.0,"[0.12399377318774915,0.1480797245423899]",4.0,"[-0.02290593134979016,-0.07635721493543868]",100.0,"[0.02,0.02]",79.9544,0.0,4.0,4.0,142.0,1.0,,,,,,,
,,,,,,,5a1d44eeab721b0001ef9566,6842bbd6679d2d9fbd464d4a,2025-06-06_11h58.55.530,shape_ratio,2024.1.5,Win32,120.4819277,6842b561977af9ba9b0f87ca,,,,,,,,,,,79.9545,80.4547,,,80.7045,81.3044,right,,,,,,,,0.5,0.5851,,,,,,,80.4547,80.7045,81.3044,"[-0.10971027809466052,-0.08782135028919842]",100.0,"[0.159095687841202,-0.11558189234623227]",4.0,"[-0.04088684309407172,0.14246245572640115]",100.0,"[-0.03225165741828004,-0.19617123118401386]",4.0,"[0.09702398639606324,-0.06225594542800692]",4.0,"[0.1009602890897344,-0.15632815951252133]",100.0,"[-0.08844890591909321,0.009948717644909375]",100.0,"[0.10745805119219258,0.06760091071698504]",100.0,"[0.17163571038661599,-0.05610506309583775]",4.0,"[0.05516199745411272,0.013075760822470438]",100.0,"[0.009832369824382084,-0.025033868573082048]",100.0,"[0.10657177039444478,0.14747550198842801]",4.0,"[-0.08812603768467875,0.13657288518628802]",4.0,"[0.1089827337851483,-0.0007073856737645829]",4.0,"[-0.01613802914415567,0.03472351689914317]",4.0,"[-0.05638071872063577,-0.04227774977346846]",100.0,"[0.019839240246918757,0.17970415627936598]",100.0,"[0.03218177900013203,-0.08135535898449282]",100.0,"[-0.06702719637238737,-0.17268587019308695]",4.0,"[0.06439121355904244,-0.13236392268614453]",4.0,"[-0.12012100255259384,-0.044225559270407916]",4.0,"[-0.10654755639101028,0.08163487254507763]",4.0,"[-0.17232835267580396,-0.09750043257753281]",100.0,"[-0.15834194349817662,0.024690982233240382]",4.0,"[-0.1544474290932334,0.07279132949737273]",4.0,"[-0.12038284150645592,-0.14404914204154318]",100.0,"[-0.020508652673843986,0.10212727881016659]",100.0,"[0.05693281224151971,0.06199976919874846]",4.0,"[-0.02133941094487168,0.19348401777369842]",100.0,"[0.13399219362663514,-0.07880047732434006]",100.0,"[-0.1283782561215741,0.12199773665730468]",100.0,"[0.029293270505677857,-0.16393663148519216]",4.0,"[0.02,0.02]",82.4044,0.0,5.0,5.0,117.0,1.0,,,,,,,
,,,,,,,5a1d44eeab721b0001ef9566,6842bbd6679d2d9fbd464d4a,2025-06-06_11h58.55.530,shape_ratio,2024.1.5,Win32,120.4819277,6842b561977af9ba9b0f87ca,,,,,,,,,,,82.4045,82.9047,,,83.1545,83.7377,left,,,,,,,,0.5,0.5751,,,,,,,82.9047,83.1545,83.7378,"[-0.09133038215755988,0.04245792352179452]",100.0,"[-0.10720420303009842,-0.0668961627105139]",4.0,"[0.08007813006518553,0.1027157480658709]",100.0,"[0.038363120601009965,-0.06692387476951052]",4.0,"[-0.1497826657614195,-0.11910837568054851]",4.0,"[0.07055991279013563,0.0260767784224995]",4.0,"[0.019273108524471547,-0.12261960407902255]",100.0,"[-0.12262998990874664,-0.020105522193281267]",100.0,"[-0.049576758469018906,0.1672003711245497]",100.0,"[-0.04248517457608546,0.038940810340801164]",4.0,"[0.13933043519268806,0.050758060733007815]",4.0,"[0.012650093016892601,0.06316181543959275]",4.0,"[-0.12431536042223154,0.11517469272806773]",4.0,"[-0.034871451298242984,-0.044626319952317604]",4.0,"[0.013341604699358571,0.14814944220915463]",4.0,"[-0.08673864525384901,-0.14608030126009325]",100.0,"[-0.16248515157521387,0.06984084538026637]",4.0,"[0.19923484977932504,-0.013044288867438435]",4.0,"[-0.07330031407944293,-0.012343260400867752]",4.0,"[-0.001312892418794214,0.1027303492616095]",100.0,"[0.13855708905588024,0.10185151197619544]",100.0,"[0.14193872417965245,-0.09870753865827804]",100.0,"[-0.15682447089769666,-0.04844666386901631]",4.0,"[0.129750037859461,0.004567526334083127]",4.0,"[-0.04386752342933535,0.09936381750357323]",100.0,"[0.015481262780815507,-0.018417589576622408]",100.0,"[-0.0860639535987902,0.1283148991990227]",100.0,"[0.08179051956050426,-0.16611292410736128]",100.0,"[0.12680619622749836,-0.13777237701695014]",100.0,"[-0.17932085117998606,-0.08241269150558035]",4.0,"[-0.013420079572792253,-0.14830048927063014]",100.0,"[-0.03449441577955039,-0.11185010824107089]",100.0,"[0.02,0.02]",84.8377,0.0,6.0,6.0,95.0,1.0,,,,,,,
,,,,,,,5a1d44eeab721b0001ef9566,6842bbd6679d2d9fbd464d4a,2025-06-06_11h58.55.530,shape_ratio,2024.1.5,Win32,120.4819277,6842b561977af9ba9b0f87ca,,,,,,,,,,,84.8379,85.338,,,85.5878,86.2545,left,,,,,,,,0.45,0.6618,,,,,,,85.338,85.5878,86.2545,"[-0.13912659916332343,0.12857375455882447]",4.0,"[0.02905023698224215,-0.13498801502925295]",4.0,"[-0.06171390029648515,-0.14220033872931634]",100.0,"[-0.06413303986073826,0.1120350858632501]",4.0,"[-0.12024667760644,-0.05764118169870623]",4.0,"[0.13106756434395583,0.13317214247076287]",100.0,"[-0.008818463999631569,-0.104749021712808]",100.0,"[0.04419074037650321,0.14152961760018695]",100.0,"[0.15882876070300145,0.012699414497286118]",4.0,"[-0.07590285675690722,-0.02671912880736676]",4.0,"[0.18260034657378943,0.06767751490129605]",4.0,"[-0.1359432928195576,0.08375206567213085]",4.0,"[-0.041350469596879914,-0.001466209353611501]",100.0,"[-0.1820637779264688,-0.05219813157443432]",4.0,"[-0.17121043463162186,0.002065221664927405]",100.0,"[0.01634691458620813,-0.19530672306398378]",100.0,"[0.09607126374742209,0.0827029531712519]",100.0,"[-0.11834164444108859,0.03546199689664561]",100.0,"[0.09216535574203302,-0.0782779398193271]",100.0,"[0.08114919417188556,0.030884765162395116]",4.0,"[-0.11892966624847101,-0.11591615101259273]",4.0,"[-0.012267531329405494,-0.04316856998167115]",4.0,"[0.1123931613296255,-0.15756926212471176]",4.0,"[-0.08328948213615381,-0.1800752212113]",4.0,"[0.05767062984438799,-0.02620250791625941]",4.0,"[-0.014725695278452544,0.16656163775146957]",4.0,"[-0.09363447706743493,0.17483366179489762]",4.0,"[0.029355019089628818,0.0065439152846109355]",4.0,"[0.06752333289431071,-0.16963710649598088]",100.0,"[0.023038665302376197,0.19404810504759598]",100.0,"[0.0028079134169166913,0.11445279458035003]",100.0,"[0.1329808691007895,-0.04682927926692465]",100.0,"[0.02,0.02]",87.3545,0.0,7.0,7.0,139.0,1.0,,,,,,,
,,,,,,,5a1d44eeab721b0001ef9566,6842bbd6679d2d9fbd464d4a,2025-06-06_11h58.55.530,shape_ratio,2024.1.5,Win32,120.4819277,6842b561977af9ba9b0f87ca,,,,,,,,,,,87.3546,87.8545,,,88.1045,88.5378,right,,,,,,,,0.9,0.417,,,,,,,87.8545,88.1045,88.5379,"[0.05461409264427996,0.18518132542164167]",100.0,"[-0.020243657113029445,-0.08043284649511748]",100.0,"[0.057008039359509995,-0.07696575663463445]",4.0,"[0.024212043456196874,0.12477825776732063]",100.0,"[0.03734316510281115,0.07616511651161852]",100.0,"[0.11740233643620286,-0.027109421907057618]",100.0,"[0.09078408844141857,0.11746398360730448]",100.0,"[0.18278542824366328,0.0030579993281229386]",100.0,"[-0.19597521090666897,-0.026806133915119882]",100.0,"[-0.13947711622276887,-0.07266683170690728]",100.0,"[0.14323878375168753,0.047892327269156765]",100.0,"[-0.0862974525952393,0.07565793394381673]",100.0,"[-0.016795804164220867,0.1575742094280179]",4.0,"[0.14849973058398108,0.11982099992601927]",100.0,"[0.13724042770979758,-0.11769408598626432]",100.0,"[-0.0630081336729604,-0.03756214110859182]",100.0,"[0.020959766603467704,-0.035810921946024914]",100.0,"[-0.046073016789676034,-0.13796111899206356]",100.0,"[0.07176393249573215,0.008540818640200946]",100.0,"[-0.033660943156205096,0.06434273443047991]",100.0,"[-0.006835381871365292,-0.16852694911149751]",100.0,"[-0.028279517820557563,-0.005114086253362062]",100.0,"[-0.05672237493022233,0.16140971352340136]",100.0,"[-0.09825639253401519,-0.10334304092544959]",100.0,"[-0.10953611472878275,0.1214471700432558]",100.0,"[0.08364453350751823,-0.1280431905263979]",100.0,"[0.05336780238866599,-0.1887796888085656]",100.0,"[-0.11831658411673952,0.029746698206187788]",100.0,"[-0.10083899386183534,-0.01762591685859822]",100.0,"[-0.05720211979070074,0.1128083762463564]",100.0,"[0.1493285508272642,-0.07402120274509409]",4.0,"[0.09684456822070574,-0.16950486505649692]",100.0,"[0.02,0.02]",89.6378,0.0,8.0,8.0,3.0,1.0,,,,,,,
,,,,,,,5a1d44eeab721b0001ef9566,6842bbd6679d2d9fbd464d4a,2025-06-06_11h58.55.530,shape_ratio,2024.1.5,Win32,120.4819277,6842b561977af9ba9b0f87ca,,,,,,,,,,,89.6379,90.1378,,,90.3879,90.8881,left,,,,,,,,0.4,0.4944,,,,,,,90.1378,90.3879,90.8881,"[0.1618997191341253,0.042334699416733186]",4.0,"[-0.10372239823111255,-0.027818268256792296]",100.0,"[-0.1449992917715126,0.1355519448626819]",100.0,"[-0.1337138195300161,0.021523733666604046]",100.0,"[-0.1632350153053116,-0.017141880467752977]",100.0,"[0.04366043105226922,-0.15870509910278802]",4.0,"[-0.0008407389010217631,-0.05758203684130319]",4.0,"[0.014856844083454378,-0.11603646946584557]",4.0,"[0.023906724274936883,0.1016705687725825]",4.0,"[-0.05879858156331778,0.033804721179368814]",4.0,"[-0.0161640128285269,0.1601702876574913]",4.0,"[0.08562495854350653,-0.031964311047386146]",4.0,"[0.00657794557527451,-0.1919057619283185]",4.0,"[-0.11621656042469167,-0.12914387651045858]",4.0,"[0.08129619984126142,0.0624531467138005]",4.0,"[-0.16788392870130053,-0.06878424737383351]",4.0,"[-0.11097367276993017,0.09852575323935354]",4.0,"[-0.03322127701646575,0.09231152350932585]",100.0,"[-0.07449526828458526,0.14770180201885177]",100.0,"[-0.18550836333832837,0.043412693578427676]",4.0,"[-0.11625803994891576,0.05863615796448125]",100.0,"[0.054791357299031666,0.17578706977707673]",4.0,"[-0.06345258104879278,-0.17927528629159972]",4.0,"[0.12705159442467212,-0.02690200318828706]",100.0,"[-0.07156927444939111,-0.12908612448335272]",4.0,"[-0.05927625100456128,-0.08357613143837693]",100.0,"[0.043316838891559774,0.03760475070901408]",100.0,"[-0.015664826961114365,-0.0036507115622911304]",100.0,"[0.11635572246549596,0.16026416757676412]",4.0,"[0.17009534534496754,-0.06193191579659977]",100.0,"[0.08554984729314975,-0.10120405266663397]",100.0,"[0.14103866060170905,0.09650724880453271]",4.0,"[0.02,0.02]",91.9878,0.0,9.0,9.0,165.0,1.0,,,,,,,
,,,,,,,5a1d44eeab721b0001ef9566,6842bbd6679d2d9fbd464d4a,2025-06-06_11h58.55.530,shape_ratio,2024.1.5,Win32,120.4819277,6842b561977af9ba9b0f87ca,,,,,,,,,,,91.9879,92.4878,,,92.7379,93.1879,left,,,,,,,,0.4,0.4235,,,,,,,92.4878,92.7379,93.1879,"[-0.0982095959421003,-0.03358858028265503]",4.0,"[-0.05914389370542883,0.013243149607613823]",100.0,"[-0.029747722880050637,-0.025698977009107504]",4.0,"[-0.14861470930334258,-0.12073466554666512]",100.0,"[0.08613525255910032,0.0347938078506433]",4.0,"[-0.07214519548339604,-0.08245370778631146]",4.0,"[-0.17282778675243873,0.013566450501345965]",100.0,"[0.016695980836111575,0.18465193008799885]",100.0,"[-0.035669922133754035,0.05940251336742611]",100.0,"[0.031721529043142044,0.08121238537886437]",4.0,"[-0.1333417055459369,0.000046321990398975816]",100.0,"[0.1365321589431092,-0.12253652037916936]",100.0,"[-0.0658753971490205,-0.15324787998407105]",4.0,"[0.15160013579405335,-0.04858416484393318]",4.0,"[-0.019149976416252337,-0.17452278094962242]",4.0,"[0.051175781819903655,0.14150786694663417]",4.0,"[0.19046830998684205,0.030220400022618166]",4.0,"[0.0029295651507610025,-0.10692930794898214]",4.0,"[0.08965770933957068,-0.15650542172721507]",4.0,"[0.04197054317047155,-0.06887660063168127]",4.0,"[-0.04379982726678066,0.17919983046125834]",100.0,"[-0.07928203276343215,0.06417871828080134]",4.0,"[0.05082541700629178,-0.11660346662427792]",4.0,"[-0.12357317907931584,0.07071674878757996]",100.0,"[0.08832846986011157,-0.0133365714677065]",4.0,"[0.10846880635042122,0.08313161513079756]",4.0,"[0.05425830603977735,-0.18135579812902153]",100.0,"[0.19383267864968384,-0.04568134384384037]",100.0,"[0.1349506932543634,0.009787070612484659]",100.0,"[-0.1630084953917687,-0.039074631668751636]",100.0,"[0.035456229565916444,0.0020260445263643777]",4.0,"[-0.12399991849125429,0.15403758944167859]",4.0,"[0.02,0.02]",94.2878,0.0,10.0,10.0,162.0,1.0,,,,,,,
,,,,,,,5a1d44eeab721b0001ef9566,6842bbd6679d2d9fbd464d4a,2025-06-06_11h58.55.530,shape_ratio,2024.1.5,Win32,120.4819277,6842b561977af9ba9b0f87ca,,,,,,,,,,,94.288,94.788,,,95.0379,95.5878,left,,,,,,,,0.55,0.5399,,,,,,,94.788,95.0379,95.5878,"[0.09908112431975324,-0.08779334095331069]",4.0,"[0.10372144418966593,0.09142943121920119]",100.0,"[-0.09145038093407894,0.057075581658265796]",100.0,"[0.045368526789345914,0.13395572571832706]",100.0,"[-0.1935827166841584,-0.00028324364773646285]",4.0,"[-0.02315146965289526,-0.1572449772330316]",100.0,"[0.023922361771398757,-0.04090766834490078]",100.0,"[-0.1486824427699906,0.08539478966635615]",4.0,"[0.01784734353630011,-0.17323629702871524]",100.0,"[-0.05974030333269824,-0.09780896589428266]",4.0,"[0.005047430082091641,-0.00009905926835818206]",100.0,"[0.14787084036382742,-0.0714621428439157]",100.0,"[-0.14199268291893224,-0.11564242285703737]",4.0,"[0.019349022478844347,0.052282514422318974]",100.0,"[0.15191658473903832,0.10259532792106457]",100.0,"[0.09370453105806238,0.00632901562123208]",100.0,"[-0.01984600622398354,-0.0685201041243031]",4.0,"[-0.06955265694815302,0.1318186620193897]",4.0,"[0.07811309686525245,-0.03247411360231585]",100.0,"[0.14988328575222773,0.020656916094661238]",100.0,"[-0.12598009535407614,-0.01853362956523379]",100.0,"[-0.09100928139237816,-0.05026034011827397]",4.0,"[0.19301020659850562,-0.03321797512647932]",100.0,"[0.05162143688936668,0.17468091162286659]",4.0,"[-0.07122332834085132,-0.16788201198180405]",4.0,"[0.14873626620022887,-0.11203978435508802]",4.0,"[-0.11054798026345164,0.1653869172211897]",4.0,"[-0.17063699890634404,-0.03942604046958228]",100.0,"[-0.07018535971650708,-0.008839356419846737]",100.0,"[-0.023831390477675796,0.15613079039355118]",4.0,"[0.010996265322553893,-0.11031585996986622]",100.0,"[0.09247751609399762,-0.17264289633769037]",4.0,"[0.02,0.02]",96.6878,0.0,11.0,11.0,71.0,1.0,,,,,,,
,,,,,,,5a1d44eeab721b0001ef9566,6842bbd6679d2d9fbd464d4a,2025-06-06_11h58.55.530,shape_ratio,2024.1.5,Win32,120.4819277,6842b561977af9ba9b0f87ca,,,,,,,,,,,96.688,97.1879,,,97.438,97.8879,right,,,,,,,,0.5,0.4192,,,,,,,97.1879,97.4379,97.888,"[0.1899539515914198,0.005880681051060587]",100.0,"[-0.10305185384849253,-0.11104263222381236]",4.0,"[0.040698048464772395,0.03606454123760733]",4.0,"[0.04960885793793032,-0.1222963168448375]",100.0,"[0.10161197400907435,-0.10229673096111637]",100.0,"[0.08351353422939908,0.10844471169891122]",4.0,"[-0.06352243248803811,0.17915930136684127]",4.0,"[-0.02357579617991454,-0.13870607682876115]",4.0,"[-0.0730225537168043,0.04846560938256755]",100.0,"[-0.10286664036217562,-0.025297629361589177]",4.0,"[0.055281587322967216,-0.19172828503200626]",4.0,"[-0.13036551453529907,-0.07022261151254408]",100.0,"[0.13708838135102144,0.13855950976513834]",4.0,"[0.16946480006998563,-0.07364066445465359]",4.0,"[-0.14919156095782432,0.03540748525204016]",100.0,"[0.10016559538079527,0.07055771108916932]",100.0,"[-0.15247322003132743,0.11309572556117534]",100.0,"[-0.032363897663516036,0.09154770712589404]",4.0,"[0.12286049399143076,-0.029808725759806344]",100.0,"[0.04486687986523509,-0.01588380948829216]",100.0,"[0.09473378288540038,0.006791770667828836]",4.0,"[0.14488560056889807,0.010314041480936434]",4.0,"[-0.07133840633986878,0.1012351950514786]",4.0,"[0.0853481038646612,0.164681203483807]",4.0,"[0.0013480233690129498,0.15423502892828192]",4.0,"[0.01529077812865113,0.0814027224573827]",100.0,"[-0.09490039817710842,-0.15924506283580991]",100.0,"[0.020343608904680916,-0.15051643071032733]",4.0,"[0.11178806488361598,-0.1493530043303793]",100.0,"[-0.03147367764938472,-0.18747335435155485]",100.0,"[0.02919769975510109,-0.07078650535067878]",100.0,"[-0.01392354638163662,0.03307653491272669]",100.0,"[0.02,0.02]",98.9879,0.0,12.0,12.0,118.0,1.0,,,,,,,
,,,,,,,5a1d44eeab721b0001ef9566,6842bbd6679d2d9fbd464d4a,2025-06-06_11h58.55.530,shape_ratio,2024.1.5,Win32,120.4819277,6842b561977af9ba9b0f87ca,,,,,,,,,,,98.9881,99.4881,,,99.7379,100.2046,right,,,,,,,,0.5,0.4639,,,,,,,99.4881,99.7379,100.2046,"[-0.08509677445103782,0.07975848872526746]",100.0,"[0.13435706785068338,-0.10352712113575725]",4.0,"[0.06244435593278057,0.11937671096486695]",4.0,"[-0.01944312133575162,-0.02018521925669161]",4.0,"[-0.01773180176431347,-0.08741818035190481]",100.0,"[0.011650365557367377,-0.058199262842884195]",4.0,"[0.11935989138111688,-0.04693805933824224]",100.0,"[-0.14732380209112472,0.1187287023215154]",100.0,"[0.12316836574119765,0.15298601065450299]",4.0,"[-0.1358519601559572,0.05338341134007251]",100.0,"[-0.04646790246746023,-0.16763807019821186]",100.0,"[-0.04010144200004178,0.08437759586256102]",100.0,"[0.16864803318788432,-0.06696793392782904]",4.0,"[0.0827843104975932,-0.030261704376722747]",4.0,"[0.029079145084467614,-0.16058219931946338]",4.0,"[-0.057978926329679374,-0.06705779141934314]",100.0,"[0.17780209606481412,0.00708298002013063]",4.0,"[0.035458643408098595,0.010447814001247125]",4.0,"[0.02772883935919665,0.1652618757257168]",4.0,"[-0.05565168999524868,0.18045758789842112]",4.0,"[0.06730261453660091,0.1747512482807397]",4.0,"[0.07635765718629399,-0.10090165223884544]",100.0,"[-0.18945654459471606,0.060523934158183496]",4.0,"[-0.10732224518078562,-0.034327219241221514]",100.0,"[-0.12301655314940883,-0.11672681245044306]",4.0,"[0.09472364454892719,0.043590789943968505]",100.0,"[-0.021005616966038913,0.15863496718850914]",100.0,"[0.12277907649490599,0.00291748415381064]",100.0,"[0.15437719160234714,0.10743303194733848]",100.0,"[-0.0894819693700412,-0.14052298796140567]",100.0,"[-0.08000669857917331,0.12058173582357538]",4.0,"[-0.18431916190282005,-0.01044758628955411]",100.0,"[0.02,0.02]",101.3045,0.0,13.0,13.0,112.0,1.0,,,,,,,
,,,,,,,5a1d44eeab721b0001ef9566,6842bbd6679d2d9fbd464d4a,2025-06-06_11h58.55.530,shape_ratio,2024.1.5,Win32,120.4819277,6842b561977af9ba9b0f87ca,,,,,,,,,,,101.3047,101.8046,,,102.0547,102.5212,right,,,,,,,,0.6,0.4514,,,,,,,101.8046,102.0547,102.5213,"[-0.044893559678797205,0.003568447227063624]",100.0,"[-0.15489419259517703,0.08375235952414398]",4.0,"[-0.10632678478277456,0.07358457296619102]",4.0,"[-0.1838417208274242,0.030450980666857055]",100.0,"[0.0023359617441503387,0.13851786929368384]",100.0,"[0.005650043151140085,0.010719199389451798]",100.0,"[0.026872406756929146,-0.1527538528399435]",100.0,"[-0.0682023897796261,0.10448858582402146]",100.0,"[0.09335565996251426,0.17085468532844159]",100.0,"[0.04495378911976165,0.08582227979365287]",100.0,"[0.10753916906841235,-0.09919467860849461]",4.0,"[-0.11476520375885496,-0.10169996523891035]",100.0,"[-0.057783456979263396,-0.12300572381250548]",4.0,"[0.07028450227718064,-0.18242967343592756]",100.0,"[0.06763034014559943,-0.07502275460555559]",4.0,"[-0.006850736228492763,0.0805694907052719]",4.0,"[0.05331167295341052,0.18883738157481264]",4.0,"[0.12034598230078039,0.032521320601950295]",100.0,"[-0.001445691297174309,-0.12083030141764314]",100.0,"[-0.057485906800985344,-0.04396520442742932]",4.0,"[-0.14736312616159,-0.02479466961588336]",4.0,"[-0.07883767040223519,0.041553496311621765]",4.0,"[0.10030581929288276,-0.05036078236681262]",4.0,"[0.1466546262994242,-0.017717867311404702]",100.0,"[-0.018050765733395837,-0.03323081097354326]",100.0,"[0.1456054446314848,-0.08614973896361156]",100.0,"[0.11453127472965961,-0.16169766321820853]",100.0,"[0.01411182478639497,-0.08371896678410176]",4.0,"[0.18748841570891098,0.035715795255325394]",100.0,"[0.16169496291080096,0.1173357887681756]",100.0,"[-0.059563651076979134,0.1717303834511521]",4.0,"[0.12867365352921273,0.07839238193774306]",100.0,"[0.02,0.02]",103.6213,0.0,14.0,14.0,53.0,1.0,,,,,,,
,,,,,,,5a1d44eeab721b0001ef9566,6842bbd6679d2d9fbd464d4a,2025-06-06_11h58.55.530,shape_ratio,2024.1.5,Win32,120.4819277,6842b561977af9ba9b0f87ca,,,,,,,,,,,103.6214,104.1219,,,104.3713,104.8213,left,,,,,,,,0.5,0.4383,,,,,,,104.1219,104.3713,104.8213,"[0.00162401434649351,0.16692659433012044]",4.0,"[0.0015473590787315303,-0.18331554653923296]",4.0,"[0.036614790519200496,-0.06337070218108869]",4.0,"[0.1288284017133022,0.10019341201125918]",4.0,"[0.05320049009954357,-0.001135400857833236]",100.0,"[-0.06211349926100191,-0.07975919233286077]",100.0,"[-0.035699390467448605,0.14221168730684908]",4.0,"[0.10520675089437588,0.04460342549007421]",100.0,"[-0.1936535974110401,0.009075169912184098]",4.0,"[0.11552327878796938,-0.026942136198916798]",100.0,"[-0.05147570503221014,-0.16051556171448442]",100.0,"[0.0624970826033183,0.05376272247905335]",100.0,"[-0.15192923467515207,-0.09441638856850278]",4.0,"[-0.09343898431250033,0.09554955455832075]",4.0,"[0.1958088185776079,0.03381965377844164]",4.0,"[-0.057350300904615896,0.18580641776184081]",100.0,"[0.01078304347976238,-0.028700828698276108]",100.0,"[-0.10604737103137117,-0.15541398674063636]",100.0,"[0.19763011454680204,-0.016897561230265513]",4.0,"[-0.06615706134970312,-0.03325641413867486]",4.0,"[0.07053935978736078,0.17138279654282215]",100.0,"[0.03994588448642439,-0.1631626061607422]",4.0,"[0.12182182664921902,-0.15250037089500154]",100.0,"[-0.01138237495381888,0.04301798063847729]",4.0,"[0.11109469221627004,-0.09326216741370086]",4.0,"[-0.14243448900991762,0.10351598136104108]",100.0,"[-0.11554851002552925,0.04031871290054618]",100.0,"[-0.0474078558066142,0.007623536065527795]",100.0,"[0.15626725234670125,-0.07934643607616061]",100.0,"[0.08722226298434517,-0.12653188417376673]",100.0,"[-0.11321361999175743,0.13161227680925208]",4.0,"[-0.16247523192133687,-0.0274427060035711]",4.0,"[0.02,0.02]",105.9213,0.0,15.0,15.0,102.0,1.0,,,,,,,
,,,,,,,5a1d44eeab721b0001ef9566,6842bbd6679d2d9fbd464d4a,2025-06-06_11h58.55.530,shape_ratio,2024.1.5,Win32,120.4819277,6842b561977af9ba9b0f87ca,,,,,,,,,,,105.9215,106.4213,,,106.6714,107.0713,right,,,,,,,,0.55,0.3943,,,,,,,106.4213,106.6714,107.0714,"[0.0260748136993394,0.19083587097460913]",4.0,"[-0.010339330326732725,0.12368440144516687]",4.0,"[-0.005450961287230404,0.04025326814830057]",4.0,"[-0.07128670754395221,0.013434363589722468]",100.0,"[0.14221123740516917,-0.05388046045718239]",4.0,"[0.09829289023529172,0.058417313675848175]",100.0,"[-0.1480169495498042,0.09765470221448612]",100.0,"[-0.0070476711519489145,-0.11168659432020996]",100.0,"[0.04492800741594547,-0.19389905441960675]",4.0,"[0.04835949889248644,-0.06929657177061703]",100.0,"[0.08933402102791674,-0.04501066170307355]",100.0,"[-0.06703936632165977,-0.11780685688292403]",4.0,"[-0.04378407874867582,-0.07323130532430523]",100.0,"[-0.1310053913366484,0.03088857957369896]",100.0,"[-0.05578915037303159,-0.032908518290522784]",100.0,"[0.03028255938694899,-0.005268944595188077]",4.0,"[-0.029402207299354326,-0.1885402246212033]",100.0,"[0.04955647677673152,-0.13317120197061008]",100.0,"[-0.14286729329153125,-0.018190626919811465]",100.0,"[0.15063983588470717,0.03374757445056042]",4.0,"[-0.019412609189996304,0.19294913289474058]",100.0,"[-0.11438704820459361,-0.08176154978999549]",100.0,"[-0.0759010549513801,0.10727053885943737]",4.0,"[-0.024257515415053305,0.08579536110724695]",4.0,"[-0.0712707282573455,-0.1623015120028712]",4.0,"[0.09074041409232157,0.09872055044368087]",4.0,"[0.03154100531132935,0.14814418889655717]",4.0,"[0.08102276642917357,0.14014406844442656]",100.0,"[-0.11214934061369033,0.12843930714717927]",100.0,"[-0.19272932192418418,0.012670581024121465]",100.0,"[0.13727173936135403,0.10005983158700708]",100.0,"[0.14393518206694453,-0.009141152022214615]",4.0,"[0.02,0.02]",108.1713,0.0,16.0,16.0,86.0,1.0,,,,,,,
,,,,,,,5a1d44eeab721b0001ef9566,6842bbd6679d2d9fbd464d4a,2025-06-06_11h58.55.530,shape_ratio,2024.1.5,Win32,120.4819277,6842b561977af9ba9b0f87ca,,,,,,,,,,,108.1715,108.6713,,,108.9216,109.3546,left,,,,,,,,0.1,0.416,,,,,,,108.6713,108.9215,109.3547,"[0.03324978011075757,0.08260255958336367]",4.0,"[-0.1774466202653197,0.064880244845609]",4.0,"[-0.11249912851579738,0.059863682213847205]",4.0,"[0.07473854237136379,-0.09037672399771704]",4.0,"[-0.1729176499455452,-0.054386471587818445]",4.0,"[-0.1469777207977832,0.10352835352514628]",4.0,"[0.13037148734575643,0.049582375995600045]",4.0,"[-0.06801750312773953,0.033898535232333375]",4.0,"[0.07625001894077889,0.10253963188811357]",4.0,"[0.04881496440457515,-0.1917704106571578]",4.0,"[-0.036357745818469386,0.12305028190075151]",4.0,"[0.08447688717867928,-0.14243142544494525]",4.0,"[0.006262974794050767,0.031142043547507707]",4.0,"[0.07610110854628879,0.1793687945142184]",4.0,"[0.14995675547311496,-0.056212382676404576]",100.0,"[-0.0733600278057853,-0.1823244738985574]",100.0,"[-0.1024080954023575,-0.10446397853795818]",4.0,"[-0.11568756130135122,0.14414293457071137]",4.0,"[0.14083400508963476,-0.11150600270969278]",100.0,"[-0.11412189112492328,-0.1499325393641305]",4.0,"[0.07900273961820681,0.026679690738522385]",4.0,"[-0.14990545623959495,-0.002614076624190004]",4.0,"[-0.027751689692777314,0.17733680991869968]",4.0,"[0.036857212347192185,-0.03980520324770928]",4.0,"[0.029436517932389314,-0.11990242978790626]",4.0,"[0.13440384074478973,0.12163001966771525]",4.0,"[-0.0772811421747453,0.09103754313148765]",4.0,"[-0.10970947289956574,-0.023804586670628725]",4.0,"[0.011097766982012836,0.13974500241866053]",4.0,"[0.182601978904548,0.02673735161514207]",4.0,"[-0.03511295925883003,-0.09078050183621365]",4.0,"[-0.040830755165858344,-0.030439340383747304]",4.0,"[0.02,0.02]",110.455,0.0,17.0,17.0,180.0,1.0,,,,,,,
,,,,,,,5a1d44eeab721b0001ef9566,6842bbd6679d2d9fbd464d4a,2025-06-06_11h58.55.530,shape_ratio,2024.1.5,Win32,120.4819277,6842b561977af9ba9b0f87ca,,,,,,,,,,,110.4552,110.9547,,,111.2047,111.738,right,,,,,,,,0.5,0.5248,,,,,,,110.9547,111.2047,111.7381,"[0.11804081970574129,0.010101764525292788]",100.0,"[-0.07318956073321406,-0.05293844995624515]",100.0,"[-0.03443079242433033,-0.10902766233545585]",4.0,"[-0.045257863320874815,0.057675401230494173]",100.0,"[-0.14605429081013493,-0.03136716230837431]",4.0,"[0.012375176937614928,0.13960753623315167]",100.0,"[-0.09679367948779063,0.05288132832345529]",100.0,"[-0.08916462665004735,-0.16200232672250023]",100.0,"[0.07570820516876155,-0.037184146163216775]",4.0,"[-0.07217501466877341,0.149021792013735]",4.0,"[0.10334553380037034,-0.12297904389874288]",4.0,"[0.13106950356510094,0.08001375077557214]",4.0,"[0.09465588249360113,0.1077600021462718]",4.0,"[-0.010393207277301406,-0.04164477997446843]",100.0,"[-0.133082309137475,0.09804337157174198]",4.0,"[-0.033134680049522386,0.1150063706714606]",100.0,"[0.06141642777285228,0.14126166539349777]",4.0,"[0.027838347965067168,-0.08102805827844758]",4.0,"[0.02137350124655218,-0.14917116017249982]",4.0,"[-0.19659292176665583,-0.01927711949847647]",100.0,"[0.03118224845407836,0.07715011885650204]",4.0,"[-0.16071009272833506,0.037600625049123725]",100.0,"[0.18591508167459522,-0.017432641034421024]",4.0,"[0.043802635988859334,0.009524546524027757]",100.0,"[0.11678897726662701,0.1450965849449047]",100.0,"[-0.12081199330123418,-0.10180925787465873]",4.0,"[-0.17528457473884826,-0.05867497538202382]",100.0,"[0.025167206209634387,-0.19450662112142908]",100.0,"[0.0009726997943370234,0.028900476962592538]",100.0,"[0.09107987264483065,-0.1723200813850646]",4.0,"[-0.03912805214333809,0.1941489484036784]",4.0,"[0.15490186561906139,0.11840549853010106]",100.0,"[0.02,0.02]",112.838,0.0,18.0,18.0,111.0,1.0,,,,,,,
,,,,,,,5a1d44eeab721b0001ef9566,6842bbd6679d2d9fbd464d4a,2025-06-06_11h58.55.530,shape_ratio,2024.1.5,Win32,120.4819277,6842b561977af9ba9b0f87ca,,,,,,,,,,,112.8382,113.3381,,,113.5884,114.0048,left,,,,,,,,0.1,0.3978,,,,,,,113.3381,113.5884,114.0048,"[-0.10164304394647974,-0.013265002032283452]",4.0,"[0.0653691134483769,-0.08584495768966784]",4.0,"[-0.12463091775326562,0.14640635060893578]",4.0,"[-0.1388572834371995,-0.03026887218829108]",4.0,"[0.036333338446017,0.1625078973649115]",4.0,"[0.18420175864977276,-0.004161726928240807]",4.0,"[-0.16510959062395816,0.019491256335393007]",4.0,"[0.18235984940423172,-0.08153451882355985]",4.0,"[-0.054446110165995744,0.18982069829050832]",4.0,"[-0.08762592031233941,-0.08745776097656514]",4.0,"[-0.014837834596400886,-0.19321704605544615]",4.0,"[0.0370272695889489,0.11502736491480291]",4.0,"[-0.036047734513573945,-0.10937373756412583]",4.0,"[0.04519820949005242,-0.017767039355732008]",4.0,"[0.14009444649388283,0.14018139372658261]",100.0,"[0.12685545759361602,-0.08202214911007283]",4.0,"[0.09879585423573597,0.09063767923217247]",4.0,"[-0.1109907043302245,-0.12103749669270714]",100.0,"[-0.08342413861287364,0.10270028550717507]",4.0,"[-0.1961914538451751,-0.013434401422238154]",4.0,"[-0.10102233734883902,-0.1663309093907912]",4.0,"[0.13948241061646896,-0.012487192457787235]",4.0,"[-0.04639536160866542,-0.04453445655820065]",100.0,"[-0.15664164493947538,-0.08052198274832102]",4.0,"[0.10738799683432967,-0.13456826265655378]",4.0,"[-0.04261745662009279,0.10169471602165102]",4.0,"[0.00031955392005144284,-0.043934613041340186]",4.0,"[0.1367640771883778,0.0606720284383041]",4.0,"[0.06409083294908977,-0.1694641471336146]",4.0,"[0.09471663455535996,-0.005224643096660636]",4.0,"[0.006652675009991924,0.05283925709251204]",4.0,"[-0.162709454488911,0.10486061688932052]",4.0,"[0.02,0.02]",115.1047,0.0,19.0,19.0,209.0,1.0,,,,,,,
,,,,,,,5a1d44eeab721b0001ef9566,6842bbd6679d2d9fbd464d4a,2025-06-06_11h58.55.530,shape_ratio,2024.1.5,Win32,120.4819277,6842b561977af9ba9b0f87ca,,,,,,,,,,,115.1048,115.6047,,,115.8548,116.3381,right,,,,,,,,0.45,0.4747,,,,,,,115.6047,115.8548,116.3381,"[0.02897762120416402,-0.17718232611251225]",4.0,"[-0.028160782659624826,-0.1586034808202744]",100.0,"[0.14849054530259986,0.06573591623914382]",4.0,"[-0.055289242764706134,-0.02609315931483713]",100.0,"[0.07602015288312321,-0.027787229021167544]",100.0,"[-0.07975100226900672,-0.11094763006990943]",100.0,"[0.0628199152416668,0.1586850144528947]",100.0,"[0.140594902941832,-0.11009671189588141]",4.0,"[-0.0719348202104396,0.06369695640187494]",4.0,"[-0.13533198630132423,0.1183926850979488]",100.0,"[-0.16140162054199664,0.031511413380407895]",4.0,"[0.02627239345394387,-0.029532926364818628]",100.0,"[-0.017040757954765763,0.11248115244802306]",4.0,"[0.00031196754690992177,-0.10866742004885148]",100.0,"[0.07578886004927923,-0.16255718844742303]",100.0,"[0.11906290209271148,-0.044059977341769946]",100.0,"[0.020506533781597037,0.029509451713377363]",100.0,"[-0.02865968985287053,0.07231566346923825]",4.0,"[-0.14646130828220436,-0.07647022617441131]",4.0,"[-0.10123667584922912,0.017466622865031322]",100.0,"[0.15967308997948676,0.0018286431725911992]",4.0,"[0.014654917359785047,0.15442902815572468]",4.0,"[-0.19145402135580702,-0.038173707942829045]",4.0,"[-0.029433452638704862,-0.06559918296449856]",4.0,"[-0.14579128114862377,0.07457980495687566]",4.0,"[0.07194215398778306,-0.08044995614589892]",4.0,"[-0.01346209887922521,0.18586199464922556]",100.0,"[0.10143365028543903,0.12261570653786147]",4.0,"[-0.09597634607306024,0.12908463234325646]",4.0,"[0.04287408528263902,0.10714775362560111]",100.0,"[-0.10280450151390404,-0.1471225141426067]",4.0,"[0.1949936286884894,0.03449634765391404]",4.0,"[0.02,0.02]",117.4383,0.0,20.0,20.0,125.0,1.0,,,,,,,
,,,,,,,5a1d44eeab721b0001ef9566,6842bbd6679d2d9fbd464d4a,2025-06-06_11h58.55.530,shape_ratio,2024.1.5,Win32,120.4819277,6842b561977af9ba9b0f87ca,,,,,,,,,,,117.4384,117.9381,,,118.1882,118.6214,left,,,,,,,,0.1,0.4295,,,,,,,117.9381,118.1881,118.6214,"[-0.01500351596805245,-0.05556156165830152]",4.0,"[0.15335892640642113,0.015758970878530308]",4.0,"[-0.16141607676744665,0.0045832265453484575]",4.0,"[-0.073739586922222,-0.15996357748507567]",4.0,"[-0.04331102651099094,0.08499399137063797]",4.0,"[0.03919380044465713,0.11036770923879224]",4.0,"[0.0557887034686238,-0.008152737705286335]",4.0,"[-0.08590867042663823,0.1594939923443259]",4.0,"[0.13134927485335193,0.12845656495294006]",4.0,"[-0.08118578425185236,-0.09496675331097006]",4.0,"[-0.047541304695980474,0.17453996791960313]",4.0,"[-0.08628065893516694,0.04747142817374724]",4.0,"[-0.11757603414171582,0.12897880897710573]",4.0,"[0.07668576229963879,0.17326632476318088]",4.0,"[0.09756942044797458,-0.08670553507990693]",4.0,"[0.060008369589184485,-0.10229862695004231]",4.0,"[0.11567396377145188,0.06830406896085914]",4.0,"[0.18908771430167778,0.06428192552492565]",4.0,"[0.07320331313860477,-0.052723739217398854]",4.0,"[-0.08723110094490105,0.006424326287542254]",4.0,"[0.17440497093285925,-0.03774634215924823]",4.0,"[0.031896802753344625,0.05166101742680825]",4.0,"[0.05398291243411494,-0.15241353376501457]",4.0,"[-0.13296188505911397,-0.04073891752219388]",4.0,"[-0.15755584907477255,0.11150730411795572]",4.0,"[-0.16501980799009347,-0.09225509996155247]",4.0,"[-0.00898232630926289,-0.09512424949811933]",100.0,"[0.19933833405179827,0.005492917175921797]",4.0,"[-0.11479424665697958,-0.16301479464109575]",100.0,"[0.011971861664720022,-0.17153708235228948]",4.0,"[0.10844564334597448,0.019576803225661823]",4.0,"[0.10921442600244895,-0.1635286600860942]",100.0,"[0.02,0.02]",119.7215,0.0,21.0,21.0,200.0,1.0,,,,,,,
,,,,,,,5a1d44eeab721b0001ef9566,6842bbd6679d2d9fbd464d4a,2025-06-06_11h58.55.530,shape_ratio,2024.1.5,Win32,120.4819277,6842b561977af9ba9b0f87ca,,,,,,,,,,,119.7216,120.2214,,,120.4715,120.9048,left,,,,,,,,0.6,0.418,,,,,,,120.2214,120.4715,120.9048,"[-0.05443640913913439,0.11520772553398102]",4.0,"[-0.014645265996255511,-0.05021096727500093]",4.0,"[0.1398222530644983,0.013841487319453121]",4.0,"[-0.12283877102280798,0.07827817233600468]",100.0,"[0.15994477116419595,-0.04850626420554297]",100.0,"[-0.08372131522538459,-0.05086767777388817]",100.0,"[-0.048900202404983564,0.06186612860115989]",100.0,"[0.09939266644520282,-0.0731050004650163]",100.0,"[0.08280268649732687,0.158027604381163]",100.0,"[-0.11025259575563716,-0.1392129625418373]",4.0,"[-0.12601035329761934,0.15391819124821535]",100.0,"[0.13834881828315732,-0.13688300080706986]",4.0,"[0.14655347898663407,0.10141910930063851]",100.0,"[0.04538071124042173,-0.033960197259573985]",100.0,"[0.055668197907909035,0.01413729597028469]",100.0,"[0.05310635604604978,-0.16859014536555825]",4.0,"[-0.1751982734752334,0.029079612524369792]",100.0,"[0.035377297246239364,0.054343751161700364]",100.0,"[0.029141208160039716,0.18781661612777967]",100.0,"[0.042213738707516386,0.09598685584719767]",4.0,"[-0.18640224012235174,-0.029303695455036072]",4.0,"[-0.0743351706369154,-0.09038525737477188]",100.0,"[-0.0077770886519969605,0.09738356850010098]",4.0,"[-0.08176179918630595,-0.007546429235745289]",4.0,"[-0.012188639220001204,0.181566634924588]",4.0,"[0.19425123946870124,-0.0004133368519670524]",100.0,"[-0.11867467943824284,-0.08069745172429794]",4.0,"[-0.056997716761190524,-0.14774768779477154]",4.0,"[-0.06122048665664632,0.15631343524104907]",100.0,"[-0.01533022375693807,0.02702118969589921]",100.0,"[0.1390010611603335,-0.09383112256000348]",100.0,"[0.060267763396703956,-0.10685677948465915]",100.0,"[0.02,0.02]",122.0047,0.0,22.0,22.0,45.0,1.0,,,,,,,
,,,,,,,5a1d44eeab721b0001ef9566,6842bbd6679d2d9fbd464d4a,2025-06-06_11h58.55.530,shape_ratio,2024.1.5,Win32,120.4819277,6842b561977af9ba9b0f87ca,,,,,,,,,,,122.0049,122.5048,,,122.7549,123.2215,right,,,,,,,,0.4,0.4625,,,,,,,122.5048,122.7549,123.2215,"[0.10813192592697034,0.1355404437745227]",100.0,"[0.09204172292522322,0.016957784669741908]",4.0,"[0.06861002934387649,-0.1773139411968133]",100.0,"[0.13643720143536023,-0.018497265855706137]",100.0,"[-0.008685505420276983,-0.023737303121139544]",4.0,"[0.14063248456148356,0.08990676824070258]",4.0,"[-0.08938783651959976,-0.05545961879752994]",100.0,"[-0.136690145834432,-0.051274044063932676]",4.0,"[0.04337452804464532,-0.1157538603861103]",4.0,"[-0.0807609876620096,-0.14214169582755062]",4.0,"[0.03788234928817128,0.0810159306368545]",100.0,"[-0.0615353123321515,0.1674711780693938]",100.0,"[-0.0016111766349129635,-0.15140523594065844]",100.0,"[-0.03716957615744458,-0.17217136236277053]",100.0,"[-0.0933255478940183,0.10090708341339108]",4.0,"[-0.02587435994233552,-0.09376476031403272]",4.0,"[-0.018194518094490846,0.028180732326389225]",4.0,"[0.1449145604356934,-0.12520190824054944]",4.0,"[0.1820446211515538,-0.021304170884698475]",4.0,"[-0.17812090226307328,0.022240557275878065]",4.0,"[0.18155187086541325,-0.06376306482878023]",100.0,"[0.01979201450827241,0.135438946201016]",4.0,"[-0.12818403634508477,0.058027615114881845]",4.0,"[0.18804283596108617,0.06151039670083777]",4.0,"[-0.10753591482538748,0.16601899019440475]",100.0,"[0.09400418104984098,0.06311146662731923]",4.0,"[0.07754694781743063,-0.023206670068453127]",100.0,"[-0.1568532465061928,0.11934643520796295]",4.0,"[0.08873513343356355,-0.0982143353154283]",4.0,"[0.03606781462349809,0.03805040962246456]",4.0,"[-0.137539636137629,-0.1336580524746194]",100.0,"[-0.036649500200800406,-0.05252800931577067]",100.0,"[0.02,0.02]",124.3214,0.0,23.0,23.0,166.0,1.0,,,,,,,
,,,,,,,5a1d44eeab721b0001ef9566,6842bbd6679d2d9fbd464d4a,2025-06-06_11h58.55.530,shape_ratio,2024.1.5,Win32,120.4819277,6842b561977af9ba9b0f87ca,,,,,,,,,,,124.3216,124.8215,,,125.0716,125.5548,right,,,,,,,,0.5,0.4668,,,,,,,124.8215,125.0716,125.5549,"[-0.18561777830821502,0.0346200641132908]",100.0,"[-0.0414455587317999,0.054294789476756616]",100.0,"[0.08525257599503876,-0.059306198249527514]",100.0,"[0.1429382278097136,-0.050998692833656635]",100.0,"[0.0408034679213859,0.1571700076775287]",100.0,"[-0.10082554247433048,0.028957274026225246]",4.0,"[0.14505778584456014,-0.091440423102328]",100.0,"[-0.06755270382570167,0.14101263571140296]",4.0,"[-0.07666637272318266,-0.184223580628345]",4.0,"[0.0973585884167714,0.1466219768572071]",100.0,"[0.04311475177483519,0.013107257383448246]",4.0,"[-0.010004417143849361,0.19283230644889876]",100.0,"[0.047629100501745514,-0.039701753362463184]",4.0,"[-0.0061794815985218195,0.07378473083361661]",100.0,"[-0.05092145433866451,-0.006547661519719816]",100.0,"[-0.01986094610361775,-0.14615189469633824]",4.0,"[-0.04543835451468259,0.09842815293823177]",4.0,"[-0.13017117562612893,-0.018820852954377406]",100.0,"[0.13326150693574854,-0.0013063764031602748]",4.0,"[0.014545129174007026,-0.19666858386967073]",4.0,"[0.08855368973276073,0.08971572240191082]",100.0,"[0.02720064202490604,0.11919002491268348]",4.0,"[-0.008972790456555123,0.028677815868343393]",100.0,"[-0.03138953440109316,-0.04488770884924894]",100.0,"[-0.15570708064669364,0.09239025664445259]",100.0,"[0.13306710467607716,0.06036317461038083]",4.0,"[0.015733428176442365,-0.12222266624286676]",4.0,"[-0.17228344386856562,-0.010607059645611172]",4.0,"[0.06554058022691651,-0.1389834275121628]",4.0,"[-0.04538707079460785,-0.08412219326636175]",100.0,"[0.11814802231348576,-0.1302723623415808]",4.0,"[0.1958386294752676,-0.034234702103379075]",4.0,"[0.02,0.02]",126.6548,0.0,24.0,24.0,101.0,1.0,,,,,,,
,,,,,,,5a1d44eeab721b0001ef9566,6842bbd6679d2d9fbd464d4a,2025-06-06_11h58.55.530,shape_ratio,2024.1.5,Win32,120.4819277,6842b561977af9ba9b0f87ca,,,,,,,,,,,126.655,127.1548,,,127.4049,127.9882,left,,,,,,,,0.5,0.5566,,,,,,,127.1548,127.4049,127.9883,"[-0.14064768803835978,-0.14124991579608043]",4.0,"[-0.18597941121682154,0.004456260574748891]",100.0,"[0.030465827475143373,0.1216465716368847]",4.0,"[-0.11464122656920661,-0.07730030115774428]",100.0,"[0.038263258144129154,0.06555085281231349]",4.0,"[-0.028709744116628872,0.1771852313909362]",100.0,"[0.09025195221037034,0.047133166546919736]",4.0,"[0.04801126643621544,-0.016354373246022888]",4.0,"[0.08897773271398388,0.09198955839185818]",100.0,"[-0.05882133031971472,0.08585090229727375]",100.0,"[0.029656059624190625,-0.11792034560434099]",100.0,"[0.06793880133366353,-0.1596704770192723]",4.0,"[-0.05869299648291864,-0.18013742673010855]",4.0,"[0.00415907399808874,-0.16056444680930243]",4.0,"[-0.1259787100770956,0.14979760648741888]",4.0,"[0.13428052855301315,-0.09101957083879814]",100.0,"[0.16883226957265962,0.006439985999575302]",4.0,"[-0.01687491414271503,0.08040299292939151]",100.0,"[-0.007660977737516853,0.01409189353245589]",100.0,"[0.02966928724035846,0.1647268528693767]",100.0,"[-0.18170807215307275,-0.0575110898413056]",100.0,"[-0.07609160430956428,0.13436217469082823]",100.0,"[0.14608451428051447,0.07683017649620104]",4.0,"[-0.05756105306228866,-0.002517600483465111]",4.0,"[0.11376296838069412,-0.038571899067953413]",100.0,"[-0.015325242138731964,-0.10901669638482785]",4.0,"[0.08793656690316139,0.17059282709668572]",4.0,"[-0.056939731822103,-0.07008907394848891]",4.0,"[-0.14105448734410464,0.10023228547984159]",100.0,"[-0.11993218736519691,0.057760203943086126]",4.0,"[0.1166435001252808,-0.14494818925197459]",100.0,"[-0.09881666859151488,-0.1323113329343761]",100.0,"[0.02,0.02]",129.0882,0.0,25.0,25.0,90.0,1.0,,,,,,,
,,,,,,,5a1d44eeab721b0001ef9566,6842bbd6679d2d9fbd464d4a,2025-06-06_11h58.55.530,shape_ratio,2024.1.5,Win32,120.4819277,6842b561977af9ba9b0f87ca,,,,,,,,,,,129.0883,129.5881,,,129.8383,130.3217,right,,,,,,,,0.9,0.4673,,,,,,,129.5882,129.8383,130.3217,"[-0.14536026283775064,0.1221250613348957]",100.0,"[-0.1570836384245284,0.03477797090313108]",100.0,"[0.063742666033537,-0.0614477184241697]",100.0,"[0.1578180888505495,0.08760599383415281]",100.0,"[-0.06859682065993906,-0.038889327112061875]",100.0,"[0.04913800070162358,-0.14493842036078278]",100.0,"[0.17278083976687328,-0.016990908920123088]",100.0,"[0.11500506348201489,0.014925513774029675]",100.0,"[0.05487876570021593,0.13671838383063445]",100.0,"[-0.176298117259442,0.07381645669387722]",100.0,"[0.062382164685677,0.05663009359675044]",100.0,"[-0.06720443843184024,0.10106992634062677]",4.0,"[0.09109925503058783,-0.13221439373019983]",4.0,"[0.01713430211379586,-0.16997570031995554]",100.0,"[0.021888828026627546,0.09501309718380514]",100.0,"[0.15057599318730722,-0.08739030345104327]",100.0,"[-0.026179034512394707,-0.17058477050436685]",100.0,"[-0.03255544267183896,-0.11487507856457346]",100.0,"[-0.018366509625748074,0.18888630284673244]",100.0,"[-0.07813400632854789,0.05190178681637966]",100.0,"[0.07568671461957084,0.10198132695448832]",100.0,"[0.09159542615608689,-0.17284768836321662]",4.0,"[-0.09893518721420112,-0.15100761919617556]",100.0,"[0.005868804360152362,0.03040179626411992]",100.0,"[-0.01229607223337923,-0.03461024607925698]",100.0,"[0.029451227731100402,0.19673552546412673]",100.0,"[-0.017676636835944823,-0.07697375196778082]",100.0,"[-0.19428089043716432,0.011174499651227342]",100.0,"[-0.10363943312889035,-0.10375478713812401]",100.0,"[0.03375133311963581,-0.0956420098820292]",100.0,"[0.16904207488367817,0.02540539300067796]",100.0,"[-0.11892360340230974,0.02149398451762242]",100.0,"[0.02,0.02]",131.4216,0.0,26.0,26.0,22.0,1.0,,,,,,,
,,,,,,,5a1d44eeab721b0001ef9566,6842bbd6679d2d9fbd464d4a,2025-06-06_11h58.55.530,shape_ratio,2024.1.5,Win32,120.4819277,6842b561977af9ba9b0f87ca,,,,,,,,,,,131.4216,131.9216,,,132.1716,132.6549,right,,,,,,,,0.55,0.478,,,,,,,131.9216,132.1716,132.6549,"[0.012189592784881657,0.12251311656542617]",100.0,"[-0.049531329428843994,0.08057963490401901]",4.0,"[0.103496398699993,-0.13759728379628883]",100.0,"[0.14809495941298956,0.01577129610618874]",100.0,"[0.031471287788560814,-0.02744816292626242]",100.0,"[-0.1383134492453092,-0.0640493886295399]",100.0,"[-0.17675631937618674,-0.0802472790943207]",4.0,"[0.10999845315556582,0.10007863283467908]",4.0,"[0.0711335763397965,0.05413322622069001]",100.0,"[-0.12350395811416491,0.033639960467602995]",100.0,"[0.12889957568191932,-0.055989328647982776]",100.0,"[-0.08870333008225316,-0.17445622293048504]",4.0,"[0.16539363117496172,0.11233861565310739]",100.0,"[-0.14672270572308663,-0.00551670493697759]",4.0,"[0.1442995741478228,-0.11056966760750804]",4.0,"[-0.04760548418229015,0.0015372651246396856]",100.0,"[0.09882993880912194,-0.026927550068035686]",4.0,"[-0.11938355275122375,-0.12078786608400559]",100.0,"[-0.09159434043806498,0.13388203620751835]",4.0,"[0.03287107613481333,0.18628809223825063]",4.0,"[0.04749687360878616,0.08787196656913215]",100.0,"[-0.1946360138633384,-0.03171909705353638]",4.0,"[-0.05583636907267841,-0.13650015406376653]",100.0,"[-0.09142998146136466,-0.08112753573209625]",100.0,"[-0.001110241132170986,0.008132560414167864]",4.0,"[0.1308364430240807,0.0548666469733518]",4.0,"[-0.04031411428982197,0.17378889019654123]",4.0,"[0.05076573618732137,0.010195484873021793]",100.0,"[-0.1906694989991275,0.026232364023099457]",100.0,"[-0.030470465825673056,-0.06306382401827895]",100.0,"[0.05327650508049189,-0.16121990942114606]",100.0,"[-0.07596123645679848,0.029981774482380437]",4.0,"[0.02,0.02]",133.7552,0.0,27.0,27.0,64.0,1.0,,,,,,,
,,,,,,,5a1d44eeab721b0001ef9566,6842bbd6679d2d9fbd464d4a,2025-06-06_11h58.55.530,shape_ratio,2024.1.5,Win32,120.4819277,6842b561977af9ba9b0f87ca,,,,,,,,,,,133.7553,134.2549,,,134.505,134.9716,left,,,,,,,,0.1,0.4647,,,,,,,134.2549,134.505,134.9716,"[-0.04307347754110271,-0.06508784965100219]",4.0,"[0.12212373303361233,0.022275808966296527]",4.0,"[0.06277233092583619,0.024683660582022707]",4.0,"[0.025374670506072707,-0.1127805631090928]",4.0,"[-0.12078470457859455,-0.15340983514619652]",100.0,"[-0.08584303155594816,-0.012877232352855358]",4.0,"[-0.06993759538159756,-0.09607719548947803]",4.0,"[0.08933050745628694,-0.07444491155719465]",4.0,"[-0.047514654113572266,0.14846705517065487]",4.0,"[0.08429722727371662,0.17429593399107407]",4.0,"[-0.0017460440573533339,-0.05582237743867221]",4.0,"[0.14589398323777744,0.08171958603658978]",4.0,"[0.04680152424237221,-0.18673640534805955]",4.0,"[0.1094478856557756,0.06198432158579296]",4.0,"[-0.14520592191374818,0.040913380841062566]",4.0,"[-0.07080600165678524,0.09774253241783562]",4.0,"[0.10470942607352596,-0.1528322295054623]",4.0,"[-0.04583398972979555,-0.007824051720707506]",4.0,"[-0.15697530419016717,0.10270150327821616]",4.0,"[0.16911772968443667,-0.027726494662396024]",4.0,"[-0.19023716233354918,-0.05329251554889502]",4.0,"[-0.16504618554523165,-0.1089555698009283]",4.0,"[-0.02198071128427103,-0.1747827226342429]",4.0,"[0.0444157578686445,0.1381387666854787]",4.0,"[0.14402100005460983,-0.11255403788014418]",100.0,"[0.11030974881270002,0.12828456193357743]",4.0,"[-0.02094710355826818,0.04467651433717407]",100.0,"[0.011416423986417647,0.1083236939054741]",4.0,"[-0.09379133482941059,0.06015197854169132]",4.0,"[-0.08743738251477758,-0.053720985691168927]",4.0,"[-0.19763499139245155,0.006705126002266125]",4.0,"[0.02202197754715099,0.18959174912810112]",4.0,"[0.02,0.02]",136.0716,0.0,28.0,28.0,199.0,1.0,,,,,,,
,,,,,,,5a1d44eeab721b0001ef9566,6842bbd6679d2d9fbd464d4a,2025-06-06_11h58.55.530,shape_ratio,2024.1.5,Win32,120.4819277,6842b561977af9ba9b0f87ca,,,,,,,,,,,136.0717,136.5716,,,136.822,137.255,right,,,,,,,,0.9,0.4126,,,,,,,136.5716,136.8219,137.255,"[-0.1570324575232961,-0.02516143826831469]",100.0,"[-0.07778916942614403,0.05717608534940924]",100.0,"[-0.13933359544226606,-0.11895787840556253]",100.0,"[0.09733228501004959,0.057418925501401305]",100.0,"[0.03862534124865168,0.09597705070356283]",100.0,"[-0.0672935648912079,-0.15329190653797423]",4.0,"[-0.17099675649597817,0.0817984466831331]",100.0,"[-0.1755425990246124,0.04083979209958443]",100.0,"[0.008881193077220453,0.1655181205674454]",100.0,"[-0.1378225055730957,-0.07865698240763708]",100.0,"[-0.04677087429136027,-0.08922963554504419]",100.0,"[0.00032631717847514104,-0.07060410517020209]",100.0,"[-0.0987007361499621,-0.016624622428791667]",100.0,"[0.11312814046731279,0.09802418861755838]",100.0,"[0.030880935714965963,-0.1239147532929022]",100.0,"[-0.05779331937723328,0.0070135032554530345]",100.0,"[-0.030652952510241617,0.1258359982527948]",100.0,"[0.08954468734876851,0.010523783951266776]",100.0,"[0.19183435402647356,-0.0075963584612666534]",100.0,"[0.11897065448869591,-0.031749542357790664]",100.0,"[0.1708291007574279,0.045548942102433855]",100.0,"[0.05104963601266799,-0.014993542427652594]",100.0,"[-0.09331147111343896,0.1525780462485237]",100.0,"[0.06955613472231013,-0.14952635643302223]",100.0,"[-0.09473645070348696,-0.06054872517060772]",100.0,"[0.15036713347340155,-0.08310070773331503]",100.0,"[-0.1341284526623853,0.03132237346924077]",100.0,"[0.022870611338832978,-0.19526650840424725]",100.0,"[-0.1245123226429444,0.11539334786470057]",4.0,"[0.1564771891608534,0.08495097111637945]",100.0,"[0.05764702879942204,-0.06507734355320997]",4.0,"[-0.0012739312091518047,0.015822899346867696]",100.0,"[0.02,0.02]",138.3553,0.0,29.0,29.0,16.0,1.0,,,,,,,
,,,,,,,5a1d44eeab721b0001ef9566,6842bbd6679d2d9fbd464d4a,2025-06-06_11h58.55.530,shape_ratio,2024.1.5,Win32,120.4819277,6842b561977af9ba9b0f87ca,,,,,,,,,,,138.3554,138.8554,,,139.1051,139.6216,right,,,,,,,,0.9,0.5044,,,,,,,138.8554,139.1051,139.6216,"[0.03894083058679512,-0.06299460832180782]",100.0,"[0.052273428528033114,0.17399225253518297]",100.0,"[0.14427838650958386,-0.016488117680488752]",100.0,"[0.07632998016490457,-0.18374768873486028]",100.0,"[-0.1700081351634848,-0.06362526310422233]",100.0,"[0.1623369421849538,-0.07396181693102699]",100.0,"[0.12985863998968053,0.1091132283701367]",100.0,"[0.14918318245927556,0.057987497899847085]",100.0,"[0.09107934447730771,0.0046282655721422246]",100.0,"[0.11097690116064743,0.044850371908427694]",100.0,"[-0.16132380110619066,0.10557294111921141]",4.0,"[0.07698055438082063,-0.08359940721709214]",100.0,"[0.08585583078668572,-0.04368761621745845]",100.0,"[-0.03600596069249539,-0.10363154281815368]",4.0,"[0.171187037227596,0.09909089603638083]",100.0,"[-0.1483813618906517,0.061854143708252464]",100.0,"[0.05748337729566975,0.08883411524460044]",100.0,"[-0.07635827154920521,0.0678055743161986]",100.0,"[-0.17833290548009423,-0.0003165922486840953]",100.0,"[-0.0031759722238967323,-0.14061889384159915]",4.0,"[-0.03438370932879316,-0.058430039711079296]",100.0,"[0.014915321468201685,-0.011706951316248876]",100.0,"[-0.06669499137128249,-0.13068637055546378]",100.0,"[0.13478418005021353,-0.11673435416046128]",100.0,"[0.11744155681089566,-0.07516857656635843]",100.0,"[0.16778724876921708,0.018660314050554697]",100.0,"[0.04242041031067097,0.02476639275738587]",100.0,"[-0.0039900685845667885,0.056297911411986624]",100.0,"[-0.0737998361710673,0.17971592250670768]",100.0,"[-0.02619843503238261,0.1258352998009569]",100.0,"[-0.1251586181092665,-0.09396808195288701]",100.0,"[-0.0343097556371261,-0.17865107470699756]",100.0,"[0.02,0.02]",140.7216,0.0,30.0,30.0,9.0,1.0,,,,,,,
,,,,,,,5a1d44eeab721b0001ef9566,6842bbd6679d2d9fbd464d4a,2025-06-06_11h58.55.530,shape_ratio,2024.1.5,Win32,120.4819277,6842b561977af9ba9b0f87ca,,,,,,,,,,,140.7218,141.2216,,,141.472,141.9217,left,,,,,,,,0.5,0.4257,,,,,,,141.2216,141.472,141.9217,"[0.09660514594025442,0.08134088094266839]",100.0,"[0.06309211523876286,-0.10000039587932494]",4.0,"[-0.017251934964822746,0.14786239248218233]",100.0,"[-0.17410769679544752,-0.08092134467071385]",4.0,"[-0.10219977412384122,0.05915702414484069]",4.0,"[-0.15786019190880407,0.10230885967484883]",100.0,"[0.02622382118265586,-0.13081577199788053]",4.0,"[0.0371988001886114,-0.015385298198316525]",100.0,"[-0.15399134665916406,0.021568601590355365]",100.0,"[-0.018702106590505724,-0.11149035731043189]",4.0,"[-0.006365222117799253,-0.018906775082549954]",100.0,"[0.11492188109618724,-0.007094415366041145]",100.0,"[-0.1938537873714336,0.027904263260787727]",100.0,"[0.052336890596899,0.18434636771828772]",100.0,"[-0.12101071904820741,-0.08203866314369654]",100.0,"[-0.027993301364663967,0.08024342080084833]",100.0,"[-0.059819616904660575,0.17755262077963935]",100.0,"[0.15786728875707612,0.10789895342155147]",100.0,"[0.1867844672885245,-0.022892867504557313]",4.0,"[-0.0353888827441818,0.03770054679764205]",4.0,"[-0.06113997815208458,-0.18729950397285014]",100.0,"[0.1339068893208018,-0.08684757368325861]",4.0,"[-0.04792261566415918,-0.015839434671970264]",4.0,"[-0.1238911895250697,-0.12302271447269891]",100.0,"[-0.06271535930206575,-0.09730154806570948]",4.0,"[0.09406176523440361,-0.07461819862650078]",4.0,"[-0.18083205655000034,-0.041469659293588576]",4.0,"[0.09460774612723864,0.14492657496318848]",4.0,"[-0.10132556979052007,-0.17112629192225964]",100.0,"[-0.016716674689960166,-0.18243759959011738]",4.0,"[0.02074471170633788,0.1142369519899345]",4.0,"[0.025477545308323964,-0.08256447661332458]",4.0,"[0.02,0.02]",143.0216,0.0,31.0,31.0,110.0,1.0,,,,,,,
,,,,,,,5a1d44eeab721b0001ef9566,6842bbd6679d2d9fbd464d4a,2025-06-06_11h58.55.530,shape_ratio,2024.1.5,Win32,120.4819277,6842b561977af9ba9b0f87ca,,,,,,,,,,,143.0218,143.5216,,,143.7717,144.2717,right,,,,,,,,0.6,0.4862,,,,,,,143.5216,143.7717,144.2717,"[0.07865613723540496,-0.04489846910603341]",100.0,"[-0.06735746302925477,0.02133571808488868]",100.0,"[-0.057693179845610856,0.09884825673767163]",100.0,"[-0.1326636564094009,-0.04825376309137684]",4.0,"[-0.05459327577164954,-0.16876691998946014]",100.0,"[0.057236123677831416,0.11468402500073507]",100.0,"[0.022697560580691892,0.1538133981938516]",100.0,"[0.020312631065127266,-0.12197859130156799]",100.0,"[-0.0062465813870607725,-0.19201505108143116]",4.0,"[-0.08645672507624824,-0.07673314988969973]",100.0,"[-0.1879014561476024,0.022543007861235545]",4.0,"[-0.13691489405749988,0.10068329534536503]",4.0,"[0.03129144101271763,0.04588578228809474]",4.0,"[-0.06492697067308598,0.16918816452212987]",100.0,"[-0.1779009233110722,-0.034399528818008875]",100.0,"[0.02821703707962704,0.0055090698311671205]",4.0,"[-0.019924654867110553,-0.11045229686970172]",4.0,"[-0.11501144644572106,0.1373724863701568]",100.0,"[-0.1493053478844403,0.009499964146275752]",100.0,"[-0.01555337603609137,0.04979585039353336]",100.0,"[0.12831620880794753,0.0054906575297890186]",4.0,"[0.16065424689111538,-0.06273992659291895]",4.0,"[-0.10895385826656961,-0.1415312371913729]",100.0,"[-0.17565571923625908,-0.09297223665723035]",4.0,"[0.05879128188086322,0.18820637216355668]",100.0,"[0.013009791370547504,0.1980650258880682]",100.0,"[-0.1504916185433706,-0.12595774078370597]",100.0,"[0.15733026656436797,0.07637826083122935]",4.0,"[0.07853200684070014,-0.12061248225064693]",4.0,"[-0.09972336181378441,-0.022591129502522088]",4.0,"[0.14251695645875473,0.12754862551754173]",100.0,"[-0.004154441785013603,-0.03531617359272448]",100.0,"[0.02,0.02]",145.3717,0.0,32.0,32.0,59.0,1.0,,,,,,,
,,,,,,,5a1d44eeab721b0001ef9566,6842bbd6679d2d9fbd464d4a,2025-06-06_11h58.55.530,shape_ratio,2024.1.5,Win32,120.4819277,6842b561977af9ba9b0f87ca,,,,,,,,,,,145.3718,145.8716,,,146.1218,146.5051,right,,,,,,,,0.9,0.3761,,,,,,,145.8716,146.1218,146.5051,"[-0.03523028518948834,-0.014706376857395353]",100.0,"[0.09752825092490208,-0.16399992477707265]",100.0,"[0.12070709776647418,-0.0021151659764581782]",100.0,"[-0.10963901452880986,-0.004598456864960831]",100.0,"[0.03331751320997106,-0.12589164989078247]",4.0,"[0.08010463020311488,0.09550857108966194]",100.0,"[0.07005319353817518,-0.07743106138686041]",100.0,"[-0.11710642586121896,0.04129967886070256]",100.0,"[-0.19065328381162555,-0.028957706395495397]",100.0,"[0.018796990066633535,0.1244989279840711]",100.0,"[-0.058051202156948055,-0.08666457197786251]",100.0,"[0.11830164119762973,-0.0835522158760155]",100.0,"[-0.09380048086403428,-0.04991804251728204]",4.0,"[0.021489336741039443,-0.03318819335257404]",100.0,"[-0.039236982428970654,0.11407467286317372]",100.0,"[-0.0949388312594664,0.12411867739760224]",100.0,"[-0.07291663470414508,0.08420268642596869]",100.0,"[-0.003358844727849096,0.036933879689718924]",4.0,"[0.06525376388093188,-0.02977283361466444]",100.0,"[-0.03677833487088933,0.06465325475730609]",100.0,"[-0.1268093437897713,-0.11132569676078646]",100.0,"[0.1574652108151544,-0.11805672899330122]",100.0,"[0.1291683928467726,0.042633449094086444]",100.0,"[-0.06376879090459783,0.029502225996664164]",100.0,"[-0.1442782166672902,-0.03557307175586766]",100.0,"[-0.04789287623764018,0.19189725639166197]",100.0,"[-0.18840650138069479,0.03641804661123199]",100.0,"[-0.17580692086366337,0.08900207552949164]",100.0,"[-0.13211770933515699,0.10729379505046586]",100.0,"[0.08730664847943545,-0.12460276386482409]",100.0,"[-0.01939131693379887,-0.15217517595240135]",100.0,"[0.0657360388303536,0.16202487970480733]",100.0,"[0.02,0.02]",147.605,0.0,33.0,33.0,0.0,1.0,,,,,,,
,,,,,,,5a1d44eeab721b0001ef9566,6842bbd6679d2d9fbd464d4a,2025-06-06_11h58.55.530,shape_ratio,2024.1.5,Win32,120.4819277,6842b561977af9ba9b0f87ca,,,,,,,,,,,147.6051,148.105,,,148.3551,148.805,right,,,,,,,,0.45,0.4391,,,,,,,148.1051,148.3551,148.8051,"[-0.07095839505224863,-0.12418652284437137]",4.0,"[-0.13649225802997986,-0.04050944750676944]",100.0,"[0.05621142040888722,-0.11237345493058104]",100.0,"[0.16929785070404213,0.055719685219981475]",4.0,"[0.015360496072341585,-0.1105759505220565]",100.0,"[0.12741517631027133,-0.13284465161457426]",100.0,"[0.07744233833190603,-0.034769251820124136]",100.0,"[0.06398324243624205,0.15008543403139898]",100.0,"[-0.035422256350484294,0.12526615314187503]",100.0,"[-0.009500441831744349,0.07586213979315123]",100.0,"[0.0022535876055761457,0.16020656922525942]",4.0,"[-0.09853217385619795,0.14557818070651934]",4.0,"[-0.009466270693684373,-0.024697184794434484]",4.0,"[0.07467266324748274,0.06920820026756148]",4.0,"[-0.15891191362406762,-0.11039531908976895]",4.0,"[0.1638523602273367,-0.018465017733260213]",4.0,"[-0.08577154538513088,-0.015939585680141553]",4.0,"[-0.08331573675927603,-0.06760619498371517]",100.0,"[-0.012969054446646694,-0.19682076777660465]",100.0,"[-0.1673393675901322,0.04517200378358873]",4.0,"[-0.18446229828932645,0.0009311501062050048]",4.0,"[-0.03715402340304277,0.015403945300386261]",100.0,"[-0.10216996484176175,0.09059655422395382]",4.0,"[0.1100383874074998,-0.071764626041852]",4.0,"[0.1205465643831477,0.10556364974463996]",100.0,"[-0.044181791388663016,-0.08641710543845843]",4.0,"[0.009700585649328776,0.020083918813099465]",4.0,"[-0.13060109749234877,0.0032213225995751382]",4.0,"[0.07401043950296703,0.10965613683482878]",4.0,"[-0.03892978952553071,0.1794011938487794]",4.0,"[-0.0920434751949473,0.024523642286555576]",100.0,"[-0.1729752226979402,0.09904348090385728]",100.0,"[0.02,0.02]",149.905,0.0,34.0,34.0,131.0,1.0,,,,,,,
,,,,,,,5a1d44eeab721b0001ef9566,6842bbd6679d2d9fbd464d4a,2025-06-06_11h58.55.530,shape_ratio,2024.1.5,Win32,120.4819277,6842b561977af9ba9b0f87ca,,,,,,,,,,,149.9052,150.405,,,150.6552,151.0551,right,,,,,,,,0.6,0.3944,,,,,,,150.405,150.6552,151.0551,"[-0.0704953383649941,0.11975595156595731]",100.0,"[0.025080250906735626,0.125855388450692]",4.0,"[-0.022756272815976742,-0.12486573900996364]",4.0,"[-0.17541936494518015,0.05586781161295344]",100.0,"[-0.012349183455510847,0.01497226803054539]",4.0,"[-0.12299373738803974,-0.08879046968995032]",100.0,"[0.18150420556572275,-0.061289282365554525]",4.0,"[-0.08150885332942676,-0.05379643867788794]",100.0,"[0.13219195079485896,0.07508579851249411]",4.0,"[0.054044611160508294,0.07136137706707359]",100.0,"[-0.19275700348681812,-0.04041206267087383]",4.0,"[0.08618068893125777,-0.04116255483552062]",100.0,"[0.1299129026247005,-0.11655073335830192]",4.0,"[0.06909070056455686,-0.12443078904019772]",100.0,"[0.10423279349538711,0.037943098440111116]",4.0,"[0.0017284580660055257,-0.04741478806003206]",100.0,"[0.0524885256409232,-0.07296396066438693]",100.0,"[0.08534713607381209,0.15455259982668532]",100.0,"[-0.1477988189376955,-0.12632530242413]",100.0,"[-0.05329571221370903,-0.17093518945103894]",100.0,"[-0.14379865686808535,-0.01537051843937467]",100.0,"[-0.10962235452178298,0.008099298407941798]",100.0,"[0.1762928970042666,0.0846231572342866]",100.0,"[-0.1733129837407017,-0.08437393978624148]",4.0,"[0.00933480832197948,0.18444550860216374]",100.0,"[0.01066379935831647,0.06491383772392244]",4.0,"[-0.06890390353014925,-0.12874241470764033]",4.0,"[0.10723940539606266,-0.003085088206604203]",4.0,"[0.04938786682180251,-0.00010032565133102153]",100.0,"[-0.023765872686307168,0.1320770324285864]",100.0,"[-0.025428342474998627,-0.08306445961182937]",100.0,"[-0.17464903034403112,0.015721199571941385]",4.0,"[0.02,0.02]",152.1551,0.0,35.0,35.0,40.0,1.0,,,,,,,
,,,,,,,5a1d44eeab721b0001ef9566,6842bbd6679d2d9fbd464d4a,2025-06-06_11h58.55.530,shape_ratio,2024.1.5,Win32,120.4819277,6842b561977af9ba9b0f87ca,,,,,,,,,,,152.1552,152.6551,,,152.9052,153.4386,right,,,,,,,,0.5,0.5205,,,,,,,152.6551,152.9052,153.4386,"[0.18394026393127155,0.03833734110713148]",4.0,"[0.13353131466133453,0.12597252903447792]",4.0,"[0.053646152428206355,-0.06240404321141387]",100.0,"[0.1753980208774796,-0.008706056245235417]",4.0,"[-0.12444407691679905,0.1092516988323867]",100.0,"[-0.012170585072967253,-0.10612232986673284]",4.0,"[-0.16841816730312517,-0.003979378646133663]",100.0,"[-0.01974009747323042,-0.14934638051715332]",4.0,"[-0.09103328559640486,0.01932839718708881]",100.0,"[0.012057272223707484,-0.04906059777892966]",4.0,"[-0.0013502913766850724,0.030192228611076514]",4.0,"[0.10073722994964575,-0.05423345122923151]",100.0,"[-0.04185903919490509,0.10868467912256417]",100.0,"[0.14775085525908999,-0.05123727565189545]",4.0,"[0.1367980219503314,0.02150249383456206]",4.0,"[0.04552836378679931,0.0726102332358264]",4.0,"[-0.06452834796910145,-0.15848669973785856]",100.0,"[-0.028798919431931053,0.1916794203509903]",4.0,"[0.06524650142329744,0.10926562119178923]",100.0,"[0.16584674999565338,-0.09612590034280366]",100.0,"[0.08218050070360303,0.01232043550037838]",4.0,"[0.09208770731990416,0.14922025404775047]",4.0,"[0.037621838026379674,-0.16139354792679056]",4.0,"[-0.05731244875555618,-0.05279272010145798]",100.0,"[-0.17438425660396442,0.06005718865777828]",4.0,"[-0.0354284764858103,-0.016277200688712856]",100.0,"[-0.13350973122660847,0.06957861900832153]",100.0,"[-0.12982782028096304,-0.03420017029826994]",100.0,"[0.10389496365931877,0.09031434539852345]",100.0,"[-0.10120752927360417,-0.08661844713365405]",100.0,"[0.024715004170796074,0.19467434046289367]",4.0,"[-0.10517210760106,0.16297764737838508]",100.0,"[0.02,0.02]",154.5384,0.0,36.0,36.0,100.0,1.0,,,,,,,
,,,,,,,5a1d44eeab721b0001ef9566,6842bbd6679d2d9fbd464d4a,2025-06-06_11h58.55.530,shape_ratio,2024.1.5,Win32,120.4819277,6842b561977af9ba9b0f87ca,,,,,,,,,,,154.5386,155.0385,,,155.2885,155.6552,left,,,,,,,,0.45,0.3532,,,,,,,155.0385,155.2885,155.6552,"[0.08370289624876574,-0.10382757802936304]",4.0,"[0.17552869867370055,-0.025937812068153546]",100.0,"[-0.10026038569409507,-0.07819106526474731]",4.0,"[0.16094029874287022,-0.11228919144592985]",100.0,"[0.14814530746264068,0.07994681884347396]",4.0,"[0.0030445938584962137,-0.08507621133924707]",4.0,"[0.04876782044649782,0.057864853955622915]",4.0,"[-0.043854798794588194,-0.15719596322472376]",4.0,"[0.13193382324252814,-0.040203786546046776]",4.0,"[-0.11692098360680583,0.08411477471596424]",4.0,"[-0.1595614544389636,-0.0684959565014826]",100.0,"[0.009020532295738695,0.03473061971425962]",4.0,"[0.09134227456515162,0.13783727140015226]",4.0,"[0.18732719986282936,0.013462879708548592]",4.0,"[0.09218236774762299,0.08346896106075428]",100.0,"[-0.09146925008272358,0.025899955412981634]",4.0,"[-0.060499291925605374,0.13414376117542368]",100.0,"[0.0673856535446072,-0.1412460239809772]",4.0,"[-0.1830467318861549,0.025186128534706885]",4.0,"[0.022720622865555325,-0.1658536577670351]",4.0,"[0.10039660481693566,0.03636908366636037]",100.0,"[-0.10490694646655764,0.14844414600380293]",100.0,"[-0.1541859603661756,0.06402760575466736]",100.0,"[0.07047886782850446,-0.0011824525023524644]",100.0,"[0.036021897038020265,0.16489152469043616]",4.0,"[0.05779722347602671,-0.04203344476901854]",100.0,"[0.11385628197052983,-0.13296232185970533]",4.0,"[-0.035766054834401886,0.005197968957926726]",100.0,"[0.0470052638412855,0.12553718258864724]",100.0,"[-0.026489658712278215,0.15718915310528186]",100.0,"[0.009510045793078934,-0.020691269702729886]",100.0,"[-0.06610222691190135,0.18114235916449226]",4.0,"[0.02,0.02]",156.7554,0.0,37.0,37.0,147.0,1.0,,,,,,,
,,,,,,,5a1d44eeab721b0001ef9566,6842bbd6679d2d9fbd464d4a,2025-06-06_11h58.55.530,shape_ratio,2024.1.5,Win32,120.4819277,6842b561977af9ba9b0f87ca,,,,,,,,,,,156.7556,157.2554,,,157.5052,157.8552,left,,,,,,,,0.1,0.3363,,,,,,,157.2554,157.5052,157.8552,"[-0.09013790159976752,-0.078779629148479]",4.0,"[0.15444762508543128,-0.06922893561230553]",4.0,"[0.09592940888354509,-0.10890764753412993]",4.0,"[-0.15334415523995132,-0.08655500190935704]",4.0,"[0.18305685043631476,0.045062412095556476]",4.0,"[0.09282168022989194,0.1538033455217363]",4.0,"[-0.00685278944045052,0.08140430255548632]",4.0,"[0.040970751157862785,-0.18592859153047878]",4.0,"[0.15268553846951827,-0.021147004223008515]",100.0,"[-0.06586801081816601,0.11733025245209062]",4.0,"[-0.047460314548414394,-0.07739821481230963]",4.0,"[-0.10953070385786828,-0.13027287016993425]",4.0,"[-0.17368649798665975,0.03926628130565001]",4.0,"[-0.01807979953668995,-0.12488970938023927]",4.0,"[0.16384282936715533,0.08596424633681252]",4.0,"[0.11150434668487832,0.030858334708860045]",4.0,"[-0.0887917483237436,0.08142653742036919]",4.0,"[0.15120444652686021,-0.11757131125012876]",100.0,"[0.10947559008045729,0.10177470204079393]",4.0,"[-0.07364014614285218,-0.0270065188346189]",4.0,"[-0.06261284564771973,0.15844673445565965]",4.0,"[0.017480844520350116,0.12134337916242531]",4.0,"[-0.0621520552353666,0.04474789425281224]",4.0,"[0.1419551171796734,0.12779796410025646]",4.0,"[0.02872385275805417,0.05019727913020855]",4.0,"[0.007268439809547982,-0.046497428468278236]",100.0,"[0.02586033532042571,-0.11027631600149397]",4.0,"[-0.01637680612931187,-0.0064706413343775466]",4.0,"[-0.1869573929389347,-0.011802168315100683]",4.0,"[-0.06498977771292418,-0.15944379964373784]",4.0,"[-0.12910299924242427,-0.01581963355622897]",4.0,"[0.06150324554128855,-0.1426083831162063]",4.0,"[0.02,0.02]",158.9551,0.0,38.0,38.0,191.0,1.0,,,,,,,
,,,,,,,5a1d44eeab721b0001ef9566,6842bbd6679d2d9fbd464d4a,2025-06-06_11h58.55.530,shape_ratio,2024.1.5,Win32,120.4819277,6842b561977af9ba9b0f87ca,,,,,,,,,,,158.9553,159.4552,,,159.7052,160.0721,right,,,,,,,,0.55,0.3529,,,,,,,159.4553,159.7052,160.0721,"[0.16107722448858408,0.008091140854385722]",4.0,"[-0.12092181771108439,0.08868441672221127]",4.0,"[0.10604538728334305,-0.05408121568715153]",4.0,"[-0.1034213376984089,-0.10985186615104624]",4.0,"[0.004124409013380252,-0.16724987972219538]",100.0,"[0.11358448683382559,0.06736996589473547]",100.0,"[-0.00418824019486041,-0.03631386489757704]",100.0,"[0.05142690986416077,-0.02186302528524747]",100.0,"[-0.0476459435313666,0.056411378478331047]",4.0,"[0.036208127662600204,0.09445956785168295]",100.0,"[0.025713365949009512,-0.09832282979226882]",4.0,"[-0.15779259046054211,-0.007064351318002045]",100.0,"[0.13940773113937918,-0.10891963513072837]",4.0,"[0.05604921704151123,0.04923191820028219]",100.0,"[0.1039373756250997,0.11712046281591791]",4.0,"[-0.10911569802540912,0.16390506011877065]",100.0,"[-0.1877329121054862,-0.042078736004628386]",100.0,"[0.08389191821346455,-0.1335823104877964]",100.0,"[0.023132509760348176,0.17454875573812295]",100.0,"[-0.07560422856812811,-0.15851837430575133]",100.0,"[-0.019336332994565743,0.08725257836593761]",100.0,"[-0.035551904051201025,-0.12631792959385515]",4.0,"[-0.10605532417391716,-0.04807490303708294]",4.0,"[-0.15965341229873434,-0.10685760360926166]",100.0,"[-0.18088421147191092,0.05344686364792221]",4.0,"[-0.030251271856559465,-0.19579940252079556]",100.0,"[0.0755189042139867,-0.17803146391071709]",100.0,"[0.1559903408503628,0.09633500175985979]",4.0,"[-0.038248827969329734,-0.012976003947316878]",4.0,"[0.06638719619167958,0.13249311161847843]",4.0,"[-0.07272025529879783,0.1472630930074446]",100.0,"[0.0015023200171293155,0.05112639370901291]",100.0,"[0.02,0.02]",161.1719,0.0,39.0,39.0,73.0,1.0,,,,,,,
,,,,,,,5a1d44eeab721b0001ef9566,6842bbd6679d2d9fbd464d4a,2025-06-06_11h58.55.530,shape_ratio,2024.1.5,Win32,120.4819277,6842b561977af9ba9b0f87ca,,,,,,,,,,,161.172,161.6719,,,161.9219,162.3056,left,,,,,,,,0.1,0.3675,,,,,,,161.6719,161.9219,162.3056,"[0.028274505838269747,-0.0017736107236911618]",4.0,"[0.06363744304208618,-0.15617849002187117]",100.0,"[0.1434962003124934,0.05341407677927964]",4.0,"[0.04379549484236321,0.037848020318033165]",4.0,"[-0.03914837590266718,0.01779911217453894]",4.0,"[0.07478407247204356,0.06883431789980331]",4.0,"[-0.09035202624034239,-0.034322021606244035]",4.0,"[-0.05262636517885868,-0.14831161345468918]",4.0,"[0.18551172212913977,0.027129837485623545]",4.0,"[-0.17139684838571997,0.05017830397553259]",4.0,"[0.10219318258546237,-0.08753851411500584]",4.0,"[-0.14132039111709244,-0.13569141050428238]",4.0,"[-0.012611210540272564,-0.117658083113973]",4.0,"[-0.1470690048416812,-0.056386900920252864]",4.0,"[0.10667027997361597,-0.007835277615829075]",4.0,"[0.08722727406910762,0.1479527097192874]",100.0,"[0.14807201570438988,-0.05500049688739218]",4.0,"[-0.028275637706709864,-0.056611035594414466]",4.0,"[-0.015615753481949546,0.06946211709572911]",4.0,"[0.13975587980631646,-0.13361016660399494]",4.0,"[0.1714320059557071,-0.08971970950546782]",4.0,"[0.14954510578022429,-0.014713791571993939]",4.0,"[0.020666159854451537,0.1128065567318794]",100.0,"[0.03751591258204166,0.18454697209527976]",4.0,"[-0.10535918006122155,-0.11459405011323211]",4.0,"[-0.07486760575349921,0.09229018011129878]",4.0,"[0.012417744386163405,-0.04356161171697894]",4.0,"[-0.039015138339012094,0.13988671956736967]",4.0,"[-0.17713839191524486,-0.010895409681298152]",4.0,"[0.044068907864283885,-0.0959148637536222]",4.0,"[-0.13175805022116946,0.08760905413267048]",4.0,"[-0.0147709010137041,0.18681816486679909]",4.0,"[0.02,0.02]",163.4052,0.0,40.0,40.0,195.0,1.0,,,,,,,
,,,,,,,5a1d44eeab721b0001ef9566,6842bbd6679d2d9fbd464d4a,2025-06-06_11h58.55.530,shape_ratio,2024.1.5,Win32,120.4819277,6842b561977af9ba9b0f87ca,,,,,,,,,,,163.4053,163.9052,,,164.1554,164.4718,right,,,,,,,,0.4,0.2942,,,,,,,163.9053,164.1553,164.4719,"[0.16311078709298096,0.09039350894419289]",4.0,"[-0.02406044538690182,0.09178421950956082]",100.0,"[0.18842367493921294,0.015504281241128489]",4.0,"[0.04482370338839846,0.022167609126077247]",4.0,"[0.17942566097445484,-0.050294265203094275]",4.0,"[-0.17994483765237315,-0.07766850799542876]",100.0,"[-0.024208961144742833,0.1480602147502914]",4.0,"[-0.09604295844260795,-0.08222425111280304]",4.0,"[-0.10058541487359211,0.0495006284580719]",4.0,"[0.09681030393098085,0.017540905221446006]",100.0,"[0.025300426873408027,-0.03328603370658516]",4.0,"[0.08188293489946624,-0.11124236530261787]",4.0,"[0.013152121886853666,0.18275812467194208]",100.0,"[-0.15669556303698834,0.10065598285645824]",4.0,"[-0.07144248307045313,-0.03312997738668219]",100.0,"[0.05156609653682277,0.09649323511754561]",4.0,"[-0.1788375584576784,0.04281621867409151]",4.0,"[-0.09339505589611044,0.0004375497205442021]",100.0,"[0.13084042215299793,-0.07821759771836423]",4.0,"[0.12290847521983356,0.0775586810457652]",4.0,"[-0.08786107714884146,-0.14911113673874016]",4.0,"[-0.13817776262600184,-0.04819870535927107]",4.0,"[-0.04750703602455331,-0.07557807710995702]",100.0,"[-0.08594594837744211,0.1508837989007024]",4.0,"[-0.039761600187832764,0.04256170617257021]",100.0,"[0.09416037724948054,-0.05496450927355493]",100.0,"[-0.005782676353023091,-0.06105123315073483]",100.0,"[0.14570769989025334,0.12981423105493725]",4.0,"[0.03348000254508651,-0.10709098344989344]",100.0,"[-0.03913983451502909,-0.19405100538857162]",100.0,"[0.12934573758524748,-0.023119231301220913]",4.0,"[-0.14837178109354032,0.008960867029208383]",100.0,"[0.02,0.02]",165.5718,0.0,41.0,41.0,179.0,1.0,,,,,,,
,,,,,,,5a1d44eeab721b0001ef9566,6842bbd6679d2d9fbd464d4a,2025-06-06_11h58.55.530,shape_ratio,2024.1.5,Win32,120.4819277,6842b561977af9ba9b0f87ca,,,,,,,,,,,165.572,166.0719,,,166.322,166.822,right,,,,,,,,0.45,0.4877,,,,,,,166.0719,166.322,166.822,"[-0.10022722882128533,-0.09011440804689091]",100.0,"[-0.05864053492324506,0.053616327909645774]",100.0,"[0.14892847300441225,-0.12156313596528424]",4.0,"[0.08939163331206852,0.17704293417775288]",100.0,"[0.19334292595853797,0.040504344296999124]",4.0,"[0.01809945779510804,-0.12812058836216886]",4.0,"[-0.14405532680161412,-0.12157533726924238]",4.0,"[0.00591332653727161,-0.19410028308016475]",100.0,"[-0.0577323618939286,-0.1721323583809148]",4.0,"[0.007770478178707986,0.04290960222857364]",4.0,"[-0.006154899244581921,0.11245376487794811]",100.0,"[0.13139765401260886,0.05008173304642633]",4.0,"[0.1517359478166397,0.11015359201307026]",4.0,"[-0.13162980936497942,0.07221146918097215]",100.0,"[0.0785147035783854,-0.03658130391015965]",4.0,"[-0.18511784102679776,0.06805823350080109]",100.0,"[0.06256604946710319,-0.09948977080463581]",4.0,"[-0.09064240321846438,0.02186629508396222]",4.0,"[-0.12310301756487046,-0.04110864223057034]",100.0,"[-0.039387780251650475,-0.13633240907842778]",100.0,"[-0.13045662794697968,0.008082689762330661]",4.0,"[0.08301950890959046,0.12115851561589124]",4.0,"[0.05055710843925828,0.1491226568440405]",100.0,"[0.109727191900188,0.013155532330784455]",100.0,"[0.04099283916815249,0.1952343054474996]",4.0,"[0.05468420479656759,-0.17467918338099805]",4.0,"[-0.003550075520320295,-0.08367358693471069]",100.0,"[0.06315826125697922,0.041220234017107754]",4.0,"[0.14719680879475577,-0.0763915561891907]",100.0,"[-0.05376492309507433,0.09748401195698062]",100.0,"[-0.10097920462334553,0.10052499710646383]",4.0,"[-0.035458002085783674,-0.007939645434215464]",4.0,"[0.02,0.02]",167.9219,0.0,42.0,42.0,120.0,1.0,,,,,,,
,,,,,,,5a1d44eeab721b0001ef9566,6842bbd6679d2d9fbd464d4a,2025-06-06_11h58.55.530,shape_ratio,2024.1.5,Win32,120.4819277,6842b561977af9ba9b0f87ca,,,,,,,,,,,167.9221,168.4219,,,168.672,168.9886,right,,,,,,,,0.45,0.3056,,,,,,,168.4219,168.672,168.9887,"[0.0077012990321031595,-0.0023605973601741014]",4.0,"[-0.16666851624274287,-0.08135532732552951]",4.0,"[0.0639684151972304,-0.1507148727023753]",4.0,"[0.09662326545644781,-0.11598543606695821]",100.0,"[-0.0886186680082356,-0.09023472997506851]",100.0,"[0.029469656909099886,0.19242034453430665]",4.0,"[0.06663296084215378,0.14977427135056898]",4.0,"[0.04143891324431809,0.06306931194545581]",4.0,"[-0.045719614765332574,0.15742409378318087]",4.0,"[-0.12452005666043796,-0.13838837843442478]",100.0,"[0.13664480270299653,0.019720072465212762]",4.0,"[-0.11692178639762794,-0.0315983286944192]",4.0,"[0.019577734970611424,-0.13590602224642373]",100.0,"[0.1020188537108346,-0.04377838127629157]",100.0,"[-0.11671093368379402,0.091303703866815]",4.0,"[-0.05388794058380245,-0.13110195149440573]",4.0,"[-0.00597505182734597,-0.08655669517040222]",4.0,"[0.01661703007720451,-0.04668381198757573]",4.0,"[0.19602607374951878,0.011645576281333586]",100.0,"[-0.08150619612284997,0.11724543130967813]",100.0,"[-0.13913213349936548,0.14110224196695176]",100.0,"[-0.0998218118051881,0.0213535831149508]",100.0,"[-0.04874106787231165,0.0829159541286688]",100.0,"[0.16031196591164992,-0.10080422629515541]",100.0,"[-0.159821367188252,0.0600265565414891]",100.0,"[-0.0065249917003882135,0.14434551573702056]",100.0,"[0.14408935952031465,-0.025352852259340582]",4.0,"[0.112745486763249,0.13900151974391034]",4.0,"[-0.05603343976575936,-0.049219388117086184]",4.0,"[0.12707201117363584,0.079078003453954]",4.0,"[0.09254644531873805,0.027813293902624187]",100.0,"[0.19003688549502756,-0.03508875724057941]",4.0,"[0.02,0.02]",170.0886,0.0,43.0,43.0,134.0,1.0,,,,,,,
,,,,,,,5a1d44eeab721b0001ef9566,6842bbd6679d2d9fbd464d4a,2025-06-06_11h58.55.530,shape_ratio,2024.1.5,Win32,120.4819277,6842b561977af9ba9b0f87ca,,,,,,,,,,,170.0887,170.5885,,,170.8388,171.2387,right,,,,,,,,0.5,0.3794,,,,,,,170.5886,170.8388,171.2387,"[-0.07649792591815804,-0.0582866543022333]",4.0,"[0.023391083163765657,0.1814836549906052]",4.0,"[-0.012686584936706937,-0.06526504607260457]",4.0,"[0.12791170943508218,0.1320505898123979]",100.0,"[0.03548181368343297,-0.07109720257968424]",100.0,"[0.05428930545420995,0.03795463447150021]",100.0,"[-0.11411411840764991,0.10155483555506427]",4.0,"[0.16284549877760313,0.03941763144461137]",100.0,"[0.08667539056139358,-0.15397524797429074]",100.0,"[-0.1743812184527607,0.0588470786027501]",100.0,"[-0.07936608586777869,-0.1326098086800911]",100.0,"[0.015364007359803714,-0.15600061593368597]",4.0,"[0.0798887947605032,0.14184457730943173]",100.0,"[-0.07625159409636267,0.06637908138883274]",100.0,"[-0.016069324898493113,-0.12012536812568485]",100.0,"[-0.13940318631586554,0.02927813775026503]",4.0,"[-0.0017636299317916534,-0.0067674672132510974]",4.0,"[-0.041983782328698496,-0.0035576598873935895]",4.0,"[-0.0503333068553368,0.13721549439458997]",4.0,"[0.16309492900914763,0.0992750935574397]",100.0,"[0.12139401322533865,-0.01667983392166687]",100.0,"[-0.15054349606753845,-0.06663983215859116]",100.0,"[0.14930423223618294,-0.053137520387326755]",4.0,"[0.061560269466143874,-0.025550523687286518]",100.0,"[-0.07148108835836171,-0.1786521166231677]",100.0,"[0.11348351276216499,0.055433012085192565]",4.0,"[-0.16396566657386746,0.09932573508978113]",4.0,"[-0.18420193465583942,-0.027648763913507658]",4.0,"[0.07481435877864136,0.07309481986069462]",100.0,"[0.15771710626881644,-0.10890751864074616]",4.0,"[-0.11218832951912731,0.14349180170064804]",4.0,"[-0.101241343143544,0.014859219466647776]",4.0,"[0.02,0.02]",172.3387,0.0,44.0,44.0,91.0,1.0,,,,,,,
,,,,,,,5a1d44eeab721b0001ef9566,6842bbd6679d2d9fbd464d4a,2025-06-06_11h58.55.530,shape_ratio,2024.1.5,Win32,120.4819277,6842b561977af9ba9b0f87ca,,,,,,,,,,,172.3388,172.8386,,,173.0886,173.5554,right,,,,,,,,0.5,0.4571,,,,,,,172.8386,173.0886,173.5554,"[0.07905638558155006,-0.06907022936035104]",100.0,"[0.0816114106578486,0.052864729269015365]",100.0,"[-0.014151274401490353,-0.16289141886787312]",100.0,"[-0.18351289288408923,0.04079542202879709]",4.0,"[-0.14866987151739638,0.06846234762184078]",4.0,"[-0.1143463612550926,-0.11798058544699944]",4.0,"[0.018028398743906226,-0.06041532083128901]",100.0,"[0.004390182303307405,-0.11279777093531157]",4.0,"[-0.14548119946649757,0.006068512112013372]",4.0,"[0.08211518765123854,-0.11563558362690272]",4.0,"[-0.06057626985242771,-0.0008159965905572733]",4.0,"[-0.1800567468268909,-0.0706701743038326]",100.0,"[-0.04668463711182791,-0.042409274966253234]",100.0,"[-0.04136950460138692,0.06839875645220285]",100.0,"[0.13969208205047776,-0.13319486946152828]",100.0,"[0.11754482018080857,0.08617574558142316]",100.0,"[0.12090443392647768,-0.022477800099045084]",100.0,"[0.18650713799043234,0.03016033867246642]",4.0,"[-0.046810132426418224,0.1267693669470665]",4.0,"[0.05264888739718908,-0.17483929170518359]",4.0,"[-0.020951667303458415,0.16579551698054726]",4.0,"[-0.06124111763562845,-0.154759951021105]",100.0,"[0.15820598144521483,0.1050411333321585]",4.0,"[0.1796849213823505,-0.07082142316266639]",100.0,"[-0.08670342334176813,0.1029037266318328]",100.0,"[0.011386831992429961,0.07120863632889425]",4.0,"[0.044341904735926876,0.14302691530542916]",100.0,"[-0.11257785744889101,-0.06638007481569888]",4.0,"[-0.017569999403242713,-0.009261878717931313]",4.0,"[-0.07415878520375878,-0.10746408988833342]",100.0,"[0.0748835630586645,-0.0114593022275815]",4.0,"[0.002557564657399767,0.12873134775606496]",100.0,"[0.02,0.02]",174.6553,0.0,45.0,45.0,93.0,1.0,,,,,,,
,,,,,,,5a1d44eeab721b0001ef9566,6842bbd6679d2d9fbd464d4a,2025-06-06_11h58.55.530,shape_ratio,2024.1.5,Win32,120.4819277,6842b561977af9ba9b0f87ca,,,,,,,,,,,174.6554,175.1554,,,175.4054,175.922,right,,,,,,,,0.55,0.5081,,,,,,,175.1554,175.4054,175.922,"[0.04402976785579074,0.15317731375503646]",100.0,"[-0.11385813825141428,-0.08709139797018024]",4.0,"[-0.12520929082273685,0.010407249994665285]",100.0,"[0.10671318014744022,0.07845629948446779]",4.0,"[0.14784632341004103,-0.07534487391796983]",4.0,"[0.003732796850255393,0.060302523710089116]",4.0,"[0.04896272927285188,-0.13912743129104632]",4.0,"[-0.047499517345943876,-0.12222419706637808]",100.0,"[0.16459098059445787,0.0654569849388588]",100.0,"[-0.11106276907376092,0.13448143028752876]",4.0,"[0.06152767360400464,0.055848207531011086]",100.0,"[-0.02401620214901537,-0.1731751760467836]",100.0,"[0.15921876430588064,0.015315340606730178]",4.0,"[-0.17971421772933877,0.021233854956369935]",100.0,"[-0.06736395817157294,0.18339814064174892]",100.0,"[0.1114886139450302,0.1320311720452587]",100.0,"[-0.15525463419994726,0.05559514484043793]",4.0,"[-0.1007717905458095,-0.035415670786636794]",4.0,"[-0.07301088686765735,0.02775579830989773]",100.0,"[0.02407763782771954,-0.06424827614261347]",100.0,"[0.013675286104511396,-0.01329152520466843]",4.0,"[-0.11101483085665867,0.054697635644593796]",100.0,"[-0.19214939914534132,-0.05169446573281433]",100.0,"[0.011411337841430164,-0.1928547364902519]",100.0,"[-0.05673141987399071,0.06929061569273379]",4.0,"[0.14364863313993326,-0.03291639742000824]",4.0,"[0.09043446903953305,0.010698414784642151]",4.0,"[0.08016740989673055,-0.11038776229094183]",4.0,"[-0.027128780551553038,0.0000035508190918177386]",100.0,"[0.09356049634566811,-0.038753786342024]",100.0,"[-0.1020514584687552,-0.1613558073425163]",100.0,"[-0.056515039845948835,-0.0766671551482779]",100.0,"[0.02,0.02]",177.022,0.0,46.0,46.0,84.0,1.0,,,,,,,
,,,,,,,5a1d44eeab721b0001ef9566,6842bbd6679d2d9fbd464d4a,2025-06-06_11h58.55.530,shape_ratio,2024.1.5,Win32,120.4819277,6842b561977af9ba9b0f87ca,,,,,,,,,,,177.0221,177.5219,,,177.7721,178.1222,left,,,,,,,,0.4,0.3337,,,,,,,177.522,177.7721,178.1223,"[0.05825512054896416,0.11022502113981276]",100.0,"[-0.11366265089658269,-0.08853048225832556]",100.0,"[0.11154925598303317,-0.15737737369048285]",4.0,"[0.02599703012268613,0.05264310677389059]",100.0,"[0.1872598573379086,-0.03226222986700163]",4.0,"[-0.018188852659654163,0.17973455477692424]",4.0,"[-0.1586812826358614,0.063668205036083]",4.0,"[0.15831124923093892,0.11231292791748058]",100.0,"[-0.16529848441489903,-0.04491133356977647]",100.0,"[-0.09891149788048997,0.0766403096383413]",4.0,"[-0.047670467998833635,-0.12940682527685213]",100.0,"[0.12482907817973472,0.0551916738471247]",4.0,"[-0.17787428963358737,0.02795488488010336]",4.0,"[-0.044829474301985354,0.0686535523967096]",100.0,"[0.02808131787045307,-0.017108880292591003]",4.0,"[-0.10211979510593595,-0.1377018628029783]",4.0,"[0.17669332426910137,0.017470198964891902]",4.0,"[-0.006107506921053145,0.13901273699457575]",100.0,"[0.11482263972509357,0.10811356995243664]",100.0,"[-0.0727198665847339,0.016595403090582647]",4.0,"[-0.12007796382619675,0.0018178516113137417]",100.0,"[0.11110010450362484,-0.09311703541780163]",100.0,"[-0.03471892307958011,-0.17271649258310107]",4.0,"[0.08141989823490547,0.07001978899718247]",4.0,"[-0.14420465353832795,0.12860106257415807]",4.0,"[0.06491100775458307,-0.04112976671446289]",4.0,"[-0.0036920225688215403,-0.046428606411737475]",4.0,"[-0.06942903640240462,-0.029323307709123808]",4.0,"[0.08564573995214014,0.14205944619125913]",4.0,"[0.07242974892267177,-0.1766033199498202]",100.0,"[-0.07853748115973642,0.14094941146647536]",100.0,"[0.13613482828133824,-0.004026126672599682]",4.0,"[0.02,0.02]",179.222,0.0,47.0,47.0,157.0,1.0,,,,,,,
,,,,,,,5a1d44eeab721b0001ef9566,6842bbd6679d2d9fbd464d4a,2025-06-06_11h58.55.530,shape_ratio,2024.1.5,Win32,120.4819277,6842b561977af9ba9b0f87ca,,,,,,,,,,,179.2221,179.722,,,179.9721,180.3721,left,,,,,,,,0.4,0.3976,,,,,,,179.722,179.972,180.3721,"[-0.05517586223555732,-0.08198833192136885]",100.0,"[0.05758990851578678,0.1870131275181857]",4.0,"[0.03621055857400272,-0.04977295566176155]",4.0,"[0.1907527554141446,-0.006033856099575571]",4.0,"[-0.010029513278042076,-0.013075474602137168]",100.0,"[0.12348835315895121,0.10608635062813329]",4.0,"[0.055892279197927025,0.027189377945035616]",100.0,"[0.022220925860857665,-0.1614393211988764]",4.0,"[-0.11988755599233868,0.07225206491865911]",4.0,"[-0.13619271561662333,-0.021972473081926753]",4.0,"[-0.10375889489027763,-0.06431054175258909]",4.0,"[-0.03908913953857002,-0.04294934331903933]",100.0,"[0.14195355712263152,0.04107531467420565]",100.0,"[-0.037412042874258256,0.09885489003835844]",100.0,"[-0.08276871951393348,-0.18176024386489129]",4.0,"[-0.11135508584634894,-0.1485729622688453]",4.0,"[0.09372759403428609,-0.1334919004855823]",4.0,"[-0.07503743917524915,0.11403884392035905]",4.0,"[-0.043715500067021,-0.1506781755199288]",100.0,"[-0.17527168868564263,0.020046953454928323]",100.0,"[0.16970173818838868,0.07005678927906327]",4.0,"[0.03521165047552631,0.10822268940194192]",100.0,"[-0.0057947963029596535,-0.10942175048196595]",4.0,"[-0.17370117208732605,-0.07683873549789114]",4.0,"[0.039673422351790444,-0.11209803358236596]",4.0,"[-0.16223187453315385,0.10913671731141382]",4.0,"[-0.08346549127959818,-0.02961195219696903]",100.0,"[-0.005322366118951814,-0.19107699326165414]",100.0,"[0.09526834816844848,0.04873739416129694]",100.0,"[0.012298820078136923,0.15699117344668298]",4.0,"[-0.16276925771881445,0.0629639100139037]",100.0,"[0.11862073320705563,-0.09125537703955641]",4.0,"[0.02,0.02]",181.472,0.0,48.0,48.0,150.0,1.0,,,,,,,
,,,,,,,5a1d44eeab721b0001ef9566,6842bbd6679d2d9fbd464d4a,2025-06-06_11h58.55.530,shape_ratio,2024.1.5,Win32,120.4819277,6842b561977af9ba9b0f87ca,,,,,,,,,,,181.4722,181.972,,,182.2222,182.6554,right,,,,,,,,0.5,0.4202,,,,,,,181.972,182.2222,182.6555,"[-0.08174183036429622,-0.0038749639844125054]",4.0,"[0.09055182228321965,0.0374917983624633]",100.0,"[0.16641341959657757,-0.05986258667495853]",4.0,"[-0.03732596152775211,0.11505855124039412]",4.0,"[-0.005376563684333596,0.14358325794760482]",100.0,"[-0.009367136339387624,-0.03491273852146353]",4.0,"[-0.07199571902514086,-0.15949304534931294]",100.0,"[-0.19373514016374352,0.004529264152188281]",100.0,"[-0.1023047157583352,-0.12063038338926838]",4.0,"[0.09161270972332711,0.11497486395091196]",100.0,"[0.15398526420746753,-0.12107499395017689]",4.0,"[-0.12175964291506443,-0.02517434307026316]",4.0,"[-0.0524602568687624,-0.11810559144047884]",4.0,"[0.025769504716183327,0.024580562616618933]",100.0,"[0.16242582626862692,0.06988891413760483]",4.0,"[0.048660250114687865,-0.18101495431336434]",100.0,"[0.014924613048441747,-0.10563824750852029]",4.0,"[0.13516106315809684,0.10029680463339595]",4.0,"[0.045498684051778815,0.0803220272754354]",100.0,"[0.12612301489966732,-0.03828141437876995]",4.0,"[0.07913153655510134,-0.13171374939833438]",4.0,"[-0.12339662235528498,0.052030506531570264]",100.0,"[-0.16919962674304234,-0.08494053321016688]",100.0,"[0.10747784555774814,-0.10096362691129071]",4.0,"[-0.1481424012952837,0.0073252429398219]",100.0,"[0.020757074842187497,-0.15093862076975473]",4.0,"[0.042926500729688497,-0.07248737175568447]",100.0,"[-0.05910251140010934,0.06924304247177634]",100.0,"[0.06885773196581459,-0.04025542247343806]",100.0,"[0.1003081208992343,-0.16940839676320166]",4.0,"[-0.15574431371631559,0.08175787868347045]",100.0,"[-0.0480320355877678,0.1599020328559759]",100.0,"[0.02,0.02]",183.7554,0.0,49.0,49.0,94.0,1.0,,,,,,,
