right,left,explain.started,explain.stopped,key_resp_3.keys,key_resp_3.rt,key_resp_3.duration,participant,session,date,expName,psychopyVersion,OS,frameRate,study_id,explain_2.started,explain_2.stopped,key_resp_4.keys,key_resp_4.rt,key_resp_4.duration,explain_3.started,explain_3.stopped,key_resp_5.keys,key_resp_5.rt,key_resp_5.duration,fixation.started,fixation.stopped,practice.started,practice.stopped,response.started,response.stopped,key_resp.keys,feedback.started,feedback.stopped,trials_2.thisRepN,trials_2.thisTrialN,trials_2.thisN,trials_2.thisIndex,trials_2.ran,dot_ratio,key_resp.rt,key_resp.duration,explain_4.started,explain_4.stopped,key_resp_6.keys,key_resp_6.rt,key_resp_6.duration,dotDisplay.started,dotDisplay.stopped,ITI.started,polygon_1.pos,polygon_1.edges,polygon_2.pos,polygon_2.edges,polygon_3.pos,polygon_3.edges,polygon_4.pos,polygon_4.edges,polygon_5.pos,polygon_5.edges,polygon_6.pos,polygon_6.edges,polygon_7.pos,polygon_7.edges,polygon_8.pos,polygon_8.edges,polygon_9.pos,polygon_9.edges,polygon_10.pos,polygon_10.edges,polygon_11.pos,polygon_11.edges,polygon_12.pos,polygon_12.edges,polygon_13.pos,polygon_13.edges,polygon_14.pos,polygon_14.edges,polygon_15.pos,polygon_15.edges,polygon_16.pos,polygon_16.edges,polygon_17.pos,polygon_17.edges,polygon_18.pos,polygon_18.edges,polygon_19.pos,polygon_19.edges,polygon_20.pos,polygon_20.edges,polygon_21.pos,polygon_21.edges,polygon_22.pos,polygon_22.edges,polygon_23.pos,polygon_23.edges,polygon_24.pos,polygon_24.edges,polygon_25.pos,polygon_25.edges,polygon_26.pos,polygon_26.edges,polygon_27.pos,polygon_27.edges,polygon_28.pos,polygon_28.edges,polygon_29.pos,polygon_29.edges,polygon_30.pos,polygon_30.edges,polygon_31.pos,polygon_31.edges,polygon_32.pos,polygon_32.edges,dot_size,ITI.stopped,trials.thisRepN,trials.thisTrialN,trials.thisN,trials.thisIndex,trials.ran,break_2.started,break_2.stopped,trials_3.thisRepN,trials_3.thisTrialN,trials_3.thisN,trials_3.thisIndex,trials_3.ran
subject chose dot,subject chose diamond,0.0003,25.712,space,10.6897,,5a8d8079190420000156435d,6842bb3b96e1f3ce14561fac,2025-06-06_05h57.17.031,shape_ratio,2024.1.5,Win32,59.88023952,6842b561977af9ba9b0f87ca,,,,,,,,,,,,,,,,,,,,,,,,,,,,,,,,,,,,,,,,,,,,,,,,,,,,,,,,,,,,,,,,,,,,,,,,,,,,,,,,,,,,,,,,,,,,,,,,,,,,,,,,,,,,,,,,,
,,,,,,,5a8d8079190420000156435d,6842bb3b96e1f3ce14561fac,2025-06-06_05h57.17.031,shape_ratio,2024.1.5,Win32,59.88023952,6842b561977af9ba9b0f87ca,25.7121,56.5566,space,0.8267,,,,,,,,,,,,,,,,,,,,,,,,,,,,,,,,,,,,,,,,,,,,,,,,,,,,,,,,,,,,,,,,,,,,,,,,,,,,,,,,,,,,,,,,,,,,,,,,,,,,,,,,,,,,,
,,,,,,,5a8d8079190420000156435d,6842bb3b96e1f3ce14561fac,2025-06-06_05h57.17.031,shape_ratio,2024.1.5,Win32,59.88023952,6842b561977af9ba9b0f87ca,,,,,,56.5568,60.3218,space,0.7643,,,,,,,,,,,,,,,,,,,,,,,,,,,,,,,,,,,,,,,,,,,,,,,,,,,,,,,,,,,,,,,,,,,,,,,,,,,,,,,,,,,,,,,,,,,,,,,,,,,,,,,,
,,,,,,,5a8d8079190420000156435d,6842bb3b96e1f3ce14561fac,2025-06-06_05h57.17.031,shape_ratio,2024.1.5,Win32,59.88023952,6842b561977af9ba9b0f87ca,,,,,,,,,,,60.336,60.8283,60.8285,61.0822,61.0824,62.5802,,62.5804,63.6707,0.0,0.0,0.0,1.0,1.0,0.8,,,,,,,,,,,,,,,,,,,,,,,,,,,,,,,,,,,,,,,,,,,,,,,,,,,,,,,,,,,,,,,,,,,,,,,,,,,,,,,,,,,,,,,,
,,,,,,,5a8d8079190420000156435d,6842bb3b96e1f3ce14561fac,2025-06-06_05h57.17.031,shape_ratio,2024.1.5,Win32,59.88023952,6842b561977af9ba9b0f87ca,,,,,,,,,,,63.6712,64.1637,64.1638,64.4121,64.4121,65.0564,left,65.0564,66.1446,0.0,1.0,1.0,0.0,1.0,0.2,0.632,,,,,,,,,,,,,,,,,,,,,,,,,,,,,,,,,,,,,,,,,,,,,,,,,,,,,,,,,,,,,,,,,,,,,,,,,,,,,,,,,,,,,,,
,,,,,,,5a8d8079190420000156435d,6842bb3b96e1f3ce14561fac,2025-06-06_05h57.17.031,shape_ratio,2024.1.5,Win32,59.88023952,6842b561977af9ba9b0f87ca,,,,,,,,,,,,,,,,,,,,,,,,,,,,66.1449,87.2406,space,18.0886,,,,,,,,,,,,,,,,,,,,,,,,,,,,,,,,,,,,,,,,,,,,,,,,,,,,,,,,,,,,,,,,,,,,,,,,,,,,,,,,,,
,,,,,,,5a8d8079190420000156435d,6842bb3b96e1f3ce14561fac,2025-06-06_05h57.17.031,shape_ratio,2024.1.5,Win32,59.88023952,6842b561977af9ba9b0f87ca,,,,,,,,,,,87.2503,87.7467,,,87.9873,88.7886,left,,,,,,,,0.6,0.789,,,,,,,87.747,87.9872,88.7889,"[0.05258625643799392,-0.03739050361477094]",100.0,"[-0.19400943979981922,0.023461051202335343]",4.0,"[0.15717229909271824,-0.01777169364688867]",100.0,"[0.12939669967265102,-0.046839534642367474]",4.0,"[-0.16933059219102312,-0.1057170315964322]",4.0,"[-0.1310060233126107,0.04322624354130209]",100.0,"[-0.015493391181443224,0.0016828683753667315]",100.0,"[-0.11257470324736003,0.16112891271962257]",100.0,"[-0.1357093141398385,-0.05506464151348452]",100.0,"[0.06406222595473449,-0.1377392671938291]",100.0,"[0.004702059592806693,0.05924114836947221]",4.0,"[0.18669937114415674,-0.050335466143481236]",100.0,"[-0.07692386381003993,-0.0292778810399683]",4.0,"[-0.11164055600624659,-0.004004808141483889]",100.0,"[0.08414631310726094,-0.07916214470679217]",4.0,"[0.04294970902164671,0.0461798538856539]",100.0,"[0.03810121269250836,0.13105308123362633]",4.0,"[0.1165058939793057,0.013492066188137551]",100.0,"[-0.006192512052375585,0.10833738738443772]",100.0,"[0.03731961477857178,-0.09225514835968361]",4.0,"[-0.0846683144677636,0.07390093089771126]",100.0,"[0.010473556353585434,-0.053688709024402044]",100.0,"[0.005636491275539529,0.19495520903184743]",4.0,"[-0.0652460482797424,-0.10856802708747042]",4.0,"[-0.08558401519486306,0.03298057668155134]",100.0,"[-0.04591884945519937,-0.19433992090030552]",4.0,"[0.10999562582501139,0.08939131353523315]",100.0,"[0.11450679693005492,-0.10851988736773475]",4.0,"[0.16563625440173205,0.049888120252324315]",100.0,"[0.18797108718484673,0.011299253081600024]",100.0,"[0.10579491335664432,0.1356015989480938]",4.0,"[-0.11693830466951378,-0.16105969964506645]",100.0,"[0.02,0.02]",89.8705,0.0,0.0,0.0,36.0,1.0,,,,,,,
,,,,,,,5a8d8079190420000156435d,6842bb3b96e1f3ce14561fac,2025-06-06_05h57.17.031,shape_ratio,2024.1.5,Win32,59.88023952,6842b561977af9ba9b0f87ca,,,,,,,,,,,89.8709,90.3638,,,90.6142,91.3963,left,,,,,,,,0.6,0.77,,,,,,,90.3638,90.6141,91.3964,"[0.13814599316627776,0.12123287358461664]",100.0,"[0.14410114121261525,0.01787669701839482]",4.0,"[0.1473919052862872,0.07911728861332341]",4.0,"[0.07619673791781464,0.13487225952933607]",100.0,"[0.04213023530973304,0.10435214595160347]",4.0,"[0.12309502785247763,-0.15136967515792965]",100.0,"[0.00458304436728762,0.04641514481159654]",100.0,"[0.1350707263803576,-0.06021885477667637]",100.0,"[0.07718636225902996,-0.11061133310396816]",100.0,"[0.02507937049925369,-0.17280813387256452]",100.0,"[-0.048353241904271274,-0.02360499154790488]",100.0,"[-0.1261430330154899,-0.093458390180986]",100.0,"[-0.12761485540684966,0.1379530335394155]",4.0,"[0.08101443135774153,-0.053322816550814195]",4.0,"[-0.10088351241814586,0.04736236037263088]",100.0,"[-0.025585380616419486,-0.12076116365950806]",4.0,"[-0.0016941806004072226,0.14434165562861198]",100.0,"[-0.07180999133974883,-0.11389720055477283]",100.0,"[-0.13446373167982684,-0.026015539872980584]",4.0,"[-0.06710538513695391,-0.15799252026443866]",100.0,"[-0.005467163250679673,-0.08527939093972739]",4.0,"[-0.1810585718036651,0.02647015974211131]",100.0,"[-0.1854256665171758,-0.04044040464073676]",4.0,"[-0.07928816480227234,0.14256600909790984]",100.0,"[-0.10123900594441745,-0.05673534149505193]",100.0,"[0.02629641655739498,-0.05500120709876112]",100.0,"[-0.027777664394073292,0.19741061892094255]",100.0,"[0.06478083520835383,0.18493863312093492]",4.0,"[0.18146286458273547,-0.04807394056003185]",100.0,"[0.023013997744562392,0.003167107804479431]",4.0,"[0.05846043111581817,0.02499551651637576]",4.0,"[-0.14854900748564664,0.09969539749007471]",4.0,"[0.02,0.02]",92.4845,0.0,1.0,1.0,54.0,1.0,,,,,,,
,,,,,,,5a8d8079190420000156435d,6842bb3b96e1f3ce14561fac,2025-06-06_05h57.17.031,shape_ratio,2024.1.5,Win32,59.88023952,6842b561977af9ba9b0f87ca,,,,,,,,,,,92.4848,92.9789,,,93.2275,93.885,right,,,,,,,,0.55,0.6457,,,,,,,92.9789,93.2275,93.885,"[0.03469435558463719,0.050301197319613404]",4.0,"[0.05875438401669416,0.1736523062912802]",100.0,"[-0.1247055650758943,0.037904290930208986]",4.0,"[0.010607586269433776,0.1897136288408823]",4.0,"[0.05028339668555961,-0.014667417927223442]",4.0,"[-0.03934688262044443,0.042300188532061224]",4.0,"[0.07818637542928539,0.021771150954942822]",4.0,"[0.17518358352956737,0.009473597453820226]",100.0,"[0.08642191729058464,-0.1062652271939227]",100.0,"[0.09727454416162411,0.14224554251663846]",100.0,"[-0.043526769392578026,0.13613449940010425]",100.0,"[-0.09823057170329234,0.1641442823735188]",100.0,"[0.1333898246049653,-0.09474125933228876]",4.0,"[0.13584131912844244,0.043641077476528393]",100.0,"[-0.1621189527329686,-0.03825132433665333]",100.0,"[-0.001649388969799343,0.08999394921676193]",100.0,"[-0.015755731199272777,-0.0978528772307037]",4.0,"[-0.08509601821985295,0.05524307785641017]",100.0,"[-0.05979777729778923,-0.06646415321466786]",4.0,"[0.007041856325140795,0.1373967841722517]",100.0,"[-0.03412874985986697,-0.13355637300700407]",100.0,"[0.0404629192830087,-0.15171956681026202]",4.0,"[-0.12118891582908262,0.0823643293171135]",100.0,"[-0.10710262990408351,-0.042600185714037744]",4.0,"[0.18465059707671932,-0.06970859329171647]",100.0,"[-0.11547655215574572,-0.11279755953486142]",4.0,"[0.002785729851552408,0.018794525336714166]",100.0,"[-0.16966197693936727,0.09380765668255901]",100.0,"[0.011751624870753784,-0.1961233730637944]",100.0,"[0.1666307271695005,0.08129265886995414]",100.0,"[0.08941715005492905,-0.023710258309801394]",4.0,"[0.15263707254268058,0.11901147624089851]",4.0,"[0.02,0.02]",94.9789,0.0,2.0,2.0,80.0,1.0,,,,,,,
,,,,,,,5a8d8079190420000156435d,6842bb3b96e1f3ce14561fac,2025-06-06_05h57.17.031,shape_ratio,2024.1.5,Win32,59.88023952,6842b561977af9ba9b0f87ca,,,,,,,,,,,94.9792,95.47,,,95.7138,96.5245,right,,,,,,,,0.4,0.7988,,,,,,,95.4701,95.7138,96.5245,"[0.09280127923064005,-0.16151682031388603]",100.0,"[0.09826402221392076,0.1041180444750347]",4.0,"[0.18883716454703559,-0.04997493426354969]",100.0,"[-0.07991597429109353,0.07298917791034208]",4.0,"[-0.09221360803622794,0.15926645075602922]",4.0,"[-0.013997816543010803,-0.17785696529457057]",4.0,"[0.011234843035166395,0.0017330322874584525]",100.0,"[0.06009914112247666,-0.10125965729637702]",4.0,"[-0.1508342017676068,0.004905579540961025]",100.0,"[-0.04308986147461062,0.19221190376984293]",100.0,"[0.16205271717054814,0.02970627123716589]",4.0,"[0.1321021876837716,0.07237220277848538]",4.0,"[-0.07323578405885645,-0.04327865500847606]",4.0,"[0.049779247781840605,-0.034148211272484096]",100.0,"[0.13433722066060813,-0.02423454314577361]",4.0,"[0.06819001336303433,0.18768812738966895]",4.0,"[0.12408175567367964,-0.1179348136311709]",4.0,"[-0.019436480216572814,-0.03846121549429659]",4.0,"[0.015872308735599153,0.16884998420940997]",4.0,"[-0.11624578440534494,-0.16031051065979843]",100.0,"[-0.1697867681357862,-0.09435317744606743]",4.0,"[0.12060478252286112,0.01670529095870399]",4.0,"[-0.12960656044460164,0.060284928080055464]",100.0,"[0.019983857866016686,0.12073239964398415]",4.0,"[0.07994741384992445,0.062304624881972935]",100.0,"[-0.02304574557192436,-0.13522150403402391]",100.0,"[0.038630093869550526,-0.17969568252330753]",100.0,"[0.07876774059411873,0.0020638246532081925]",100.0,"[-0.03558005562082405,-0.09295145455134106]",100.0,"[0.016119682853776646,-0.08471617601387198]",4.0,"[-0.0212329051524645,0.10859152410205804]",4.0,"[0.0888445434908186,0.1521167692921529]",4.0,"[0.02,0.02]",97.6172,0.0,3.0,3.0,162.0,1.0,,,,,,,
,,,,,,,5a8d8079190420000156435d,6842bb3b96e1f3ce14561fac,2025-06-06_05h57.17.031,shape_ratio,2024.1.5,Win32,59.88023952,6842b561977af9ba9b0f87ca,,,,,,,,,,,97.6175,98.1123,,,98.3613,99.1438,right,,,,,,,,0.6,0.7706,,,,,,,98.1124,98.3612,99.1438,"[0.05850066668632702,0.05872892428379588]",100.0,"[0.15190017391611332,0.03384650313515807]",4.0,"[-0.08246169153650772,0.08122408453481456]",4.0,"[0.16440173912439135,0.07634277055850008]",100.0,"[0.015037720571148409,-0.08553074838981864]",100.0,"[-0.033835855478352835,-0.09836680168619084]",4.0,"[0.17349461406393232,-0.042297603298703954]",100.0,"[-0.10372024938751018,-0.05037814360541829]",4.0,"[-0.05154978364071689,-0.04939736002848965]",100.0,"[-0.1641442319951684,-0.08650232349599436]",100.0,"[-0.09064081262620925,0.15346024710566486]",4.0,"[-0.03346684292320966,0.07455216785343896]",100.0,"[-0.06988606502834176,-0.11614645755697287]",4.0,"[-0.09611374834459897,-0.15547088237148413]",4.0,"[-0.14921453200056556,0.07635259480472512]",100.0,"[-0.06428879676324149,0.010171586001612465]",100.0,"[-0.10670632878122806,0.018455925116481826]",4.0,"[-0.03201952620980665,-0.17427568704163277]",100.0,"[0.14168119189218195,-0.12736543011780055]",4.0,"[-0.01276448969536026,-0.028719128306543103]",4.0,"[-0.0237723008922485,0.18555679667250813]",100.0,"[-0.007961121560024603,0.035627198809233526]",100.0,"[0.014112588440506012,0.12765910035745032]",100.0,"[0.022599347123978875,0.0007508861001004709]",100.0,"[0.10657082918856395,-0.07345987307095889]",4.0,"[-0.11173525325702642,0.10873841314050728]",100.0,"[0.02012350811310414,0.07019225337533799]",100.0,"[0.15449918602934765,0.11623510880069969]",100.0,"[0.192664219653124,0.042656396306807856]",4.0,"[0.095242802915683,-0.13776430610483956]",100.0,"[0.061833975525301135,0.10612140681383855]",4.0,"[0.11050428659793522,0.031986803992126]",100.0,"[0.02,0.02]",100.2462,0.0,4.0,4.0,46.0,1.0,,,,,,,
,,,,,,,5a8d8079190420000156435d,6842bb3b96e1f3ce14561fac,2025-06-06_05h57.17.031,shape_ratio,2024.1.5,Win32,59.88023952,6842b561977af9ba9b0f87ca,,,,,,,,,,,100.2464,100.7457,,,100.9929,101.571,right,,,,,,,,0.6,0.5662,,,,,,,100.7457,100.9928,101.571,"[-0.0768906517336869,-0.00687060615845493]",4.0,"[0.016743727999449724,-0.016397889410308075]",100.0,"[0.17775905816072204,0.05397237767672511]",100.0,"[-0.06405930083992208,0.059132526014430004]",100.0,"[-0.06144523619843361,-0.11487370163181143]",100.0,"[-0.06723579771527441,-0.04905218984560758]",100.0,"[-0.128892272372932,0.06352630509747438]",100.0,"[-0.019705681950323232,-0.0496137315760303]",100.0,"[0.08896587755930199,-0.08717655590006788]",100.0,"[-0.08095862395124515,0.11462297447483005]",4.0,"[0.1415893245332086,-0.11050532815655491]",4.0,"[0.0018151351742845194,0.17543626601128068]",100.0,"[0.06386706167660505,0.013567058811152213]",4.0,"[0.06670016952675484,0.10517768178463907]",100.0,"[0.02214835086827769,0.11433831798829827]",100.0,"[0.12851406532895518,-0.04250606043258967]",4.0,"[-0.1744803226747794,0.08715866272515967]",4.0,"[0.06007403880636474,0.15561669465391073]",100.0,"[-0.13437335376796394,-0.02722509033041538]",100.0,"[-0.17309746766747358,-0.09445807238265796]",4.0,"[-0.07515775184914548,-0.16486997042877094]",4.0,"[0.007936746280932756,-0.1856177534376767]",100.0,"[0.057713459272252784,-0.17824787841879433]",4.0,"[-0.029824273644980786,0.12004336496374056]",100.0,"[0.15211621618274765,0.10114672791159976]",100.0,"[0.1049854714176252,0.16651888854199703]",100.0,"[-0.09941062379947269,-0.09358001638461486]",4.0,"[-0.1915205552748281,-0.033096898238553565]",4.0,"[-0.063517254764251,0.1835500455072117]",4.0,"[0.023261267292570595,-0.12053710089907965]",4.0,"[0.16095745380687607,-0.01526300199297748]",100.0,"[0.1146379558449732,-0.1441697911663318]",100.0,"[0.02,0.02]",102.6609,0.0,5.0,5.0,58.0,1.0,,,,,,,
,,,,,,,5a8d8079190420000156435d,6842bb3b96e1f3ce14561fac,2025-06-06_05h57.17.031,shape_ratio,2024.1.5,Win32,59.88023952,6842b561977af9ba9b0f87ca,,,,,,,,,,,102.661,103.1519,,,103.3999,103.7957,left,,,,,,,,0.1,0.3835,,,,,,,103.1519,103.3999,103.7957,"[-0.08720053405693061,0.1304478838824643]",4.0,"[-0.09294754353804824,0.08938610824760866]",4.0,"[-0.03575710961461129,0.03505242880796615]",4.0,"[0.13259056082127618,-0.11468167721642092]",100.0,"[-0.14032582770766913,-0.039296464929836836]",4.0,"[0.09617846954379466,0.00002411061302995543]",4.0,"[0.021024661322654382,0.1389260558786628]",4.0,"[-0.060241768655923164,-0.1761592468412146]",4.0,"[0.04760586946949709,-0.038505863316918965]",4.0,"[0.16026137312216,-0.07591909335069953]",4.0,"[0.028656893597601003,-0.1656098234512464]",4.0,"[0.000011847665875754804,0.07652364814323741]",4.0,"[-0.09298760936779255,-0.04529912794850713]",4.0,"[-0.14013290053763613,0.0203893246938491]",4.0,"[0.1754811690929288,0.01577590073020627]",4.0,"[0.06627687773546416,0.17816262103812106]",4.0,"[-0.028884526178426476,-0.11444657449667527]",4.0,"[-0.11157804919546499,-0.1481912549153449]",4.0,"[0.08197554510602373,-0.10089857446543574]",4.0,"[-0.021136342430290164,-0.05411374276351001]",4.0,"[-0.061899491436667786,0.1677704355924123]",4.0,"[0.15218849484656927,0.0625920023775065]",4.0,"[-0.19314648270643447,-0.0511806454660153]",4.0,"[-0.15840856486171548,0.0656428696583535]",4.0,"[-0.08633131147280627,0.003478683222964045]",4.0,"[0.09777753383259394,0.1528140673839503]",4.0,"[0.04759013455959493,-0.12143944702884442]",4.0,"[0.04679242255144863,0.028743205594192703]",100.0,"[-0.02035448586009301,0.1514102618217155]",4.0,"[-0.13337698542974022,0.11702786547849521]",4.0,"[0.04553943844494989,0.08078875470468161]",100.0,"[0.009658415803857448,0.00538720043034213]",4.0,"[0.02,0.02]",104.8872,0.0,6.0,6.0,183.0,1.0,,,,,,,
,,,,,,,5a8d8079190420000156435d,6842bb3b96e1f3ce14561fac,2025-06-06_05h57.17.031,shape_ratio,2024.1.5,Win32,59.88023952,6842b561977af9ba9b0f87ca,,,,,,,,,,,104.8874,105.3799,,,105.6246,106.187,left,,,,,,,,0.45,0.5497,,,,,,,105.3799,105.6245,106.187,"[-0.1331353511227674,-0.1352735565538422]",100.0,"[0.1028358606540876,0.08977597608183444]",100.0,"[-0.09801917530737506,0.136320479201748]",4.0,"[0.17226326771212244,-0.08725648332860403]",4.0,"[-0.04146271881339437,0.14512340114778524]",4.0,"[-0.08074695969494441,-0.17912978260378626]",4.0,"[0.11444383679903967,0.014209557004884995]",100.0,"[-0.07683646923768711,-0.0709375856720588]",100.0,"[0.03755085654472006,-0.1630808347637841]",4.0,"[-0.02486020933788663,-0.12149531275889562]",4.0,"[0.05791930016849139,0.015227901777154879]",100.0,"[-0.017504408225144905,0.05420469038473811]",4.0,"[0.03237925433417849,0.13282987761145992]",4.0,"[0.17811454253852627,0.0015758820117556167]",100.0,"[-0.035667588602540365,-0.18249091214763757]",4.0,"[-0.09083212379566484,0.014475794671364482]",4.0,"[0.1159861392779077,-0.12282952440583823]",100.0,"[-0.1894958061368791,-0.05299802449712826]",100.0,"[-0.13105756500450672,0.03762471545438677]",100.0,"[0.006593531141943711,0.017931554009569972]",4.0,"[-0.018933361331911643,0.10215492759940692]",100.0,"[0.17121109873277324,-0.040627673673242506]",4.0,"[-0.14403419315459567,-0.04678713645026958]",4.0,"[0.05435850735972237,-0.11970656347122154]",4.0,"[-0.05937019042203199,0.04007498286412988]",100.0,"[0.13640341035924772,0.1340518483101574]",4.0,"[0.09649220668695735,0.1509991542546782]",4.0,"[0.03680722274578889,-0.08020647082206639]",4.0,"[-0.11834345853123494,0.09709148274086807]",100.0,"[-0.16252281860198028,0.09478686641143928]",100.0,"[0.12621603439167128,-0.05110057187622236]",4.0,"[-0.030523417196719173,-0.033219802735267825]",100.0,"[0.02,0.02]",107.2846,0.0,7.0,7.0,134.0,1.0,,,,,,,
,,,,,,,5a8d8079190420000156435d,6842bb3b96e1f3ce14561fac,2025-06-06_05h57.17.031,shape_ratio,2024.1.5,Win32,59.88023952,6842b561977af9ba9b0f87ca,,,,,,,,,,,107.285,107.7768,,,108.0293,108.6286,right,,,,,,,,0.55,0.5875,,,,,,,107.7768,108.0292,108.6286,"[0.03728468310967664,-0.037573781573567895]",100.0,"[-0.12214810422120506,0.02429840499863966]",4.0,"[-0.1349248630251893,-0.11412004269476536]",4.0,"[-0.08779344545038471,0.059873536693815205]",4.0,"[-0.17807406133206896,0.047447125953268825]",4.0,"[0.05166323017885542,0.013990963960125282]",100.0,"[0.03957128093103527,0.18051736818614655]",100.0,"[0.07794057560440815,-0.021065344053719355]",100.0,"[-0.12495685362793772,-0.06734090930542323]",4.0,"[-0.010820298849869767,0.05637903413010153]",100.0,"[0.03152016660609958,-0.18033155481471774]",100.0,"[-0.03983460416645138,-0.14898264092683586]",4.0,"[-0.07938377089026978,-0.03923639412411149]",100.0,"[-0.09631730094770749,0.11820091156479344]",4.0,"[0.0868468969164452,0.09842783810728162]",100.0,"[0.1877134734678236,-0.03291224622753839]",4.0,"[0.14099122179819962,-0.10441179694486266]",100.0,"[0.06259494302366898,-0.09102284321560705]",100.0,"[-0.0037689049173724068,-0.11606009716309626]",100.0,"[-0.16054480773775162,-0.047179847360905386]",4.0,"[-0.08133734914675517,-0.09048063293574254]",100.0,"[0.04331904200525408,0.07424059156918712]",4.0,"[-0.04384532006714644,-0.19246937580869866]",4.0,"[-0.008877292027406478,0.1610634916763034]",100.0,"[0.1426569476097973,0.07121801566832922]",100.0,"[0.07633205617217538,-0.18243143709277376]",4.0,"[-0.022649896989322474,-0.0028105016256257426]",4.0,"[0.19502319770539756,0.02440784976718448]",100.0,"[0.12002850492400016,0.15949322879842084]",100.0,"[-0.013906632879229296,0.09808934272852551]",4.0,"[0.04592826646816044,-0.14269576279655247]",100.0,"[-0.06309906386289674,0.15259997928852145]",100.0,"[0.02,0.02]",109.721,0.0,8.0,8.0,69.0,1.0,,,,,,,
,,,,,,,5a8d8079190420000156435d,6842bb3b96e1f3ce14561fac,2025-06-06_05h57.17.031,shape_ratio,2024.1.5,Win32,59.88023952,6842b561977af9ba9b0f87ca,,,,,,,,,,,109.7213,110.228,,,110.4628,111.0383,left,,,,,,,,0.1,0.5627,,,,,,,110.228,110.4627,111.0383,"[0.023316241408075193,-0.1191297831135119]",4.0,"[-0.056478047666385936,0.12562051590367504]",4.0,"[-0.07217329951448326,-0.046773044957898226]",4.0,"[0.11217173394230924,-0.10310257435382053]",100.0,"[-0.15865911485099005,0.0642236647139625]",4.0,"[0.055852303842822935,0.09005790403677721]",4.0,"[0.02082009803944519,0.1759145358939993]",4.0,"[0.07319654150809522,-0.05970274569130105]",4.0,"[-0.10410243528140427,0.16875892957781166]",4.0,"[0.16607102939028465,0.0993205999435193]",4.0,"[-0.06993563687497056,-0.10067319685455245]",4.0,"[0.11641862894308236,0.12745245460974447]",4.0,"[0.10983311164069755,-0.16234866858265254]",4.0,"[-0.12069718078503523,0.030298332397518994]",4.0,"[0.1453064656415517,0.0129318775242435]",4.0,"[-0.1934799361912608,-0.004213238446055028]",4.0,"[0.11315947272185595,-0.031920023661281466]",4.0,"[-0.0763779312748411,-0.16356326049116995]",100.0,"[-0.10760219027509489,0.07546328840602749]",4.0,"[-0.030846503728479458,0.15728376529563728]",4.0,"[-0.0513910238171535,0.08405163418741632]",4.0,"[0.01574294308989368,0.016564260302012773]",4.0,"[-0.17139645544312296,-0.06328987829683029]",100.0,"[-0.02277033874809047,-0.05188550297872454]",4.0,"[-0.135859039337127,0.13229160043020388]",4.0,"[-0.001153422313791959,-0.17671748091465037]",4.0,"[0.07367617630862033,0.12735081938822332]",4.0,"[-0.08441608932627027,-0.0033505149630442678]",4.0,"[-0.12703875114520707,-0.09698398373595885]",4.0,"[0.11474530025599546,0.05018218012909065]",4.0,"[0.06882459858395266,0.009586405229164258]",4.0,"[0.09732687131733453,0.1637670353840099]",4.0,"[0.02,0.02]",112.1196,0.0,9.0,9.0,195.0,1.0,,,,,,,
,,,,,,,5a8d8079190420000156435d,6842bb3b96e1f3ce14561fac,2025-06-06_05h57.17.031,shape_ratio,2024.1.5,Win32,59.88023952,6842b561977af9ba9b0f87ca,,,,,,,,,,,112.1199,112.6159,,,112.867,113.3669,right,,,,,,,,0.9,0.4879,,,,,,,112.616,112.867,113.3669,"[0.006822168325074162,0.09714249424199302]",100.0,"[0.10805335613581689,0.07295604212325349]",100.0,"[-0.13807326720010848,-0.12589603598563598]",100.0,"[-0.125924538881633,-0.049426146564639076]",4.0,"[-0.11378932625817353,0.055328533301327185]",100.0,"[-0.06191247264949643,0.03790160035134485]",100.0,"[0.0032169827715398678,-0.08073585532028553]",100.0,"[0.09286501570734355,-0.17283604257051202]",100.0,"[-0.0005649000653645232,-0.1386371271700979]",100.0,"[-0.11065324199385085,0.1272698345797568]",100.0,"[-0.06868126377171825,-0.10261611716633731]",100.0,"[0.13262757727645963,0.006173147106660175]",100.0,"[-0.15387350213826864,0.025981762742940045]",100.0,"[0.06387725292284485,0.1673211020729933]",100.0,"[0.10600469971644447,0.13525371786072296]",100.0,"[0.011449468614074214,0.171940823105504]",100.0,"[0.05065500865442625,-0.08929758329004868]",100.0,"[-0.18131162513048732,0.05617805395302365]",100.0,"[0.05573654100686473,0.025746480911105648]",100.0,"[0.056407219686886396,0.10644801978149823]",100.0,"[0.08554068210237416,-0.1313241500036957]",100.0,"[-0.19725877679702422,-0.02666045883631847]",100.0,"[0.06068650638863253,-0.024077888967133223]",100.0,"[0.13196830046817412,-0.14122346670596642]",100.0,"[0.021122019733749588,-0.035937894658552495]",4.0,"[-0.07380084392846996,0.1856780197221375]",100.0,"[-0.0933824568349378,-0.0019616153565615827]",100.0,"[0.1709578667876689,-0.09701898905719031]",100.0,"[-0.07441597167769791,-0.06159336766550093]",100.0,"[-0.009346328886510283,-0.007258238339874327]",100.0,"[-0.18057817290616784,-0.06419481670553583]",4.0,"[0.006201005751279901,-0.18775869588473398]",100.0,"[0.02,0.02]",114.4709,0.0,10.0,10.0,20.0,1.0,,,,,,,
,,,,,,,5a8d8079190420000156435d,6842bb3b96e1f3ce14561fac,2025-06-06_05h57.17.031,shape_ratio,2024.1.5,Win32,59.88023952,6842b561977af9ba9b0f87ca,,,,,,,,,,,114.4712,114.9708,,,115.2038,116.0685,right,,,,,,,,0.4,0.8533,,,,,,,114.9708,115.2037,116.0685,"[-0.12240563876073246,0.07873206256584235]",4.0,"[0.10434193352742015,-0.02907903366664507]",4.0,"[0.0916910596425916,-0.14109607782077524]",4.0,"[0.006120026729849813,0.14200123856966176]",100.0,"[0.009816445014492654,-0.021084257350220743]",100.0,"[-0.014428452791813737,-0.10550500406259897]",4.0,"[0.09561047955426911,0.05683446104451325]",100.0,"[-0.06589023582725348,-0.17597911418132126]",4.0,"[-0.1458212800686816,0.1243255746038321]",100.0,"[0.016948012765800977,0.07050287839957486]",4.0,"[-0.03274616377933302,0.10372869237486783]",100.0,"[0.0987074174942654,0.10591325151843538]",4.0,"[0.18406951172959946,0.07629768953845871]",100.0,"[-0.051676725486891915,0.14622845413214966]",4.0,"[0.050618460278432774,0.12863447570400766]",4.0,"[0.0516160969651284,-0.01036976299875841]",100.0,"[-0.08956240285383066,-0.029041639764366144]",100.0,"[-0.1763946479516595,0.06955591321886433]",4.0,"[-0.16904911695172878,-0.09442009350611597]",4.0,"[0.023391569261191562,-0.07426238163870928]",100.0,"[0.13631929030932738,0.0639878084001159]",4.0,"[-0.14364960553901662,0.015179658443326246]",4.0,"[0.04001410359089842,0.1727553448117108]",100.0,"[-0.16688190758629093,-0.05445051280993109]",4.0,"[-0.10100113618495823,-0.09196171586625608]",4.0,"[0.1448319589429292,-0.0069188805106535425]",4.0,"[0.08434374433889896,-0.08062014491502285]",100.0,"[-0.08526877319895186,0.10376242339107278]",100.0,"[-0.060775310723218214,-0.10794358474792161]",4.0,"[-0.08025122699813783,0.0558148680977437]",4.0,"[0.02792444444065815,-0.14758481805277443]",4.0,"[0.15417310923004307,-0.12373869521137161]",100.0,"[0.02,0.02]",117.1699,0.0,11.0,11.0,154.0,1.0,,,,,,,
,,,,,,,5a8d8079190420000156435d,6842bb3b96e1f3ce14561fac,2025-06-06_05h57.17.031,shape_ratio,2024.1.5,Win32,59.88023952,6842b561977af9ba9b0f87ca,,,,,,,,,,,117.1702,117.6618,,,117.8944,118.3928,right,,,,,,,,0.9,0.4869,,,,,,,117.6618,117.8943,118.3928,"[0.018288134954195907,-0.0572543501931853]",100.0,"[0.1581807588725123,-0.10388447810474]",100.0,"[-0.12806989147527695,0.06285727154770743]",100.0,"[-0.12114921519680207,-0.07140097247523515]",100.0,"[-0.099732298112061,0.12863386494810022]",100.0,"[0.061782159334469046,0.006401744650292901]",100.0,"[0.08579631070921993,-0.032529802663055274]",4.0,"[0.10874502270231853,-0.10776139146881594]",100.0,"[-0.06940174438812363,-0.16844941609904499]",100.0,"[0.08016939785476639,-0.18111420215362767]",100.0,"[0.03174936272504305,0.17109102391135164]",100.0,"[0.10140515376173544,0.14676660890257204]",4.0,"[0.027480022627147823,-0.19184594961016735]",100.0,"[-0.02714367174901236,-0.13567109711680508]",100.0,"[-0.17501795673723528,-0.0002032125949201886]",100.0,"[0.14199716106140883,-0.02494649350140887]",100.0,"[-0.08900893715829229,-0.10153003589960725]",100.0,"[-0.015367173920661632,0.0532884896256869]",100.0,"[0.18051896123677758,0.02363183960430158]",100.0,"[-0.026318076907315108,-0.08161985741625234]",100.0,"[0.02025011997519003,0.10636049207402697]",100.0,"[0.12214691623282699,0.04981725173391106]",100.0,"[-0.18176173460288164,-0.052362552328209196]",100.0,"[-0.129260841967116,0.0014676899430293333]",100.0,"[-0.1639779619896634,-0.09754924044204828]",100.0,"[-0.05594517603453626,0.1262525713390943]",100.0,"[0.08282965090977201,0.08820764804277041]",100.0,"[0.021410778499657054,-0.011461939021393261]",100.0,"[-0.03533874246253946,-0.03650619399796027]",100.0,"[-0.080349402059786,0.031384012235013754]",100.0,"[-0.05549467883364059,0.07646201660430658]",100.0,"[-0.006050728407419125,0.15322859235728012]",4.0,"[0.02,0.02]",119.4788,0.0,12.0,12.0,29.0,1.0,,,,,,,
,,,,,,,5a8d8079190420000156435d,6842bb3b96e1f3ce14561fac,2025-06-06_05h57.17.031,shape_ratio,2024.1.5,Win32,59.88023952,6842b561977af9ba9b0f87ca,,,,,,,,,,,119.479,119.9639,,,120.1987,121.1219,right,,,,,,,,0.4,0.9102,,,,,,,119.9639,120.1987,121.1219,"[-0.054938742919244936,0.07032035020730296]",4.0,"[0.1316560633000126,-0.10270239957596322]",100.0,"[-0.0044084347512539064,0.17926550280366044]",100.0,"[0.07481765120102717,-0.09387730005034738]",100.0,"[0.1157035486281007,0.03972474566381099]",4.0,"[-0.09486992250054976,-0.030046421871472488]",4.0,"[0.10027275089238365,-0.013269099155178972]",4.0,"[0.16773460225641756,0.06642502147803869]",4.0,"[-0.00399057746761216,-0.18742621682282842]",4.0,"[-0.009615424453234095,0.06429639601535947]",4.0,"[-0.03039141897383192,0.025890082704840594]",4.0,"[0.16506995412186204,-0.00057020402141285]",4.0,"[-0.15475052615162385,-0.07161833750848468]",4.0,"[-0.11720982158466367,0.06724521438400985]",100.0,"[-0.1434562458643131,0.10064849651415948]",4.0,"[0.04245451869780137,0.13858238100106307]",100.0,"[0.012701771468229761,-0.13938711471673373]",100.0,"[0.15476231885976802,-0.042780885884727185]",100.0,"[0.04369564691268769,-0.01898156614402447]",4.0,"[0.09047188146691273,-0.15074983929056585]",4.0,"[0.04085713907042694,-0.19499108005774254]",100.0,"[0.19543366768561482,0.029806013949701626]",100.0,"[-0.171994565889534,-0.012306962246433692]",4.0,"[0.14894451613827167,0.10986170388326244]",100.0,"[-0.18310319095600233,0.06749943369982599]",4.0,"[0.08058094530018042,0.10190355421227947]",4.0,"[0.010207227703983223,0.023113771516417927]",100.0,"[-0.12387021246491019,0.015074216384971643]",4.0,"[0.028283629139270877,-0.05898174866021019]",4.0,"[-0.10572151168524695,-0.10121040899485201]",100.0,"[-0.021774991146553693,-0.11591175028914041]",4.0,"[-0.08666199120773499,-0.16146494824523247]",100.0,"[0.02,0.02]",122.228,0.0,13.0,13.0,164.0,1.0,,,,,,,
,,,,,,,5a8d8079190420000156435d,6842bb3b96e1f3ce14561fac,2025-06-06_05h57.17.031,shape_ratio,2024.1.5,Win32,59.88023952,6842b561977af9ba9b0f87ca,,,,,,,,,,,122.2284,122.7243,,,122.9715,123.4328,right,,,,,,,,0.5,0.4494,,,,,,,122.7244,122.9714,123.4328,"[-0.08602274911066661,-0.05673036378733085]",4.0,"[-0.14105483578342148,0.08514882975883586]",100.0,"[0.07231171198886902,-0.09449296312935487]",100.0,"[-0.09848667821450889,-0.16010633365155616]",4.0,"[-0.10899261077619621,0.013445308596804022]",100.0,"[0.12456703628879241,0.06636198143902089]",4.0,"[-0.1567713511533495,0.04003456778303772]",4.0,"[-0.024932067734921102,0.1663715417030459]",4.0,"[-0.152842853028931,0.12442184867955726]",4.0,"[0.07715441862564594,0.001683234988924242]",100.0,"[0.07262129235228208,0.051852578052431375]",100.0,"[-0.18500273973228612,-0.056260943724163896]",4.0,"[0.057519542758016795,0.19016808068180002]",4.0,"[0.1418147301759891,-0.012441079999787549]",100.0,"[-0.07641301968657781,0.08455614332784293]",4.0,"[-0.04397509961597102,-0.14693511987209312]",100.0,"[0.11434099533907434,-0.11121481163588434]",100.0,"[-0.029225624281018766,-0.03952365448840132]",100.0,"[0.04335508496647414,-0.14403335576279924]",4.0,"[0.02455057848112273,-0.1880864813995427]",4.0,"[0.01298213986906683,0.09961884371868257]",4.0,"[0.17983915214406776,0.010389288587395401]",100.0,"[-0.034158937318462874,0.10515328675309471]",4.0,"[-0.17177045829902216,-0.10243826159697796]",100.0,"[-0.005308087799197803,0.050630558367480795]",100.0,"[-0.007779258176787077,-0.12391152486927294]",100.0,"[-0.09918569829917782,-0.09927009105262147]",4.0,"[0.17031495541635439,-0.0942407179829709]",4.0,"[0.028068340438899102,-0.012358362184291797]",4.0,"[-0.046693259215010614,0.013528147437899395]",100.0,"[0.012474461127258167,0.185156530282241]",100.0,"[0.13908860252656857,-0.05669237868758022]",100.0,"[0.02,0.02]",124.5237,0.0,14.0,14.0,100.0,1.0,,,,,,,
,,,,,,,5a8d8079190420000156435d,6842bb3b96e1f3ce14561fac,2025-06-06_05h57.17.031,shape_ratio,2024.1.5,Win32,59.88023952,6842b561977af9ba9b0f87ca,,,,,,,,,,,124.524,125.0225,,,125.2702,125.67,left,,,,,,,,0.1,0.3886,,,,,,,125.0225,125.2701,125.67,"[0.16396339685049394,-0.04092658535386756]",100.0,"[0.002351623783124934,-0.19431172975173722]",4.0,"[-0.10017456959982274,0.11336989546588291]",4.0,"[-0.06835173980648826,-0.1418582033008409]",100.0,"[-0.029397772898157253,0.10970629870995706]",4.0,"[0.1472351388971656,-0.0894608675653988]",4.0,"[0.04157669156661508,-0.1386338798088926]",4.0,"[0.0556929979154196,0.05729938212079256]",4.0,"[-0.03816466590328857,-0.17025460268986622]",4.0,"[-0.06528185514210204,0.056829634877421854]",4.0,"[0.003679785182932251,-0.0944342435527597]",4.0,"[-0.1242824308731072,0.04309977291079293]",4.0,"[0.11321268577655312,0.0371770957370464]",4.0,"[0.024339666588176427,-0.02108865957047744]",4.0,"[0.16681981438878551,0.05360893115291998]",4.0,"[0.026253829253345663,0.09591106445470464]",4.0,"[0.047009470424861546,-0.09121655886533023]",4.0,"[0.08655341898726837,0.17666421648457453]",4.0,"[0.0028923995183359075,0.13820745630709144]",4.0,"[-0.1404510060658975,0.11674121560262897]",4.0,"[-0.0535782069662507,-0.08413206365014828]",4.0,"[-0.02812738099212958,0.16594493913031236]",4.0,"[0.10128482837408398,0.11857186370711086]",4.0,"[-0.026157123460449832,-0.0019256171948296176]",4.0,"[-0.13763805582472707,-0.12437625347008585]",100.0,"[-0.09050050946568017,-0.03980778348197386]",4.0,"[0.14655446265164118,0.13351916137383105]",4.0,"[-0.16780863675845994,-0.08186720296899044]",4.0,"[-0.17924165556156915,-0.012840153708048757]",4.0,"[0.08929539366824647,-0.023082934928663226]",4.0,"[-0.06754544541425284,0.18818117739652335]",4.0,"[0.08336394436909275,-0.14144921240748295]",4.0,"[0.02,0.02]",126.7751,0.0,15.0,15.0,206.0,1.0,,,,,,,
,,,,,,,5a8d8079190420000156435d,6842bb3b96e1f3ce14561fac,2025-06-06_05h57.17.031,shape_ratio,2024.1.5,Win32,59.88023952,6842b561977af9ba9b0f87ca,,,,,,,,,,,126.7754,127.2723,,,127.5241,128.0095,right,,,,,,,,0.55,0.4735,,,,,,,127.2724,127.524,128.0095,"[0.11122089997539739,0.01832304770272265]",4.0,"[0.12146711171097187,0.057273568108364814]",100.0,"[-0.0920095851969189,0.053995642075186]",4.0,"[-0.0587373487137409,0.1655337748062996]",4.0,"[0.08987308511416948,-0.10325030895628745]",100.0,"[-0.194669495143086,0.01879389613620765]",100.0,"[0.16854984671430823,0.06525204416303965]",4.0,"[-0.12087682436549149,-0.001699502939441947]",100.0,"[0.13890275920053588,0.12247179544455664]",100.0,"[0.1886241969249861,-0.030414529188712257]",100.0,"[0.0513566936471196,-0.05851242277675461]",4.0,"[-0.04576276098733034,0.010757720271475181]",4.0,"[0.04722620306993735,0.040146170820889254]",100.0,"[-0.10753783651697943,-0.0507853245231661]",4.0,"[-0.017463556380329398,0.15838537705093628]",4.0,"[-0.17562648336052322,-0.017082551928540392]",4.0,"[-0.09926971356355904,0.14667577237035373]",100.0,"[0.15750465493202914,0.025669921315626426]",4.0,"[0.07892384033514667,0.13893630567678553]",4.0,"[-0.18656907946948306,-0.06236952783581882]",100.0,"[-0.07431862445354284,-0.16578248725465647]",100.0,"[0.02353536522742848,0.14909963372930782]",100.0,"[-0.002457999753860832,-0.11125040931196824]",100.0,"[-0.11376714146340784,-0.10477615580470952]",100.0,"[0.00850651851226069,0.09920249328369747]",4.0,"[0.1411972656561235,-0.04297170469514469]",100.0,"[0.038474381074342145,-0.1594480314913594]",100.0,"[-0.03897119769631125,-0.04809258681037892]",4.0,"[-0.017593803913062585,-0.15937084373829596]",100.0,"[0.007342145084479139,0.1935477755918267]",100.0,"[0.1393290359748938,-0.12397671302172535]",4.0,"[0.02156182369785419,0.0028206146417744083]",100.0,"[0.02,0.02]",129.0974,0.0,16.0,16.0,88.0,1.0,,,,,,,
,,,,,,,5a8d8079190420000156435d,6842bb3b96e1f3ce14561fac,2025-06-06_05h57.17.031,shape_ratio,2024.1.5,Win32,59.88023952,6842b561977af9ba9b0f87ca,,,,,,,,,,,129.0977,129.5943,,,129.8402,130.2584,right,,,,,,,,0.9,0.4057,,,,,,,129.5944,129.8402,130.2584,"[0.02612989265757907,-0.14841435829111752]",100.0,"[0.13126113107418572,0.12822961637841268]",100.0,"[-0.02737923424618903,-0.006438863720466868]",100.0,"[0.06728010226836552,-0.030051345421236525]",100.0,"[-0.12743907128780302,-0.13544077143485214]",100.0,"[-0.07757816619539432,-0.008498981786317807]",100.0,"[0.12140840923494128,0.06858512662853498]",100.0,"[0.0498752093051712,0.13724734050227042]",100.0,"[0.05045384110628253,0.0814758559730139]",100.0,"[-0.19595425484967996,0.006898420040701369]",100.0,"[0.08795483847726773,-0.11359061295621026]",100.0,"[-0.04655199730371326,0.15823770106384344]",100.0,"[0.03660823916822591,0.02636956737164784]",100.0,"[-0.021629207238258594,0.06705415371471254]",100.0,"[-0.016476456113629412,-0.10439558035896701]",100.0,"[-0.1726314071674488,-0.0958186633133594]",100.0,"[0.025345660979598287,-0.09041419822709396]",100.0,"[-0.17929093363412169,-0.05210859984293699]",4.0,"[0.1095084723806965,-0.030975295371639847]",100.0,"[0.15601006802925424,0.02459748805656812]",100.0,"[-0.08338750474605142,-0.06778427921042528]",100.0,"[-0.05140902750782104,-0.16454898860032505]",100.0,"[-0.0824253837918429,0.03141090368135843]",100.0,"[-0.05707318383003882,0.11622532062564543]",100.0,"[-0.14911659951997214,0.13326205054693285]",4.0,"[0.17867226091207702,-0.0421461648024867]",100.0,"[-0.13200374849171653,0.03933987671331511]",100.0,"[-0.005228804025390662,-0.1883530471291398]",100.0,"[0.024185265451514067,-0.02107728647604406]",100.0,"[0.13450286864884217,-0.07182764967125585]",100.0,"[-0.09284720353581087,0.14228869333908375]",4.0,"[-0.021416682309638863,0.19727887482035783]",100.0,"[0.02,0.02]",131.3634,0.0,17.0,17.0,4.0,1.0,,,,,,,
,,,,,,,5a8d8079190420000156435d,6842bb3b96e1f3ce14561fac,2025-06-06_05h57.17.031,shape_ratio,2024.1.5,Win32,59.88023952,6842b561977af9ba9b0f87ca,,,,,,,,,,,131.3636,131.8577,,,132.1112,132.5306,right,,,,,,,,0.9,0.4077,,,,,,,131.8577,132.1112,132.5306,"[-0.07714114643506152,0.14787281607181785]",100.0,"[0.08152396952647725,-0.10267820472405272]",100.0,"[0.0752561349846972,0.11516387811391332]",4.0,"[-0.06657425401407441,-0.11764899052110156]",4.0,"[-0.09533497669381866,0.09516407439066087]",100.0,"[0.1272000570076331,-0.09732951357546579]",100.0,"[-0.18040379766959805,0.009110388917676076]",100.0,"[-0.012922141150295453,0.1082206359561307]",100.0,"[-0.15175413877385469,-0.04383276718277862]",100.0,"[0.08158955685609047,-0.06196423735320459]",100.0,"[0.09200367172669505,0.0208330723631267]",100.0,"[-0.07094892156364714,0.024883313432438343]",100.0,"[0.03291786970627443,0.023411019257577086]",100.0,"[0.12382922076772367,0.15412954794887543]",100.0,"[-0.021747045598564597,-0.19112391923147262]",100.0,"[-0.1054128565323295,-0.13700873965973295]",100.0,"[0.1557747812524695,0.012261810629159261]",100.0,"[0.15143743781220304,-0.06503046635807218]",100.0,"[-0.12979350969155412,-0.09118862275023493]",100.0,"[0.13465713625378092,0.07627465583936344]",100.0,"[0.18659887316898383,0.038401560193502035]",100.0,"[0.007603647363674514,0.18280487608752122]",100.0,"[-0.04795767746203351,0.1811103598375747]",100.0,"[-0.0162180002127541,-0.01734857584844661]",100.0,"[0.06188865345676074,-0.011444912418132199]",100.0,"[-0.11977884319530134,0.1480568188383049]",100.0,"[0.08503302915061159,0.06303566699435417]",100.0,"[-0.05692975560485406,-0.06109427524485824]",100.0,"[-0.05579087213086062,0.10969839849659822]",100.0,"[-0.17778487290549908,0.07229659233299966]",4.0,"[-0.01128996017764058,-0.1510927286317389]",100.0,"[0.08188170330290453,-0.1711926505749394]",100.0,"[0.02,0.02]",133.6349,0.0,18.0,18.0,17.0,1.0,,,,,,,
,,,,,,,5a8d8079190420000156435d,6842bb3b96e1f3ce14561fac,2025-06-06_05h57.17.031,shape_ratio,2024.1.5,Win32,59.88023952,6842b561977af9ba9b0f87ca,,,,,,,,,,,133.6352,134.123,,,134.3685,134.9108,left,,,,,,,,0.55,0.5309,,,,,,,134.1231,134.3684,134.9108,"[-0.05112335072916717,-0.04111085713262559]",4.0,"[0.13221224263122952,-0.04223687095815592]",4.0,"[0.08205798544397884,-0.0802575709792861]",100.0,"[-0.059944832612897465,0.15817052415313243]",4.0,"[0.02341296257936764,-0.0507293906345282]",4.0,"[0.15805626433306402,0.0785946414216854]",4.0,"[0.020634678969249032,-0.19488868484440924]",100.0,"[-0.1564863143853366,0.01243565649727431]",100.0,"[-0.11557004316714228,0.05919286518221945]",4.0,"[0.006101527812177664,-0.1059090094023125]",100.0,"[0.030217039598344698,0.015553921836396449]",4.0,"[-0.020433270489970852,0.024573123286595985]",100.0,"[0.030138247481397495,0.13866438909972392]",100.0,"[0.18554288490099677,0.005156556090169958]",100.0,"[0.03535384783898092,-0.14880044671263398]",4.0,"[0.09864193826869457,-0.015043545941179676]",4.0,"[0.05795794116631317,0.10570939459004498]",100.0,"[0.012132346711046866,0.1832385824101369]",100.0,"[0.12357314693827576,-0.12776080889005914]",100.0,"[0.10864266201233794,0.12088718479539838]",100.0,"[-0.021871607504455957,0.12708273171414342]",100.0,"[-0.14244333538537493,-0.10357117202204934]",4.0,"[-0.0848688035758721,0.0075099468321510295]",100.0,"[-0.10432362606436534,0.1099125534682384]",4.0,"[-0.07109488275515345,0.06799365242000471]",4.0,"[0.1757652068699676,-0.03822427888482192]",100.0,"[0.08949700242990573,0.05124650719737105]",100.0,"[0.16171953601028874,-0.1060914838866594]",100.0,"[-0.09941835103909953,-0.06779877243720195]",100.0,"[-0.03921340698253623,-0.13201765982970598]",4.0,"[-0.10057404780623543,-0.1386795910210997]",100.0,"[0.1245100715565549,-0.08674247000752147]",4.0,"[0.02,0.02]",135.9993,0.0,19.0,19.0,81.0,1.0,,,,,,,
,,,,,,,5a8d8079190420000156435d,6842bb3b96e1f3ce14561fac,2025-06-06_05h57.17.031,shape_ratio,2024.1.5,Win32,59.88023952,6842b561977af9ba9b0f87ca,,,,,,,,,,,135.9996,136.4932,,,136.7398,137.4798,left,,,,,,,,0.4,0.7277,,,,,,,136.4932,136.7398,137.4798,"[-0.17543950765169095,0.06601675347418617]",4.0,"[-0.02500942446450163,-0.178480436530087]",4.0,"[0.03382715578178362,-0.1379323886337485]",4.0,"[-0.10871482539429254,0.1090696183505047]",4.0,"[0.13985025844050533,-0.08027624925826096]",100.0,"[-0.08026559069172408,0.16971839888853774]",100.0,"[-0.014276928566692389,0.14662491362081373]",4.0,"[0.19708784549635205,0.018379740121507566]",100.0,"[-0.029049011204892904,-0.05724567202778397]",4.0,"[0.02974696842013976,0.032869066098856925]",4.0,"[0.1284951522345948,0.1347844900042981]",100.0,"[-0.15543505868162447,-0.010134657140850373]",4.0,"[0.11418518130518555,0.06994494357176179]",100.0,"[0.08710215184346087,-0.17379956932249704]",100.0,"[0.17216686279953913,0.07504473381150338]",4.0,"[0.18510790647507602,-0.05488637453977571]",4.0,"[0.14404610297971188,0.013269443849052225]",4.0,"[0.09274701995234313,-0.051456329899525775]",100.0,"[-0.06642080997804936,0.11472743951786603]",100.0,"[0.08462513551635685,0.007834976169319123]",4.0,"[-0.07194166064566934,0.0028097336565190895]",100.0,"[0.05899480113001027,0.09239499584366766]",4.0,"[0.09793615304816237,-0.1130001323049183]",4.0,"[-0.04219464357969889,-0.11163249574972339]",100.0,"[0.003703238791147636,0.18790722591004239]",100.0,"[-0.11165531111884339,0.05817048924796091]",4.0,"[-0.028138190424597264,0.0005825245457583154]",4.0,"[0.05384429437944806,0.1654122881482175]",4.0,"[-0.0038355722081285233,-0.091881992307285]",4.0,"[-0.12164917446560987,-0.05902195420764224]",100.0,"[-0.154424887093834,-0.12327239437956042]",100.0,"[-0.07311091645370003,-0.16736726870861618]",4.0,"[0.02,0.02]",138.5795,0.0,20.0,20.0,156.0,1.0,,,,,,,
,,,,,,,5a8d8079190420000156435d,6842bb3b96e1f3ce14561fac,2025-06-06_05h57.17.031,shape_ratio,2024.1.5,Win32,59.88023952,6842b561977af9ba9b0f87ca,,,,,,,,,,,138.5798,139.0779,,,139.329,140.0734,right,,,,,,,,0.9,0.733,,,,,,,139.078,139.3289,140.0734,"[-0.03599448192798728,-0.016237717837449844]",100.0,"[0.033001959674372326,0.05943498261264189]",100.0,"[-0.04890018938139215,0.06672842150028685]",4.0,"[0.06312302738737109,-0.15452910040725923]",100.0,"[-0.17128763019775886,0.09320677627578348]",100.0,"[-0.03453957084564758,-0.10898524749149843]",100.0,"[0.09948597302178316,0.13651674493844024]",100.0,"[0.17605142144669708,-0.08306937778984652]",100.0,"[-0.006271070099473382,-0.1788324599081218]",100.0,"[0.01921661203157959,0.19804885442004413]",100.0,"[0.11559563427061494,0.05176585532492944]",100.0,"[0.07552956209003334,-0.09266345199860408]",100.0,"[-0.13353269524694256,-0.11906358803410752]",100.0,"[0.04555278168530519,-0.03963093127603505]",4.0,"[-0.11839587091466078,-0.04127392056989691]",100.0,"[0.03530120525744938,-0.11398172182527846]",100.0,"[-0.08692358493211352,0.054198544598033256]",100.0,"[0.09566527268916462,-0.05324820753153422]",100.0,"[-0.027386801970152985,0.18343760580209068]",100.0,"[0.16168924808460858,0.05029075877237345]",100.0,"[-0.0981413485349342,-0.15340274983055413]",100.0,"[-0.0700130343501664,0.10689193404000949]",100.0,"[-0.071412695191152,-0.06965961667606044]",100.0,"[0.1496256513618965,-0.03566437859496148]",100.0,"[-0.11634471676590992,0.10292433371144138]",4.0,"[0.1078660078662661,-0.12928377592735324]",100.0,"[-0.030166066489840958,-0.06753056222561211]",100.0,"[-0.10276957018364186,0.15497363569890854]",100.0,"[0.03771512973863145,0.15626636078051584]",100.0,"[0.026089284354329386,0.11725926925134215]",100.0,"[-0.09342185504640901,0.0018357189873514162]",100.0,"[-0.1930127136874582,0.009874720415310574]",100.0,"[0.02,0.02]",141.1786,0.0,21.0,21.0,11.0,1.0,,,,,,,
,,,,,,,5a8d8079190420000156435d,6842bb3b96e1f3ce14561fac,2025-06-06_05h57.17.031,shape_ratio,2024.1.5,Win32,59.88023952,6842b561977af9ba9b0f87ca,,,,,,,,,,,141.1789,141.6769,,,141.9196,142.3758,right,,,,,,,,0.6,0.4449,,,,,,,141.6769,141.9196,142.3759,"[-0.13192727308287866,0.11995559445281628]",100.0,"[0.10772495637418583,0.006884584374753905]",100.0,"[0.11443026570761475,0.0917081885941153]",4.0,"[0.13184989998473662,-0.07323485978952624]",100.0,"[0.06440976384432637,0.040780061354926976]",100.0,"[0.052635581293356014,-0.07591924416898117]",100.0,"[0.018856263730982238,-0.09852435493371985]",100.0,"[-0.0857988103874232,0.10066209909473503]",4.0,"[-0.043973392654955805,0.1370852090721996]",100.0,"[0.06520061188711043,-0.1592076042793296]",100.0,"[0.11507952218242168,-0.15061552646980522]",100.0,"[-0.10573887455084684,0.045362020504033415]",100.0,"[-0.17749453509341528,0.07479831997638324]",4.0,"[0.046744127972955685,0.1212939493118486]",4.0,"[-0.012111596742909111,-0.14328402437158397]",100.0,"[0.1467980932786069,0.030688639684207406]",4.0,"[-0.08220915656769036,-0.1423022240192736]",100.0,"[-0.013660951698247244,0.03449399247376389]",100.0,"[-0.1367610092676679,-0.04826699469629766]",100.0,"[0.03295235647100492,0.1767444369426136]",4.0,"[0.149803314549548,-0.01768795385591169]",4.0,"[0.019914756671415894,-0.18211789673990758]",100.0,"[-0.18149537815064204,-0.05109602506545299]",4.0,"[-0.18648836422460843,-0.007544408520222163]",4.0,"[-0.02001345390161924,-0.01973420077650505]",4.0,"[0.018435642477093898,-0.046762949931876956]",100.0,"[-0.09528737438433206,0.16203381555849436]",100.0,"[-0.032586848757187585,0.1921144691221003]",100.0,"[0.16639752412688744,-0.1064671326218529]",4.0,"[0.08174594323085858,-0.11972162186672115]",4.0,"[-0.0005665821899028078,0.10349486592829897]",100.0,"[-0.04309175603253515,-0.11268429091761563]",4.0,"[0.02,0.02]",143.4639,0.0,22.0,22.0,48.0,1.0,,,,,,,
,,,,,,,5a8d8079190420000156435d,6842bb3b96e1f3ce14561fac,2025-06-06_05h57.17.031,shape_ratio,2024.1.5,Win32,59.88023952,6842b561977af9ba9b0f87ca,,,,,,,,,,,143.4642,143.9626,,,144.2101,145.0573,left,,,,,,,,0.45,0.8355,,,,,,,143.9626,144.2101,145.0574,"[-0.0344081350886293,-0.126163366560666]",100.0,"[0.0827617295980291,0.10415714537619108]",100.0,"[-0.18633003921856106,-0.04630977079072293]",4.0,"[0.029007042642061106,-0.026164088776682498]",100.0,"[-0.10538603577600396,-0.1206831118819948]",4.0,"[0.14650377913334964,-0.07637506007941476]",100.0,"[0.06033313467171592,-0.12939615634055124]",100.0,"[-0.0893241233960758,0.005596711270985874]",4.0,"[-0.12607908371693574,-0.0774051974775446]",4.0,"[0.12837826059862387,0.016553510428947666]",100.0,"[-0.12103836288977465,0.13746478256738412]",4.0,"[0.05111720762429764,-0.07996618576122905]",100.0,"[0.0632624262355958,0.03397815573708716]",100.0,"[-0.016769596150610425,0.11556955687740476]",4.0,"[0.06552702198462614,0.17523765490952664]",100.0,"[0.10689133501968692,0.05673918204024902]",100.0,"[0.1779122310642151,0.01886529702957543]",100.0,"[0.16037314180604226,-0.019310272007459255]",4.0,"[0.11288180368276629,0.135067301311368]",4.0,"[0.09756948849319771,-0.06380393030879959]",4.0,"[0.09317042243633113,-0.16064822448048993]",4.0,"[-0.1955990775109941,0.0046138501533085985]",4.0,"[-0.06660134003059007,0.07999226810653212]",4.0,"[0.12743236956052376,0.093702339147464]",4.0,"[-0.1322689833626501,0.09416045393448974]",100.0,"[-0.015718286260104485,0.016835242917832824]",100.0,"[-0.00743820375399503,0.1795759427380558]",4.0,"[-0.04703517032839561,0.0428088816193357]",4.0,"[-0.00598025333644335,-0.08093164619252263]",4.0,"[-0.14095438380292052,0.014535560224040615]",4.0,"[-0.08431974325550246,0.1805932173504289]",100.0,"[-0.007258171833215694,-0.1666714863708429]",4.0,"[0.02,0.02]",146.1584,0.0,23.0,23.0,130.0,1.0,,,,,,,
,,,,,,,5a8d8079190420000156435d,6842bb3b96e1f3ce14561fac,2025-06-06_05h57.17.031,shape_ratio,2024.1.5,Win32,59.88023952,6842b561977af9ba9b0f87ca,,,,,,,,,,,146.1587,146.6616,,,146.9116,147.4553,right,,,,,,,,0.6,0.5319,,,,,,,146.6618,146.9115,147.4555,"[0.10747338370204489,0.008806426722057002]",4.0,"[0.04648891401709935,0.14418381219224682]",100.0,"[-0.1677668835614198,-0.042914077939260976]",100.0,"[-0.02413104200455817,-0.19402439114629097]",100.0,"[0.01051124461964192,0.16913628341934836]",4.0,"[0.10768462948263056,0.0852052264589421]",100.0,"[0.005472545195149864,0.03666076693594381]",100.0,"[-0.02432395218719294,-0.045585031239898106]",100.0,"[0.0356782075760372,-0.1133804453520716]",100.0,"[-0.09259674790896119,-0.03384514397885587]",100.0,"[0.14558007722721245,0.042905487471014796]",4.0,"[-0.08919320340617867,-0.11458649226332591]",100.0,"[-0.12020818074784145,0.07594484854655081]",4.0,"[-0.05717171566814063,0.10655143936267045]",4.0,"[0.11110724977266587,-0.1246597071530661]",100.0,"[0.19262569932550597,0.03781569773415744]",4.0,"[-0.010549259997140702,-0.10019786824971574]",100.0,"[0.07998094204587192,0.038129913173353173]",100.0,"[-0.1365414261809433,0.022092362303992242]",100.0,"[-0.06342359299341695,0.04132837620707294]",100.0,"[0.04565290352043668,0.1022803500875908]",4.0,"[-0.07792319456427557,-0.15600843378632256]",100.0,"[0.13489118805317837,-0.08422679187420075]",4.0,"[-0.16814565411702095,0.0906322522082792]",100.0,"[0.08984309520459628,0.13449303524337403]",4.0,"[0.10968383951663312,-0.04546320413922706]",100.0,"[-0.001439890300751568,0.13032476581138747]",4.0,"[-0.16914826706957173,-0.08493408568038673]",4.0,"[-0.10456657347039784,-0.07351637585273654]",4.0,"[-0.01880330579444271,-0.14939587963608042]",100.0,"[-0.031052214897921905,0.18770879556231299]",100.0,"[0.09911246961815318,-0.17258006187809144]",4.0,"[0.02,0.02]",148.5529,0.0,24.0,24.0,59.0,1.0,,,,,,,
,,,,,,,5a8d8079190420000156435d,6842bb3b96e1f3ce14561fac,2025-06-06_05h57.17.031,shape_ratio,2024.1.5,Win32,59.88023952,6842b561977af9ba9b0f87ca,,,,,,,,,,,148.5531,149.0495,,,149.3021,149.967,right,,,,,,,,0.9,0.6533,,,,,,,149.0496,149.3021,149.967,"[0.08848147696039063,0.07963594567623582]",100.0,"[-0.010173078795018236,-0.189092925456501]",100.0,"[0.06485921061098814,-0.12042586988389402]",100.0,"[-0.1823235429042052,-0.007000715822401467]",100.0,"[-0.05321866291224947,-0.08046035203037734]",100.0,"[0.002580192062308247,0.05658399252217597]",4.0,"[-0.10793352061036933,0.148421668318743]",100.0,"[-0.05138091070852333,-0.16767341499759894]",100.0,"[0.03828949065412941,-0.17420923055725301]",100.0,"[0.0352706070594746,0.1561345340845045]",100.0,"[0.10319633288034219,0.1576044235183131]",100.0,"[-0.13198047094721296,-0.036897407997285685]",4.0,"[-0.007705853794241969,-0.10159169327597731]",100.0,"[-0.16237729810253435,0.1007443851314589]",100.0,"[-0.007655232723004231,-0.04710796718059269]",100.0,"[-0.07118765411366355,-0.007354244346873112]",100.0,"[0.18053489546162993,-0.07978476771680207]",100.0,"[-0.04429973110524941,-0.12119367846742023]",100.0,"[0.0029400534847334086,0.1288597227742982]",100.0,"[-0.019219473382874767,-3.824723349462277e-7]",100.0,"[-0.05792105103557347,0.053323934353056886]",100.0,"[-0.1934315808907315,-0.0457140620702219]",100.0,"[-0.10233084811083745,-0.16251524525221478]",100.0,"[0.11095445532105386,-0.05985413664344837]",100.0,"[0.043923619115358886,0.02807389049720885]",100.0,"[-0.12661067197058146,-0.08955861398959308]",100.0,"[0.13673588580486282,-0.010534950552906163]",100.0,"[0.10560986088525884,-0.14722873812172022]",100.0,"[-0.0601250883812099,0.17345708996062237]",4.0,"[0.18645591288374497,0.012512028841430293]",100.0,"[0.08678987622492254,0.01006281936088074]",100.0,"[0.0823155507908607,-0.1821145256743208]",100.0,"[0.02,0.02]",151.0594,0.0,25.0,25.0,21.0,1.0,,,,,,,
,,,,,,,5a8d8079190420000156435d,6842bb3b96e1f3ce14561fac,2025-06-06_05h57.17.031,shape_ratio,2024.1.5,Win32,59.88023952,6842b561977af9ba9b0f87ca,,,,,,,,,,,151.0597,151.5518,,,151.7964,152.2625,right,,,,,,,,0.9,0.454,,,,,,,151.5518,151.7963,152.2625,"[0.054290106639128116,0.04645521684705819]",100.0,"[0.1611226270753685,-0.0039287393303122356]",100.0,"[0.03726798748527024,-0.16943250394399612]",100.0,"[0.17620050274561783,-0.04355432212122165]",100.0,"[-0.13859592879019764,-0.02128531671628945]",100.0,"[0.1910449552660065,0.05717358385006398]",100.0,"[0.13238329542272026,0.07977272096571637]",100.0,"[0.07731279335382456,-0.012397095681157938]",100.0,"[0.04737047538942624,0.1675690421189327]",100.0,"[-0.1860224028762177,0.009213197191344499]",100.0,"[-0.13322008516802308,0.044457077736143664]",100.0,"[-0.011231734892558815,0.1795793801831333]",100.0,"[-0.06714506377724824,-0.0904206005074676]",4.0,"[-0.05423076319547286,0.18404892124912267]",100.0,"[-0.030169235115859467,-0.10572372180650236]",4.0,"[-0.059933223864139185,-0.007219000646449117]",100.0,"[-0.07885452290894292,0.053455270625750666]",100.0,"[-0.16265557913052808,-0.08666450432402326]",100.0,"[0.14769488651408358,-0.07773871764685909]",100.0,"[0.06526598433405269,-0.1180791152352938]",100.0,"[-0.004891516167744996,0.0004437080492436054]",100.0,"[-0.1816274001263449,0.060418776877097416]",100.0,"[-0.04709409230150692,0.08748577707064879]",100.0,"[-0.08863398661918187,0.13203834971589906]",4.0,"[-0.14662110078099844,0.12053777083957266]",100.0,"[0.046692157804227453,0.10348836640520431]",100.0,"[0.0694732920375248,-0.06157029586118797]",100.0,"[-0.05316372138515094,-0.17894099574468544]",100.0,"[0.08695102581379749,0.13761976398752637]",100.0,"[-0.023858163347873062,0.04473756723548842]",100.0,"[-0.003577970583644519,-0.04914647193537032]",100.0,"[0.0026164557655925552,0.12761524216268177]",100.0,"[0.02,0.02]",153.3605,0.0,26.0,26.0,2.0,1.0,,,,,,,
,,,,,,,5a8d8079190420000156435d,6842bb3b96e1f3ce14561fac,2025-06-06_05h57.17.031,shape_ratio,2024.1.5,Win32,59.88023952,6842b561977af9ba9b0f87ca,,,,,,,,,,,153.3608,153.8518,,,154.0976,154.9362,right,,,,,,,,0.55,0.8268,,,,,,,153.8518,154.0975,154.9362,"[0.0820393623490641,0.13440817886268513]",4.0,"[-0.03050489757393265,0.1331041885453418]",100.0,"[-0.07736745981189234,0.09774086973440206]",4.0,"[0.1955551701480762,-0.0041356655854690874]",100.0,"[-0.013270681812550686,-0.19829143858337275]",100.0,"[-0.10014960153479495,-0.14377482799764726]",100.0,"[-0.11053678609491963,-0.04421094816653597]",100.0,"[-0.025905036181778623,0.03393488657930954]",100.0,"[-0.028078689851509755,-0.12527995358559454]",4.0,"[0.16224025303002518,0.07372316186321307]",100.0,"[0.11354368780980466,0.08257410176603906]",4.0,"[0.16186826943132235,-0.037904924117133434]",100.0,"[-0.16566985374767595,-0.014615033481550238]",4.0,"[0.01294891824916791,0.19017232664354028]",100.0,"[0.08402461234593653,-0.15064730367739831]",4.0,"[0.03216960178832997,-0.04482058688799512]",4.0,"[0.10187090704297068,-0.09837297755274019]",4.0,"[-0.10849212079256522,-0.09759687830001344]",100.0,"[-0.17324458942468743,0.03458507221929057]",100.0,"[-0.07039276945124771,-0.0005031599632532088]",4.0,"[0.1637672967762756,0.02276612376397358]",4.0,"[-0.03681556265615901,-0.056154243495440556]",4.0,"[-0.07418116456670105,0.046073497610627144]",100.0,"[0.09188336198229703,-0.014139258849775323]",100.0,"[0.07129769828483314,0.06203746462276428]",100.0,"[-0.15445125240609345,0.10790936862914143]",100.0,"[0.017545767235142062,-0.1116033317464285]",4.0,"[-0.10991309568604485,0.07435128841607092]",4.0,"[-0.1179910617875563,0.01611903373481631]",100.0,"[0.0031889572420805055,0.09165959247877374]",100.0,"[-0.05400181968006965,-0.1854082085191585]",100.0,"[-0.06764547332040487,-0.08533537717461069]",4.0,"[0.02,0.02]",156.0283,0.0,27.0,27.0,63.0,1.0,,,,,,,
,,,,,,,5a8d8079190420000156435d,6842bb3b96e1f3ce14561fac,2025-06-06_05h57.17.031,shape_ratio,2024.1.5,Win32,59.88023952,6842b561977af9ba9b0f87ca,,,,,,,,,,,156.0286,156.526,,,156.773,157.4161,left,,,,,,,,0.5,0.6309,,,,,,,156.526,156.7729,157.4161,"[-0.0810685461772699,0.1463797273749531]",4.0,"[-0.04895462890780826,0.11034340777172463]",100.0,"[-0.03384352471143756,-0.15984615542844144]",4.0,"[0.15901045937605973,-0.04613594707696354]",4.0,"[0.10177743966191236,0.07318645256160564]",100.0,"[0.11687645015171762,-0.0018054941447098113]",4.0,"[0.01505605262802533,0.1308508033146412]",4.0,"[-0.19618633294906615,0.0045460547305307365]",4.0,"[-0.01426286400521128,-0.04810229001045003]",100.0,"[-0.07016818419840527,-0.06879510474841848]",100.0,"[0.10827966778713685,-0.12841215875726433]",100.0,"[0.014578131343258867,-0.1761125899555852]",100.0,"[0.04648685597077046,-0.0020045284700360992]",4.0,"[0.16670168840052527,0.08782606479381797]",100.0,"[-0.11006601423469561,-0.10430011387862556]",4.0,"[0.18221075638057502,0.0452099371491827]",100.0,"[-0.12874135653291677,-0.04034582854861844]",100.0,"[0.09620828724700829,0.12530226585600007]",4.0,"[-0.13423988116065227,0.12813275940436752]",100.0,"[0.045246829801835885,0.19075463653368532]",100.0,"[-0.07744911541435856,-0.1310302774150116]",4.0,"[0.06876277481394488,-0.07896194949437253]",4.0,"[0.081010183397956,-0.16065648738428082]",4.0,"[0.02088570711418356,-0.13279086196271997]",100.0,"[-0.1537893127074634,-0.09915351633987836]",100.0,"[-0.0868424121193925,0.05374577115271436]",4.0,"[-0.019958411755813164,0.18319657559242813]",4.0,"[-0.18433534089670991,-0.04886925978355704]",4.0,"[0.11874144249681264,-0.05444211246128263]",100.0,"[0.010013523762196207,0.052964598387506806]",100.0,"[-0.18217056646287502,0.051050450111540455]",100.0,"[-0.0656252883416695,-0.00331133834334655]",4.0,"[0.02,0.02]",158.5218,0.0,28.0,28.0,103.0,1.0,,,,,,,
,,,,,,,5a8d8079190420000156435d,6842bb3b96e1f3ce14561fac,2025-06-06_05h57.17.031,shape_ratio,2024.1.5,Win32,59.88023952,6842b561977af9ba9b0f87ca,,,,,,,,,,,158.5221,159.0153,,,159.2615,160.2526,right,,,,,,,,0.55,0.9798,,,,,,,159.0153,159.2615,160.2527,"[-0.12053219126564507,0.12298860432113774]",100.0,"[-0.048332506240360895,-0.17062774217981047]",100.0,"[0.008450563832631158,0.05464647081767604]",100.0,"[-0.07153156282446609,0.016983590984340442]",4.0,"[0.020749594166098322,-0.04996447766589313]",100.0,"[0.14641287326147273,0.12384699552400155]",100.0,"[0.12000091149390996,-0.14171842313886573]",4.0,"[-0.07224423100828785,-0.0420328673653371]",4.0,"[0.15404269276742083,-0.025908872990516835]",100.0,"[0.08820918725394657,0.03264569493162853]",4.0,"[-0.19228191723004703,0.01503970821474993]",100.0,"[0.09374926714206223,-0.07304862446259094]",100.0,"[0.019552189389515365,-0.170172949368692]",100.0,"[-0.058176862969016856,-0.12367703502176379]",4.0,"[-0.06852885672797134,0.17721716303554705]",4.0,"[0.03299462196675845,0.1484633543955231]",4.0,"[0.03265659068702842,0.10402312828839937]",100.0,"[-0.01936524101759881,-0.09698645844028389]",4.0,"[0.1088048702816387,0.07513416325609659]",4.0,"[0.07714398480209782,0.12607949602872906]",4.0,"[-0.00853233953826568,0.1975241233120354]",100.0,"[-0.15238258362726856,0.07962203322353033]",4.0,"[0.10373296921934984,-0.012527646836044168]",4.0,"[-0.07714901890500098,0.12117985583167071]",100.0,"[-0.15457823936809803,-0.1035636232788423]",100.0,"[0.19115230595122265,-0.00735639291661273]",100.0,"[0.06358410067720191,-0.15588181624268715]",4.0,"[0.17150494461254143,-0.07582528082644377]",100.0,"[-0.023785953490956805,0.024527763687015612]",100.0,"[0.1885385729494666,0.04742725609734485]",4.0,"[0.03990976897608382,-0.013547077967850192]",100.0,"[-0.11561361724903016,-0.05388328247856038]",100.0,"[0.02,0.02]",161.335,0.0,29.0,29.0,61.0,1.0,,,,,,,
,,,,,,,5a8d8079190420000156435d,6842bb3b96e1f3ce14561fac,2025-06-06_05h57.17.031,shape_ratio,2024.1.5,Win32,59.88023952,6842b561977af9ba9b0f87ca,,,,,,,,,,,161.3353,161.8247,,,162.0708,162.6118,left,,,,,,,,0.4,0.5292,,,,,,,161.8247,162.0708,162.6118,"[-0.030971911242826663,0.0027801663171074997]",4.0,"[-0.1383224620968522,-0.14315563389916025]",4.0,"[-0.1050488210487155,-0.060159632017720795]",100.0,"[0.12811611442787596,-0.08438076023781763]",4.0,"[0.06729298774840348,0.052505166143004094]",100.0,"[-0.01656701287430036,0.1704360547085929]",100.0,"[-0.03026076425315908,0.06460197998585525]",4.0,"[0.07927161775900274,0.13669188913184205]",100.0,"[0.020367691625493456,0.07942680424159308]",4.0,"[0.0961832759968096,-0.030091865088115233]",4.0,"[-0.07222324214265792,0.17121990626068512]",100.0,"[0.15446884244308692,-0.03220174575931095]",100.0,"[-0.08291446866882542,-0.1725583525242354]",4.0,"[0.055382484866608864,-0.004803829597306253]",4.0,"[0.15113924106383164,-0.12461530967279015]",4.0,"[0.0073522955269785355,-0.16869707651640617]",4.0,"[-0.0724641329704092,-0.01787005427408217]",4.0,"[0.13865855271181846,0.036681395218648674]",4.0,"[-0.14227449253558963,0.05871266794306152]",100.0,"[-0.16582028318966174,0.09555238879367611]",100.0,"[-0.17824500572154803,-0.030363678352959327]",4.0,"[0.12826210668625806,0.10324002376898758]",4.0,"[0.08421274507412194,-0.1486882392452168]",100.0,"[-0.10043493861850272,0.09300069260595802]",4.0,"[0.010507099423240846,0.12299541386899313]",4.0,"[0.059992098006137584,0.1886897396742511]",100.0,"[-0.0416832988935675,-0.08158954300309383]",4.0,"[-0.0726569927575236,0.12475753690132545]",100.0,"[0.019344295056721923,-0.10727221805505241]",100.0,"[-0.1324640387994141,0.01225174523177788]",4.0,"[-0.13107986673793598,-0.10021347350823993]",4.0,"[-0.06672732158702853,-0.12186059292674119]",100.0,"[0.02,0.02]",163.7082,0.0,30.0,30.0,159.0,1.0,,,,,,,
,,,,,,,5a8d8079190420000156435d,6842bb3b96e1f3ce14561fac,2025-06-06_05h57.17.031,shape_ratio,2024.1.5,Win32,59.88023952,6842b561977af9ba9b0f87ca,,,,,,,,,,,163.7084,164.1984,,,164.4314,164.9718,right,,,,,,,,0.5,0.5284,,,,,,,164.1984,164.4313,164.9718,"[0.06420751528602286,0.032236055105395046]",100.0,"[-0.1536937126846124,0.0005217228689884913]",100.0,"[-0.056745929089311295,0.16097877208284886]",100.0,"[-0.10221148786145041,-0.06733161141306841]",4.0,"[-0.042023907557955424,-0.14801533423426189]",100.0,"[0.030938836741857413,-0.121118997261285]",100.0,"[-0.03127275603870055,0.08264864412831338]",100.0,"[0.13611182371375435,0.07964539876690817]",100.0,"[-0.10416604938947564,-0.00280746776424147]",4.0,"[0.04279964963341195,0.0959194210878587]",100.0,"[0.1648330347448713,-0.06217151213456354]",4.0,"[0.19217912702157386,-0.017972700225552907]",4.0,"[-0.11384017923349052,0.11972332615149565]",100.0,"[-0.11331347307744594,0.05318171116407657]",4.0,"[0.016624974790049287,0.17925202558316242]",100.0,"[-0.10726379110468018,-0.15837609241537148]",4.0,"[-0.03716793582990424,-0.1883357488222507]",100.0,"[-0.1698127613780577,0.09669586403247164]",4.0,"[0.09762170510888304,0.05556814457019484]",4.0,"[0.05597739139409233,-0.1783705322495358]",100.0,"[-0.019947662509750948,0.030631505371539105]",4.0,"[0.02084037088702722,-0.1977510898144469]",100.0,"[0.09785900271556762,-0.05344019529087845]",4.0,"[0.11919399268446586,0.12374858638830678]",4.0,"[-0.07347989929353385,0.08783257716049231]",4.0,"[-0.04680410545940894,-0.009586799793183255]",100.0,"[-0.16190615521957755,-0.07913600167233795]",4.0,"[-0.01503682347856922,0.1325478857795338]",100.0,"[0.15574894866441252,-0.1036104113562386]",4.0,"[-0.007349281655967526,-0.05871784572117516]",4.0,"[-0.05632147516785472,-0.07150557525691853]",100.0,"[-0.009653615275014037,-0.10058038866676716]",4.0,"[0.02,0.02]",166.062,0.0,31.0,31.0,99.0,1.0,,,,,,,
,,,,,,,5a8d8079190420000156435d,6842bb3b96e1f3ce14561fac,2025-06-06_05h57.17.031,shape_ratio,2024.1.5,Win32,59.88023952,6842b561977af9ba9b0f87ca,,,,,,,,,,,166.0622,166.5528,,,166.8018,167.2793,right,,,,,,,,0.6,0.4648,,,,,,,166.5528,166.8018,167.2793,"[-0.110124712511103,-0.1480002142871978]",100.0,"[-0.025443758407562196,0.015054279320221903]",100.0,"[0.08305879189124063,-0.017137045988668814]",100.0,"[-0.07375266408541882,-0.06815556632726054]",100.0,"[0.06025268904995828,0.06720437759119167]",100.0,"[-0.04887188500610322,-0.18745084888990657]",4.0,"[0.06076566714179245,-0.13516775934427244]",100.0,"[-0.03465436763229386,0.1830354064722558]",4.0,"[0.08725213267744722,-0.06780884366744667]",4.0,"[0.038390927425565276,-0.03522279601934392]",4.0,"[-0.13598985289859633,-0.05662155078957907]",100.0,"[-0.04112142488451719,0.06809343336049374]",100.0,"[0.07026461622312069,0.1377929786562777]",100.0,"[0.028328810277965143,0.0066365793870606276]",100.0,"[-0.0860885211257029,0.09011264866502591]",4.0,"[-0.12298701631264312,0.13735961162818416]",100.0,"[0.17730998203200393,0.07886937838554774]",4.0,"[0.06914873424695475,-0.17989873194135633]",4.0,"[0.1413922128155653,0.01995330605219658]",4.0,"[0.002108917406722699,-0.14862272774679086]",4.0,"[0.18201091689448437,-0.04036989342632038]",4.0,"[-0.18774606083946815,0.013440811290793307]",100.0,"[0.10138917505487233,0.03882928157056095]",100.0,"[-0.03484196544735893,-0.05552848146035956]",4.0,"[-0.09393205822042298,0.04480566219449787]",100.0,"[0.09960419272810528,-0.14692129476992882]",4.0,"[0.0011420890684131506,0.11273664413209165]",100.0,"[0.014008976205867713,0.0554996274642115]",100.0,"[0.01179105239468425,0.17745123029703178]",100.0,"[-0.19250771048779014,-0.05225215389142109]",4.0,"[0.1941577248152953,0.023725536038064203]",100.0,"[-0.055403402158618616,-0.013994916480142554]",100.0,"[0.02,0.02]",168.3714,0.0,32.0,32.0,41.0,1.0,,,,,,,
,,,,,,,5a8d8079190420000156435d,6842bb3b96e1f3ce14561fac,2025-06-06_05h57.17.031,shape_ratio,2024.1.5,Win32,59.88023952,6842b561977af9ba9b0f87ca,,,,,,,,,,,168.3718,168.8609,,,169.1074,169.7277,left,,,,,,,,0.1,0.6076,,,,,,,168.861,169.1073,169.7277,"[0.06556613152316905,0.07129415236528633]",4.0,"[-0.1872467963129128,-0.009758368940779812]",4.0,"[0.0876116063883563,0.037050898597266]",4.0,"[-0.08259380523972358,-0.07617446051566498]",4.0,"[-0.1037028560471586,0.08365556864435561]",4.0,"[0.05015533597916957,-0.030118972358769133]",4.0,"[0.10076959090303537,-0.1424970180725448]",4.0,"[-0.037714000021494866,-0.03071638739397269]",4.0,"[-0.09169166811646966,-0.0059826042483610165]",4.0,"[-0.017827579059041015,0.18790705527925505]",4.0,"[-0.0782535241352602,-0.17943165194607413]",4.0,"[0.049974766061249114,-0.1172123448264759]",4.0,"[0.12414348357570258,-0.08613044369184791]",4.0,"[-0.015617947654050923,0.04686694711803424]",4.0,"[-0.18455190266366905,0.03825123478959401]",4.0,"[-0.01907864415021854,0.13430647969856352]",4.0,"[0.17300517268536714,-0.0008870024760278377]",4.0,"[0.02023611285281332,0.11422652186224391]",4.0,"[0.06877903533260114,-0.17614859761124388]",4.0,"[0.1061965403218938,0.1104718290063835]",100.0,"[0.09752941761929054,0.17318218160605783]",4.0,"[-0.04906763385258309,-0.09902330393514779]",4.0,"[0.03829069873554515,0.1839597610965023]",4.0,"[0.010828149638019369,-0.10391567366696823]",4.0,"[0.02608595615352804,0.04912304383033431]",100.0,"[-0.14753978831134792,0.09703031840303038]",4.0,"[0.17515126430476285,0.05634033725374451]",4.0,"[-0.026063297610728023,-0.16620669456872772]",4.0,"[0.05769581171295374,-0.07200357065091022]",4.0,"[0.10026494916261193,-0.0325526656338634]",4.0,"[-0.051961730373947176,0.07805998998672303]",100.0,"[-0.07606224040000757,0.12930272339882823]",4.0,"[0.02,0.02]",170.8245,0.0,33.0,33.0,209.0,1.0,,,,,,,
,,,,,,,5a8d8079190420000156435d,6842bb3b96e1f3ce14561fac,2025-06-06_05h57.17.031,shape_ratio,2024.1.5,Win32,59.88023952,6842b561977af9ba9b0f87ca,,,,,,,,,,,170.8247,171.3201,,,171.5529,172.2006,right,,,,,,,,0.9,0.6366,,,,,,,171.3202,171.5528,172.2007,"[0.09847318553743539,0.08737078382882078]",100.0,"[0.01223823104014414,0.06676079678549633]",100.0,"[0.06946131027745185,-0.09587218377471529]",100.0,"[-0.053182132954355206,0.16506156114472292]",4.0,"[0.08071185889003712,-0.011751272689239391]",100.0,"[0.13749330486334238,-0.11133635282326915]",100.0,"[-0.18220344887588635,0.03112466043448105]",100.0,"[0.18486892359254928,0.025250041965506495]",100.0,"[-0.09311387084868049,-0.17520776602732333]",100.0,"[0.17977235614994674,-0.01758724273746823]",100.0,"[-0.008801403375051593,-0.18809799558421367]",100.0,"[-0.11273945498304379,0.13561291901655687]",100.0,"[0.04815025372179232,0.10683833061214443]",100.0,"[-0.0026323631704436496,0.12240471703944499]",4.0,"[0.1036983553874811,-0.06900572529321453]",100.0,"[-0.14679645916040945,-0.12562975596290482]",100.0,"[0.11201665802590913,0.013308701818258132]",4.0,"[0.017797636889741286,-0.025411350074805623]",100.0,"[0.1639253417163977,0.09948058034101896]",100.0,"[-0.07223248713775772,-0.13576722464765734]",100.0,"[0.012641239133008308,0.16513930461790702]",100.0,"[-0.16183353636330633,-0.030329797158517986]",100.0,"[0.12881995033978402,0.0522745607195051]",100.0,"[-0.11788216196974823,-0.0688688737743051]",100.0,"[-0.03293966799697884,-0.09700752436759537]",100.0,"[-0.07137521342647421,0.08298921440583065]",100.0,"[0.0420368965778996,0.0337289266846145]",100.0,"[-0.15989169183207563,0.09525635428290641]",100.0,"[0.1072304593046374,-0.16322521583831207]",100.0,"[0.06459061430167533,-0.0516364861673147]",100.0,"[-0.08540479178151546,-0.04255183135789709]",100.0,"[0.044813849941301116,-0.1608206500575882]",100.0,"[0.02,0.02]",173.3011,0.0,34.0,34.0,16.0,1.0,,,,,,,
,,,,,,,5a8d8079190420000156435d,6842bb3b96e1f3ce14561fac,2025-06-06_05h57.17.031,shape_ratio,2024.1.5,Win32,59.88023952,6842b561977af9ba9b0f87ca,,,,,,,,,,,173.3014,173.7927,,,174.045,174.6843,right,,,,,,,,0.6,0.6278,,,,,,,173.7927,174.0449,174.6843,"[0.055299987352460556,-0.14304722640563822]",100.0,"[-0.11305596276428648,-0.04160812884081019]",100.0,"[0.08957371565869762,0.09523392775978994]",100.0,"[0.11026600778038886,-0.16387542316404824]",100.0,"[0.10907452942015503,-0.07672691683374698]",100.0,"[-0.0839389096812272,-0.010761000952065803]",4.0,"[0.16951366097522713,-0.0855714509502024]",100.0,"[-0.14354546715285912,0.06904741658960784]",4.0,"[-0.1539158284726258,-0.05653808727975972]",100.0,"[0.11090692385280596,0.15740491658167305]",100.0,"[-0.058520181833144856,-0.1267055614966431]",100.0,"[0.13077856936281126,-0.004674516587330504]",4.0,"[0.07888172533688047,0.008181083782986666]",100.0,"[-0.15696352073028766,0.009916755799740145]",4.0,"[0.01111632877495722,-0.12330541930475346]",4.0,"[-0.08717449889998814,0.10631221905486732]",100.0,"[0.1947969694536546,0.017085960641721232]",100.0,"[0.04597070810623183,0.12653463791941683]",4.0,"[-0.13427020214731827,0.12711100303456316]",100.0,"[0.03385869089383601,-0.17968969763633094]",100.0,"[0.0020970726224546093,0.05327200468378407]",100.0,"[-0.0615787720247007,-0.0730484208683991]",100.0,"[0.0006793405375616555,-0.07328050358232688]",4.0,"[-0.051538348413442146,0.07525288619071928]",4.0,"[0.056854210066819955,0.19063156489439248]",4.0,"[-0.10076568813526313,-0.13611793547828366]",100.0,"[0.050257895263267995,0.037607674820589077]",4.0,"[0.0013165396564231463,0.11691333152840236]",4.0,"[-0.021948579937475635,-0.16277299687486235]",100.0,"[-0.09377960424496422,0.175962404648291]",4.0,"[-0.1452921204112597,-0.09786824952665651]",100.0,"[-0.10503185557845757,0.03626261835315934]",4.0,"[0.02,0.02]",175.774,0.0,35.0,35.0,39.0,1.0,,,,,,,
,,,,,,,5a8d8079190420000156435d,6842bb3b96e1f3ce14561fac,2025-06-06_05h57.17.031,shape_ratio,2024.1.5,Win32,59.88023952,6842b561977af9ba9b0f87ca,,,,,,,,,,,175.7743,176.2702,,,176.5191,176.9832,right,,,,,,,,0.9,0.4525,,,,,,,176.2703,176.5191,176.9833,"[0.058055275982701826,-0.03337166636915289]",100.0,"[-0.04575982175834633,0.08698481490302001]",100.0,"[0.15174256465364314,-0.10838405634861831]",100.0,"[-0.13101619199038642,0.13494439384960075]",100.0,"[0.11880747084629657,-0.00022629972392756978]",100.0,"[-0.14070427884873601,-0.05082678384422822]",100.0,"[0.08404392955606314,-0.14963622729337106]",100.0,"[-0.046326614061264766,0.014492503822468207]",100.0,"[0.14783476841932197,-0.0585770135906581]",100.0,"[0.040780284137172135,-0.1911705920501049]",4.0,"[0.17095219332786873,0.000679925387495873]",100.0,"[-0.13065221996322088,0.03653241825417487]",100.0,"[-0.025051385282140334,0.18750215151005864]",100.0,"[0.018088729486557962,0.18620224286645412]",100.0,"[0.11965096679135503,0.059583446348207086]",100.0,"[-0.0008188210544239564,-0.04087499185917096]",100.0,"[0.05901278621457269,0.05329594300673834]",100.0,"[0.033544468840633127,0.11382370383842556]",100.0,"[0.10347170847390957,-0.082628829958614]",100.0,"[0.17836295596807641,0.060577410666539065]",100.0,"[-0.0839750116778658,-0.075150959564827]",100.0,"[0.0792465853170501,0.1506210836245372]",100.0,"[-0.1690870266322873,-0.08454189763365898]",4.0,"[-0.14374084374968532,-0.11920352796157657]",100.0,"[0.10834957934206518,0.11353080279048225]",100.0,"[0.0211559474535778,-0.1298933365684511]",100.0,"[0.14946907188453254,0.13248764981057048]",100.0,"[-0.09159061757105658,-0.1241748069517617]",100.0,"[0.0014425063564295325,0.14291739226015923]",4.0,"[0.03823916244727735,0.008299226258491199]",100.0,"[-0.0969121657774097,-0.007603170150613952]",100.0,"[-0.07876080230782766,0.0402469705746451]",100.0,"[0.02,0.02]",178.0766,0.0,36.0,36.0,15.0,1.0,,,,,,,
,,,,,,,5a8d8079190420000156435d,6842bb3b96e1f3ce14561fac,2025-06-06_05h57.17.031,shape_ratio,2024.1.5,Win32,59.88023952,6842b561977af9ba9b0f87ca,,,,,,,,,,,178.0768,178.5834,,,178.8283,179.3472,left,,,,,,,,0.1,0.5078,,,,,,,178.5834,178.8282,179.3472,"[0.11818887918385812,-0.0642746959353401]",4.0,"[-0.10338973875737552,-0.13672161857585605]",4.0,"[0.14723547105326448,0.09907492867255774]",4.0,"[0.012899127106097776,-0.15879340875857886]",4.0,"[-0.05106587738911925,0.178105850573954]",100.0,"[0.04674248307973005,0.16198319418862306]",4.0,"[-0.16365610398935126,-0.011263916841547697]",4.0,"[0.04261266653535632,0.0963362770696845]",100.0,"[0.07786205679732006,0.0597060743898832]",4.0,"[-0.05239618893129544,-0.06467115828910933]",4.0,"[0.0813696330630569,-0.10147713107462501]",4.0,"[-0.09051511107327867,-0.002424828712696494]",4.0,"[-0.13322925234298263,0.0706667133276347]",4.0,"[-0.07516980483592577,0.07475607809384094]",4.0,"[0.0473119648136304,0.020165494803013634]",4.0,"[-0.10215051107080157,-0.09329525271997476]",4.0,"[0.07973632609577161,-0.17235010447491136]",4.0,"[0.19399387271014562,-0.021806009841509585]",4.0,"[0.037155893340195006,-0.026018757019126548]",4.0,"[0.002073146888709585,-0.07292253211371419]",4.0,"[-0.15596416113326297,-0.11011708188874016]",4.0,"[0.10662614925426604,0.0174245491300638]",4.0,"[-0.12043397490678284,0.12393944889121358]",4.0,"[-0.018536882402087562,-0.1987887289661327]",4.0,"[-0.14238967064793448,-0.045702584298736366]",4.0,"[-0.06212757157035513,-0.1725520032348037]",4.0,"[-0.1791990950695902,0.0695408791135247]",4.0,"[-0.06009838900579701,0.030576515957251325]",4.0,"[0.009273261425986726,0.04803159597093702]",4.0,"[0.14964171724440334,0.016966959076951105]",4.0,"[0.16067459735045864,-0.10219414420121554]",100.0,"[0.008427880589493161,0.18292713747451117]",4.0,"[0.02,0.02]",180.4399,0.0,37.0,37.0,204.0,1.0,,,,,,,
,,,,,,,5a8d8079190420000156435d,6842bb3b96e1f3ce14561fac,2025-06-06_05h57.17.031,shape_ratio,2024.1.5,Win32,59.88023952,6842b561977af9ba9b0f87ca,,,,,,,,,,,180.4401,180.9392,,,181.1885,181.9653,right,,,,,,,,0.6,0.7651,,,,,,,180.9392,181.1885,181.9654,"[-0.11451358177018883,0.0789705211323228]",4.0,"[-0.0015736366087554842,-0.07371643076887299]",4.0,"[-0.1564452525454041,0.10971094882429154]",100.0,"[-0.025758047419435198,-0.170563315082345]",100.0,"[0.01056977542834666,0.1363323575885864]",100.0,"[-0.19356842225584994,0.021491327552671618]",100.0,"[0.13082701277295386,0.026064349255117095]",4.0,"[-0.08699548504926777,-0.11769762355831584]",100.0,"[0.14462810622526043,0.1337169658415245]",4.0,"[0.09310917568913492,-0.002026984777138041]",100.0,"[-0.02019646038199496,0.03831072729112051]",4.0,"[0.027981251190061073,0.0373002261793219]",4.0,"[0.049360688384647355,-0.09270502859488274]",100.0,"[0.18024720624295,0.019106905865463007]",100.0,"[-0.14106366373276688,-0.014792511636078835]",100.0,"[-0.16918969178915574,-0.0520227575106298]",100.0,"[-0.16875566992998753,0.06972253772514252]",4.0,"[-0.13419528194528413,-0.12484936574946993]",4.0,"[0.08054300025405971,0.15393003257789212]",100.0,"[0.040926835885582304,-0.13817788636775755]",100.0,"[0.16420446153938548,0.09129986393659849]",100.0,"[-0.11572719827335956,0.13283599177986613]",4.0,"[-0.025123227524875676,0.1670901121114542]",4.0,"[-0.05325302084076742,-0.13925984072784323]",100.0,"[0.10151089039564294,-0.043969917379015774]",4.0,"[0.03567803776779048,-0.004364098044504297]",100.0,"[0.1699593803675886,-0.032991892579427515]",100.0,"[0.16187921725080698,-0.09546843216015032]",4.0,"[-0.05699593189403612,-0.08150092911382056]",100.0,"[0.07956296133399092,0.10459243431143574]",100.0,"[-0.09928002956532178,-0.040863397059560255]",100.0,"[0.07970768122767456,0.04717668151528083]",4.0,"[0.02,0.02]",183.0691,0.0,38.0,38.0,57.0,1.0,,,,,,,
,,,,,,,5a8d8079190420000156435d,6842bb3b96e1f3ce14561fac,2025-06-06_05h57.17.031,shape_ratio,2024.1.5,Win32,59.88023952,6842b561977af9ba9b0f87ca,,,,,,,,,,,183.0693,183.563,,,183.8102,184.401,right,,,,,,,,0.6,0.5785,,,,,,,183.563,183.8102,184.401,"[-0.03642630933586079,0.14556445387493464]",100.0,"[0.021465285940993138,0.1095828131250437]",4.0,"[-0.08919699928231123,-0.05328985839490801]",100.0,"[-0.116248571051018,-0.11593964195695142]",100.0,"[0.02607529423391397,-0.017856605565935553]",100.0,"[0.12871416084044962,-0.11199331288333392]",100.0,"[-0.18994262643520374,0.02997215687101112]",100.0,"[-0.11047972610716272,0.00023299135508386275]",100.0,"[0.1508820152266782,0.12076043094813423]",100.0,"[-0.04149461138143853,0.03151443636739182]",100.0,"[0.04672824956774946,0.18724014482933288]",100.0,"[0.006295480137537461,0.07009396389343815]",4.0,"[0.11460321773384112,-0.05854053394774066]",4.0,"[0.06958814081973216,0.13670752362961752]",100.0,"[0.0530036109178081,-0.11622085762448996]",100.0,"[-0.13987804343056084,-0.04297267791566021]",100.0,"[-0.17134998650163963,-0.08958816528829548]",100.0,"[-0.06389449857576526,0.09326619071699015]",4.0,"[0.0647761902650977,-0.1559768767950653]",100.0,"[-0.05422942837891525,-0.10709545773801037]",4.0,"[0.0945318838987588,0.17333610119147724]",100.0,"[-0.12273406895154225,0.14748907428929653]",4.0,"[0.19945643380032724,-0.00014171431860449194]",4.0,"[0.05006292864271139,-0.07454203527809604]",4.0,"[-0.15141311940809482,0.10131977894323446]",4.0,"[0.09145959947895778,0.041585514459471784]",4.0,"[-0.03308646242255368,-0.1653742663287137]",4.0,"[-0.11142547418021546,-0.16484352062187135]",4.0,"[0.15140955002875858,-0.015253614438357484]",100.0,"[-0.17080331776395577,0.0657578001260457]",100.0,"[0.04625458829078651,0.05603453530482563]",4.0,"[-0.019398960369067353,-0.07732264824597698]",100.0,"[0.02,0.02]",185.4994,0.0,39.0,39.0,45.0,1.0,,,,,,,
,,,,,,,5a8d8079190420000156435d,6842bb3b96e1f3ce14561fac,2025-06-06_05h57.17.031,shape_ratio,2024.1.5,Win32,59.88023952,6842b561977af9ba9b0f87ca,,,,,,,,,,,185.4997,185.9981,,,186.2461,186.802,right,,,,,,,,0.55,0.5444,,,,,,,185.9981,186.246,186.8021,"[0.056118507595921865,0.028165654275387947]",100.0,"[-0.04723924843376395,-0.04827142855161751]",4.0,"[0.15261318144034494,0.02866530392715706]",4.0,"[-0.00934081288341592,0.1594116233185369]",100.0,"[-0.04882778425617836,0.11935079124001717]",100.0,"[0.17861087176916993,-0.0573434005346719]",4.0,"[0.07744864771300866,-0.10413218441285983]",100.0,"[0.02865989120307776,0.08885822779200875]",4.0,"[-0.05137358157299343,0.01178717702462552]",100.0,"[-0.16565642557325455,-0.031947664118567254]",100.0,"[0.1290574868929891,-0.10844960179498951]",100.0,"[-0.06362413492222276,-0.13108209046569178]",100.0,"[-0.14015806829252594,-0.10020546360739675]",100.0,"[-0.08920365576751192,-0.04971737631222365]",4.0,"[-0.1301916538966238,0.1250337999639712]",100.0,"[-0.05916108099087994,0.18000167724137364]",4.0,"[0.13475219610010425,0.0894432542581998]",4.0,"[0.0417531136237477,-0.06590429857740304]",100.0,"[0.19595043515822583,0.005395020351097851]",4.0,"[0.1017402712195806,-0.15156905162792214]",100.0,"[0.14000567751035325,-0.06878160900056315]",4.0,"[-0.022061168657811738,0.07681990951584078]",4.0,"[0.05289081568749084,-0.1430259817826784]",100.0,"[-0.09453730090463265,-0.15741073729467586]",4.0,"[-0.10039326653127338,0.1669796847724897]",100.0,"[0.10005913361564238,-0.007461521960898942]",4.0,"[0.02034898046625104,0.006730887373009834]",100.0,"[-0.09263079026380092,0.10578291987938178]",4.0,"[0.000541603933709538,-0.18089372757815425]",100.0,"[-0.004329104927899918,-0.1279829682704207]",100.0,"[0.01377617709071198,0.12623741390332]",4.0,"[0.19323419214919607,0.04662786618675869]",100.0,"[0.02,0.02]",187.8857,0.0,40.0,40.0,66.0,1.0,,,,,,,
,,,,,,,5a8d8079190420000156435d,6842bb3b96e1f3ce14561fac,2025-06-06_05h57.17.031,shape_ratio,2024.1.5,Win32,59.88023952,6842b561977af9ba9b0f87ca,,,,,,,,,,,187.8861,188.3837,,,188.6292,189.2498,left,,,,,,,,0.5,0.6091,,,,,,,188.3837,188.6291,189.2498,"[-0.027255909919536758,-0.11673812948943041]",100.0,"[0.03765166356674298,0.02976045428403599]",4.0,"[0.16353703999013533,-0.02327951743395985]",4.0,"[-0.08149065249641806,0.09327585327400657]",4.0,"[0.0889484319877497,-0.11837200519754525]",100.0,"[0.011749331045139418,-0.17510471026588656]",100.0,"[-0.10319114470761151,-0.09400806653877739]",4.0,"[-0.07593797089188896,-0.03496770777837399]",100.0,"[0.14386629264565173,-0.07130984860572019]",100.0,"[-0.07776834786612032,-0.13811902682187904]",100.0,"[0.10749350368157388,-0.15637722867379267]",100.0,"[-0.029991558854950803,0.043169458891273736]",100.0,"[0.17062778014653115,0.0824037755307955]",4.0,"[0.11122938687031637,0.055904175364119055]",4.0,"[-0.1243897618348582,-0.0025447203344386208]",100.0,"[-0.15392361769458124,0.047019079624158897]",100.0,"[0.027327736812637032,-0.08855743586479042]",100.0,"[0.03349532335251724,-0.13577570512575815]",4.0,"[-0.03918463060372686,-0.18463265760687106]",100.0,"[0.07442829013487065,0.16437282329328082]",4.0,"[-0.023086739917259045,-0.0045020080370180736]",4.0,"[-0.06280882097930714,0.009149000846550329]",100.0,"[-0.0037304427937682213,0.17393330948740504]",4.0,"[-0.1672226505537821,-0.061832221354034406]",4.0,"[-0.08483443657019014,0.047140346180960184]",100.0,"[0.13237131458375997,0.14818190186900806]",100.0,"[0.09962152205754092,-0.06373789367802778]",100.0,"[0.028559017658638566,-0.04794447809198482]",4.0,"[-0.17134247137915862,0.010360042445671338]",4.0,"[0.148149706476137,0.0364119523120207]",4.0,"[-0.09018588895427054,0.15804381930166403]",4.0,"[-0.042408476433707216,0.12570469115509997]",4.0,"[0.02,0.02]",190.3532,0.0,41.0,41.0,108.0,1.0,,,,,,,
,,,,,,,5a8d8079190420000156435d,6842bb3b96e1f3ce14561fac,2025-06-06_05h57.17.031,shape_ratio,2024.1.5,Win32,59.88023952,6842b561977af9ba9b0f87ca,,,,,,,,,,,190.3535,190.8543,,,191.0868,192.0678,right,,,,,,,,0.5,0.9699,,,,,,,190.8543,191.0868,192.0679,"[0.11760361191545668,-0.14993512818529708]",100.0,"[-0.19352699613290558,0.04033697797699881]",4.0,"[-0.11782522742823776,-0.07018574089163937]",100.0,"[0.14025010585611591,-0.07753441847311113]",100.0,"[0.045528228844007555,0.18810185598061716]",4.0,"[-0.05293143120378132,0.08636970792177885]",4.0,"[0.040207205467242685,0.008130658925104804]",4.0,"[-0.12334246823998836,0.05716447351145187]",4.0,"[-0.06125734017736994,-0.06231053810811238]",4.0,"[-0.1694980623150553,0.09172781749274729]",4.0,"[-0.008151550286452227,0.035770955868031834]",4.0,"[0.07354292329903989,0.10138482552697163]",100.0,"[0.07762527055984196,-0.02170224036449166]",100.0,"[0.07077037999211899,0.14909907751612436]",100.0,"[-0.014814317407786161,0.1740832336949844]",4.0,"[-0.13886461640440897,0.12689157042414484]",100.0,"[-0.08347245947783699,-0.014765679900708855]",100.0,"[0.18759648112783858,0.012078571780491987]",100.0,"[-0.03914934405102807,-0.1959862831145584]",4.0,"[-0.007258126372090452,-0.06213464522997882]",4.0,"[-0.16479686377937172,-0.07585705663035447]",100.0,"[0.059357932683625464,-0.15878080706357683]",4.0,"[0.03259214599396058,0.07646037816540485]",100.0,"[0.15099571854866786,-0.012254095720359983]",4.0,"[0.017363630079375584,-0.1917120321980127]",100.0,"[0.10413093884073285,-0.09943751327212984]",100.0,"[-0.05937253200950133,0.1370154665683397]",100.0,"[0.1483727895813129,0.12349710166565642]",4.0,"[-0.12243831762270219,-0.029936927772719838]",100.0,"[0.03874007169893659,-0.0830161333819071]",100.0,"[-0.09077422742935252,-0.14903007694180206]",4.0,"[0.1804150280122904,-0.0770139398035292]",4.0,"[0.02,0.02]",193.1595,0.0,42.0,42.0,96.0,1.0,,,,,,,
,,,,,,,5a8d8079190420000156435d,6842bb3b96e1f3ce14561fac,2025-06-06_05h57.17.031,shape_ratio,2024.1.5,Win32,59.88023952,6842b561977af9ba9b0f87ca,,,,,,,,,,,193.1598,193.6533,,,193.8971,194.5718,left,,,,,,,,0.5,0.6626,,,,,,,193.6533,193.8971,194.5718,"[-0.16618402602004745,0.0530440377646777]",4.0,"[0.03180319742559516,0.1141499820901302]",4.0,"[-0.0905771064838406,0.04948484897248277]",4.0,"[-0.1730410142430792,-0.03213835035681318]",100.0,"[-0.06433517738202814,-0.18803851514900374]",100.0,"[0.0016431849492777471,-0.12181490511209951]",100.0,"[0.06475447815346516,0.07435530844184382]",4.0,"[-0.06679808768725239,0.09434433574527057]",100.0,"[-0.09617014164719179,-0.15595945721121474]",100.0,"[0.14571935721748858,0.021038623546709767]",4.0,"[0.009743882660867013,0.004211985112671892]",4.0,"[-0.015415703834117167,-0.0654014232709777]",100.0,"[0.18101290387011348,-0.013113621313732334]",100.0,"[0.17017842951412598,-0.10234110076843467]",4.0,"[0.03653694129177231,-0.08678317790318103]",4.0,"[-0.03923935161548997,0.17648350296185591]",100.0,"[0.1176848899083355,0.14474403491571616]",4.0,"[0.02188853643161875,-0.17803481621124922]",100.0,"[-0.10299705493132773,-0.009576034319474305]",100.0,"[0.08514052829455866,-0.026608981082891326]",4.0,"[0.11130312102521496,-0.10821704112279319]",100.0,"[-0.13086432284466937,0.12866100868672187]",100.0,"[0.02379678161422473,0.18584665134040163]",4.0,"[-0.044213745179105014,-0.033844632996180256]",4.0,"[-0.05116494231390455,-0.09406540624963602]",4.0,"[-0.014847890670015278,0.14332889769070886]",100.0,"[0.18916483076557034,-0.05314982013888918]",4.0,"[0.06051236135618585,0.01899732048525182]",4.0,"[-0.008888065580093132,0.10246934876016767]",4.0,"[0.1103031392085334,0.06437517344831836]",100.0,"[-0.09707490218227566,-0.07360780994835758]",100.0,"[0.06517486988294831,0.17033249698155872]",100.0,"[0.02,0.02]",195.6605,0.0,43.0,43.0,119.0,1.0,,,,,,,
,,,,,,,5a8d8079190420000156435d,6842bb3b96e1f3ce14561fac,2025-06-06_05h57.17.031,shape_ratio,2024.1.5,Win32,59.88023952,6842b561977af9ba9b0f87ca,,,,,,,,,,,195.6608,196.1642,,,196.4128,197.1715,left,,,,,,,,0.55,0.7472,,,,,,,196.1643,196.4128,197.1715,"[-0.08370025209255202,0.007079345540972333]",4.0,"[0.06625274530752154,-0.10082350781311936]",4.0,"[0.13212455680063323,-0.014220477035243024]",100.0,"[-0.11964744584501129,0.040795605154456155]",4.0,"[-0.16068983321119262,-0.06276744180030525]",100.0,"[0.10632365046833679,0.1032998979628775]",100.0,"[0.051654465914798095,0.09868704400316934]",100.0,"[-0.17167186034236256,0.08169983157459444]",4.0,"[0.15601816110155345,-0.04738027488253156]",4.0,"[0.16356478785873207,0.049322154238155766]",100.0,"[0.1181497606031715,-0.15175827042163562]",4.0,"[0.06333161725853516,-0.14801489158798636]",100.0,"[-0.09248886801165511,0.15136342175646833]",100.0,"[-0.00792693943679687,-0.19356696425679973]",100.0,"[-0.010957789425546947,-0.14961816674279083]",4.0,"[-0.01473014375554325,0.009449009457803095]",4.0,"[0.09021914263606051,0.014662234972498776]",100.0,"[0.019818882713685333,0.18405803137444485]",100.0,"[0.025015827943024652,-0.040657494716714516]",4.0,"[-0.052071940832900204,-0.1873852405411718]",100.0,"[-0.11664456816821724,-0.12973591248628938]",4.0,"[-0.09077879338582069,0.08741094248693357]",100.0,"[-0.08791260831501786,-0.07003562976272029]",100.0,"[-0.016061662576259565,-0.08640202997142]",100.0,"[-0.03276546087783236,0.14024322160184538]",4.0,"[-0.04003195911936126,-0.03889880311539597]",100.0,"[-0.18823691102251802,-0.015802011391013743]",4.0,"[0.14620774394113095,-0.09044322772554493]",4.0,"[0.044845998751702136,0.047130290716939895]",100.0,"[0.12344986799163472,0.05389379622154791]",100.0,"[-0.041273798418897494,0.08415964658414538]",4.0,"[0.05168969169908554,0.15336173257119318]",100.0,"[0.02,0.02]",198.2621,0.0,44.0,44.0,83.0,1.0,,,,,,,
,,,,,,,5a8d8079190420000156435d,6842bb3b96e1f3ce14561fac,2025-06-06_05h57.17.031,shape_ratio,2024.1.5,Win32,59.88023952,6842b561977af9ba9b0f87ca,,,,,,,,,,,198.2624,198.745,,,198.9798,199.443,right,,,,,,,,0.45,0.451,,,,,,,198.745,198.9798,199.443,"[0.07445118197016823,-0.0933982621207969]",100.0,"[0.005775311076190655,-0.15585330534287276]",4.0,"[-0.0025960554388700847,0.11513380388380606]",4.0,"[-0.04478609040849604,-0.090938233767642]",100.0,"[-0.032077255607819405,0.1642095702259643]",4.0,"[0.03958456083262015,-0.0724070311557934]",100.0,"[0.1338435224408631,-0.11962166237006241]",100.0,"[0.04385662867348864,0.19109862007778053]",100.0,"[-0.0400057940712354,0.03733038960863981]",4.0,"[-0.08745904146660667,-0.09806158417769321]",4.0,"[0.19258434688982584,-0.031931553922202725]",4.0,"[0.050906932361456596,-0.13775424437113498]",100.0,"[-0.01160194071957561,0.0046786163616742635]",100.0,"[-0.19092438781994528,-0.00100146881776144]",4.0,"[-0.1817636282670541,0.041631446924186605]",4.0,"[0.08412802056223714,-0.014101918855372507]",4.0,"[0.12343100801321288,0.15273520714922087]",100.0,"[-0.06263375960152012,0.0010153598335664509]",100.0,"[-0.13565983514053562,-0.14499688871792224]",4.0,"[-0.12676775789160477,-0.006408009577396837]",4.0,"[0.12297533687261095,0.08893075981418962]",4.0,"[-0.1263557404460258,0.13602923575409595]",4.0,"[-0.08807860927006068,0.16164624474731115]",4.0,"[-0.04831620446445381,-0.13196546954461194]",4.0,"[0.13968021549786971,-0.0046024613015202736]",100.0,"[0.1264871293143403,-0.06411555639005166]",100.0,"[-0.08883573287699426,-0.17672382422532565]",4.0,"[0.045042184496057146,0.12271883139054408]",100.0,"[0.0529458209911125,0.05325830959055]",100.0,"[-0.15216572322409672,-0.09356862834319739]",100.0,"[0.10856494674956839,0.03585849161017305]",4.0,"[0.18113476878516543,0.08296622949816285]",4.0,"[0.02,0.02]",200.5412,0.0,45.0,45.0,147.0,1.0,,,,,,,
,,,,,,,5a8d8079190420000156435d,6842bb3b96e1f3ce14561fac,2025-06-06_05h57.17.031,shape_ratio,2024.1.5,Win32,59.88023952,6842b561977af9ba9b0f87ca,,,,,,,,,,,200.5415,201.0372,,,201.2802,201.8183,left,,,,,,,,0.1,0.5256,,,,,,,201.0373,201.2802,201.8184,"[-0.010817173290190009,0.11645649810641531]",4.0,"[-0.0847941170164256,0.08275054842431527]",4.0,"[-0.17894954576886168,-0.024507308206716566]",100.0,"[0.10313877217148279,0.03825124110961491]",100.0,"[-0.0585072576617837,0.15973028403855605]",4.0,"[-0.14328722060736837,-0.09861039528511975]",4.0,"[0.008181729085647509,-0.10070200598211371]",4.0,"[0.1605286017328844,-0.11624461910955781]",4.0,"[-0.02626982402580134,-0.07460010671461159]",4.0,"[-0.02760848383863928,0.06163241566623494]",4.0,"[0.060986344208944665,0.04421729910263743]",4.0,"[0.006425838862144478,0.1888289377811702]",4.0,"[0.10227180278563669,-0.13684086520893654]",4.0,"[0.11375866853108534,-0.056880945409308666]",4.0,"[-0.0929445032024587,-0.10958705317343491]",4.0,"[-0.09137399838368765,0.03358397053391059]",4.0,"[0.06235087971192309,-0.16381884829720927]",4.0,"[-0.01756551752792442,-0.17215099903995848]",4.0,"[-0.18263649376470215,0.01751749107517268]",100.0,"[0.09643084546262733,0.15593932957300288]",4.0,"[0.18076250938901986,-0.07590086540305649]",4.0,"[0.1952751902989683,0.01135819271248383]",4.0,"[0.06206593701483617,-0.10808262833780241]",4.0,"[0.023237052174623515,0.016728426819127874]",4.0,"[-0.051928977724926786,0.013399583385133099]",4.0,"[-0.17557291773724326,0.07884265774862506]",4.0,"[0.14742542610585047,0.09653420207902284]",4.0,"[0.04969766514558569,0.10799013826463962]",4.0,"[-0.013562825031917641,-0.004606478056374816]",4.0,"[-0.10682605212223899,-0.0038218056928045955]",4.0,"[-0.13717807244430216,0.1171618397411413]",4.0,"[0.04612348680884852,0.1562440605977751]",4.0,"[0.02,0.02]",202.9039,0.0,46.0,46.0,186.0,1.0,,,,,,,
,,,,,,,5a8d8079190420000156435d,6842bb3b96e1f3ce14561fac,2025-06-06_05h57.17.031,shape_ratio,2024.1.5,Win32,59.88023952,6842b561977af9ba9b0f87ca,,,,,,,,,,,202.9042,203.4003,,,203.6434,204.4541,right,,,,,,,,0.4,0.7981,,,,,,,203.4003,203.6434,204.4541,"[0.11977067096856985,-0.07761523420104918]",100.0,"[-0.03306277155870725,-0.13168893006063553]",100.0,"[0.020531763272607386,-0.05741206318417306]",4.0,"[-0.09988567966975953,0.1107839791330335]",4.0,"[0.197395631238758,0.01804712908846573]",4.0,"[-0.013964902024737375,0.1688901492067617]",4.0,"[-0.042844641769238856,0.06876086642879084]",4.0,"[-0.18253305318498936,-0.04922446396625027]",4.0,"[0.007948421560125192,-0.1462511268204952]",100.0,"[0.12213448847786137,0.11158399055899706]",4.0,"[-0.12958982266947444,-0.1408856198894369]",4.0,"[0.09013289361797476,0.07650940845788112]",4.0,"[0.10285874850754571,-0.15438791769903887]",4.0,"[0.0439833647805132,0.15690466414971554]",4.0,"[-0.10977444217602329,-0.005805851109636359]",4.0,"[-0.0109302641451351,0.11760855287631396]",100.0,"[-0.009881777800931585,-0.1878185031474284]",100.0,"[-0.08309727610735082,0.16433545592299748]",100.0,"[0.10199737587906382,-0.008060074839965787]",100.0,"[0.07431727017419498,-0.0812943407752839]",100.0,"[0.15203985587653754,-0.049312003073872374]",100.0,"[-0.1725360797107221,0.011424526012078717]",4.0,"[-0.1392243208008579,-0.06995733460213865]",100.0,"[-0.08207113523093852,0.04245246537257767]",100.0,"[-0.007598646485619963,-0.00911969737090073]",100.0,"[0.16157992638435198,-0.10271977224647437]",4.0,"[-0.12452022464696588,0.07348678920623967]",4.0,"[0.13468576849452077,0.033257890363241255]",4.0,"[0.05191103244449679,-0.17127567690987297]",4.0,"[0.04430854424973099,0.02830157962794595]",4.0,"[-0.04991813429917494,0.00856852251781539]",100.0,"[0.06920172037329447,-0.03751238035581336]",4.0,"[0.02,0.02]",205.547,0.0,47.0,47.0,167.0,1.0,,,,,,,
,,,,,,,5a8d8079190420000156435d,6842bb3b96e1f3ce14561fac,2025-06-06_05h57.17.031,shape_ratio,2024.1.5,Win32,59.88023952,6842b561977af9ba9b0f87ca,,,,,,,,,,,205.5473,206.0419,,,206.2848,206.8025,right,,,,,,,,0.4,0.506,,,,,,,206.042,206.2848,206.8025,"[0.06725846061404564,0.1726750789989013]",100.0,"[0.12697034325422693,0.08334600716561637]",100.0,"[-0.03636338211579228,-0.15517110537059042]",4.0,"[0.019415945989659972,-0.03887899607151886]",4.0,"[0.030948106926772415,0.013015367503923266]",4.0,"[-0.10498570825391947,0.003259149942119989]",4.0,"[-0.03159788078673643,0.18312983916003892]",4.0,"[0.10299009008473733,-0.06535477407472512]",4.0,"[0.05293072990558897,-0.1474183787434238]",100.0,"[0.011426199366508311,-0.1519550228598153]",4.0,"[-0.1090624884696084,-0.05931898674843163]",4.0,"[-0.09390169310082107,-0.14729456234735708]",4.0,"[0.14450827119808618,0.014510374201685737]",100.0,"[0.17894711388981618,-0.08482682777251556]",4.0,"[-0.07315965644164729,0.05764623096184075]",4.0,"[0.022488290042506007,0.18835871664213802]",100.0,"[-0.1877043117680601,0.033039125806111]",4.0,"[-0.16566628921782808,-0.0759765745267679]",4.0,"[-0.023773818953490292,-0.007533785554884446]",100.0,"[-0.11907958817212978,0.055418967384823464]",100.0,"[0.11134535250166747,0.13470219571946457]",4.0,"[0.11851552101116447,-0.16038341310102583]",4.0,"[0.06376716566662784,-0.02060374734132325]",4.0,"[0.049879674017921836,0.10769839870846196]",100.0,"[0.1371011957446162,-0.041721152981501246]",100.0,"[-0.07525864259770658,-0.08482839194450414]",100.0,"[0.006623916552379956,0.05692653799521447]",100.0,"[-0.0052647898391677056,0.10636485080983371]",4.0,"[-0.08713204343141133,0.12082273149559263]",100.0,"[0.13409664674411384,-0.11549847106104401]",4.0,"[-0.16371154398382437,0.07859691471711498]",4.0,"[0.05353946297458007,-0.08868805732134788]",100.0,"[0.02,0.02]",207.8869,0.0,48.0,48.0,158.0,1.0,,,,,,,
,,,,,,,5a8d8079190420000156435d,6842bb3b96e1f3ce14561fac,2025-06-06_05h57.17.031,shape_ratio,2024.1.5,Win32,59.88023952,6842b561977af9ba9b0f87ca,,,,,,,,,,,207.8871,208.3863,,,208.6323,209.2344,right,,,,,,,,0.55,0.59,,,,,,,208.3863,208.6323,209.2344,"[0.18769175164594798,-0.02216082644044129]",4.0,"[0.013228521451488303,0.05699215673455386]",100.0,"[-0.11068959173341736,0.14027546749236522]",4.0,"[-0.049317652821140166,0.17997835587766406]",100.0,"[0.005706337727449103,0.12149716981600744]",4.0,"[0.12054883681587616,-0.07950550559911007]",100.0,"[-0.12533443811074807,-0.13480098650483185]",4.0,"[-0.16781149633981343,-0.03642108749120556]",100.0,"[0.007538487087379469,-0.08491257948767233]",100.0,"[0.1535196077065678,0.12001656480191968]",100.0,"[-0.02737001091494263,0.0007738880938940777]",4.0,"[0.1664243393144434,0.08016836174975682]",4.0,"[0.0680200565215068,-0.04422012095754233]",4.0,"[-0.13431641924576346,-0.0842723861881246]",4.0,"[0.12539479886674268,0.03681082613907846]",4.0,"[-0.03495553671387572,0.07205705973212978]",4.0,"[-0.06433100330030381,0.1138120927719875]",100.0,"[-0.08848583867125831,-0.027345859403929574]",100.0,"[0.09487434697304263,-0.1302244149129915]",100.0,"[0.08832368257759178,-0.17673500960855285]",100.0,"[-0.17125905979815614,0.04193515893156828]",4.0,"[0.07956693612153919,0.02676847748591585]",100.0,"[-0.0024422075715462704,-0.18771607900272327]",4.0,"[-0.11246510001539349,0.07582914035494077]",100.0,"[0.0074848187868706605,0.1771351005683515]",100.0,"[0.0350122879336131,-0.01585541091950496]",100.0,"[0.037239541585970405,0.09018992367721007]",100.0,"[-0.15667062297500614,0.12198339046952503]",100.0,"[-0.05453577405015468,-0.11645257713502447]",100.0,"[0.05545774291339,0.1600614348067663]",4.0,"[-0.0569050640457385,-0.16675524545943712]",100.0,"[0.17247979760420915,0.015238634227682159]",4.0,"[0.02,0.02]",210.3273,0.0,49.0,49.0,85.0,1.0,,,,,,,
