right,left,explain.started,explain.stopped,key_resp_3.keys,key_resp_3.rt,key_resp_3.duration,participant,session,date,expName,psychopyVersion,OS,frameRate,study_id,explain_2.started,explain_2.stopped,key_resp_4.keys,key_resp_4.rt,key_resp_4.duration,explain_3.started,explain_3.stopped,key_resp_5.keys,key_resp_5.rt,key_resp_5.duration,fixation.started,fixation.stopped,practice.started,practice.stopped,response.started,response.stopped,key_resp.keys,feedback.started,feedback.stopped,trials_2.thisRepN,trials_2.thisTrialN,trials_2.thisN,trials_2.thisIndex,trials_2.ran,dot_ratio,key_resp.rt,key_resp.duration,explain_4.started,explain_4.stopped,key_resp_6.keys,key_resp_6.rt,key_resp_6.duration,dotDisplay.started,dotDisplay.stopped,ITI.started,polygon_1.pos,polygon_1.edges,polygon_2.pos,polygon_2.edges,polygon_3.pos,polygon_3.edges,polygon_4.pos,polygon_4.edges,polygon_5.pos,polygon_5.edges,polygon_6.pos,polygon_6.edges,polygon_7.pos,polygon_7.edges,polygon_8.pos,polygon_8.edges,polygon_9.pos,polygon_9.edges,polygon_10.pos,polygon_10.edges,polygon_11.pos,polygon_11.edges,polygon_12.pos,polygon_12.edges,polygon_13.pos,polygon_13.edges,polygon_14.pos,polygon_14.edges,polygon_15.pos,polygon_15.edges,polygon_16.pos,polygon_16.edges,polygon_17.pos,polygon_17.edges,polygon_18.pos,polygon_18.edges,polygon_19.pos,polygon_19.edges,polygon_20.pos,polygon_20.edges,polygon_21.pos,polygon_21.edges,polygon_22.pos,polygon_22.edges,polygon_23.pos,polygon_23.edges,polygon_24.pos,polygon_24.edges,polygon_25.pos,polygon_25.edges,polygon_26.pos,polygon_26.edges,polygon_27.pos,polygon_27.edges,polygon_28.pos,polygon_28.edges,polygon_29.pos,polygon_29.edges,polygon_30.pos,polygon_30.edges,polygon_31.pos,polygon_31.edges,polygon_32.pos,polygon_32.edges,dot_size,ITI.stopped,trials.thisRepN,trials.thisTrialN,trials.thisN,trials.thisIndex,trials.ran,break_2.started,break_2.stopped,trials_3.thisRepN,trials_3.thisTrialN,trials_3.thisN,trials_3.thisIndex,trials_3.ran
subject chose dot,subject chose diamond,0.0004,31.3048,space,16.2761,,5b082f3d61cde20001b6706e,6842bbf8a968b26eff846670,2025-06-06_10h59.31.660,shape_ratio,2024.1.5,Win32,60.24096386,6842b561977af9ba9b0f87ca,,,,,,,,,,,,,,,,,,,,,,,,,,,,,,,,,,,,,,,,,,,,,,,,,,,,,,,,,,,,,,,,,,,,,,,,,,,,,,,,,,,,,,,,,,,,,,,,,,,,,,,,,,,,,,,,,
,,,,,,,5b082f3d61cde20001b6706e,6842bbf8a968b26eff846670,2025-06-06_10h59.31.660,shape_ratio,2024.1.5,Win32,60.24096386,6842b561977af9ba9b0f87ca,31.305,62.0283,space,0.707,,,,,,,,,,,,,,,,,,,,,,,,,,,,,,,,,,,,,,,,,,,,,,,,,,,,,,,,,,,,,,,,,,,,,,,,,,,,,,,,,,,,,,,,,,,,,,,,,,,,,,,,,,,,,
,,,,,,,5b082f3d61cde20001b6706e,6842bbf8a968b26eff846670,2025-06-06_10h59.31.660,shape_ratio,2024.1.5,Win32,60.24096386,6842b561977af9ba9b0f87ca,,,,,,62.0286,65.4686,space,0.4251,,,,,,,,,,,,,,,,,,,,,,,,,,,,,,,,,,,,,,,,,,,,,,,,,,,,,,,,,,,,,,,,,,,,,,,,,,,,,,,,,,,,,,,,,,,,,,,,,,,,,,,,
,,,,,,,5b082f3d61cde20001b6706e,6842bbf8a968b26eff846670,2025-06-06_10h59.31.660,shape_ratio,2024.1.5,Win32,60.24096386,6842b561977af9ba9b0f87ca,,,,,,,,,,,65.5261,65.9841,65.9848,66.226,66.2262,67.7182,,67.7185,68.8174,0.0,0.0,0.0,1.0,1.0,0.8,,,,,,,,,,,,,,,,,,,,,,,,,,,,,,,,,,,,,,,,,,,,,,,,,,,,,,,,,,,,,,,,,,,,,,,,,,,,,,,,,,,,,,,,
,,,,,,,5b082f3d61cde20001b6706e,6842bbf8a968b26eff846670,2025-06-06_10h59.31.660,shape_ratio,2024.1.5,Win32,60.24096386,6842b561977af9ba9b0f87ca,,,,,,,,,,,68.8185,69.3172,69.3174,69.568,69.5681,70.2011,left,70.2013,71.3007,0.0,1.0,1.0,0.0,1.0,0.2,0.6173,,,,,,,,,,,,,,,,,,,,,,,,,,,,,,,,,,,,,,,,,,,,,,,,,,,,,,,,,,,,,,,,,,,,,,,,,,,,,,,,,,,,,,,
,,,,,,,5b082f3d61cde20001b6706e,6842bbf8a968b26eff846670,2025-06-06_10h59.31.660,shape_ratio,2024.1.5,Win32,60.24096386,6842b561977af9ba9b0f87ca,,,,,,,,,,,,,,,,,,,,,,,,,,,,71.3015,76.2346,space,1.91,,,,,,,,,,,,,,,,,,,,,,,,,,,,,,,,,,,,,,,,,,,,,,,,,,,,,,,,,,,,,,,,,,,,,,,,,,,,,,,,,,
,,,,,,,5b082f3d61cde20001b6706e,6842bbf8a968b26eff846670,2025-06-06_10h59.31.660,shape_ratio,2024.1.5,Win32,60.24096386,6842b561977af9ba9b0f87ca,,,,,,,,,,,76.2681,76.7423,,,76.9854,77.4342,right,,,,,,,,0.9,0.4325,,,,,,,76.7432,76.9854,77.4351,"[-0.05203105509759313,0.03896607504855048]",100.0,"[0.07105793682572753,0.009469637376942978]",100.0,"[-0.014131930239309242,0.16996759746190482]",100.0,"[0.05144439898005019,0.10643693204101001]",100.0,"[-0.14348271531153028,-0.029349028777202787]",100.0,"[0.11273858092674682,0.06590389120306583]",100.0,"[0.13459476371063017,-0.10827261121550301]",100.0,"[-0.00557705118479838,-0.08110172428392469]",100.0,"[-0.08965283382399913,-0.1357680030215167]",100.0,"[-0.16299818938719307,-0.08087881722679745]",100.0,"[-0.00024049715771423352,-0.1319650175135296]",100.0,"[0.11971485474328399,0.0062307000244333196]",100.0,"[-0.10100014530441231,-0.030458714624723614]",100.0,"[-0.1372022741361861,0.0811855997907165]",100.0,"[0.09307634129067817,0.10395029312191693]",100.0,"[-0.12523903719796678,0.1313730556603275]",4.0,"[0.0343961219155077,0.18193262913314567]",4.0,"[-0.05787798493224334,-0.000826371539325033]",100.0,"[0.1361775749493852,-0.06654393002883412]",100.0,"[-0.05443749835816261,0.16591150328064766]",100.0,"[0.19649765923284634,-0.009694727964003119]",100.0,"[-0.07669512150582161,0.07124226069114324]",100.0,"[-0.07215518057850069,-0.17434026917745699]",100.0,"[-0.13449271871369187,-0.1417799556325674]",100.0,"[0.049137368139021524,-0.09229463404844307]",100.0,"[0.16092164575433662,0.06034636497826725]",100.0,"[-0.08548609204587738,-0.090615303544052]",100.0,"[0.15103107523682027,-0.025568190784167395]",100.0,"[0.07886407796021719,-0.04701764267622674]",100.0,"[0.012893556337017918,-0.19134980730597762]",4.0,"[0.18602176705182985,-0.06375011475765346]",100.0,"[-0.020736998904872753,-0.025367572579816516]",100.0,"[0.02,0.02]",78.5342,0.0,0.0,0.0,4.0,1.0,,,,,,,
,,,,,,,5b082f3d61cde20001b6706e,6842bbf8a968b26eff846670,2025-06-06_10h59.31.660,shape_ratio,2024.1.5,Win32,60.24096386,6842b561977af9ba9b0f87ca,,,,,,,,,,,78.5349,79.0339,,,79.2847,79.534,left,,,,,,,,0.1,0.2369,,,,,,,79.0339,79.2845,79.5341,"[0.1111935258163596,0.0693939026801803]",4.0,"[-0.009204557540750656,0.0001113048514787429]",4.0,"[-0.09695465417055424,-0.12373185784067553]",4.0,"[-0.1360326230119502,0.1260618019589281]",4.0,"[0.015255593798890962,0.15605098182511642]",100.0,"[-0.10908045426210956,0.012189845978683046]",4.0,"[0.08031391878287159,0.1290123951557649]",4.0,"[-0.090219278528086,-0.041937011326572446]",4.0,"[-0.1453551420800025,-0.04757277287305302]",4.0,"[0.12272627839827999,-0.057096166566343]",4.0,"[-0.10637786339482067,0.09315204151006322]",4.0,"[0.08882434890154708,-0.015322472019369255]",4.0,"[-0.08527575549331022,0.15002714654573268]",4.0,"[0.13144067807193846,0.02346739762485624]",4.0,"[0.009449527298633261,-0.042499574628883846]",4.0,"[-0.021216337113068567,-0.19749282891572362]",4.0,"[0.14278208290691752,-0.13700496651420155]",100.0,"[-0.14323340241787247,0.05023683694408422]",4.0,"[-0.00875572884309459,0.0772184944916173]",4.0,"[0.18225538422803392,0.0780631955926984]",100.0,"[0.07537001436275467,0.02948845059061014]",4.0,"[0.07117242207341784,-0.18029869181724076]",4.0,"[0.1750726234919361,0.03467893892501306]",4.0,"[0.040240756446202106,0.1927922388678337]",4.0,"[0.017296530658654243,-0.1646304646310751]",4.0,"[-0.1160771097298233,-0.0835241650276772]",4.0,"[-0.04208047199234563,0.02847744574877102]",4.0,"[-0.04420939254603439,0.16562665553584088]",4.0,"[-0.1583285002096688,-0.11378016229354464]",4.0,"[-0.06115665967472041,0.09541873089050643]",4.0,"[0.14824979318034132,0.10663480882208096]",4.0,"[0.16182248919329958,-0.04743914650815645]",4.0,"[0.02,0.02]",80.6338,0.0,1.0,1.0,204.0,1.0,,,,,,,
,,,,,,,5b082f3d61cde20001b6706e,6842bbf8a968b26eff846670,2025-06-06_10h59.31.660,shape_ratio,2024.1.5,Win32,60.24096386,6842b561977af9ba9b0f87ca,,,,,,,,,,,80.6344,81.134,,,81.3769,81.7344,left,,,,,,,,0.5,0.3349,,,,,,,81.134,81.3768,81.7346,"[0.07134436666301196,0.0823891402840106]",4.0,"[0.10160370736597304,-0.12514157974387127]",4.0,"[-0.09499390984411651,-0.06990380498135604]",4.0,"[0.16358936594174905,0.046176600743230684]",100.0,"[-0.026018749407490983,0.19326325141571904]",4.0,"[-0.15406954901543354,0.09828948411658232]",100.0,"[0.07904957034547967,0.016437172873581162]",100.0,"[-0.00196975888639785,-0.1203459023035546]",4.0,"[0.022116278716783132,0.13690379927577326]",100.0,"[-0.033419374706909574,-0.1607712940590919]",4.0,"[-0.01760194056103001,0.09149180181708597]",100.0,"[0.12146470821613045,0.14331535697717399]",4.0,"[-0.18289717569695013,0.033830174225094205]",4.0,"[0.04852094728503389,-0.08335044834364631]",100.0,"[-0.09894658031373695,0.1408668173359085]",100.0,"[0.15665364083335917,-0.07974202265276957]",100.0,"[-0.1648928698962189,-0.05621969633577062]",100.0,"[0.0318499360087366,0.1954762470080694]",4.0,"[0.10329531133892869,-0.0610610854888864]",100.0,"[-0.10811529609605902,-0.015732608037443262]",100.0,"[0.029631921027557025,-0.15006119159528042]",4.0,"[-0.05925232848066831,0.0010009866847185667]",100.0,"[0.030710694039933543,0.08916426683116814]",4.0,"[-0.18708235202332868,-0.010271078858902646]",4.0,"[0.019049943034576182,-0.04537743708817878]",100.0,"[-0.07275021484302578,0.07112410202604276]",4.0,"[-0.016018042322842724,0.014976229583459608]",4.0,"[0.027768513474251293,0.0075745281943918686]",4.0,"[-0.11483821835578226,0.08227051602206199]",100.0,"[0.1478841109139257,0.09776272243554353]",100.0,"[0.12342208176698465,0.03323677906751857]",4.0,"[0.16738238931344931,-0.005264357600021878]",100.0,"[0.02,0.02]",82.8346,0.0,2.0,2.0,108.0,1.0,,,,,,,
,,,,,,,5b082f3d61cde20001b6706e,6842bbf8a968b26eff846670,2025-06-06_10h59.31.660,shape_ratio,2024.1.5,Win32,60.24096386,6842b561977af9ba9b0f87ca,,,,,,,,,,,82.8356,83.3343,,,83.585,83.901,left,,,,,,,,0.55,0.3052,,,,,,,83.3343,83.5849,83.9011,"[0.03540330241310672,0.13219800067160467]",100.0,"[0.10713688580835495,-0.020758845083727193]",100.0,"[0.06257333422180295,-0.18815897246172153]",4.0,"[0.12136975996383866,-0.1410835467815377]",4.0,"[0.08026596101233639,0.15697605806612092]",4.0,"[0.061203707179270525,0.012688566550747815]",100.0,"[0.07330526663704119,-0.05283043006472835]",100.0,"[-0.004347373894453403,0.14139828785314565]",4.0,"[0.08129334514218207,-0.12848361351012133]",4.0,"[-0.06877175046324414,-0.13866402735409855]",100.0,"[0.17449984105599295,0.028702845781822504]",100.0,"[0.08251900783790567,0.09114885646866928]",4.0,"[-0.035705833900359016,-0.029425736110424466]",100.0,"[-0.10799013422956347,-0.1513581790985471]",4.0,"[-0.10335510052537589,0.09765339750513233]",100.0,"[-0.1768361710076955,0.06398234166710964]",100.0,"[-0.12074374841812513,0.04752318769633159]",4.0,"[-0.08396105429771054,0.007868108130998197]",4.0,"[0.09728356590949788,-0.09084714144399401]",100.0,"[0.12250696313598868,0.08109428756764413]",100.0,"[0.12277296475472235,0.14175517072184624]",100.0,"[-0.1611372669162865,-0.006566736673838444]",100.0,"[-0.04001242805278751,-0.08282070036654059]",100.0,"[-0.0381967502981022,0.18725686143664855]",4.0,"[0.16275691317859722,-0.09948696375910782]",100.0,"[-0.002775067428291317,-0.06541683003389699]",4.0,"[-0.09150958016891567,-0.06769590132402632]",100.0,"[-0.028795564500389042,0.052144883409373205]",4.0,"[-0.1955121301040903,0.02532923985419786]",100.0,"[-0.025811278761023022,-0.1479601732547644]",4.0,"[-0.14981811873166678,-0.06167661170476201]",100.0,"[-0.15752502298648127,-0.11826014576785664]",4.0,"[0.02,0.02]",85.0004,0.0,3.0,3.0,84.0,1.0,,,,,,,
,,,,,,,5b082f3d61cde20001b6706e,6842bbf8a968b26eff846670,2025-06-06_10h59.31.660,shape_ratio,2024.1.5,Win32,60.24096386,6842b561977af9ba9b0f87ca,,,,,,,,,,,85.0006,85.5007,,,85.7513,86.0017,right,,,,,,,,0.9,0.2346,,,,,,,85.5007,85.7512,86.0018,"[0.1288854212009244,0.14824166992133567]",100.0,"[-0.061964951770178016,-0.0873430628368887]",100.0,"[-0.12107207863502102,0.005192473438365732]",100.0,"[-0.04846446129189523,-0.0023818198349381636]",100.0,"[-0.0072211594188166615,0.0609762588330635]",100.0,"[0.11411639161839313,-0.11909856382016774]",100.0,"[-0.06565892829564167,-0.18839715131058898]",100.0,"[0.09927094691259825,-0.16878753470956984]",4.0,"[-0.02871541180720824,-0.16307292116423858]",100.0,"[0.10433808606281898,0.08144256832153951]",100.0,"[0.15099625798762997,-0.012233310577053867]",4.0,"[-0.09141578383858127,-0.11765637509987821]",100.0,"[0.15677049134020166,0.057064478830187684]",100.0,"[0.18397643964648622,-0.07134741890553374]",100.0,"[0.01644418348063765,-0.16831819477962073]",100.0,"[-0.08453097032784682,0.040556361280218806]",100.0,"[0.035809442699304146,-0.02759490133466935]",100.0,"[-0.055168244988128154,-0.04786576960323849]",100.0,"[-0.09701739424511889,0.1162039965611302]",100.0,"[0.024193691523093638,0.13174313995212344]",100.0,"[0.06326683308672532,-0.14206786814824246]",100.0,"[-0.09517498097582572,-0.041798111943912475]",100.0,"[-0.05650746921360473,0.11671147231559044]",100.0,"[-0.18889907027893768,-0.05179896186008412]",100.0,"[0.1958135287788572,-0.00408152912217507]",100.0,"[-0.0524463274242905,0.07209566744730521]",100.0,"[-0.14892370817971773,0.08887843228894947]",4.0,"[0.0882655073832249,-0.06649087647212533]",100.0,"[0.10467635187922872,-0.009605304307056303]",100.0,"[-0.19013659030569197,0.028324786607641605]",100.0,"[-0.11362512530543899,0.06991819446904075]",100.0,"[0.07515188301359754,0.12418178896617235]",100.0,"[0.02,0.02]",87.101,0.0,4.0,4.0,16.0,1.0,,,,,,,
,,,,,,,5b082f3d61cde20001b6706e,6842bbf8a968b26eff846670,2025-06-06_10h59.31.660,shape_ratio,2024.1.5,Win32,60.24096386,6842b561977af9ba9b0f87ca,,,,,,,,,,,87.1016,87.601,,,87.851,88.2005,right,,,,,,,,0.9,0.3347,,,,,,,87.6011,87.851,88.2006,"[0.004438556283637788,-0.014487222205278118]",100.0,"[0.010843428419920304,-0.15942476474424253]",4.0,"[0.12306588519943179,-0.14665051384720806]",100.0,"[0.06432794082135228,-0.18766175098065677]",100.0,"[-0.08528286352724603,-0.11705526510045773]",100.0,"[-0.1882285669855998,-0.02330105719399093]",100.0,"[-0.15362334330751717,0.0677279896204048]",100.0,"[-0.0004732292514582633,-0.10317741350991666]",100.0,"[0.025137331816558493,0.16456836366636116]",100.0,"[-0.07257025158135942,-0.05028348239083567]",100.0,"[0.1152566103883796,-0.05635285818580306]",100.0,"[-0.04186976393377313,0.16848961340447238]",100.0,"[0.16213052793434946,0.09741824198550088]",100.0,"[0.052905353717074555,-0.041385517245722425]",4.0,"[0.096276528218808,0.10016015335353264]",100.0,"[-0.12334824621565765,-0.03305637568249239]",100.0,"[-0.04753172992703634,0.05576504188408766]",100.0,"[0.06826448510047188,0.00044849001955264684]",100.0,"[-0.12139188881599124,0.028078104951491878]",100.0,"[-0.16585415158394723,-0.1096952960224201]",100.0,"[0.03929512573419008,-0.1107121396781366]",100.0,"[0.05630840322307999,0.12131835358254203]",100.0,"[-0.0291902288278972,-0.1358748949843891]",100.0,"[0.18343615695800355,-0.07251545127052941]",100.0,"[-0.00953246786102348,-0.19626857188218655]",4.0,"[0.16445813821872807,-0.10806317896710545]",100.0,"[0.016929721014880446,0.08854119985181666]",100.0,"[0.1396510555526143,0.024788235661634246]",100.0,"[-0.06568819234869987,-0.007304284860065924]",100.0,"[-0.08661333211925391,0.1133593654131914]",100.0,"[0.0019693617649566898,0.13056259952979915]",100.0,"[0.07260910180943299,0.1633804263027394]",100.0,"[0.02,0.02]",89.3004,0.0,5.0,5.0,8.0,1.0,,,,,,,
,,,,,,,5b082f3d61cde20001b6706e,6842bbf8a968b26eff846670,2025-06-06_10h59.31.660,shape_ratio,2024.1.5,Win32,60.24096386,6842b561977af9ba9b0f87ca,,,,,,,,,,,89.3008,89.8003,,,90.0505,90.2838,left,,,,,,,,0.4,0.2218,,,,,,,89.8003,90.0505,90.2838,"[-0.1662506712486907,-0.06992986616481617]",100.0,"[0.05166147181865463,0.11107042154343735]",4.0,"[0.1480614862855057,-0.008860232163154954]",4.0,"[0.15535263546651817,-0.12581490827933414]",4.0,"[0.15758694838721557,0.08653144837194955]",100.0,"[-0.11875216676069937,0.14225402087477312]",4.0,"[0.06664558633564185,-0.14215065452121003]",4.0,"[0.008138050206886276,0.18579811496584725]",100.0,"[-0.13251952717895188,-0.00030262957403371277]",100.0,"[0.09001489753716252,-0.05560870449999879]",4.0,"[0.0041859368068636925,0.04433077424924072]",100.0,"[-0.08029796374233589,0.027104774264929677]",4.0,"[0.021328762014884022,-0.026152112885111472]",4.0,"[-0.10686661699391664,-0.04242919411637607]",4.0,"[-0.031162845893262528,-0.003051362871753868]",4.0,"[0.08808707269441854,-0.10382563418767389]",100.0,"[-0.029805837905449238,0.10608621302458539]",4.0,"[0.08499260259858533,0.17661545690580085]",4.0,"[-0.04823483613540049,-0.11090335076060752]",4.0,"[-0.18577591839758212,0.026243107331451198]",4.0,"[-0.1056188235733676,0.09470377189109408]",4.0,"[-0.012598423365867637,-0.05781332075025382]",100.0,"[0.19191553067951125,-0.03369693020706822]",100.0,"[-0.11900033343730178,0.046779728813278874]",100.0,"[-0.012025731832732884,-0.16861838461556644]",4.0,"[-0.038021988386676045,0.04827957594122334]",100.0,"[0.03080722604836511,-0.1964465023080494]",4.0,"[0.19583322418484245,0.024067108813524116]",100.0,"[0.11135178387983978,0.05582080989375056]",4.0,"[0.11047307642146142,0.09589219433173236]",4.0,"[-0.18717391546528925,-0.01526827345745043]",100.0,"[-0.05797558026920045,-0.1780188342333867]",100.0,"[0.02,0.02]",91.3837,0.0,6.0,6.0,163.0,1.0,,,,,,,
,,,,,,,5b082f3d61cde20001b6706e,6842bbf8a968b26eff846670,2025-06-06_10h59.31.660,shape_ratio,2024.1.5,Win32,60.24096386,6842b561977af9ba9b0f87ca,,,,,,,,,,,91.3841,91.8837,,,92.1338,92.3338,right,,,,,,,,0.9,0.1843,,,,,,,91.8837,92.1338,92.3339,"[0.15658938293396504,-0.0878026541903115]",100.0,"[-0.08418174465844314,0.060499317713670286]",100.0,"[0.050770830858379926,0.16301202791497835]",100.0,"[-0.01720074360115095,0.19636584233687399]",100.0,"[-0.0001280236141678399,-0.16455728164279765]",100.0,"[0.06334171894649786,-0.06354293251769812]",100.0,"[0.16046885742966543,0.10911593473859975]",100.0,"[0.19279007009549803,-0.009923082614474105]",100.0,"[0.004217332241370075,0.06699169243920616]",100.0,"[-0.040282234966604706,0.12519087840785434]",100.0,"[0.08298023716175466,-0.13127994419676972]",4.0,"[-0.1697278127449272,-0.03247161716117819]",100.0,"[-0.03440862605672976,0.01502322292425396]",100.0,"[-0.07171053344919692,-0.07724256548571769]",4.0,"[0.020181074718877194,0.12742016429985553]",100.0,"[0.01144260891006605,-0.021885963244217037]",100.0,"[-0.14669941604565706,-0.10560667128757628]",100.0,"[-0.09707962322300452,-0.15346281988919666]",100.0,"[-0.18753414139686053,0.05037588429104752]",100.0,"[0.0881547750501887,0.06357604387180303]",100.0,"[-0.03525993118615733,-0.11194115641043458]",100.0,"[0.08475231731981014,0.004406885061326025]",100.0,"[0.08059356267442733,0.12019384267659748]",100.0,"[-0.13110226710114933,0.03398915913315233]",100.0,"[0.13326597733717374,-0.14839514679772794]",100.0,"[-0.14549571152833227,0.11354076691155723]",100.0,"[-0.03644234199190296,-0.19171565041165156]",100.0,"[-0.12951424699951214,-0.0066386422810211084]",4.0,"[0.18378146882213378,0.0546012263936961]",100.0,"[0.11569495178112665,-0.0219199425815827]",100.0,"[-0.06720545173927006,-0.010000364111064983]",100.0,"[0.13485990320423452,0.14219065384343227]",100.0,"[0.02,0.02]",93.4337,0.0,7.0,7.0,28.0,1.0,,,,,,,
,,,,,,,5b082f3d61cde20001b6706e,6842bbf8a968b26eff846670,2025-06-06_10h59.31.660,shape_ratio,2024.1.5,Win32,60.24096386,6842b561977af9ba9b0f87ca,,,,,,,,,,,93.4341,93.9337,,,94.184,94.4504,left,,,,,,,,0.4,0.2513,,,,,,,93.9337,94.1839,94.4506,"[-0.16446542721601295,-0.02160319944059522]",100.0,"[0.04330522637888194,0.17547229028302216]",100.0,"[-0.11824093360552358,-0.07676361473527535]",4.0,"[-0.05905820217683933,-0.16583740095131794]",100.0,"[0.0028230791759737764,0.10343419179484144]",100.0,"[-0.11767565325920948,-0.023952717850610462]",4.0,"[-0.10765639779960491,0.01745595580500496]",4.0,"[0.13490689933664549,0.12385604401839037]",4.0,"[-0.083074276862944,0.15695873586780634]",4.0,"[0.030557007666370446,-0.055919353224150016]",4.0,"[0.15722397164713353,0.013725511766213566]",4.0,"[0.09753847186714813,-0.020114570801276422]",100.0,"[-0.09092714030825583,0.09434126703454974]",4.0,"[0.18790237822830366,-0.01769132174123033]",4.0,"[0.10546511699513388,0.04366894484913182]",4.0,"[-0.05824662809814449,-0.1095836032336286]",4.0,"[-0.017326771131939304,-0.02429862354483846]",100.0,"[0.11494797800734242,-0.12107823120083021]",4.0,"[-0.1684317676064242,0.08332780429863461]",4.0,"[-0.02152973461637145,0.15598850332211683]",100.0,"[-0.015543866561151616,-0.12191213055963751]",4.0,"[0.03324549792028228,-0.15155233404787852]",4.0,"[0.025748070854542726,0.043608553397017844]",100.0,"[-0.1368397595322686,0.12219023329907137]",100.0,"[0.17158193321526033,0.09510441357925302]",100.0,"[0.08395448408723946,0.16524570357433704]",100.0,"[-0.1012158822820067,-0.14353509447880647]",100.0,"[0.07752673766771596,0.07405544247651509]",4.0,"[-0.1631108190544882,-0.079588975772375]",4.0,"[-0.04657271910464876,0.06612371631594595]",100.0,"[0.10720102866463709,-0.16317986280778773]",4.0,"[0.1630851388465604,-0.05145641438405517]",4.0,"[0.02,0.02]",95.5504,0.0,8.0,8.0,174.0,1.0,,,,,,,
,,,,,,,5b082f3d61cde20001b6706e,6842bbf8a968b26eff846670,2025-06-06_10h59.31.660,shape_ratio,2024.1.5,Win32,60.24096386,6842b561977af9ba9b0f87ca,,,,,,,,,,,95.5507,96.0503,,,96.3005,96.5838,right,,,,,,,,0.6,0.2673,,,,,,,96.0504,96.3005,96.5838,"[-0.003904984769213948,0.034566984348137965]",100.0,"[0.15007361174662007,-0.0017853170834649067]",100.0,"[-0.11708787627935098,0.08644562831796454]",100.0,"[-0.05444837482397966,0.06837631569733198]",100.0,"[-0.1769994890517255,0.04701499495175286]",100.0,"[0.19799866990380727,0.02337741785397063]",4.0,"[-0.10455964579265255,-0.022099917877190046]",100.0,"[0.04312346766425713,-0.13855382705482125]",4.0,"[-0.1832393718453548,-0.023113714775540944]",100.0,"[-0.130950929287219,-0.13089341677206662]",4.0,"[0.0666140466217466,-0.09237218736029261]",100.0,"[-0.05742676595889278,-0.10744744078302025]",4.0,"[0.02340237101127965,0.1517949076626823]",100.0,"[-0.17717194406780046,-0.07567805053789632]",4.0,"[-0.03527580754209423,0.12647614847491212]",100.0,"[0.06751622312207015,0.06715097136227277]",100.0,"[0.0050998170156577845,-0.08441630482609339]",4.0,"[-0.036542894961395775,0.19344101597895919]",100.0,"[0.06441367777280778,-0.0206327239388567]",4.0,"[-0.009455715752556198,-0.19907641914206092]",100.0,"[0.1462513447662896,-0.09386722428169819]",100.0,"[0.1004807134116547,0.13481962129631506]",4.0,"[-0.04342395596168661,-0.04476867826756389]",100.0,"[0.10731205862768478,-0.07644628807161978]",4.0,"[0.10606397692442539,-0.13478258968075343]",4.0,"[-0.14648623049950532,0.015286071352700149]",100.0,"[0.04994443601307994,0.029454046720997055]",4.0,"[0.1319416500853659,0.05257299238791808]",100.0,"[0.14603410571066044,0.13577533502223443]",4.0,"[-0.14256826247829116,-0.04033155051892687]",4.0,"[-0.08394329293241748,0.11989062159427959]",100.0,"[-0.0043941344654353925,0.08292263278495944]",100.0,"[0.02,0.02]",97.6837,0.0,9.0,9.0,41.0,1.0,,,,,,,
,,,,,,,5b082f3d61cde20001b6706e,6842bbf8a968b26eff846670,2025-06-06_10h59.31.660,shape_ratio,2024.1.5,Win32,60.24096386,6842b561977af9ba9b0f87ca,,,,,,,,,,,97.684,98.1838,,,98.4341,98.7338,left,,,,,,,,0.5,0.2836,,,,,,,98.1838,98.4341,98.7338,"[0.030767399499708668,0.02976564290905472]",4.0,"[-0.07364979802269314,0.18140512921922633]",4.0,"[-0.055502455457560475,-0.18188225486213044]",100.0,"[0.10626382833392913,0.0971123975145001]",100.0,"[-0.009662427878351967,-0.11177240121951532]",4.0,"[0.12407258461960766,-0.07097867367571796]",100.0,"[0.1477132914249574,0.006752965348961723]",100.0,"[-0.03449994965281687,0.03709850367244659]",100.0,"[-0.05736807584903677,0.13439114304628214]",4.0,"[0.027540732056097857,0.08312304237732714]",4.0,"[-0.0975788322470069,-0.14731018105778587]",100.0,"[0.08577076491778989,-0.11511907517983351]",4.0,"[-0.0899584921969978,-0.008850317441097943]",4.0,"[0.015304687862787702,-0.1784652319045572]",4.0,"[-0.1365744499617734,-0.10599170676804374]",4.0,"[-0.12073387712735353,0.11174846250317075]",4.0,"[0.05761353172532658,0.13209174867688706]",100.0,"[-0.03427081272936029,0.17423003258891018]",4.0,"[0.12773982077878893,-0.13121536486578808]",4.0,"[-0.1688205965991066,-0.04993510889557864]",100.0,"[-0.03295696156843169,0.08167659202120212]",4.0,"[-0.05135063843002042,-0.08092442852945024]",4.0,"[-0.015513778624420813,-0.03797708155277568]",100.0,"[-0.10775692776370532,-0.04860477623540844]",100.0,"[0.05566179040421987,0.17827626341688446]",100.0,"[0.07963654169532751,-0.17796049348563817]",100.0,"[0.09006122605917483,0.05414254806184493]",4.0,"[-0.07626753271736345,-0.11322408779898722]",100.0,"[0.10789170317108429,0.14530390071359517]",4.0,"[0.08754084785576165,-0.05217347365668159]",100.0,"[-0.14873768247492516,0.07521244677918086]",100.0,"[-0.17886441074291,-0.006868617806723726]",100.0,"[0.02,0.02]",99.8337,0.0,10.0,10.0,111.0,1.0,,,,,,,
,,,,,,,5b082f3d61cde20001b6706e,6842bbf8a968b26eff846670,2025-06-06_10h59.31.660,shape_ratio,2024.1.5,Win32,60.24096386,6842b561977af9ba9b0f87ca,,,,,,,,,,,99.834,100.3338,,,100.5839,100.8505,left,,,,,,,,0.55,0.2572,,,,,,,100.3338,100.5839,100.8506,"[-0.19558662974038432,-0.004158051028706994]",4.0,"[0.13033109808203694,-0.044269676628262006]",100.0,"[-0.02769718120916505,0.15537304950136335]",4.0,"[-0.029998106116314472,-0.07788804109671701]",100.0,"[-0.06078302026199113,-0.02352572055355467]",100.0,"[0.13191739257526425,0.12788835892785463]",4.0,"[-0.11100862538325876,0.16504908298844234]",100.0,"[-0.014133512970428632,0.05046791463000412]",4.0,"[-0.13736034009507253,0.11294309240952059]",100.0,"[0.18593201516081864,0.01753551258519568]",100.0,"[-0.06610563706824694,0.04569962552530021]",100.0,"[-0.15513349406787302,-0.028320589862517717]",100.0,"[0.06757386770984404,0.03401272861034247]",100.0,"[-0.0772154598096232,0.10752856914042769]",4.0,"[0.05820463860180149,0.13996417911650283]",4.0,"[0.11833017996653886,-0.1099674695816995]",4.0,"[-0.11724645395290295,-0.009958171227546846]",4.0,"[0.00699246686651267,-0.153953396231798]",100.0,"[0.07104286694265706,-0.08310675445722769]",100.0,"[-0.17516914672158493,0.041503373345081064]",100.0,"[0.13405404059478102,0.04550043537180179]",4.0,"[-0.10251183377854925,-0.06454885511661022]",100.0,"[-0.059188962333923185,-0.1745348881796245]",4.0,"[-0.037840718135748144,0.0157572608374323]",100.0,"[0.0644834685632762,0.08488955168225983]",4.0,"[0.025009257761065776,0.010613199216787092]",100.0,"[0.01829473983177203,-0.10660635539462703]",4.0,"[-0.052589338130868864,-0.11784134555368234]",4.0,"[0.011919435326401977,-0.05674895206578587]",100.0,"[-0.12080506580002122,0.06422986334340824]",100.0,"[-0.1397105388802028,-0.12034757777662644]",100.0,"[0.05869925650594454,-0.12926297415570553]",4.0,"[0.02,0.02]",101.9504,0.0,11.0,11.0,68.0,1.0,,,,,,,
,,,,,,,5b082f3d61cde20001b6706e,6842bbf8a968b26eff846670,2025-06-06_10h59.31.660,shape_ratio,2024.1.5,Win32,60.24096386,6842b561977af9ba9b0f87ca,,,,,,,,,,,101.9508,102.4503,,,102.7007,103.0005,left,,,,,,,,0.5,0.2842,,,,,,,102.4503,102.7006,103.0005,"[-0.027396861170977584,-0.11406780886197251]",4.0,"[-0.013469409248259467,0.1043313663136908]",100.0,"[0.040237470884956036,0.1682560812092828]",100.0,"[-0.14662225489188294,0.02917550540418305]",4.0,"[-0.070953809446218,-0.008921690443432984]",100.0,"[-0.1597955096405091,-0.0715348306113983]",4.0,"[-0.16607356317514602,0.09394285265563297]",4.0,"[-0.06817948915857912,-0.11987617697057597]",100.0,"[-0.03974127938659974,0.0560685540133897]",100.0,"[0.03927506400977658,0.03037809218918537]",4.0,"[0.030078634259204783,-0.057940064245248404]",100.0,"[0.13500497336575565,0.006042311237621573]",100.0,"[0.1506122294842487,0.04727950998752732]",4.0,"[0.00719281572406041,-0.1534323285810099]",4.0,"[-0.1210050649261231,-0.028447321438209546]",4.0,"[-0.10982897165345223,-0.12405901966414457]",100.0,"[0.046646603201622845,0.10836138899636147]",100.0,"[0.10284513993259306,0.1671095586845845]",100.0,"[-0.04947013398553851,0.15553232103181489]",4.0,"[0.06312362032271547,-0.10170261846067086]",4.0,"[-0.007664753396594981,0.1681923514122841]",4.0,"[0.16553706277363334,-0.08682410592812348]",100.0,"[0.13382246424272828,0.12147889900423749]",100.0,"[0.005273893021676393,-0.023369482471326447]",100.0,"[0.08319855404439756,-0.0018455659950210152]",4.0,"[-0.17514755641228594,-0.011632208964626217]",4.0,"[0.1691341177392801,0.09299034800139361]",100.0,"[-0.10841915816942028,0.01063868098859851]",4.0,"[0.12449967736430964,-0.14592074002198982]",4.0,"[-0.11851221687397814,0.0709526019703629]",100.0,"[0.08066186944973988,0.07882444879833622]",4.0,"[-0.03977813092317954,-0.1593780761233523]",100.0,"[0.02,0.02]",104.1004,0.0,12.0,12.0,107.0,1.0,,,,,,,
,,,,,,,5b082f3d61cde20001b6706e,6842bbf8a968b26eff846670,2025-06-06_10h59.31.660,shape_ratio,2024.1.5,Win32,60.24096386,6842b561977af9ba9b0f87ca,,,,,,,,,,,104.1006,104.6003,,,104.8507,105.0171,right,,,,,,,,0.9,0.1505,,,,,,,104.6003,104.8507,105.0171,"[-0.003090240360927787,-0.15237908445469034]",100.0,"[0.16719632011766203,0.07904938446119313]",100.0,"[-0.05089379008724675,-0.06479973116423018]",4.0,"[0.06426861127921799,0.17035835974886437]",100.0,"[-0.1398596745319071,-0.12153976783694538]",100.0,"[0.05251850989370582,0.06706536226208268]",100.0,"[0.06272683791118455,0.0226510407470033]",100.0,"[0.007387890409720478,-0.020754264417677193]",100.0,"[-0.05891996237503425,-0.1833210707766818]",100.0,"[-0.16995377141434637,-0.08062512214425407]",100.0,"[-0.010080375629983753,-0.19462184946257685]",100.0,"[-0.0877000680594672,0.1629368070084644]",100.0,"[0.15027613564863113,-0.002579289908680441]",4.0,"[-0.06973924171981866,0.005635618798474338]",100.0,"[0.04852396181582052,-0.06376057944574957]",100.0,"[-0.0869982743535001,-0.14748258362121824]",100.0,"[0.10188739287485413,0.10355425397346307]",100.0,"[-0.05293761337830041,0.08712833140671644]",100.0,"[0.05350386299456289,0.1311389317543605]",100.0,"[0.03636374375179328,-0.13492589500768684]",100.0,"[0.1846742361499376,-0.0354141116501051]",100.0,"[-0.10589673119393507,0.08161475242605602]",4.0,"[0.12574399595760993,0.055096239407425376]",100.0,"[0.12396023902874846,-0.07042024182456433]",100.0,"[-0.17680095539416035,0.0649685184004637]",100.0,"[0.10878730795914789,-0.12933079615755239]",100.0,"[0.008577456448542756,0.1257851569169045]",100.0,"[0.018004200027025657,0.034216559287770475]",100.0,"[0.00044841011213718907,0.19299303438424403]",100.0,"[-0.15544907458459228,-0.000322477714875238]",100.0,"[-0.13378847819543851,-0.05059695498519722]",100.0,"[-0.034482287641105204,0.13595725853494353]",100.0,"[0.02,0.02]",106.117,0.0,13.0,13.0,21.0,1.0,,,,,,,
,,,,,,,5b082f3d61cde20001b6706e,6842bbf8a968b26eff846670,2025-06-06_10h59.31.660,shape_ratio,2024.1.5,Win32,60.24096386,6842b561977af9ba9b0f87ca,,,,,,,,,,,106.1173,106.617,,,106.8672,107.0505,right,,,,,,,,0.45,0.1738,,,,,,,106.617,106.8672,107.0505,"[0.05363594541036776,-0.06255551778194811]",4.0,"[0.011616038181935196,0.13061608748047665]",4.0,"[0.11243275859594373,-0.014683048289336163]",4.0,"[-0.0915240632410846,0.10693778833447293]",100.0,"[0.08940196560323853,-0.1724639117944084]",4.0,"[0.06789914559419133,0.10147630450879373]",4.0,"[-0.09514422974213317,0.011074247546774019]",4.0,"[-0.03346796083005712,0.06588331500757064]",4.0,"[-0.007555096636675662,-0.03823204734699648]",100.0,"[0.1390746826184273,0.12055387791457875]",4.0,"[-0.18010415561057933,0.024993022587806862]",100.0,"[0.1480921730460234,-0.0703658107654134]",100.0,"[0.17457299463885007,0.0384408227386447]",4.0,"[0.005160426688289703,-0.19622225233305624]",4.0,"[0.18098466235723734,-0.03623958818010509]",100.0,"[0.022880421478288195,-0.10062870364197089]",4.0,"[0.08733845682007399,0.04302596740449622]",100.0,"[-0.13565225765475453,0.023617671162899867]",100.0,"[0.12615206255355987,0.07289167181250199]",4.0,"[-0.0763188630736282,-0.03781863874353486]",100.0,"[-0.16461833231161996,-0.0961587617161009]",4.0,"[-0.17270510655265645,-0.02260601792484819]",100.0,"[0.011356104410625678,0.014403579519553412]",4.0,"[-0.10019696798153901,-0.15611385465167588]",4.0,"[0.035885244054599995,0.060976906450814966]",100.0,"[-0.07580642650254758,0.047246648917619156]",4.0,"[-0.012183919160396368,-0.1274636111197841]",100.0,"[-0.019605399140488127,0.17729015871778078]",4.0,"[0.1095233942281601,-0.09874383253306822]",100.0,"[0.019499010698610476,0.18872598273550645]",100.0,"[-0.07607750883501041,-0.10843962059912206]",100.0,"[-0.05095491182639225,-0.15237239313344597]",4.0,"[0.02,0.02]",108.1503,0.0,14.0,14.0,134.0,1.0,,,,,,,
,,,,,,,5b082f3d61cde20001b6706e,6842bbf8a968b26eff846670,2025-06-06_10h59.31.660,shape_ratio,2024.1.5,Win32,60.24096386,6842b561977af9ba9b0f87ca,,,,,,,,,,,108.1506,108.6504,,,108.9006,109.2005,left,,,,,,,,0.55,0.2845,,,,,,,108.6504,108.9006,109.2005,"[-0.043279640693403086,0.16551064986742745]",100.0,"[0.0841978178872612,-0.07312661901554926]",100.0,"[-0.1468360815983998,0.08743169837637305]",4.0,"[-0.1793718949214488,0.01879802059454107]",100.0,"[0.12111113899426942,-0.012583207967015949]",100.0,"[-0.18908799280974928,-0.0604732994127447]",4.0,"[-0.04083357671839968,-0.17132835429777646]",100.0,"[-0.022634102037605804,0.11970375015986753]",4.0,"[0.04018057439351498,0.12741705955946528]",100.0,"[0.11316521291479367,0.13747339962791177]",100.0,"[0.0037384967600806516,-0.059051479212667214]",100.0,"[0.0442498368496079,0.040198527103466386]",4.0,"[-0.10775519741482839,-0.01159194452329251]",100.0,"[-0.12294269889876829,-0.10891236912456541]",4.0,"[0.16863469923580604,-0.01866788129184329]",4.0,"[0.08254771468749687,0.0941293930182504]",100.0,"[-0.10291576508904056,0.07052086914719072]",4.0,"[0.11443986867770647,-0.138109453863306]",100.0,"[-0.0892308318139022,0.15209163658106045]",4.0,"[-0.012608139763327099,0.00530909827683841]",100.0,"[0.043328057590674485,-0.04624057560545996]",4.0,"[-0.08990305808670686,-0.1618709191796189]",4.0,"[0.012499505980436601,-0.14489103809340667]",100.0,"[0.004421685952894389,0.07306546166603116]",100.0,"[0.18889929322580126,0.018195773726256012]",100.0,"[0.16405603491795334,0.08958044769500939]",4.0,"[-0.13526240240816997,0.03983772657936718]",100.0,"[0.06171596609787887,-0.15119838931654378]",100.0,"[-0.04133046570942572,-0.025330484252179822]",100.0,"[0.14519022928124772,-0.054711519884582886]",4.0,"[0.11423122559677884,0.05563387513044561]",4.0,"[-0.06607012010319498,0.008874698377882803]",4.0,"[0.02,0.02]",110.3006,0.0,15.0,15.0,89.0,1.0,,,,,,,
,,,,,,,5b082f3d61cde20001b6706e,6842bbf8a968b26eff846670,2025-06-06_10h59.31.660,shape_ratio,2024.1.5,Win32,60.24096386,6842b561977af9ba9b0f87ca,,,,,,,,,,,110.301,110.8004,,,111.0506,111.3671,left,,,,,,,,0.6,0.3023,,,,,,,110.8004,111.0506,111.3672,"[0.05967462112271143,0.0886338611366814]",100.0,"[-0.07966294738790473,0.10106279025792016]",100.0,"[0.17251704599148918,0.009512854525393712]",4.0,"[-0.09979431559894382,-0.16485745300519172]",100.0,"[0.11350021493667037,-0.14537855306706768]",100.0,"[0.07431557439035304,0.17634724469218604]",4.0,"[0.026903146148524543,0.12567422533039727]",100.0,"[0.05271709930464693,-0.13909364627436313]",100.0,"[-0.045456236470984464,0.07955467843666401]",100.0,"[0.01681834039925597,-0.08129734643116869]",100.0,"[-0.12608449838683677,-0.07307992399692202]",4.0,"[-0.021271708603497568,-0.1846601409250917]",4.0,"[-0.001321029325818115,0.02804903810084203]",4.0,"[-0.056736022077404226,-0.008897197850363038]",100.0,"[0.08371034326142728,-0.04362347399889313]",100.0,"[-0.16125632348953478,0.014724555148475597]",4.0,"[-0.174430867508774,-0.09739813844154356]",4.0,"[0.07868792883155688,-0.10247278587173882]",100.0,"[0.16116324156337172,-0.04245706810349757]",4.0,"[-0.08280369333705394,-0.057467359135081456]",100.0,"[-0.05824779217133349,0.17553028651449237]",100.0,"[0.1012189877469054,0.11969687911299057]",100.0,"[-0.015533242852135878,-0.13404696453229883]",4.0,"[0.12436213015970632,-0.06115345068468823]",100.0,"[0.12129606989357092,-0.014473187545718325]",4.0,"[-0.049799853333433,-0.08969613289550347]",100.0,"[-0.1573555557194574,0.09291419257651092]",4.0,"[-0.005428224996602384,0.09905855131002345]",100.0,"[0.16666111200145503,0.07448981541582474]",4.0,"[0.15462498279785492,0.11664524266258744]",100.0,"[0.019243555648503937,0.18943904871909914]",100.0,"[0.035479199102053736,-0.027602546126473733]",4.0,"[0.02,0.02]",112.467,0.0,16.0,16.0,35.0,1.0,,,,,,,
,,,,,,,5b082f3d61cde20001b6706e,6842bbf8a968b26eff846670,2025-06-06_10h59.31.660,shape_ratio,2024.1.5,Win32,60.24096386,6842b561977af9ba9b0f87ca,,,,,,,,,,,112.4673,112.967,,,113.2173,113.467,right,,,,,,,,0.6,0.239,,,,,,,112.967,113.2173,113.467,"[-0.15778143134679606,-0.002046463092701542]",100.0,"[0.058183754239532995,0.11123627880269135]",4.0,"[-0.047750905682834764,-0.12552386814175154]",4.0,"[0.08193639921662815,-0.06341816044637022]",4.0,"[-0.1338728285392368,-0.08323490377478772]",100.0,"[-0.15869242718199653,0.07518684152360658]",100.0,"[0.08360881472860146,-0.13156437156804685]",4.0,"[0.017034842632286665,0.004834684963691582]",4.0,"[-0.19366230109318464,0.02425428044188763]",4.0,"[0.12033648608957775,0.07362912099307845]",100.0,"[0.004013946471108283,-0.19922198571796945]",100.0,"[-0.07752618886478842,-0.1651853024593045]",100.0,"[-0.07142870395406863,0.09472820751740905]",100.0,"[0.021675096690454757,-0.09867350398835967]",100.0,"[-0.017402256427724333,0.14458207601099565]",100.0,"[-0.18668953370944366,-0.06962604350337491]",100.0,"[0.19289537488120884,0.048075011342809]",100.0,"[0.05848731426875433,0.1790772463022781]",100.0,"[0.18853989818858677,-0.06535857398588436]",100.0,"[0.14458465482731117,-0.09544165874699011]",100.0,"[-0.11308655681287377,0.13669741227870494]",4.0,"[-0.054804614652858505,-0.07206318059850284]",100.0,"[-0.010839196363948334,-0.06664819937947732]",4.0,"[0.05136324862275761,0.0561127530915975]",4.0,"[-0.09121205803438356,-0.014385884096569525]",100.0,"[0.11713793869133475,-0.011245905767231976]",100.0,"[0.10054769833302162,0.13578256706502315]",4.0,"[-0.061470832385419415,0.1412363696355465]",100.0,"[0.018126554795595447,0.10567847915449806]",4.0,"[0.006854837400651123,-0.14768635318067885]",4.0,"[0.1781036463793747,-0.025725832144453294]",4.0,"[0.047225239246212296,-0.1789489649096298]",100.0,"[0.02,0.02]",114.567,0.0,17.0,17.0,43.0,1.0,,,,,,,
,,,,,,,5b082f3d61cde20001b6706e,6842bbf8a968b26eff846670,2025-06-06_10h59.31.660,shape_ratio,2024.1.5,Win32,60.24096386,6842b561977af9ba9b0f87ca,,,,,,,,,,,114.5673,115.0669,,,115.3172,115.5005,right,,,,,,,,0.4,0.1712,,,,,,,115.0671,115.3172,115.5005,"[-0.006409994052949607,0.10949425107482015]",4.0,"[-0.08817447250929952,-0.1685799803230019]",4.0,"[-0.018930712040744226,-0.19655852140837554]",4.0,"[-0.0032894604532926934,-0.031212595957346927]",4.0,"[0.02982863041717032,0.012930001129798007]",100.0,"[0.12561768534304757,0.14983139688451264]",100.0,"[0.1635198323216953,-0.029292572002333775]",100.0,"[-0.04931662005206097,0.15939783502517985]",4.0,"[-0.1772410317572575,-0.043167458408233134]",4.0,"[-0.04377320146754723,-0.14895195267720607]",4.0,"[0.0655561271907708,0.07494657162042336]",100.0,"[-0.08663546893049122,-0.04457747425371843]",4.0,"[0.033156360631013876,-0.160792325109713]",4.0,"[-0.11423851155090954,-0.09614979215788831]",4.0,"[-0.004045191021370408,0.06056208590948043]",100.0,"[0.11642083143006007,-0.09859371286131743]",4.0,"[0.10992944740231268,-0.04490642852233141]",4.0,"[-0.1519629732100548,0.12706519439760638]",100.0,"[0.15411698630626428,0.03513364950842817]",100.0,"[-0.18713172360505162,0.013764979351420636]",100.0,"[0.002951443227156609,-0.08084494869840872]",4.0,"[-0.16684805052264637,-0.08572378941096355]",100.0,"[-0.04946306239999197,-0.10459290040315224]",100.0,"[0.11144563956314192,-0.00422950549664016]",100.0,"[-0.1287530540849641,-0.052379709334791046]",4.0,"[0.07370091257270293,-0.11303246974521812]",4.0,"[-0.059435060328886895,0.05613752600209734]",4.0,"[0.021308289265118588,0.17117965609257332]",100.0,"[-0.06738405070596565,0.10353145640247507]",4.0,"[0.07583048720615236,0.11662116557833711]",4.0,"[0.08644336499566978,0.17535952099602553]",100.0,"[0.03034947357851282,0.12939930986868647]",4.0,"[0.02,0.02]",116.6004,0.0,18.0,18.0,169.0,1.0,,,,,,,
,,,,,,,5b082f3d61cde20001b6706e,6842bbf8a968b26eff846670,2025-06-06_10h59.31.660,shape_ratio,2024.1.5,Win32,60.24096386,6842b561977af9ba9b0f87ca,,,,,,,,,,,116.6007,117.1007,,,117.3506,117.7171,right,,,,,,,,0.1,0.3511,,,,,,,117.1007,117.3505,117.7171,"[-0.14100194578753245,0.0600710035895652]",4.0,"[0.05661363409790598,-0.028792363337907776]",4.0,"[0.03206291444139945,-0.08254972288577579]",4.0,"[0.15983655207924313,-0.1134570656297567]",4.0,"[0.04678845906293193,0.11852967452149687]",4.0,"[-0.11018113054870146,-0.03437842092055711]",100.0,"[-0.007485143555600176,0.03397245196303108]",4.0,"[-0.053580468677420896,-0.166528836531154]",4.0,"[-0.07378503297438262,-0.0962544202449909]",4.0,"[0.07881562104374991,-0.06955680619749592]",4.0,"[-0.1243769551303624,-0.09835657348830801]",4.0,"[0.0204489829428653,-0.00858473520762496]",4.0,"[0.04429060092878114,0.02478416997774521]",4.0,"[-0.07301500650549798,0.057308094800106055]",4.0,"[-0.1717926015403296,0.02026579796607107]",4.0,"[0.08697118274912334,0.09782833065500524]",4.0,"[-0.009109335193206574,0.09122353583611065]",100.0,"[0.0019224446399108697,-0.13052891329424585]",4.0,"[0.13867890859281765,0.04800854802583164]",4.0,"[-0.06451847645316137,0.16021497673887403]",4.0,"[0.12824344636907695,-0.06123348256321175]",4.0,"[-0.062408025893505165,-0.033071438868724046]",4.0,"[0.16688628927722288,-0.04582357472815448]",100.0,"[0.08511525611443832,0.17709028469491664]",4.0,"[0.10735353789720099,0.00957723155568721]",4.0,"[-0.14362733375879216,-0.13739931529337063]",4.0,"[-0.10464954580307449,0.12303687652538155]",4.0,"[-0.18312199234767668,-0.05203820122815873]",4.0,"[0.02109460683351866,0.1970684747753689]",4.0,"[0.1162463754320004,-0.11737968784306153]",4.0,"[-0.02946713218940983,0.13097125764137738]",4.0,"[-0.05480855966806152,0.0937925468050639]",4.0,"[0.02,0.02]",118.817,0.0,19.0,19.0,190.0,1.0,,,,,,,
,,,,,,,5b082f3d61cde20001b6706e,6842bbf8a968b26eff846670,2025-06-06_10h59.31.660,shape_ratio,2024.1.5,Win32,60.24096386,6842b561977af9ba9b0f87ca,,,,,,,,,,,118.8174,119.317,,,119.5672,119.9505,left,,,,,,,,0.45,0.3677,,,,,,,119.317,119.5672,119.9506,"[0.037868764286352184,0.02293673861389386]",4.0,"[-0.18161718296716486,0.08072722261706537]",4.0,"[-0.04034849175812901,-0.1525644988546084]",4.0,"[0.1653059339633065,0.1021138047023861]",4.0,"[0.12772235605016416,-0.04865748787593035]",4.0,"[-0.1347429451728282,0.009592163504792042]",100.0,"[0.045551537800115456,-0.04107899449818304]",4.0,"[-0.061136688384971084,-0.055514440258284274]",100.0,"[0.09466560005375722,-0.12230316670838472]",4.0,"[-0.015324894736434846,0.15060233456528213]",4.0,"[-0.01824215108321559,0.07016269455844124]",100.0,"[-0.17351000180969933,0.0288279063388081]",4.0,"[0.06863396795675872,-0.1799735852222047]",4.0,"[0.08926614240561577,0.1551666709216073]",100.0,"[0.09244842739058107,-0.003038759392934505]",100.0,"[0.0005288253262828883,-0.15568241294879473]",4.0,"[0.11639905239639166,0.055309210230784375]",100.0,"[-0.0033051061164712184,0.02502957876685379]",4.0,"[-0.10342248342661306,-0.11981765899036985]",4.0,"[-0.1773440767884368,-0.05333346932716731]",4.0,"[-0.1288975703614891,0.1384489287565011]",100.0,"[0.19289394423669115,0.032182489932370655]",100.0,"[-0.17034298297516146,-0.10249585014090734]",4.0,"[-0.04533156339404736,-0.09258072085623935]",100.0,"[-0.08003260236104269,0.05083752889742541]",4.0,"[-0.05232892906405051,-0.00041001370008939475]",100.0,"[0.16311229839825897,-0.06837275055103023]",100.0,"[0.03401202322983796,-0.11558720374493758]",100.0,"[0.019213154329068546,0.12275140357478902]",4.0,"[-0.08111115391541972,0.17089578806362843]",100.0,"[-0.04780057931335472,0.09922869023006907]",4.0,"[-0.1409516394523537,0.07433040486848654]",100.0,"[0.02,0.02]",121.0504,0.0,20.0,20.0,130.0,1.0,,,,,,,
,,,,,,,5b082f3d61cde20001b6706e,6842bbf8a968b26eff846670,2025-06-06_10h59.31.660,shape_ratio,2024.1.5,Win32,60.24096386,6842b561977af9ba9b0f87ca,,,,,,,,,,,121.0507,121.5504,,,121.8005,122.0504,right,,,,,,,,0.9,0.2342,,,,,,,121.5505,121.8005,122.0504,"[0.04595988631393194,-0.11497811027641969]",4.0,"[0.1395532707523086,-0.09401341317585563]",100.0,"[0.09988299801075938,0.1284770043667866]",100.0,"[-0.025997293959620024,0.12759752608143188]",100.0,"[-0.15332417516299748,-0.09632439229731338]",100.0,"[-0.06344730434652106,-0.1549878642407526]",100.0,"[-0.04335050858132813,-0.007962840770279955]",100.0,"[0.03809792910534251,-0.17765306274247353]",100.0,"[-0.14016092095957677,0.09556453637694853]",100.0,"[0.037186972012324536,-0.06614005086455499]",100.0,"[0.14875202839776414,0.07440872220913304]",100.0,"[-0.10902396218898024,-0.04838406574240792]",4.0,"[-0.19423639648736027,0.020330308859350853]",100.0,"[-0.08010173679720187,0.10064870334973326]",100.0,"[-0.04401209118168315,0.1920048783246343]",100.0,"[-0.13186038947926695,0.015938075742148717]",100.0,"[-0.09914398493392738,0.0529952037593043]",4.0,"[0.05303609164231522,0.17369298394395205]",100.0,"[0.15044456489352914,0.1306006411367945]",100.0,"[0.11438741188484813,-0.15403205356468327]",100.0,"[0.18948775008764718,0.015926233803306253]",100.0,"[0.01171839074298334,-0.018136853144404275]",100.0,"[0.1607319133824207,-0.03387546905989196]",100.0,"[0.024760701327817873,0.032108529923386975]",100.0,"[0.00208861766437311,-0.12760899139076815]",100.0,"[-0.16365478400523759,-0.05064174277746543]",100.0,"[-0.17900281522095174,0.06114079679769045]",100.0,"[0.0772455285238748,0.055152160309871426]",100.0,"[0.122341100176355,0.012118286028992521]",100.0,"[0.05727409076999832,0.10174903553215858]",100.0,"[-0.13571648076314755,0.14400849416694048]",100.0,"[-0.12151953579434299,-0.14610815941447203]",100.0,"[0.02,0.02]",123.1516,0.0,21.0,21.0,10.0,1.0,,,,,,,
,,,,,,,5b082f3d61cde20001b6706e,6842bbf8a968b26eff846670,2025-06-06_10h59.31.660,shape_ratio,2024.1.5,Win32,60.24096386,6842b561977af9ba9b0f87ca,,,,,,,,,,,123.1523,123.6505,,,123.901,124.0845,right,,,,,,,,0.9,0.1682,,,,,,,123.6505,123.9009,124.0845,"[-0.12393907658586986,-0.07387799530890778]",100.0,"[0.028931312639317894,-0.18260905096492092]",100.0,"[0.13473744649149386,-0.003125020354325914]",100.0,"[-0.01912185552355507,-0.17725618006086197]",100.0,"[-0.11772490336123523,0.08445712994328351]",100.0,"[-0.05806979816007614,-0.13648233065394588]",100.0,"[0.12328215939348208,0.07583349263855307]",100.0,"[-0.12522465320004425,0.019740736439220644]",4.0,"[0.06442463595031389,-0.09397744347205719]",100.0,"[0.07840816998824837,-0.16536830175952605]",4.0,"[-0.008340256154399161,0.050336199533987804]",100.0,"[0.02407288348701245,-0.11834405087529408]",100.0,"[0.10887032760864199,-0.0578307452974156]",100.0,"[-0.02192460085011001,0.11431825268947694]",100.0,"[0.07583290004367821,0.023809878033220728]",100.0,"[-0.05218660644561481,0.02387960903515318]",100.0,"[0.017986544424610177,0.1170235713417494]",100.0,"[-0.013719437081001365,0.1791467703171727]",4.0,"[0.14052925848494952,-0.08792412762597564]",100.0,"[-0.050900286571140305,0.07494762790243872]",100.0,"[0.19282499018412108,-0.012959407823080003]",100.0,"[-0.11721624123568337,-0.13491451540097996]",100.0,"[-0.07268686200758165,-0.025779974667458752]",100.0,"[0.12464815432852668,-0.13435738688574075]",100.0,"[0.16027589976240728,0.03124086577091912]",100.0,"[0.17459733075567035,0.08186609408517426]",100.0,"[0.052336528557050684,-0.024840844344476993]",100.0,"[-0.0560521501115818,0.14585351675307723]",100.0,"[-0.002494066904322649,-0.03223161670948484]",100.0,"[0.033366131582144194,0.032779310599781224]",100.0,"[0.0825877758935971,0.1090338717887689]",100.0,"[-0.03317147546301547,-0.06801687481043572]",100.0,"[0.02,0.02]",125.1841,0.0,22.0,22.0,5.0,1.0,,,,,,,
,,,,,,,5b082f3d61cde20001b6706e,6842bbf8a968b26eff846670,2025-06-06_10h59.31.660,shape_ratio,2024.1.5,Win32,60.24096386,6842b561977af9ba9b0f87ca,,,,,,,,,,,125.1846,125.6843,,,125.9346,126.2341,left,,,,,,,,0.1,0.2826,,,,,,,125.6844,125.9346,126.2343,"[-0.0037847082190428805,-0.12935100063564622]",4.0,"[0.11053581474269979,0.10633337599226861]",4.0,"[-0.12503386650931742,0.12180178415815175]",100.0,"[-0.0051160590257074015,0.07918673822975719]",4.0,"[0.03251137784195938,0.11437949220069568]",4.0,"[0.0023635316659226142,0.18831113230846244]",4.0,"[-0.1872823538423924,0.024140723914165507]",100.0,"[-0.016880989955503276,-0.07279208834050195]",4.0,"[0.04135676789112492,-0.07583624266742846]",4.0,"[0.07964106336369751,0.1627745527768483]",4.0,"[0.09784727298853765,-0.001117153154878048]",100.0,"[-0.05759729854804783,-0.13818050486530986]",4.0,"[-0.07702169179933835,0.1025792147797862]",4.0,"[-0.1231834824573928,-0.12223642569803626]",4.0,"[-0.12076902709942892,0.037828497734280285]",4.0,"[0.08042113662996166,-0.11564207098748262]",4.0,"[0.13640395086924306,-0.05081092875714276]",4.0,"[0.19278593279455175,-0.008013175155355805]",4.0,"[0.13281195421479774,-0.13247065449437168]",4.0,"[0.08457385200290282,-0.1621698898312386]",4.0,"[0.033396315175282576,0.021836032554050706]",4.0,"[-0.009272365060706765,-0.18057230854485928]",4.0,"[-0.0677928987112649,0.05273016913694637]",4.0,"[-0.09264294862845014,0.1455748123297745]",4.0,"[0.03995749641993282,-0.14235156250406772]",4.0,"[-0.08879801479747335,-0.04353437250029229]",4.0,"[-0.04196904901765985,-0.017001675850488545]",4.0,"[0.14220303283288838,0.05023629426559613]",4.0,"[-0.11258577077278022,-0.08300009139911264]",4.0,"[0.1897246641606162,0.0578610275431742]",4.0,"[0.055811786282800056,0.07366709828181742]",4.0,"[0.141454990746384,-0.0007585916991570173]",4.0,"[0.02,0.02]",127.3338,0.0,23.0,23.0,202.0,1.0,,,,,,,
,,,,,,,5b082f3d61cde20001b6706e,6842bbf8a968b26eff846670,2025-06-06_10h59.31.660,shape_ratio,2024.1.5,Win32,60.24096386,6842b561977af9ba9b0f87ca,,,,,,,,,,,127.3345,127.834,,,128.0845,128.3675,right,,,,,,,,0.1,0.2679,,,,,,,127.834,128.0845,128.3676,"[0.10616748192235816,0.09314056385927992]",4.0,"[0.04623080578677991,0.10639070397279114]",4.0,"[-0.07808319067726616,-0.06955966966249107]",100.0,"[-0.14300516490117726,0.09415294458464422]",4.0,"[0.004901631297282244,0.14338250161448804]",4.0,"[0.1222697344021172,0.014808873791707672]",100.0,"[0.16284746756817814,-0.02012168678914513]",4.0,"[-0.007863887540898397,-0.0240319097374991]",4.0,"[0.02724685165241493,-0.11103818975320265]",4.0,"[-0.0539919763465935,-0.1282265995149042]",4.0,"[0.07343700175027908,-0.07109287315956458]",4.0,"[0.19751470929169915,0.009002571521203177]",4.0,"[0.1532301342769216,0.06336388482607008]",4.0,"[0.08457587768524095,-0.17315867220804299]",4.0,"[-0.07275485428191154,-0.18131198303389232]",4.0,"[-0.14000702654766298,-0.0593981210683276]",4.0,"[-0.14000690539710486,-0.12347787972715965]",4.0,"[0.07926450172114202,0.18300068283741946]",4.0,"[-0.1598923705286622,0.01361940334982573]",4.0,"[-0.09110601314373103,-0.007168152060285755]",4.0,"[0.005510170719453308,0.027076528389081436]",4.0,"[0.028982325574208476,-0.05030287608413752]",4.0,"[-0.08255648385452022,0.13551482740967993]",4.0,"[0.07605154276739466,-0.13250809874819852]",4.0,"[-0.02778272335877316,0.07294563853460272]",4.0,"[0.12420545777474387,-0.1160573211286497]",4.0,"[-0.06895247395584872,0.06053623393341005]",4.0,"[-0.12842170824498195,0.049715758439527385]",4.0,"[-0.1960339472559818,-0.011530187000145216]",4.0,"[0.01849716717679,0.18957993263358516]",4.0,"[0.10072785529550929,-0.032283626935373004]",4.0,"[-0.02287543280618898,-0.18330339249827976]",100.0,"[0.02,0.02]",129.4673,0.0,24.0,24.0,207.0,1.0,,,,,,,
,,,,,,,5b082f3d61cde20001b6706e,6842bbf8a968b26eff846670,2025-06-06_10h59.31.660,shape_ratio,2024.1.5,Win32,60.24096386,6842b561977af9ba9b0f87ca,,,,,,,,,,,129.4679,129.9672,,,130.218,130.6346,right,,,,,,,,0.5,0.4011,,,,,,,129.9672,130.218,130.6346,"[0.04025936488818723,0.16255375118001783]",100.0,"[0.06861319753733128,0.09600741222549676]",100.0,"[0.03990089551534598,-0.18498261655484613]",100.0,"[-0.05234316907228463,0.018879380130441735]",4.0,"[0.13385670630788105,-0.0014974551165446853]",100.0,"[-0.016758148842331295,-0.048169985029390384]",4.0,"[-0.12037229252334057,-0.030766833198689107]",4.0,"[0.17546367774307417,0.03004774175517041]",4.0,"[-0.04607101158357577,0.13602062284478425]",4.0,"[-0.0032493351994082494,-0.10623146905517218]",100.0,"[-0.04192727096400227,-0.12932486297276893]",4.0,"[-0.05570341951790966,-0.06165379695421623]",4.0,"[0.10206750393328615,0.0602241826209736]",100.0,"[-0.1980729533052084,0.016218393340976085]",100.0,"[0.008251581920233127,0.12304766444153792]",100.0,"[0.08863139052629372,-0.16766486166556827]",4.0,"[0.1436114581361587,-0.08818316402107751]",100.0,"[-0.08154496581062844,0.10578069549879772]",4.0,"[-0.02267143962695635,0.053935172441906494]",4.0,"[-0.0953340982636391,-0.15114627878701353]",100.0,"[0.008351087305649107,0.003909131047799172]",100.0,"[0.12347848698575614,0.14322114428751775]",4.0,"[0.022245312172119305,0.054979608971349174]",4.0,"[0.10204355182352778,-0.08850225382927038]",4.0,"[0.09158379669795107,-0.02326558328206751]",100.0,"[-0.13827621332058174,0.09602865317450544]",4.0,"[0.05630720662560723,0.011859299548917162]",4.0,"[-0.15140671133926464,0.022918084484530758]",100.0,"[-0.0385673600761752,0.1875159444949706]",100.0,"[0.03896986903797137,-0.09109339764364976]",4.0,"[0.15695273132552,0.10107453047976614]",100.0,"[-0.10343539801397955,0.04131046884507568]",100.0,"[0.02,0.02]",131.7341,0.0,25.0,25.0,92.0,1.0,,,,,,,
,,,,,,,5b082f3d61cde20001b6706e,6842bbf8a968b26eff846670,2025-06-06_10h59.31.660,shape_ratio,2024.1.5,Win32,60.24096386,6842b561977af9ba9b0f87ca,,,,,,,,,,,131.7348,132.2344,,,132.4769,132.8423,right,,,,,,,,0.9,0.3505,,,,,,,132.2344,132.4768,132.8424,"[0.11556351922729988,-0.03626110503801654]",100.0,"[0.0290581733295637,0.1752353810320538]",100.0,"[-0.06417531455385303,0.11368839412942379]",4.0,"[0.08615064489510918,0.011475283654877]",100.0,"[-0.12539429517013623,0.07124171230455889]",100.0,"[0.016387669654887027,0.09658552682833932]",100.0,"[-0.141578497797333,-0.022481126047778903]",100.0,"[-0.12427995682889452,0.12387009204417125]",100.0,"[0.005267483446554103,-0.1451946033749754]",100.0,"[-0.029086881929873173,-0.17903553027077804]",100.0,"[0.11395799114650007,-0.15771611580314693]",100.0,"[0.15250152251827354,-0.09346040882486609]",100.0,"[0.14731371243003832,0.09998054800348]",100.0,"[0.10379058137429865,0.08968797178066452]",100.0,"[-0.10101414358648854,-0.08617497819311762]",100.0,"[-0.17128880486644493,0.04231549350947842]",100.0,"[0.01633840451122601,0.008198960028133381]",100.0,"[-0.015789784274719377,0.05522374150825205]",100.0,"[0.03488612532200283,-0.0883344710445031]",100.0,"[-0.07733564312340101,-0.1674681102032018]",100.0,"[-0.08743288564389305,0.029591427869054804]",100.0,"[0.044459884669591554,-0.17973806028072362]",100.0,"[0.06761239190152647,-0.04225383538378434]",100.0,"[-0.015949249721165626,-0.047665092636671486]",100.0,"[0.17869264322730605,-0.04143175399480711]",4.0,"[-0.19131491068215453,-0.023911578657231404]",100.0,"[-0.06338688405934495,-0.10420177443282033]",100.0,"[-0.1661460144161506,-0.06470315552588092]",100.0,"[0.07786437069131998,0.15434207588967344]",100.0,"[0.14028578014254547,0.0404837194991372]",100.0,"[-0.13339405246350747,-0.12541890865191338]",4.0,"[0.14302145260104362,-0.00020326200851625967]",100.0,"[0.02,0.02]",133.9342,0.0,26.0,26.0,19.0,1.0,,,,,,,
,,,,,,,5b082f3d61cde20001b6706e,6842bbf8a968b26eff846670,2025-06-06_10h59.31.660,shape_ratio,2024.1.5,Win32,60.24096386,6842b561977af9ba9b0f87ca,,,,,,,,,,,133.9354,134.4342,,,134.6848,134.8675,left,,,,,,,,0.4,0.1731,,,,,,,134.4344,134.6848,134.8675,"[-0.05680261786825539,0.15913133932428164]",100.0,"[0.11799599258373467,0.08941877226916108]",100.0,"[0.007558501856969164,-0.040794627905899855]",4.0,"[-0.0568325540993773,0.014846722224382285]",100.0,"[0.1907910000622132,0.045152550225350564]",4.0,"[-0.1009693627964377,-0.07048297255139503]",4.0,"[-0.15316094067365668,0.06742715797019483]",4.0,"[0.18416398963928665,-0.037791092053638266]",4.0,"[0.027408774865504307,0.1723265413850125]",4.0,"[-0.019236182859431045,-0.18621746633336747]",100.0,"[-0.07353933829897885,-0.17631473820717172]",100.0,"[0.12615274272252136,0.015411480572009712]",4.0,"[-0.14397706045510858,0.11941118860080704]",4.0,"[-0.09522862894832967,0.0808413987634119]",4.0,"[0.1241036986864176,-0.13276760202617063]",100.0,"[-0.03265883784573193,0.126359739897544]",4.0,"[-0.14326650258712517,-0.09550731773069815]",100.0,"[0.03410042742633502,0.049761690294215226]",4.0,"[-0.17103510130632318,-0.02007576382870738]",4.0,"[-0.056850522844034655,-0.08779955873546548]",100.0,"[0.023432173979672094,-0.1413133754141705]",100.0,"[0.06912070952354304,0.15525807990700555]",4.0,"[-0.015838645365689914,0.18756525478715835]",4.0,"[0.07059372607938201,0.09053187862336456]",4.0,"[-0.10752173187628347,-0.11743716451077195]",4.0,"[0.1649261846049525,0.078899652714695]",4.0,"[-0.004786343523716684,0.08451828127648951]",100.0,"[-0.09880718127097281,0.15500372382115687]",100.0,"[-0.06737788061285191,-0.03534992753113808]",100.0,"[0.15238240664937128,-0.07601856943104127]",4.0,"[0.049291843990806675,-0.1866085182322483]",100.0,"[0.09691511313032937,-0.1746195285395579]",4.0,"[0.02,0.02]",135.9677,0.0,27.0,27.0,167.0,1.0,,,,,,,
,,,,,,,5b082f3d61cde20001b6706e,6842bbf8a968b26eff846670,2025-06-06_10h59.31.660,shape_ratio,2024.1.5,Win32,60.24096386,6842b561977af9ba9b0f87ca,,,,,,,,,,,135.9683,136.4675,,,136.7098,137.0846,right,,,,,,,,0.9,0.3573,,,,,,,136.4676,136.7098,137.0848,"[0.05538027262159101,0.05665550171282321]",100.0,"[0.00617455745665931,0.12546065324859237]",100.0,"[-0.09627779544288619,-0.09676404423398564]",100.0,"[0.10636174917107505,0.10235466814342185]",100.0,"[-0.04042117685993631,0.08988527003257749]",100.0,"[-0.11395817784173395,0.03720904987403083]",100.0,"[0.005588718265952539,0.04941830948697551]",100.0,"[0.07189701638669686,-0.10573381901311278]",100.0,"[-0.02017116246740729,-0.028902428959603817]",100.0,"[-0.11568278673740645,0.11525028189800902]",100.0,"[-0.1063549279973295,-0.02053652379563606]",100.0,"[-0.16491159504507846,-0.05163110264176301]",100.0,"[0.04332807142387879,-0.193605603526825]",100.0,"[-0.1465985781497051,-0.11840204029304484]",100.0,"[0.18429342827030762,0.004495041902762746]",100.0,"[0.02289995337232789,-0.047175877709761865]",100.0,"[-0.07905291742473267,0.1686711098302596]",100.0,"[0.12693859964231224,0.06729526851902484]",100.0,"[0.07692627074360436,0.13975009986904527]",4.0,"[0.10807246086531572,-0.05445896276729584]",100.0,"[0.07680707633525152,-0.1660670564165836]",100.0,"[0.16064944181543436,-0.06155486923053788]",100.0,"[0.0423022717467545,0.17570116717982395]",100.0,"[-0.16858128418058627,0.0975967502138201]",100.0,"[-0.17991347996514045,0.015135028377535853]",100.0,"[-0.09518910085199447,-0.14445930258248424]",4.0,"[0.10191362379257927,0.17152902449957647]",100.0,"[0.11999231112291368,-0.004521743816712854]",100.0,"[-0.02731693865220771,-0.18109215993377967]",100.0,"[0.14568135457276332,0.126783617260689]",100.0,"[-0.034185417318163186,0.030346567346198446]",4.0,"[-0.008222919489763647,0.18006229666766976]",100.0,"[0.02,0.02]",138.1843,0.0,28.0,28.0,20.0,1.0,,,,,,,
,,,,,,,5b082f3d61cde20001b6706e,6842bbf8a968b26eff846670,2025-06-06_10h59.31.660,shape_ratio,2024.1.5,Win32,60.24096386,6842b561977af9ba9b0f87ca,,,,,,,,,,,138.1855,138.6844,,,138.9253,139.1013,left,,,,,,,,0.6,0.1566,,,,,,,138.6844,138.9252,139.1016,"[0.1406652747544998,0.0948148608495735]",4.0,"[-0.05132900196517926,0.05552004386728192]",100.0,"[-0.04750605554922226,0.17996486428710995]",100.0,"[0.10831015350414815,-0.0023397898334873843]",100.0,"[-0.09721599231878596,-0.04848641685246729]",100.0,"[0.002421928109105773,0.08710917736791729]",4.0,"[-0.024227923178101102,-0.1656682737351524]",100.0,"[-0.013436452829247424,0.14717682837907922]",100.0,"[-0.05612569514578043,-0.1339140110312619]",100.0,"[-0.006818808476025429,-0.06120798257346055]",4.0,"[0.05861049570546975,0.008047937755335563]",100.0,"[0.013593882708476487,-0.100774407257075]",100.0,"[-0.10605733613002331,-0.13450168435368043]",4.0,"[-0.15516249548854308,-0.12382798175381264]",100.0,"[0.12931846047790235,-0.06243619304852397]",4.0,"[0.018990654445849117,0.020262517352054615]",100.0,"[-0.08340270919251033,0.0031381327601938693]",100.0,"[0.06616640569586021,0.0679665292408879]",4.0,"[0.15980018746921568,0.04904839818015558]",4.0,"[-0.18250131596518743,0.05423983801082261]",4.0,"[0.10092415540812279,-0.15686797367512445]",100.0,"[0.09510780674380898,-0.09545344270892146]",4.0,"[0.02910430278988803,-0.14933747846165296]",100.0,"[0.07173210790115289,0.13334582817400453]",4.0,"[-0.16009968415466064,-0.03576760572669408]",100.0,"[-0.08319211504143706,0.10551048391543026]",4.0,"[0.0975320203334517,0.09732947103628271]",4.0,"[0.04068415238519383,0.1042003298436234]",100.0,"[0.05728135748811349,0.17222923234889326]",100.0,"[0.12281382214885157,0.13890105074675962]",100.0,"[-0.04256262412680253,0.007973195031217064]",100.0,"[0.18673814305964828,0.0023404750795097792]",4.0,"[0.02,0.02]",140.201,0.0,29.0,29.0,40.0,1.0,,,,,,,
,,,,,,,5b082f3d61cde20001b6706e,6842bbf8a968b26eff846670,2025-06-06_10h59.31.660,shape_ratio,2024.1.5,Win32,60.24096386,6842b561977af9ba9b0f87ca,,,,,,,,,,,140.202,140.701,,,140.9594,141.2347,left,,,,,,,,0.1,0.2614,,,,,,,140.7013,140.9593,141.2348,"[0.006317369352193603,0.06435748921991201]",4.0,"[0.017049623399383054,0.008871978472637876]",4.0,"[0.004279974727286158,0.19229885918657524]",4.0,"[0.07198279661649239,0.018390619912621847]",4.0,"[0.054181936242431845,-0.09176563005001143]",4.0,"[-0.1688333681859372,-0.07817311409151756]",4.0,"[0.14990098244215053,-0.04673596354398125]",4.0,"[-0.0036125670114950685,-0.048029973736046644]",4.0,"[0.1766106493629212,0.012229812757903443]",4.0,"[-0.020454131568774014,-0.17863900367497776]",4.0,"[0.10358079489558587,-0.11787209153282938]",4.0,"[-0.1412353416581458,0.14044410431181356]",100.0,"[-0.1508631292044902,-0.11433215398893208]",4.0,"[-0.06725369241821387,0.13217541109811773]",4.0,"[0.06229441079300359,0.11152274924539703]",4.0,"[0.11878386433650992,0.14673887555937676]",4.0,"[-0.11251289535596898,-0.12828089907043208]",4.0,"[0.04260354592446921,-0.041282378691688194]",4.0,"[-0.05758898521299957,0.04316540656822496]",4.0,"[0.16027786050884213,0.09034232178612474]",4.0,"[0.04508980616939507,0.1587765453267498]",4.0,"[-0.15995782229606725,-0.011427322223711255]",100.0,"[0.09404572645302685,0.06320229497497992]",4.0,"[-0.19607593273383062,-0.030365367024057267]",4.0,"[-0.024023926817197217,0.11366224473579874]",4.0,"[0.01967569027203968,0.12531820572423485]",4.0,"[-0.06729197690253022,-0.015169527176411752]",4.0,"[-0.09932098497519064,0.012088507464336694]",100.0,"[0.0114644776314634,-0.09604645161506148]",4.0,"[-0.05749735687855052,-0.07205032694387037]",4.0,"[-0.09733663068822666,-0.16827508143845832]",4.0,"[0.11942416240809349,0.09553124601223448]",4.0,"[0.02,0.02]",142.3341,0.0,30.0,30.0,191.0,1.0,,,,,,,
,,,,,,,5b082f3d61cde20001b6706e,6842bbf8a968b26eff846670,2025-06-06_10h59.31.660,shape_ratio,2024.1.5,Win32,60.24096386,6842b561977af9ba9b0f87ca,,,,,,,,,,,142.3355,142.8339,,,143.0848,143.5011,right,,,,,,,,0.4,0.4005,,,,,,,142.8341,143.0847,143.5012,"[0.04854932265105941,0.03164922891162308]",100.0,"[0.16314257246302932,-0.019599367936449605]",4.0,"[-0.06163532822708363,0.16915923973771974]",4.0,"[-0.02103097507165879,-0.06897961475229185]",4.0,"[-0.008344480413074342,-0.01623137086259946]",100.0,"[0.044561276038531425,-0.19074918544742886]",4.0,"[0.15808412282568604,0.03645437467967974]",100.0,"[-0.0813332015828001,0.09407541152716387]",4.0,"[0.128942763167273,-0.11539634689183031]",4.0,"[-0.18633819180954228,0.04308771259222497]",100.0,"[-0.15343869097298102,-0.04635333373369575]",100.0,"[0.11689644835859189,-0.023672074272054693]",4.0,"[-0.13140120048930773,0.12973134586143106]",100.0,"[-0.1121866145498024,-0.005024207888767028]",100.0,"[0.09465089305533386,-0.08791208005852243]",100.0,"[-0.0714695678263543,0.01254447298484559]",4.0,"[-0.08526885294456542,-0.057775891749831186]",4.0,"[0.08149275400076254,0.1818180187738038]",4.0,"[-0.0368531046369964,0.08836425497251923]",4.0,"[-0.01739948861609188,-0.12155945407763548]",4.0,"[0.17839576415493966,-0.05756909845743435]",4.0,"[-0.03923688347914259,0.04296848648919852]",100.0,"[0.09893926747774535,0.10487983898110255]",100.0,"[-0.11894217994737934,-0.08146590108823494]",4.0,"[0.15606709689173934,0.08217812785074756]",4.0,"[0.010768532189059458,0.073093777439925]",100.0,"[0.10320190825578687,0.05939256135928978]",4.0,"[-0.02344742210049313,0.13140494414090373]",4.0,"[-0.0711140616890806,-0.11187061845317206]",100.0,"[-0.17971355536590455,-0.00873039254098967]",100.0,"[0.04559803446056235,-0.05057601629552314]",4.0,"[0.07963214449618003,-0.14839733192929733]",4.0,"[0.02,0.02]",144.6009,0.0,31.0,31.0,170.0,1.0,,,,,,,
,,,,,,,5b082f3d61cde20001b6706e,6842bbf8a968b26eff846670,2025-06-06_10h59.31.660,shape_ratio,2024.1.5,Win32,60.24096386,6842b561977af9ba9b0f87ca,,,,,,,,,,,144.6014,145.1007,,,145.3513,145.6677,left,,,,,,,,0.6,0.2987,,,,,,,145.1009,145.3512,145.6677,"[0.02085617320902232,0.056030560031594644]",4.0,"[0.1531020179108127,0.07241517080008941]",4.0,"[-0.1089457807420876,-0.13803793429582595]",4.0,"[0.04394432865046716,0.016894187997092653]",100.0,"[0.04132392109022164,-0.15457438985961322]",4.0,"[-0.05498325635500952,-0.07882486026691159]",100.0,"[-0.04072299893949803,0.15159367746228625]",100.0,"[0.11545942831758288,-0.14119156858749687]",100.0,"[-0.1921334683295988,-0.03889569011048682]",100.0,"[-0.014017698609922934,0.006896465498954796]",4.0,"[-0.07571372657642489,-0.17794294974978933]",100.0,"[0.06310585439992443,0.14433748657994316]",100.0,"[-0.016829408434500637,-0.13995445599707262]",100.0,"[-0.02467833427830544,-0.19782780683901532]",4.0,"[0.011804821555238699,0.15713830264082085]",100.0,"[0.12660041120080073,0.10827821164939215]",100.0,"[-0.1214728243973883,-0.02577018142525226]",4.0,"[0.028733789992628475,-0.08416395508963988]",100.0,"[-0.07851632815373445,-0.02102692123763114]",100.0,"[-0.09844246056373195,0.15607967026096087]",4.0,"[-0.15127651131070322,-0.11720514647731851]",100.0,"[0.0034399469224210525,0.1135514298124494]",4.0,"[-0.08447270995051126,0.1120838985185491]",100.0,"[0.13214437633588885,-0.045850417416635376]",100.0,"[-0.1781534041970726,0.011067936968322261]",100.0,"[-0.03381838221600441,-0.040818073433954154]",100.0,"[-0.14100133077741023,0.12671499794145089]",4.0,"[-0.13406191598610714,0.03971652520024319]",4.0,"[-0.15226189164481227,-0.07105219639904092]",100.0,"[-0.039530003522402914,0.05006525753980527]",4.0,"[0.08610330890789362,-0.04071120957647321]",4.0,"[0.03236918741131634,-0.04338117868825846]",100.0,"[0.02,0.02]",146.7673,0.0,32.0,32.0,51.0,1.0,,,,,,,
,,,,,,,5b082f3d61cde20001b6706e,6842bbf8a968b26eff846670,2025-06-06_10h59.31.660,shape_ratio,2024.1.5,Win32,60.24096386,6842b561977af9ba9b0f87ca,,,,,,,,,,,146.7679,147.2676,,,147.5061,147.8515,left,,,,,,,,0.45,0.3185,,,,,,,147.2677,147.506,147.8517,"[0.1253886306134969,0.1091313567404847]",100.0,"[0.10685380244837724,0.1457059703688125]",4.0,"[-0.09429673225257237,0.12442939895921544]",4.0,"[0.18645788558302304,0.05250727173869665]",4.0,"[-0.01648221022058755,0.0021407289164394297]",4.0,"[0.08477705707345842,-0.13514219662837407]",100.0,"[-0.09945659752839756,-0.14024237923863575]",4.0,"[0.06983612446174875,0.17630871500022827]",100.0,"[0.10216448539258777,0.0622979881537754]",4.0,"[0.16936001662443975,-0.03759462623326192]",100.0,"[0.09188758041182603,-0.09357385614346238]",4.0,"[0.01372900639048602,0.060523612660236446]",4.0,"[-0.144861639920334,0.010145246989950143]",4.0,"[-0.10990949825723849,-0.07273992676914474]",4.0,"[0.01915100397988704,0.10569763993221942]",4.0,"[-0.011771498385377917,0.17513288972426813]",100.0,"[-0.0761139748510623,0.181927931488047]",100.0,"[0.11748540310298175,-0.03995207702608537]",100.0,"[0.06662551433265952,0.022541650080069774]",4.0,"[-0.08830324304393389,0.0029212775747638406]",100.0,"[-0.01932162694217828,-0.16513490096465494]",4.0,"[0.06233294302327881,0.13244266011390013]",4.0,"[0.17725045150033883,-0.08304805294080031]",100.0,"[-0.08824327937046691,0.04552074114802086]",4.0,"[-0.1429054333435526,-0.03297083201263505]",100.0,"[0.13722611087089984,0.013189727939772617]",100.0,"[-0.03623193608793565,0.10754523684149311]",100.0,"[0.14239405943625993,-0.1181701775078597]",4.0,"[-0.04169991929361603,-0.07032899791003225]",4.0,"[0.052792605124824685,-0.07173202412652498]",100.0,"[-0.03583753799447119,0.0461683699503792]",4.0,"[-0.05013853927615977,-0.11336901268942026]",100.0,"[0.02,0.02]",148.9506,0.0,33.0,33.0,125.0,1.0,,,,,,,
,,,,,,,5b082f3d61cde20001b6706e,6842bbf8a968b26eff846670,2025-06-06_10h59.31.660,shape_ratio,2024.1.5,Win32,60.24096386,6842b561977af9ba9b0f87ca,,,,,,,,,,,148.9514,149.4508,,,149.7084,149.9262,right,,,,,,,,0.5,0.2124,,,,,,,149.4509,149.7084,149.9263,"[-0.007851479823288694,-0.05607189277414309]",100.0,"[-0.192960974670527,-0.050867593527676266]",100.0,"[0.0659337013454672,0.1225976890379646]",4.0,"[0.10019818188605188,-0.12666646862638153]",4.0,"[-0.05809082003041091,-0.008375520251736119]",4.0,"[0.024772138228394566,0.07425263675365423]",100.0,"[-0.12221133189019634,-0.022702621084709645]",100.0,"[0.06456244259873381,-0.1495093673120188]",4.0,"[0.03383621267342471,0.17788916216178347]",100.0,"[0.12923599911486577,0.052158456834659514]",100.0,"[0.17695238047324444,-0.053475911569535385]",4.0,"[0.13963146720454142,-0.08607797266269754]",100.0,"[-0.004760045257820743,0.11923570781592034]",4.0,"[-0.05388645196029053,-0.06354949102526071]",100.0,"[-0.10334384278937618,-0.14431693124698536]",100.0,"[0.04611312728847469,-0.09705079617198287]",4.0,"[0.07020981963093893,-0.03980921506236392]",4.0,"[-0.17886807172553013,-0.00401437516289118]",4.0,"[0.1585584308834196,0.09778250391318188]",100.0,"[0.058045365803592694,0.01993381968799451]",4.0,"[-0.02004847533378098,0.19049251249052498]",100.0,"[-0.1401740492572978,0.02423515442064756]",100.0,"[0.07029076621291394,0.07669120934454628]",100.0,"[0.10261708628944143,0.15926364046487235]",100.0,"[0.12326080224071664,-0.03920192108853546]",4.0,"[-0.03810742280940645,-0.18520131492554245]",4.0,"[0.17835802560877362,-0.012578772480421713]",4.0,"[-0.07825497885404466,0.028747279693935122]",4.0,"[-0.017695905873201603,0.04841383439293403]",100.0,"[-0.004383671882829975,-0.13153273768772744]",4.0,"[-0.11703684580270353,-0.08995504699455048]",100.0,"[-0.1437730874765812,0.1388531972092397]",4.0,"[0.02,0.02]",151.0175,0.0,34.0,34.0,95.0,1.0,,,,,,,
,,,,,,,5b082f3d61cde20001b6706e,6842bbf8a968b26eff846670,2025-06-06_10h59.31.660,shape_ratio,2024.1.5,Win32,60.24096386,6842b561977af9ba9b0f87ca,,,,,,,,,,,151.0185,151.5177,,,151.7592,152.1014,left,,,,,,,,0.45,0.3237,,,,,,,151.5178,151.7592,152.1015,"[-0.06064231552733345,0.0817053036640913]",100.0,"[0.006842852914833117,-0.0888279641802719]",4.0,"[-0.07222904396838845,-0.18254517836763487]",4.0,"[-0.13066656382481548,-0.03357231784455832]",4.0,"[0.17817904147184604,-0.0061709558168462735]",100.0,"[0.02830931613271509,0.052499827956112015]",4.0,"[-0.09531009608728949,0.1289564129823124]",4.0,"[0.1240929721019223,-0.13307707579774714]",4.0,"[-0.17075263890951106,0.03418341621947327]",4.0,"[-0.1256390470334522,0.08157638477210853]",4.0,"[-0.03656799849319874,-0.15214241487539293]",100.0,"[-0.0621117801818442,-0.11451971554613241]",100.0,"[0.06775939324897742,-0.0005910314918074049]",4.0,"[-0.019958128733624934,0.03350041634921536]",4.0,"[0.04424101644848775,0.17732358592737385]",100.0,"[-0.04482197799129734,-0.0712021199450614]",4.0,"[-0.14609801269657496,-0.08068067198149832]",4.0,"[0.12609442049440597,-0.048984493906626014]",4.0,"[0.18055299016626156,0.06729867077619718]",4.0,"[0.05084174676960066,-0.17628573345410778]",100.0,"[-0.11657579024011043,0.016334384045707355]",100.0,"[0.09059387779433706,0.09596364223724438]",4.0,"[0.02727596190562095,-0.014751390743172034]",4.0,"[-0.10202661116255823,-0.1353925068729115]",100.0,"[-0.0169469027522867,0.08439153458336783]",100.0,"[0.09700707368183137,-0.16556170114020918]",100.0,"[-0.09667699349331728,-0.08665027499598403]",100.0,"[-0.06916784697097433,-0.0034714873903816923]",4.0,"[0.07137281489366891,0.049193599992811386]",4.0,"[-0.18827687422717257,-0.06684751848743814]",100.0,"[0.09071211840782722,0.1435715729021641]",100.0,"[0.051125394043670384,0.08742745691826515]",100.0,"[0.02,0.02]",153.2011,0.0,35.0,35.0,137.0,1.0,,,,,,,
,,,,,,,5b082f3d61cde20001b6706e,6842bbf8a968b26eff846670,2025-06-06_10h59.31.660,shape_ratio,2024.1.5,Win32,60.24096386,6842b561977af9ba9b0f87ca,,,,,,,,,,,153.2021,153.701,,,153.9517,154.3344,left,,,,,,,,0.1,0.3553,,,,,,,153.7011,153.9517,154.3345,"[-0.06463842206987594,-0.18306585238139797]",4.0,"[-0.1658326319118268,-0.07457817077719262]",4.0,"[-0.03599849950825891,0.042457848862816325]",4.0,"[-0.09196774027779919,-0.06383732653534413]",4.0,"[0.12285512371810524,0.10193041356519598]",4.0,"[0.13811078569907842,0.04750647569998276]",4.0,"[-0.032018685310333354,-0.03190920164459357]",4.0,"[-0.1713576859828505,-0.005480013966711534]",4.0,"[-0.09666204806294663,0.1425233454301052]",4.0,"[-0.04329403697301053,0.19115759345741207]",4.0,"[0.09923522286742907,-0.05353791141389278]",4.0,"[-0.13501294077024226,0.02764264039565484]",4.0,"[0.04111776673166854,0.116171911179081]",4.0,"[-0.00864539014882482,0.16697466248998166]",4.0,"[-0.10113937941241007,-0.14921454589011454]",4.0,"[-0.1508521705791015,0.09865082948882119]",100.0,"[-0.10552662951314737,-0.015504054553240354]",4.0,"[0.026081804130416338,0.0347048096693247]",4.0,"[-0.13188689963567407,-0.10171296472088054]",100.0,"[0.16370962016155666,0.08900065349889028]",4.0,"[0.07748263119524441,-0.018514103744627138]",4.0,"[0.08198470573712541,0.14635611872220858]",4.0,"[0.07191210613019644,0.0513837241394623]",4.0,"[0.14170596620874543,-0.035450964187904874]",4.0,"[0.05057523306047129,-0.15523817780192334]",100.0,"[-0.006257471828911136,-0.11843496660152388]",4.0,"[0.11415719828377809,-0.16218746384966423]",4.0,"[0.14461510346091158,-0.07920439282463398]",4.0,"[0.026838121363894702,-0.03565142176712569]",4.0,"[-0.06918437752527784,0.06553405573617405]",4.0,"[0.08015435603739905,-0.11969442792003473]",4.0,"[0.13766824131891806,-0.12697259967451666]",4.0,"[0.02,0.02]",155.4343,0.0,36.0,36.0,196.0,1.0,,,,,,,
,,,,,,,5b082f3d61cde20001b6706e,6842bbf8a968b26eff846670,2025-06-06_10h59.31.660,shape_ratio,2024.1.5,Win32,60.24096386,6842b561977af9ba9b0f87ca,,,,,,,,,,,155.4358,155.934,,,156.1845,156.6177,left,,,,,,,,0.45,0.418,,,,,,,155.9342,156.1844,156.6178,"[-0.0088330076530438,0.11867583622400658]",100.0,"[-0.13005337156304894,-0.1250434261465106]",4.0,"[0.05644028392130268,0.0420653864099533]",4.0,"[-0.13985647241849328,-0.07493907932170993]",100.0,"[0.12561570221626986,0.13389115018211276]",100.0,"[0.19415335127149264,-0.03114344098640259]",4.0,"[0.02850416311241866,0.15864079299990846]",100.0,"[0.040924552932991576,-0.104838522488109]",100.0,"[0.08357917893065013,-0.03889701887702107]",4.0,"[-0.18091453854440984,-0.042327692510190335]",4.0,"[-0.07747546195621363,-0.17352535024829915]",4.0,"[-0.04047942562003923,-0.028524262694574677]",100.0,"[0.10846480761892754,0.052873348488335935]",100.0,"[-0.0312818199606019,0.1859634559776487]",4.0,"[-0.16882637564541264,0.0531739591956187]",4.0,"[-0.022791216534215623,0.08001788385813706]",100.0,"[-0.15084628823317586,0.008618933598468957]",100.0,"[0.1495681577062049,-0.08305523088933403]",4.0,"[0.08617067572928268,-0.1229867613246966]",4.0,"[-0.08362236883061097,0.09669390159919279]",100.0,"[0.01573472603883797,-0.019134383784425193]",100.0,"[-0.1254400476906155,0.08702319857007444]",4.0,"[0.1552717353971553,0.039262872852801105]",4.0,"[-0.08578302703920593,-0.11412451281330885]",4.0,"[-0.10502831857513789,0.16198124619651363]",4.0,"[-0.09790145696166055,-0.002121897134951914]",100.0,"[-0.0885295097694436,0.047259241879243276]",4.0,"[-0.05840782380371097,0.12775808493621313]",100.0,"[0.026392699826170533,-0.1888834677238844]",100.0,"[-0.02450087429612134,-0.19505267698537107]",4.0,"[-0.15304010909547391,0.12021132101816626]",4.0,"[0.05758147073180179,0.10556228825771626]",4.0,"[0.02,0.02]",157.718,0.0,37.0,37.0,147.0,1.0,,,,,,,
,,,,,,,5b082f3d61cde20001b6706e,6842bbf8a968b26eff846670,2025-06-06_10h59.31.660,shape_ratio,2024.1.5,Win32,60.24096386,6842b561977af9ba9b0f87ca,,,,,,,,,,,157.7187,158.2175,,,158.4684,158.7673,right,,,,,,,,0.5,0.2853,,,,,,,158.2175,158.4682,158.7674,"[0.05216643653065071,0.17793569965340925]",4.0,"[-0.11635186704876602,-0.05831644610668868]",100.0,"[0.1544780209422742,0.0018156343221376813]",4.0,"[0.03804932601459353,0.09265523444419262]",100.0,"[0.10719912665473251,0.07365511383302759]",100.0,"[-0.17179456437157184,-0.024266833421575595]",4.0,"[-0.03753973507004675,0.09308320282368028]",4.0,"[0.16482397936422152,-0.09558551083462485]",4.0,"[0.07910638192411591,-0.09461841697238764]",100.0,"[-0.03805287173233511,-0.1959736701980412]",4.0,"[-0.17006318669089043,0.026215878882410417]",4.0,"[-0.05473820772660062,0.17966431399385321]",4.0,"[0.003792462255180139,-0.10615929743883827]",4.0,"[-0.07236643664629092,-0.07976599895172819]",4.0,"[-0.10004265027694129,0.07206466454031825]",4.0,"[0.08977423265239177,0.03671809138244116]",100.0,"[-0.0533858143730239,0.004558223871019353]",4.0,"[-0.0413138440560159,-0.10566709197127028]",100.0,"[0.04187620857260557,0.042959585571803405]",100.0,"[0.06704991708315644,-0.16459789891050114]",4.0,"[0.07971238377733668,-0.011662737242382499]",100.0,"[-0.006324280642262009,0.0009633711405711968]",100.0,"[-0.01343904950210097,0.17862500672358664]",100.0,"[0.10545115996966124,-0.1298499742089599]",4.0,"[-0.0899663616434302,-0.02719921709967404]",4.0,"[0.12550869245899965,-0.04447849393024535]",4.0,"[0.10251183951913596,0.14408616875866445]",100.0,"[-0.14995385984517928,-0.10461608971355776]",100.0,"[-0.02560633360625143,-0.15401311104325657]",100.0,"[-0.021610814004781157,-0.048362307676584136]",100.0,"[-0.14229605479575838,0.09424274863652156]",100.0,"[0.037070766622931905,-0.13683482850508355]",100.0,"[0.02,0.02]",159.8678,0.0,38.0,38.0,106.0,1.0,,,,,,,
,,,,,,,5b082f3d61cde20001b6706e,6842bbf8a968b26eff846670,2025-06-06_10h59.31.660,shape_ratio,2024.1.5,Win32,60.24096386,6842b561977af9ba9b0f87ca,,,,,,,,,,,159.8684,160.3677,,,160.618,160.8845,right,,,,,,,,0.6,0.2559,,,,,,,160.3677,160.618,160.8846,"[-0.09931694499936386,0.03675668948364882]",100.0,"[-0.036078324999113995,-0.08549519963098366]",100.0,"[-0.14120477594924422,0.10614970019080036]",4.0,"[-0.06385446126604773,-0.12603152455633504]",4.0,"[0.16252245189020156,0.10801151556315104]",4.0,"[0.007657689331070413,0.12571549234972687]",100.0,"[-0.012014686376934576,0.06868894900107252]",100.0,"[0.17679959389908323,-0.01807823097553003]",4.0,"[-0.046915221468013954,0.11495329530473893]",100.0,"[0.12634180429927255,-0.1414021468592159]",100.0,"[-0.11472416085520824,-0.032791475029408754]",4.0,"[-0.1637309442343888,-0.0017084489708458857]",100.0,"[0.04704055350058528,-0.12762526218235248]",100.0,"[-0.017513838995698222,-0.1744799186687336]",100.0,"[0.07554050541381292,0.1591433712273046]",100.0,"[0.09304860260310358,-0.004249875973428706]",100.0,"[-0.10496013595063679,0.16061789383052538]",100.0,"[-0.17947558234651886,-0.08183743846514208]",4.0,"[-0.057832680015830355,0.06523305669847283]",100.0,"[0.014722600132906927,-0.096382802381238]",4.0,"[0.07961039983913297,0.08825896944680502]",4.0,"[0.0940268039904639,-0.0703613645969039]",4.0,"[0.13246083381447735,-0.09373056649990284]",4.0,"[-0.01590199407345267,0.16744780315701557]",4.0,"[-0.1394375414097969,-0.07917979628205914]",100.0,"[0.031146496913914884,0.008834915759921286]",100.0,"[0.05176941458838829,-0.0423628474483018]",100.0,"[0.09511180343368887,0.04324323754370208]",100.0,"[-0.03228711390770093,-0.0033603472733340313]",4.0,"[0.1662825793542295,-0.05792665329029338]",4.0,"[0.08455881948168993,-0.14780262298656258]",100.0,"[0.16884726019151963,0.05947828450502962]",100.0,"[0.02,0.02]",161.9843,0.0,39.0,39.0,30.0,1.0,,,,,,,
,,,,,,,5b082f3d61cde20001b6706e,6842bbf8a968b26eff846670,2025-06-06_10h59.31.660,shape_ratio,2024.1.5,Win32,60.24096386,6842b561977af9ba9b0f87ca,,,,,,,,,,,161.9849,162.4845,,,162.7349,163.1011,right,,,,,,,,0.4,0.3555,,,,,,,162.4845,162.7349,163.1011,"[-0.027331206596804956,0.03988350596967854]",100.0,"[-0.05674517748172311,-0.02218077761966199]",100.0,"[0.06040482819356607,0.06601359335592516]",4.0,"[0.12402636627262326,-0.08371420086608297]",4.0,"[-0.110030729729232,-0.11166034700800913]",4.0,"[0.076027901332311,-0.07525825201773532]",4.0,"[-0.15974872607525528,-0.008288533210807433]",100.0,"[-0.15184459551803944,0.07821095518293107]",4.0,"[0.028714165437575944,-0.1644760498105163]",4.0,"[-0.10851010901881092,-0.15644925629557468]",4.0,"[-0.12212148438237343,-0.045189529983021746]",4.0,"[-0.08896679914818474,0.14137595423868107]",100.0,"[0.020048434091003823,0.011269259618952919]",4.0,"[-0.014117638396930084,0.1747892128852795]",4.0,"[-0.06283828060817512,-0.08906054507215878]",4.0,"[-0.06922853836512706,-0.18548642085064418]",4.0,"[-0.10194961281638637,0.003548848974424748]",4.0,"[0.09493529881106201,-0.17432912490382096]",4.0,"[0.054907125969670914,0.18055557853035337]",100.0,"[-0.03251803564720493,0.11720682532258614]",4.0,"[-0.10102171341863095,0.07364095313635499]",4.0,"[-0.18771988911973866,0.024238527034962026]",100.0,"[0.16126004248130277,0.0990010390402756]",100.0,"[-0.04773027010657956,-0.14384013879875762]",100.0,"[0.020303578212266728,-0.06977670616801773]",4.0,"[-0.02421179875910863,-0.05360627723306662]",4.0,"[-0.1808457244523494,-0.07796938695098611]",100.0,"[0.029697157630415513,0.1039989340105112]",100.0,"[0.1429215645850185,-0.005171996799986163]",100.0,"[0.16411827124799339,-0.1083163712532722]",4.0,"[0.11511142363677708,0.1477810676276615]",100.0,"[-0.008151125800480215,0.08361820749538904]",100.0,"[0.02,0.02]",164.2009,0.0,40.0,40.0,166.0,1.0,,,,,,,
,,,,,,,5b082f3d61cde20001b6706e,6842bbf8a968b26eff846670,2025-06-06_10h59.31.660,shape_ratio,2024.1.5,Win32,60.24096386,6842b561977af9ba9b0f87ca,,,,,,,,,,,164.2016,164.701,,,164.9513,165.2175,right,,,,,,,,0.9,0.2497,,,,,,,164.7011,164.9513,165.2176,"[-0.06053448042319289,-0.16206367613420078]",100.0,"[-0.04423904075172138,0.08215137605499784]",100.0,"[-0.11342094406620915,-0.03562852578794352]",100.0,"[0.025064737210164077,0.19355275912578607]",100.0,"[0.11597493224285771,-0.11530168364068628]",100.0,"[0.06119212458601785,0.13519122998008715]",100.0,"[-0.0033986302844957457,-0.04080812147838566]",100.0,"[0.12814944283401483,0.04953425626408115]",100.0,"[-0.034752974780810804,-0.19604119399577585]",100.0,"[-0.1779043176003047,-0.04920692039878731]",100.0,"[0.022759573366031974,-0.1374536797461159]",100.0,"[-0.13781833920781275,-0.14284281981365768]",4.0,"[0.09889856653028474,0.10353007786632692]",100.0,"[-0.13397317407593162,-0.07604195141634366]",100.0,"[0.06318259409890856,-0.04526046571233131]",100.0,"[0.19069848191248742,0.0009044062905473814]",100.0,"[-0.09616262694087273,-0.14072960946256388]",100.0,"[0.09204861843519849,-0.15831140468905558]",100.0,"[-0.12303451825640763,0.03501976542170063]",100.0,"[0.03024544065911189,0.09334041522391227]",4.0,"[-0.19286024624434872,0.05232864559804567]",100.0,"[0.043582944161816774,-0.00948825528470244]",100.0,"[-0.1229221584878401,0.07519529849993332]",100.0,"[0.05182282854500274,0.03355558726988792]",100.0,"[0.17154342357618155,0.0974731710814526]",100.0,"[-0.03236897866759061,0.14593351838241528]",100.0,"[-0.0758961838464101,-0.059194473042361216]",100.0,"[0.15954074547208327,-0.0702638275354107]",100.0,"[0.015272705535689901,-0.1965558771847205]",100.0,"[-0.09612092461616291,0.12421863808980994]",4.0,"[0.11523048724998121,-0.011974351757229228]",100.0,"[-0.03873724013523829,-0.006375958369569508]",100.0,"[0.02,0.02]",166.3173,0.0,41.0,41.0,2.0,1.0,,,,,,,
,,,,,,,5b082f3d61cde20001b6706e,6842bbf8a968b26eff846670,2025-06-06_10h59.31.660,shape_ratio,2024.1.5,Win32,60.24096386,6842b561977af9ba9b0f87ca,,,,,,,,,,,166.318,166.8173,,,167.0678,167.4011,left,,,,,,,,0.6,0.3143,,,,,,,166.8174,167.0678,167.4012,"[-0.17168092498334747,-0.05280838135292617]",100.0,"[0.066099445804162,-0.023964014275209142]",100.0,"[0.1424311103497987,0.025199437840542994]",4.0,"[0.12718000773951618,-0.0320113015035582]",4.0,"[-0.14229298978741017,0.08447355088175233]",100.0,"[-0.11493554018529817,-0.07164282763466316]",4.0,"[-0.07350838663263316,-0.12652943344867398]",4.0,"[0.04099585734218727,0.02765521227664382]",100.0,"[0.17662800537081266,0.06052544348997038]",4.0,"[0.163394035285509,-0.07075302519396025]",100.0,"[-0.08189282428875064,0.11946663405214969]",100.0,"[0.015830714556634196,0.1924881995688941]",100.0,"[0.08993125387888205,-0.06146689370582261]",100.0,"[0.005605278707443695,0.04999414499297443]",100.0,"[0.08287636807047766,0.11100979589321343]",100.0,"[-0.1336640947793843,0.03709292557354192]",4.0,"[0.08632829504693516,-0.12021519104445944]",100.0,"[-0.0426482313594879,-0.17503711545649475]",100.0,"[-0.12601204055013698,-0.11764230416103211]",4.0,"[0.041810613599669165,0.1559937112471442]",4.0,"[-0.04406669375292448,0.05831032459427268]",4.0,"[-0.06160785929017684,-0.0849484562404817]",100.0,"[0.02306715812151616,-0.17671552050803657]",100.0,"[-0.010824409636223734,0.001213336869335858]",4.0,"[0.19552567465467902,-0.0026405258641217727]",100.0,"[0.0232809143471884,-0.12752720138190418]",100.0,"[0.03577217998929476,0.08169452630858047]",100.0,"[0.113289849797821,0.057938557432747645]",4.0,"[0.034364643421546166,-0.07826849863757958]",4.0,"[0.10938637388910044,-0.15856933068784898]",100.0,"[0.08562717752561157,0.16849873401194693]",4.0,"[-0.1859395116920847,0.012405694350749143]",100.0,"[0.02,0.02]",168.5007,0.0,42.0,42.0,54.0,1.0,,,,,,,
,,,,,,,5b082f3d61cde20001b6706e,6842bbf8a968b26eff846670,2025-06-06_10h59.31.660,shape_ratio,2024.1.5,Win32,60.24096386,6842b561977af9ba9b0f87ca,,,,,,,,,,,168.5014,169.0012,,,169.2415,169.602,right,,,,,,,,0.5,0.3347,,,,,,,169.0012,169.2415,169.6021,"[-0.09704142916137369,-0.08891410124496264]",4.0,"[0.1064472410168537,-0.12579787741360565]",100.0,"[-0.009610136554187838,0.15590909371326414]",100.0,"[-0.04881491373065478,-0.022878186264494945]",100.0,"[0.12167605125593439,0.07866102117837168]",100.0,"[0.048951246564298924,0.04473417619116328]",100.0,"[-0.13616814506260944,0.09273571305407503]",4.0,"[-0.04872301584308172,0.01872037147905339]",4.0,"[0.026845400755422424,0.11610366333629493]",4.0,"[-0.1688921875476574,-0.08404525879892023]",100.0,"[-0.072295865564573,0.07818968358710342]",4.0,"[0.03176999700926819,-0.087947185517263]",4.0,"[0.08270940015353083,-0.04520775143791216]",4.0,"[0.16267389453939438,-0.062065144614717696]",100.0,"[0.08968179695212118,0.03022720838754054]",100.0,"[-0.10194162858010403,0.15410107973584772]",4.0,"[0.11347282101765982,-0.07564357481570205]",4.0,"[-0.0066727110198718485,-0.1826624289612687]",100.0,"[0.19246135261263128,-0.012210484316308282]",100.0,"[-0.08694073862201476,-0.17838714394832023]",100.0,"[0.03436369077405055,-0.009515191988335872]",4.0,"[-0.1399634212256168,-0.029394629188122936]",4.0,"[-0.14645642574906553,-0.1260045229402918]",100.0,"[0.08490408523978836,-0.16715699158388397]",100.0,"[-0.048833509615296186,0.17878018746012533]",4.0,"[-0.12018964370431344,0.05115096689519102]",4.0,"[0.12121649586418141,0.12570525401427288]",4.0,"[-0.01480896699375681,0.1149455034160914]",100.0,"[0.04497767819284138,-0.13161250133321853]",4.0,"[0.14546657887628403,0.01240145343149192]",100.0,"[-0.052061845180426725,-0.10809253423074285]",4.0,"[-0.1658660602413276,0.06420144238103276]",100.0,"[0.02,0.02]",170.7009,0.0,43.0,43.0,96.0,1.0,,,,,,,
,,,,,,,5b082f3d61cde20001b6706e,6842bbf8a968b26eff846670,2025-06-06_10h59.31.660,shape_ratio,2024.1.5,Win32,60.24096386,6842b561977af9ba9b0f87ca,,,,,,,,,,,170.702,171.2016,,,171.4434,171.7681,right,,,,,,,,0.9,0.3012,,,,,,,171.2017,171.4433,171.7687,"[0.12822005188833838,-0.11681505893576402]",100.0,"[0.011280866301208135,-0.1664142108928024]",100.0,"[0.07368328152010294,0.11625505554414757]",100.0,"[-0.05800802425316933,0.029506342678776876]",100.0,"[-0.012929598413711494,-0.11572638715370176]",100.0,"[-0.032795370271688,0.07246131456444203]",100.0,"[-0.12409050010183029,0.05780625476012405]",100.0,"[0.0294621838552683,-0.017804622597029633]",100.0,"[0.025779869508010922,0.1337389440925456]",100.0,"[0.02820460944361762,-0.08489238351687355]",4.0,"[-0.0562763001474478,-0.183177660758292]",100.0,"[0.10374203402575678,-0.06632956492219434]",100.0,"[0.15990932744396152,-0.008956865225824283]",100.0,"[-0.01738182675537844,0.02627011000609783]",100.0,"[-0.01836464908836604,0.16665506543298447]",100.0,"[-0.0768451221232806,-0.03532004303560194]",100.0,"[-0.16747254171913944,0.09038417492278737]",100.0,"[-0.09462948200498439,-0.11249393851939751]",4.0,"[0.023435873797983064,0.08158845148714405]",100.0,"[-0.032477286419522904,-0.039350779551129644]",100.0,"[0.18715556890294802,0.035022442079392806]",100.0,"[-0.07245338646370164,0.0931199234852837]",100.0,"[0.12730025896391045,0.07638394171276622]",100.0,"[-0.05584274194966008,-0.12318974162543384]",100.0,"[0.0679258243556739,-0.1561979081976996]",100.0,"[-0.09036772648190475,0.1377765143296835]",100.0,"[0.1616622215698756,-0.05754543813635172]",100.0,"[0.06224787004950024,-0.046615899750606066]",100.0,"[0.0781741909162056,-0.09846843614425987]",100.0,"[-0.18322284260325705,-0.019264259639540378]",100.0,"[0.16975266722906676,0.07774926042083224]",100.0,"[-0.12086078781972226,-0.15193752976802558]",4.0,"[0.02,0.02]",172.8677,0.0,44.0,44.0,3.0,1.0,,,,,,,
,,,,,,,5b082f3d61cde20001b6706e,6842bbf8a968b26eff846670,2025-06-06_10h59.31.660,shape_ratio,2024.1.5,Win32,60.24096386,6842b561977af9ba9b0f87ca,,,,,,,,,,,172.8686,173.3676,,,173.6088,174.068,left,,,,,,,,0.4,0.4349,,,,,,,173.3682,173.6088,174.0684,"[0.002936208532258903,-0.11243746225828359]",4.0,"[0.13988643131979178,0.0980165795321236]",4.0,"[0.08623127679409817,-0.15230858303149408]",4.0,"[-0.122865596335628,-0.14637500476883908]",100.0,"[0.04695836543248531,0.18264356027964165]",4.0,"[-0.18849267090623098,0.018329057417982277]",4.0,"[0.02687357742011072,0.13681145764120353]",100.0,"[0.08045335162080715,0.09184598221698013]",100.0,"[-0.0607598817685824,0.14762947615705252]",4.0,"[0.02176107712967055,-0.14843576552164273]",4.0,"[0.05087154403388198,-0.10721504754020789]",100.0,"[-0.03386771874383554,0.09375318638684885]",100.0,"[0.05489948444409736,0.001772309395467792]",100.0,"[-0.09399223542741793,-0.07625758654648405]",4.0,"[0.1368283669919024,0.005205619510802017]",100.0,"[0.09685560071416754,-0.04175778908469432]",4.0,"[-0.11210044983970784,0.032070859971778345]",4.0,"[0.15072437742116926,-0.06347181488879614]",100.0,"[0.09065868216472779,0.0412403231693542]",100.0,"[-0.055965946401707475,-0.12518701069934302]",100.0,"[-0.013736303976926543,0.012741146765363053]",100.0,"[-0.07780748326847714,-0.1604261978977305]",4.0,"[0.0010022220796686997,-0.03827791024950105]",4.0,"[-0.13735485570401887,-0.044026487496606675]",4.0,"[-0.04885424847705699,-0.061121694904136444]",4.0,"[0.18381347697530023,-0.039856090491808854]",100.0,"[-0.09113875254857921,0.09177889725921426]",4.0,"[-0.06404743717737808,0.023172906353720418]",4.0,"[-0.1942974570464241,-0.038824015578851526]",4.0,"[-0.13126459632196563,0.12965048922463365]",100.0,"[0.18280069777811014,0.03894966108704798]",4.0,"[0.004926052815093612,0.19077769808880152]",4.0,"[0.02,0.02]",175.1592,0.0,45.0,45.0,157.0,1.0,,,,,,,
,,,,,,,5b082f3d61cde20001b6706e,6842bbf8a968b26eff846670,2025-06-06_10h59.31.660,shape_ratio,2024.1.5,Win32,60.24096386,6842b561977af9ba9b0f87ca,,,,,,,,,,,175.1596,175.6508,,,175.9088,176.1513,left,,,,,,,,0.45,0.2243,,,,,,,175.651,175.9088,176.1514,"[-0.1320197089825204,-0.021216062760630133]",4.0,"[0.130612464319047,-0.0757695030159121]",4.0,"[-0.045338247406606344,-0.0908381290519696]",100.0,"[-0.035171553477827154,-0.05053879579775262]",4.0,"[0.08827977853143668,0.015954179526823584]",100.0,"[0.1854238512562346,0.027503878113734913]",4.0,"[-0.08579775823431622,-0.13637325786099258]",4.0,"[-0.17325846577958745,0.037114957414939156]",4.0,"[0.09987335601014469,0.09399547866618026]",4.0,"[-0.09909836597107735,0.013191145277387363]",4.0,"[0.12288748467389668,0.14961679177121964]",4.0,"[0.0841915523462293,-0.10776332520436992]",4.0,"[0.010097284439225305,0.16824109453030464]",100.0,"[-0.03446371045446357,0.16378175325665917]",100.0,"[-0.061899839189203214,0.0762297610652472]",100.0,"[0.07188154058177701,-0.06497826169257724]",4.0,"[0.01839160806892812,-0.002658361868707729]",100.0,"[-0.01946344587263576,0.08244672856313938]",100.0,"[-0.10644987818338184,0.10933187665802015]",4.0,"[0.18084641558716266,-0.0799842935843281]",4.0,"[-0.05726681325871507,0.12698057753570555]",100.0,"[-0.1494299553184253,0.10652642908115818]",100.0,"[0.016342131841439674,-0.19034709369245773]",100.0,"[0.04627637449528105,-0.14665023206160885]",4.0,"[-0.02096555910283224,-0.14548772274305485]",4.0,"[-0.09772147132117574,-0.0669038125222551]",4.0,"[-0.1728611967389318,-0.06933967274284043]",100.0,"[0.0553953557052455,0.05374097453945172]",100.0,"[-0.0898920063091925,0.16250921456214928]",4.0,"[-0.11124255821171485,0.05863274883951762]",100.0,"[-0.04335355431498077,-0.18937298281563267]",100.0,"[0.14086452048846457,0.03757632459591556]",4.0,"[0.02,0.02]",177.2508,0.0,46.0,46.0,138.0,1.0,,,,,,,
,,,,,,,5b082f3d61cde20001b6706e,6842bbf8a968b26eff846670,2025-06-06_10h59.31.660,shape_ratio,2024.1.5,Win32,60.24096386,6842b561977af9ba9b0f87ca,,,,,,,,,,,177.2519,177.7516,,,178.0085,178.318,right,,,,,,,,0.9,0.2852,,,,,,,177.7517,178.0085,178.3183,"[0.173692964875526,-0.023272283891521507]",100.0,"[-0.03363024691110516,0.09158710245360971]",100.0,"[0.10071787249559644,0.07730438323746923]",100.0,"[0.09639860713519684,-0.1335610540968462]",100.0,"[-0.14547385171128813,-0.06667654936469104]",100.0,"[0.010556026614880589,-0.0059776858575252756]",100.0,"[0.15628663293324518,0.04585364967554063]",100.0,"[-0.06282453134473166,-0.000937319922355667]",100.0,"[0.09002882984501998,-0.08217128802787654]",100.0,"[0.1571733030133394,-0.10752043980426525]",100.0,"[-0.05791136132797609,-0.04400916020391999]",100.0,"[0.06892892870293678,0.18505650643232419]",100.0,"[-0.12060793640392323,-0.13520533868888238]",100.0,"[-0.03289502911529911,-0.17233105535034107]",100.0,"[0.04609646591948704,-0.17186338919991437]",4.0,"[-0.009290597026085404,-0.13002022616319445]",4.0,"[-0.014110950334603937,0.1693230452607534]",4.0,"[-0.17352116462502817,0.06862980234445475]",100.0,"[0.06355886122342175,0.0523035597023566]",100.0,"[0.04140968038344006,-0.08972810934445516]",100.0,"[-0.07833763781795032,0.17192233526936615]",100.0,"[0.11352053916571588,-0.03907301538985382]",100.0,"[-0.1176891098078126,0.004573556124813798]",100.0,"[-0.06369049242108403,0.051536106024685994]",100.0,"[0.09276627369587077,0.022582327764954068]",100.0,"[0.05297675067447899,0.09703558156876843]",100.0,"[-0.07573887837598818,-0.16579960262255508]",100.0,"[0.0336242760095835,-0.13335572925891917]",100.0,"[-0.11097463096334864,0.12912711381372816]",100.0,"[-0.10924205624082567,0.08267362645852815]",100.0,"[-0.1673084487109998,-0.012161290348927514]",100.0,"[-0.05633421002072647,-0.08751357385599774]",100.0,"[0.02,0.02]",179.4176,0.0,47.0,47.0,9.0,1.0,,,,,,,
,,,,,,,5b082f3d61cde20001b6706e,6842bbf8a968b26eff846670,2025-06-06_10h59.31.660,shape_ratio,2024.1.5,Win32,60.24096386,6842b561977af9ba9b0f87ca,,,,,,,,,,,179.4184,179.9175,,,180.1684,180.4522,left,,,,,,,,0.1,0.2601,,,,,,,179.9176,180.1682,180.4523,"[0.009104797668385171,0.15375691605678668]",4.0,"[-0.013733349246173669,-0.10445262960669718]",4.0,"[0.020001604366300642,-0.005124607734716668]",4.0,"[-0.02089201414598474,-0.05464022876980693]",4.0,"[-0.00908289291582238,0.08818414275930521]",4.0,"[-0.09018094657808703,-0.13535921379821714]",4.0,"[-0.06684218209271826,0.14257961060131472]",100.0,"[0.1484646729754734,-0.016479111023697434]",4.0,"[0.15132500230816406,0.07624866671495088]",4.0,"[0.08323423556158212,0.07431188334214282]",4.0,"[0.07625267790175547,0.14540354953888734]",4.0,"[0.13016400085115265,-0.09980777749292619]",4.0,"[0.014328136082893515,-0.14226833539443226]",4.0,"[0.05977531243794825,0.022453219371985463]",4.0,"[-0.07182441284365064,0.06782016431747107]",4.0,"[-0.16972003883774164,-0.06798470645066745]",4.0,"[-0.07726301348436306,0.012870864129691118]",4.0,"[0.13073532053018783,0.1282008624189133]",4.0,"[-0.029185606114105575,0.009943066814488116]",4.0,"[0.09784996070443923,-0.12949302707390176]",4.0,"[-0.16649261008397223,0.020246188268310285]",4.0,"[0.10574479555954341,-0.005495939253988129]",4.0,"[-0.1387031641666344,-0.09463407041546049]",4.0,"[-0.14252100243862142,0.11569281779088081]",4.0,"[-0.10592455748146865,-0.03812379974604926]",4.0,"[0.0031297638610471596,-0.19930498096824234]",4.0,"[0.07590719202523574,-0.18294567747520077]",4.0,"[0.033566979609949,0.12087959654777722]",100.0,"[0.19261585587375024,0.03991696781478657]",4.0,"[-0.0030231570813198344,0.044053543181023835]",100.0,"[0.03847312350935621,0.07141545659839438]",4.0,"[-0.03770528418907619,-0.1889465764085642]",4.0,"[0.02,0.02]",181.5585,0.0,48.0,48.0,180.0,1.0,,,,,,,
,,,,,,,5b082f3d61cde20001b6706e,6842bbf8a968b26eff846670,2025-06-06_10h59.31.660,shape_ratio,2024.1.5,Win32,60.24096386,6842b561977af9ba9b0f87ca,,,,,,,,,,,181.5591,182.051,,,182.3011,182.6181,right,,,,,,,,0.45,0.3014,,,,,,,182.0512,182.3011,182.6182,"[0.0923516985724555,0.13921967733514098]",100.0,"[0.07097625812409589,0.17486569912785857]",4.0,"[-0.18931049450091758,0.052059421194576]",100.0,"[0.09443011999743675,0.023983640840472383]",100.0,"[-0.15026088787562317,0.09849076284143866]",4.0,"[-0.018187930996003684,0.18978960614627813]",4.0,"[-0.0729328640051712,0.0671601328133321]",100.0,"[0.05485539588668393,0.08044792868598086]",100.0,"[-0.008799981109488653,-0.05900081498080379]",100.0,"[-0.01990890920929182,0.05231190347374391]",100.0,"[0.11247271488335363,0.09234399428939387]",4.0,"[0.17895566722571316,0.014803640331467811]",4.0,"[0.1035780543197143,-0.09998643161032622]",4.0,"[0.14464502328439333,-0.04238102453933133]",100.0,"[-0.007681477632918937,-0.19082094040224085]",4.0,"[0.09359109295514835,-0.13990206783298834]",100.0,"[0.16084710917393644,0.06515949425237239]",100.0,"[0.030357349750643726,-0.07926426234013495]",100.0,"[-0.012573041738579495,-0.1190261373551082]",4.0,"[0.044945103998192716,0.002354043209497407]",4.0,"[0.1676836688995304,-0.10844635780229271]",4.0,"[-0.08787855246354108,-0.1438993706850518]",4.0,"[0.09657880202103096,-0.01782312770774896]",4.0,"[-0.0554877246017084,-0.044240550850202884]",4.0,"[0.1838104576251816,-0.05768513286764581]",100.0,"[0.03376562478573338,0.11822202749542167]",4.0,"[-0.14397491013918726,-0.05166845108590704]",4.0,"[-0.0355698559140998,0.0909643297957288]",100.0,"[-0.08356550580192398,0.008604694735988901]",4.0,"[0.020363202001157165,-0.030507780238334715]",4.0,"[-0.1419141364441796,0.03883622539087214]",100.0,"[0.04304669236412297,-0.19228163436714762]",4.0,"[0.02,0.02]",183.7174,0.0,49.0,49.0,120.0,1.0,,,,,,,
