right,left,explain.started,explain.stopped,key_resp_3.keys,key_resp_3.rt,key_resp_3.duration,participant,session,date,expName,psychopyVersion,OS,frameRate,study_id,explain_2.started,explain_2.stopped,key_resp_4.keys,key_resp_4.rt,key_resp_4.duration,explain_3.started,explain_3.stopped,key_resp_5.keys,key_resp_5.rt,key_resp_5.duration,fixation.started,fixation.stopped,practice.started,practice.stopped,response.started,response.stopped,key_resp.keys,feedback.started,feedback.stopped,trials_2.thisRepN,trials_2.thisTrialN,trials_2.thisN,trials_2.thisIndex,trials_2.ran,dot_ratio,key_resp.rt,key_resp.duration,explain_4.started,explain_4.stopped,key_resp_6.keys,key_resp_6.rt,key_resp_6.duration,dotDisplay.started,dotDisplay.stopped,ITI.started,polygon_1.pos,polygon_1.edges,polygon_2.pos,polygon_2.edges,polygon_3.pos,polygon_3.edges,polygon_4.pos,polygon_4.edges,polygon_5.pos,polygon_5.edges,polygon_6.pos,polygon_6.edges,polygon_7.pos,polygon_7.edges,polygon_8.pos,polygon_8.edges,polygon_9.pos,polygon_9.edges,polygon_10.pos,polygon_10.edges,polygon_11.pos,polygon_11.edges,polygon_12.pos,polygon_12.edges,polygon_13.pos,polygon_13.edges,polygon_14.pos,polygon_14.edges,polygon_15.pos,polygon_15.edges,polygon_16.pos,polygon_16.edges,polygon_17.pos,polygon_17.edges,polygon_18.pos,polygon_18.edges,polygon_19.pos,polygon_19.edges,polygon_20.pos,polygon_20.edges,polygon_21.pos,polygon_21.edges,polygon_22.pos,polygon_22.edges,polygon_23.pos,polygon_23.edges,polygon_24.pos,polygon_24.edges,polygon_25.pos,polygon_25.edges,polygon_26.pos,polygon_26.edges,polygon_27.pos,polygon_27.edges,polygon_28.pos,polygon_28.edges,polygon_29.pos,polygon_29.edges,polygon_30.pos,polygon_30.edges,polygon_31.pos,polygon_31.edges,polygon_32.pos,polygon_32.edges,dot_size,ITI.stopped,trials.thisRepN,trials.thisTrialN,trials.thisN,trials.thisIndex,trials.ran,break_2.started,break_2.stopped,trials_3.thisRepN,trials_3.thisTrialN,trials_3.thisN,trials_3.thisIndex,trials_3.ran
subject chose diamond,subject chose dot,0.0003,24.087,space,9.0761,,5b3158ba532e3d00018e324a,684428c4a592fdff32f0d0d7,2025-06-07_13h59.07.422,shape_ratio,2024.1.5,Win32,59.88023952,684250e4f00cb30b92d1fa88,,,,,,,,,,,,,,,,,,,,,,,,,,,,,,,,,,,,,,,,,,,,,,,,,,,,,,,,,,,,,,,,,,,,,,,,,,,,,,,,,,,,,,,,,,,,,,,,,,,,,,,,,,,,,,,,,
,,,,,,,5b3158ba532e3d00018e324a,684428c4a592fdff32f0d0d7,2025-06-07_13h59.07.422,shape_ratio,2024.1.5,Win32,59.88023952,684250e4f00cb30b92d1fa88,24.0873,57.1037,space,2.9934,,,,,,,,,,,,,,,,,,,,,,,,,,,,,,,,,,,,,,,,,,,,,,,,,,,,,,,,,,,,,,,,,,,,,,,,,,,,,,,,,,,,,,,,,,,,,,,,,,,,,,,,,,,,,
,,,,,,,5b3158ba532e3d00018e324a,684428c4a592fdff32f0d0d7,2025-06-07_13h59.07.422,shape_ratio,2024.1.5,Win32,59.88023952,684250e4f00cb30b92d1fa88,,,,,,57.1039,61.1698,space,1.0389,,,,,,,,,,,,,,,,,,,,,,,,,,,,,,,,,,,,,,,,,,,,,,,,,,,,,,,,,,,,,,,,,,,,,,,,,,,,,,,,,,,,,,,,,,,,,,,,,,,,,,,,
,,,,,,,5b3158ba532e3d00018e324a,684428c4a592fdff32f0d0d7,2025-06-07_13h59.07.422,shape_ratio,2024.1.5,Win32,59.88023952,684250e4f00cb30b92d1fa88,,,,,,,,,,,61.1878,61.6868,61.6872,61.9237,61.9239,63.4196,,63.4198,64.52,0.0,0.0,0.0,0.0,1.0,0.2,,,,,,,,,,,,,,,,,,,,,,,,,,,,,,,,,,,,,,,,,,,,,,,,,,,,,,,,,,,,,,,,,,,,,,,,,,,,,,,,,,,,,,,,
,,,,,,,5b3158ba532e3d00018e324a,684428c4a592fdff32f0d0d7,2025-06-07_13h59.07.422,shape_ratio,2024.1.5,Win32,59.88023952,684250e4f00cb30b92d1fa88,,,,,,,,,,,64.5206,65.0194,65.0194,65.2698,65.2698,66.4362,right,66.4363,67.5365,0.0,1.0,1.0,1.0,1.0,0.8,1.1478,,,,,,,,,,,,,,,,,,,,,,,,,,,,,,,,,,,,,,,,,,,,,,,,,,,,,,,,,,,,,,,,,,,,,,,,,,,,,,,,,,,,,,,
,,,,,,,5b3158ba532e3d00018e324a,684428c4a592fdff32f0d0d7,2025-06-07_13h59.07.422,shape_ratio,2024.1.5,Win32,59.88023952,684250e4f00cb30b92d1fa88,,,,,,,,,,,,,,,,,,,,,,,,,,,,67.537,71.2529,space,0.6906,,,,,,,,,,,,,,,,,,,,,,,,,,,,,,,,,,,,,,,,,,,,,,,,,,,,,,,,,,,,,,,,,,,,,,,,,,,,,,,,,,
,,,,,,,5b3158ba532e3d00018e324a,684428c4a592fdff32f0d0d7,2025-06-07_13h59.07.422,shape_ratio,2024.1.5,Win32,59.88023952,684250e4f00cb30b92d1fa88,,,,,,,,,,,71.2667,71.753,,,72.0036,72.5533,left,,,,,,,,0.9,0.531,,,,,,,71.7536,72.0035,72.5537,"[0.1604777627500915,0.0979273909481064]",100.0,"[-0.08355016590704963,0.011677904880651731]",100.0,"[-0.1593312695377489,0.08894357196734809]",4.0,"[-0.07956853115247724,-0.11867343651870091]",100.0,"[-0.12544657216276475,-0.09967377472060036]",100.0,"[-0.14650172254387567,0.037868959630157156]",100.0,"[0.04156022792890837,0.08638653753056072]",100.0,"[0.05689881785367665,-0.06486192583889425]",100.0,"[0.07002472029356915,0.1759834136441269]",100.0,"[0.10519814544934128,-0.032131348897548206]",100.0,"[-0.03146400638142771,0.1144607544344156]",100.0,"[0.16046880859178342,-0.07785884624838209]",100.0,"[0.05572358833178792,0.015786321817092275]",100.0,"[-0.04135065964037238,-0.015900864515659804]",100.0,"[-0.013861579169706149,-0.09882333875313985]",100.0,"[-0.06512151332648619,0.050180825879028224]",100.0,"[0.043304022247062,-0.17301987603466698]",100.0,"[0.1873742064124707,0.05480479865619726]",100.0,"[-0.04388010615512023,0.15614703833462515]",100.0,"[0.076362063700843,-0.10270314340552932]",100.0,"[0.12287920993675432,0.15457990392432727]",4.0,"[0.0042403529095825215,0.01491918240334059]",100.0,"[-0.1947238488749439,0.017003182679189488]",100.0,"[0.022897408903858225,-0.03862682169234191]",100.0,"[-0.1010903314208937,0.07096395879339627]",100.0,"[-0.10867012794318386,0.15837976068154433]",100.0,"[0.09492558806096434,0.0979848973902172]",100.0,"[-0.11045896602161896,0.11043725402378134]",100.0,"[0.14525392272917564,-0.11583978937737592]",100.0,"[-0.033378959207247566,-0.19611623136569012]",100.0,"[-0.08423203524612165,-0.06361722577629993]",100.0,"[0.005500723336998346,0.13855982292047875]",4.0,"[0.02,0.02]",73.6531,0.0,0.0,0.0,15.0,1.0,,,,,,,
,,,,,,,5b3158ba532e3d00018e324a,684428c4a592fdff32f0d0d7,2025-06-07_13h59.07.422,shape_ratio,2024.1.5,Win32,59.88023952,684250e4f00cb30b92d1fa88,,,,,,,,,,,73.6536,74.1526,,,74.4033,75.2195,right,,,,,,,,0.55,0.8048,,,,,,,74.1526,74.4033,75.2195,"[-0.008927362423620895,-0.04151522794349297]",4.0,"[0.11750532635225325,0.022559007957793416]",100.0,"[-0.18205568867991503,-0.017701058731506583]",4.0,"[0.0020345746194135876,0.10312418976945903]",4.0,"[-0.12006409834280542,0.09110404368956651]",100.0,"[0.04757024435632192,0.1789783279822933]",100.0,"[0.016819374727627928,-0.005709050974554355]",4.0,"[-0.0709045048688258,-0.10633468128549112]",4.0,"[0.1886483613001105,-0.0619960253228085]",100.0,"[-0.12058284653735359,-0.08946519454196143]",4.0,"[-0.05753909625298025,-0.17845336128074185]",100.0,"[-0.18564490786036805,-0.06386398893012783]",100.0,"[0.0767463435395087,-0.009226210202070978]",100.0,"[0.02708388708635185,-0.12002479329018961]",100.0,"[-0.08472958290107285,0.006151457383239667]",100.0,"[-0.07473695905269341,0.06807810837293977]",4.0,"[-0.1967438178828816,0.028546682751537253]",4.0,"[-0.012400913011215957,-0.18846910944741385]",100.0,"[-0.04933339198780294,-0.06426746023318344]",100.0,"[-0.03974726701579852,0.028585816370545806]",4.0,"[-0.14041855673499526,-0.12506225870066615]",100.0,"[0.14027589996943277,-0.029104238808395674]",100.0,"[-0.13962763728892746,0.0409680007901151]",4.0,"[0.06787015292288998,-0.07426501627218846]",100.0,"[0.05438805320167925,-0.15487670091750425]",100.0,"[-0.05259623781755916,-0.018039459209623073]",4.0,"[0.13960578852815586,0.07051074030442735]",4.0,"[0.1304986347943068,-0.08637100032822817]",4.0,"[-0.14682855875362688,0.12115808025565934]",100.0,"[0.07585001969455804,0.09268954712665493]",100.0,"[-0.03720325343902032,0.14527534733164899]",4.0,"[0.13047283909553392,0.133153139364696]",100.0,"[0.02,0.02]",76.3195,0.0,1.0,1.0,64.0,1.0,,,,,,,
,,,,,,,5b3158ba532e3d00018e324a,684428c4a592fdff32f0d0d7,2025-06-07_13h59.07.422,shape_ratio,2024.1.5,Win32,59.88023952,684250e4f00cb30b92d1fa88,,,,,,,,,,,76.32,76.8193,,,77.0697,78.3031,left,,,,,,,,0.4,1.2169,,,,,,,76.8193,77.0697,78.3032,"[0.13011137468004588,-0.08681206464868188]",100.0,"[-0.06842999460694885,0.07157228624903839]",4.0,"[-0.10262452147258355,-0.05124223879979566]",4.0,"[0.08205827550118214,-0.14901182990708128]",100.0,"[0.054895340334844146,-0.015816247737832318]",100.0,"[-0.01611139583831166,0.1493196664222586]",4.0,"[-0.16502017007540273,-0.040234717104464884]",4.0,"[0.15604499398492036,0.08849990768234717]",100.0,"[0.06226015703289076,0.1451043647031326]",4.0,"[-0.09738477823361824,-0.16582260419972503]",100.0,"[-0.17345028834108178,0.009599964254067037]",4.0,"[0.10795651404751905,0.13564443361186437]",100.0,"[-0.026629499102095708,-0.1611479621207664]",100.0,"[0.018061643014282786,-0.08701008070687671]",4.0,"[-0.10758779658748922,0.05208549421508324]",4.0,"[0.18148144165261326,-0.009358920773617819]",4.0,"[0.10098711549675292,0.016597319362433322]",100.0,"[-0.11780380243523834,-0.12700106833656322]",100.0,"[-0.15134287042801983,-0.08316640268655898]",100.0,"[-0.006981415618412736,0.03882917282286212]",100.0,"[0.030465228284974652,-0.17887785137180184]",4.0,"[0.10426058350489699,0.09261387647740707]",4.0,"[0.17043618800311736,0.0366829375844639]",4.0,"[-0.18991077493206948,0.053005211901113014]",4.0,"[0.13288799642625812,-0.019854599698191134]",4.0,"[-0.06309625384286602,-0.0622111981857974]",4.0,"[-0.006971814598265214,-0.12628143954298057]",100.0,"[-0.07156299012622717,-0.10599334929316533]",4.0,"[-0.13191536273296353,0.09099366228894286]",4.0,"[-0.12722523180333267,0.006303653333972162]",4.0,"[-0.048231477851776436,0.024320678073926977]",4.0,"[-0.0737136820311389,0.15399992495353318]",100.0,"[0.02,0.02]",79.4028,0.0,2.0,2.0,178.0,1.0,,,,,,,
,,,,,,,5b3158ba532e3d00018e324a,684428c4a592fdff32f0d0d7,2025-06-07_13h59.07.422,shape_ratio,2024.1.5,Win32,59.88023952,684250e4f00cb30b92d1fa88,,,,,,,,,,,79.4034,79.9028,,,80.153,80.5365,left,,,,,,,,0.6,0.3643,,,,,,,79.9029,80.153,80.5365,"[0.16422434208612835,0.04818452745918214]",100.0,"[-0.024146946374691346,0.16908575982166704]",100.0,"[-0.004903882132421061,-0.06681310074698031]",100.0,"[-0.09680047004638297,-0.1652967324285313]",4.0,"[-0.15338034195451258,0.106442233638759]",4.0,"[0.1419432544769953,0.12408438273305286]",4.0,"[0.07610079306048141,-0.0415719070749491]",4.0,"[-0.14300411201894336,0.020034722896555692]",100.0,"[-0.08216487341882206,0.10013771906626631]",100.0,"[-0.18110226777729757,-0.07500836192045283]",100.0,"[0.15060525030262573,-0.09286659630614834]",100.0,"[-0.15316876223176315,-0.03112735930725453]",4.0,"[0.027261189381386223,-0.1194737294054261]",4.0,"[-0.044106983996200826,0.12870199885921288]",4.0,"[-0.008012099037509289,-0.17471200638807532]",4.0,"[-0.03368793714825257,0.027627612812496663]",100.0,"[0.07107039429464374,0.1458567331883019]",100.0,"[0.18668966170090856,-0.02291650057782539]",100.0,"[0.037544283337616856,0.046112906099492576]",100.0,"[-0.02936842101931016,-0.024153457539155886]",100.0,"[0.15575339913915776,0.008084931784587104]",4.0,"[0.028084356958556937,0.09434467544597411]",4.0,"[0.11344858972703065,0.0225181322168148]",100.0,"[-0.10731102391367402,-0.07046623784304042]",4.0,"[0.03556054892264422,-0.19610177551732572]",100.0,"[-0.052797716273525114,-0.08413030664393799]",100.0,"[-0.07738009637138044,-0.03566654587638827]",100.0,"[-0.1314491487272467,0.06890540036993092]",100.0,"[0.017510295233729076,0.14977105840659213]",4.0,"[-0.10615744545066243,0.00007640547392436878]",4.0,"[-0.18517819630199323,0.032383672422002865]",100.0,"[0.12851780245490932,-0.13221852155299552]",100.0,"[0.02,0.02]",81.6359,0.0,3.0,3.0,46.0,1.0,,,,,,,
,,,,,,,5b3158ba532e3d00018e324a,684428c4a592fdff32f0d0d7,2025-06-07_13h59.07.422,shape_ratio,2024.1.5,Win32,59.88023952,684250e4f00cb30b92d1fa88,,,,,,,,,,,81.6362,82.1361,,,82.3864,83.1026,right,,,,,,,,0.4,0.706,,,,,,,82.1362,82.3863,83.1027,"[0.18120736738114807,-0.021964798204059166]",4.0,"[-0.15600644314189382,0.05372304561138436]",4.0,"[-0.022564876173993876,0.08595049622337818]",4.0,"[-0.09511392707068357,0.14807888388277185]",4.0,"[0.11201395413321173,-0.031044148932784656]",100.0,"[0.10145593244090595,-0.11744357696367913]",100.0,"[0.00010108447271127576,-0.1445556721826831]",4.0,"[-0.1583167884286293,-0.0025652464636346556]",4.0,"[0.1308357439457409,0.0305713379500789]",100.0,"[0.08583964801255999,0.016154264946668925]",100.0,"[0.04006942354926164,0.16606461507002437]",100.0,"[0.02873414212550159,-0.09460723967620878]",4.0,"[-0.10766024492302018,-0.14599204722634973]",4.0,"[0.020366991658974192,-0.19844084818586555]",4.0,"[-0.06883975078632283,0.04993655722457723]",100.0,"[-0.04380163087900441,-0.1095739866572954]",100.0,"[0.17651888441271182,0.09369639247587772]",4.0,"[-0.06541712502772719,-0.03755916920609548]",4.0,"[0.09551192393661365,0.10367916977797044]",100.0,"[-0.19034823710476617,0.02200528389867402]",4.0,"[0.05944165246961535,0.12957516602420843]",100.0,"[-0.10872311117891406,-0.06733383160853992]",100.0,"[0.018536757410959986,0.003742394617347169]",4.0,"[-0.14329539376059172,0.09553873706955646]",100.0,"[-0.03604099993428236,0.010555263028192067]",4.0,"[-0.010618486301746461,0.17127161505703625]",4.0,"[-0.10399614638388427,-0.015252153872885239]",100.0,"[0.08989871577599735,0.17130315364118692]",4.0,"[0.1426371659755289,-0.08226529277689179]",4.0,"[0.004201579947816851,-0.057400785198089825]",4.0,"[0.048610949404341255,0.07956100427796685]",100.0,"[-0.04470692209283788,-0.16943718773905928]",4.0,"[0.02,0.02]",84.2026,0.0,4.0,4.0,154.0,1.0,,,,,,,
,,,,,,,5b3158ba532e3d00018e324a,684428c4a592fdff32f0d0d7,2025-06-07_13h59.07.422,shape_ratio,2024.1.5,Win32,59.88023952,684250e4f00cb30b92d1fa88,,,,,,,,,,,84.2029,84.7027,,,84.9539,85.3193,left,,,,,,,,0.45,0.3571,,,,,,,84.7028,84.9538,85.3194,"[-0.007345483336272626,-0.012677648543894894]",100.0,"[-0.14012720293825268,-0.013878724391504399]",4.0,"[0.008122856161681954,0.059743470848631026]",100.0,"[-0.10039036242798495,0.08528878115443672]",100.0,"[0.12290942590944934,0.04883530218522591]",4.0,"[0.13756623524394143,-0.10076296229588418]",4.0,"[0.01420974454061598,-0.13928879915535278]",4.0,"[-0.044461073421371386,-0.05561775531763262]",4.0,"[-0.11038521218899923,-0.12210096208557952]",4.0,"[0.17341065305274816,-0.06792357779450602]",100.0,"[0.06501918585909573,-0.04915181621948898]",4.0,"[-0.12703789878800809,-0.061855739684550735]",100.0,"[0.03264751172934204,0.14279763820758212]",100.0,"[0.15926275432079046,0.015110937815664756]",100.0,"[-0.08690966369811762,0.17513665834116698]",100.0,"[0.07931663246858661,0.02744796176268346]",4.0,"[-0.18574668240514702,0.021231849205197377]",100.0,"[0.1283430619597375,-0.044695361060461965]",4.0,"[-0.008814015736420855,0.11309590336605983]",100.0,"[-0.04730254562983987,-0.12456744988448333]",4.0,"[-0.029487559766094833,0.15622308977631588]",4.0,"[-0.04083412619743376,0.05046820553814633]",100.0,"[0.13423796830795515,-0.14354538297053565]",100.0,"[-0.0013824144676753136,-0.0743313036866815]",4.0,"[0.022510982113725236,-0.19663932155688524]",4.0,"[0.08662457775936534,0.09263609707921597]",100.0,"[-0.09419376587971924,0.032550197240204325]",4.0,"[0.09222474915221783,-0.11197280739512801]",4.0,"[0.1210038713686572,0.12061503935941839]",100.0,"[0.05840016370799497,0.18268509066505234]",4.0,"[-0.09508061955995696,0.1253186793524477]",4.0,"[0.05073856591133915,0.06116483773242721]",4.0,"[0.02,0.02]",86.4196,0.0,5.0,5.0,144.0,1.0,,,,,,,
,,,,,,,5b3158ba532e3d00018e324a,684428c4a592fdff32f0d0d7,2025-06-07_13h59.07.422,shape_ratio,2024.1.5,Win32,59.88023952,684250e4f00cb30b92d1fa88,,,,,,,,,,,86.4201,86.9192,,,87.1702,87.8694,left,,,,,,,,0.6,0.6886,,,,,,,86.9193,87.1702,87.8694,"[-0.04561011056949777,0.06009650581620924]",4.0,"[-0.09123781384307743,-0.031841922339725645]",100.0,"[-0.10765801175566216,-0.09394932550073357]",4.0,"[0.15752230138434084,0.12171028671595678]",4.0,"[0.07602581575736612,0.057302038343133424]",100.0,"[0.01711924451548716,-0.06812282324639626]",4.0,"[-0.15414638356540453,0.04718702236510302]",100.0,"[0.0996664997915166,0.1396524512669645]",4.0,"[0.13371093650419427,0.03277481566250145]",100.0,"[0.11944339021220841,-0.029573103624503796]",4.0,"[-0.019683634207190052,0.12199164974531809]",100.0,"[0.09121694409821965,-0.09079761513620803]",4.0,"[-0.1546785871026117,-0.11530262414588661]",4.0,"[-0.07298244391473745,0.1575206192133059]",100.0,"[-0.00689909307719146,-0.11821006371243915]",100.0,"[0.05728639215561288,0.13160101386311873]",100.0,"[0.01409712375443754,0.15847722457371632]",100.0,"[0.12927911894873162,-0.14408191520544059]",100.0,"[-0.16685034622871187,-0.06253994785252157]",100.0,"[-0.07684880501035261,0.022697382397498286]",100.0,"[0.14081271042373256,-0.07257226140634707]",4.0,"[-0.01923494850623206,0.016826964196519634]",4.0,"[0.033073496690338856,-0.15547998975625318]",4.0,"[-0.11285356859731616,0.051866615601549274]",100.0,"[-0.008223028494465406,-0.19412484886783662]",100.0,"[0.1795818989216306,0.059251870672373586]",100.0,"[0.18212744207612222,-0.0003349375674623931]",100.0,"[0.0808016043936247,-0.14997625896045813]",100.0,"[0.09985159588809629,0.006409886505313503]",100.0,"[-0.042217465590470224,-0.15294737534032116]",4.0,"[0.022798885326272056,-0.01201605041725349]",4.0,"[-0.13081711847170724,-0.006455190945741613]",100.0,"[0.02,0.02]",88.9692,0.0,6.0,6.0,30.0,1.0,,,,,,,
,,,,,,,5b3158ba532e3d00018e324a,684428c4a592fdff32f0d0d7,2025-06-07_13h59.07.422,shape_ratio,2024.1.5,Win32,59.88023952,684250e4f00cb30b92d1fa88,,,,,,,,,,,88.9696,89.4692,,,89.7199,90.1693,right,,,,,,,,0.1,0.4306,,,,,,,89.4692,89.7198,90.1693,"[-0.08485571482717116,-0.06377119088232132]",4.0,"[-0.0485998349806882,0.18793344102355697]",4.0,"[0.04423087585461842,-0.12116583295091436]",4.0,"[-0.016116236173507492,0.04705722928892241]",4.0,"[0.08287883706688842,-0.07162235393977175]",4.0,"[0.1406212456150417,0.03807577008987164]",4.0,"[0.14000023819396193,-0.022168414652380095]",4.0,"[0.13830804323159201,-0.09425089600884677]",4.0,"[-0.06242149384178541,0.06769992737207284]",4.0,"[-0.038679716985148827,-0.057625014877013506]",4.0,"[0.18482297418309837,-0.02095464563318777]",4.0,"[0.007637413586636415,-0.06484660070427391]",4.0,"[-0.16384693652008012,-0.10493147243383058]",4.0,"[0.10861256312555664,0.09229225901287663]",4.0,"[0.011969618390698157,0.012204880617988604]",4.0,"[0.09574951057878339,0.01705936296673599]",4.0,"[0.17064715047321816,0.0741118862062715]",4.0,"[-0.17928705366089664,0.0394128463783575]",4.0,"[-0.1319847473165634,0.047060314455071965]",4.0,"[-0.10430995924925743,0.14878335038670745]",4.0,"[-0.056470492834390464,-0.13241063392236227]",4.0,"[-0.021934992840243497,0.1340807818963131]",100.0,"[-0.11821326887136868,-0.10570908462319482]",4.0,"[0.12233419991211414,0.14702006054689915]",100.0,"[-0.17377099552529574,-0.046130452901588105]",4.0,"[-0.030134607943213296,-0.003079242429421107]",4.0,"[0.06890460231901849,0.07322896482812226]",4.0,"[-0.14823535675715674,0.12558285141339595]",4.0,"[-0.06291247920409977,0.12019380621260428]",4.0,"[-0.15534293383927894,0.08173016256508192]",4.0,"[0.003012651125843169,-0.1882345301981924]",100.0,"[0.07653312675376904,-0.16648171785857843]",4.0,"[0.02,0.02]",91.2691,0.0,7.0,7.0,192.0,1.0,,,,,,,
,,,,,,,5b3158ba532e3d00018e324a,684428c4a592fdff32f0d0d7,2025-06-07_13h59.07.422,shape_ratio,2024.1.5,Win32,59.88023952,684250e4f00cb30b92d1fa88,,,,,,,,,,,91.2695,91.7693,,,92.0195,92.5362,left,,,,,,,,0.6,0.4972,,,,,,,91.7694,92.0195,92.5363,"[-0.06674421081494598,-0.133319334198202]",100.0,"[0.171562574717455,-0.04893738036618446]",100.0,"[-0.11676291764723673,0.15241858729725427]",100.0,"[0.07564598686956091,-0.1570125123963337]",100.0,"[0.08492592250691704,0.0945722752639513]",4.0,"[-0.07641715226019091,0.009162645899504574]",100.0,"[-0.18180404729382024,0.025717501256602365]",4.0,"[-0.018533057427923633,0.1885821777207452]",100.0,"[-0.04923319043686256,0.08054750820512488]",100.0,"[-0.17609983891953168,-0.08041140314609407]",100.0,"[0.11127171057716459,0.13985427336860126]",4.0,"[0.11638824009732454,-0.05959843306763333]",100.0,"[-0.16242997409982382,-0.04276538525501559]",4.0,"[-0.17801521310929871,0.06808660779131663]",4.0,"[0.06388385321502221,-0.07241993327692042]",4.0,"[-0.00807240111147971,0.08096948734843609]",4.0,"[-0.10981290284244452,0.03491577478343431]",100.0,"[-0.014603062064131086,-0.19496310745973744]",100.0,"[0.036034261060463924,-0.12373292869236921]",100.0,"[0.03935874276607096,0.10868339753047532]",100.0,"[-0.04468760065021624,-0.0204272053354436]",4.0,"[0.003510569353762771,0.006821603565795561]",4.0,"[-0.10672409473708043,-0.11278704561317252]",4.0,"[0.1602943343698589,0.04364717699017935]",100.0,"[0.10391981637507676,0.021410177489441705]",100.0,"[-0.03449574618871109,0.14770769754046922]",4.0,"[0.0015551021871247836,-0.15621804741513187]",100.0,"[-0.03215171088121028,-0.10608976559495713]",4.0,"[0.02801168738462277,0.050146954188500126]",100.0,"[0.12553614453871517,-0.1308281836899465]",100.0,"[-0.030440436201001453,-0.06257936190392156]",100.0,"[0.05217668901227832,0.001648126732293111]",4.0,"[0.02,0.02]",93.6359,0.0,8.0,8.0,39.0,1.0,,,,,,,
,,,,,,,5b3158ba532e3d00018e324a,684428c4a592fdff32f0d0d7,2025-06-07_13h59.07.422,shape_ratio,2024.1.5,Win32,59.88023952,684250e4f00cb30b92d1fa88,,,,,,,,,,,93.6365,94.1361,,,94.386,95.1192,right,,,,,,,,0.45,0.715,,,,,,,94.1362,94.386,95.1192,"[-0.006422355283350814,-0.09190802756621297]",100.0,"[0.1387423594477538,-0.08528263597552381]",100.0,"[0.08771607959696702,-0.0744904316310951]",100.0,"[-0.0903751271838256,0.08373240814104302]",4.0,"[0.0903498268047289,-0.11749782404458661]",100.0,"[0.15048783779439806,-0.12499152395772169]",4.0,"[0.021684042508067308,-0.020215606638210912]",4.0,"[-0.03542806085739554,-0.03885936254753506]",100.0,"[-0.022648196844945227,0.1462492538415693]",100.0,"[-0.14070661775776291,0.06403741605845116]",4.0,"[0.04641966514996337,0.1802581635226729]",100.0,"[0.1626001601421912,-0.03673579188141956]",4.0,"[0.09643559247470529,-0.024886265077649624]",4.0,"[0.00464059119681369,-0.19143366268135495]",4.0,"[-0.1730644913198746,-0.020334112436789616]",100.0,"[0.09094252340980355,0.09504150058784322]",4.0,"[-0.09905581933787179,-0.009623014759857877]",100.0,"[0.04876272110555879,0.02960202667424431]",4.0,"[0.07877174308453316,0.1419070228639142]",4.0,"[0.17010096443387646,0.09807703843089446]",100.0,"[-0.019159146524348913,-0.15567181970614025]",4.0,"[-0.12165374812162963,-0.13693558002539327]",100.0,"[-0.060354090564016104,0.12684573199093999]",100.0,"[-0.022276744558208265,0.10298556330550043]",4.0,"[-0.04431332695662622,0.05664637200467585]",4.0,"[-0.1258379460609776,0.12338254963301035]",100.0,"[-0.09010903052908423,-0.0710817547874238]",4.0,"[0.13073123931220418,0.09061230572227569]",4.0,"[-0.17951348706438416,0.07758427140205301]",4.0,"[-0.05316267325413626,0.18358883008176766]",100.0,"[0.158804745126344,0.02209897443308424]",4.0,"[-0.17328308337406634,-0.0858226596055847]",4.0,"[0.02,0.02]",96.2194,0.0,9.0,9.0,138.0,1.0,,,,,,,
,,,,,,,5b3158ba532e3d00018e324a,684428c4a592fdff32f0d0d7,2025-06-07_13h59.07.422,shape_ratio,2024.1.5,Win32,59.88023952,684250e4f00cb30b92d1fa88,,,,,,,,,,,96.2198,96.7193,,,96.9697,97.603,right,,,,,,,,0.4,0.6161,,,,,,,96.7193,96.9697,97.603,"[-0.0004115017006570991,-0.1798377659138254]",4.0,"[0.06491867385231662,0.1654837645559237]",100.0,"[-0.09001355449968029,0.09795816907878171]",4.0,"[-0.023385891830932162,0.054854655081030664]",100.0,"[-0.06370172710680636,0.032759049652112245]",4.0,"[-0.033500288348638635,-0.12068051067606222]",4.0,"[-0.02216475191424661,0.013337452027378821]",100.0,"[-0.026513483023610406,0.12289143039346527]",4.0,"[0.13091852664475342,0.13708294872595878]",100.0,"[0.02928472554710513,-0.10089901160573793]",4.0,"[0.00689156202952192,0.15194171715986185]",100.0,"[-0.13998601592713078,-0.05556775427868699]",100.0,"[0.08062805469640884,-0.11768683472680032]",4.0,"[-0.07502260178828643,0.14229749691220658]",4.0,"[0.061318172115985614,0.027323331550379686]",4.0,"[0.05682463432595106,0.1136103164898079]",4.0,"[0.13872809987001328,-0.0630635220436867]",100.0,"[0.058920799977265535,-0.03549145614224126]",100.0,"[-0.13380961055748294,0.08010764491768646]",100.0,"[-0.1703246264459425,-0.028558738036618497]",4.0,"[0.013455180912052457,-0.0068641271731913304]",4.0,"[0.11988822068532198,-0.10914360946903262]",100.0,"[-0.010096220842608337,-0.08813349449616538]",4.0,"[-0.09581602285461743,-0.12418203896689137]",4.0,"[-0.03985086922953261,0.18503578714197816]",100.0,"[-0.11057159491526589,0.010893843336202172]",4.0,"[0.17071397322279716,0.05796156179454962]",4.0,"[-0.15323049616951012,0.11882478742469227]",4.0,"[-0.16372417605415168,0.0410722456401885]",4.0,"[0.1331999661132001,0.014163082165990833]",100.0,"[0.07254719210814323,0.06907803659490766]",4.0,"[0.09381535859700302,-0.16908098770968308]",100.0,"[0.02,0.02]",98.7026,0.0,10.0,10.0,175.0,1.0,,,,,,,
,,,,,,,5b3158ba532e3d00018e324a,684428c4a592fdff32f0d0d7,2025-06-07_13h59.07.422,shape_ratio,2024.1.5,Win32,59.88023952,684250e4f00cb30b92d1fa88,,,,,,,,,,,98.7029,99.2024,,,99.4525,99.8692,left,,,,,,,,0.45,0.3983,,,,,,,99.2024,99.4525,99.8693,"[-0.1402826378284655,0.044479018201557044]",100.0,"[-0.016987424360427078,-0.14788647655509882]",4.0,"[0.005233229441988265,0.009641745210350708]",4.0,"[0.11494644397908543,0.004434833396787947]",4.0,"[-0.10967196620182942,-0.018771886537889738]",4.0,"[0.07289243392468463,-0.14270206071685038]",4.0,"[0.014243265065350582,0.04966472521007381]",4.0,"[-0.07195223165195257,0.023953702876377717]",4.0,"[0.05027717256157539,-0.04624521097403796]",100.0,"[-0.13093266689743158,0.12368418220560674]",4.0,"[-0.07669149703417587,-0.13384084396884752]",4.0,"[0.03024133526596478,0.16374518701442134]",4.0,"[-0.090936458477725,0.06107759773079812]",100.0,"[-0.14714096931155643,-0.08921474420924884]",100.0,"[0.01821798363438445,-0.1200359991705154]",4.0,"[0.15482035920482032,0.05954535153097659]",4.0,"[0.09967050704298012,0.05530715085592216]",100.0,"[0.06673546614186762,0.018869404833786334]",4.0,"[-0.051144919379344296,-0.04405397978215334]",100.0,"[-0.018440879232604054,-0.09857784953478764]",4.0,"[0.1140576213029665,0.11719147899275419]",4.0,"[-0.1831900144240975,-0.05537194523285461]",4.0,"[0.16565378316112647,-0.07608305684679506]",100.0,"[-0.015050384263349493,0.15189322876401537]",100.0,"[0.05685740795683238,0.10777544606928577]",100.0,"[0.1694051724223688,-0.006564932988358816]",100.0,"[0.11603412204808938,-0.10374739301902182]",100.0,"[0.09913661367074171,0.1545175431616593]",100.0,"[-0.18914418434902824,0.027151914261995425]",100.0,"[-0.09482479512507375,0.1452138564911719]",4.0,"[0.10220785897680075,-0.0526293071413951]",100.0,"[0.0028392965377383047,-0.18680347467812333]",4.0,"[0.02,0.02]",100.9692,0.0,11.0,11.0,134.0,1.0,,,,,,,
,,,,,,,5b3158ba532e3d00018e324a,684428c4a592fdff32f0d0d7,2025-06-07_13h59.07.422,shape_ratio,2024.1.5,Win32,59.88023952,684250e4f00cb30b92d1fa88,,,,,,,,,,,100.9697,101.469,,,101.7196,102.0024,left,,,,,,,,0.6,0.2644,,,,,,,101.469,101.7195,102.0024,"[-0.06359689665506826,0.06479183737603418]",100.0,"[-0.005819721630161942,0.0598081592573315]",100.0,"[0.03845392266336877,-0.14738046250493592]",4.0,"[0.1325185021877459,-0.1253627233229734]",100.0,"[-0.10591970365306609,0.07639418660241938]",100.0,"[-0.013419698748839906,0.13622075928192812]",4.0,"[0.0841388905753058,0.13290043036931826]",4.0,"[-0.00464308157041739,-0.18321590807192925]",100.0,"[0.0435209166959463,0.008248256341380157]",4.0,"[-0.10164167722018985,-0.08242052854177198]",100.0,"[-0.04643359511436162,0.1859178116236885]",100.0,"[-0.05103459713904357,-0.11611151976841286]",100.0,"[-0.08950692293188557,0.12572062162878356]",4.0,"[0.16787377768738743,-0.005854478973434462]",100.0,"[0.13850938212830713,-0.05946104641722926]",100.0,"[-0.09087010398339651,-0.16674747287129743]",4.0,"[-0.042271961154656965,-0.052042320671126616]",4.0,"[-0.16144048206821093,0.012048329775517513]",100.0,"[0.09091128037512164,0.04055295497355279]",100.0,"[0.020618383713879876,0.15968739437657561]",100.0,"[-0.17423267689049518,0.059473245190794236]",100.0,"[0.06320416866804572,-0.04144123098685958]",4.0,"[-0.05373745188039589,0.020781505950825764]",100.0,"[0.002916316757507416,0.0070772019647430285]",4.0,"[-0.19395779134919514,-0.03726423673320386]",100.0,"[0.08937649865461988,0.08633353715537821]",4.0,"[0.009983933825177725,-0.07369110236243735]",100.0,"[-0.11417276953441131,-0.014494608609304419]",4.0,"[0.09149973682741826,-0.0050062087860368015]",4.0,"[0.06819443214350587,0.17861947031637931]",100.0,"[0.054643160966646634,-0.10782967004276035]",4.0,"[0.1416016871360882,0.061054211986597925]",100.0,"[0.02,0.02]",103.1025,0.0,12.0,12.0,42.0,1.0,,,,,,,
,,,,,,,5b3158ba532e3d00018e324a,684428c4a592fdff32f0d0d7,2025-06-07_13h59.07.422,shape_ratio,2024.1.5,Win32,59.88023952,684250e4f00cb30b92d1fa88,,,,,,,,,,,103.1031,103.6025,,,103.853,104.5193,left,,,,,,,,0.6,0.6509,,,,,,,103.6025,103.8529,104.5194,"[0.03004310400637615,-0.15001106103114045]",4.0,"[-0.12577563522198415,0.12014673520606992]",4.0,"[-0.02124379484274806,-0.00889054768768429]",4.0,"[-0.15460136090088158,-0.020986125583945595]",100.0,"[0.07997021839235582,0.002973348971991357]",100.0,"[-0.1644545051009237,0.09593730346291439]",4.0,"[-0.14394028383546487,-0.13261420441581162]",100.0,"[-0.04595352561431048,0.06759664849647216]",4.0,"[0.12230740327696754,-0.07396931612496352]",4.0,"[-0.05787193511631136,-0.056992253026714276]",4.0,"[-0.05059608920730302,0.14590141820666344]",100.0,"[-0.09100940512287076,0.038105114034045914]",100.0,"[-0.01126409548555082,0.108923806669121]",100.0,"[0.159945410056891,-0.10636403454678249]",4.0,"[0.013818107177475837,-0.04184320470348548]",4.0,"[0.09096832843934105,0.042109753620241976]",100.0,"[-0.13115747424771718,-0.06115402188376333]",4.0,"[-0.01248687830682315,-0.11176152736955963]",100.0,"[0.1422544481443317,0.05191553797630341]",100.0,"[-0.07530685945389913,-0.0932327003061753]",100.0,"[0.03434071768694462,0.018501439805579226]",4.0,"[0.12449765073735986,-0.14834346841436966]",100.0,"[0.06512661318542881,0.09758147474174891]",100.0,"[0.18483609695253866,0.0491236122169363]",4.0,"[0.07481117157214523,-0.14853605302778627]",100.0,"[-0.04906688004184406,-0.1739318255876736]",4.0,"[-0.15202503377421014,0.03323188246919468]",100.0,"[0.17472596555583073,-0.026877886139039492]",100.0,"[0.047221431308844784,0.1417246982941457]",100.0,"[-0.09680530184393224,0.07859219598176881]",100.0,"[-0.19246691702190447,0.05358887440530337]",100.0,"[0.0014702677754592473,-0.19729990725488047]",100.0,"[0.02,0.02]",105.6189,0.0,13.0,13.0,44.0,1.0,,,,,,,
,,,,,,,5b3158ba532e3d00018e324a,684428c4a592fdff32f0d0d7,2025-06-07_13h59.07.422,shape_ratio,2024.1.5,Win32,59.88023952,684250e4f00cb30b92d1fa88,,,,,,,,,,,105.6194,106.119,,,106.3699,106.9191,right,,,,,,,,0.1,0.5329,,,,,,,106.119,106.3699,106.9191,"[-0.06122341945947544,-0.026388951525016306]",4.0,"[0.19061622674114906,-0.009706814564161578]",4.0,"[-0.05978140278132703,0.0504366236048718]",4.0,"[-0.04987580155518672,-0.17827432652735706]",4.0,"[0.10112455655283512,-0.1319544946668096]",4.0,"[-0.05640837139819639,-0.08772674817794122]",4.0,"[-0.011726452449273362,0.19012929718584365]",4.0,"[0.09003608229821838,0.08151213380813967]",4.0,"[0.0140090329504109,0.07342575104005745]",4.0,"[-0.08291417212000228,0.1447921355563859]",100.0,"[0.07756842082416432,0.16112947875487887]",4.0,"[-0.07053979026544932,-0.1395132170364685]",4.0,"[0.04904997069498752,-0.03245659716788296]",4.0,"[0.0360798016970588,0.03915764307342656]",4.0,"[-0.005534806045334588,0.14658455425421457]",4.0,"[0.007269203416317532,-0.19462757838955214]",4.0,"[-0.11803779336841952,-0.07553778483409235]",4.0,"[-0.020563245722970795,-0.13040418665251488]",4.0,"[-0.054900601370215005,0.09025392553052405]",4.0,"[0.08718564679167748,-0.17584302021034315]",4.0,"[0.18146696323799333,0.03989554669675773]",100.0,"[-0.14566189801834262,-0.12962919600649256]",4.0,"[0.12177846347743386,0.11265343010979657]",4.0,"[0.15207539485372146,-0.020735077993064285]",4.0,"[0.1540777603575749,-0.12500195422396168]",4.0,"[0.16271148839582658,0.08298833361218923]",4.0,"[-0.007920411440161885,0.01689265724719015]",4.0,"[-0.19802760880826933,-0.005619852173503588]",4.0,"[-0.19013848422555485,0.05697035983741901]",100.0,"[0.01793295749399505,-0.06683865490538053]",4.0,"[-0.1098750145232194,0.058492669628375966]",4.0,"[0.07133329920593656,0.008663439274891513]",4.0,"[0.02,0.02]",108.0189,0.0,14.0,14.0,198.0,1.0,,,,,,,
,,,,,,,5b3158ba532e3d00018e324a,684428c4a592fdff32f0d0d7,2025-06-07_13h59.07.422,shape_ratio,2024.1.5,Win32,59.88023952,684250e4f00cb30b92d1fa88,,,,,,,,,,,108.0193,108.5189,,,108.7693,109.7526,left,,,,,,,,0.55,0.9689,,,,,,,108.519,108.7693,109.7526,"[0.14274047369368525,0.12989153018663474]",100.0,"[0.0488864551600718,0.1799686106215731]",100.0,"[0.03977818677683483,0.09650133610045623]",4.0,"[-0.00997750007824808,0.10561077555507434]",100.0,"[-0.17692487995983736,0.012012252252285282]",100.0,"[-0.07233295838678135,-0.1522023488612721]",100.0,"[0.09174232404131916,0.09921514892833926]",100.0,"[-0.07797292498066329,0.01510373687270188]",100.0,"[-0.18491073099722977,-0.05157914958226894]",4.0,"[-0.1236005495825309,0.03021564035340729]",100.0,"[0.0412861870094242,-0.03357977497249621]",4.0,"[0.04786322560173475,-0.09581687267353255]",100.0,"[0.09255297489929819,0.03938328392726249]",100.0,"[-0.0752864085842861,-0.07969361142773394]",4.0,"[-0.032405595234248824,-0.032383039705597014]",4.0,"[0.1176994819969321,-0.01839490611872341]",100.0,"[0.034357929062410246,-0.19093625710853512]",100.0,"[-0.005013521800779887,0.04538519222703953]",4.0,"[0.10921850803700274,0.152603056106469]",100.0,"[0.05863626623016631,0.017672070885091862]",100.0,"[0.11305558636771813,-0.15803031941651607]",4.0,"[0.004957300579580066,-0.12746563838495875]",100.0,"[-0.12072944364874195,0.13680131295049058]",4.0,"[-0.005830100124857478,-0.08830470205542895]",4.0,"[0.18818616145471295,-0.03280989924296748]",100.0,"[-0.05764785541880948,0.1434040673561202]",100.0,"[0.14446741917664463,0.04665878736757247]",4.0,"[0.1711216672125241,0.01575729372039936]",4.0,"[-0.131757711763756,-0.04454611850812913]",4.0,"[-0.16726301206857555,0.07899179604986468]",100.0,"[-0.16782651545828595,-0.10013864895055445]",4.0,"[-0.08622006228745846,0.0643820157345944]",4.0,"[0.02,0.02]",110.8524,0.0,15.0,15.0,67.0,1.0,,,,,,,
,,,,,,,5b3158ba532e3d00018e324a,684428c4a592fdff32f0d0d7,2025-06-07_13h59.07.422,shape_ratio,2024.1.5,Win32,59.88023952,684250e4f00cb30b92d1fa88,,,,,,,,,,,110.8529,111.3528,,,111.6025,111.9356,left,,,,,,,,0.55,0.3251,,,,,,,111.3529,111.6025,111.9357,"[0.05705838321595086,-0.049229951251915066]",4.0,"[0.1547854548894902,0.0643016564235897]",100.0,"[-0.0005478475315046117,-0.11648612159329705]",4.0,"[-0.0005337161381056074,-0.004622026598750288]",4.0,"[0.058898185665336854,-0.139093231327297]",4.0,"[0.059760818729864745,0.09940170014767308]",100.0,"[-0.01550816204208614,0.04110274291093412]",4.0,"[-0.07179872742196912,0.1413276921111682]",100.0,"[-0.1478974756924087,0.017433685816377265]",4.0,"[0.18909776874861756,0.03519223776881715]",100.0,"[-0.11764885927769675,-0.1538263945903327]",100.0,"[0.10324362695299316,0.06572743005495932]",100.0,"[-0.0011375949562000187,-0.04564872829327284]",100.0,"[-0.03104381660209777,0.0908005194118703]",100.0,"[-0.12072263076295117,-0.020823750174554935]",100.0,"[0.04180075515595919,-0.1773272290291686]",100.0,"[0.018247327442783744,0.11804749265592417]",100.0,"[0.18188858497268923,-0.08213276743906588]",100.0,"[-0.1453104211109547,0.08727686522099329]",100.0,"[-0.1253807312726762,-0.070340627157824]",4.0,"[0.1795159030384458,-0.0397214060388825]",4.0,"[0.13117181564846125,0.11258400533463622]",100.0,"[-0.022626290423557537,-0.19810992108530048]",100.0,"[-0.09115643187851402,-0.11579894104841426]",100.0,"[-0.10216850511875834,0.04896265903377366]",4.0,"[-0.05248622117790132,-0.13913037088787764]",4.0,"[0.004445364879838359,0.18681660241903486]",4.0,"[0.13243509536276607,-0.10943476619600373]",100.0,"[-0.028902759483817056,-0.07732263636665995]",4.0,"[0.08341493102770974,-0.17637128476198305]",4.0,"[0.05217785674633442,0.009007486380270343]",100.0,"[-0.12288888327356864,0.15730323027895673]",4.0,"[0.02,0.02]",113.0356,0.0,16.0,16.0,61.0,1.0,,,,,,,
,,,,,,,5b3158ba532e3d00018e324a,684428c4a592fdff32f0d0d7,2025-06-07_13h59.07.422,shape_ratio,2024.1.5,Win32,59.88023952,684250e4f00cb30b92d1fa88,,,,,,,,,,,113.0359,113.5358,,,113.786,114.3359,left,,,,,,,,0.45,0.5309,,,,,,,113.5359,113.786,114.336,"[0.1865365948396342,-0.011359351372828199]",100.0,"[-0.04365683570627502,-0.17354343629936597]",100.0,"[-0.02289486401247148,0.19492906867543652]",4.0,"[-0.06519051661521943,0.14246681032690162]",4.0,"[0.06027298162677969,0.09629046061709763]",4.0,"[-0.03714651071266938,0.08524691457795791]",100.0,"[0.04452675810937253,-0.06403071468915447]",4.0,"[0.0443968574748454,0.03397646605178533]",4.0,"[-0.0776169576231029,-0.0491985166935674]",100.0,"[-0.08702708697835364,-0.09814166201804533]",100.0,"[-0.01897355434950079,0.0330716164507549]",100.0,"[-0.1437715945163612,0.07967017015480815]",100.0,"[0.12862693566622985,-0.04201688275719097]",100.0,"[0.12478547484774216,0.08238966353606023]",4.0,"[0.06814584790934815,-0.16523296820235248]",100.0,"[0.1306864681501024,0.13299655194267399]",4.0,"[0.07095105860872253,-0.10358403616184456]",4.0,"[-0.04457257881047448,-0.09190367831426965]",100.0,"[0.18108078518978302,0.0579535389657412]",4.0,"[0.030940038476333746,-0.1848384528529718]",4.0,"[0.1540500067654345,-0.1047233568058761]",100.0,"[0.07595512670006412,-0.001395815217942668]",4.0,"[-0.024713939070730426,-0.05384154266639461]",100.0,"[-0.1510038490056034,-0.03434923267649943]",100.0,"[-0.10484313033547686,-0.15398915393906068]",4.0,"[0.05953887051287186,0.17447195146745104]",4.0,"[-0.14658551764054878,0.010665180788335525]",4.0,"[-0.07884672430470525,0.18102276509040824]",4.0,"[0.18695672377910197,-0.07001121569664258]",4.0,"[0.025125356745722797,0.14252412231036407]",4.0,"[-0.16004494019013596,-0.1132387556533096]",100.0,"[-0.09890214545316942,0.05284489063946849]",4.0,"[0.02,0.02]",115.4361,0.0,17.0,17.0,135.0,1.0,,,,,,,
,,,,,,,5b3158ba532e3d00018e324a,684428c4a592fdff32f0d0d7,2025-06-07_13h59.07.422,shape_ratio,2024.1.5,Win32,59.88023952,684250e4f00cb30b92d1fa88,,,,,,,,,,,115.4364,115.9356,,,116.1858,116.6357,right,,,,,,,,0.55,0.4419,,,,,,,115.9356,116.1858,116.6357,"[0.07582082093047937,-0.027217280271375592]",4.0,"[-0.03618648176007286,-0.12448317937520148]",4.0,"[0.11437760582139557,0.0008447843679419421]",4.0,"[0.16413071106914426,-0.06001422689949472]",100.0,"[0.019185495338660298,0.004654087198885183]",4.0,"[0.12670127010782384,-0.10272829678396998]",100.0,"[0.039666367242066174,0.15230536471863018]",100.0,"[-0.0714095660681768,-0.0011786657380644203]",4.0,"[-0.19077927901156574,0.0077682887880256195]",4.0,"[-0.102629406167118,0.05887674153968264]",100.0,"[0.1764437688238572,0.07654338016943801]",100.0,"[-0.1410141952444001,0.030905467599418972]",4.0,"[-0.16273728157553113,-0.046353038704778214]",100.0,"[0.08416174174653417,0.03459496507955093]",4.0,"[-0.01419899675916416,-0.16280867635673224]",4.0,"[-0.010650460332742306,0.188106639281489]",100.0,"[-0.05333139418597648,0.0775873059469482]",100.0,"[-0.06615176237459212,-0.0772746447720748]",4.0,"[-0.008396247157682401,-0.05005493281729503]",4.0,"[-0.13829328210639522,-0.11314738837145054]",100.0,"[-0.13291013952592776,0.14165324135485102]",100.0,"[-0.05774881200256848,0.12100518367768923]",100.0,"[0.02571460928541249,-0.1946918754473195]",100.0,"[0.04383330262188493,0.05134436677146649]",100.0,"[0.06600123367716292,-0.11434301618992052]",100.0,"[0.1094729877601673,0.1510850483935475]",4.0,"[-0.06639913859145347,-0.16318580918948708]",4.0,"[0.004090320317446003,0.0906076762635257]",100.0,"[0.029514064366956236,-0.1414358081030211]",100.0,"[-0.15074417093024753,0.1047639022042979]",4.0,"[0.18905583185108463,-0.011673108355773312]",100.0,"[-0.11302432080127497,-0.06438864630094254]",100.0,"[0.02,0.02]",117.7356,0.0,18.0,18.0,73.0,1.0,,,,,,,
,,,,,,,5b3158ba532e3d00018e324a,684428c4a592fdff32f0d0d7,2025-06-07_13h59.07.422,shape_ratio,2024.1.5,Win32,59.88023952,684250e4f00cb30b92d1fa88,,,,,,,,,,,117.7359,118.2357,,,118.4863,118.9523,left,,,,,,,,0.5,0.4542,,,,,,,118.2357,118.4862,118.9523,"[0.07252805198363649,-0.10048716918358011]",4.0,"[0.07468270645509223,0.057302736692591325]",100.0,"[0.12912962820171958,-0.06556607254567864]",4.0,"[-0.009092515540977326,0.15140183599368806]",100.0,"[-0.10967949142185741,-0.01728920009294399]",100.0,"[-0.15361267232211792,-0.008056672456699844]",4.0,"[0.049641221924995385,-0.04282052205708711]",4.0,"[0.12083355535181799,0.027294595343954703]",4.0,"[-0.13606833718042619,-0.10390102678843544]",100.0,"[-0.03255096189941402,-0.07665555759572473]",4.0,"[-0.07535719028920194,-0.17708941363042538]",100.0,"[-0.042152371641146595,-0.14120784958643004]",100.0,"[0.06881654935991273,0.18450259745245084]",4.0,"[0.01937856680150309,-0.18159645367636282]",100.0,"[0.15155807026528142,0.05856771555649918]",100.0,"[0.19614743999337184,-0.013571027498388523]",100.0,"[0.1694705606355938,0.0972778716375273]",100.0,"[0.05283853422932252,-0.1442565359210429]",4.0,"[0.09222567083043899,0.1058666477511414]",4.0,"[0.0313945714600185,0.15079030020482198]",4.0,"[-0.07662552251579663,0.08756945122102436]",4.0,"[0.18065650785920664,-0.0853915109687545]",100.0,"[-0.1051003041704761,0.03473520770960667]",4.0,"[0.08148417324006386,-0.0021542063269287077]",4.0,"[-0.058629185346590854,0.01647508152566897]",100.0,"[-0.11713849117372514,0.08091323501524517]",4.0,"[-0.08953806367659177,-0.09612404386507284]",100.0,"[-0.1740214831718653,-0.058038795571708206]",100.0,"[0.02575898486867442,-0.11248371147099917]",100.0,"[-0.19449858023663782,0.0350090725846604]",4.0,"[-0.0001745203191347352,-0.016413430604775854]",4.0,"[0.00211549222993562,0.10183800212647003]",100.0,"[0.02,0.02]",120.0524,0.0,19.0,19.0,94.0,1.0,,,,,,,
,,,,,,,5b3158ba532e3d00018e324a,684428c4a592fdff32f0d0d7,2025-06-07_13h59.07.422,shape_ratio,2024.1.5,Win32,59.88023952,684250e4f00cb30b92d1fa88,,,,,,,,,,,120.0528,120.5521,,,120.8026,121.319,left,,,,,,,,0.6,0.5087,,,,,,,120.5522,120.8026,121.3191,"[0.09496002428751753,-0.07973681645265504]",100.0,"[-0.12788330453334285,-0.03035670808435987]",100.0,"[-0.025563853430301722,0.08949430872375135]",100.0,"[0.18190284189144487,-0.0028718401868498594]",100.0,"[-0.07507357315901614,-0.04443206790756762]",100.0,"[0.12640850007434012,-0.01912140639718516]",4.0,"[-0.02368267050892958,0.16881967347281868]",100.0,"[0.14330610847501096,-0.06611604608883222]",100.0,"[0.09539574593750834,0.027851079881712305]",4.0,"[0.022566338567495386,0.18442728129479125]",4.0,"[0.027258486937531776,-0.11832025095204027]",4.0,"[0.011774746820570729,0.05935896032955277]",100.0,"[0.08809309335171317,0.16184873184408055]",4.0,"[-0.1720289169944138,0.08431390584015022]",100.0,"[-0.07419646699400645,-0.12425785198291373]",4.0,"[0.11726160802156466,-0.11348289065584556]",100.0,"[0.011465952915965746,0.11403507199335568]",4.0,"[0.041313506334589606,0.14221549984789614]",100.0,"[-0.18188413592014688,0.0023059981194205954]",4.0,"[0.09136610507354881,-0.038976194298476]",4.0,"[-0.12127277519484415,-0.12846094000857164]",100.0,"[0.06899602484469117,0.07133009719087441]",100.0,"[-0.03528497482878811,0.014679084119916325]",4.0,"[-0.12970618632199146,0.09412348415753263]",4.0,"[0.04173075099128147,0.0025146064463263495]",100.0,"[-0.016637002761313874,-0.1819029369279054]",100.0,"[-0.02694472233126075,-0.11952074111890926]",100.0,"[-0.03166490873361191,-0.029176525321252127]",100.0,"[-0.13620993400690382,-0.0843291106608559]",100.0,"[0.024585593631401188,-0.15948828345091853]",4.0,"[0.12951366996960342,0.08231862936129761]",100.0,"[-0.1332145576831004,0.13706448044935918]",4.0,"[0.02,0.02]",122.4192,0.0,20.0,20.0,48.0,1.0,,,,,,,
,,,,,,,5b3158ba532e3d00018e324a,684428c4a592fdff32f0d0d7,2025-06-07_13h59.07.422,shape_ratio,2024.1.5,Win32,59.88023952,684250e4f00cb30b92d1fa88,,,,,,,,,,,122.4197,122.9188,,,123.1696,123.8856,left,,,,,,,,0.9,0.7062,,,,,,,122.919,123.1695,123.8856,"[-0.1719390573281602,-0.009227446232585952]",100.0,"[0.16475401792241226,-0.08513189738632485]",100.0,"[-0.05746508114757118,-0.07935061779231856]",100.0,"[0.057584046956397544,-0.1538749217643434]",100.0,"[0.19836435625985016,-0.02375821202596394]",100.0,"[0.06538707296154642,0.076162026530112]",4.0,"[-0.03617715487643671,0.19076620582863785]",100.0,"[0.12184173385129979,-0.15853407999980176]",100.0,"[-0.13438615836161652,-0.06037217122765123]",100.0,"[-0.012836242613400994,-0.15933096977273348]",100.0,"[0.13003703164908126,-0.11095841510029675]",100.0,"[-0.19001984731555294,-0.06225084006348088]",100.0,"[-0.011135369590242214,0.123123613832165]",100.0,"[-0.036781897145742135,0.01939672899464163]",4.0,"[0.03723368202117465,-0.08834194865143462]",100.0,"[0.09739352326757021,0.1742431203808421]",100.0,"[0.11251544203262182,0.06868310740281997]",100.0,"[-0.09673869778304545,-0.1351364596377152]",100.0,"[-0.13753603961037078,0.13466303269332294]",100.0,"[0.04591076637583229,0.11999294905949515]",100.0,"[0.08463355134910697,-0.0795890544708039]",100.0,"[0.022974443177568474,0.06600994466011544]",100.0,"[0.10780914183198365,-0.009111976923280925]",100.0,"[-0.1372694580391707,-0.13989310378490322]",100.0,"[0.19310941924989508,0.023919816338679248]",100.0,"[-0.18395025348024235,0.0650466833815467]",100.0,"[0.04832495864871891,0.02909107819499458]",100.0,"[0.009928955695734541,0.18032151594639767]",100.0,"[0.00860691655957128,-0.19367157132193233]",100.0,"[0.03816712425476515,-0.022527706214285417]",4.0,"[-0.010887670922598354,-0.028368422802366094]",100.0,"[-0.045594684268445235,-0.1290195965902572]",100.0,"[0.02,0.02]",124.9854,0.0,21.0,21.0,18.0,1.0,,,,,,,
,,,,,,,5b3158ba532e3d00018e324a,684428c4a592fdff32f0d0d7,2025-06-07_13h59.07.422,shape_ratio,2024.1.5,Win32,59.88023952,684250e4f00cb30b92d1fa88,,,,,,,,,,,124.9858,125.4855,,,125.7361,126.4192,right,,,,,,,,0.45,0.6688,,,,,,,125.4856,125.7361,126.4193,"[0.08759609508650577,0.09371421862193491]",100.0,"[-0.04333179594867465,0.16572463226613282]",100.0,"[-0.011288820236206944,0.10707717600232376]",4.0,"[-0.07700130370541199,-0.1606950951247072]",100.0,"[0.17221189739260992,-0.0008768838551058365]",4.0,"[0.021594692142128225,-0.0603692068971851]",4.0,"[-0.14625480809841646,0.11470410592971832]",100.0,"[-0.1286549122961619,0.07348060437186524]",4.0,"[-0.11386004854972355,-0.11188567155132272]",4.0,"[0.02290365371283562,-0.1973478047867503]",4.0,"[-0.154841143371703,-0.09105102198195883]",100.0,"[0.12942286939026085,0.04377647418166831]",4.0,"[0.09276613664269566,-0.08721387120910574]",4.0,"[0.0851204619857741,0.009533779674356709]",4.0,"[-0.02906673400162423,-0.021280337416661133]",4.0,"[0.04911880401948544,0.05491008146116367]",100.0,"[-0.18509621774953383,0.06052605271754681]",100.0,"[-0.05760101506978719,0.07166950407141544]",100.0,"[0.08241546035538166,0.13766548486912805]",100.0,"[0.01634025616679871,0.01576713937293333]",100.0,"[0.04482374153590481,0.10484059725970721]",4.0,"[-0.12495515989517518,-0.03596758148806383]",4.0,"[-0.1836577880700869,0.00488678971455155]",100.0,"[0.021266539761313222,0.1610910609735031]",4.0,"[-0.02959843517745818,-0.1476742425800284]",100.0,"[0.07323481333529776,-0.04168460467799197]",4.0,"[-0.17542297439214485,-0.053630103883063954]",4.0,"[0.18363169055021292,-0.05599162240706037]",4.0,"[0.1653078417258359,0.09578784458822565]",100.0,"[-0.09627725271072499,-0.001216660628349187]",4.0,"[-0.10968131334947837,0.15254249547883533]",100.0,"[-0.02820899526596492,-0.09040735377509275]",4.0,"[0.02,0.02]",127.519,0.0,22.0,22.0,147.0,1.0,,,,,,,
,,,,,,,5b3158ba532e3d00018e324a,684428c4a592fdff32f0d0d7,2025-06-07_13h59.07.422,shape_ratio,2024.1.5,Win32,59.88023952,684250e4f00cb30b92d1fa88,,,,,,,,,,,127.5195,128.0191,,,128.2696,128.7693,right,,,,,,,,0.1,0.4803,,,,,,,128.0191,128.2696,128.7694,"[-0.06350523702589202,-0.02362922448598047]",4.0,"[-0.08093218326661544,-0.10187568157753087]",4.0,"[-0.10114050426210928,-0.048612396040083466]",4.0,"[0.18900237606447506,0.027784374696038033]",4.0,"[-0.08647306853796621,0.024632447082224052]",4.0,"[-0.016414112097259997,0.06434378138371247]",4.0,"[-0.14261077933441238,0.07610122728737462]",4.0,"[0.10507794590905932,-0.12293596029520733]",4.0,"[-0.010637515728301006,-0.05556000193629219]",4.0,"[0.07902975330488425,0.10110509478432524]",4.0,"[-0.07644864746248708,0.1622202576372148]",4.0,"[-0.043864552130562354,-0.16322830774704417]",4.0,"[0.07325731957323277,-0.045742195168252085]",4.0,"[0.1530531288640936,0.09895558776321797]",4.0,"[0.07569020588200037,0.18440286893195393]",100.0,"[0.062472210094782994,-0.17722937985126738]",4.0,"[0.13239424087462517,-0.001664548936962316]",4.0,"[0.0071156215531260605,-0.018263185751707284]",4.0,"[0.054969927055560475,0.0337156632698769]",4.0,"[-0.15579540799834124,-0.0014671132142250166]",100.0,"[0.03013987997583087,0.09001299192245692]",4.0,"[0.03716692408034069,-0.08425713691311881]",4.0,"[-0.04133228779204893,0.13907761202160002]",4.0,"[-0.08408969456134834,0.11534201560613119]",4.0,"[0.004722201974765013,0.17563677114340703]",4.0,"[0.18576419637301075,-0.05664766232797328]",4.0,"[0.04491049461134485,0.13224836591703984]",4.0,"[-0.017375122015033953,0.017967478562994233]",4.0,"[0.12088619976438274,0.05045694969879668]",4.0,"[0.005137565610613768,-0.13148940898225583]",4.0,"[-0.12820573225164333,0.03591619424441529]",4.0,"[0.09264749687342248,0.14292089415277803]",100.0,"[0.02,0.02]",129.869,0.0,23.0,23.0,194.0,1.0,,,,,,,
,,,,,,,5b3158ba532e3d00018e324a,684428c4a592fdff32f0d0d7,2025-06-07_13h59.07.422,shape_ratio,2024.1.5,Win32,59.88023952,684250e4f00cb30b92d1fa88,,,,,,,,,,,129.8694,130.3691,,,130.6081,131.019,left,,,,,,,,0.9,0.3898,,,,,,,130.3691,130.6081,131.019,"[0.08059435627317828,-0.12915799534061612]",4.0,"[0.12101135724230394,0.13027023236581275]",100.0,"[-0.11423078410923858,0.0317245936292649]",100.0,"[-0.13541579334077736,-0.11427956632741443]",100.0,"[-0.017489185972936357,-0.007091823366586831]",100.0,"[-0.025698218767247833,-0.17031157040904218]",100.0,"[0.17537232225577473,-0.05687899728269668]",100.0,"[0.01328602344614095,-0.1834955006194127]",100.0,"[0.18181726105384524,0.01715655813587398]",100.0,"[-0.12123297295204828,0.12221456640329308]",100.0,"[0.08805179416849863,0.08693887697810504]",100.0,"[-0.1790483512246985,0.08088063742919611]",100.0,"[-0.0850916351418863,-0.09643718897038332]",100.0,"[0.0037641619772563087,0.056199811567973976]",100.0,"[0.13411697626284652,0.03359741338815158]",4.0,"[-0.00810719475820976,0.17568318532992203]",100.0,"[0.1591572335898158,-0.1148102176805429]",100.0,"[0.0292820086051395,-0.03774821602883854]",100.0,"[0.18937959051731112,0.0572637246379907]",100.0,"[0.011267322778271029,-0.12058535843474405]",100.0,"[0.049186510051765844,0.0532330966752599]",100.0,"[-0.07107004950831074,0.11251747692408821]",100.0,"[-0.09662550075408581,0.07067955553722644]",100.0,"[0.03823978309009102,0.1808153973065713]",100.0,"[-0.02646706758616783,-0.05531202012143428]",100.0,"[0.007887072131445384,0.1124347844601295]",100.0,"[0.11022022447907272,-0.04528773977126463]",100.0,"[0.0798721350817455,0.025184262229903158]",100.0,"[0.1115454799871874,-0.16349787714675273]",100.0,"[-0.07826739206384573,0.16553963615238723]",100.0,"[-0.07376742406810753,-0.044716031456792434]",4.0,"[-0.05612767858956303,-0.1268081644388809]",100.0,"[0.02,0.02]",132.1191,0.0,24.0,24.0,23.0,1.0,,,,,,,
,,,,,,,5b3158ba532e3d00018e324a,684428c4a592fdff32f0d0d7,2025-06-07_13h59.07.422,shape_ratio,2024.1.5,Win32,59.88023952,684250e4f00cb30b92d1fa88,,,,,,,,,,,132.1197,132.6188,,,132.858,133.6858,right,,,,,,,,0.5,0.8005,,,,,,,132.6188,132.858,133.6859,"[-0.10290499986538074,-0.11456304277476459]",4.0,"[0.03294704549006436,0.09859154056392956]",4.0,"[-0.04817264461886741,0.06266292111676909]",4.0,"[0.03287168721075558,0.15308173334150546]",100.0,"[-0.10732080800820167,0.16258529304679548]",100.0,"[-0.06229208683561955,-0.1774695027609048]",4.0,"[0.07889814214082604,-0.09659784167381649]",100.0,"[-0.002791301584039857,-0.10087174499710182]",4.0,"[-0.059434259639345,0.15163388200949182]",100.0,"[0.146175341774342,-0.09091566971183673]",4.0,"[0.03223936107572706,-0.1562350627315107]",4.0,"[0.18755104502225564,0.03638568368135678]",4.0,"[-0.038775436571220144,-0.08252698001970181]",100.0,"[0.06894957431857214,-0.012739385919394268]",100.0,"[-0.14509004235500897,-0.08932553836808368]",100.0,"[-0.04223697110157078,-0.1344978189757794]",4.0,"[-0.002110724409271542,-0.17893249701391103]",4.0,"[0.1192156324535524,-0.04371989097807373]",100.0,"[-0.10474244002067522,0.004248690546950897]",4.0,"[-0.026091640420089254,0.182832918565581]",4.0,"[0.08124259951594118,0.06864538458237303]",100.0,"[0.012565491512109055,0.19447923028683156]",4.0,"[0.1276268403272128,0.10832696920639938]",4.0,"[-0.18871788142710486,0.032673942537089454]",100.0,"[0.05818683122069633,0.03202955764215889]",4.0,"[-0.055329854720071556,-0.019359536446045423]",4.0,"[0.08234876332302228,0.14728627429937327]",100.0,"[0.08814385784291197,-0.14081211025742077]",100.0,"[-0.006714594944173724,-0.015249880264710705]",100.0,"[0.12704106632190615,0.020096938669121458]",100.0,"[0.012249487212806184,0.04896474453325605]",100.0,"[-0.13012434743275217,0.10279297247377482]",100.0,"[0.02,0.02]",134.7858,0.0,25.0,25.0,104.0,1.0,,,,,,,
,,,,,,,5b3158ba532e3d00018e324a,684428c4a592fdff32f0d0d7,2025-06-07_13h59.07.422,shape_ratio,2024.1.5,Win32,59.88023952,684250e4f00cb30b92d1fa88,,,,,,,,,,,134.7862,135.2858,,,135.5358,136.4192,right,,,,,,,,0.45,0.8504,,,,,,,135.2858,135.5358,136.4193,"[-0.11375460558132408,0.13202635420309233]",4.0,"[-0.146874140358869,-0.09631219404080082]",4.0,"[-0.04453664173667114,0.08249723887515205]",100.0,"[0.06901307325699153,-0.1255339627607488]",100.0,"[0.03557957570529488,-0.04784780744332694]",100.0,"[-0.03945563232440044,0.1926143433096593]",100.0,"[-0.13768803328195328,0.04444628827022915]",100.0,"[0.15872303430650847,-0.03334842146478092]",4.0,"[0.03344450832982126,0.1479439165392028]",4.0,"[0.09941373677084142,-0.03152735335701622]",4.0,"[-0.09164103930463839,-0.1646546896371085]",4.0,"[-0.08051399088455509,-0.09133667822580287]",100.0,"[0.0041034337738147875,0.06183825834254452]",4.0,"[-0.06405272601397327,-0.01626853384789262]",4.0,"[0.09750663436556387,0.11290763934668954]",4.0,"[0.04583554470451281,0.00995436915885955]",4.0,"[0.007260890548463925,-0.1846205618637461]",4.0,"[0.09388947198684136,0.06779876022634175]",4.0,"[-0.029254780796762105,-0.08690743843812956]",100.0,"[0.13559280103033644,0.0831278282457785]",100.0,"[0.09590076559324878,0.16065759663835075]",4.0,"[-0.0964126593760994,0.02980797403750197]",4.0,"[-0.184063511054624,0.041854542810008194]",100.0,"[-0.17379678476773672,-0.0023478283321147924]",100.0,"[0.02255477823623284,-0.09750484125634028]",4.0,"[0.11507793402758099,-0.1156586723681649]",4.0,"[-0.12983358912787818,-0.03532077424021389]",100.0,"[-0.027999272233548055,-0.12741992681640546]",100.0,"[0.02862233917935821,0.09894990003901924]",4.0,"[0.15881158669903794,-0.08536009162365947]",100.0,"[-0.06753639959043424,0.13831075136016058]",100.0,"[0.17100643794970083,0.049929526469281595]",4.0,"[0.02,0.02]",137.5189,0.0,26.0,26.0,148.0,1.0,,,,,,,
,,,,,,,5b3158ba532e3d00018e324a,684428c4a592fdff32f0d0d7,2025-06-07_13h59.07.422,shape_ratio,2024.1.5,Win32,59.88023952,684250e4f00cb30b92d1fa88,,,,,,,,,,,137.5193,138.0191,,,138.2692,138.769,right,,,,,,,,0.1,0.4671,,,,,,,138.0191,138.2691,138.769,"[0.08692718951440336,-0.10934731135974]",4.0,"[-0.06049748018149741,0.12897732765872394]",4.0,"[-0.028375337378325767,0.06583334043602652]",4.0,"[-0.14762975427553476,0.0126971771255909]",4.0,"[-0.0006861610525847236,0.010659217758062847]",4.0,"[0.034291291393354364,-0.036556265122352063]",100.0,"[0.02471239620508225,0.12518386761450273]",4.0,"[-0.0908806007558621,-0.02174218265495279]",4.0,"[-0.10824743850985802,-0.08090901988948636]",4.0,"[0.17912330268056637,-0.055029051339018864]",4.0,"[-0.06482869869084658,-0.11590564173437463]",4.0,"[-0.14605182283019083,-0.11601204480708295]",4.0,"[0.06288289167815045,0.08081511270842806]",4.0,"[0.09309030987751546,0.10865302793283489]",4.0,"[0.18208895276136533,0.014002299989225359]",100.0,"[0.10626921543709197,0.06527735250617372]",4.0,"[0.13669747269529,-0.06299304750375312]",4.0,"[-0.12891407778885855,-0.0433989683236212]",4.0,"[-0.02778883516603526,-0.0317732530305269]",4.0,"[-0.005503577076490197,-0.07992628110290675]",4.0,"[-0.1913917180051337,0.008462268377536704]",100.0,"[-0.011469948755595934,0.18916009582649432]",4.0,"[0.0973449563443845,0.0023128985928471263]",4.0,"[-0.12344781942085847,0.07814240109123388]",4.0,"[0.09461383248941566,0.17218542002700335]",4.0,"[0.05063877225255882,-0.1470469723824406]",4.0,"[-0.1216348893059707,0.1299925391819956]",4.0,"[-0.030233831661983027,-0.16316130708188512]",4.0,"[0.14489520469858347,-0.10816635889404076]",4.0,"[0.09127423020843853,-0.17180417592210495]",4.0,"[0.05888414864962266,0.03945167652921473]",4.0,"[-0.09583981139815445,0.16747470093496358]",4.0,"[0.02,0.02]",139.8687,0.0,27.0,27.0,186.0,1.0,,,,,,,
,,,,,,,5b3158ba532e3d00018e324a,684428c4a592fdff32f0d0d7,2025-06-07_13h59.07.422,shape_ratio,2024.1.5,Win32,59.88023952,684250e4f00cb30b92d1fa88,,,,,,,,,,,139.8693,140.3687,,,140.6247,140.9526,left,,,,,,,,0.6,0.3038,,,,,,,140.3687,140.6246,140.9528,"[-0.03748928214136053,-0.12217001055261323]",100.0,"[-0.01689335588806687,0.06100992017689627]",100.0,"[-0.10499785347744399,-0.13795520731474112]",100.0,"[-0.019876258978413955,0.13564106575560034]",4.0,"[-0.14646837133452884,-0.10750454349094563]",4.0,"[-0.046111351401826574,-0.05373623444914852]",100.0,"[-0.08717300686335427,-0.03579851531515049]",4.0,"[0.09238480173375947,-0.1047010661629063]",100.0,"[0.008879461443298533,-0.0073782738458128575]",100.0,"[0.02258376581466184,-0.05010401558053392]",100.0,"[0.13125900758202472,0.0836467100728114]",100.0,"[-0.09930106042890527,0.15142133871810343]",100.0,"[0.027740913875530737,0.03446022164636781]",4.0,"[0.1864779196522297,-0.010019540459896474]",100.0,"[-0.06716739027490855,-0.18306451879558894]",4.0,"[-0.020506516283458037,-0.18131848451825336]",4.0,"[0.054724932599168385,0.16464678873900748]",100.0,"[0.16831028359770073,-0.06033338517817016]",4.0,"[-0.005915384067461446,0.19277417639438912]",4.0,"[0.03274062215912496,0.10928677644315742]",100.0,"[0.10483759290473743,-0.02439438740423715]",4.0,"[-0.14559391660772647,0.09998432725386662]",100.0,"[-0.16510552108050142,-0.010502721374041204]",100.0,"[0.11505800005295527,0.16070584431930687]",100.0,"[-0.07978314628075606,-0.09124532431029105]",4.0,"[-0.09593964944672255,0.05254426425580055]",100.0,"[-0.0996974303765693,0.10208484318609294]",100.0,"[0.05443880381565935,-0.0016232679621116031]",100.0,"[0.08598870007689674,0.03704052504676731]",4.0,"[0.04179112460881926,-0.1249893390360066]",4.0,"[-0.1052344990098777,0.0030788062900498343]",100.0,"[0.17166870554104086,0.04901247712042182]",4.0,"[0.02,0.02]",142.052,0.0,28.0,28.0,59.0,1.0,,,,,,,
,,,,,,,5b3158ba532e3d00018e324a,684428c4a592fdff32f0d0d7,2025-06-07_13h59.07.422,shape_ratio,2024.1.5,Win32,59.88023952,684250e4f00cb30b92d1fa88,,,,,,,,,,,142.0524,142.552,,,142.8022,143.5191,right,,,,,,,,0.5,0.6839,,,,,,,142.552,142.8022,143.5191,"[-0.11266239755060742,0.1443534874406211]",4.0,"[-0.017005306637426058,0.038838959200770205]",4.0,"[0.16573829883802005,-0.06287803757255309]",4.0,"[0.11467773254268106,-0.0076479660940367246]",4.0,"[0.044112266608588614,0.018193481413468337]",100.0,"[0.02558560815704749,0.0679861969348902]",100.0,"[0.09656235974656373,0.086553998760961]",4.0,"[-0.00886695797724335,-0.12056582140246792]",100.0,"[-0.09145618124574792,-0.12374129081903266]",100.0,"[0.01634076540345126,-0.07133372544716922]",100.0,"[-0.0032713535128610386,0.1960601266525472]",4.0,"[0.03118311220211072,-0.12726487845720036]",100.0,"[-0.12981744517352722,-0.1092910491856423]",4.0,"[0.11533942357009949,-0.07443926542795558]",100.0,"[0.17413508910356676,0.09454255531887402]",4.0,"[-0.07657776799157687,-0.17155809787690432]",4.0,"[-0.03530275355134931,-0.02376956058975989]",4.0,"[-0.12352236432636562,-0.06585017316489901]",100.0,"[0.13784841660188407,0.13353899120821158]",4.0,"[0.07260050476119609,-0.17315373242185336]",100.0,"[0.0988413678454274,0.17342839268105167]",4.0,"[-0.13134082146027778,0.019137532254628175]",100.0,"[-0.004116493158806064,0.12148707190418727]",100.0,"[-0.16527774968987732,0.09342295571541673]",100.0,"[0.18449138801215587,0.04438666969697007]",100.0,"[0.03676974435803108,-0.19144362085125513]",4.0,"[-0.07824696601803517,0.0000809599038770571]",100.0,"[-0.05784807217959938,0.1494618862190175]",100.0,"[-0.15708622128784364,-0.0440680351706397]",4.0,"[0.04186773774896168,-0.03353216381732863]",100.0,"[0.15509822134198717,-0.11920092871831249]",4.0,"[-0.19535789209444712,0.03121111067398595]",4.0,"[0.02,0.02]",144.619,0.0,29.0,29.0,107.0,1.0,,,,,,,
,,,,,,,5b3158ba532e3d00018e324a,684428c4a592fdff32f0d0d7,2025-06-07_13h59.07.422,shape_ratio,2024.1.5,Win32,59.88023952,684250e4f00cb30b92d1fa88,,,,,,,,,,,144.6195,145.119,,,145.3589,145.8026,left,,,,,,,,0.4,0.4194,,,,,,,145.119,145.3589,145.8027,"[-0.03170839666418885,0.16111482817724626]",4.0,"[-0.17101863306238507,0.02859065142714794]",4.0,"[0.0835729064668221,-0.154886233144563]",4.0,"[-0.0779193491306623,-0.02716255756381289]",100.0,"[0.01094217748024065,-0.16439703242283643]",100.0,"[0.08686494909247044,-0.09919086923865898]",100.0,"[-0.06836500754539136,-0.1583404404002205]",4.0,"[-0.019106796490024502,0.05010569304061274]",100.0,"[-0.11983500501718747,0.018304346730776324]",4.0,"[0.16846726384790156,-0.04044005854662636]",4.0,"[-0.1299790417610754,0.13069884936144285]",100.0,"[-0.1539990558188408,-0.09377164767290133]",4.0,"[-0.11014814505126543,0.07333059381656618]",4.0,"[-0.08428471880881624,0.03695563511348714]",4.0,"[-0.07342499640568313,0.09400361686249709]",4.0,"[0.06603399847752545,-0.02866098784331508]",100.0,"[0.08341328350178034,0.04611167417010928]",4.0,"[-0.03507782302504661,-0.1088719032028066]",100.0,"[0.025771909037216798,0.058311127854898476]",4.0,"[0.10654496498628793,0.08991331077695393]",100.0,"[0.07713225504331205,0.17033924040225934]",4.0,"[-0.06805842929221824,-0.08008399053948269]",4.0,"[0.13225440152613246,0.04736617549670397]",4.0,"[-0.034034990551340606,-0.18999960229306564]",100.0,"[0.022657729867742626,-0.012380735971992619]",100.0,"[-0.16152463481180276,-0.01189956146793408]",100.0,"[0.004111287203440035,-0.07955031388153065]",4.0,"[-0.0689041937657094,0.18378312684091289]",4.0,"[0.039745079698537016,-0.10503176741311673]",4.0,"[-0.12212356169565299,-0.1525367095717269]",4.0,"[0.16237225057508983,0.008492380437557288]",100.0,"[-0.03520862339086447,-0.04189232294797964]",100.0,"[0.02,0.02]",146.902,0.0,30.0,30.0,174.0,1.0,,,,,,,
,,,,,,,5b3158ba532e3d00018e324a,684428c4a592fdff32f0d0d7,2025-06-07_13h59.07.422,shape_ratio,2024.1.5,Win32,59.88023952,684250e4f00cb30b92d1fa88,,,,,,,,,,,146.9023,147.4022,,,147.6413,148.1521,left,,,,,,,,0.6,0.484,,,,,,,147.4022,147.6413,148.1522,"[-0.01381695121399668,-0.14179882681521097]",100.0,"[0.12473482921700836,-0.012233601729905601]",100.0,"[0.00043558887711868475,-0.013565751849729774]",4.0,"[0.16608150360144863,0.10947930013138309]",4.0,"[0.11957709566264665,-0.053016714361373604]",4.0,"[-0.06198469983200251,0.14271654403690656]",100.0,"[0.059958731517146605,-0.11861339963898408]",4.0,"[-0.09222112082852463,-0.15584619182953882]",100.0,"[-0.07215971638321517,-0.031034818063620233]",100.0,"[0.01323709681446044,-0.1825433680887519]",4.0,"[0.06472740805047045,0.1538932526297583]",100.0,"[0.027341121432257334,0.06475469715755185]",4.0,"[-0.16856678639647155,0.0986502879537923]",100.0,"[-0.0073455774361903285,0.188686618507538]",100.0,"[-0.0597566993028025,0.07829949515547796]",100.0,"[0.18771940283834898,-0.032290381493027924]",4.0,"[0.10467334973370368,0.07613229391824917]",4.0,"[-0.14254618840240327,-0.03502671719130298]",4.0,"[-0.053431106771311375,0.1824708780325449]",100.0,"[-0.05193987138736129,-0.09918776643826671]",100.0,"[-0.013803292599538658,0.08563470971796293]",100.0,"[0.05509775272047812,-0.0691687635987183]",100.0,"[-0.1413624205910437,-0.10113532459676379]",100.0,"[-0.15158260372123136,0.0092234820423103]",100.0,"[-0.1639592433260037,0.049904362880458956]",100.0,"[0.03982465839571741,0.015732117945302944]",100.0,"[0.1685828326942147,0.05086732848572722]",4.0,"[-0.10284856230088353,-0.07716491482690646]",4.0,"[0.05818455289282288,0.10278762145100682]",4.0,"[0.11913721100421794,-0.12861266764003823]",100.0,"[-0.1813289743312745,-0.06250952155934669]",4.0,"[0.04207534114269817,-0.028542310669041733]",100.0,"[0.02,0.02]",149.252,0.0,31.0,31.0,51.0,1.0,,,,,,,
,,,,,,,5b3158ba532e3d00018e324a,684428c4a592fdff32f0d0d7,2025-06-07_13h59.07.422,shape_ratio,2024.1.5,Win32,59.88023952,684250e4f00cb30b92d1fa88,,,,,,,,,,,149.2524,149.752,,,150.0057,150.4522,right,,,,,,,,0.55,0.4171,,,,,,,149.7521,150.0057,150.4522,"[-0.12147183644694871,0.055459830601521896]",4.0,"[-0.046544335796252674,0.17811517467753088]",100.0,"[0.09399792487478313,-0.10440817007757126]",4.0,"[-0.014392382729244913,0.09433346197978862]",100.0,"[0.06092467514064899,-0.07502695350940876]",4.0,"[0.12853437368385667,0.048255425887354]",100.0,"[0.14887352660269798,-0.0675655754708034]",100.0,"[-0.08120181348886182,-0.098621035680602]",4.0,"[0.04870303137320855,0.07920992358410094]",100.0,"[0.08592884885125678,0.13411489729162945]",4.0,"[0.08445800139764933,0.03948694225423074]",4.0,"[-0.02990046055050535,0.0014250420910224446]",100.0,"[-0.09645338112434923,-0.1440946134171322]",100.0,"[-0.1689126650635343,-0.07044410746326141]",4.0,"[0.09663971624779608,-0.03743595546870077]",100.0,"[0.13599637373597673,0.12581881609752923]",4.0,"[0.15586806846294474,-0.013805051821018398]",100.0,"[-0.034121605293563825,-0.04317092582586442]",4.0,"[-0.14203691710268945,0.11419168229313756]",100.0,"[-0.028004325959995056,-0.1961249872691211]",100.0,"[-0.10516863682575658,-0.048494949548638006]",4.0,"[-0.010156154627437698,-0.11265920165870891]",4.0,"[0.04647611158644481,-0.1749091502766673]",4.0,"[-0.08281185605487147,0.03207281013872899]",100.0,"[0.03991973942977906,0.15039310805516568]",100.0,"[-0.11829898380680799,0.16116128108694325]",100.0,"[0.04135471231812586,-0.11059661025735686]",100.0,"[0.15463907610425084,-0.11718058815477674]",100.0,"[-0.18554735174923462,0.007414041883019464]",100.0,"[0.03381170862207786,-0.04222077864448426]",4.0,"[0.02630533234693146,0.19723938986825074]",4.0,"[-0.001239449543696499,-0.16544508842542793]",100.0,"[0.02,0.02]",151.5522,0.0,32.0,32.0,69.0,1.0,,,,,,,
,,,,,,,5b3158ba532e3d00018e324a,684428c4a592fdff32f0d0d7,2025-06-07_13h59.07.422,shape_ratio,2024.1.5,Win32,59.88023952,684250e4f00cb30b92d1fa88,,,,,,,,,,,151.5527,152.0524,,,152.3058,153.0186,right,,,,,,,,0.6,0.6908,,,,,,,152.0524,152.3057,153.0187,"[0.12419045804604581,-0.15619378516225685]",100.0,"[-0.06351312136913786,-0.0026812039934244686]",100.0,"[-0.12369525582774547,0.11299909154033899]",100.0,"[0.15072131688630533,-0.005576597841557953]",4.0,"[0.057754353797499346,-0.10120847678444607]",4.0,"[-0.048136620074599755,0.15115419357585827]",4.0,"[-0.06516808336410111,-0.11216266416793776]",100.0,"[0.07788015762530862,-0.016758554523126246]",100.0,"[0.04912595547388123,0.1749414465714206]",100.0,"[0.17736362840311276,-0.07385719463152256]",100.0,"[-0.00854442758701395,-0.0036820968907135894]",4.0,"[0.08798226551504898,0.03734554708112669]",4.0,"[0.1393059632891337,0.06997515110477857]",4.0,"[0.010363373820740658,-0.17127221814211882]",100.0,"[0.16608329582043774,0.03560556526785223]",4.0,"[0.08988689526354005,0.16987506256713586]",100.0,"[-0.15139276795575887,-0.03140769516825977]",100.0,"[0.05737191209814035,0.09659462153585711]",4.0,"[-0.1176513730133157,0.06062236109107048]",4.0,"[-0.08105391976218682,-0.15844974864568503]",4.0,"[-0.09526711322078088,0.14492929604807067]",4.0,"[0.09411074681348897,0.12557989284024396]",100.0,"[0.13298081823976568,0.11046127048176638]",100.0,"[-0.19375381333525174,-0.024225168615256518]",4.0,"[-0.0032457126958429497,0.06527402259948592]",100.0,"[-0.12980454117034937,0.02217944055372318]",100.0,"[-0.01968026087398323,-0.08290092410467165]",100.0,"[-0.05300090590859944,0.0501217743844407]",4.0,"[-0.11885043966545117,-0.12120787335619115]",100.0,"[-0.07971447971997889,-0.060344664337466235]",100.0,"[0.10232415796595197,-0.04970990269705873]",100.0,"[0.015421055483650198,0.1184756288115336]",100.0,"[0.02,0.02]",154.1185,0.0,33.0,33.0,41.0,1.0,,,,,,,
,,,,,,,5b3158ba532e3d00018e324a,684428c4a592fdff32f0d0d7,2025-06-07_13h59.07.422,shape_ratio,2024.1.5,Win32,59.88023952,684250e4f00cb30b92d1fa88,,,,,,,,,,,154.1188,154.6189,,,154.8693,155.5691,right,,,,,,,,0.4,0.6673,,,,,,,154.619,154.8692,155.5692,"[0.02990785390746173,0.04065144319431502]",4.0,"[0.09599581521199055,-0.10526400261908257]",4.0,"[0.08157491752025156,0.14347602660120523]",4.0,"[0.05305039989247495,-0.10027311531991197]",4.0,"[0.12118888234074374,0.0483544022062072]",4.0,"[-0.10246304563200034,0.015511408825455703]",4.0,"[-0.17492311566619817,-0.009802437535103299]",4.0,"[-0.05492734158010199,-0.15034702917684833]",100.0,"[0.18289231988269486,-0.011555890109037537]",4.0,"[0.003650946451590328,0.1678946432901316]",100.0,"[0.12073612720044034,0.10203704453035825]",4.0,"[0.18984377313278014,0.054449277017796865]",4.0,"[-0.07753236603066775,0.13607531970465217]",4.0,"[0.012118920168455581,-0.0600955768415377]",100.0,"[-0.17811186066766002,-0.08331566111361509]",100.0,"[-0.09409643774919857,-0.10138091230171076]",100.0,"[-0.06125234174693991,0.04705234235483741]",4.0,"[0.0766913547445892,-0.06208730402876845]",100.0,"[0.020338356635444102,-0.18626766587368163]",100.0,"[-0.13428265548608326,0.0742768884020652]",4.0,"[-0.013662404726871536,-0.016783283381669286]",100.0,"[-0.1844797257965069,0.07258903719678196]",100.0,"[0.12669607139998162,-0.06993667649931318]",4.0,"[0.08563553398466216,-0.1630545807204268]",4.0,"[0.15935956082448918,0.027633155820772033]",4.0,"[-0.02221924934602126,-0.09587561824272266]",100.0,"[0.15544049026203313,0.12289506992055821]",100.0,"[0.040078315246075136,-0.14448631081427102]",4.0,"[0.12524909837500112,-0.00022227609417538793]",4.0,"[0.06805726904042482,0.022545227999321987]",4.0,"[-0.14442858698874544,0.11950071847345256]",100.0,"[-0.022341804853492696,-0.1899909908861177]",100.0,"[0.02,0.02]",156.6686,0.0,34.0,34.0,163.0,1.0,,,,,,,
,,,,,,,5b3158ba532e3d00018e324a,684428c4a592fdff32f0d0d7,2025-06-07_13h59.07.422,shape_ratio,2024.1.5,Win32,59.88023952,684250e4f00cb30b92d1fa88,,,,,,,,,,,156.6689,157.1686,,,157.4079,157.852,left,,,,,,,,0.55,0.4186,,,,,,,157.1687,157.4079,157.852,"[-0.10061296331325958,-0.11761681145978922]",100.0,"[0.18754787230345205,-0.06727503749157537]",4.0,"[-0.1437954210271778,0.05442562457421943]",4.0,"[-0.07190024201284878,0.0020562198039780657]",4.0,"[0.09313395673446276,0.1120131477020117]",100.0,"[-0.012893415048570597,0.11715264170408801]",4.0,"[-0.12468346070941662,-0.04954965909524868]",100.0,"[0.15213324247659227,-0.0075486572845155815]",4.0,"[0.15437668811333832,0.12279262817347594]",100.0,"[-0.028084271836816412,0.025584541614570064]",100.0,"[0.04710542640431219,-0.18237374685429691]",100.0,"[0.027979123959124625,0.1927236162334742]",4.0,"[-0.07433943647995844,0.11521948001719688]",100.0,"[-0.07912538343791886,0.058695046966650774]",100.0,"[0.11138815787210508,0.008985203868273632]",100.0,"[0.04460316261027336,-0.022190007011263578]",100.0,"[-0.02284813991438535,-0.05260875382474299]",100.0,"[0.02391998388014476,0.034823065121329044]",4.0,"[-0.038631797941633864,0.1824238310838389]",100.0,"[0.05098057879538735,0.0768910420084082]",4.0,"[0.08666687987201817,0.169974820634033]",4.0,"[0.1757275420654955,0.02551469508865864]",100.0,"[0.1186696513345765,0.14585968216258408]",100.0,"[0.17945218552740372,0.0700745017626576]",100.0,"[-0.15620639104188114,-0.02480122599554879]",100.0,"[0.053081095494964856,0.12427167349397258]",100.0,"[-0.11965414420700113,0.131584275535212]",4.0,"[0.0714260707680651,-0.13169228841670344]",100.0,"[-0.18343327606066942,0.028706578316085418]",4.0,"[0.005113114220509942,-0.1113523983497245]",4.0,"[-0.06304024185706975,-0.08137150937317761]",4.0,"[-0.05647829731292643,-0.1703391375986556]",4.0,"[0.02,0.02]",158.9519,0.0,35.0,35.0,79.0,1.0,,,,,,,
,,,,,,,5b3158ba532e3d00018e324a,684428c4a592fdff32f0d0d7,2025-06-07_13h59.07.422,shape_ratio,2024.1.5,Win32,59.88023952,684250e4f00cb30b92d1fa88,,,,,,,,,,,158.9523,159.4521,,,159.7022,160.0519,left,,,,,,,,0.5,0.3257,,,,,,,159.4522,159.7021,160.0519,"[0.006770086212230319,0.19730257534622006]",4.0,"[-0.0209900718453358,-0.014341475945379066]",4.0,"[0.07383702464657184,-0.10594056710036401]",100.0,"[-0.07278055836475347,-0.10232661200755133]",4.0,"[0.10765271529931628,0.11020016533336259]",4.0,"[-0.0346262715759175,-0.143212369308067]",100.0,"[0.15133999505002166,-0.11331336435241963]",100.0,"[0.02636000933173624,0.031042279848227355]",100.0,"[-0.09156186920457751,-0.1519048014260241]",100.0,"[-0.07814019690161193,0.04643538303053865]",100.0,"[-0.14539276365816398,0.07832037311235342]",4.0,"[-0.012316822379986842,-0.08602917674263957]",4.0,"[-0.07269841798944734,-0.0010398142807574373]",100.0,"[-0.12106485593185375,-0.12298602806822781]",4.0,"[-0.05717992158919597,-0.045262904431452325]",4.0,"[0.18831144726907842,-0.0074483157640824]",4.0,"[0.02257539581502193,-0.015066473808230374]",100.0,"[0.1320889046569043,-0.04575698557485091]",100.0,"[0.08351336021458568,-0.17465263536801448]",4.0,"[-0.12767441869067916,0.12478855138697596]",4.0,"[-0.06438113850560484,0.17744725567178815]",4.0,"[-0.18850719164022509,-0.06656383605268645]",4.0,"[-0.020004852158799494,-0.18824901387866758]",4.0,"[-0.13833147867671297,0.03748750729365535]",4.0,"[0.017434864522155327,-0.11859370748619093]",4.0,"[-0.18160621041748792,0.061304248543461795]",100.0,"[0.108372914970551,-0.0795221901473329]",100.0,"[-0.05330270189823716,0.12285375236189412]",100.0,"[0.09529333721201558,0.16075498017094933]",100.0,"[0.06657158170389996,0.06397443660827709]",100.0,"[-0.03736145875549756,0.027162917414239623]",100.0,"[0.18140574346338303,-0.06792428665405685]",100.0,"[0.02,0.02]",161.1518,0.0,36.0,36.0,97.0,1.0,,,,,,,
,,,,,,,5b3158ba532e3d00018e324a,684428c4a592fdff32f0d0d7,2025-06-07_13h59.07.422,shape_ratio,2024.1.5,Win32,59.88023952,684250e4f00cb30b92d1fa88,,,,,,,,,,,161.1522,161.6521,,,161.8919,162.5852,left,,,,,,,,0.6,0.6853,,,,,,,161.6521,161.8919,162.5853,"[0.12973893208281584,-0.025172450010008535]",100.0,"[-0.14221408325452345,0.02434556399696269]",4.0,"[-0.057850201918981256,-0.12706753778734906]",100.0,"[0.0834279654404403,0.05374683023628197]",100.0,"[0.035437503069365085,-0.06156586447523473]",100.0,"[-0.04668804441113685,-0.049820543391852004]",100.0,"[-0.11207882666005158,0.08885839333386297]",4.0,"[-0.08605441569988646,0.1603606341026539]",100.0,"[0.039200889570096195,0.15817730410309266]",4.0,"[-0.10491385062235783,-0.10054259570206467]",100.0,"[0.07382706944097989,0.1856306836732457]",100.0,"[-0.04652884288005182,-0.1911717539829934]",4.0,"[0.020509912746836608,0.03822924859553728]",100.0,"[-0.1844398434728871,0.004114101848917321]",4.0,"[-0.010054106128187029,0.1057341680813861]",4.0,"[0.10695082593539003,-0.15194848296835947]",4.0,"[-0.17893916369477395,-0.06180819396426725]",100.0,"[0.17895452045118226,0.031217961489530464]",100.0,"[-0.10743708103705503,-0.018808581381041526]",100.0,"[0.1222787936347447,0.1356330560202266]",100.0,"[-0.003399892083677789,-0.0432583745542671]",100.0,"[0.06195977304465706,-0.14414165464129022]",100.0,"[0.08288134910639407,-0.02684423807256348]",4.0,"[0.11448656586032728,-0.07703741768554122]",4.0,"[-0.014402725383241942,0.16289140852840728]",4.0,"[-0.14963332641087473,-0.11945731099273058]",4.0,"[-0.10490155823127288,-0.16551795002793104]",4.0,"[-0.01643855854671308,-0.0992738087733548]",100.0,"[0.050008445637149956,0.07658478282365248]",100.0,"[0.13381002014996443,0.0687597097311145]",100.0,"[0.07383844524609748,-0.07891102138548735]",4.0,"[0.19382143246354175,-0.03459943512811973]",100.0,"[0.02,0.02]",163.6853,0.0,37.0,37.0,55.0,1.0,,,,,,,
,,,,,,,5b3158ba532e3d00018e324a,684428c4a592fdff32f0d0d7,2025-06-07_13h59.07.422,shape_ratio,2024.1.5,Win32,59.88023952,684250e4f00cb30b92d1fa88,,,,,,,,,,,163.6858,164.1856,,,164.4357,164.9688,right,,,,,,,,0.45,0.5037,,,,,,,164.1856,164.4357,164.9688,"[-0.11954318454898064,0.04299120713258348]",4.0,"[-0.1333021834023005,0.10248369130998534]",100.0,"[-0.062415797809175715,0.04410343619609751]",100.0,"[0.07069809365736426,-0.10529867168156523]",100.0,"[0.1127516528639798,-0.09183843214896067]",100.0,"[-0.0856830443666164,0.12047706609530248]",4.0,"[0.14287656647167665,0.03759393960190928]",4.0,"[0.09260227867679774,0.14914742963897212]",100.0,"[-0.07269524548931182,-0.14351749045412654]",100.0,"[0.07733153277087784,-0.14484831714805405]",4.0,"[-0.17827188204708944,0.08103441925236901]",4.0,"[-0.012571614068655207,-0.002749215032206832]",100.0,"[-0.023605608532032637,-0.0819913392288709]",100.0,"[-0.04372845570004212,0.17576966024869523]",4.0,"[-0.15247274889454476,-0.037657205120171205]",4.0,"[0.19352991123625532,-0.04788348078873086]",100.0,"[-0.1123913886510843,-0.05205824087411889]",4.0,"[0.1381591972030536,0.12109128947816379]",100.0,"[0.08945189993818244,-0.011377338707991418]",100.0,"[-0.06052892808494242,0.003894966625602984]",4.0,"[0.16931620964782335,0.08764877181325237]",4.0,"[0.18172968425554023,-0.0007547451147626446]",4.0,"[-0.10863394189321496,-0.11883521808431365]",100.0,"[0.039171673347247714,-0.05245540390150349]",100.0,"[-0.18140791772138412,-0.005393535856655202]",4.0,"[0.024245323338154982,0.05350837105292125]",4.0,"[0.08178082339508216,0.07749178790948603]",100.0,"[0.011792311435667934,-0.1260249934149553]",4.0,"[0.08459687526179785,0.030119728869435803]",4.0,"[0.04450365339495615,-0.19061039199031696]",4.0,"[0.12528818056050464,-0.05322241836721561]",4.0,"[0.03266015481732598,-0.012817352601159578]",4.0,"[0.02,0.02]",166.0686,0.0,38.0,38.0,125.0,1.0,,,,,,,
,,,,,,,5b3158ba532e3d00018e324a,684428c4a592fdff32f0d0d7,2025-06-07_13h59.07.422,shape_ratio,2024.1.5,Win32,59.88023952,684250e4f00cb30b92d1fa88,,,,,,,,,,,166.069,166.5685,,,166.8194,167.4022,right,,,,,,,,0.4,0.5553,,,,,,,166.5686,166.8193,167.4022,"[-0.030561968093164076,-0.14197745668231118]",100.0,"[-0.10202049082845421,-0.14963460303249324]",100.0,"[0.02072749725591042,-0.14093993132987803]",100.0,"[0.12479187861720917,0.1371840412619139]",100.0,"[-0.14965260267196007,-0.08777988575217673]",4.0,"[-0.1605782890342906,0.0023277935982262696]",4.0,"[-0.11252118492497996,0.0655474407418072]",100.0,"[0.061023010588650214,-0.1895290965981729]",100.0,"[-0.007501732450009461,0.09149306880459314]",4.0,"[-0.09656368610432978,0.021751421221556756]",4.0,"[-0.011485885106082285,-0.07863964950514257]",4.0,"[0.10504244677939889,-0.12936195732217334]",4.0,"[0.0648883994060708,-0.0882467120267969]",4.0,"[0.12377121568981016,-0.002259851566627125]",100.0,"[0.17587879933326928,0.045404075620936214]",4.0,"[-0.09701812396466564,-0.08107897543728923]",4.0,"[0.15565229136976796,0.07994023764274238]",4.0,"[-0.05611208990045624,-0.04832685426093431]",4.0,"[0.18337920888575687,-0.013036185383166927]",4.0,"[0.06791210822710898,-0.03061707269738602]",4.0,"[0.023560775785575045,0.15631715912436853]",100.0,"[0.07095087561619616,0.16719303311430966]",4.0,"[0.03209248649817856,-0.002123923646439211]",100.0,"[-0.0935427089233435,0.11648523069491896]",100.0,"[0.07521569242959623,0.10445974885243571]",4.0,"[0.05090492676534616,0.05899076075589363]",4.0,"[-0.015164054501197939,0.17958597881785598]",100.0,"[0.14684395420079527,-0.12652395858736992]",100.0,"[-0.037610646366806735,-0.007668554221038027]",4.0,"[-0.13815588771283863,0.11712175821025576]",4.0,"[-0.10809258780555094,-0.03201210077454918]",100.0,"[-0.1741709416304968,-0.03535972678274118]",4.0,"[0.02,0.02]",168.5021,0.0,39.0,39.0,172.0,1.0,,,,,,,
,,,,,,,5b3158ba532e3d00018e324a,684428c4a592fdff32f0d0d7,2025-06-07_13h59.07.422,shape_ratio,2024.1.5,Win32,59.88023952,684250e4f00cb30b92d1fa88,,,,,,,,,,,168.5026,169.0022,,,169.2526,169.8185,right,,,,,,,,0.6,0.5429,,,,,,,169.0022,169.2525,169.8186,"[-0.008202559766293532,-0.16835790774969459]",100.0,"[0.059239242214191634,0.16879054085742543]",100.0,"[0.09469532134620005,0.013806185660679402]",4.0,"[-0.16586731065692123,0.06263519060453557]",100.0,"[0.049805706986625016,-0.11981481818833475]",4.0,"[-0.0397217267551711,0.006031720150050476]",4.0,"[-0.17962949799011163,-0.042587607328524915]",4.0,"[0.05042089626031139,0.029413528333389307]",100.0,"[-0.1089620943631841,0.007796396734032876]",4.0,"[0.004827863192367627,0.14779229947235467]",100.0,"[-0.15318735600743716,-0.11857482887459375]",100.0,"[-0.01672317897206668,0.09254745761580621]",100.0,"[-0.03670419488831648,0.13065103713080628]",4.0,"[0.09903627394243465,-0.030777247496863603]",100.0,"[-0.028738097529956888,-0.12746048880208052]",100.0,"[-0.11150725062925473,0.07123440016540149]",4.0,"[0.009242923454556809,0.04411860562745307]",4.0,"[0.1634899632213778,0.07678004291697291]",100.0,"[-0.0824938868665263,0.13080702105085099]",100.0,"[0.10102320755297077,0.13875356139385855]",100.0,"[0.14532446702933996,-0.02819870818618761]",4.0,"[-0.03520822218290376,0.05421182045539187]",100.0,"[0.04715091371521472,-0.1871190082853497]",4.0,"[0.19372297703362235,0.007408541645417192]",100.0,"[-0.07425717208583317,-0.09117470883427277]",4.0,"[0.071053949261157,0.08771189945117272]",100.0,"[-0.03682193009553082,-0.041330906548753876]",4.0,"[-0.06870816287684547,0.18657924326672468]",100.0,"[0.13072934880734655,-0.0886451794997977]",100.0,"[0.03980828838397679,-0.03049812253710183]",100.0,"[-0.1852310064686502,0.023423599612722106]",4.0,"[0.02588584940764368,0.09442135891407309]",100.0,"[0.02,0.02]",170.9184,0.0,40.0,40.0,45.0,1.0,,,,,,,
,,,,,,,5b3158ba532e3d00018e324a,684428c4a592fdff32f0d0d7,2025-06-07_13h59.07.422,shape_ratio,2024.1.5,Win32,59.88023952,684250e4f00cb30b92d1fa88,,,,,,,,,,,170.9187,171.4187,,,171.6691,172.7421,left,,,,,,,,0.5,1.0503,,,,,,,171.4188,171.669,172.7422,"[0.11099533183477642,-0.1538279141065456]",100.0,"[0.13049459631550916,0.048510281225296895]",100.0,"[-0.004908189704388317,-0.12505938037209588]",100.0,"[0.06753051041771486,-0.11061541196821698]",4.0,"[-0.17250208838189432,-0.05174935575631363]",100.0,"[0.025991896160833503,0.14923031304773252]",100.0,"[-0.17353654192236265,0.0732853624391162]",4.0,"[0.05694503441885249,-0.06811481499176507]",4.0,"[0.028697085933528304,0.029541835446400624]",4.0,"[-0.052911772460626394,-0.011866527321286511]",4.0,"[0.1830369678209704,-0.079341541373613]",4.0,"[0.030924611895760172,-0.01257326476376467]",4.0,"[0.13306087710444328,-0.06318689759503283]",4.0,"[-0.14814095025048887,-0.10716093141544442]",100.0,"[-0.14662094899098221,0.12977014147957827]",4.0,"[-0.06979129097467589,0.18355715760922264]",100.0,"[-0.07642319867274128,0.07537329003397679]",100.0,"[-0.11350929678100405,0.1557433441108205]",100.0,"[-0.06259907099290106,-0.15954196625692135]",4.0,"[0.12257202579525624,0.12848480603065576]",4.0,"[0.10570923191884041,0.003236243000665591]",100.0,"[-0.10179809919920718,-0.07116004354790587]",100.0,"[0.07881157572678002,0.07840980268775367]",100.0,"[0.06270904768675342,0.18119420092682162]",100.0,"[-0.06403653172541815,-0.0570001211626385]",100.0,"[0.19564144621899607,-0.036992990697637014]",4.0,"[-0.18431216945103757,0.00651985512402298]",100.0,"[-0.11833964087866358,0.042023555945586134]",100.0,"[0.018989246468107346,-0.16984158648949219]",4.0,"[0.16883229681507445,-0.004903569038407927]",4.0,"[0.07078322980793673,0.1190729816440199]",4.0,"[-0.02798681261861746,0.17534475528365032]",4.0,"[0.02,0.02]",173.8353,0.0,41.0,41.0,108.0,1.0,,,,,,,
,,,,,,,5b3158ba532e3d00018e324a,684428c4a592fdff32f0d0d7,2025-06-07_13h59.07.422,shape_ratio,2024.1.5,Win32,59.88023952,684250e4f00cb30b92d1fa88,,,,,,,,,,,173.8357,174.3355,,,174.5908,175.3351,right,,,,,,,,0.45,0.7211,,,,,,,174.3356,174.5908,175.3351,"[-0.10782537897791349,-0.06837508933450435]",4.0,"[0.01672883979515681,-0.10038046187245112]",4.0,"[-0.13369952911726393,0.12173486796402982]",4.0,"[0.0882398379264798,-0.09185274749613187]",4.0,"[-0.03808970237342381,-0.01962399315067608]",100.0,"[-0.07856427665254294,0.09143454840696567]",4.0,"[-0.1402005474102035,0.0097717488794692]",100.0,"[0.09991586120832431,-0.1506679029669212]",4.0,"[-0.027602493185464247,-0.12176831552672117]",100.0,"[0.006641886457862629,0.1758635544178064]",100.0,"[-0.08128857917947929,-0.14724851571557707]",100.0,"[0.07058526283826015,0.16729690104802142]",100.0,"[-0.008536332338139637,0.047549272208177645]",4.0,"[-0.05871098641694719,0.03464856402656713]",4.0,"[-0.041652438667878905,-0.18345782899821275]",4.0,"[0.16913701548735469,-0.0322788976848637]",100.0,"[-0.12208371534308035,-0.15718396792693706]",4.0,"[0.07063897533644987,-0.05117723458797652]",4.0,"[0.12415743344377893,-0.05939052018542901]",100.0,"[0.030571718663617947,0.02475171777655438]",4.0,"[-0.14095068886765225,-0.10588391402586761]",4.0,"[0.07203937997087825,0.11445327093082203]",4.0,"[0.12003948233007665,0.0907359157135041]",4.0,"[-0.1970848100343067,-0.019313963530996965]",4.0,"[-0.06913645396551463,0.16383711459467143]",100.0,"[0.1615675581499561,0.0323246414856657]",100.0,"[-0.015154844110412017,-0.06583351902971357]",100.0,"[-0.16934656063805248,0.08655032880361865]",100.0,"[0.00444247821591554,0.09911318103487206]",4.0,"[0.12352189569634363,0.008473459581264147]",100.0,"[-0.11451253893411108,0.05452155812054847]",4.0,"[-0.15470214332710874,-0.053143702359637474]",100.0,"[0.02,0.02]",176.4351,0.0,42.0,42.0,142.0,1.0,,,,,,,
,,,,,,,5b3158ba532e3d00018e324a,684428c4a592fdff32f0d0d7,2025-06-07_13h59.07.422,shape_ratio,2024.1.5,Win32,59.88023952,684250e4f00cb30b92d1fa88,,,,,,,,,,,176.4355,176.935,,,177.1743,177.7517,left,,,,,,,,0.55,0.5575,,,,,,,176.935,177.1742,177.7518,"[0.13987477513552055,-0.015063852850052484]",100.0,"[0.1060864609861983,-0.05084652917538137]",100.0,"[0.10844229968270414,0.1634114838752357]",4.0,"[0.09099518601957046,0.0016283764394633424]",100.0,"[-0.03956079089890253,0.0813619850804785]",4.0,"[0.008334924292014012,0.08982968967672601]",4.0,"[0.14618224499814378,-0.13593203986490088]",4.0,"[-0.10446634748737066,-0.1309277171643736]",4.0,"[-0.17798103982742103,-0.07299956728132123]",100.0,"[-0.08423811812636459,-0.04331445147046713]",100.0,"[0.1019304617655232,0.06789834114844624]",100.0,"[-0.11856908918367916,-0.08087325503510674]",100.0,"[-0.003938500586642491,-0.17605479758452605]",100.0,"[-0.17322429139061532,-0.0005418106650964408]",100.0,"[0.028527434254592997,-0.09083320655360619]",4.0,"[0.04933690895860411,0.11414690208598068]",100.0,"[-0.01487623196472248,0.1507119164250327]",4.0,"[0.05916450460513951,-0.04996552121370526]",100.0,"[-0.030258812233511786,-0.1125931722490465]",4.0,"[-0.06128612609490943,0.01362071752655203]",100.0,"[-0.024188018986781513,-0.06573115599313828]",100.0,"[0.1055504262583881,-0.1572374908823092]",4.0,"[0.191734586579507,-0.014088336758777908]",100.0,"[-0.06274382664460659,-0.17420638194234161]",100.0,"[0.02326025423198638,-0.14188750134940442]",100.0,"[-0.019611300200819397,0.04577709952054018]",4.0,"[-0.13102915296285805,0.10049372292100159]",4.0,"[-0.08058490697516281,-0.09678615984503944]",100.0,"[0.14635377752557496,0.10907052960976106]",4.0,"[0.01132730866046831,-0.010712217761381797]",4.0,"[0.03904542623749955,0.1804871530422732]",4.0,"[-0.17265057797356342,0.07473321223441717]",100.0,"[0.02,0.02]",178.8519,0.0,43.0,43.0,86.0,1.0,,,,,,,
,,,,,,,5b3158ba532e3d00018e324a,684428c4a592fdff32f0d0d7,2025-06-07_13h59.07.422,shape_ratio,2024.1.5,Win32,59.88023952,684250e4f00cb30b92d1fa88,,,,,,,,,,,178.8523,179.3521,,,179.6084,180.0356,right,,,,,,,,0.5,0.4103,,,,,,,179.3521,179.6084,180.0356,"[0.020895693984572097,-0.13145571755754978]",100.0,"[-0.005151129729696178,0.08410366345381876]",4.0,"[0.11298244078482285,-0.1237932635284943]",4.0,"[0.13514198879842398,-0.08872623063722386]",100.0,"[0.13854544098312438,0.13839422549464586]",4.0,"[0.17219576941821377,0.09052827030074137]",100.0,"[-0.1755746950862935,-0.025368643936045758]",4.0,"[0.15094470419650774,0.0033808334436738713]",4.0,"[-0.1631774476491425,0.0709834999060204]",4.0,"[-0.08703263746107412,-0.12388987041567083]",100.0,"[-0.09623968068116096,0.07210944580172629]",4.0,"[0.05848264003412664,-0.164265854040722]",100.0,"[-0.06571248394792689,0.006752938239638666]",4.0,"[0.11504238590909445,-0.021753557938862494]",4.0,"[-0.11329432379574077,0.14165127635235047]",100.0,"[0.05255552372186556,-0.08232575083678853]",100.0,"[0.08597949024062111,0.07010104644827557]",4.0,"[0.12352407646775085,0.04507277246111215]",100.0,"[0.02796895525367367,0.037942137357392214]",4.0,"[-0.03433792906445595,-0.0682297966257317]",4.0,"[-0.05444716017188948,-0.17589540320299982]",100.0,"[0.003994532833881954,0.19755550783461123]",100.0,"[0.036371001730801183,0.08563334627769938]",100.0,"[0.030653530139753124,0.1286712245844595]",4.0,"[-0.12696024963312397,-0.11913220193088014]",100.0,"[-0.011534238411076408,0.016816020125499053]",4.0,"[-0.0724034698493238,0.13506693465467298]",100.0,"[-0.09501058290965472,-0.037002964351261804]",100.0,"[-0.12000140581521596,0.0018406622555663368]",100.0,"[-0.06062114574834771,0.1881902632390381]",4.0,"[0.09900738369200202,0.14748885407978343]",4.0,"[0.07957582875848217,0.0008748970894002073]",100.0,"[0.02,0.02]",181.1351,0.0,44.0,44.0,100.0,1.0,,,,,,,
,,,,,,,5b3158ba532e3d00018e324a,684428c4a592fdff32f0d0d7,2025-06-07_13h59.07.422,shape_ratio,2024.1.5,Win32,59.88023952,684250e4f00cb30b92d1fa88,,,,,,,,,,,181.1355,181.635,,,181.8911,182.5685,right,,,,,,,,0.6,0.6558,,,,,,,181.635,181.891,182.5686,"[-0.13581238907527207,-0.06715619493616114]",100.0,"[0.1658859327690372,0.02511236753752265]",4.0,"[-0.019899232905148216,0.07230750131617078]",100.0,"[0.18598620066918523,-0.03534313063001921]",4.0,"[0.09340914614737365,0.1720210348769283]",100.0,"[-0.09017894427524874,0.16444370839796432]",100.0,"[0.10007447669820048,-0.016886769617658063]",4.0,"[-0.0005499274806126654,-0.008223821602845488]",100.0,"[0.10875989019006889,-0.07833716763733334]",100.0,"[-0.11401453046676917,0.1241396835463217]",100.0,"[-0.044899976342339276,-0.01211831130972315]",100.0,"[0.05204799691504683,0.07763465014633676]",100.0,"[-0.09806888631832736,0.038590254703960616]",100.0,"[-0.16294507750478462,0.01747233973165253]",4.0,"[-0.14824673047944703,0.06840616442554716]",100.0,"[0.018202614050498413,0.10937349910587395]",100.0,"[0.09245879693336007,0.039508193897411906]",100.0,"[-0.07141814268888733,-0.1665406080121456]",4.0,"[0.03042265204635605,0.15691457126042943]",4.0,"[-0.059963784346347214,-0.07501719689213542]",100.0,"[0.12144453891231696,0.10147428311640849]",100.0,"[0.0840094163500768,-0.17713487143854215]",100.0,"[0.06535116812287958,-0.12311889261632634]",4.0,"[-0.11985793542472986,-0.027905060083941276]",100.0,"[0.037201986033928304,-0.154818932169129]",100.0,"[0.17269875695547932,0.09063362815372475]",4.0,"[-0.169629306619841,0.10576123717806712]",100.0,"[-0.11804523178141593,-0.10847754254975965]",4.0,"[-0.016061653489002282,-0.07842715887829171]",4.0,"[-0.023526582208587426,0.0256429227822293]",4.0,"[-0.019358250217384333,-0.17442505686582532]",4.0,"[0.13083189216005464,-0.13509956693861794]",4.0,"[0.02,0.02]",183.6686,0.0,45.0,45.0,54.0,1.0,,,,,,,
,,,,,,,5b3158ba532e3d00018e324a,684428c4a592fdff32f0d0d7,2025-06-07_13h59.07.422,shape_ratio,2024.1.5,Win32,59.88023952,684250e4f00cb30b92d1fa88,,,,,,,,,,,183.6692,184.1684,,,184.4255,185.2355,right,,,,,,,,0.55,0.7855,,,,,,,184.1684,184.4254,185.2357,"[-0.0038202685841654737,0.09202621195631447]",4.0,"[-0.04524103508735322,0.15754499268461156]",4.0,"[-0.13443854807525374,0.0967161989045416]",100.0,"[0.09297255759532226,0.007844939562554611]",4.0,"[0.126131602620277,-0.03997083291658037]",4.0,"[0.010986068560842296,-0.02725739915903384]",100.0,"[0.08450994711293215,0.13459707847611393]",100.0,"[0.19172879001471854,-0.049095585873612464]",100.0,"[0.12355113891132516,0.14378689377821113]",100.0,"[-0.05000031114917316,-0.028575117193724145]",100.0,"[0.16371379105326608,-0.11397996049130554]",100.0,"[-0.10152601625451864,-0.07927897741433465]",100.0,"[-0.17088028473035502,0.01827793598498682]",100.0,"[0.16376860973650156,0.09275571478385096]",4.0,"[-0.10625496498957294,0.13868069370058528]",100.0,"[-0.09001564373032012,-0.1359596262315602]",4.0,"[-0.1518116045777678,0.058635213039503725]",4.0,"[0.09029375056727926,-0.09335145206006695]",4.0,"[0.13569133040535214,0.05769766558570211]",100.0,"[0.031620371210230994,0.16477248054033242]",100.0,"[-0.09508864360325901,-0.028233153750888983]",4.0,"[-0.052761250647827836,0.032903423945024685]",4.0,"[-0.08441748302669601,-0.178692143704471]",4.0,"[0.04149692466444117,-0.06661104514895201]",4.0,"[-0.03334811094888229,-0.11247232747982011]",4.0,"[0.049406938878025324,-0.13437427011900532]",100.0,"[0.1767256409267842,0.04217311608795053]",4.0,"[0.06462661627735071,0.05831331180152374]",100.0,"[0.03824112895740658,-0.17636022528363413]",100.0,"[-0.09553753494092551,0.0424973196408528]",100.0,"[0.02062605183268443,0.04217049817786092]",100.0,"[0.13979434852764763,-0.07819347116984206]",100.0,"[0.02,0.02]",186.3352,0.0,46.0,46.0,78.0,1.0,,,,,,,
,,,,,,,5b3158ba532e3d00018e324a,684428c4a592fdff32f0d0d7,2025-06-07_13h59.07.422,shape_ratio,2024.1.5,Win32,59.88023952,684250e4f00cb30b92d1fa88,,,,,,,,,,,186.3358,186.835,,,187.0909,187.7351,left,,,,,,,,0.45,0.6178,,,,,,,186.835,187.0908,187.7351,"[0.16978637576915448,-0.005848056431780428]",100.0,"[-0.004707426894275346,-0.019737800237713227]",4.0,"[0.031477656322381996,-0.07446923984760144]",4.0,"[0.025584267475028847,0.02231663451240844]",100.0,"[0.021007487833401232,0.08705928504480438]",4.0,"[0.09778483448722229,0.004875449548598412]",4.0,"[0.0012383037423774306,-0.18217121479888224]",100.0,"[-0.1679607856925516,0.03359770774394054]",4.0,"[-0.06023381909673412,-0.07761956588429499]",4.0,"[-0.051307809388752824,-0.18982975906752617]",4.0,"[0.05370099042607188,0.18920902306704113]",100.0,"[-0.12824273562012198,0.02037808865130637]",100.0,"[-0.09455463153066819,-0.02382298138763821]",4.0,"[0.1348153600711789,-0.12645065218773663]",100.0,"[-0.02095812654252789,0.11377061622749884]",4.0,"[0.03845328293381116,0.14519824327915407]",4.0,"[-0.08770705230859017,0.0997208921465003]",100.0,"[0.03431341870829332,-0.12942261620784806]",100.0,"[-0.1527792068707087,-0.0645348793795224]",100.0,"[0.06159096511059388,-0.16887698784231356]",4.0,"[0.14323804411290225,0.09925227442641225]",4.0,"[0.18907524479987037,0.04015787806108294]",100.0,"[-0.00782773979513089,-0.09054232431323231]",4.0,"[-0.08035334544756453,0.0192215270820536]",4.0,"[-0.12194710298049338,-0.12784917314859082]",4.0,"[0.05804861660122568,0.06092771099900075]",4.0,"[0.08619576737629783,-0.12363087526053579]",4.0,"[0.1446102206275155,-0.07257214750873271]",100.0,"[-0.05574478814968675,0.17220717650267944]",100.0,"[0.11379789416492218,0.1629122019018645]",100.0,"[-0.013125503905455955,-0.14333444975622534]",100.0,"[-0.1966573935419167,-0.0023037490380673417]",4.0,"[0.02,0.02]",188.8352,0.0,47.0,47.0,131.0,1.0,,,,,,,
,,,,,,,5b3158ba532e3d00018e324a,684428c4a592fdff32f0d0d7,2025-06-07_13h59.07.422,shape_ratio,2024.1.5,Win32,59.88023952,684250e4f00cb30b92d1fa88,,,,,,,,,,,188.836,189.3353,,,189.5887,190.3183,right,,,,,,,,0.1,0.7098,,,,,,,189.3354,189.5887,190.3183,"[-0.019305273052149435,0.17614673781525916]",4.0,"[0.07395948876752942,-0.1268335265872214]",4.0,"[-0.10652357947974135,-0.10265535143485739]",4.0,"[-0.07243505760346097,-0.1852055909951892]",4.0,"[-0.016841623215458148,-0.15119365642473548]",4.0,"[-0.014327261846871895,0.04886287436740679]",4.0,"[-0.11195735502918565,0.09829375124419908]",4.0,"[0.19085225993591826,0.04001575374281676]",4.0,"[0.03231024483805184,0.11775325380268105]",4.0,"[0.09496994874398108,-0.0297643275411283]",4.0,"[0.08066834857806866,0.07668439540485948]",4.0,"[0.15543308389156166,0.007274631452135538]",4.0,"[0.13180730378028702,-0.1131348230524556]",4.0,"[-0.043979134272195915,0.09383947718111646]",4.0,"[0.04443843508226034,-0.07779543520785881]",4.0,"[-0.15965107551075763,-0.08190186346117623]",4.0,"[0.03944235341182931,-0.18066733236124485]",4.0,"[0.12145326222907724,-0.15321905411231124]",4.0,"[0.08428242980407377,0.11726022883071885]",100.0,"[-0.14485506582982885,0.07245106759644208]",4.0,"[-0.09476443656764115,-0.060156743052704874]",4.0,"[-0.061913996966886105,-0.11056525588868833]",4.0,"[-0.10363999352374549,0.1619466277322207]",4.0,"[-0.06016833022095914,0.18313467572480294]",100.0,"[-0.06256577202725631,0.01898634344048138]",4.0,"[-0.1660346985125088,0.03307570308115669]",4.0,"[0.08991126552069098,-0.08492067085488951]",100.0,"[-0.10526682936037186,0.03969491225033584]",4.0,"[0.07989837803985528,-0.17038281181940834]",4.0,"[-0.0295509527351702,-0.19443238823438322]",4.0,"[0.054689173388762856,0.016977675882976908]",4.0,"[-0.1409441320838046,0.13322775948620988]",4.0,"[0.02,0.02]",191.4183,0.0,48.0,48.0,183.0,1.0,,,,,,,
,,,,,,,5b3158ba532e3d00018e324a,684428c4a592fdff32f0d0d7,2025-06-07_13h59.07.422,shape_ratio,2024.1.5,Win32,59.88023952,684250e4f00cb30b92d1fa88,,,,,,,,,,,191.4185,191.9185,,,192.1575,192.5516,left,,,,,,,,0.9,0.3696,,,,,,,191.9186,192.1575,192.5516,"[-0.09800993766827996,-0.06782106957989434]",100.0,"[-0.05484438338504419,0.01767283402791414]",100.0,"[0.07937626122807472,0.09261557689699657]",100.0,"[0.050754053204806936,-0.028821462322274633]",100.0,"[0.05385071645714089,0.17657982540099873]",100.0,"[0.029068945143316968,0.07196807530608539]",100.0,"[0.056185684000945736,-0.075425458166495]",4.0,"[-0.09330993624987048,0.04541318200027706]",100.0,"[-0.12060965601310294,-0.014277137675583999]",4.0,"[-0.0028167399771694833,0.013624506685562999]",100.0,"[0.05148295940006641,-0.1747357773019095]",100.0,"[-0.16764640419174165,0.060081576038816586]",4.0,"[0.08796561393330231,-0.11918371899510445]",100.0,"[-0.06292218650119273,-0.17234431283912446]",100.0,"[0.1810393119838036,0.04107761850456881]",100.0,"[-0.13064584415241,-0.13882962761698625]",100.0,"[0.1471961943074067,-0.09481592401846058]",100.0,"[-0.143515666879634,-0.0620146315975887]",100.0,"[-0.04261261545387943,0.1798840403255851]",100.0,"[0.09165361421253855,-0.002855898641167182]",100.0,"[-0.016252490265791585,0.08017231496633608]",100.0,"[-0.01056671933660955,-0.12879430664043562]",100.0,"[-0.05987465734660194,-0.10744047356819465]",100.0,"[0.015852175601783577,-0.09689091792304683]",100.0,"[0.030663187117267152,0.12151012238567023]",100.0,"[0.05286632845345949,0.035868357281590886]",100.0,"[0.10461685072992914,-0.07077492309762091]",100.0,"[0.1741081955647227,0.08269410035572446]",100.0,"[-0.1250579888985217,0.12252442567936697]",100.0,"[0.008362716503420036,0.17512558242269646]",100.0,"[-0.06675772651350424,0.08484434527124048]",100.0,"[0.10901453058910733,0.06064282832747135]",100.0,"[0.02,0.02]",193.6579,0.0,49.0,49.0,2.0,1.0,,,,,,,
