right,left,explain.started,explain.stopped,key_resp_3.keys,key_resp_3.rt,key_resp_3.duration,participant,session,date,expName,psychopyVersion,OS,frameRate,study_id,explain_2.started,explain_2.stopped,key_resp_4.keys,key_resp_4.rt,key_resp_4.duration,explain_3.started,explain_3.stopped,key_resp_5.keys,key_resp_5.rt,key_resp_5.duration,fixation.started,fixation.stopped,practice.started,practice.stopped,response.started,response.stopped,key_resp.keys,key_resp.rt,key_resp.duration,feedback.started,feedback.stopped,trials_2.thisRepN,trials_2.thisTrialN,trials_2.thisN,trials_2.thisIndex,trials_2.ran,dot_ratio,explain_4.started,explain_4.stopped,key_resp_6.keys,key_resp_6.rt,key_resp_6.duration,dotDisplay.started,dotDisplay.stopped,ITI.started,polygon_1.pos,polygon_1.edges,polygon_2.pos,polygon_2.edges,polygon_3.pos,polygon_3.edges,polygon_4.pos,polygon_4.edges,polygon_5.pos,polygon_5.edges,polygon_6.pos,polygon_6.edges,polygon_7.pos,polygon_7.edges,polygon_8.pos,polygon_8.edges,polygon_9.pos,polygon_9.edges,polygon_10.pos,polygon_10.edges,polygon_11.pos,polygon_11.edges,polygon_12.pos,polygon_12.edges,polygon_13.pos,polygon_13.edges,polygon_14.pos,polygon_14.edges,polygon_15.pos,polygon_15.edges,polygon_16.pos,polygon_16.edges,polygon_17.pos,polygon_17.edges,polygon_18.pos,polygon_18.edges,polygon_19.pos,polygon_19.edges,polygon_20.pos,polygon_20.edges,polygon_21.pos,polygon_21.edges,polygon_22.pos,polygon_22.edges,polygon_23.pos,polygon_23.edges,polygon_24.pos,polygon_24.edges,polygon_25.pos,polygon_25.edges,polygon_26.pos,polygon_26.edges,polygon_27.pos,polygon_27.edges,polygon_28.pos,polygon_28.edges,polygon_29.pos,polygon_29.edges,polygon_30.pos,polygon_30.edges,polygon_31.pos,polygon_31.edges,polygon_32.pos,polygon_32.edges,dot_size,ITI.stopped,trials.thisRepN,trials.thisTrialN,trials.thisN,trials.thisIndex,trials.ran,break_2.started,break_2.stopped,trials_3.thisRepN,trials_3.thisTrialN,trials_3.thisN,trials_3.thisIndex,trials_3.ran
subject chose dot,subject chose diamond,0.0004,67.5391,space,52.5107,,5c19b6e25ead950001bdb5a8,6842bb8b4b197d0d6f9e8885,2025-06-06_03h58.09.799,shape_ratio,2024.1.5,Linux x86_64,60.24096386,6842b561977af9ba9b0f87ca,,,,,,,,,,,,,,,,,,,,,,,,,,,,,,,,,,,,,,,,,,,,,,,,,,,,,,,,,,,,,,,,,,,,,,,,,,,,,,,,,,,,,,,,,,,,,,,,,,,,,,,,,,,,,,,,,
,,,,,,,5c19b6e25ead950001bdb5a8,6842bb8b4b197d0d6f9e8885,2025-06-06_03h58.09.799,shape_ratio,2024.1.5,Linux x86_64,60.24096386,6842b561977af9ba9b0f87ca,67.5394,99.4115,space,1.8697,,,,,,,,,,,,,,,,,,,,,,,,,,,,,,,,,,,,,,,,,,,,,,,,,,,,,,,,,,,,,,,,,,,,,,,,,,,,,,,,,,,,,,,,,,,,,,,,,,,,,,,,,,,,,
,,,,,,,5c19b6e25ead950001bdb5a8,6842bb8b4b197d0d6f9e8885,2025-06-06_03h58.09.799,shape_ratio,2024.1.5,Linux x86_64,60.24096386,6842b561977af9ba9b0f87ca,,,,,,99.4118,102.9469,space,0.5219,,,,,,,,,,,,,,,,,,,,,,,,,,,,,,,,,,,,,,,,,,,,,,,,,,,,,,,,,,,,,,,,,,,,,,,,,,,,,,,,,,,,,,,,,,,,,,,,,,,,,,,,
,,,,,,,5c19b6e25ead950001bdb5a8,6842bb8b4b197d0d6f9e8885,2025-06-06_03h58.09.799,shape_ratio,2024.1.5,Linux x86_64,60.24096386,6842b561977af9ba9b0f87ca,,,,,,,,,,,102.9684,103.4464,103.4467,103.6886,103.6889,104.8332,right,1.125,,104.8334,105.9289,0.0,0.0,0.0,1.0,1.0,0.8,,,,,,,,,,,,,,,,,,,,,,,,,,,,,,,,,,,,,,,,,,,,,,,,,,,,,,,,,,,,,,,,,,,,,,,,,,,,,,,,,,,,,,
,,,,,,,5c19b6e25ead950001bdb5a8,6842bb8b4b197d0d6f9e8885,2025-06-06_03h58.09.799,shape_ratio,2024.1.5,Linux x86_64,60.24096386,6842b561977af9ba9b0f87ca,,,,,,,,,,,105.9297,106.4156,106.4158,106.6489,106.649,107.0925,left,0.4365,,107.0926,108.1985,0.0,1.0,1.0,0.0,1.0,0.2,,,,,,,,,,,,,,,,,,,,,,,,,,,,,,,,,,,,,,,,,,,,,,,,,,,,,,,,,,,,,,,,,,,,,,,,,,,,,,,,,,,,,,
,,,,,,,5c19b6e25ead950001bdb5a8,6842bb8b4b197d0d6f9e8885,2025-06-06_03h58.09.799,shape_ratio,2024.1.5,Linux x86_64,60.24096386,6842b561977af9ba9b0f87ca,,,,,,,,,,,,,,,,,,,,,,,,,,,,108.1988,113.4144,space,2.1981,,,,,,,,,,,,,,,,,,,,,,,,,,,,,,,,,,,,,,,,,,,,,,,,,,,,,,,,,,,,,,,,,,,,,,,,,,,,,,,,,,
,,,,,,,5c19b6e25ead950001bdb5a8,6842bb8b4b197d0d6f9e8885,2025-06-06_03h58.09.799,shape_ratio,2024.1.5,Linux x86_64,60.24096386,6842b561977af9ba9b0f87ca,,,,,,,,,,,113.4333,113.927,,,114.1916,114.8607,right,0.6627,,,,,,,,,0.9,,,,,,113.9273,114.1915,114.861,"[0.060432493492214794,0.17407293648194458]",100.0,"[0.1225618477576032,-0.14683160722547028]",100.0,"[-0.042677187277083806,-0.02374021782524726]",100.0,"[0.06342537359016498,-0.0065705355430267865]",100.0,"[-0.02620615177874776,0.14714658135581138]",100.0,"[0.054976249882887615,0.08082620405627976]",100.0,"[-0.04908428819825532,-0.12692163518555727]",100.0,"[0.007272311930945992,0.10602616570871351]",100.0,"[0.038149392589208686,-0.14217177918887036]",100.0,"[-0.0872463087233478,0.016111129733715375]",100.0,"[-0.10106069519783188,0.06750390194927594]",100.0,"[-0.04476925685160875,0.024936880774819488]",100.0,"[-0.034477915107009635,0.06380998329999993]",100.0,"[0.04676521553215592,-0.19216745764777338]",4.0,"[0.04063020353206051,0.1339044601768839]",100.0,"[-0.024985702297861484,0.19394174263341027]",100.0,"[0.10907059657371976,0.07160939263568024]",100.0,"[0.09640545055729835,0.11607729914940244]",100.0,"[-0.08024432086250223,-0.0911577277000922]",100.0,"[0.13209000386639963,-0.010161919632202499]",100.0,"[-0.0965406779402978,-0.051899079865898944]",100.0,"[0.014046516818312713,-0.05650202155318362]",100.0,"[-0.07542713700333196,0.11546437871697199]",100.0,"[0.04502542202360032,-0.10255434224863877]",4.0,"[-0.007789057450885874,-0.17331217676665023]",100.0,"[-0.18241845059145992,-0.011201848608631163]",100.0,"[0.002277995366351218,0.03893332523041969]",100.0,"[0.0916091086564596,-0.03658029511008013]",4.0,"[-0.0963328577364375,0.17459692040125008]",100.0,"[0.10297510228354657,-0.09519179587611007]",100.0,"[0.18541272859025848,-0.03153974238658578]",100.0,"[-0.1715981917395581,0.07889647597148172]",100.0,"[0.02,0.02]",115.9635,0.0,0.0,0.0,1.0,1.0,,,,,,,
,,,,,,,5c19b6e25ead950001bdb5a8,6842bb8b4b197d0d6f9e8885,2025-06-06_03h58.09.799,shape_ratio,2024.1.5,Linux x86_64,60.24096386,6842b561977af9ba9b0f87ca,,,,,,,,,,,115.9637,116.4657,,,116.6898,117.2039,right,0.4898,,,,,,,,,0.9,,,,,,116.4658,116.6897,117.2039,"[0.10786667596008241,0.017179949562657747]",100.0,"[-0.026363014740731758,-0.029824144724426908]",100.0,"[0.10562348902623235,0.09798092981608252]",100.0,"[-0.15356741227118814,-0.051945039588369796]",100.0,"[0.012807399179300192,-0.060599018630053215]",100.0,"[0.05715582494478928,0.020667810997820724]",100.0,"[0.15502894784024995,0.03396528156555806]",100.0,"[-0.061310255791227834,-0.1233505598656997]",100.0,"[0.053633612960992026,-0.0846494179977223]",100.0,"[-0.048851759542852334,0.06465871075199729]",100.0,"[0.14162318746310953,-0.06147751656337714]",100.0,"[-0.08055230346961835,0.16949448580875598]",4.0,"[0.022385194051867414,0.08959967280562793]",100.0,"[0.02424983324681267,0.18817915879460384]",4.0,"[0.06071081765556063,0.15200659549076026]",100.0,"[-0.07951760252368406,0.022379749717922216]",100.0,"[-0.148785410838544,0.03014911041556175]",100.0,"[-0.01317703294132681,0.010697297432905374]",100.0,"[-0.10199293234970741,0.11507422154015604]",100.0,"[-0.035496857919089415,0.16006173081107833]",100.0,"[0.08902797587177018,-0.1193292564143904]",100.0,"[-0.18815790823154332,0.06483697971769951]",100.0,"[0.19834673066826883,0.0059019318551616]",100.0,"[0.011309928838953952,-0.15306955851717322]",100.0,"[0.08827910358894384,-0.16812544039507477]",100.0,"[-0.11747696284816597,0.06138567063423375]",100.0,"[-0.14044338844141188,-0.09247981465718294]",100.0,"[-0.05437432550145206,0.104586036892625]",100.0,"[0.11554898036249373,0.14779763950546584]",100.0,"[-0.10140730625593784,-0.12738462157746164]",100.0,"[-0.043625864587063905,-0.1809376422791761]",4.0,"[-0.0015905613613779418,0.05287738590322901]",100.0,"[0.02,0.02]",118.2914,0.0,1.0,1.0,18.0,1.0,,,,,,,
,,,,,,,5c19b6e25ead950001bdb5a8,6842bb8b4b197d0d6f9e8885,2025-06-06_03h58.09.799,shape_ratio,2024.1.5,Linux x86_64,60.24096386,6842b561977af9ba9b0f87ca,,,,,,,,,,,118.2917,118.7683,,,119.0,119.9342,right,0.9276,,,,,,,,,0.55,,,,,,118.7683,119.0,119.9343,"[0.13096875930310692,0.12437395586390687]",100.0,"[-0.13003496648827328,-0.1036425182615296]",4.0,"[-0.09376494311305164,0.007465576107223098]",100.0,"[-0.0068356186653050184,-0.1268793552758492]",4.0,"[0.02290540189398183,-0.031227193915592213]",100.0,"[-0.03708654532437809,-0.040532931641656104]",100.0,"[0.11147393703440883,-0.03610699241593062]",4.0,"[0.10358765184554643,0.012423003388546034]",4.0,"[0.06901071464329028,-0.06087064882456662]",4.0,"[0.008462069113748307,0.02939792323657235]",100.0,"[0.051379179652086146,0.09622027963424465]",100.0,"[-0.015070598907276737,0.13205266522092374]",100.0,"[-0.10824449112845087,0.04514950196135018]",100.0,"[0.0882328316683672,0.13460492544406405]",100.0,"[-0.1768092700293159,-0.0774817235165739]",4.0,"[0.12708786543431363,0.052903896223345875]",4.0,"[-0.06726882052364337,0.11280682530432955]",4.0,"[0.04625069661530147,0.14742646605750387]",4.0,"[0.0763617965070826,-0.12299348361374289]",100.0,"[0.173657936743612,-0.00978579806820544]",100.0,"[-0.12909464993741485,-0.03277804339379743]",4.0,"[-0.055925761246442496,-0.12915823052996292]",100.0,"[0.04982218826681533,-0.16918632774015185]",4.0,"[-0.1563465861795295,0.027914944153645305]",100.0,"[-0.03165407540426485,0.196454252649647]",100.0,"[-0.06251801908238207,-0.18970886210300444]",4.0,"[0.15873214193280114,-0.08566043439980808]",100.0,"[0.12954524473020818,-0.13785060549119424]",100.0,"[0.0515927921324757,0.19112550252933738]",100.0,"[-0.0077408285759079055,-0.19093915702105516]",4.0,"[-0.18208382959734237,0.07241209036064188]",100.0,"[-0.04154468721732372,0.08109339282795368]",4.0,"[0.02,0.02]",121.0286,0.0,2.0,2.0,76.0,1.0,,,,,,,
,,,,,,,5c19b6e25ead950001bdb5a8,6842bb8b4b197d0d6f9e8885,2025-06-06_03h58.09.799,shape_ratio,2024.1.5,Linux x86_64,60.24096386,6842b561977af9ba9b0f87ca,,,,,,,,,,,121.0289,121.5198,,,121.7756,122.2018,left,0.4195,,,,,,,,,0.1,,,,,,121.5198,121.7756,122.2018,"[0.05782263142329399,-0.0004317427863261545]",4.0,"[-0.162659284308783,-0.06329735164180675]",4.0,"[0.10978547558537428,0.11983915893986641]",4.0,"[-0.06686693267745389,0.06823610844768882]",4.0,"[0.026286947731924845,-0.1770164083232006]",4.0,"[-0.0562797364530553,0.13603727243391905]",4.0,"[-0.1329131024402447,0.017296942135564947]",4.0,"[0.021592021145858484,0.15200114797593478]",4.0,"[0.1587099392494433,-0.11230459699010041]",4.0,"[0.12135298289614654,-0.09569156315419819]",4.0,"[-0.0021834093740600987,-0.13543429607290058]",4.0,"[-0.1406023652058176,-0.027331242127858955]",100.0,"[0.08271348874647526,-0.0773518727878295]",4.0,"[-0.0436698706333997,-0.12942512904527637]",4.0,"[-0.1642841975476408,0.04989188853735779]",4.0,"[0.16098656589064256,0.06363872335597477]",4.0,"[0.06877331672057678,-0.17618338954363733]",4.0,"[-0.04724560211950227,-0.06967221037653329]",4.0,"[-0.020518712227711896,0.10581124985015278]",4.0,"[-0.016841821591471955,-0.0004616994859774846]",4.0,"[0.17762852465175327,0.00507473861350576]",4.0,"[0.006359498144739613,-0.07897812912660118]",4.0,"[-0.10671030420373967,-0.10158535577609344]",4.0,"[-0.05280268973582881,-0.17885154894234984]",4.0,"[-0.1572359807552009,0.09059633546444502]",4.0,"[0.09327289076299691,0.04179711856752131]",4.0,"[-0.09178462476394152,-0.02156722863045747]",4.0,"[0.05517254005565913,0.06888288525517426]",4.0,"[0.13886048413048604,0.018501006373174037]",100.0,"[0.1852612925718398,-0.06029057909608223]",4.0,"[0.020112502216045595,0.09259096570656021]",100.0,"[-0.11306123811909546,0.05626491163248762]",4.0,"[0.02,0.02]",123.2935,0.0,3.0,3.0,195.0,1.0,,,,,,,
,,,,,,,5c19b6e25ead950001bdb5a8,6842bb8b4b197d0d6f9e8885,2025-06-06_03h58.09.799,shape_ratio,2024.1.5,Linux x86_64,60.24096386,6842b561977af9ba9b0f87ca,,,,,,,,,,,123.2937,123.773,,,124.0114,124.6764,left,0.6585,,,,,,,,,0.6,,,,,,123.773,124.0114,124.6764,"[-0.13284675848787833,-0.04517750980310933]",4.0,"[0.05879877556106212,0.005031131678380892]",100.0,"[0.05241876774807965,0.17670167331350922]",100.0,"[-0.13134057870905397,0.11754233128357812]",100.0,"[0.01268059175622629,-0.16918740911743296]",4.0,"[-0.07412875129866289,-0.061761695269751365]",100.0,"[-0.0522360832320995,0.12365490550228883]",4.0,"[-0.10033777521601665,0.06267432479438403]",4.0,"[-0.18504159266578565,0.055016991928550786]",100.0,"[0.11083061284959578,0.07337598597717017]",4.0,"[0.12802314750849836,-0.10548508139147651]",4.0,"[-0.037778618714112804,0.18470651936632387]",100.0,"[0.03554169848316148,-0.07655022036186464]",100.0,"[0.10069900537060936,-0.052961695588134204]",4.0,"[-0.047933878966832835,-0.005036779690743892]",100.0,"[0.07185093541520927,-0.16669921286113287]",4.0,"[0.010444588931079773,-0.03989746782354601]",100.0,"[-0.09584785229243205,-0.17505702261741604]",100.0,"[-0.033948334663179994,-0.0441855264900193]",100.0,"[-0.07424166833020789,-0.11094598529277026]",100.0,"[0.18086893959008712,-0.029394891608756094]",100.0,"[-0.1617869220014112,-0.005776314952780836]",100.0,"[-0.14523296664746707,-0.09789068529479157]",4.0,"[-0.03248361255049899,-0.18502168040160838]",100.0,"[0.05884617517068405,0.08417677420482375]",4.0,"[0.16949295539766238,0.0811843298128402]",100.0,"[-0.18884271464734795,-0.05528387595149258]",4.0,"[0.005247993281126641,0.10010328627534082]",4.0,"[0.07584741332621436,-0.09924712839452313]",4.0,"[-0.14059675348479014,0.03527172177427266]",100.0,"[-0.05503184938997298,0.06700464779581816]",100.0,"[0.18583111664319515,0.031465988996682036]",100.0,"[0.02,0.02]",125.7908,0.0,4.0,4.0,46.0,1.0,,,,,,,
,,,,,,,5c19b6e25ead950001bdb5a8,6842bb8b4b197d0d6f9e8885,2025-06-06_03h58.09.799,shape_ratio,2024.1.5,Linux x86_64,60.24096386,6842b561977af9ba9b0f87ca,,,,,,,,,,,125.7909,126.2719,,,126.5031,126.9121,right,0.4002,,,,,,,,,0.9,,,,,,126.2719,126.503,126.9123,"[-0.009728645090101526,0.012614692354194013]",100.0,"[0.06103661971698035,-0.14548417155308627]",100.0,"[0.11330648321257195,-0.1312769829074538]",4.0,"[-0.013319622621958724,-0.08084894088972064]",100.0,"[0.08955840695798495,0.030953891234990056]",100.0,"[-0.014832212919436764,-0.17130640494472257]",100.0,"[-0.07808947829181578,0.1365265867047221]",100.0,"[-0.13161478103392002,-0.11428760308205718]",100.0,"[0.04267367208651977,0.105986139667224]",100.0,"[0.17313528467350342,0.01673904635269419]",100.0,"[-0.05097722979563378,0.03100979163262635]",100.0,"[0.1160811395131992,-0.0376205565246814]",100.0,"[-0.008557095593457482,0.10335099143331913]",100.0,"[-0.1484938834089565,0.08926632568395942]",4.0,"[0.05909428815354471,-0.07022947171982871]",100.0,"[0.1244971156160843,0.06675942134726011]",100.0,"[0.015885985751830197,-0.10956333766471639]",100.0,"[0.1184368406546182,0.13161317145214868]",100.0,"[-0.13035042413059988,0.04614992131012138]",4.0,"[-0.05619496266323079,-0.09660763023356614]",100.0,"[-0.09720611887536706,-0.0805146855753154]",100.0,"[-0.180687566142228,-0.0398601689245504]",100.0,"[0.13541856278040215,-0.0025956248226215667]",100.0,"[-0.09580670433910105,-0.17259486482079356]",100.0,"[0.17970163230870706,-0.06383392082647257]",100.0,"[0.025648869644612982,0.03155338838552145]",100.0,"[-0.04383850804670121,-0.04619948043056443]",100.0,"[0.024119330443336747,0.18469101075293712]",100.0,"[-0.13251799542167758,-0.007152642637272]",100.0,"[-0.0064281759699874675,0.06031672464402485]",100.0,"[0.1645557616716858,0.05866181891722927]",100.0,"[0.1439659331250183,-0.10166977264957902]",100.0,"[0.02,0.02]",127.9952,0.0,5.0,5.0,24.0,1.0,,,,,,,
,,,,,,,5c19b6e25ead950001bdb5a8,6842bb8b4b197d0d6f9e8885,2025-06-06_03h58.09.799,shape_ratio,2024.1.5,Linux x86_64,60.24096386,6842b561977af9ba9b0f87ca,,,,,,,,,,,127.9955,128.4962,,,128.7255,129.2607,left,0.5285,,,,,,,,,0.4,,,,,,128.4962,128.7255,129.2608,"[0.11216893967287211,0.16325138198884406]",100.0,"[-0.0021877769218099467,0.12501394091404883]",4.0,"[0.0714367801685321,-0.0444869821212192]",4.0,"[-0.1572666424100956,-0.04613676523437139]",100.0,"[-0.02173793139746166,0.02688402475244276]",100.0,"[-0.06880661335990157,-0.13150935479519746]",4.0,"[-0.07901048851718658,0.12809216270226198]",4.0,"[-0.14539210903134187,-0.1350352167524591]",100.0,"[-0.024698331299251763,-0.09470972778808975]",4.0,"[-0.02944278077399085,-0.17368610814373206]",100.0,"[0.1428065289560811,0.1257914991891706]",100.0,"[0.1352648922842557,0.08126514262111068]",4.0,"[-0.015792162117720183,0.17108563737305807]",4.0,"[0.17733828339149887,0.09178041758811217]",100.0,"[0.19230145770543852,0.04537608516912929]",100.0,"[-0.12172719348741201,-0.06831651665724307]",4.0,"[0.06151767556702055,-0.0015084284216131027]",100.0,"[-0.11100085737504352,0.099623915040353]",4.0,"[-0.05255031783742442,-0.04406305357939186]",4.0,"[0.07930649772737527,0.08824477743081233]",4.0,"[0.03655304896949477,0.04575414829425163]",4.0,"[0.0363480252844518,-0.06901351691179637]",4.0,"[-0.06461476429398337,0.034407993344504194]",4.0,"[-0.11019495411080844,0.034474215819707416]",4.0,"[-0.10023805128571692,-0.03018552827101093]",4.0,"[0.1590200147611359,-0.11070169756062144]",100.0,"[0.0417911969401698,-0.1753574315179512]",100.0,"[0.17336722249381092,-0.041575554741991205]",100.0,"[0.03580082177647522,0.182131552537174]",100.0,"[-0.08277629926273782,-0.08937040551202065]",4.0,"[0.11208573570200647,-0.09134619900471946]",4.0,"[0.061890345275591827,0.12768315112409354]",4.0,"[0.02,0.02]",130.3394,0.0,6.0,6.0,161.0,1.0,,,,,,,
,,,,,,,5c19b6e25ead950001bdb5a8,6842bb8b4b197d0d6f9e8885,2025-06-06_03h58.09.799,shape_ratio,2024.1.5,Linux x86_64,60.24096386,6842b561977af9ba9b0f87ca,,,,,,,,,,,130.3397,130.8448,,,131.0766,131.7985,right,0.7152,,,,,,,,,0.6,,,,,,130.8448,131.0766,131.7985,"[-0.1055636580138224,-0.04336562910649088]",100.0,"[-0.09421520097234425,0.15457360622535596]",100.0,"[-0.022359281864380576,-0.0025717444236065955]",100.0,"[0.09874592129963596,-0.06173207079906841]",4.0,"[-0.1022820871006291,0.07082466155994091]",4.0,"[0.006805095845191106,0.10664839455125907]",100.0,"[0.07349410258132921,0.1153020705164851]",100.0,"[0.049505301938897815,-0.019769246957671908]",4.0,"[-0.12604407983383997,-0.12372749510877307]",100.0,"[0.18031493988795455,-0.017222382874776156]",100.0,"[0.09991231066013942,-0.1054774982969038]",100.0,"[-0.06415806845223028,0.056418131546434304]",4.0,"[0.13247221934565157,0.1316073653161956]",4.0,"[0.021698470373740616,0.17721686477876783]",4.0,"[0.06546603688203063,0.05495608594988505]",100.0,"[-0.14321664922724806,-0.06882083398435364]",4.0,"[-0.09721877283844277,-0.16794774336345625]",100.0,"[-0.13679830779297958,0.04548666166146699]",4.0,"[-0.04242520454375093,-0.08105956412757916]",100.0,"[-0.1815804399003192,-0.0438192463115443]",4.0,"[0.06978038479617867,0.17380468384799871]",100.0,"[0.17133761378741313,0.027431018326559795]",100.0,"[0.147356505189573,0.08611940745355323]",4.0,"[-0.05858172194852078,0.181910670160085]",100.0,"[-0.004705975489426339,-0.17221777329542098]",4.0,"[0.15230912853861123,-0.05009911400436998]",100.0,"[0.03430937620917083,-0.14708434478067492]",100.0,"[0.021078416343505674,-0.10689297859652457]",4.0,"[-0.1769232490526326,0.07790178742580295]",100.0,"[0.12456002328665569,0.016435104701717346]",4.0,"[0.10852434677774346,0.07159026148793193]",100.0,"[-0.04717283332789259,-0.1818290029421222]",100.0,"[0.02,0.02]",132.9097,0.0,7.0,7.0,48.0,1.0,,,,,,,
,,,,,,,5c19b6e25ead950001bdb5a8,6842bb8b4b197d0d6f9e8885,2025-06-06_03h58.09.799,shape_ratio,2024.1.5,Linux x86_64,60.24096386,6842b561977af9ba9b0f87ca,,,,,,,,,,,132.91,133.3919,,,133.6467,134.1091,right,0.4557,,,,,,,,,0.9,,,,,,133.3919,133.6467,134.1092,"[0.04888097798165554,-0.10163921381668177]",100.0,"[-0.13578674266222468,-0.04860980910461032]",100.0,"[-0.0877606798938788,-0.05045135441593378]",100.0,"[-0.14386214667062344,0.1068779015503467]",100.0,"[-0.0714799905574194,-0.17446667944376398]",100.0,"[0.09580274410538359,0.015047710224788952]",100.0,"[-0.19188968150646551,-0.04850027074847096]",100.0,"[0.00477645589337714,-0.17645061849250382]",100.0,"[0.08745384274636085,-0.1570054155292417]",100.0,"[0.19497497056434895,-0.02667956475483025]",100.0,"[0.10697815253453327,0.09529680534458129]",100.0,"[-0.16664722334984516,-0.08239618849766606]",100.0,"[0.008600285791202816,0.0680761694983]",100.0,"[0.049269569918101566,-0.016812701131183036]",100.0,"[0.13444969434000717,-0.1232071955161402]",100.0,"[-0.029906247614104785,0.18942101933601244]",100.0,"[0.06714045671485437,0.1788453927199761]",100.0,"[-0.06339614257774377,0.06339432985938051]",4.0,"[0.13812561290533165,-0.04688250818918721]",100.0,"[-0.055570252669511926,0.1404697877242692]",4.0,"[-0.004845204463304336,-0.06902195253869575]",100.0,"[0.16235373765730224,0.05018278842338226]",100.0,"[0.01602180260627935,0.1658460127655085]",100.0,"[0.09225719835707369,-0.06955664883643327]",100.0,"[-0.10790014299962596,0.03096472356597165]",100.0,"[0.0015738831075978756,0.0025899616475961824]",100.0,"[-0.006312539101176694,-0.11719033601023553]",4.0,"[0.006148255427144919,0.12003883007548549]",100.0,"[-0.04671394144279816,-0.10416854970106094]",100.0,"[-0.11712895824571144,-0.13326124083788432]",100.0,"[0.10672829358520836,0.15251677999655724]",100.0,"[-0.12237466033388107,-0.01018689819554229]",100.0,"[0.02,0.02]",135.2005,0.0,8.0,8.0,17.0,1.0,,,,,,,
,,,,,,,5c19b6e25ead950001bdb5a8,6842bb8b4b197d0d6f9e8885,2025-06-06_03h58.09.799,shape_ratio,2024.1.5,Linux x86_64,60.24096386,6842b561977af9ba9b0f87ca,,,,,,,,,,,135.2007,135.6774,,,135.9262,136.3275,right,0.3944,,,,,,,,,0.9,,,,,,135.6775,135.9262,136.3276,"[-0.057506264831773776,-0.1284743243870045]",100.0,"[-0.04871169076020875,-0.06115377906825103]",100.0,"[-0.09255353607333548,0.04061422495878096]",4.0,"[0.12486838878431145,0.13676627148446596]",100.0,"[0.00255530537052683,-0.17186846530229263]",100.0,"[0.000659671218789198,0.03850766830555582]",100.0,"[0.012492458150166356,0.17602352770937799]",100.0,"[-0.09394043958167198,-0.1763626676958002]",100.0,"[-0.011858478602588686,-0.020317948324233535]",100.0,"[0.17950667420192382,0.04858336054156131]",100.0,"[-0.0035116013672578305,0.12320292225651513]",100.0,"[-0.1022724234454534,-0.10946414886579178]",4.0,"[-0.0854293099479653,-0.009305686096912485]",100.0,"[0.097260381797004,0.17372437450585937]",100.0,"[0.0740500514665292,-0.12933774221049057]",100.0,"[0.03281107902083436,0.09568447916203596]",100.0,"[0.08026769919527729,0.09626499922458949]",100.0,"[-0.06830743105934661,0.1848124150799571]",100.0,"[-0.06628195181773842,0.12485773984675454]",100.0,"[0.1497495074212962,-0.12143102579780299]",100.0,"[-0.10847618560052183,0.13337473250612222]",4.0,"[0.1969836885698501,-0.001436211545419879]",100.0,"[-0.16791452848257535,0.05973476502221706]",100.0,"[0.12196838908214372,0.07158084965377047]",100.0,"[0.14252755494771652,-0.06420200965896745]",100.0,"[0.04909390820829529,0.15554241313011336]",100.0,"[-0.19890150266147164,-0.015539772624146374]",100.0,"[0.060583967920925116,-0.17217540381513746]",100.0,"[0.07725217445865344,-0.036519162181299525]",100.0,"[-0.14363483273521885,0.007203855167018997]",100.0,"[0.007610794834535603,-0.10881268408867106]",100.0,"[0.12279225690698725,0.006684545707757111]",100.0,"[0.02,0.02]",137.4173,0.0,9.0,9.0,7.0,1.0,,,,,,,
,,,,,,,5c19b6e25ead950001bdb5a8,6842bb8b4b197d0d6f9e8885,2025-06-06_03h58.09.799,shape_ratio,2024.1.5,Linux x86_64,60.24096386,6842b561977af9ba9b0f87ca,,,,,,,,,,,137.4178,137.9147,,,138.1696,138.5445,left,0.3678,,,,,,,,,0.1,,,,,,137.9147,138.1696,138.5446,"[0.0946298551392269,-0.10569409462478427]",100.0,"[-0.11891828048289561,0.022646825228291312]",4.0,"[-0.10946782765278652,-0.15157654188431827]",4.0,"[-0.10691561925938402,0.0802732638723434]",4.0,"[-0.04692581302152355,0.14970378195363346]",4.0,"[0.16692198157563257,-0.08375295110283118]",4.0,"[-0.06919687098432555,0.0017892627443479516]",4.0,"[-0.08101125029489267,0.11348358900404411]",4.0,"[-0.09497883637357689,0.16979148123215523]",4.0,"[0.10820125987338605,0.02717192430913089]",4.0,"[-0.028031494866482872,0.005644029281274559]",4.0,"[0.0009026553429791706,-0.17235511898019604]",4.0,"[0.1403627259195154,0.10404538286727184]",4.0,"[-0.16640677544255839,0.009932592665756254]",4.0,"[0.06275801190492879,-0.0031269934597565456]",4.0,"[0.0614539565300034,-0.07338335347004166]",4.0,"[0.13552262743598958,-0.01880110237442673]",4.0,"[-0.14993386279684806,-0.03509447438420284]",4.0,"[0.045388501203483124,0.1774229545709565]",4.0,"[-0.14213063818326857,-0.08720292357542095]",4.0,"[-0.0008326507687868269,0.0611883543037814]",4.0,"[0.05216575140867146,0.1373274353042689]",4.0,"[-0.10581093672607823,-0.061508578444160696]",4.0,"[0.04915016600423604,-0.17886454185938605]",4.0,"[-0.04213139468334936,0.0660705162342264]",4.0,"[0.019417774792551315,0.015671978312313654]",4.0,"[-0.06479941255619792,-0.12085439394142804]",4.0,"[-0.15864516099817166,0.11374499066465865]",100.0,"[0.0292496045160228,0.09282376840740227]",4.0,"[0.05199965322476742,0.05873971485950398]",4.0,"[0.021980710419501975,-0.062371651654866654]",4.0,"[0.08958652717218941,0.15713415605447106]",100.0,"[0.02,0.02]",139.6479,0.0,10.0,10.0,202.0,1.0,,,,,,,
,,,,,,,5c19b6e25ead950001bdb5a8,6842bb8b4b197d0d6f9e8885,2025-06-06_03h58.09.799,shape_ratio,2024.1.5,Linux x86_64,60.24096386,6842b561977af9ba9b0f87ca,,,,,,,,,,,139.6482,140.1495,,,140.394,140.8293,left,0.429,,,,,,,,,0.45,,,,,,140.1495,140.3939,140.8294,"[-0.06853502043351159,0.05216082968561158]",4.0,"[-0.1371439914419524,-0.0897194684906862]",4.0,"[0.07210060244814746,-0.12401222839574987]",100.0,"[-0.18354556710089295,-0.05830943228249039]",100.0,"[0.056552946781445144,-0.18093520894119497]",100.0,"[0.06967500754162749,0.13319897084847818]",4.0,"[-0.14994486797556097,0.08420099820569575]",100.0,"[0.12193658279588529,-0.05128166408989935]",100.0,"[-0.06807281745178584,-0.12631195083378693]",100.0,"[0.15783332947816653,0.037432016384911934]",100.0,"[0.1424856098378904,-0.10440186573528171]",100.0,"[-0.0013576092076410544,0.1910659212926469]",4.0,"[-0.10307855132247958,-0.032601578846189055]",4.0,"[-0.01394388427298047,-0.15975559726199706]",100.0,"[-0.021728787831707466,-0.07147023320463457]",4.0,"[0.1082812398739271,0.003033194857435902]",100.0,"[-0.035737729715689594,0.018454417477906982]",4.0,"[0.05624501780950962,-0.025125477959737227]",4.0,"[-0.17080597323715555,0.028211023978719836]",4.0,"[-0.11798246138684595,-0.15206901413824794]",100.0,"[0.11374108451930104,0.06561338821369014]",4.0,"[0.02452564344734115,-0.05435488892225033]",4.0,"[-0.11953678255487661,0.12138452868032529]",4.0,"[-0.0002252241915553652,-0.02183145177474817]",100.0,"[0.11220888665302164,-0.14532696061853148]",4.0,"[-0.09239946745959947,-0.08416573758465677]",4.0,"[-0.1090810892570334,0.06569758437033602]",4.0,"[-0.13865152538011508,-0.010678069655399408]",100.0,"[-0.07995530987333596,0.10800212598614103]",4.0,"[0.0757048430021694,0.04089759929882694]",100.0,"[0.16601595647141038,0.0814020195394814]",4.0,"[0.028142777651775273,-0.12676924520442334]",4.0,"[0.02,0.02]",141.9193,0.0,11.0,11.0,144.0,1.0,,,,,,,
,,,,,,,5c19b6e25ead950001bdb5a8,6842bb8b4b197d0d6f9e8885,2025-06-06_03h58.09.799,shape_ratio,2024.1.5,Linux x86_64,60.24096386,6842b561977af9ba9b0f87ca,,,,,,,,,,,141.9199,142.408,,,142.639,143.1541,left,0.5086,,,,,,,,,0.5,,,,,,142.408,142.6389,143.1541,"[0.02000259551802565,0.18135799434928038]",4.0,"[0.16403753495577741,-0.08734700546914637]",100.0,"[0.02231655033827691,0.10974992526181038]",100.0,"[0.050755142491657204,-0.03450268867372073]",100.0,"[-0.04173418694594501,-0.11596630904033486]",4.0,"[-0.014385357228382302,0.03222994262914747]",4.0,"[-0.02026030056679301,-0.16520861783055799]",4.0,"[-0.06605484084353039,-0.1733966630542536]",4.0,"[0.06514776541531427,0.06635117086568386]",4.0,"[-0.010385576830883323,0.07215611696286421]",100.0,"[0.10114148640763894,0.026182391509919162]",100.0,"[0.14427345845998965,-0.12474087893612702]",4.0,"[0.03265481138665987,-0.08387029550469427]",100.0,"[0.08660582931800405,-0.12917435812785777]",100.0,"[-0.18617303651998487,0.04995134203084774]",4.0,"[-0.10350059769258281,0.010590780996997668]",100.0,"[0.11554554033102839,0.08867027870990979]",4.0,"[0.037704127504368,0.013328299402430589]",100.0,"[-0.11013061874007059,-0.0642336271835352]",4.0,"[-0.14062661304512175,0.04219890335502882]",4.0,"[-0.1571050254621833,-0.004810088555663201]",4.0,"[-0.06610170861862044,0.058352072659703366]",100.0,"[-0.11929108314043418,-0.14613110731809661]",4.0,"[-0.07127584261390375,-0.048586838192122755]",100.0,"[-0.19738412994733387,-0.015472119226601248]",100.0,"[-0.11839591254747428,0.13027602992424298]",4.0,"[0.09649082075770682,-0.03328072823216107]",4.0,"[-0.05856120607111645,0.13353450834486072]",100.0,"[-0.037342502909807694,0.1952060590641607]",100.0,"[0.04571953598214355,-0.13811240012332135]",100.0,"[0.09666285688047632,0.15834983504100567]",100.0,"[0.15137596663747568,0.03138262568150996]",4.0,"[0.02,0.02]",144.2651,0.0,12.0,12.0,101.0,1.0,,,,,,,
,,,,,,,5c19b6e25ead950001bdb5a8,6842bb8b4b197d0d6f9e8885,2025-06-06_03h58.09.799,shape_ratio,2024.1.5,Linux x86_64,60.24096386,6842b561977af9ba9b0f87ca,,,,,,,,,,,144.2653,144.7406,,,145.0049,145.4339,right,0.4223,,,,,,,,,0.9,,,,,,144.7406,145.0048,145.4339,"[-0.05877540511094648,0.03545747653663313]",100.0,"[-0.10006595613255903,-0.15860720837399975]",100.0,"[0.05111340536223417,-0.062073726367764995]",4.0,"[0.18484714545441494,0.03108884500655566]",100.0,"[-0.12745967371964717,-0.08702370098804994]",100.0,"[0.03214797015106697,0.07338989604564608]",100.0,"[0.004402054422844728,-0.10517556305677647]",100.0,"[0.16046995493345495,0.09188536673610508]",100.0,"[0.16929185559698548,-0.06947374324782836]",100.0,"[-0.1735880978173751,0.008415712507196148]",100.0,"[0.14392903091692685,0.008635864619834248]",100.0,"[0.04288642864399072,0.14585187162006485]",100.0,"[-0.134697883606103,0.10364321876277999]",100.0,"[-0.06550720544659827,-0.1854880345822001]",100.0,"[0.08154863061643276,0.0923356367052755]",100.0,"[0.09016607980410206,-0.141931034381922]",100.0,"[-0.06278322767994608,-0.0867578691761806]",100.0,"[0.11214196213992743,0.13854527740685724]",100.0,"[0.03101024457780627,-0.0025994027461799024]",4.0,"[0.09303499959318266,-0.05162587504584221]",100.0,"[0.06883532258472878,0.033337080769793]",100.0,"[-0.12722749556420004,0.06286097306037236]",100.0,"[-0.04595482498242499,0.09026062101626968]",100.0,"[0.15783254043201655,-0.11325440938690401]",100.0,"[-0.021059620896990927,0.1444395464660183]",100.0,"[-0.05274213483553306,-0.1294362770136954]",4.0,"[0.11404997172825013,0.04804176465586505]",100.0,"[0.05142919107056542,-0.18353572318764497]",100.0,"[-0.09542836759803328,0.01937451646610895]",100.0,"[-0.0998121264378701,0.16393992197618734]",100.0,"[0.010502231505037589,0.1731905505417477]",100.0,"[-0.024375014651065653,-0.03998045444415855]",100.0,"[0.02,0.02]",146.5261,0.0,13.0,13.0,14.0,1.0,,,,,,,
,,,,,,,5c19b6e25ead950001bdb5a8,6842bb8b4b197d0d6f9e8885,2025-06-06_03h58.09.799,shape_ratio,2024.1.5,Linux x86_64,60.24096386,6842b561977af9ba9b0f87ca,,,,,,,,,,,146.5262,147.0059,,,147.2372,148.0209,right,0.777,,,,,,,,,0.5,,,,,,147.0059,147.2371,148.0209,"[-0.07407421995736771,-0.037792391345828465]",4.0,"[0.11941884151476094,-0.03928930779472483]",100.0,"[-0.03906170834136117,0.0117460988573046]",100.0,"[-0.13543645622957687,0.07325191778427066]",4.0,"[0.13220646149800744,0.07493013147775843]",4.0,"[0.053723585765061255,-0.10211736329756076]",100.0,"[0.007565096791809825,0.16375607940895306]",100.0,"[0.09485555222889934,-0.1548522213062854]",100.0,"[-0.19563919357331594,-0.016560361287361842]",4.0,"[0.0048921493723137425,-0.13907482504629545]",4.0,"[-0.09289383644863726,0.12338046008115784]",4.0,"[-0.07221479889543415,0.05804234179819118]",4.0,"[0.17289363798267862,-0.07708937436084978]",100.0,"[-0.06008957475935808,-0.1387391516804607]",4.0,"[-0.0698050655401249,0.1867191222661255]",100.0,"[0.04089747692305255,0.18936808161338617]",100.0,"[0.07463389707298122,-0.02745256215243012]",100.0,"[-0.1181957059587968,-0.14361532851041556]",100.0,"[0.10531156494417153,0.12306704462913418]",100.0,"[-0.026564153157507923,0.1254736416336621]",100.0,"[-0.16079630902026357,-0.0681852853051287]",4.0,"[0.06413634291916127,0.04984295306666049]",4.0,"[0.10227436608742864,-0.08371448279820692]",4.0,"[-0.03006520035723287,-0.03458634649942411]",4.0,"[-0.19353663034307475,0.04735820587347078]",4.0,"[-0.13794409800272894,-0.10579480632454122]",100.0,"[0.14902752265957334,-0.011232694780063248]",4.0,"[0.028446092364204978,-0.05111092855478856]",4.0,"[0.1389524398011317,-0.11842013026750278]",100.0,"[0.060201894211715866,0.14094365917877344]",4.0,"[0.01830136539023826,0.06442136566270557]",100.0,"[-0.10867526725616729,0.030154713427233575]",100.0,"[0.02,0.02]",149.1344,0.0,14.0,14.0,104.0,1.0,,,,,,,
,,,,,,,5c19b6e25ead950001bdb5a8,6842bb8b4b197d0d6f9e8885,2025-06-06_03h58.09.799,shape_ratio,2024.1.5,Linux x86_64,60.24096386,6842b561977af9ba9b0f87ca,,,,,,,,,,,149.1346,149.6402,,,149.8688,150.378,left,0.5006,,,,,,,,,0.1,,,,,,149.6403,149.8688,150.378,"[-0.1570972208660525,-0.037816475410889075]",4.0,"[-0.010434981938438222,0.18071751941300004]",4.0,"[-0.04243837355446362,0.14412909034555685]",4.0,"[-0.09727725230304946,0.1481812475043174]",4.0,"[0.040937816067913586,-0.16204534848716318]",4.0,"[-0.0400495262017607,-0.11935406426045125]",4.0,"[0.06289839643893645,0.07425128133249881]",4.0,"[-0.0873623398349559,0.09414370553241444]",4.0,"[0.0656259513887699,0.03409426367830399]",100.0,"[-0.048275119722361516,0.04929801238889631]",4.0,"[0.050885152859390353,0.15727396749219089]",4.0,"[0.013084818631710734,-0.024065751698348167]",100.0,"[-0.16749365607967634,0.09809067757732585]",4.0,"[-0.14429207817436301,-0.11255930486720989]",4.0,"[0.021339486440789517,0.11246288162851777]",4.0,"[0.003347237157543686,-0.1422964540717549]",4.0,"[-0.0511877114577866,-0.020205331837226167]",4.0,"[0.15584577339588093,-0.11721287898084884]",4.0,"[-0.11080598653792417,-0.1387014720052018]",100.0,"[-0.09864180180162496,-0.05484858462729754]",4.0,"[0.18008170509379878,0.05086211735177947]",4.0,"[0.09522531818136477,-0.020577739806106308]",4.0,"[-0.17882795243954475,0.048379497973231066]",4.0,"[-0.04479520376993422,0.09988155997254809]",4.0,"[0.19904712067898447,0.012016050501989183]",4.0,"[-0.10317171130512894,0.05192410208751156]",4.0,"[0.05315424919624256,-0.030183307478616597]",4.0,"[-0.006882993450213002,-0.0869906889523593]",4.0,"[-0.14693844201291842,0.020869108305058528]",4.0,"[-0.17936095766352322,-0.07873168472180259]",4.0,"[-0.06306686632220027,-0.18029088118155107]",4.0,"[0.14056770602436822,-0.01179708875170769]",4.0,"[0.02,0.02]",151.4857,0.0,15.0,15.0,180.0,1.0,,,,,,,
,,,,,,,5c19b6e25ead950001bdb5a8,6842bb8b4b197d0d6f9e8885,2025-06-06_03h58.09.799,shape_ratio,2024.1.5,Linux x86_64,60.24096386,6842b561977af9ba9b0f87ca,,,,,,,,,,,151.4859,151.9665,,,152.207,152.6985,left,0.485,,,,,,,,,0.55,,,,,,151.9665,152.207,152.6985,"[0.06572028901059997,-0.09681036666000839]",4.0,"[0.13526213116725572,-0.074029475811279]",100.0,"[-0.010367902425845905,-0.08875379775979009]",4.0,"[0.11271912633424075,0.07284037677618987]",100.0,"[-0.12292971552536727,0.015366777870152464]",4.0,"[-0.04009891987089433,-0.11755061553015968]",4.0,"[0.10719980996097593,-0.02769210295269042]",100.0,"[-0.12257987456331318,-0.04563634484947414]",100.0,"[0.07718651264887443,0.014071383423347796]",4.0,"[-0.12981043452337804,0.11274879147399725]",4.0,"[-0.01659258582240308,-0.16715562809984852]",100.0,"[0.053013283624784226,-0.15167338201388356]",4.0,"[0.0067754757377450426,0.07782334376824251]",100.0,"[-0.1606653053127673,-0.011827681688434784]",4.0,"[0.16013260978246913,-0.018140343218117333]",100.0,"[0.06161712716032339,0.16290056743357395]",100.0,"[-0.033150538424492434,-0.04080206491594159]",4.0,"[-0.053456704642271466,0.17406059803905102]",100.0,"[0.020046371453508852,0.04004436525590501]",100.0,"[0.12068699921358676,0.1259321960644621]",100.0,"[0.17715327422286045,-0.07269387032420173]",4.0,"[-0.09319330039763327,-0.0805411807642965]",4.0,"[-0.16378471816602339,0.0558305377532929]",100.0,"[-0.04000025654142346,0.09176766287537623]",4.0,"[-0.08203926464126671,0.035000499555955245]",100.0,"[0.1820642875483576,0.053643773101633485]",4.0,"[0.02011923566647658,0.19374237462956465]",100.0,"[-0.1323594295036106,-0.12177292190819652]",100.0,"[0.09816584993195926,-0.1305371240736827]",100.0,"[-0.18137216407195164,-0.07232022244217064]",4.0,"[0.00016439084703764057,-0.12736553262627803]",100.0,"[-0.07060856490553563,0.13002197080349603]",100.0,"[0.02,0.02]",153.8096,0.0,16.0,16.0,73.0,1.0,,,,,,,
,,,,,,,5c19b6e25ead950001bdb5a8,6842bb8b4b197d0d6f9e8885,2025-06-06_03h58.09.799,shape_ratio,2024.1.5,Linux x86_64,60.24096386,6842b561977af9ba9b0f87ca,,,,,,,,,,,153.8104,154.3194,,,154.5496,155.1415,left,0.5854,,,,,,,,,0.55,,,,,,154.3194,154.5496,155.1416,"[0.07904944128615253,-0.0013966478917366372]",4.0,"[-0.07062954990875205,0.1384622204984182]",4.0,"[0.09360576585527254,-0.04148780107763561]",4.0,"[0.053641421059992096,0.11948837429198488]",4.0,"[0.010637284869631978,0.04995181575422139]",100.0,"[-0.0004608511136833249,-0.12974867648498833]",100.0,"[-0.023678006941956698,0.08068739622323227]",100.0,"[-0.05221645874034537,0.1807145380799577]",100.0,"[0.08051521575609438,0.16413840970177104]",100.0,"[0.11976627338635465,-0.12051310988484258]",100.0,"[0.04326851938626036,-0.050016213586042274]",100.0,"[0.0678563873503358,-0.11976854003116057]",100.0,"[0.12914461907370475,0.004062377627579234]",4.0,"[-0.06711749822114564,0.04376574183972486]",4.0,"[-0.11604759995120494,-0.11581858987862549]",100.0,"[-0.141827190933438,0.042678327528624174]",4.0,"[0.1348782762416304,-0.07280803553864815]",4.0,"[-0.1210608582610612,0.13198712844378585]",100.0,"[-0.1415394341566047,0.0907898100512514]",4.0,"[0.025340057399581183,0.1725456761671136]",4.0,"[-0.028523492154377047,0.13621035050168825]",100.0,"[0.09469526916905599,-0.15334197754566742]",4.0,"[0.06202841929300121,0.06983994952447647]",4.0,"[-0.16826794778918833,-0.036024703682222936]",100.0,"[0.04077449080134589,-0.18091258485380798]",100.0,"[0.12657280201185525,0.054553245817527546]",4.0,"[-0.026726070710882267,-0.09463032622663631]",100.0,"[0.13243948625749674,0.10764268354855193]",100.0,"[-0.0706435339413004,-0.13278618406946818]",100.0,"[-0.11438668720826863,0.0031753285018555014]",4.0,"[-0.036986754240739654,-0.15504140693155707]",100.0,"[-0.07891532886115074,0.09168709658342]",100.0,"[0.02,0.02]",156.2398,0.0,17.0,17.0,63.0,1.0,,,,,,,
,,,,,,,5c19b6e25ead950001bdb5a8,6842bb8b4b197d0d6f9e8885,2025-06-06_03h58.09.799,shape_ratio,2024.1.5,Linux x86_64,60.24096386,6842b561977af9ba9b0f87ca,,,,,,,,,,,156.24,156.7427,,,156.9964,157.6471,right,0.6443,,,,,,,,,0.55,,,,,,156.7428,156.9964,157.6471,"[0.03311400590996085,0.06866377640238944]",4.0,"[0.006049213795161208,-0.0799748353068198]",100.0,"[-0.06358240269457871,0.14249305518069308]",4.0,"[-0.11522209922348502,0.1554020944720762]",100.0,"[0.12579563050137285,-0.03233477610569604]",100.0,"[0.05520203431757825,-0.11847494788760152]",4.0,"[-0.08068146537724391,0.08998900314874804]",100.0,"[0.11565243068374967,-0.08957082885010884]",100.0,"[0.08088161668100598,0.0413884492426432]",100.0,"[-0.10037735829097127,0.054292090291646805]",100.0,"[-0.04314426500144995,-0.019200114203667393]",100.0,"[-0.06675023168112383,-0.18694935013482838]",100.0,"[0.14380750861056674,0.01978600909574974]",4.0,"[0.1839303017588355,-0.0111959116555987]",100.0,"[-0.04045393469783217,-0.09107113731008899]",4.0,"[0.07947482772691622,-0.04558274181364819]",4.0,"[-0.08699107265012992,-0.0633127533364488]",4.0,"[-0.07169929143359345,0.18499419619882065]",100.0,"[0.17706150182906502,-0.08707455787522957]",100.0,"[-0.13014353467726278,-0.05950531854715659]",100.0,"[0.14029422467420977,0.06952986243976138]",4.0,"[0.09126462482089355,0.1167099136115889]",100.0,"[0.007367909880463009,-0.13613673465005963]",4.0,"[-0.11779065118763676,0.005839528956550141]",4.0,"[0.030654967435768787,-0.17619843703578245]",100.0,"[-0.1562124157132524,0.09095586922538144]",4.0,"[-0.07438984657608325,-0.12348172204244898]",4.0,"[0.08479539785177195,0.16872965867993664]",4.0,"[-0.1822941415037975,-0.007901643415263409]",4.0,"[0.003988091401556481,-0.037661761863232224]",100.0,"[-0.028819223981430785,0.057231865589992596]",100.0,"[-0.011539906775945826,0.16538331093038486]",100.0,"[0.02,0.02]",158.7358,0.0,18.0,18.0,64.0,1.0,,,,,,,
,,,,,,,5c19b6e25ead950001bdb5a8,6842bb8b4b197d0d6f9e8885,2025-06-06_03h58.09.799,shape_ratio,2024.1.5,Linux x86_64,60.24096386,6842b561977af9ba9b0f87ca,,,,,,,,,,,158.7361,159.2154,,,159.4449,160.0065,left,0.5547,,,,,,,,,0.4,,,,,,159.2154,159.4448,160.0065,"[0.008561453631479199,-0.04805345934720536]",4.0,"[-0.05812461762032168,-0.14017316665256274]",4.0,"[-0.03145360454301075,0.0817088062147097]",100.0,"[-0.17057669964377198,-0.06433477744320708]",100.0,"[-0.0002699914722167907,-0.18484499514538277]",4.0,"[0.17179130515148353,-0.08775642434276476]",4.0,"[-0.1741304127563771,0.021395579540190963]",100.0,"[-0.0722284870286967,0.022784166291008864]",4.0,"[0.07887522892838109,0.0737729495292995]",4.0,"[-0.044290788261565926,-0.1777997938768328]",4.0,"[-0.0360645311104234,-0.026999901248508297]",4.0,"[0.08601458987145838,0.022831908784084576]",100.0,"[-0.13333131527133554,-0.0435184294567616]",4.0,"[0.11049642098575785,-0.09765603833362875]",100.0,"[0.0265635114005008,0.015250043262431902]",4.0,"[0.11486272749671496,-0.01255977382748974]",100.0,"[0.04892297126524064,-0.137053542093266]",100.0,"[0.03400433854619319,0.12958810652040045]",100.0,"[-0.0716555897049331,0.15403631222512862]",4.0,"[0.17302474452343183,0.08852299369867728]",4.0,"[-0.041403464704486186,0.12063373261704466]",100.0,"[0.12575502760480892,0.15014855577724184]",4.0,"[0.010945764968178145,0.17585318568966837]",4.0,"[-0.12068803349526373,0.08613371071357499]",4.0,"[-0.04404088108988218,-0.07052973233109565]",4.0,"[0.19421179349704215,-0.009184281368528327]",100.0,"[0.14704686716671692,0.03886344143991598]",4.0,"[0.054307512579971004,-0.04593890878821782]",4.0,"[-0.0849377213962598,-0.018877986527893322]",4.0,"[0.11727996294343536,-0.14261698277459212]",100.0,"[0.02687009878470336,0.06582478962811038]",100.0,"[0.03228872363635158,-0.0867385665100877]",100.0,"[0.02,0.02]",161.1108,0.0,19.0,19.0,179.0,1.0,,,,,,,
,,,,,,,5c19b6e25ead950001bdb5a8,6842bb8b4b197d0d6f9e8885,2025-06-06_03h58.09.799,shape_ratio,2024.1.5,Linux x86_64,60.24096386,6842b561977af9ba9b0f87ca,,,,,,,,,,,161.1111,161.6085,,,161.8462,162.3914,left,0.5388,,,,,,,,,0.6,,,,,,161.6085,161.8462,162.3915,"[0.09739815838506388,-0.17192425095335667]",100.0,"[-0.04390649044878118,-0.08819444358232352]",100.0,"[-0.0197025781893305,0.17764084850010875]",100.0,"[0.04384293069258204,-0.1026939590701335]",4.0,"[0.02355835664572373,-0.1667174251088964]",100.0,"[0.06830522702395464,0.010674133468135538]",100.0,"[-0.08289270293409928,-0.012049981833597467]",4.0,"[0.10358328263360614,-0.11468629389965417]",100.0,"[-0.11597101025013858,-0.16124435772056017]",100.0,"[0.14081145235965642,0.06300705503125074]",100.0,"[-0.04581881816969294,0.06856605259131943]",4.0,"[-0.10591349926289219,0.11155260981927738]",100.0,"[-0.013723575468320136,-0.05882286903454791]",4.0,"[0.04475682549035163,0.09336177500613393]",4.0,"[-0.14324535456452625,-0.073560637123601]",100.0,"[0.09544523263710764,0.04162834688675934]",100.0,"[0.03625075940462942,0.13616513496289753]",4.0,"[-0.004734774558982335,0.06238537431210402]",100.0,"[-0.09999088010297466,0.028724122156580354]",100.0,"[-0.13723179327387336,-0.027947108660324495]",4.0,"[0.1366917476056233,0.12871208792410796]",4.0,"[-0.13274783701855947,0.14306472746077636]",4.0,"[0.05430413542999174,-0.04362816001120228]",100.0,"[0.17808050551015325,-0.0794949764455429]",100.0,"[0.13272259872074235,-0.06999593227256737]",100.0,"[0.12663896113963205,-0.0270770325967842]",100.0,"[-0.1712632758498662,0.05410113190115402]",100.0,"[-0.0285898870969167,-0.15269484219663115]",4.0,"[0.19832309389236316,0.02178489334514529]",4.0,"[-0.04053725175381244,-0.0182601801744492]",100.0,"[-0.07112309217797977,0.16561190513163193]",4.0,"[-0.13635208207140392,-0.11345240528519766]",4.0,"[0.02,0.02]",163.494,0.0,20.0,20.0,44.0,1.0,,,,,,,
,,,,,,,5c19b6e25ead950001bdb5a8,6842bb8b4b197d0d6f9e8885,2025-06-06_03h58.09.799,shape_ratio,2024.1.5,Linux x86_64,60.24096386,6842b561977af9ba9b0f87ca,,,,,,,,,,,163.4943,163.9744,,,164.234,164.7117,right,0.4709,,,,,,,,,0.55,,,,,,163.9744,164.234,164.7117,"[0.08269421054202307,-0.01051819032617234]",4.0,"[0.07639587401470944,-0.05706986055501706]",100.0,"[0.027367582203062565,0.14358366415506058]",4.0,"[0.11862622434913542,0.13944755351706295]",4.0,"[-0.1691662663665048,0.025379457852324237]",4.0,"[0.13092979504072966,0.03205658980315927]",4.0,"[0.014684054243708847,-0.18784967227593638]",100.0,"[0.1362286815350559,-0.1294028387066695]",4.0,"[-0.017938893761795482,-0.09592732199877828]",100.0,"[0.08937867863021812,-0.177779877175404]",4.0,"[-0.17792918510046546,-0.04201298948341601]",4.0,"[0.07654706258637646,-0.09962013625317766]",100.0,"[-0.10547754656684644,-0.027222787690322298]",100.0,"[0.17375365880409036,-0.09861896859556495]",100.0,"[-0.07338998668110314,-0.06904101290121692]",4.0,"[-0.033149966191341466,0.020689466713572652]",100.0,"[-0.15279836191416057,0.0905603035620608]",100.0,"[-0.021062835523684674,0.1483896195671908]",4.0,"[-0.0927640773379545,0.14131911639346711]",100.0,"[-0.1684582068062728,-0.09978206294661564]",4.0,"[-0.09633377379987365,0.07495673339043876]",100.0,"[0.11349471810614112,0.07742049598434503]",100.0,"[0.02835652723287633,0.06666892866718047]",100.0,"[0.13128619836781244,-0.07744209757319204]",4.0,"[-0.11442501795692289,-0.14399859894253642]",100.0,"[0.039586838191326704,-0.12575053790524895]",100.0,"[0.02390738058090667,-0.039538328220174154]",100.0,"[0.07392528614189041,0.03582956551603715]",100.0,"[0.05954240329771654,0.09539951292666145]",100.0,"[0.04221629642060519,-0.07871871506642406]",100.0,"[0.1748885525234435,-0.05274335618499356]",4.0,"[0.16471418315124298,0.010297565728162345]",4.0,"[0.02,0.02]",165.7955,0.0,21.0,21.0,62.0,1.0,,,,,,,
,,,,,,,5c19b6e25ead950001bdb5a8,6842bb8b4b197d0d6f9e8885,2025-06-06_03h58.09.799,shape_ratio,2024.1.5,Linux x86_64,60.24096386,6842b561977af9ba9b0f87ca,,,,,,,,,,,165.7959,166.2911,,,166.5514,167.2842,left,0.7263,,,,,,,,,0.5,,,,,,166.2911,166.5514,167.2842,"[-0.05122875270702023,0.09613143508407737]",4.0,"[-0.10095221483551232,-0.07893127967087873]",100.0,"[-0.16007792061728865,0.011289286673419727]",100.0,"[-0.009209716525878936,-0.0017967702741688055]",4.0,"[-0.06829770074186758,-0.021445252969339752]",4.0,"[0.10225578082549684,-0.03472723034942972]",4.0,"[0.02224277689614303,0.031509160951046375]",4.0,"[0.19526059003940516,-0.004546921369113439]",100.0,"[-0.1364817614805003,-0.03959714866893618]",4.0,"[0.08204853405358739,-0.09060106860019934]",4.0,"[-0.03476588544774906,0.04079157558594222]",100.0,"[0.03537459939767036,-0.014034088173535703]",100.0,"[0.13993867446999422,-0.0565761261813708]",100.0,"[-0.1401729815653975,0.11150353159614498]",100.0,"[-0.15118694578150257,-0.09680032073327288]",100.0,"[-0.10345687692303633,-0.16535337967089037]",100.0,"[-0.09986043615611612,0.1206787761419808]",100.0,"[-0.006573230283333089,0.10971390967638381]",4.0,"[0.025122618440159193,-0.19357521760612478]",4.0,"[-0.010309433438419965,0.1708353691731154]",4.0,"[-0.098409600563068,0.05791048993291194]",4.0,"[0.11300321391503759,0.018013369826023525]",100.0,"[-0.011959296692846934,-0.07753638671053233]",4.0,"[0.06748645051152144,-0.15330804067935508]",100.0,"[0.16427846932998763,0.10477109728007782]",4.0,"[0.03486283387216434,0.07491590430624764]",4.0,"[0.07307547035651804,0.1730646749735436]",4.0,"[0.14080731305928734,-0.013971683722723663]",100.0,"[0.11390935009248601,-0.12561404534125103]",4.0,"[0.06655461784839602,0.011828990929024771]",100.0,"[-0.1119243978993689,-0.11758936412506837]",100.0,"[0.1333354481798159,0.053397065727823205]",100.0,"[0.02,0.02]",168.3652,0.0,22.0,22.0,93.0,1.0,,,,,,,
,,,,,,,5c19b6e25ead950001bdb5a8,6842bb8b4b197d0d6f9e8885,2025-06-06_03h58.09.799,shape_ratio,2024.1.5,Linux x86_64,60.24096386,6842b561977af9ba9b0f87ca,,,,,,,,,,,168.3654,168.8636,,,169.1193,169.608,left,0.4814,,,,,,,,,0.45,,,,,,168.8637,169.1193,169.608,"[0.04771037380131504,0.05161380495004793]",4.0,"[-0.12324084853446357,0.15443135631827076]",4.0,"[0.06079988270674163,0.12192826156678467]",4.0,"[0.08379656557745249,-0.005721342280556081]",100.0,"[0.10458006019838952,0.05130345291707738]",4.0,"[0.04083727905936929,-0.0036707301328939655]",100.0,"[-0.034882073207710855,-0.08160559982843289]",100.0,"[0.0365201989373992,-0.137939768272724]",100.0,"[-0.13378292437459396,0.0495602445465104]",4.0,"[-0.07475083513975822,0.03147516233530845]",4.0,"[0.005217081272394647,0.1684697108358052]",100.0,"[-0.04732228394880282,-0.0411933264103783]",4.0,"[0.154013112792057,0.08127896540331755]",4.0,"[-0.18332158852371322,0.05703341708371199]",4.0,"[-0.17801371577176336,-0.053285013619169305]",100.0,"[0.14441706595808385,-0.1087718033386574]",100.0,"[-0.0014540276938893753,0.021616135354333675]",4.0,"[0.19207837599137054,-0.05370297602570568]",4.0,"[0.13800859857457842,-0.029466222611723356]",100.0,"[-0.151115789084784,0.004283207954769563]",100.0,"[0.002334460191359131,-0.16489376194138444]",100.0,"[0.08897988715763658,-0.10955775739594602]",4.0,"[-0.06562345104411749,-0.17198906482068568]",4.0,"[0.18229207370409184,-0.00680683251573551]",100.0,"[-0.07503534101914469,0.1293463840030702]",4.0,"[-0.025008408394310642,0.1980344327156033]",4.0,"[0.05053253829414194,0.18943259490531092]",100.0,"[-0.027831738166318735,0.13342958905664484]",4.0,"[-0.08826785708537326,-0.09455555302639598]",4.0,"[0.11119662886730305,0.1260569045221224]",100.0,"[-0.07818923922781752,0.18367607909114678]",100.0,"[-0.10499414877603443,-0.047163004585193534]",4.0,"[0.02,0.02]",170.7189,0.0,23.0,23.0,138.0,1.0,,,,,,,
,,,,,,,5c19b6e25ead950001bdb5a8,6842bb8b4b197d0d6f9e8885,2025-06-06_03h58.09.799,shape_ratio,2024.1.5,Linux x86_64,60.24096386,6842b561977af9ba9b0f87ca,,,,,,,,,,,170.7192,171.1971,,,171.4536,172.1462,right,0.6859,,,,,,,,,0.6,,,,,,171.1971,171.4536,172.1462,"[0.054934612376905646,0.08169058204852414]",4.0,"[0.1445970436692323,-0.07884997885854737]",4.0,"[0.009886250275053887,0.1312317976772107]",100.0,"[0.06994432097160119,-0.05798902687137768]",100.0,"[-0.11263194646864771,-0.011071148335659545]",100.0,"[0.18218073916277802,-0.048048169713483586]",100.0,"[0.01886183978933918,0.02699486217021478]",100.0,"[0.1258784733434338,-0.1294947982574405]",100.0,"[-0.10910396480866383,-0.15670921830273066]",4.0,"[-0.07447281234159171,0.0900934799423193]",4.0,"[-0.013486286692396212,0.1931723061760937]",100.0,"[0.07252789775322786,-0.14871741940577027]",4.0,"[-0.03220573327685771,-0.02713490229743696]",100.0,"[0.10920517571180631,-0.03766958898221111]",100.0,"[0.10091527603432318,0.07336496603806393]",4.0,"[0.032534064345141084,0.18399233628883446]",100.0,"[-0.15894342411840157,-0.011835665389864114]",4.0,"[-0.10452335895433253,0.16400529812323306]",100.0,"[-0.10780324744417351,-0.06863679005750878]",4.0,"[0.1685815737079837,0.06883263375752227]",100.0,"[0.08038011437220006,-0.0035371550464458946]",100.0,"[-0.04609108272696239,0.14249525885893655]",4.0,"[-0.12277345085796137,0.03927796729493676]",100.0,"[0.12302130544273389,0.11847674871490708]",4.0,"[0.04144867081307625,-0.11857970581112105]",100.0,"[0.06359186528936452,-0.18873209708020733]",100.0,"[0.026874885485223383,-0.1594789826219267]",4.0,"[0.15395484501376697,0.0032266301781106953]",100.0,"[-0.0758976949110966,-0.043980246330452125]",4.0,"[0.08319048737982794,0.1662063252579225]",100.0,"[-0.08029651974502057,0.03970993274286847]",4.0,"[-0.07033192632380077,-0.09455958595456311]",100.0,"[0.02,0.02]",173.2419,0.0,24.0,24.0,32.0,1.0,,,,,,,
,,,,,,,5c19b6e25ead950001bdb5a8,6842bb8b4b197d0d6f9e8885,2025-06-06_03h58.09.799,shape_ratio,2024.1.5,Linux x86_64,60.24096386,6842b561977af9ba9b0f87ca,,,,,,,,,,,173.2421,173.7178,,,173.9489,174.4521,left,0.4962,,,,,,,,,0.4,,,,,,173.7178,173.9488,174.4521,"[-0.037730596782251664,-0.1413805895501375]",4.0,"[-0.08955494574774615,-0.1720341916499082]",4.0,"[-0.1637889530779546,0.06420697708271007]",4.0,"[-0.10048018443530943,-0.03104548767412952]",4.0,"[0.01240160009252425,-0.08613031699840142]",4.0,"[0.17773257235102843,0.0013682856599879518]",4.0,"[-0.00023986599313407817,0.08214646200343793]",100.0,"[-0.046877296065274604,0.018942586313806173]",4.0,"[0.047822249693382696,-0.13275829801928046]",100.0,"[0.024906765224580917,0.1796757597005632]",4.0,"[-0.08882306248567712,0.05072545716691116]",4.0,"[0.10279703560077649,0.059313916630399977]",100.0,"[-0.1305457128702699,-0.15022538289427448]",4.0,"[-0.10276588144097858,0.10134766456661033]",100.0,"[0.04578509405152356,0.10699197101873374]",4.0,"[0.13215867893213742,-0.028457867344211723]",4.0,"[0.18085597244032584,0.06908558633972524]",4.0,"[0.06522029819903923,-0.024066003319598184]",100.0,"[-0.003441991416201987,-0.03735458350172795]",4.0,"[0.033104794587879724,-0.19213610194808783]",100.0,"[-0.14587634215146245,0.1021758366483464]",4.0,"[-0.06974588227450795,0.1606170378057382]",4.0,"[0.06304051127493009,-0.06853062455860509]",100.0,"[0.11173473756543582,0.019057787319252388]",100.0,"[-0.04831305364869114,-0.19359265600173367]",100.0,"[-0.0690628699359642,-0.09107913362131607]",100.0,"[0.18324182787370463,-0.056171678410479424]",4.0,"[0.11791287882129962,0.11031566099333814]",100.0,"[-0.028178973577759645,0.19265520726523006]",100.0,"[0.08337769126446208,0.13187615849673473]",4.0,"[-0.02809312004921554,0.13227326193181566]",4.0,"[-0.13461132016832902,-0.07473676862499394]",100.0,"[0.02,0.02]",175.5343,0.0,25.0,25.0,168.0,1.0,,,,,,,
,,,,,,,5c19b6e25ead950001bdb5a8,6842bb8b4b197d0d6f9e8885,2025-06-06_03h58.09.799,shape_ratio,2024.1.5,Linux x86_64,60.24096386,6842b561977af9ba9b0f87ca,,,,,,,,,,,175.5346,176.0411,,,176.2798,176.9347,right,0.6483,,,,,,,,,0.9,,,,,,176.0411,176.2797,176.9347,"[-0.0798132438856294,0.11211310821644972]",100.0,"[0.12337888364292197,0.07775319567629613]",100.0,"[-0.15780324073668398,0.01899082814790447]",100.0,"[-0.058054231334145834,-0.16238047621594603]",100.0,"[0.005430217277196202,0.1503084630117645]",100.0,"[-0.03117517561234778,-0.05837276281785993]",100.0,"[-0.1630540152098383,-0.0395831071625095]",100.0,"[0.15447415187207858,-0.08259096832310853]",100.0,"[-0.009475392772241258,0.10147145941641135]",4.0,"[-0.0522095722944662,-0.02108460661188137]",100.0,"[-0.09965049003863835,-0.022584039539809805]",100.0,"[0.026564605279678796,0.19725142173671067]",100.0,"[0.06093087293425371,-0.06452899811780935]",100.0,"[0.1033854763564435,-0.09377053995127903]",100.0,"[-0.051762545159059446,0.14100868113383674]",100.0,"[-0.005380933469026809,-0.160705203862592]",100.0,"[-0.1072824410439943,-0.1133671426921086]",100.0,"[0.09722739951060293,0.14667643088531823]",100.0,"[0.030590702090752542,-0.09796753229562219]",100.0,"[-0.16355867356559725,0.09481146759841524]",100.0,"[-0.16379300188357018,-0.09585974036449132]",100.0,"[-0.04175245202326884,0.059947524918913024]",100.0,"[0.16732642235822986,0.06653076309747884]",100.0,"[-0.09245648691553833,0.04654185792537133]",100.0,"[0.01861496389840504,-0.024837473314407423]",4.0,"[-0.09619391757802809,-0.06575291185945314]",100.0,"[0.13123205371295243,-0.0014493114997671801]",100.0,"[-0.029585245204014156,-0.12284318148343727]",4.0,"[0.13444678877888386,0.03899973662048869]",100.0,"[0.1412035950151372,-0.04297717750517062]",100.0,"[0.057952425729658856,0.13556253401290133]",100.0,"[0.06676333013074488,0.07421899704257698]",100.0,"[0.02,0.02]",178.0282,0.0,26.0,26.0,12.0,1.0,,,,,,,
,,,,,,,5c19b6e25ead950001bdb5a8,6842bb8b4b197d0d6f9e8885,2025-06-06_03h58.09.799,shape_ratio,2024.1.5,Linux x86_64,60.24096386,6842b561977af9ba9b0f87ca,,,,,,,,,,,178.0284,178.5388,,,178.7708,179.343,left,0.5655,,,,,,,,,0.6,,,,,,178.5388,178.7708,179.343,"[-0.0980339293651802,-0.030449870969572933]",100.0,"[-0.053770802694239145,-0.0026253656472164716]",100.0,"[-0.14973208613792832,0.12701499070093486]",100.0,"[0.019279061069450716,0.19319123928854764]",100.0,"[-0.02362523584482171,-0.0845615746620171]",100.0,"[0.10740236516719599,-0.09027304675524658]",4.0,"[0.0542419742783933,0.06422668868387804]",100.0,"[0.007515552248260835,-0.013536862684164297]",100.0,"[0.13161881336544948,0.10112549588179069]",4.0,"[-0.023099319837983717,0.16620911364694033]",100.0,"[-0.19527307061881344,-0.040508737016084796]",4.0,"[-0.13992859818831946,0.010930473877527663]",100.0,"[0.14461680822732634,0.013688220140711006]",4.0,"[0.08506303696428326,-0.05309273342742752]",100.0,"[0.005119878839991178,-0.13271235131616288]",4.0,"[0.050915655240904294,-0.15443395952468128]",100.0,"[-0.13987157540675876,-0.0291355134798321]",100.0,"[-0.019543150995577237,-0.16769457773607474]",4.0,"[-0.11744208875801222,-0.10467458082788132]",100.0,"[-0.08079539615857978,0.038106662980101305]",100.0,"[0.05298797767949525,-0.09495211939275583]",4.0,"[0.11325318540830677,0.06158454927733595]",4.0,"[0.004238896938943548,0.12993946846588444]",4.0,"[0.06164073992911646,0.1822199276962863]",100.0,"[0.10865852655194982,-0.015458780821580961]",4.0,"[-0.06471969131852595,-0.14242747101980316]",100.0,"[0.08495574621149433,0.10624160966004871]",100.0,"[-0.10262953463190087,0.1549319533222725]",100.0,"[0.08587197801482087,0.02736760888279513]",100.0,"[-0.002485250513938091,0.04425266169277689]",4.0,"[-0.04354323433020503,0.11189130933868238]",4.0,"[0.0438149503526516,0.008753289446460732]",4.0,"[0.02,0.02]",180.4219,0.0,27.0,27.0,41.0,1.0,,,,,,,
,,,,,,,5c19b6e25ead950001bdb5a8,6842bb8b4b197d0d6f9e8885,2025-06-06_03h58.09.799,shape_ratio,2024.1.5,Linux x86_64,60.24096386,6842b561977af9ba9b0f87ca,,,,,,,,,,,180.4222,180.9249,,,181.1555,181.8523,right,0.6903,,,,,,,,,0.9,,,,,,180.9249,181.1555,181.8524,"[-0.010798254664184402,0.10180622468178549]",100.0,"[-0.040912973801209424,-0.0044187549571503065]",4.0,"[-0.08893437749802653,-0.04937686960862116]",100.0,"[0.07625237904774933,-0.06685831821469508]",100.0,"[-0.06525452510368115,0.11716640834509523]",100.0,"[0.04743395797647657,0.15120958662384074]",100.0,"[-0.0646806064876062,0.18851583507407826]",100.0,"[0.021993370964241945,0.070231024203093]",100.0,"[-0.1056827539775772,0.15683783956824704]",100.0,"[-0.09505134496053944,0.007249096705328275]",100.0,"[0.06876108842821847,-0.1472694541582992]",100.0,"[0.07476553761149238,0.025222808494474426]",100.0,"[-0.17287556868284232,-0.04956940481971051]",100.0,"[-0.023676304830135796,-0.17731248917573508]",4.0,"[-0.01032794465852863,0.16055887744777028]",100.0,"[-0.061137056770041,-0.07829102272383638]",100.0,"[0.15436636985545904,-0.04411111428653716]",100.0,"[-0.14778925085572334,0.0322406090918458]",100.0,"[0.1176601554669011,0.010515119230191874]",100.0,"[0.04958540320370754,-0.10303858011841038]",100.0,"[-0.06523853452263427,-0.1769515817991216]",100.0,"[-0.11594944710147856,-0.14599504508174113]",100.0,"[0.18194933856029047,0.060316881847687194]",100.0,"[0.1457509680544294,-0.12950192336527083]",4.0,"[0.07466688673530004,0.10397978335363586]",100.0,"[0.03572595398693391,0.19594251427181716]",100.0,"[0.030522936129341555,-0.175210290061154]",100.0,"[0.03957833097450543,-0.009094323099656808]",100.0,"[-0.14897584827430346,-0.10511396436414898]",100.0,"[-0.0074076524670280315,-0.04060315809225007]",100.0,"[0.07980746047729825,-0.022854704645700278]",100.0,"[0.10046955477924586,0.17192240963550573]",100.0,"[0.02,0.02]",182.9535,0.0,28.0,28.0,3.0,1.0,,,,,,,
,,,,,,,5c19b6e25ead950001bdb5a8,6842bb8b4b197d0d6f9e8885,2025-06-06_03h58.09.799,shape_ratio,2024.1.5,Linux x86_64,60.24096386,6842b561977af9ba9b0f87ca,,,,,,,,,,,182.9537,183.4553,,,183.7114,184.6078,right,0.8893,,,,,,,,,0.6,,,,,,183.4554,183.7114,184.6078,"[0.08717984129758617,0.12346541102078225]",4.0,"[-0.12634615211506636,-0.01784020832869]",4.0,"[0.032624209771553274,-0.06709854005597127]",4.0,"[0.16742159407175275,-0.098317197147855]",100.0,"[0.07570072396556125,-0.1741467676802092]",100.0,"[-0.07295647972506282,0.11158994928114375]",4.0,"[-0.01468622716049547,0.17194087808145575]",4.0,"[0.006548103490897378,0.014169563308857856]",100.0,"[0.09859110207309686,-0.12111353324600053]",100.0,"[-0.11591423438630916,-0.07041410970032481]",4.0,"[-0.0927033215152554,0.07547574295953052]",100.0,"[0.09438586194329877,0.16460910309809246]",100.0,"[0.044251329452256884,0.11967504131681048]",4.0,"[-0.180524051581647,-0.075235855348233]",4.0,"[-0.03106863439240307,-0.05455412783795819]",4.0,"[-0.1396575317433394,-0.10261485201535908]",100.0,"[0.1541560401773411,0.019363087781484694]",4.0,"[-0.08242703023728035,0.15679859929298579]",100.0,"[-0.1659826326353961,0.06037223816290091]",4.0,"[0.11496769552214514,0.03404405056435407]",100.0,"[-0.008313572349502755,0.06353294284238506]",100.0,"[0.1129796549590953,-0.011437556455596557]",100.0,"[0.09167295653886665,-0.062291844882849876]",100.0,"[-0.048289874741796635,0.06827342373564319]",100.0,"[0.1649662965863985,-0.05484078839075178]",100.0,"[-0.12111933662380606,0.12052365575809414]",100.0,"[0.06306626612976513,-0.011546210822537336]",100.0,"[-0.012735278725885184,0.10464742898359077]",4.0,"[0.03398635382938687,-0.14099682626703297]",100.0,"[0.037485822260376014,0.18140688086282877]",4.0,"[-0.07842074281438416,-0.10583635042943915]",100.0,"[0.16134971924415425,0.08467188149360182]",100.0,"[0.02,0.02]",185.6971,0.0,29.0,29.0,54.0,1.0,,,,,,,
,,,,,,,5c19b6e25ead950001bdb5a8,6842bb8b4b197d0d6f9e8885,2025-06-06_03h58.09.799,shape_ratio,2024.1.5,Linux x86_64,60.24096386,6842b561977af9ba9b0f87ca,,,,,,,,,,,185.6973,186.2015,,,186.4592,187.1805,right,0.7148,,,,,,,,,0.4,,,,,,186.2015,186.4592,187.1805,"[0.046367296358819296,0.08445305450003236]",100.0,"[-0.00034762458708232963,-0.1294944363099202]",100.0,"[-0.10730034199500185,0.0748822373828393]",4.0,"[0.11244451703433407,-0.10294691919860789]",4.0,"[0.041391347946334464,0.03649314605373227]",100.0,"[-0.18739528852360332,0.06689241047439523]",100.0,"[-0.07446469751389437,0.11340759581853696]",4.0,"[0.15512328378236592,0.016094177912744922]",4.0,"[0.10899563294609432,-0.03416755886567791]",4.0,"[-0.06662272825192773,-0.1868851946066528]",100.0,"[0.09556648647922814,0.02922382889782962]",100.0,"[0.04681688924598767,-0.08919711182977094]",4.0,"[0.09249906135082511,0.07736356897562012]",4.0,"[-0.10598549087964351,-0.12523392656817464]",4.0,"[-0.08134506411621698,-0.06424540902553492]",100.0,"[-0.028009958441741464,0.1356307175797513]",100.0,"[0.06906053917294734,-0.15525478184235833]",4.0,"[0.12169384502986727,0.11755652232122762]",100.0,"[-0.15000583426214245,0.001402777461073116]",100.0,"[0.004283188719011327,0.19454934479986122]",4.0,"[0.0016678344307483452,-0.04613792214929787]",4.0,"[-0.06325421722734674,-0.012247431170882958]",4.0,"[-0.08685646690424244,0.1648159115207951]",100.0,"[-0.013124181724723892,0.0244092587851415]",100.0,"[-0.11490957170747446,0.12395103743613263]",4.0,"[0.1677991136547931,-0.04522384302709642]",4.0,"[-0.1564331517823196,-0.11466791507863543]",4.0,"[-0.15889920034112562,-0.05353157308595898]",4.0,"[-0.06644345153487412,-0.1346932892460148]",4.0,"[0.11118736568722519,-0.1612597688110194]",4.0,"[0.060090673524729556,0.14206467816512475]",4.0,"[-0.09343356529242726,0.03421331032070851]",100.0,"[0.02,0.02]",188.2816,0.0,30.0,30.0,173.0,1.0,,,,,,,
,,,,,,,5c19b6e25ead950001bdb5a8,6842bb8b4b197d0d6f9e8885,2025-06-06_03h58.09.799,shape_ratio,2024.1.5,Linux x86_64,60.24096386,6842b561977af9ba9b0f87ca,,,,,,,,,,,188.2818,188.7767,,,189.0129,189.8141,left,0.7943,,,,,,,,,0.55,,,,,,188.7767,189.0128,189.8142,"[0.06952521634468589,-0.06823131721426626]",4.0,"[0.042227236435585416,0.03956309868706774]",100.0,"[-0.021535609059243805,-0.047366949406675914]",100.0,"[-0.10277569400137232,-0.03169206141743634]",100.0,"[0.07053200650497651,0.06898065208508639]",4.0,"[-0.06419713569752673,0.11034332745749674]",4.0,"[0.17054473084937655,-0.03409646973498396]",4.0,"[-0.07449641783019877,0.024550420868265848]",4.0,"[0.0766838891884882,-0.15181682067722851]",4.0,"[0.10866240896954102,0.0028844962439775537]",4.0,"[0.03095294397737719,-0.026036574341731074]",100.0,"[0.1199256017442151,-0.09432719338202182]",100.0,"[0.17046783868203294,-0.10283896321509482]",4.0,"[-0.02150005405133319,0.03344614504573363]",4.0,"[-0.13400640943860745,0.13726389624383487]",100.0,"[0.07105329595571126,0.1811060659573608]",100.0,"[-0.08800950271662975,0.07305553350311093]",4.0,"[0.02470363931928832,-0.08287113262848717]",4.0,"[-0.1586002945968613,-0.03084050948508792]",100.0,"[-0.19275933208480966,0.03617056864180699]",4.0,"[-0.15802716920353338,-0.08503722865724223]",100.0,"[-0.0324608693386134,-0.1344235272198414]",100.0,"[-0.038991515176357905,0.18016626774434313]",4.0,"[-0.11982761790568601,0.046307116171145205]",100.0,"[0.06917677733384534,-0.00581787546188186]",100.0,"[0.1811157255820177,0.05368272618723798]",100.0,"[-0.15620624817722029,0.08917620033357218]",100.0,"[-0.0923648772057062,0.15158923409819824]",100.0,"[0.1412951183498395,0.05762484454077751]",4.0,"[-0.08475655613077959,-0.10718476000215378]",100.0,"[-0.022666983978806517,0.12729125138301597]",100.0,"[0.04176359905828518,-0.18486326503831124]",100.0,"[0.02,0.02]",190.8981,0.0,31.0,31.0,74.0,1.0,,,,,,,
,,,,,,,5c19b6e25ead950001bdb5a8,6842bb8b4b197d0d6f9e8885,2025-06-06_03h58.09.799,shape_ratio,2024.1.5,Linux x86_64,60.24096386,6842b561977af9ba9b0f87ca,,,,,,,,,,,190.8983,191.3763,,,191.6058,192.2109,right,0.5929,,,,,,,,,0.6,,,,,,191.3764,191.6057,192.2109,"[0.014931622629594715,-0.15461742504662263]",4.0,"[-0.14757532408835808,-0.020591733688856598]",100.0,"[0.15216655667136733,0.11041999909041791]",4.0,"[0.14808738863264873,-0.12982585762865478]",4.0,"[0.07697964046980006,-0.17445740331744394]",100.0,"[-0.05347481162789178,-0.13865945177663133]",100.0,"[-0.07574965307098525,-0.1734155582195278]",100.0,"[0.16604776039822977,-0.04140214792221417]",100.0,"[0.009572017479263544,0.07613999122904228]",100.0,"[0.028478757489394213,0.1180510160458447]",4.0,"[-0.10037997142768777,-0.03098695650849489]",4.0,"[-0.1164009894911247,0.1157431588847525]",100.0,"[-0.10300772811522334,0.16006380549166344]",4.0,"[-0.13108863469384524,0.07053315284807915]",100.0,"[0.160990138443796,0.04357291449135301]",100.0,"[-0.1837875403147338,0.007211517260603931]",4.0,"[-0.03663626960099125,0.1421942243495014]",4.0,"[0.0006449166455646053,-0.027887757689345025]",100.0,"[0.05476469117283805,0.06425644563042109]",100.0,"[0.06378768348819,-0.06742989817730607]",100.0,"[-0.1242235697337913,-0.09751653443126929]",4.0,"[-0.0960288220919967,0.011204959045511706]",100.0,"[0.1452251875939549,0.00277912190211184]",100.0,"[-0.04187817273615516,0.08797194927718789]",100.0,"[-0.021209060924688425,-0.07423988916878621]",4.0,"[0.026794963415819578,-0.1948553507299054]",100.0,"[0.0706704588093044,0.17014198614042164]",4.0,"[0.09669924565878313,0.0694442697757508]",4.0,"[-0.08054317636456859,-0.10256716104660445]",100.0,"[0.09901241121977028,-0.0323524443725189]",100.0,"[0.0011124739953195845,-0.11693553917009174]",100.0,"[0.09511711745987683,-0.11060750356560412]",4.0,"[0.02,0.02]",193.3131,0.0,32.0,32.0,35.0,1.0,,,,,,,
,,,,,,,5c19b6e25ead950001bdb5a8,6842bb8b4b197d0d6f9e8885,2025-06-06_03h58.09.799,shape_ratio,2024.1.5,Linux x86_64,60.24096386,6842b561977af9ba9b0f87ca,,,,,,,,,,,193.3133,193.815,,,194.0429,194.5036,left,0.454,,,,,,,,,0.5,,,,,,193.815,194.0429,194.5036,"[0.0457979746099664,0.18990788383620855]",4.0,"[0.1530277160658478,-0.09063486860277122]",4.0,"[-0.09548803147319623,0.12711171819161457]",100.0,"[-0.05580031155129836,-0.14580525273190348]",4.0,"[-0.06397759279775309,0.16381689464385998]",100.0,"[-0.18023462925977568,0.08436691758005853]",100.0,"[-0.00798823287510889,0.018836626619810008]",4.0,"[-0.09657489435054241,-0.015082681096413595]",100.0,"[-0.13342712079390937,0.03037929353160701]",4.0,"[0.08828748343109133,0.04832486938955385]",100.0,"[0.04972541905010342,-0.10392380459812348]",4.0,"[0.06618730899739585,-0.16371832617678833]",100.0,"[0.11232546282229618,-0.03843369807984655]",100.0,"[0.02076281373786463,0.07798383430964743]",4.0,"[-0.14655636163174765,-0.04367652334516339]",100.0,"[-0.05216869495224131,0.114082663992563]",4.0,"[-0.05107400099700918,0.06772812949948478]",4.0,"[0.17206702495766807,0.016087227322429808]",100.0,"[-0.032268873772376146,-0.06662995153319161]",100.0,"[-0.09145442013654236,-0.08067498479542898]",4.0,"[-0.1500156861042848,-0.10434996795614289]",100.0,"[0.16112528269411522,0.11690304778718777]",100.0,"[0.014900516043214485,-0.14756337997713712]",4.0,"[0.12373665151829255,-0.12271158591587376]",100.0,"[0.18044689129965774,0.07075641242764562]",100.0,"[0.008445550033282576,-0.017946690698724968]",4.0,"[-0.1474938646941484,0.1179764640681035]",4.0,"[-0.17459801119251367,0.04109193613060769]",4.0,"[0.01219427549778954,-0.061661294777723925]",4.0,"[0.10305190418359023,0.12871566089775946]",100.0,"[0.051967964178249046,0.12774101268274968]",100.0,"[-0.16775121244914412,-0.008468899551278846]",4.0,"[0.02,0.02]",195.611,0.0,33.0,33.0,102.0,1.0,,,,,,,
,,,,,,,5c19b6e25ead950001bdb5a8,6842bb8b4b197d0d6f9e8885,2025-06-06_03h58.09.799,shape_ratio,2024.1.5,Linux x86_64,60.24096386,6842b561977af9ba9b0f87ca,,,,,,,,,,,195.6111,196.1183,,,196.344,196.7997,left,0.4491,,,,,,,,,0.5,,,,,,196.1183,196.344,196.7997,"[0.023598491198771495,-0.11733539503100315]",4.0,"[0.007891744854626319,-0.007520400954113794]",4.0,"[-0.04069671530868977,-0.05614873181909141]",4.0,"[0.06717975900860924,0.02234373383295651]",4.0,"[0.1299794585710066,0.12890612154477848]",4.0,"[-0.0934430150759687,0.11524084341925567]",100.0,"[-0.04616984243285048,0.15023329343248917]",100.0,"[0.06906643701522035,-0.05719831493829134]",100.0,"[0.00005866204861763953,0.06824908667565711]",100.0,"[0.1596967891547442,-0.08561509144001284]",100.0,"[-0.10671595255592993,-0.14954511409720161]",4.0,"[0.14253094258857857,-0.13037541756331583]",4.0,"[0.08151215541600973,0.13107114123652727]",100.0,"[0.06463957213818805,-0.11583640587245779]",4.0,"[-0.009937913837323679,0.1890242525043801]",100.0,"[-0.046869783261047314,0.052015923670921685]",100.0,"[-0.12973678620071888,0.02410996866774047]",4.0,"[0.12293172497014716,-0.05617685392932825]",100.0,"[0.06438585407424728,-0.18260428043064036]",100.0,"[-0.18419509112871507,0.016713504167572342]",100.0,"[-0.14886619219263925,-0.1146147816226153]",4.0,"[-0.0917991387828921,-0.025271948190942365]",4.0,"[0.10138643718574358,-0.01595588413728943]",100.0,"[0.1135628869251092,0.047786878888751605]",100.0,"[0.0030911353164534586,0.13637611474728842]",4.0,"[0.09729313089372517,0.09252557393891103]",100.0,"[-0.10393876724393034,0.16205597315144413]",4.0,"[-0.0751433418634443,-0.1207652272642827]",100.0,"[0.15328216230093028,0.028562802887103594]",100.0,"[0.17343968619391947,-0.009729075748191224]",4.0,"[0.020006153093305105,-0.067974032191692]",4.0,"[-0.0478772049252657,-0.1862752886391813]",4.0,"[0.02,0.02]",197.8893,0.0,34.0,34.0,110.0,1.0,,,,,,,
,,,,,,,5c19b6e25ead950001bdb5a8,6842bb8b4b197d0d6f9e8885,2025-06-06_03h58.09.799,shape_ratio,2024.1.5,Linux x86_64,60.24096386,6842b561977af9ba9b0f87ca,,,,,,,,,,,197.8897,198.3912,,,198.6183,199.3347,left,0.7101,,,,,,,,,0.55,,,,,,198.3912,198.6183,199.3347,"[-0.03553019306331352,0.0996150604261653]",4.0,"[0.025978611896218647,-0.19729084281569384]",100.0,"[-0.13583436622639913,0.14278831277397308]",100.0,"[0.08730613982506825,-0.0709625302307706]",100.0,"[-0.04559711111936486,-0.04895187030786831]",4.0,"[-0.11196117461511651,-0.02662265874834023]",100.0,"[0.02255212538798219,0.036710238491904225]",100.0,"[-0.03369161405775669,0.18081144635669288]",4.0,"[0.013051354110762546,0.18314254633921181]",4.0,"[-0.11122068931452228,0.04377554656950363]",4.0,"[0.19242752473529048,0.032732369124024246]",4.0,"[-0.03416803348260626,-0.14667919067853394]",100.0,"[-0.15663383816735657,-0.12096739662697337]",100.0,"[-0.06950563948867595,0.02399702569639257]",100.0,"[0.07092017064170796,-0.14276420917695312]",100.0,"[0.10847471686943705,-0.12495704812957911]",100.0,"[0.04281110140954016,0.0785089517987073]",100.0,"[0.16980298272292618,-0.08312893150449245]",100.0,"[-0.17133667527683616,-0.06479007240908592]",4.0,"[-0.11360354580863082,-0.1404717744562013]",100.0,"[-0.10099577347003105,0.12269187228691054]",100.0,"[-0.08574121087791922,-0.07976407317455345]",4.0,"[0.03948766448102896,-0.0014712569603079265]",100.0,"[0.1573170728528453,0.055870474826374326]",4.0,"[-0.16776522974447947,-0.0025342234641879706]",4.0,"[-0.15336603343951422,0.05984013625446288]",4.0,"[0.025094663298650788,-0.08087125420274757]",4.0,"[0.09326471054682703,0.13991166680039488]",4.0,"[-0.07578278843327388,0.15658784984287058]",100.0,"[-0.05109811584077507,-0.10532199274867068]",100.0,"[0.1493249450987378,-0.043961183924962864]",100.0,"[-0.01704306062173553,0.06401616101522693]",4.0,"[0.02,0.02]",200.4294,0.0,35.0,35.0,70.0,1.0,,,,,,,
,,,,,,,5c19b6e25ead950001bdb5a8,6842bb8b4b197d0d6f9e8885,2025-06-06_03h58.09.799,shape_ratio,2024.1.5,Linux x86_64,60.24096386,6842b561977af9ba9b0f87ca,,,,,,,,,,,200.4295,200.9343,,,201.1688,201.896,left,0.7208,,,,,,,,,0.4,,,,,,200.9343,201.1688,201.8961,"[0.11643605253742376,-0.08910484362357031]",100.0,"[-0.09057086150664224,-0.010883653795642254]",4.0,"[0.1735747974157287,0.09161589304260385]",100.0,"[-0.13970717110636302,-0.07876499766141609]",4.0,"[-0.11695232290103469,0.06955874820291538]",4.0,"[-0.022218507337247655,-0.16310725462956321]",4.0,"[0.1394567460995132,-0.03151451928014627]",100.0,"[0.027039846190083955,-0.07455827344276587]",4.0,"[0.1262642794537675,0.10551197278765992]",100.0,"[0.07631168204955671,0.1071916279761879]",4.0,"[-0.02591887718425231,0.09033195924070582]",100.0,"[-0.15851525844768552,0.04111581742137638]",4.0,"[-0.02920830204529487,0.029632724357850197]",100.0,"[0.1549882910575657,0.007566397243697416]",100.0,"[0.016497458387823263,0.0938660959124485]",4.0,"[-0.09699306850712631,-0.09449439080065183]",4.0,"[0.09164084303349045,-0.12054962910231319]",100.0,"[-0.15993921680609866,-0.1197949842074012]",4.0,"[-0.05179028327176027,-0.11979655859141608]",4.0,"[0.17365850822760198,-0.08418353060912792]",4.0,"[-0.01486882948328492,-0.056609080480633726]",100.0,"[-0.08754840134425229,-0.05420779929174057]",4.0,"[0.009546572397081968,-0.12632242741374794]",4.0,"[-0.021448095502124516,0.1858785621500744]",4.0,"[-0.10813847650029924,0.15368091676640205]",4.0,"[-0.1834426606676898,-0.021498667454131353]",100.0,"[0.027069977846754575,0.014067835615592508]",100.0,"[0.1002277737168922,0.15747999788231953]",4.0,"[-0.05460061478485402,0.1313419231888525]",4.0,"[0.0853529663930276,0.017409953633078696]",4.0,"[0.07396271247899247,-0.05079143871217261]",100.0,"[0.07358184355873393,-0.17984674581873014]",100.0,"[0.02,0.02]",203.0036,0.0,36.0,36.0,174.0,1.0,,,,,,,
,,,,,,,5c19b6e25ead950001bdb5a8,6842bb8b4b197d0d6f9e8885,2025-06-06_03h58.09.799,shape_ratio,2024.1.5,Linux x86_64,60.24096386,6842b561977af9ba9b0f87ca,,,,,,,,,,,203.0038,203.4838,,,203.7326,203.999,left,0.26,,,,,,,,,0.1,,,,,,203.4839,203.7326,203.999,"[0.03168303134047791,-0.03622228010993696]",4.0,"[-0.038961942874076165,-0.16880980221421157]",4.0,"[-0.04477991281567074,0.06610379391301939]",4.0,"[0.09877051214014243,-0.09019130867456358]",4.0,"[0.00751353959933419,0.03307870124082725]",4.0,"[-0.05348871975643041,-0.12273765691870965]",4.0,"[-0.11200228234004557,0.10940247476723743]",4.0,"[-0.005852193177437451,-0.0609625948445186]",4.0,"[-0.08712510012659021,0.06993874036315817]",4.0,"[-0.10557882017094865,-0.1465708920804656]",4.0,"[-0.14492546079387633,-0.11964010244627366]",100.0,"[0.10239945805806772,0.007538929796739103]",4.0,"[0.14395388746732837,-0.07517822648330116]",100.0,"[0.09109511089763718,-0.12953757621574105]",4.0,"[0.041960140061471446,-0.0810754671229144]",4.0,"[-0.06405629027712534,0.11543779184589491]",4.0,"[-0.00855087382263045,-0.00848481252264259]",4.0,"[-0.12599697592638984,0.15006813133472913]",4.0,"[0.09838561581564502,0.1443815708622548]",4.0,"[0.19452910928172468,-0.000412904561213827]",4.0,"[-0.15380299199008696,0.054017820573489084]",4.0,"[0.026104661992754095,0.12215170486990336]",4.0,"[-0.12576333389077893,-0.011023120153135724]",4.0,"[-0.18703567739589713,-0.053388361294476244]",4.0,"[0.05035358416987626,0.06893929263505559]",4.0,"[-0.10427084969669786,0.03146742137446277]",4.0,"[0.12482210886672397,-0.15294220542185305]",4.0,"[0.0036022389461007787,0.08457770534095933]",100.0,"[0.1184220903087355,0.07004500248459307]",4.0,"[0.15810833948736808,0.11856121842558383]",4.0,"[0.15208931186847038,0.038162563095604604]",4.0,"[-0.06434982552797,-0.0011198306801593117]",4.0,"[0.02,0.02]",205.0792,0.0,37.0,37.0,186.0,1.0,,,,,,,
,,,,,,,5c19b6e25ead950001bdb5a8,6842bb8b4b197d0d6f9e8885,2025-06-06_03h58.09.799,shape_ratio,2024.1.5,Linux x86_64,60.24096386,6842b561977af9ba9b0f87ca,,,,,,,,,,,205.0794,205.5649,,,205.8245,206.2295,left,0.3979,,,,,,,,,0.45,,,,,,205.565,205.8245,206.2295,"[0.11722299098723288,-0.06033068212066335]",4.0,"[0.1763769778885773,-0.0018529171939475387]",4.0,"[0.1581455165120651,0.07489094463718882]",100.0,"[0.01723174458839174,0.08652011723323925]",4.0,"[0.006742257145675418,0.026955316040366262]",100.0,"[-0.1794804107882805,-0.0387288897330494]",100.0,"[0.08273480563784344,-0.01684376762409244]",100.0,"[-0.17729839483347606,0.007897511941727269]",4.0,"[-0.057560156774021314,0.0407452165973492]",4.0,"[0.026316131418568464,-0.02588550097148553]",4.0,"[0.07779159698860355,0.17366397167827433]",100.0,"[0.050863905410764805,-0.1557064056778973]",100.0,"[-0.1443196175544158,0.12676777107835593]",4.0,"[0.029762056207883712,0.14913686653970773]",4.0,"[-0.09160509570445899,-0.06724766864969324]",4.0,"[-0.13012503465017058,-0.03696127286152781]",100.0,"[-0.11316028453544902,0.08425096138571334]",100.0,"[-0.03776252737897912,-0.015821127939263283]",100.0,"[0.09416075657287705,0.0515789508129677]",100.0,"[-0.015287068221695342,-0.19806565837732792]",4.0,"[-0.014755024098557074,0.192518337488535]",100.0,"[-0.01925308849695614,-0.05191769486805689]",4.0,"[-0.015549214354142289,-0.14936449660279735]",4.0,"[0.1285726552581544,0.024951564546579263]",100.0,"[-0.10172274133227162,-0.11632102495889923]",4.0,"[-0.08301694328687295,-0.019836862672929775]",100.0,"[-0.04881583434881998,0.14684374740128356]",4.0,"[0.1580810879598989,-0.06142398881727394]",100.0,"[0.02403418765328863,-0.09411408020459316]",4.0,"[-0.05080179947328537,-0.10671896281739553]",4.0,"[0.06855859568152357,-0.07737078915969373]",4.0,"[-0.06449653071337862,-0.1464347049059188]",4.0,"[0.02,0.02]",207.3202,0.0,38.0,38.0,131.0,1.0,,,,,,,
,,,,,,,5c19b6e25ead950001bdb5a8,6842bb8b4b197d0d6f9e8885,2025-06-06_03h58.09.799,shape_ratio,2024.1.5,Linux x86_64,60.24096386,6842b561977af9ba9b0f87ca,,,,,,,,,,,207.3203,207.8037,,,208.059,208.515,left,0.4496,,,,,,,,,0.4,,,,,,207.8037,208.059,208.5151,"[-0.008825646629736845,0.15238397192336878]",4.0,"[0.1608838647563617,-0.03719474932668225]",4.0,"[0.010121647582035967,0.01235332257456138]",100.0,"[-0.08435255805062085,0.08739431226826971]",4.0,"[0.06330072732884967,-0.1561989763226531]",100.0,"[0.029316807079413712,0.10005873483371305]",4.0,"[-0.06404347020573847,-0.026047293166138137]",4.0,"[-0.08074295795981806,0.14588171202143]",4.0,"[0.1134871622914422,0.0033962400410680184]",100.0,"[0.07747870303561936,0.16250762736092267]",4.0,"[0.11891113390242966,-0.10675731398822984]",100.0,"[0.00990188447777113,-0.07027394803298244]",100.0,"[-0.11755563143607055,-0.08449623207250799]",100.0,"[-0.04588996341218917,0.17406781628764498]",100.0,"[-0.00948585497454851,-0.14236294208550093]",4.0,"[-0.0787306854303577,0.021784927928181264]",4.0,"[-0.17766442865194446,-0.030147663282381224]",100.0,"[-0.05551054960920583,-0.18863134353086403]",4.0,"[0.13209402622884156,0.04195356275786279]",4.0,"[-0.14077580297807382,-0.00925813200623568]",100.0,"[0.07883235782345778,-0.06108062935145221]",4.0,"[-0.172572023448744,0.08147140481004744]",4.0,"[0.17504766479818853,0.03915316916168465]",100.0,"[0.11281210351484432,0.10640149021792408]",100.0,"[0.05450692503041902,0.05506659235396424]",4.0,"[-0.10963377802446839,-0.14939381616703554]",4.0,"[0.03609673958146555,-0.10117377492502344]",4.0,"[-0.17621188218894665,-0.08011238553119956]",4.0,"[0.04358425032537653,-0.022197867727362]",4.0,"[-0.026234114437620935,-0.08878273914297263]",100.0,"[-0.07592832556259291,-0.08019295168590077]",100.0,"[0.15965282015438773,-0.08583629049995194]",4.0,"[0.02,0.02]",209.6024,0.0,39.0,39.0,155.0,1.0,,,,,,,
,,,,,,,5c19b6e25ead950001bdb5a8,6842bb8b4b197d0d6f9e8885,2025-06-06_03h58.09.799,shape_ratio,2024.1.5,Linux x86_64,60.24096386,6842b561977af9ba9b0f87ca,,,,,,,,,,,209.6027,210.1031,,,210.3594,210.7356,left,0.3695,,,,,,,,,0.45,,,,,,210.1031,210.3593,210.7356,"[-0.03461578843777439,0.02780074297936437]",4.0,"[0.088299580206365,-0.1589168010774064]",100.0,"[-0.10929564360283944,-0.10868986619013647]",4.0,"[0.1841452643912557,-0.07661268277143289]",100.0,"[-0.14335619702623692,-0.07580983708112665]",4.0,"[0.07279058514564624,-0.09297923410271983]",4.0,"[0.08085148420053129,-0.05214033856613111]",4.0,"[-0.0988495839489696,-0.02093513710707734]",4.0,"[-0.10468662075812632,-0.16119204931559306]",100.0,"[-0.19687660150369207,-0.02175406730319027]",4.0,"[0.13725109295822435,-0.13438354233697314]",4.0,"[0.031350746425581034,-0.11376709404201091]",100.0,"[-0.0873769560903919,0.1609188702235683]",4.0,"[0.07783147606885617,0.14374443188083622]",4.0,"[0.04218204539168013,-0.19441216268164796]",100.0,"[0.1678115972430753,-0.02557353868029581]",100.0,"[-0.061922599461022826,-0.03784553412884405]",100.0,"[-0.04615720794137616,0.0822291683900146]",4.0,"[-0.013577919513084463,-0.13126629949789068]",4.0,"[0.007655901350687037,0.03741501820368802]",4.0,"[0.1325990830955794,0.1475444332434298]",4.0,"[-0.06889763285569614,-0.10033426704447083]",4.0,"[-0.032151561233183766,-0.1838893097859105]",100.0,"[0.13529128278708466,-0.07071844206124978]",100.0,"[-0.006141831176634698,0.19458975958226254]",100.0,"[-0.12260979880602033,0.10794705522019694]",100.0,"[0.1400494294915518,0.05534716558815864]",4.0,"[0.18354388005891067,0.02181759217838753]",100.0,"[-0.02295049818412882,-0.06407214230261793]",100.0,"[0.003436050824484426,0.1127176921884853]",4.0,"[0.04470009493744875,0.19487257657346382]",100.0,"[-0.14360428762223335,-0.1327698777438628]",4.0,"[0.02,0.02]",211.8302,0.0,40.0,40.0,149.0,1.0,,,,,,,
,,,,,,,5c19b6e25ead950001bdb5a8,6842bb8b4b197d0d6f9e8885,2025-06-06_03h58.09.799,shape_ratio,2024.1.5,Linux x86_64,60.24096386,6842b561977af9ba9b0f87ca,,,,,,,,,,,211.8305,212.3272,,,212.574,213.0548,right,0.4738,,,,,,,,,0.55,,,,,,212.3272,212.574,213.0548,"[0.1331336245022761,-0.06276881916838684]",4.0,"[-0.1401948665122163,-0.09307292131375935]",100.0,"[0.11318469564578149,0.09372925464512953]",100.0,"[0.023746364355225515,-0.1734435629233947]",100.0,"[0.007021369449775801,-0.08755745524629804]",4.0,"[0.0808539671668199,0.1348824362696041]",100.0,"[-0.09152090898150109,-0.16006342081764482]",100.0,"[-0.10573948734780649,0.12067272045040196]",4.0,"[-0.007483420575686773,0.1671086905688774]",4.0,"[0.08669746988174445,-0.15436529090256912]",100.0,"[-0.14463084931812445,-0.03582106188410329]",4.0,"[0.09032091037349448,-0.09082606200840905]",4.0,"[0.1651874246774436,0.07505484132963651]",100.0,"[0.016795279580680673,0.11637105417262898]",100.0,"[-0.02025600801876455,0.062261435026507765]",100.0,"[-0.052606774083091945,0.17122597684080768]",100.0,"[-0.18291639838421522,-0.07147534196092001]",4.0,"[0.14377258914373833,0.039506764166259485]",4.0,"[0.1987901046411051,0.016295557765816027]",4.0,"[0.14744835135084716,0.12124745114407655]",4.0,"[-0.19651012679711558,-0.021067129582001614]",100.0,"[-0.18025162366607114,0.04773297780689536]",100.0,"[0.04208904805148208,-0.019785208380275986]",100.0,"[-0.014611067262936697,0.006281175797554527]",100.0,"[-0.02898302548627889,-0.035811453494218326]",100.0,"[0.03395661930011991,0.03150615476555435]",100.0,"[0.0608483373432449,0.07541776752775335]",100.0,"[0.16994482440930103,-0.03809672351181885]",100.0,"[-0.08356998272830747,-0.02369256826862147]",4.0,"[-0.10852326181221017,0.07777459254524405]",4.0,"[0.02174885408914415,-0.12993306115371864]",4.0,"[-0.165434157794297,0.08909051943341692]",4.0,"[0.02,0.02]",214.1423,0.0,41.0,41.0,88.0,1.0,,,,,,,
,,,,,,,5c19b6e25ead950001bdb5a8,6842bb8b4b197d0d6f9e8885,2025-06-06_03h58.09.799,shape_ratio,2024.1.5,Linux x86_64,60.24096386,6842b561977af9ba9b0f87ca,,,,,,,,,,,214.1425,214.6334,,,214.8823,215.437,left,0.5481,,,,,,,,,0.6,,,,,,214.6334,214.8823,215.437,"[-0.18921270056737488,-0.03406548769360677]",100.0,"[-0.09516682052568967,0.1110765098593505]",100.0,"[-0.17233977744894238,-0.09311643033060478]",4.0,"[0.06858291172262965,0.0491145686711865]",4.0,"[0.04922325910389901,0.14937445951358164]",100.0,"[-0.0875745602773759,0.05654593585765647]",100.0,"[0.05411287938415473,-0.1616539425690928]",4.0,"[-0.08946928134716313,-0.12345904317629558]",100.0,"[0.12323945165400821,0.0619210003919605]",4.0,"[-0.095576132532113,-0.02776706763286402]",4.0,"[-0.1645366852440271,0.019501022631609168]",100.0,"[-0.07220053584923529,0.18502129256257088]",4.0,"[0.11251985336601901,0.0010311918822682265]",100.0,"[0.16677917537250483,0.033924486846340224]",4.0,"[-0.01832736544628392,-0.003566110732076111]",4.0,"[0.09611643391088485,-0.12692624871430597]",100.0,"[0.027720309994557334,-0.012264914067050823]",4.0,"[-0.16730560991816204,0.08934030784028071]",4.0,"[0.0941770992140844,0.12910099638388534]",4.0,"[0.13766360886866627,-0.04387292163693896]",100.0,"[0.0044994872326729685,-0.18898844911790574]",100.0,"[0.016633419087248084,-0.09449700588814886]",100.0,"[0.07509492280125184,-0.08153928601407226]",100.0,"[0.1970493948377205,-0.02605179246078395]",100.0,"[0.051516715366904,0.09485855916200682]",100.0,"[-0.04433511580369022,0.07922072121125591]",100.0,"[-0.13875400486026393,0.12128339873199706]",100.0,"[-0.07903998508246468,-0.07740808838495432]",100.0,"[-0.017670140306647236,0.1735761193453645]",100.0,"[-0.05134311604907979,-0.14985154509612472]",4.0,"[-0.12021940803723706,0.031243155398278828]",100.0,"[0.055280112788782004,-0.04158606119523766]",4.0,"[0.02,0.02]",216.5336,0.0,42.0,42.0,40.0,1.0,,,,,,,
,,,,,,,5c19b6e25ead950001bdb5a8,6842bb8b4b197d0d6f9e8885,2025-06-06_03h58.09.799,shape_ratio,2024.1.5,Linux x86_64,60.24096386,6842b561977af9ba9b0f87ca,,,,,,,,,,,216.5338,217.0263,,,217.2543,217.6739,left,0.413,,,,,,,,,0.4,,,,,,217.0263,217.2542,217.6739,"[-0.13724661831195228,0.07625468092844584]",4.0,"[0.011702681225953955,0.010138367936274722]",100.0,"[-0.11750575536742161,-0.1528704620147112]",100.0,"[0.02414810089987586,0.12262234128898061]",4.0,"[-0.08735649915203121,0.01234368826962935]",4.0,"[0.038010626552303785,-0.0309397075477785]",4.0,"[-0.11377651503962777,-0.0811696178433424]",100.0,"[-0.05003879748834835,-0.07629684857213324]",4.0,"[-0.1436259447099893,0.1383624941118457]",4.0,"[0.028464376727855956,0.06277317982414414]",4.0,"[-0.12690707892329506,0.029935167229967495]",4.0,"[0.08421801119607544,0.084657826064106]",4.0,"[0.14851983994382642,0.07852571586153881]",100.0,"[-0.03189656626130962,-0.005887905669547475]",4.0,"[0.04920466662180562,-0.10577099551706845]",4.0,"[-0.15939889319196757,-0.0731046220592002]",100.0,"[0.011311187097363987,0.17754597416050508]",100.0,"[-0.02903594175608947,-0.1378543723381871]",4.0,"[-0.15019536773382636,-0.013842550969245197]",100.0,"[0.04853793311139234,0.1617840880466339]",100.0,"[-0.04544010964932936,0.07208916586060911]",4.0,"[-0.03999330128859835,0.1801020964028952]",100.0,"[0.009410832977152506,-0.07299131943056292]",4.0,"[0.10492804357859256,-0.03409241611164393]",4.0,"[0.03650656168324644,-0.14655937647905928]",4.0,"[0.17837671825604884,0.01868059212705228]",100.0,"[-0.08575057697269457,0.11871885844007654]",4.0,"[0.15066738693064857,-0.012212247169823996]",4.0,"[0.07627666506363108,-0.07555855137586855]",100.0,"[-0.07302233213164072,-0.18030733170350685]",4.0,"[0.11741965532816366,-0.11525058921364587]",100.0,"[0.1713532193662866,-0.06317194998244113]",100.0,"[0.02,0.02]",218.7658,0.0,43.0,43.0,156.0,1.0,,,,,,,
,,,,,,,5c19b6e25ead950001bdb5a8,6842bb8b4b197d0d6f9e8885,2025-06-06_03h58.09.799,shape_ratio,2024.1.5,Linux x86_64,60.24096386,6842b561977af9ba9b0f87ca,,,,,,,,,,,218.7661,219.2588,,,219.4915,219.9952,left,0.497,,,,,,,,,0.5,,,,,,219.2589,219.4915,219.9953,"[-0.045050706459545814,-0.05181980787953872]",100.0,"[-0.10909863881351362,-0.1409581383710361]",100.0,"[0.12948591299094503,-0.0653828353857429]",100.0,"[0.02473768296733152,-0.09229276372613786]",4.0,"[-0.017057832562551178,-0.16841988979384512]",100.0,"[0.06666223022767606,0.13743310676363832]",4.0,"[0.0771727441209132,0.04310813474255585]",4.0,"[-0.040220408209063585,0.1721105942515892]",4.0,"[0.023680617374853715,0.03859609099210774]",4.0,"[0.17981858050330188,0.0725857352616738]",100.0,"[-0.1654879366364932,0.026593439350062642]",4.0,"[0.0808176851407895,-0.005245864380474989]",4.0,"[-0.10447366058968843,0.13205351860043932]",4.0,"[-0.015066076318287259,0.025294086807499314]",100.0,"[0.08356102553602372,-0.10716649276240307]",100.0,"[0.1263172660362191,-0.12087790392377551]",100.0,"[0.13298001635425571,0.1391996405665381]",100.0,"[-0.14829039779349037,0.1160300734409418]",100.0,"[0.14735760238906745,0.008458420578325106]",100.0,"[-0.08069463254146637,-0.08386093407243513]",100.0,"[-0.1331963523286476,-0.04294227795291017]",4.0,"[-0.05043873396176555,-0.11479417308297916]",100.0,"[-0.02499079689797771,0.10316575184395278]",4.0,"[0.031430025678850476,-0.0015750048308560164]",100.0,"[0.1061111369906348,0.0736392293618291]",4.0,"[-0.0073724747728885634,0.14375182691477334]",4.0,"[-0.05907683187034788,-0.1736929878253952]",100.0,"[-0.08306326515579171,0.01948942959679087]",100.0,"[-0.0766152778734457,0.06892606276175323]",4.0,"[-0.15223013823569442,-0.12400587569884038]",4.0,"[0.016140194930949717,-0.19622063798352565]",4.0,"[0.022963112877009834,0.10243231006582984]",4.0,"[0.02,0.02]",221.0715,0.0,44.0,44.0,90.0,1.0,,,,,,,
,,,,,,,5c19b6e25ead950001bdb5a8,6842bb8b4b197d0d6f9e8885,2025-06-06_03h58.09.799,shape_ratio,2024.1.5,Linux x86_64,60.24096386,6842b561977af9ba9b0f87ca,,,,,,,,,,,221.0718,221.5591,,,221.8108,222.4335,right,0.6161,,,,,,,,,0.55,,,,,,221.5591,221.8107,222.4336,"[0.1764387343112265,0.056759461738745694]",4.0,"[0.1582211969167949,-0.11840446691077738]",100.0,"[-0.00025989245207829186,-0.16826769102783662]",4.0,"[-0.11154865417290312,0.16255350144928418]",4.0,"[0.034538723603188014,0.1632548610432226]",4.0,"[-0.014642395137835513,-0.020058996657000137]",100.0,"[-0.049492764101989946,-0.09336383016785825]",100.0,"[-0.1873813887672516,0.021288396233371993]",100.0,"[0.06694712373593095,0.07005460942981988]",4.0,"[0.15829442951844008,-0.016680857804646832]",4.0,"[-0.06308541478053488,0.043285923187533805]",4.0,"[-0.04146644205972165,-0.17594332328960854]",100.0,"[-0.10343835262362326,-0.03248974444384742]",4.0,"[0.055135490558845805,-0.1299980081866276]",100.0,"[0.11412475511280824,-0.006381787896553437]",100.0,"[0.1305669018936779,-0.056226461039637805]",4.0,"[0.06449634492549561,0.017144184981193748]",100.0,"[0.15925173038660065,0.11177403650192248]",4.0,"[-0.114582090441796,0.046064437564741836]",100.0,"[-0.17777166393625596,-0.025633724647712908]",100.0,"[0.08120175956330242,-0.060219604378645875]",100.0,"[-0.056235208023152045,0.1332762021074441]",100.0,"[-0.17379648410045936,-0.07414158376017184]",4.0,"[0.07809614723679088,0.12331939829419472]",4.0,"[0.023636325427685678,0.011321560724656437]",100.0,"[-0.016602096938732387,0.15517757629692946]",100.0,"[0.11249154959659209,0.057255416071110184]",100.0,"[0.0075661775286543385,-0.07824933003832235]",100.0,"[0.009434988271717699,0.07275985410607771]",100.0,"[-0.13384028106241538,0.10228572655695051]",100.0,"[0.0792233857567259,0.1822234676958946]",4.0,"[0.0032419879866845604,-0.12606715627482443]",4.0,"[0.02,0.02]",223.5273,0.0,45.0,45.0,80.0,1.0,,,,,,,
,,,,,,,5c19b6e25ead950001bdb5a8,6842bb8b4b197d0d6f9e8885,2025-06-06_03h58.09.799,shape_ratio,2024.1.5,Linux x86_64,60.24096386,6842b561977af9ba9b0f87ca,,,,,,,,,,,223.5278,224.0254,,,224.2724,224.6937,left,0.4148,,,,,,,,,0.1,,,,,,224.0254,224.2724,224.6937,"[-0.08650876242703262,-0.032309948287965955]",4.0,"[0.049514151971953926,0.0758583233041034]",4.0,"[-0.16368899515376947,-0.10506293524031489]",4.0,"[-0.009724151899245158,0.03470831157976736]",4.0,"[0.04609829056727154,0.17422543858427328]",4.0,"[0.13701389280932083,-0.12533175704820218]",100.0,"[-0.060106336019219046,-0.07577646460039587]",100.0,"[-0.02831151036103885,-0.16220653235829047]",4.0,"[-0.12363386232121491,-0.13324073271870057]",4.0,"[-0.03866867286569074,0.12772606776864626]",4.0,"[0.0526707538939133,-0.18682772777517132]",4.0,"[-0.008380498929695961,0.18598936668590688]",4.0,"[-0.12874811961541094,0.10915523987730318]",4.0,"[-0.07570377530220247,0.06853304751993716]",4.0,"[0.013393085823250361,-0.1503594026982338]",4.0,"[0.08363877638199407,0.1591129713420711]",4.0,"[0.15122130100642042,0.07555388040247754]",4.0,"[-0.165441649624449,-0.045134044730204284]",4.0,"[0.1103999442446966,-0.027664100738382446]",4.0,"[0.030329848416476516,-0.10317218383943816]",4.0,"[-0.0026332473106718975,-0.07186669168814593]",4.0,"[-0.014085734968636599,-0.01428380950973423]",4.0,"[-0.17887140217782646,0.010157920741497066]",4.0,"[0.1916972892680648,0.04009543609437189]",4.0,"[0.14984330204853646,-0.03780921220189519]",4.0,"[0.13759175670647034,0.12223395636290045]",4.0,"[0.0909032298364403,-0.08735393716982794]",4.0,"[0.059201353564612876,0.0042649569982436]",4.0,"[-0.11770840531648882,0.15065689052730138]",100.0,"[0.03643033406538643,0.11520585539732933]",4.0,"[0.08154057757878977,0.11527184964588763]",4.0,"[0.18438867926954283,-0.060104977009740296]",4.0,"[0.02,0.02]",225.7854,0.0,46.0,46.0,198.0,1.0,,,,,,,
,,,,,,,5c19b6e25ead950001bdb5a8,6842bb8b4b197d0d6f9e8885,2025-06-06_03h58.09.799,shape_ratio,2024.1.5,Linux x86_64,60.24096386,6842b561977af9ba9b0f87ca,,,,,,,,,,,225.7856,226.2774,,,226.5112,227.4108,left,0.8928,,,,,,,,,0.6,,,,,,226.2775,226.5112,227.4108,"[0.004188866645534343,-0.10966092167542842]",100.0,"[-0.03507216390614544,0.12155487536533512]",100.0,"[0.12475934426737152,-0.08495668330963208]",100.0,"[-0.10688766526236065,0.10564689922459858]",4.0,"[-0.03407138203926338,-0.01414755229821374]",4.0,"[0.14179355497703663,0.10975000206922643]",100.0,"[0.11315487250850498,0.034899087758495796]",4.0,"[0.08623344033258926,-0.022746562705910946]",100.0,"[-0.1170460751545087,0.0615141275854801]",100.0,"[0.15341933542167843,0.07073174044570157]",100.0,"[0.024574345844025944,0.16061541884245376]",100.0,"[-0.17973677277142158,0.013442614232602701]",100.0,"[-0.11548055796780084,0.1487323941561219]",4.0,"[0.06340660642359149,0.05662378821605207]",100.0,"[0.04714473678297969,-0.1424738947147035]",4.0,"[-0.10065844654947376,-0.13812056888294874]",100.0,"[-0.08809560036759423,-0.08319957835899436]",4.0,"[-0.1361669926566404,-0.11334307172734635]",100.0,"[0.017142503901947728,-0.045476427851229295]",100.0,"[0.006663968919016362,0.11866221523592636]",100.0,"[-0.04952046063255335,-0.15526299556544973]",100.0,"[0.14021234474297498,-0.03762459353817659]",4.0,"[-0.1652358022235616,0.09014093306570742]",100.0,"[0.024242169588916104,0.07407241105509511]",4.0,"[0.007131007101472047,0.037074075407072554]",100.0,"[0.0888626364510038,-0.13887448820394735]",4.0,"[-0.10636815832070239,-0.018824764770079074]",100.0,"[-0.05921149143215999,-0.048813607994778685]",4.0,"[0.19362929243522095,0.04981334091966808]",4.0,"[0.08048453065410689,0.15764238884292622]",4.0,"[0.09803434322513542,0.11479439425429272]",4.0,"[0.18052898878890453,0.003249109667037782]",100.0,"[0.02,0.02]",228.4985,0.0,47.0,47.0,36.0,1.0,,,,,,,
,,,,,,,5c19b6e25ead950001bdb5a8,6842bb8b4b197d0d6f9e8885,2025-06-06_03h58.09.799,shape_ratio,2024.1.5,Linux x86_64,60.24096386,6842b561977af9ba9b0f87ca,,,,,,,,,,,228.4988,228.9867,,,229.1998,229.7022,left,0.4956,,,,,,,,,0.1,,,,,,228.9868,229.1998,229.7023,"[-0.1678330234444417,0.07971229719808196]",100.0,"[-0.036643697236679436,-0.05950785918480841]",4.0,"[0.05961948407728347,0.11753329845753108]",4.0,"[-0.12722170881066033,-0.06581350496409116]",4.0,"[-0.14107341742164925,0.04889369204235224]",4.0,"[0.09741687934134492,-0.07394459509220759]",100.0,"[-0.10213080454079235,0.06798875035628739]",4.0,"[0.04269075315895674,-0.17342362535821945]",4.0,"[0.19088273988788995,-0.022305707938030415]",4.0,"[-0.037001825301312845,0.049694664645062926]",4.0,"[0.017296658686337774,0.03540358115623567]",4.0,"[0.1319569309733144,0.055909296124193444]",4.0,"[-0.06222303192982162,0.10892184658503273]",4.0,"[-0.03688252243881998,0.1528229918942397]",4.0,"[0.08460809945520788,-0.1628903666107743]",4.0,"[-0.19058193712190347,-0.0041417316942203896]",4.0,"[0.12235246203742885,-0.14638953229547338]",4.0,"[-0.12998672149827295,0.13102261125092618]",4.0,"[-0.1606504915009867,-0.11662685006113999]",4.0,"[0.1391206653069635,-0.10447364306081784]",4.0,"[-0.08238874938626534,-0.11941680514532571]",4.0,"[0.01745618588250621,0.14318893920396494]",4.0,"[0.1652087785822478,-0.06966971208230656]",4.0,"[-0.04619891006607447,-0.18499339784654822]",4.0,"[-0.004429359857678016,0.09659464343698884]",4.0,"[-0.0051419776665649845,0.18342582448105707]",4.0,"[0.09102469527863326,0.0836613847730461]",100.0,"[0.1480743588743442,0.007299801669533176]",4.0,"[-0.0824289561915585,-0.16580953985614313]",4.0,"[0.06552881025280001,-0.02359991995333623]",4.0,"[-0.08140379655208842,-0.03784370430304738]",4.0,"[-0.04145369594476801,-0.10741144279338037]",4.0,"[0.02,0.02]",230.8131,0.0,48.0,48.0,193.0,1.0,,,,,,,
,,,,,,,5c19b6e25ead950001bdb5a8,6842bb8b4b197d0d6f9e8885,2025-06-06_03h58.09.799,shape_ratio,2024.1.5,Linux x86_64,60.24096386,6842b561977af9ba9b0f87ca,,,,,,,,,,,230.8135,231.3011,,,231.5348,231.9592,left,0.4179,,,,,,,,,0.45,,,,,,231.3011,231.5348,231.9593,"[-0.007982482610587616,0.08331180578776766]",100.0,"[0.09237910508995684,0.12021009644884255]",4.0,"[0.08566034879692565,-0.057387763970972006]",100.0,"[-0.07059658567688885,0.12114303895652996]",4.0,"[-0.130420722782251,-0.03375871122438393]",4.0,"[0.1137212514147971,-0.09674279300259248]",4.0,"[0.10620527851651866,0.01882167150468131]",4.0,"[0.06802214105613455,0.15696762515906698]",4.0,"[-0.12026838762324053,0.14625043274745253]",4.0,"[0.007061225826730345,-0.059691342952615]",100.0,"[-0.14860955425903963,0.04244532740229481]",4.0,"[-0.058392506288918414,0.07944937919182342]",100.0,"[0.12639480625382638,0.05775457399992379]",100.0,"[0.058446733258102186,-0.18982609342871454]",100.0,"[0.02858171550127226,-0.02470030852464]",4.0,"[0.04821199475216503,0.031623872107817814]",100.0,"[-0.19496453172926742,0.02900780019790091]",4.0,"[-0.05736459241598925,-0.07415424772632209]",100.0,"[-0.10790298370507899,0.010723240846359186]",4.0,"[-0.04699873999670892,0.020747999148399685]",4.0,"[-0.008943584315281259,-0.14000683613114107]",100.0,"[0.1627631056785943,-0.09585673962397712]",100.0,"[0.15081358179692475,0.11109244507124756]",4.0,"[-0.04980231644567718,-0.1206002521840349]",100.0,"[-0.009357481564144643,-0.009508298016390304]",100.0,"[0.06976960493766983,-0.10232763543600759]",4.0,"[-0.14265553030668585,-0.07512328267662235]",4.0,"[-0.08607179843357188,-0.03548380310146488]",4.0,"[-0.09979234541236393,-0.08616069493853203]",100.0,"[0.038669272911167465,-0.1428011168531773]",4.0,"[0.048505622122281544,0.10780173363116123]",100.0,"[-0.182999137074492,-0.0605860234840633]",4.0,"[0.02,0.02]",233.0519,0.0,49.0,49.0,134.0,1.0,,,,,,,
