right,left,explain.started,explain.stopped,key_resp_3.keys,key_resp_3.rt,key_resp_3.duration,participant,session,date,expName,psychopyVersion,OS,frameRate,study_id,explain_2.started,explain_2.stopped,key_resp_4.keys,key_resp_4.rt,key_resp_4.duration,explain_3.started,explain_3.stopped,key_resp_5.keys,key_resp_5.rt,key_resp_5.duration,fixation.started,fixation.stopped,practice.started,practice.stopped,response.started,response.stopped,key_resp.keys,feedback.started,feedback.stopped,trials_2.thisRepN,trials_2.thisTrialN,trials_2.thisN,trials_2.thisIndex,trials_2.ran,dot_ratio,key_resp.rt,key_resp.duration,explain_4.started,explain_4.stopped,key_resp_6.keys,key_resp_6.rt,key_resp_6.duration,dotDisplay.started,dotDisplay.stopped,ITI.started,polygon_1.pos,polygon_1.edges,polygon_2.pos,polygon_2.edges,polygon_3.pos,polygon_3.edges,polygon_4.pos,polygon_4.edges,polygon_5.pos,polygon_5.edges,polygon_6.pos,polygon_6.edges,polygon_7.pos,polygon_7.edges,polygon_8.pos,polygon_8.edges,polygon_9.pos,polygon_9.edges,polygon_10.pos,polygon_10.edges,polygon_11.pos,polygon_11.edges,polygon_12.pos,polygon_12.edges,polygon_13.pos,polygon_13.edges,polygon_14.pos,polygon_14.edges,polygon_15.pos,polygon_15.edges,polygon_16.pos,polygon_16.edges,polygon_17.pos,polygon_17.edges,polygon_18.pos,polygon_18.edges,polygon_19.pos,polygon_19.edges,polygon_20.pos,polygon_20.edges,polygon_21.pos,polygon_21.edges,polygon_22.pos,polygon_22.edges,polygon_23.pos,polygon_23.edges,polygon_24.pos,polygon_24.edges,polygon_25.pos,polygon_25.edges,polygon_26.pos,polygon_26.edges,polygon_27.pos,polygon_27.edges,polygon_28.pos,polygon_28.edges,polygon_29.pos,polygon_29.edges,polygon_30.pos,polygon_30.edges,polygon_31.pos,polygon_31.edges,polygon_32.pos,polygon_32.edges,dot_size,ITI.stopped,trials.thisRepN,trials.thisTrialN,trials.thisN,trials.thisIndex,trials.ran,break_2.started,break_2.stopped,trials_3.thisRepN,trials_3.thisTrialN,trials_3.thisN,trials_3.thisIndex,trials_3.ran
subject chose dot,subject chose diamond,0.0005,29.2468,space,14.2279,,5cd083548702e10018e3b0a5,68399d25daf88b88604399f2,2025-05-30_13h57.39.671,shape_ratio,2024.1.5,Win32,59.88023952,683853e18dae57a2147b65e0,,,,,,,,,,,,,,,,,,,,,,,,,,,,,,,,,,,,,,,,,,,,,,,,,,,,,,,,,,,,,,,,,,,,,,,,,,,,,,,,,,,,,,,,,,,,,,,,,,,,,,,,,,,,,,,,,
,,,,,,,5cd083548702e10018e3b0a5,68399d25daf88b88604399f2,2025-05-30_13h57.39.671,shape_ratio,2024.1.5,Win32,59.88023952,683853e18dae57a2147b65e0,29.2472,59.9197,space,0.6584,,,,,,,,,,,,,,,,,,,,,,,,,,,,,,,,,,,,,,,,,,,,,,,,,,,,,,,,,,,,,,,,,,,,,,,,,,,,,,,,,,,,,,,,,,,,,,,,,,,,,,,,,,,,,
,,,,,,,5cd083548702e10018e3b0a5,68399d25daf88b88604399f2,2025-05-30_13h57.39.671,shape_ratio,2024.1.5,Win32,59.88023952,683853e18dae57a2147b65e0,,,,,,59.9199,63.9496,space,1.0078,,,,,,,,,,,,,,,,,,,,,,,,,,,,,,,,,,,,,,,,,,,,,,,,,,,,,,,,,,,,,,,,,,,,,,,,,,,,,,,,,,,,,,,,,,,,,,,,,,,,,,,,
,,,,,,,5cd083548702e10018e3b0a5,68399d25daf88b88604399f2,2025-05-30_13h57.39.671,shape_ratio,2024.1.5,Win32,59.88023952,683853e18dae57a2147b65e0,,,,,,,,,,,63.969,64.4656,64.466,64.7167,64.7169,66.2141,,66.2142,67.3131,0.0,0.0,0.0,1.0,1.0,0.8,,,,,,,,,,,,,,,,,,,,,,,,,,,,,,,,,,,,,,,,,,,,,,,,,,,,,,,,,,,,,,,,,,,,,,,,,,,,,,,,,,,,,,,,
,,,,,,,5cd083548702e10018e3b0a5,68399d25daf88b88604399f2,2025-05-30_13h57.39.671,shape_ratio,2024.1.5,Win32,59.88023952,683853e18dae57a2147b65e0,,,,,,,,,,,67.3136,67.8126,67.8126,68.0626,68.0626,68.5131,right,68.5132,69.6113,0.0,1.0,1.0,0.0,1.0,0.2,0.4381,,,,,,,,,,,,,,,,,,,,,,,,,,,,,,,,,,,,,,,,,,,,,,,,,,,,,,,,,,,,,,,,,,,,,,,,,,,,,,,,,,,,,,,
,,,,,,,5cd083548702e10018e3b0a5,68399d25daf88b88604399f2,2025-05-30_13h57.39.671,shape_ratio,2024.1.5,Win32,59.88023952,683853e18dae57a2147b65e0,,,,,,,,,,,,,,,,,,,,,,,,,,,,69.6119,74.8412,space,2.2094,,,,,,,,,,,,,,,,,,,,,,,,,,,,,,,,,,,,,,,,,,,,,,,,,,,,,,,,,,,,,,,,,,,,,,,,,,,,,,,,,,
,,,,,,,5cd083548702e10018e3b0a5,68399d25daf88b88604399f2,2025-05-30_13h57.39.671,shape_ratio,2024.1.5,Win32,59.88023952,683853e18dae57a2147b65e0,,,,,,,,,,,74.8796,75.3564,,,75.6069,76.0221,right,,,,,,,,0.55,0.396,,,,,,,75.3572,75.6069,76.0225,"[-0.009943942438930207,-0.014691095946125212]",100.0,"[-0.14797946455274819,-0.011821466004887883]",100.0,"[-0.11271830758607716,-0.06047336616576236]",100.0,"[0.12630594807672757,-0.05264267857013765]",100.0,"[-0.0979649132714988,-0.003965504907561609]",100.0,"[0.08092761063162993,0.027244189949079494]",4.0,"[0.0515686060840864,-0.14231157240782022]",100.0,"[-0.021757262636557684,-0.06513999821518922]",100.0,"[0.19238003417093408,0.007754128289000186]",4.0,"[0.026344825640455944,0.16862250617942928]",100.0,"[0.10728170810812214,0.09264316131237763]",100.0,"[-0.09041423470575953,-0.14150254590761263]",4.0,"[0.03502782506247372,-0.08069206051970809]",100.0,"[-0.12092934238323122,0.037120980501085254]",100.0,"[-0.06217741269863316,-0.05050050313797114]",4.0,"[0.033313013100529976,0.04217284616331163]",100.0,"[0.13929221789152468,-0.10084385907136748]",4.0,"[0.024970911533821732,0.10897374076694268]",4.0,"[-0.03833471267676961,0.14568076925446355]",4.0,"[-0.18762408473880526,0.015254974913570134]",100.0,"[-0.16665663102198172,-0.05518237721633802]",100.0,"[-0.0008316815917233854,-0.18932814599484207]",4.0,"[-0.04128895975574822,-0.1762573527756144]",4.0,"[-0.18279738946227406,0.07900294627505113]",4.0,"[-0.08391464565047764,0.1042584166716806]",4.0,"[0.12346500529653379,-0.15223012997394625]",100.0,"[-0.05558385638064122,0.06947322014427636]",100.0,"[-0.04410988575614392,0.18912592154127614]",4.0,"[-0.15678914993104473,-0.09461228177805499]",4.0,"[0.07595179069791959,0.15565346204425187]",4.0,"[0.08300233564444637,-0.07853971450314913]",100.0,"[0.14889394871064138,0.025758604782769923]",100.0,"[0.02,0.02]",77.1212,0.0,0.0,0.0,72.0,1.0,,,,,,,
,,,,,,,5cd083548702e10018e3b0a5,68399d25daf88b88604399f2,2025-05-30_13h57.39.671,shape_ratio,2024.1.5,Win32,59.88023952,683853e18dae57a2147b65e0,,,,,,,,,,,77.1215,77.6207,,,77.8708,78.1868,right,,,,,,,,0.55,0.3005,,,,,,,77.6207,77.8708,78.1869,"[-0.09998731588627473,0.07056997958778269]",100.0,"[-0.10104068244633084,-0.16266521440098328]",4.0,"[-0.005056546510553271,-0.12038552155190359]",4.0,"[0.07379285567832078,-0.14958526489800006]",100.0,"[0.05484784008828762,0.03373675537623624]",100.0,"[-0.17981231982585527,0.021342345657215527]",100.0,"[0.13611935269810815,-0.12154818144742015]",4.0,"[0.08109181614829084,-0.04682892205449617]",4.0,"[-0.0054607317677357985,0.03521176391532591]",100.0,"[-0.03241341634819692,0.12028063440625383]",100.0,"[-0.09928044679963495,-0.005451176669828699]",4.0,"[-0.17620302550397288,-0.07936399580684916]",4.0,"[0.17421511507742443,-0.08415575660945217]",100.0,"[-0.005736615074290528,0.08600543615249137]",4.0,"[-0.08329556131286503,-0.06069269332373775]",100.0,"[0.04426293006041779,0.18470749338359643]",100.0,"[0.09862626384558258,0.06580623644365509]",4.0,"[-0.06968441888628778,0.17519550049028662]",100.0,"[-0.008596877921487927,-0.19623076462516018]",100.0,"[-0.03360921817128649,0.0013016365433098406]",100.0,"[0.038263416715087976,0.11215727011708214]",4.0,"[-0.003176556054976255,0.17894206412369065]",100.0,"[0.1390521567534824,0.1015579516305728]",100.0,"[-0.13330260873554356,-0.033110775063267074]",100.0,"[0.09856079696514478,-0.00981783954379948]",100.0,"[-0.07647683696346284,-0.12375682184906354]",100.0,"[0.07188945981240995,-0.09808094235487093]",4.0,"[0.022748811181422645,-0.06930592118363017]",4.0,"[0.10289816416174975,0.17086428895059264]",4.0,"[-0.08001641737042275,0.10690207231348786]",4.0,"[-0.12283201254772076,0.13947988286258345]",4.0,"[-0.03887478204571134,-0.08068814432196372]",100.0,"[0.02,0.02]",79.2858,0.0,1.0,1.0,62.0,1.0,,,,,,,
,,,,,,,5cd083548702e10018e3b0a5,68399d25daf88b88604399f2,2025-05-30_13h57.39.671,shape_ratio,2024.1.5,Win32,59.88023952,683853e18dae57a2147b65e0,,,,,,,,,,,79.2861,79.7855,,,80.0355,80.3517,right,,,,,,,,0.9,0.2963,,,,,,,79.7855,80.0354,80.3517,"[0.1212071136797343,-0.026424300377269203]",100.0,"[-0.08624949582239066,0.10860638857599278]",100.0,"[0.08272777357406887,-0.06130315296408588]",100.0,"[-0.07018772529608061,-0.11949209656936109]",100.0,"[-0.09940026945310315,0.0009316537546041905]",100.0,"[-0.13609192638710396,0.026058157404380573]",100.0,"[-0.041416500619550795,-0.003024186137090345]",100.0,"[-0.037851944003748146,0.11304241043571688]",100.0,"[0.01285780543567407,0.16066786697995353]",100.0,"[-0.04455223730156225,0.19206010638083743]",100.0,"[0.11309767680107025,-0.09440489310422345]",100.0,"[0.16588703341418715,-0.023674086353046603]",100.0,"[0.13811587216448212,0.049259383358966555]",100.0,"[-0.07863923430566341,-0.1652056359769485]",100.0,"[-0.08049719151385476,0.04777088705413042]",100.0,"[-0.10572714936166171,0.14418009984954702]",100.0,"[-0.00984062807483657,-0.14673641613814914]",100.0,"[-0.14229016283668072,-0.12770442833928738]",100.0,"[0.05204179339278429,0.13946454818272708]",100.0,"[0.02796394222292249,-0.05900559730397317]",4.0,"[0.03667708457172758,-0.1460036768185231]",100.0,"[-0.017398735440175485,0.05609036297402548]",100.0,"[0.0647167317325647,-0.09784091907239952]",4.0,"[0.1312459743423914,0.14841141595406748]",100.0,"[-0.06683782203284741,-0.06863517954529841]",100.0,"[-0.1736742388570229,-0.07600594682056784]",100.0,"[0.09858087296212488,0.037151904767543265]",100.0,"[0.026792839999808745,0.022847593369728015]",100.0,"[0.09291451562451902,0.10336608045499016]",100.0,"[-0.1645095057009684,0.10633731154127082]",100.0,"[0.0739043458751,-0.015588308091615818]",4.0,"[0.07959798894857166,0.17390946431039458]",100.0,"[0.02,0.02]",81.4509,0.0,2.0,2.0,16.0,1.0,,,,,,,
,,,,,,,5cd083548702e10018e3b0a5,68399d25daf88b88604399f2,2025-05-30_13h57.39.671,shape_ratio,2024.1.5,Win32,59.88023952,683853e18dae57a2147b65e0,,,,,,,,,,,81.4514,81.9502,,,82.2001,82.4998,left,,,,,,,,0.1,0.2796,,,,,,,81.9502,82.2001,82.4998,"[0.13808646293338894,0.009878040686551237]",4.0,"[0.04932447303964163,-0.1434426055267009]",4.0,"[0.06960602555663051,0.14816189638653088]",100.0,"[0.01761665517934274,0.16259376072620163]",4.0,"[-0.12718904647335846,-0.016556256739485957]",4.0,"[-0.05636915913986027,-0.0016457493698540046]",4.0,"[0.06324527781738104,-0.10579488465337016]",4.0,"[0.16099892941821234,-0.03452792010647591]",4.0,"[-0.13688680290886865,-0.06528358803840541]",4.0,"[-0.05392335036173491,-0.16096845084396982]",4.0,"[-0.016331314667992137,-0.10080092750172102]",4.0,"[0.040932394613952976,-0.04145776891630327]",4.0,"[0.06145212049137269,0.049389554704626575]",4.0,"[-0.008474284405903516,0.06241312989699296]",4.0,"[-0.19438942281271437,-0.0246591429082241]",4.0,"[0.031739226089819425,0.124742386021481]",4.0,"[-0.08825931621950764,-0.07250136179376707]",4.0,"[0.000004269483170310707,-0.02270490920554034]",4.0,"[0.12531467597385965,-0.11717511266921253]",4.0,"[-0.10706872795158577,0.1175897074634397]",4.0,"[-0.09447873730640392,-0.16090259285150074]",4.0,"[-0.03627608934392225,0.1887568489414084]",4.0,"[-0.024575496625514406,-0.19087523104565837]",4.0,"[-0.11037662138696591,0.049956089459927515]",4.0,"[-0.16383452410848554,-0.09889915466669001]",4.0,"[-0.02383928367544315,0.11426539272084997]",4.0,"[-0.1345477443647992,-0.12659446272488856]",4.0,"[0.10510215802119681,0.1157655419841961]",4.0,"[0.15385302986932498,0.10603796079473765]",100.0,"[0.0942937917042794,-0.05216951994922906]",4.0,"[-0.16556606743200455,0.1031143474074368]",4.0,"[-0.07495600893207617,0.08072297413963403]",100.0,"[0.02,0.02]",83.5991,0.0,3.0,3.0,194.0,1.0,,,,,,,
,,,,,,,5cd083548702e10018e3b0a5,68399d25daf88b88604399f2,2025-05-30_13h57.39.671,shape_ratio,2024.1.5,Win32,59.88023952,683853e18dae57a2147b65e0,,,,,,,,,,,83.5996,84.0983,,,84.3487,84.8314,left,,,,,,,,0.5,0.4638,,,,,,,84.0983,84.3487,84.8315,"[-0.1955023246030974,-0.040472208913738233]",4.0,"[-0.11251569692979786,0.14486199388020413]",4.0,"[-0.00393036030627774,0.05496637340735655]",4.0,"[0.1754215348599253,0.0707315006707678]",100.0,"[-0.06651741393279925,-0.08657679125286512]",4.0,"[-0.017462787493888795,-0.0756831332376599]",4.0,"[0.03558238871893713,0.028472717778518054]",4.0,"[0.0915436496049057,0.15852303400898757]",100.0,"[-0.005408001141094573,-0.12342862390134676]",100.0,"[0.16572083264405751,-0.09381804247982252]",4.0,"[-0.15928504905767965,-0.0701521334128726]",4.0,"[-0.003097970442103937,0.10398564233479013]",100.0,"[-0.059031202836871965,0.18918228354361027]",4.0,"[0.18787615866369548,0.010858158565424216]",100.0,"[0.125646828054301,0.12006632247727239]",100.0,"[-0.06581737837272171,0.033117060777495176]",100.0,"[-0.06602065127056372,-0.03965557939950262]",4.0,"[-0.12690099450045467,0.028991256528583503]",100.0,"[-0.16586870796821093,-0.008301848258675488]",100.0,"[0.12965913062409554,-0.12715744730500628]",100.0,"[0.14958949232455815,0.031051002488797733]",4.0,"[-0.12051904590678278,0.0970220674841139]",100.0,"[-0.043898139663769216,0.13406651307492626]",100.0,"[-0.1162670406643803,-0.059461558209090375]",4.0,"[-0.06543388192393694,0.09775720049366173]",4.0,"[-0.15903102467130512,0.08298206891761553]",100.0,"[0.06178836007582732,-0.15936282129513674]",4.0,"[0.054930060634925094,0.1241886878489071]",100.0,"[0.012855662103657236,0.1626121680914259]",100.0,"[0.0015404513623777406,-0.17422722219963382]",4.0,"[0.10538935662185922,0.05722148593136521]",100.0,"[0.11554486320883167,-0.06154300924444335]",4.0,"[0.02,0.02]",85.9305,0.0,4.0,4.0,118.0,1.0,,,,,,,
,,,,,,,5cd083548702e10018e3b0a5,68399d25daf88b88604399f2,2025-05-30_13h57.39.671,shape_ratio,2024.1.5,Win32,59.88023952,683853e18dae57a2147b65e0,,,,,,,,,,,85.931,86.43,,,86.6802,87.0625,right,,,,,,,,0.45,0.3643,,,,,,,86.43,86.6802,87.0625,"[-0.0835336219901313,-0.010000408103552296]",4.0,"[-0.1244505795893774,0.04391909615605124]",4.0,"[0.033109241508960885,-0.12592206481888218]",4.0,"[0.06660462309811874,0.1792911011454686]",4.0,"[-0.06635512501786091,0.0722808104098422]",100.0,"[0.14279132477700418,0.12371024041785474]",4.0,"[-0.08651952464638173,0.12617142944164547]",4.0,"[-0.02202340463888548,0.05134855475785721]",100.0,"[0.17071682975048919,-0.07563832244697602]",4.0,"[-0.16333412861270297,-0.09133803805476247]",100.0,"[-0.006308167628221641,-0.024788750574746853]",100.0,"[-0.010365415558097965,-0.17781372034409534]",4.0,"[-0.14685702751268118,0.12780998463157067]",100.0,"[0.171773513937908,0.09343618521275]",100.0,"[-0.044537347146669175,0.1540863144868646]",4.0,"[-0.19691093430242368,-0.030576662439665583]",4.0,"[0.13575326819804232,0.020419628245460356]",4.0,"[-0.01777495418012121,-0.09111927282099123]",100.0,"[-0.11678526484207583,-0.10005960161573547]",100.0,"[0.12221285514839583,0.08356240238343614]",4.0,"[0.19478604107535719,-0.04147665722531774]",100.0,"[0.09129292285228437,-0.0917364603896706]",4.0,"[0.023362222800167694,0.04592625866203826]",100.0,"[-0.0045249490354835435,0.13714864233486754]",4.0,"[-0.1678677530528662,0.04917051935825007]",4.0,"[-0.10460101647996342,-0.1544364819250213]",4.0,"[0.13151427944072336,-0.06634208832513044]",4.0,"[0.12098781692974642,-0.13312312814540372]",4.0,"[-0.14787012226210325,-0.007765061328205381]",100.0,"[0.022611566901375193,-0.06832696936746718]",100.0,"[-0.04177476232643021,-0.044112411776642414]",100.0,"[0.061598645003599295,0.12335122438732622]",100.0,"[0.02,0.02]",88.162,0.0,5.0,5.0,135.0,1.0,,,,,,,
,,,,,,,5cd083548702e10018e3b0a5,68399d25daf88b88604399f2,2025-05-30_13h57.39.671,shape_ratio,2024.1.5,Win32,59.88023952,683853e18dae57a2147b65e0,,,,,,,,,,,88.1626,88.6615,,,88.912,89.3443,right,,,,,,,,0.4,0.4136,,,,,,,88.6615,88.9119,89.3445,"[0.02992272730138102,0.030821970995790378]",4.0,"[-0.004955426459792425,-0.01836344456413817]",100.0,"[0.1298808297947017,0.12616885933706273]",4.0,"[-0.09615701132526018,-0.03516167419242459]",4.0,"[-0.029916549817545993,0.17894958278696002]",100.0,"[-0.07791561893770735,0.008080871817277843]",100.0,"[0.0843436931051941,-0.1484807905348137]",4.0,"[-0.11860246652115224,0.11879766506701417]",100.0,"[-0.07551840509522847,-0.10852852173861968]",4.0,"[-0.18600780649841728,0.04257991925924982]",100.0,"[0.004299974350397377,0.11505369768258533]",4.0,"[-0.16050296709586953,0.07963217171375325]",4.0,"[-0.07700824448322914,0.11609329703749785]",4.0,"[0.12036587187799185,-0.08124651075873209]",100.0,"[-0.03253836388279772,0.05792613291653845]",4.0,"[0.05396048722979687,-0.09572942698557996]",4.0,"[-0.13427845823413473,0.030755603793133243]",4.0,"[-0.012789591298867253,0.022890739825410025]",4.0,"[-0.1345366129361235,-0.10754513502511999]",4.0,"[0.17390658394628125,-0.050813227857189475]",4.0,"[-0.16497768235769736,-0.045708369768725436]",100.0,"[-0.09756338782869584,0.17364031054402262]",100.0,"[0.18380435143295534,0.07003821697640505]",4.0,"[0.05113393287238988,0.15429782260527736]",4.0,"[0.16103892455686694,-0.00943737325801944]",100.0,"[0.10476385821563734,0.16107911213399417]",100.0,"[0.12707516276160713,-0.12574904792735736]",100.0,"[0.038584632850485245,-0.00959504752827138]",4.0,"[-0.17053035078048417,0.00408427140089316]",4.0,"[-0.028730355980889494,-0.17052009679040794]",100.0,"[0.09174577121924415,0.056424122673174516]",4.0,"[0.030145822122796758,-0.052441730557818686]",100.0,"[0.02,0.02]",90.4429,0.0,6.0,6.0,152.0,1.0,,,,,,,
,,,,,,,5cd083548702e10018e3b0a5,68399d25daf88b88604399f2,2025-05-30_13h57.39.671,shape_ratio,2024.1.5,Win32,59.88023952,683853e18dae57a2147b65e0,,,,,,,,,,,90.4434,90.9428,,,91.193,91.6924,left,,,,,,,,0.4,0.4843,,,,,,,90.9429,91.1929,91.6924,"[-0.1346838384866641,0.07099666609733857]",100.0,"[-0.046441555589616414,0.18672792476546352]",100.0,"[-0.0341165580573275,0.03108506331329893]",4.0,"[0.021897299903777492,0.05714504547913452]",4.0,"[-0.03728717261202219,0.11911991666389969]",100.0,"[0.04960001850483986,-0.07205356442522814]",4.0,"[0.14391188194665497,0.09032047156337729]",4.0,"[-0.024807186343668162,-0.15994209730743894]",4.0,"[-0.17788175604857068,0.057598275352132425]",4.0,"[0.0979722746108033,-0.10863417022475666]",4.0,"[0.15260586420754796,-0.02080934729855339]",100.0,"[-0.0918580578520593,-0.10315499164867811]",4.0,"[-0.16727566969436658,-0.09793005457247045]",100.0,"[0.10635796333110815,-0.1646762166715423]",100.0,"[-0.012109612279846877,-0.0767619997606733]",4.0,"[-0.12395630605978815,0.028915251303332383]",100.0,"[-0.01133814934456523,0.1577930709190454]",4.0,"[0.007440150561379828,0.11220315839622354]",100.0,"[0.13071305862847488,-0.06346346038276254]",100.0,"[-0.0054091570678454284,-0.0016921419712409612]",4.0,"[-0.057795604956441704,0.07750169052615927]",4.0,"[0.14090412712804207,0.021855368687397052]",4.0,"[0.024488441260462082,-0.16016536866511166]",4.0,"[0.023801060223208128,-0.11240399106049845]",4.0,"[-0.08822866800133827,0.04982688580755997]",4.0,"[-0.14218287597683427,-0.023320745588535717]",4.0,"[-0.07952189188702068,-0.03609831282710914]",4.0,"[0.022054722531645365,0.19581436242100245]",4.0,"[0.10010985011706501,0.0571378620001209]",100.0,"[0.0697374406935906,0.01574670860565029]",100.0,"[-0.18509884043864555,-0.059024159869706654]",100.0,"[0.03608226230048752,-0.014453394222957687]",100.0,"[0.02,0.02]",92.7907,0.0,7.0,7.0,179.0,1.0,,,,,,,
,,,,,,,5cd083548702e10018e3b0a5,68399d25daf88b88604399f2,2025-05-30_13h57.39.671,shape_ratio,2024.1.5,Win32,59.88023952,683853e18dae57a2147b65e0,,,,,,,,,,,92.791,93.2902,,,93.5415,94.1062,left,,,,,,,,0.4,0.5498,,,,,,,93.2903,93.5415,94.1063,"[-0.13584594785510257,0.13245954859207054]",4.0,"[0.020195428764973003,-0.1950936148470755]",100.0,"[0.16188942242091578,0.04473550352000875]",100.0,"[-0.03926059315604498,-0.05688385782590261]",4.0,"[-0.057788468354581846,0.08426071536488208]",4.0,"[0.175459083562205,-0.051594982659850075]",4.0,"[-0.015472847205750628,0.14586008245270063]",100.0,"[-0.08196335621229588,-0.14181966321984657]",4.0,"[0.016903033444925792,-0.014022727763765138]",4.0,"[-0.04845454572854833,-0.16939898960270083]",4.0,"[0.04112370536522092,0.1265162109681653]",100.0,"[0.11796129777901099,0.05919249333607397]",4.0,"[0.11403599937253074,-0.11161019018406608]",4.0,"[-0.19318979419500298,0.037078812795286464]",100.0,"[0.025630852349638425,0.027618432309707074]",4.0,"[-0.1683154266953257,0.08756936990186977]",4.0,"[0.13220614315944826,-0.0013918388461168804]",100.0,"[0.09590024967081529,0.01983892517193298]",100.0,"[-0.03367033906180237,0.00680693250662503]",4.0,"[-0.11064380377234455,-0.02308353902102405]",4.0,"[-0.10524226978393716,0.06528928234404566]",4.0,"[0.04027559114671621,-0.051865619434513205]",100.0,"[0.10002956216717793,0.10404747071828248]",4.0,"[-0.02555427872162059,-0.12656103714319444]",4.0,"[-0.07728848282281978,0.17973585479161508]",100.0,"[-0.14620324319868425,-0.0663309245449255]",100.0,"[0.05030663876422028,0.06580088409082166]",4.0,"[0.1990577699546974,0.01794700140869549]",4.0,"[-0.09704288625897331,0.02394489751767827]",4.0,"[0.08156320679505234,-0.038862412874776105]",100.0,"[-0.07587030719578886,0.13824050605339283]",100.0,"[0.01895227837735664,-0.13821333554964432]",100.0,"[0.02,0.02]",95.2055,0.0,8.0,8.0,157.0,1.0,,,,,,,
,,,,,,,5cd083548702e10018e3b0a5,68399d25daf88b88604399f2,2025-05-30_13h57.39.671,shape_ratio,2024.1.5,Win32,59.88023952,683853e18dae57a2147b65e0,,,,,,,,,,,95.206,95.705,,,95.9556,96.4714,left,,,,,,,,0.4,0.4977,,,,,,,95.7051,95.9556,96.4715,"[0.1309556315687693,-0.0881368952231116]",4.0,"[-0.07143651429442499,-0.16514759327366707]",100.0,"[-0.07685263375646735,-0.020173246003999723]",4.0,"[-0.127306942864991,0.12251217004218042]",4.0,"[-0.18953150002940075,0.049963708175843384]",100.0,"[0.024788969379925307,0.16319292460196683]",100.0,"[0.08695379332086506,0.16164951122871948]",4.0,"[0.07043563805829473,0.05027908437185694]",4.0,"[0.03825207569155432,-0.00910994658376714]",4.0,"[-0.024065652627587572,0.1436004313245362]",100.0,"[0.10961265548268223,-0.15918525686577448]",100.0,"[-0.054506414693707164,-0.11023200116563847]",100.0,"[0.16685731447921812,0.027990855005062314]",4.0,"[-0.15120714962584647,-0.12700564937338588]",100.0,"[0.138048097209353,0.11075511305325297]",100.0,"[-0.027786305014307497,0.047934980602341075]",4.0,"[-0.011278102906700692,-0.1060993179307425]",100.0,"[-0.1021424294057075,-0.06806178732141384]",4.0,"[-0.04119637915289052,0.0036990894820253784]",4.0,"[0.14051767907779877,-0.0037737948253247513]",4.0,"[0.002577691126373585,0.0772241573894057]",4.0,"[-0.03494825554619906,-0.1486590844784133]",100.0,"[0.020371303940787514,-0.06957198396149682]",100.0,"[0.17750635156693806,0.08883479695401665]",4.0,"[-0.18655630896213712,-0.0641110841322]",100.0,"[-0.18082792545915197,0.005656138735083166]",4.0,"[-0.022153647331571612,-0.03157992964084594]",4.0,"[0.07069283166728856,0.10504307616640397]",4.0,"[0.08657224087851552,-0.0678389636615891]",4.0,"[-0.06991472876966291,0.1169062298817453]",4.0,"[0.1679907524259198,-0.055919334346343774]",100.0,"[0.050379948137210355,-0.14983879995959892]",4.0,"[0.02,0.02]",97.5698,0.0,9.0,9.0,168.0,1.0,,,,,,,
,,,,,,,5cd083548702e10018e3b0a5,68399d25daf88b88604399f2,2025-05-30_13h57.39.671,shape_ratio,2024.1.5,Win32,59.88023952,683853e18dae57a2147b65e0,,,,,,,,,,,97.5701,98.0694,,,98.3199,99.1024,left,,,,,,,,0.4,0.7657,,,,,,,98.0694,98.3198,99.1025,"[-0.026234789315586954,0.11379004760762221]",100.0,"[-0.05924407165581167,0.17304289024538208]",4.0,"[-0.12337327718333783,0.11194791621112075]",100.0,"[-0.08250386715825926,0.005942639464452532]",100.0,"[0.0813495401164733,-0.157796731974814]",4.0,"[0.15577437724424206,0.02400554510482847]",4.0,"[0.02112494076841164,-0.06228169858003141]",100.0,"[0.018124951116241635,-0.13413847952648347]",100.0,"[0.0903012226007981,-0.011446087431615496]",4.0,"[-0.11693489421884677,0.037304903761364534]",4.0,"[-0.0695880653532692,-0.14658424524934807]",4.0,"[0.0518458041106046,0.02030760162700658]",100.0,"[-0.1303746401163709,-0.003417630252855941]",100.0,"[0.1402295332736314,-0.11691806859178128]",4.0,"[-0.05567697275330853,-0.06801470584086619]",4.0,"[0.09453805225427997,0.17275830320587468]",100.0,"[-0.13681539673029317,-0.07617432232264722]",100.0,"[0.17621040288534628,-0.0710923658676923]",4.0,"[-0.013207308520452612,0.1906387667339919]",100.0,"[0.15251171195586738,-0.023380965949311116]",100.0,"[-0.03504003024080541,0.015039156137071602]",4.0,"[0.11088530025470347,0.12931300982114277]",4.0,"[-0.1886311120516749,-0.026852615724841926]",4.0,"[0.04411313720362544,0.0715334661392685]",4.0,"[-0.0036732590545305735,-0.027225797649179182]",4.0,"[-0.19569838545614596,0.02787639539119496]",100.0,"[0.0413919689797425,0.14112857436614787]",4.0,"[0.12134378853405219,-0.05091531708542993]",4.0,"[0.1950524061844525,0.00918759585559281]",100.0,"[0.1573395327988873,0.10239380478202105]",4.0,"[-0.09365168093492755,0.07444735719756754]",4.0,"[-0.1772872823463782,0.09160091549886344]",4.0,"[0.02,0.02]",100.2011,0.0,10.0,10.0,151.0,1.0,,,,,,,
,,,,,,,5cd083548702e10018e3b0a5,68399d25daf88b88604399f2,2025-05-30_13h57.39.671,shape_ratio,2024.1.5,Win32,59.88023952,683853e18dae57a2147b65e0,,,,,,,,,,,100.2015,100.7012,,,100.9516,101.3667,left,,,,,,,,0.1,0.3951,,,,,,,100.7012,100.9514,101.3667,"[-0.14189703999415626,0.1252446330916377]",100.0,"[-0.0617505271670587,-0.12780840225635784]",4.0,"[0.05455400592976411,-0.17620530247277139]",4.0,"[0.13882814117427547,-0.04424423663596744]",4.0,"[0.11950623173775388,0.03228512144086592]",4.0,"[0.047353927027632976,0.10695120735518358]",4.0,"[0.03616339679889223,-0.09523916763298124]",4.0,"[-0.0636415339094054,-0.17123178207061696]",4.0,"[-0.02916699627571492,-0.06210783568537033]",4.0,"[0.09813113954832853,-0.033497316989025985]",4.0,"[-0.06581590040088688,-0.0006782728872045111]",4.0,"[0.08398020365993236,0.06434583244193025]",4.0,"[0.13412935994329866,-0.10410897696400616]",4.0,"[0.1545780387120648,0.12480720977648264]",4.0,"[0.04452125861788284,0.15584967492070154]",4.0,"[-0.1708616987224074,0.010852348349298753]",4.0,"[-0.15776555094493047,-0.06542635854320505]",4.0,"[0.043197853906905066,0.04045375209011412]",4.0,"[-0.10786880005915582,0.030280535389544533]",4.0,"[-0.09355220097309214,-0.047966566642479114]",4.0,"[0.14118544997414825,0.08538502391247603]",4.0,"[0.01767477967332628,-0.14597519940729686]",4.0,"[-0.045483664841444914,0.10397809883456671]",4.0,"[-0.10583128298072147,0.15045422774963577]",4.0,"[-0.11100266964620202,-0.16360011743141642]",100.0,"[0.10501469095123393,-0.1621206342420911]",4.0,"[0.18572424693902478,0.012903551273903269]",4.0,"[0.09157433362281733,0.10657328615264827]",4.0,"[0.1957774239697421,-0.025828623533969544]",100.0,"[0.009638175380029446,-0.03886498889535688]",4.0,"[-0.09389962242487344,0.0691891944542587]",4.0,"[0.05457036034448092,-0.04435166452066913]",4.0,"[0.02,0.02]",102.466,0.0,11.0,11.0,197.0,1.0,,,,,,,
,,,,,,,5cd083548702e10018e3b0a5,68399d25daf88b88604399f2,2025-05-30_13h57.39.671,shape_ratio,2024.1.5,Win32,59.88023952,683853e18dae57a2147b65e0,,,,,,,,,,,102.4667,102.9656,,,103.2153,104.0646,left,,,,,,,,0.45,0.8365,,,,,,,102.9656,103.2152,104.0646,"[-0.07029086917118149,0.12091054315045169]",100.0,"[-0.13437279836680202,0.03762437009349141]",100.0,"[-0.10938076807875975,-0.12056115973598949]",100.0,"[-0.18460613471441242,0.02441644615881983]",4.0,"[-0.003973073430217272,-0.07300740695319603]",4.0,"[0.0894664423311716,-0.0011558099578571363]",100.0,"[0.17578954976730998,0.05054005164998789]",4.0,"[0.15902285497036203,0.10070286588047422]",100.0,"[0.11961897557498849,0.1546411042469744]",4.0,"[-0.15199205554930095,0.12863839109056366]",100.0,"[-0.1266286596088163,0.08588377503198874]",4.0,"[-0.15349242327293772,-0.007621324706164651]",4.0,"[0.03983079240422977,0.17220560814989905]",4.0,"[0.12713164390556442,0.029142677121631877]",100.0,"[0.11569591601760046,-0.045332130152322334]",4.0,"[0.0016529354198958667,-0.014207321874562171]",100.0,"[-0.04971920748971737,0.052897380929569617]",100.0,"[0.07062650023888417,0.10587230590351532]",100.0,"[-0.06377618349936279,-0.013838131034925235]",4.0,"[0.05423377792067174,-0.021889290562787912]",4.0,"[-0.009590210031947549,-0.16795869112656203]",4.0,"[0.06035275554397563,-0.1102878020628495]",4.0,"[-0.15789566505531258,-0.12255442579838118]",4.0,"[-0.01661091288018119,0.15173389675561272]",4.0,"[-0.044352469244006584,-0.054454752381132794]",4.0,"[-0.06421207428305606,0.16653006577697296]",100.0,"[0.11360435833537692,-0.08600127747346031]",100.0,"[-0.06345617715950395,-0.18473801777851415]",4.0,"[0.10750490404025921,-0.14045228370948282]",100.0,"[-0.0950809938049044,-0.04474265390096434]",4.0,"[0.18839561317736997,-0.05498505876364035]",100.0,"[0.14626260860142107,-0.11398661325216548]",4.0,"[0.02,0.02]",105.1632,0.0,12.0,12.0,146.0,1.0,,,,,,,
,,,,,,,5cd083548702e10018e3b0a5,68399d25daf88b88604399f2,2025-05-30_13h57.39.671,shape_ratio,2024.1.5,Win32,59.88023952,683853e18dae57a2147b65e0,,,,,,,,,,,105.1635,105.6631,,,105.9135,106.2794,right,,,,,,,,0.55,0.3477,,,,,,,105.6632,105.9134,106.2795,"[-0.09031046228343761,-0.17405480348928537]",100.0,"[-0.13710438782268256,-0.11219405576735589]",4.0,"[-0.1780726333361828,-0.05655668537621251]",4.0,"[0.1092375849558437,0.08284583262557019]",100.0,"[0.09546122273030498,-0.12042939758417877]",100.0,"[-0.06481497908822757,0.12562708009289042]",100.0,"[-0.00817361938300615,0.06034581690026821]",100.0,"[-0.1247033034218533,-0.04096526745844754]",4.0,"[0.17632074191822358,0.028582224701264584]",100.0,"[-0.019695315430699717,-0.007140802828404947]",100.0,"[-0.1518026132662319,0.09499811787450653]",4.0,"[-0.10821919166797045,-0.0777051589920889]",100.0,"[0.08014300286331166,0.15878966590184393]",4.0,"[-0.03626389976582578,-0.11179402598047346]",100.0,"[0.1392413402398398,-0.021845405254551885]",100.0,"[-0.19113269469456332,0.056929331927533404]",4.0,"[-0.18151084345248317,-0.010129994740204592]",4.0,"[0.012257859764123242,-0.08104314728504752]",100.0,"[0.05062483038593567,-0.0025767820065985087]",100.0,"[0.13694047799354786,-0.0837873610812197]",100.0,"[-0.08340455778513535,0.03263417042763538]",100.0,"[0.030987291893479773,0.18989816621169747]",4.0,"[-0.05262944341842868,0.1784451929178704]",4.0,"[0.01581486489043991,0.12856349993401645]",100.0,"[0.05209227262600359,-0.08579383286436644]",4.0,"[-0.11061668654792133,0.1028153750473135]",4.0,"[-0.008422455424544211,-0.1632776938780739]",4.0,"[0.03123715024000034,-0.12133803802362714]",100.0,"[0.185131570395626,-0.04069992142594839]",4.0,"[0.031835520312823704,0.07347959726756663]",100.0,"[0.10898038863745357,0.027010430405700902]",100.0,"[0.14657091756937696,0.06267359023939381]",4.0,"[0.02,0.02]",107.3781,0.0,13.0,13.0,80.0,1.0,,,,,,,
,,,,,,,5cd083548702e10018e3b0a5,68399d25daf88b88604399f2,2025-05-30_13h57.39.671,shape_ratio,2024.1.5,Win32,59.88023952,683853e18dae57a2147b65e0,,,,,,,,,,,107.3785,107.8777,,,108.1277,108.494,right,,,,,,,,0.6,0.3479,,,,,,,107.8777,108.1277,108.494,"[-0.06556162283344555,0.14234913925073386]",100.0,"[0.032621855578402414,0.10811481377804542]",100.0,"[-0.009494306843485555,0.10885115479634101]",100.0,"[0.0019087296311382862,0.059623601516202315]",4.0,"[0.17012740839466817,0.08565423075582237]",100.0,"[-0.14513482616919143,0.06688083211070973]",4.0,"[-0.11525322641239376,-0.08727866505432472]",4.0,"[-0.10921555807964543,0.09498247281917002]",100.0,"[-0.09381907903347882,-0.031961990767916684]",100.0,"[-0.021236722029215185,-0.16589868053438542]",4.0,"[-0.04654328831805833,-0.03626590544553866]",100.0,"[-0.001957475941731533,0.004390178452130306]",100.0,"[0.10660852253772857,0.01817250204834579]",4.0,"[0.10021560342334766,0.08904824220935162]",4.0,"[-0.11310327526693874,-0.12796815148582358]",4.0,"[-0.191382260710738,-0.009855960996468998]",100.0,"[0.04117715307968052,0.17278961161829015]",100.0,"[-0.049364471389124594,-0.08289698666425303]",4.0,"[0.037306267641256746,-0.13888738275685092]",4.0,"[0.058384632656975397,-0.052094482411936135]",100.0,"[0.13090035693600183,-0.10120440765436942]",4.0,"[0.07486203992849037,-0.10082743851051067]",100.0,"[0.10045807740676238,0.15098209361335857]",100.0,"[0.06631743002692193,0.005322547761736354]",100.0,"[0.146780522385846,-0.052690313181370615]",100.0,"[-0.18603071856560666,0.03552774268260292]",4.0,"[-0.1685138264787966,-0.062330763944670416]",100.0,"[0.15167658328077685,0.023097488481887342]",4.0,"[0.1385612183444589,0.11695593591900864]",100.0,"[-0.10188799347792551,0.16290642334764513]",100.0,"[-0.09311932645478369,-0.1693067859736446]",100.0,"[0.19527471900868154,-0.03423648902753419]",4.0,"[0.02,0.02]",109.5927,0.0,14.0,14.0,43.0,1.0,,,,,,,
,,,,,,,5cd083548702e10018e3b0a5,68399d25daf88b88604399f2,2025-05-30_13h57.39.671,shape_ratio,2024.1.5,Win32,59.88023952,683853e18dae57a2147b65e0,,,,,,,,,,,109.5931,110.0924,,,110.3426,110.7253,left,,,,,,,,0.55,0.3664,,,,,,,110.0924,110.3425,110.7253,"[-0.010363951942615173,0.022064080155293896]",4.0,"[0.032598283272821736,-0.065366361928829]",4.0,"[-0.07169755983947668,-0.06039493883057585]",100.0,"[0.051209824986533016,0.15062562802305227]",100.0,"[-0.1069073665998315,-0.1355923558395942]",100.0,"[-0.18957180276932065,0.050584208889360195]",100.0,"[-0.00353155103031967,-0.025564029199502285]",4.0,"[0.12033879714981671,-0.08769765142303895]",4.0,"[-0.08190970799269377,0.010648556639120071]",4.0,"[-0.16439707363246867,-0.07241068368266683]",4.0,"[0.1071464417552527,-0.1668934972498034]",4.0,"[0.09818763500509059,0.04395677121822209]",4.0,"[0.14147719875548012,-0.05084248013503532]",100.0,"[0.18676450749466428,0.04608767668880573]",4.0,"[0.01367705711516271,-0.10078586737462603]",4.0,"[-0.03781467946863789,-0.08167873996456475]",100.0,"[-0.07916647683355246,0.17861330564619105]",100.0,"[-0.057905625025087226,-0.17066390347817248]",4.0,"[0.14224063684679886,0.11887572000428911]",100.0,"[0.009374561484065453,-0.17546735331291585]",100.0,"[0.0035383587980363455,0.09007078381651748]",100.0,"[-0.05466046877937954,0.10507445386333707]",100.0,"[-0.038361653758507724,0.05819101394939427]",100.0,"[0.11446959825588184,0.08604305032207159]",4.0,"[-0.01682895497359661,0.13147882691820117]",100.0,"[0.06573251476242482,0.08319630123910711]",100.0,"[-0.1712069785109553,-0.02599029670324144]",100.0,"[-0.10972405509837282,0.06148087048981829]",100.0,"[0.062073722489814034,0.014181840842417292]",4.0,"[-0.017734208606638668,0.19603705367703156]",4.0,"[-0.16981577092568748,0.015543567347087978]",100.0,"[0.05434582354874531,0.1919199151271124]",100.0,"[0.02,0.02]",111.8247,0.0,15.0,15.0,82.0,1.0,,,,,,,
,,,,,,,5cd083548702e10018e3b0a5,68399d25daf88b88604399f2,2025-05-30_13h57.39.671,shape_ratio,2024.1.5,Win32,59.88023952,683853e18dae57a2147b65e0,,,,,,,,,,,111.8253,112.3235,,,112.5736,112.9565,right,,,,,,,,0.55,0.3629,,,,,,,112.3236,112.5735,112.9565,"[0.03954537131965706,-0.1381752681029913]",100.0,"[-0.098133056141191,0.08234224475368343]",100.0,"[-0.09887149860943976,-0.16665391624511175]",100.0,"[0.0656107847980321,-0.06167661538359725]",100.0,"[-0.13815230964651928,-0.07573068312384636]",100.0,"[0.11849423961176354,-0.025830249986863812]",100.0,"[-0.03129027654949515,-0.0951398357002344]",100.0,"[0.1884127347903281,0.0541323542975252]",4.0,"[-0.016603926093340386,-0.041261940951898106]",100.0,"[-0.06378971684749067,-0.026948228237223523]",100.0,"[-0.012513644522848573,-0.17682100402164141]",100.0,"[-0.0787329399354153,0.011103836951018754]",4.0,"[0.11591634477934082,-0.12084417080817308]",100.0,"[0.04198922056733265,-0.01774291161744593]",100.0,"[-0.0018460950201415111,0.1013503200296834]",4.0,"[0.1277382048403143,-0.06847053851527363]",4.0,"[-0.19090609482741058,0.02148655494172906]",4.0,"[-0.028493166553161794,0.13146013293494588]",4.0,"[0.13362844604720361,0.07454176297478542]",100.0,"[0.1911470041927938,-0.03763689438397032]",100.0,"[-0.007598554967578369,0.022587911031885184]",100.0,"[0.014338860848175138,-0.09885258056540397]",100.0,"[-0.1530046706315051,-0.002026216317499545]",4.0,"[-0.1190255911160171,0.14512550452139203]",4.0,"[0.07389739404271757,-0.10679566776266292]",4.0,"[-0.08667347962041702,-0.06039401011407384]",4.0,"[0.14279763247342514,0.1396127778882968]",4.0,"[0.17008433709360923,0.10086525872044454]",100.0,"[-0.1610178618232674,0.07900333859619987]",4.0,"[0.09031166645224742,0.029573836139589114]",100.0,"[0.050216537139944895,-0.18738996235981517]",4.0,"[-0.12419699839228693,0.027028136136029703]",4.0,"[0.02,0.02]",114.0553,0.0,16.0,16.0,86.0,1.0,,,,,,,
,,,,,,,5cd083548702e10018e3b0a5,68399d25daf88b88604399f2,2025-05-30_13h57.39.671,shape_ratio,2024.1.5,Win32,59.88023952,683853e18dae57a2147b65e0,,,,,,,,,,,114.0557,114.5549,,,114.8049,115.2383,right,,,,,,,,0.4,0.4159,,,,,,,114.5549,114.8049,115.2384,"[-0.05343087851508769,-0.1854044741023919]",4.0,"[-0.10453751209084483,0.10339087536535967]",100.0,"[0.07000086760977928,-0.0071842109676423845]",4.0,"[-0.052934833149584797,-0.11193935320487337]",4.0,"[-0.12903413891535145,-0.10350510712047716]",4.0,"[-0.17527800549296998,-0.06545376663537968]",100.0,"[0.09681010144395742,-0.0682304976370794]",100.0,"[0.1043482280593198,-0.12173943636296798]",100.0,"[-0.01934349028684076,0.0925862623695034]",4.0,"[-0.07590168565731956,-0.04714224226919143]",4.0,"[0.1627090767212098,0.06688876029990887]",100.0,"[-0.03659196379771394,0.18947266043926947]",4.0,"[0.13115016918115283,0.1489648041354757]",4.0,"[-0.15089574944467032,0.12283739889115192]",4.0,"[0.004333633790207563,-0.07874004611543668]",100.0,"[0.1672246701826536,-0.0724064426998847]",4.0,"[-0.006460959544447459,-0.008041500400408902]",100.0,"[0.05607242693894235,0.16188493356220135]",4.0,"[0.03627584150978752,0.1179538575741716]",4.0,"[-0.12864318882184098,-0.001456487421530985]",4.0,"[0.0618524022753978,0.04283177400922224]",100.0,"[0.11673335455888544,-0.016158581920992548]",4.0,"[0.02987086722585045,0.19495006707711451]",4.0,"[-0.006428477118989243,0.1374271872758008]",4.0,"[0.1841003931289735,0.008608912334981502]",100.0,"[0.01021105702572378,0.058076275071157396]",100.0,"[-0.04165735229139035,0.05465430502854265]",100.0,"[-0.08268600810677419,0.1744532202425785]",100.0,"[-0.012564712981905129,-0.14730967732141714]",4.0,"[0.06562907628100821,-0.15110132303098558]",100.0,"[-0.1944357992078739,0.007732810071295394]",4.0,"[0.02702218855853688,-0.1928077942123813]",4.0,"[0.02,0.02]",116.3372,0.0,17.0,17.0,155.0,1.0,,,,,,,
,,,,,,,5cd083548702e10018e3b0a5,68399d25daf88b88604399f2,2025-05-30_13h57.39.671,shape_ratio,2024.1.5,Win32,59.88023952,683853e18dae57a2147b65e0,,,,,,,,,,,116.3379,116.8367,,,117.0864,117.5191,left,,,,,,,,0.45,0.413,,,,,,,116.8368,117.0864,117.5191,"[0.01940976491397531,-0.032880265494091045]",100.0,"[-0.09679432906369097,0.03934184061208624]",4.0,"[-0.09783843421115804,-0.145174904245388]",100.0,"[0.12673135613673092,-0.09670750540795522]",4.0,"[-0.009548520788964468,-0.07281823163869117]",4.0,"[-0.06557050972061373,0.09349365722142547]",4.0,"[0.1740964935196559,-0.08424376740447355]",4.0,"[-0.05596242885046173,-0.055761821443954265]",4.0,"[0.09368589931804873,-0.12072012786384254]",100.0,"[0.13161906318099414,0.011876089105386876]",100.0,"[-0.17898234960563209,0.06131474729501913]",100.0,"[0.13260774878359874,-0.03807948464708372]",4.0,"[-0.03567556250642756,0.017905829040660872]",100.0,"[-0.05129358649428281,0.1818810770531944]",4.0,"[0.06118460591644701,0.1244527785367907]",100.0,"[0.037345387209908536,-0.19441909326699938]",4.0,"[0.14889846485462171,0.08662887537261403]",100.0,"[0.040754478588955256,-0.13756650486150016]",4.0,"[-0.03921502657551748,-0.17224625718154954]",100.0,"[0.11076122779991725,0.13835764781018356]",100.0,"[-0.1220441940121727,-0.034609180078654794]",100.0,"[0.04220794763912421,-0.07103606442131132]",4.0,"[0.1968383851590756,-0.0185356646887681]",100.0,"[-0.06883455885256595,0.13385561275658367]",4.0,"[0.06756503953867145,0.0595029076075903]",4.0,"[-0.08522172989425875,-0.0871415094671525]",100.0,"[-0.03661833926108541,-0.1058719474040604]",4.0,"[-0.14153399705093656,-0.08016671958384869]",4.0,"[0.07632409623048109,-0.03662260125074064]",4.0,"[0.18940844472621993,0.024379373176199703]",4.0,"[0.028712287027211004,0.15144543091684098]",100.0,"[-0.15821626640465636,0.00006337764189870647]",4.0,"[0.02,0.02]",118.6181,0.0,18.0,18.0,121.0,1.0,,,,,,,
,,,,,,,5cd083548702e10018e3b0a5,68399d25daf88b88604399f2,2025-05-30_13h57.39.671,shape_ratio,2024.1.5,Win32,59.88023952,683853e18dae57a2147b65e0,,,,,,,,,,,118.6183,119.1176,,,119.3676,119.751,right,,,,,,,,0.6,0.364,,,,,,,119.1176,119.3676,119.751,"[0.006108378162230617,-0.18148964433468587]",4.0,"[-0.014883152991932434,0.04804917561668122]",4.0,"[-0.11499331112270669,-0.031981798143508385]",4.0,"[-0.051685031282611454,0.14061483143164566]",100.0,"[0.1079887190118472,0.0788157813155347]",4.0,"[0.04928698963583161,0.18946494046961457]",4.0,"[0.07507846518571237,-0.026478832247780602]",100.0,"[-0.11518634330470517,-0.15392369568209302]",4.0,"[-0.12575273862686023,-0.08896623350332494]",100.0,"[0.11922657583420834,-0.1503603891635452]",100.0,"[0.13978963163577302,0.11872242232976583]",100.0,"[0.09879302537957182,-0.09092005145906451]",100.0,"[-0.054732129838789674,-0.01639613313511226]",100.0,"[0.017864598184597878,-0.10272733213713452]",4.0,"[0.02219589882758701,0.08436564190539687]",100.0,"[-0.036786710092312325,-0.10970517265866632]",4.0,"[0.18734982973881437,-0.04524263761488529]",100.0,"[0.14782294002851443,0.021050904293266583]",100.0,"[0.07741657697230643,-0.12864913516135015]",100.0,"[0.055202651717824666,0.12183174354052428]",100.0,"[0.10523588312585225,0.005958640657426028]",4.0,"[-0.022656332847605282,0.10451359350048584]",4.0,"[-0.056395563820304355,0.04037072438712867]",100.0,"[-0.12803448841458925,0.07385803336007059]",100.0,"[0.17796041326331943,0.0889240547091831]",4.0,"[-0.10798532771734473,0.12749272826020255]",100.0,"[-0.15502693537847306,0.006198681996819267]",4.0,"[-0.15952333504334126,0.11381853595513029]",100.0,"[-0.01974501791045625,-0.05548919776541551]",100.0,"[0.1442221743972198,-0.064415647989744]",4.0,"[0.059281561512506284,-0.18084695481787033]",100.0,"[-0.057452242337122324,-0.14468677130206017]",100.0,"[0.02,0.02]",120.8499,0.0,19.0,19.0,50.0,1.0,,,,,,,
,,,,,,,5cd083548702e10018e3b0a5,68399d25daf88b88604399f2,2025-05-30_13h57.39.671,shape_ratio,2024.1.5,Win32,59.88023952,683853e18dae57a2147b65e0,,,,,,,,,,,120.8506,121.349,,,121.599,121.8819,right,,,,,,,,0.9,0.2684,,,,,,,121.3491,121.5989,121.8819,"[-0.008024653861489235,-0.13572601688717673]",4.0,"[-0.08657212675711928,0.054686239033939196]",100.0,"[0.05400413618859703,-0.051535204033400575]",100.0,"[0.12866000877449693,-0.09829079126826021]",100.0,"[0.038635699608807215,-0.11089552146422561]",100.0,"[0.03436630883806598,-0.0003301584468664663]",100.0,"[-0.13228380457869704,0.11218798916183413]",100.0,"[-0.017291972268546483,0.1698392073079822]",100.0,"[0.1136822215637182,0.044322562190173484]",100.0,"[0.06191851494732076,0.03535047078673161]",100.0,"[-0.04111023024324316,-0.17389041889047993]",100.0,"[-0.0854022739225604,0.11695439927624224]",4.0,"[0.09439678875960282,0.16089129485812623]",100.0,"[0.12849779979062598,0.10178488460093925]",100.0,"[0.004159692100476467,0.04686045278083542]",100.0,"[-0.18780901222401597,-0.05456354709312836]",100.0,"[-0.11300586308427549,0.020322226630874015]",100.0,"[-0.1671900162203677,0.07562228950444105]",100.0,"[-0.06797680273436256,-0.10057082150153736]",100.0,"[-0.13052175872909844,-0.09408253441950552]",100.0,"[-0.0015280355849147302,-0.03194825087972313]",100.0,"[0.07833852128521691,-0.14396268368347942]",100.0,"[0.018235860370010033,0.09074321296010236]",100.0,"[-0.040723262012388683,0.06066555123935239]",100.0,"[-0.0984577053339017,-0.047380689819866664]",100.0,"[0.07607865872954048,-0.008118082999760832]",100.0,"[0.14781950561605445,-0.05167662349400503]",100.0,"[-0.04444360267391346,-0.011400496044525803]",100.0,"[0.06863929012291667,0.10228875482454206]",100.0,"[0.12211511566894495,-0.14162142665710678]",4.0,"[0.15673338950361665,0.07154000842942665]",100.0,"[0.03872786081467908,-0.18392347228928702]",100.0,"[0.02,0.02]",122.9808,0.0,20.0,20.0,19.0,1.0,,,,,,,
,,,,,,,5cd083548702e10018e3b0a5,68399d25daf88b88604399f2,2025-05-30_13h57.39.671,shape_ratio,2024.1.5,Win32,59.88023952,683853e18dae57a2147b65e0,,,,,,,,,,,122.9811,123.4806,,,123.7305,124.1634,left,,,,,,,,0.6,0.4172,,,,,,,123.4806,123.7305,124.1636,"[-0.06454887144313458,0.030754376216093688]",4.0,"[-0.10681532172910717,-0.02027840153331734]",100.0,"[-0.14668383579342967,0.0891783706833527]",4.0,"[-0.11007103304971032,0.030559718680204174]",4.0,"[-0.18793466975354903,0.027730189257132172]",100.0,"[0.18799151312151952,-0.012732942719771751]",100.0,"[-0.1838522204451369,-0.03611568688781211]",100.0,"[-0.10002678933748248,0.14432199285010122]",100.0,"[0.06426247912132571,-0.041389890665372485]",100.0,"[0.08839766244377771,0.006699334826014353]",100.0,"[0.15202435280163085,-0.11305281453452641]",4.0,"[0.041302500629850594,0.004033381699033864]",100.0,"[0.014323490611826827,-0.09513103583563273]",4.0,"[0.1663250533969619,0.1102237536286157]",100.0,"[0.07492605222460703,0.10042825079033345]",100.0,"[0.15847902670823472,0.0708364345845298]",100.0,"[0.12167316530700988,0.12266832605158276]",4.0,"[-0.1344942365465191,-0.08998674914043926]",100.0,"[0.0972926541642598,-0.11264125883717108]",100.0,"[-0.05983676718746521,0.09719573194750795]",100.0,"[0.005278874347582969,0.13627105039253334]",4.0,"[0.12667710528678075,-0.007051126666670195]",4.0,"[0.01132329332697987,0.06558119326415308]",100.0,"[-0.019618995126068694,-0.1625399340246968]",4.0,"[0.10167642759231071,0.16043723401066934]",4.0,"[0.007482408289715003,0.18001580925457547]",100.0,"[0.1278492071757084,-0.06818042580528304]",100.0,"[0.007440792812990703,-0.020577035211449476]",4.0,"[-0.041444818622572176,-0.060078439818564526]",4.0,"[-0.054520778697192795,-0.09918584625294126]",4.0,"[0.07057562413066792,-0.14782982441572587]",100.0,"[-0.08618417709904096,-0.1618212019837513]",100.0,"[0.02,0.02]",125.2622,0.0,21.0,21.0,41.0,1.0,,,,,,,
,,,,,,,5cd083548702e10018e3b0a5,68399d25daf88b88604399f2,2025-05-30_13h57.39.671,shape_ratio,2024.1.5,Win32,59.88023952,683853e18dae57a2147b65e0,,,,,,,,,,,125.2625,125.7621,,,126.0118,126.5283,right,,,,,,,,0.9,0.4974,,,,,,,125.7622,126.0118,126.5284,"[0.14737773393827142,-0.004897714676734211]",100.0,"[-0.00020098623572441834,0.05115313814562321]",4.0,"[-0.13487462150530258,0.025532315665094094]",100.0,"[0.041469449172123314,-0.1329877897993089]",100.0,"[-0.08624664112402605,-0.009377423045239981]",100.0,"[-0.14360355578591755,-0.05702046551937422]",100.0,"[0.10423515041850501,-0.16921781445666614]",100.0,"[-0.04768186156737033,0.12285061539300074]",100.0,"[-0.03875538605987429,-0.1611640822055207]",100.0,"[0.015988609364594217,-0.04135692933062729]",4.0,"[-0.03002382164910148,-0.006353748237753578]",100.0,"[-0.11355976266946173,0.11911832467276172]",4.0,"[-0.17133749287882596,0.0814659231458947]",100.0,"[0.17183209157067877,-0.09206361593624271]",100.0,"[-0.15748907875965817,-0.1110697032387133]",100.0,"[-0.16903330083263068,-0.0039902201198230135]",100.0,"[0.1120304968662828,0.066050072403334]",100.0,"[-0.007537171679117442,-0.12136950102291305]",100.0,"[0.016077390783951585,0.10788974998132259]",100.0,"[-0.056468282410584734,-0.07850200126513669]",100.0,"[0.10802064304604768,-0.08546091346212506]",100.0,"[0.012124657545214843,-0.19603543269581186]",100.0,"[-0.04719976924129752,0.06757800327862469]",100.0,"[0.06596337572591865,-0.032714015496840165]",100.0,"[0.0570703690672585,0.14873592286694096]",100.0,"[-0.06739152351994918,0.16609542774578265]",100.0,"[-0.02913721399631273,0.18372255788549646]",100.0,"[0.15991545330820206,0.10510501575170379]",100.0,"[0.10721362223690348,0.11845454258279589]",100.0,"[-0.09700145626650603,-0.11103740900224436]",100.0,"[0.05456078035461928,0.0926043811364878]",100.0,"[0.16098590115750694,0.053714788830056044]",100.0,"[0.02,0.02]",127.6272,0.0,22.0,22.0,17.0,1.0,,,,,,,
,,,,,,,5cd083548702e10018e3b0a5,68399d25daf88b88604399f2,2025-05-30_13h57.39.671,shape_ratio,2024.1.5,Win32,59.88023952,683853e18dae57a2147b65e0,,,,,,,,,,,127.6277,128.1264,,,128.377,128.7761,left,,,,,,,,0.55,0.3789,,,,,,,128.1264,128.377,128.7761,"[0.11185243291145801,0.11763852116973716]",100.0,"[0.17385728848268592,-0.060053705341317216]",100.0,"[-0.026204843298697784,-0.09115223456432822]",100.0,"[0.11215723203018753,-0.1448810002595052]",100.0,"[-0.0229086979823963,0.06477193007238856]",4.0,"[-0.002038506613061772,0.11571972140177318]",4.0,"[0.09274400828685629,0.0679625488270605]",100.0,"[-0.04924176818574206,-0.1371075577807994]",4.0,"[-0.031147832755330587,-0.18821858112866147]",4.0,"[-0.03016150825942241,0.0005977614763211241]",4.0,"[-0.1884511645062859,0.04591258699863685]",4.0,"[-0.10060908199260468,0.0006702943720432486]",100.0,"[-0.08043560539744733,0.15829812140713095]",4.0,"[0.1585963563492668,-0.11278151226490173]",100.0,"[0.1859026345486218,0.06770028668976856]",4.0,"[0.02455282162279371,-0.13981698141348714]",100.0,"[0.01659662433715208,-0.19038916701594702]",100.0,"[0.06569287852059906,-0.0748664541887914]",100.0,"[-0.16956949665509133,-0.0669738784680028]",4.0,"[-0.14405533907986096,0.08743838547054514]",100.0,"[-0.023538207865219367,-0.05052003076209318]",4.0,"[0.033709761328445255,0.14267318005102822]",100.0,"[0.0040743589310635025,0.19563735601613358]",100.0,"[0.04046767201642319,0.09214125015801206]",100.0,"[-0.09489867098016946,0.1063692172850619]",4.0,"[0.13072512129653982,0.035726455775447676]",4.0,"[0.06263728034774153,0.1714582177969335]",4.0,"[-0.13988539059472427,-0.03864588640620011]",100.0,"[0.04521373096691338,0.015972561579889775]",4.0,"[-0.12882031013106257,-0.08903694518418541]",100.0,"[-0.10659801587907992,-0.1661607489944393]",100.0,"[-0.06410527913009309,-0.04954339603201826]",100.0,"[0.02,0.02]",129.8749,0.0,23.0,23.0,81.0,1.0,,,,,,,
,,,,,,,5cd083548702e10018e3b0a5,68399d25daf88b88604399f2,2025-05-30_13h57.39.671,shape_ratio,2024.1.5,Win32,59.88023952,683853e18dae57a2147b65e0,,,,,,,,,,,129.8753,130.3746,,,130.6247,131.1072,right,,,,,,,,0.45,0.4631,,,,,,,130.3747,130.6247,131.1073,"[-0.12279556025663013,0.08975458152094833]",100.0,"[0.16509703301386042,-0.07126734319266481]",100.0,"[-0.04013232803348485,0.12158446672517483]",4.0,"[0.13195698429568709,-0.00829756954627639]",100.0,"[-0.08230199046299103,-0.14076676144441222]",4.0,"[0.19238288092525468,-0.012591486360156657]",100.0,"[0.06641984224290888,0.14700396279301248]",100.0,"[-0.03266455717973035,0.19421566924011008]",4.0,"[-0.18314062046882945,0.0032729389316988305]",4.0,"[0.08654296521773713,-0.10280947188382569]",100.0,"[-0.01560588581915895,-0.05500457070051969]",4.0,"[0.11964416018040633,0.14740891258308186]",4.0,"[-0.19328394572419283,-0.0414850831789467]",4.0,"[-0.1695633918678445,0.05379824243481655]",4.0,"[0.11409186331311683,-0.06075152321367904]",4.0,"[0.03608800448482969,-0.047339526556758375]",100.0,"[-0.03166442534547261,-0.19301176178642288]",4.0,"[0.11446582451066825,0.03434822506519445]",4.0,"[-0.057895675069773514,0.05986756725297834]",100.0,"[-0.06431103633844439,-0.03205280515631195]",4.0,"[-0.12854802221966063,-0.019911979374829806]",4.0,"[0.04803193640564392,-0.19112021827083867]",100.0,"[-0.15607764851510036,-0.09533640802880014]",100.0,"[0.01372802451432809,0.18825940519790793]",4.0,"[0.06979085728419325,-0.004484391035346492]",100.0,"[0.16305981785388743,0.08860481226961138]",4.0,"[-0.15026961608099773,0.1312344719152278]",100.0,"[0.12783439951468709,-0.14444552812200487]",4.0,"[-0.008277068629053962,0.004575580944486461]",100.0,"[-0.11955520830568823,-0.11757101612353862]",100.0,"[-0.098893945946326,-0.07849333941598335]",4.0,"[0.17269738650956026,0.04264218438805067]",4.0,"[0.02,0.02]",132.2063,0.0,24.0,24.0,139.0,1.0,,,,,,,
,,,,,,,5cd083548702e10018e3b0a5,68399d25daf88b88604399f2,2025-05-30_13h57.39.671,shape_ratio,2024.1.5,Win32,59.88023952,683853e18dae57a2147b65e0,,,,,,,,,,,132.2068,132.7059,,,132.9561,133.4391,right,,,,,,,,0.9,0.4685,,,,,,,132.706,132.956,133.4391,"[-0.15761686077599818,0.10150931622449709]",100.0,"[-0.061213612174478876,-0.16891598663843277]",100.0,"[0.032984842529398054,-0.1039858657296108]",4.0,"[0.15284758212680108,-0.04694393116504637]",100.0,"[-0.025060260633966554,0.05956289387886951]",100.0,"[0.10363849138047555,-0.017818227643023456]",100.0,"[-0.07360358008855623,-0.023238895545749014]",100.0,"[0.055959294814916405,-0.04620896193672234]",100.0,"[-0.11089402137353235,-0.08620607059768967]",100.0,"[-0.01040011288316023,-0.1548346573799316]",100.0,"[-0.11992856023948695,0.07862637123445802]",100.0,"[-0.03399064654128368,-0.013189467098624312]",4.0,"[0.0009530428159590667,0.18720676282621154]",100.0,"[-0.007782335264356419,-0.11228044757949396]",100.0,"[-0.06691894131323861,-0.08775245811114436]",100.0,"[0.1472972050055928,0.11359361154046943]",100.0,"[0.1856566579719524,0.04333104250212379]",100.0,"[-0.005982571450358721,-0.04740298487228598]",100.0,"[-0.1440163706786407,-0.11696102806738146]",100.0,"[-0.08911001497437626,0.1506975534504147]",4.0,"[0.18846677234682024,-0.06549027021326338]",100.0,"[-0.1111668787728522,-0.0006475958200188675]",100.0,"[0.12840548334695634,0.018201011996106683]",100.0,"[0.10163752955166361,-0.1507484585561172]",100.0,"[-0.15676420216126075,0.006605007430550922]",100.0,"[-0.1667219807098007,-0.06811079165422351]",100.0,"[0.11663229376462882,-0.07214166912693111]",100.0,"[0.10093613069361833,0.13785625494319104]",100.0,"[0.016426343281911924,0.14596930854501797]",100.0,"[0.06530060654406261,0.09184543934290021]",100.0,"[0.033385082271717735,0.058927998001121015]",100.0,"[-0.1035372934807214,0.03873135883817838]",100.0,"[0.02,0.02]",134.5375,0.0,25.0,25.0,9.0,1.0,,,,,,,
,,,,,,,5cd083548702e10018e3b0a5,68399d25daf88b88604399f2,2025-05-30_13h57.39.671,shape_ratio,2024.1.5,Win32,59.88023952,683853e18dae57a2147b65e0,,,,,,,,,,,134.5377,135.0377,,,135.2884,135.8536,left,,,,,,,,0.5,0.5475,,,,,,,135.0377,135.2882,135.8537,"[0.028477460877290167,0.0004900138330649091]",4.0,"[0.09824692615374245,-0.0635113732709092]",4.0,"[-0.05864610305670587,-0.13487887291472334]",100.0,"[0.019020929294388533,0.16305092760237727]",100.0,"[0.14892129101330792,-0.038145703439999554]",4.0,"[-0.06613676499255464,-0.0944817254135319]",100.0,"[0.17585034983483128,0.005968870161454625]",4.0,"[-0.025311731430937408,0.1100900223430523]",4.0,"[-0.1256571651541537,-0.033677640062130344]",4.0,"[-0.08181262890036455,0.04456046018433954]",4.0,"[-0.015689410489855955,-0.09934401217604336]",4.0,"[-0.13840604958086944,-0.13106851646451825]",100.0,"[0.041282190920730405,0.0776375352807263]",4.0,"[0.13784757605509573,0.076258483441908]",4.0,"[0.029372375444115306,-0.19355513547785622]",100.0,"[0.040297834843373716,-0.09889264600980048]",100.0,"[0.12459784705096982,0.003336153657203083]",100.0,"[-0.009969127154957097,-0.01494829642568041]",100.0,"[0.0037424008374529923,-0.15376632298898207]",100.0,"[0.0609494581532952,-0.02503733579430433]",4.0,"[-0.142697452146713,0.13088864678960385]",4.0,"[0.004516496361575917,0.04090512420054646]",100.0,"[-0.1339516985781195,0.08141056843635171]",100.0,"[-0.1659195338885791,-0.08055117515848885]",100.0,"[0.07031416596401265,0.11762291082198367]",100.0,"[-0.1761436720740884,0.01696205037582281]",100.0,"[0.14063096694080968,-0.10685828497756204]",100.0,"[-0.10543574334855248,-0.16258849029571323]",100.0,"[0.09823610710454926,0.1680095365548609]",4.0,"[-0.09755557644940165,-0.1229726338230517]",4.0,"[0.04981031575920835,0.036786900198817696]",4.0,"[-0.06643741309144725,0.16946385626709584]",4.0,"[0.02,0.02]",136.9519,0.0,26.0,26.0,113.0,1.0,,,,,,,
,,,,,,,5cd083548702e10018e3b0a5,68399d25daf88b88604399f2,2025-05-30_13h57.39.671,shape_ratio,2024.1.5,Win32,59.88023952,683853e18dae57a2147b65e0,,,,,,,,,,,136.9522,137.4516,,,137.7017,138.2515,left,,,,,,,,0.55,0.5304,,,,,,,137.4516,137.7017,138.2517,"[-0.09373601852891163,-0.007745860318257051]",100.0,"[0.10461144096493352,-0.011643529148789893]",100.0,"[-0.15915683019786003,-0.11988022032807881]",100.0,"[0.005734269189541146,-0.1509380910773718]",100.0,"[0.0550491575182088,-0.021563717061035846]",4.0,"[0.05480249200330958,-0.1269251437629]",100.0,"[0.17575658427634105,0.0338094366194524]",100.0,"[0.10403905246293184,0.03833459335101671]",100.0,"[-0.04387471618368062,0.10165272724775155]",100.0,"[-0.10586097006460904,0.16221211845253045]",4.0,"[-0.02767015564599759,-0.11762801700564209]",4.0,"[-0.15594968360677394,0.043529878722568895]",100.0,"[0.1660634323019503,-0.015687281650204978]",4.0,"[0.06334516097291283,0.1752933152229524]",4.0,"[0.06878580285058179,0.018885586253269977]",100.0,"[-0.19324770587090365,-0.02857498543402567]",100.0,"[-0.07820405445314751,-0.05832834409874883]",4.0,"[0.062147738274832144,0.09084664488826072]",4.0,"[-0.14201749020433074,-0.08022064505650535]",4.0,"[-0.02411178850290952,-0.19506128755858165]",100.0,"[0.09860622579723072,-0.1354114998500829]",100.0,"[0.013825709657995882,0.02518962058180225]",100.0,"[-0.05388740858257667,0.16501295268265925]",100.0,"[-0.07671808744677479,-0.09843908728497376]",4.0,"[-0.10401228849578079,0.08410236175103505]",4.0,"[0.0007300170911868354,-0.02066405930350907]",4.0,"[-0.04826956085853563,-0.016776245122190385]",4.0,"[-0.06646651217042368,-0.1438416154093274]",4.0,"[-0.007951138072645783,0.15742086405395975]",100.0,"[-0.031216280854304005,0.05441180901391147]",100.0,"[-0.15126856230602373,-0.01286161828466641]",4.0,"[0.16302640442297545,-0.10912751996802854]",100.0,"[0.02,0.02]",139.3504,0.0,27.0,27.0,78.0,1.0,,,,,,,
,,,,,,,5cd083548702e10018e3b0a5,68399d25daf88b88604399f2,2025-05-30_13h57.39.671,shape_ratio,2024.1.5,Win32,59.88023952,683853e18dae57a2147b65e0,,,,,,,,,,,139.3511,139.8498,,,140.0994,140.6321,right,,,,,,,,0.55,0.5125,,,,,,,139.8499,140.0993,140.6321,"[-0.0645901091455941,-0.03452193427007419]",100.0,"[-0.07389012185574284,-0.0862905374357232]",4.0,"[0.016655621354457674,0.017648771837985505]",100.0,"[0.005847717561997342,0.14603866577161165]",100.0,"[-0.03820327005798389,0.005789536546909103]",100.0,"[0.027793908247382086,-0.12350840049629781]",4.0,"[0.13975455331570147,-0.11560705466148653]",4.0,"[0.09568672495994515,0.11341767603594297]",100.0,"[-0.12467636391383304,0.09164716649860043]",100.0,"[0.18697690749895746,-0.006727181035616318]",4.0,"[-0.1654043492133303,0.034406727155455404]",4.0,"[-0.015682028601650345,0.1833517858285862]",100.0,"[0.04510000671383869,-0.1827066037637331]",100.0,"[-0.045998935778305244,-0.11604152513812667]",100.0,"[-0.11142883541859117,0.0296493915753055]",100.0,"[-0.1543179817022904,-0.09718796027294786]",4.0,"[0.18007392368057315,0.038136355359139736]",4.0,"[0.10671893261574801,0.013975382085233624]",100.0,"[0.1142578225141777,-0.038271445519273875]",4.0,"[0.09555820092617043,-0.11232498750285835]",100.0,"[-0.10489331517749666,0.13057844500930121]",4.0,"[-0.1148649309044587,-0.03195220442554221]",100.0,"[0.03964522344466844,0.09537055088276505]",4.0,"[0.15834078275363941,0.1107570467646961]",100.0,"[-0.07150236571617223,-0.16374379397726263]",4.0,"[0.0008780568126099612,-0.024377774840760584]",4.0,"[0.05887512736456775,0.17798213114865508]",4.0,"[-0.1869223972692893,-0.05996038996022128]",100.0,"[-0.16793466581581692,0.09678349188005922]",100.0,"[-0.02778826481162481,0.09763486281797357]",100.0,"[0.12280924747523746,0.06159404847035829]",4.0,"[-0.13745547199629388,-0.1406071894386993]",100.0,"[0.02,0.02]",141.7314,0.0,28.0,28.0,79.0,1.0,,,,,,,
,,,,,,,5cd083548702e10018e3b0a5,68399d25daf88b88604399f2,2025-05-30_13h57.39.671,shape_ratio,2024.1.5,Win32,59.88023952,683853e18dae57a2147b65e0,,,,,,,,,,,141.732,142.2308,,,142.4817,142.8474,left,,,,,,,,0.1,0.3471,,,,,,,142.2308,142.4816,142.8474,"[0.13533944131783954,0.03909553639281151]",4.0,"[0.052160607272588165,-0.047415715011258804]",100.0,"[-0.019497816642622696,-0.014641867610249592]",4.0,"[-0.05445995314021319,-0.13022814136616043]",4.0,"[0.0125115759888735,-0.15846294741043557]",4.0,"[0.07268653451119843,-0.1461985768587377]",4.0,"[0.17147148475036128,-0.035819604387094]",4.0,"[-0.10241811662342509,-0.0764190241885089]",4.0,"[-0.015226952256916044,0.06707791438252365]",4.0,"[-0.06173165472271954,-0.06409350514289572]",4.0,"[0.17222288071596187,-0.07728461888133827]",4.0,"[-0.1382305715997424,0.13130429663257046]",4.0,"[-0.07635239842262559,0.054606191014758255]",4.0,"[-0.07443392102995673,0.14998594903436904]",4.0,"[0.05388844850055222,0.19170480105765147]",4.0,"[-0.019947638040930773,-0.10273531420866885]",4.0,"[-0.12605153625837495,0.037788167247229366]",4.0,"[0.12427785375460441,-0.15071319266953803]",4.0,"[0.1779451740474635,0.04944860401061426]",4.0,"[-0.17389785080681275,-0.027676929239886745]",4.0,"[0.009094304987144483,0.1713770948657746]",4.0,"[0.050028631360729006,0.12798343111845512]",4.0,"[-0.08374247104942607,0.09888244049261054]",4.0,"[0.10696231071664886,-0.011571410848746274]",4.0,"[0.08894268226186838,0.05387392766246299]",100.0,"[0.008359011348227929,-0.059815422586074515]",100.0,"[0.19335866985078787,0.006369222861944878]",4.0,"[0.09766043418515026,0.10581029632043143]",4.0,"[-0.15492359099893083,-0.10999150947245409]",4.0,"[0.09210115632988543,0.16184960805678006]",4.0,"[-0.183215392547447,0.03146308600348737]",4.0,"[-0.0002942993994766267,0.12479270404374032]",4.0,"[0.02,0.02]",143.9457,0.0,29.0,29.0,204.0,1.0,,,,,,,
,,,,,,,5cd083548702e10018e3b0a5,68399d25daf88b88604399f2,2025-05-30_13h57.39.671,shape_ratio,2024.1.5,Win32,59.88023952,683853e18dae57a2147b65e0,,,,,,,,,,,143.946,144.4454,,,144.6953,145.0449,left,,,,,,,,0.1,0.3297,,,,,,,144.4455,144.6953,145.0449,"[-0.04796422628817913,0.10603411435520069]",4.0,"[-0.04523787340589348,-0.18833228863199405]",4.0,"[-0.1259015457612967,-0.14451548328938252]",4.0,"[-0.06218640689142726,-0.08592665277838311]",4.0,"[0.09333786059763693,-0.04352643448721172]",4.0,"[-0.026530649026491656,-0.00853900560808931]",4.0,"[0.05042634703904025,-0.0821570148913717]",4.0,"[0.16967048790519626,0.04206921530882827]",4.0,"[-0.046832804113428855,0.04370377227225904]",4.0,"[0.1315518133427747,-0.10264054653035738]",4.0,"[-0.004840420789539247,0.07395989161639313]",4.0,"[0.0835595717475752,0.02235803699033422]",100.0,"[-0.010639724150961316,-0.05327086560615609]",4.0,"[-0.010875674802617384,-0.10868864133389898]",4.0,"[-0.14775961466942011,-0.06325157513719336]",4.0,"[-0.12213950840896831,0.01309451169794159]",4.0,"[0.02916624192746778,0.013943786659883755]",4.0,"[0.08255428704643898,0.17610326737245796]",4.0,"[0.10537235982345437,0.06344296671109326]",4.0,"[-0.08885556251390879,0.137091310282136]",100.0,"[-0.006003840640715193,0.1472126208559587]",4.0,"[-0.045960905914391254,0.18365349902223976]",4.0,"[-0.14580696839815904,0.11641096678516907]",4.0,"[0.03505325404875045,-0.12478094493423934]",4.0,"[-0.169745523350101,0.06732445549018683]",100.0,"[-0.08714450582659562,-0.15626114768623445]",4.0,"[0.060206327234640096,-0.1561006792053098]",4.0,"[-0.12477524428860882,0.07261134646437711]",4.0,"[0.1324540896061437,0.12470056453788271]",4.0,"[0.18059825430304108,-0.07860474858867263]",4.0,"[0.1657387735412674,-0.0035866109864810653]",4.0,"[-0.060733412152373614,-0.04113345716084022]",4.0,"[0.02,0.02]",146.1439,0.0,30.0,30.0,208.0,1.0,,,,,,,
,,,,,,,5cd083548702e10018e3b0a5,68399d25daf88b88604399f2,2025-05-30_13h57.39.671,shape_ratio,2024.1.5,Win32,59.88023952,683853e18dae57a2147b65e0,,,,,,,,,,,146.1441,146.6435,,,146.8935,147.1931,left,,,,,,,,0.1,0.2797,,,,,,,146.6436,146.8935,147.1931,"[0.11162371574270384,-0.012387023324125428]",100.0,"[-0.1735265541244259,-0.036895681724555464]",4.0,"[0.04278875046792634,0.06342585947145761]",4.0,"[0.040532075589111975,0.015144686375985678]",4.0,"[0.047272923307536005,-0.12427813485059218]",4.0,"[0.1620859897683961,0.01738843742054426]",4.0,"[-0.05538511241135559,-0.08608034960880316]",100.0,"[-0.11943815153127134,0.016440131903545097]",4.0,"[0.0891022459332917,0.05094144135856738]",4.0,"[0.11197683279336343,0.13737323029222312]",4.0,"[-0.14203677810786605,0.06606271687204496]",4.0,"[0.03453199678636882,-0.18648016265105136]",100.0,"[0.13613899029581228,0.09757862696538612]",4.0,"[0.045081871692678646,-0.046890649467288374]",4.0,"[0.06738672899505015,0.11161928458496281]",4.0,"[-0.1645798038900449,-0.0933670966809996]",4.0,"[-0.009951385647720926,-0.1889790901937811]",4.0,"[0.13567885232582969,-0.05234775733899076]",4.0,"[-0.11979445568696646,-0.08156370972382578]",4.0,"[-0.004266494567230874,0.04178833429319268]",4.0,"[-0.004660131880527982,-0.14557606312178953]",4.0,"[0.14288125631082327,-0.10771707181487213]",4.0,"[0.08267813311646334,-0.1786300274419762]",4.0,"[0.009913285311565535,-0.023839002307106647]",4.0,"[-0.02804324242458068,0.0939876494941962]",4.0,"[-0.08942718367242034,0.15579238218847125]",4.0,"[0.19086544398284735,-0.01681390878681301]",4.0,"[0.02626244631959725,0.11301165898529092]",4.0,"[-0.18641177328023334,0.06117514477434268]",4.0,"[-0.07036475625096833,-0.03924996639832477]",4.0,"[0.07785272662889521,0.1736981323141849]",4.0,"[-0.1176336133127101,-0.1359265540622448]",4.0,"[0.02,0.02]",148.2921,0.0,31.0,31.0,195.0,1.0,,,,,,,
,,,,,,,5cd083548702e10018e3b0a5,68399d25daf88b88604399f2,2025-05-30_13h57.39.671,shape_ratio,2024.1.5,Win32,59.88023952,683853e18dae57a2147b65e0,,,,,,,,,,,148.2923,148.7916,,,149.0417,149.3245,left,,,,,,,,0.5,0.2627,,,,,,,148.7917,149.0417,149.3246,"[0.11530360256315847,0.15004813302485406]",4.0,"[-0.13390195544541703,-0.0761426870820501]",4.0,"[0.000508204555571291,0.11890760670099598]",100.0,"[-0.1841556537357099,-0.025012797116512192]",100.0,"[-0.019148631001285065,-0.06653842068029539]",4.0,"[0.14446579393567463,-0.1248649127322884]",4.0,"[-0.019361671666226644,0.03361873410996225]",4.0,"[0.03180184133216336,-0.015743625104432925]",4.0,"[0.03935829520728799,0.08691697605198516]",4.0,"[-0.05211299251574097,0.05944640199237877]",4.0,"[0.19230996484175236,0.05373324171344905]",100.0,"[0.1814224856838729,-0.01329780024864309]",100.0,"[0.11555192390499044,-0.07969571899381701]",100.0,"[-0.004084082302394142,-0.14524408392989105]",100.0,"[0.03938049950345453,-0.09629105671930482]",100.0,"[0.05103071197093133,-0.15697185478537168]",100.0,"[-0.11117765549796775,0.1571311503199506]",4.0,"[-0.05601314881086768,-0.15031828999995647]",100.0,"[-0.10493998536933702,-0.015637596688634077]",100.0,"[-0.05289742647849374,0.15623447131127643]",4.0,"[-0.14240460650935155,0.05535728878123629]",4.0,"[0.1571105546760603,-0.08591661271006445]",100.0,"[-0.06528706348344146,-0.07418650172136801]",4.0,"[0.1250008241893863,-0.0027233536582822017]",4.0,"[-0.12704353529113604,0.10510657925533647]",100.0,"[0.10079160332954085,-0.04067762273728507]",100.0,"[0.06673291103346704,0.051563962755720026]",4.0,"[0.12823061573979375,0.058912277522596875]",100.0,"[-0.046983892469523385,0.11605654289673353]",100.0,"[0.019699728803975143,0.18083192345373092]",100.0,"[-0.1820952095619547,0.07760092167650953]",4.0,"[0.08372019460500703,0.0031447755071529076]",4.0,"[0.02,0.02]",150.4235,0.0,32.0,32.0,116.0,1.0,,,,,,,
,,,,,,,5cd083548702e10018e3b0a5,68399d25daf88b88604399f2,2025-05-30_13h57.39.671,shape_ratio,2024.1.5,Win32,59.88023952,683853e18dae57a2147b65e0,,,,,,,,,,,150.4239,150.9231,,,151.173,151.4727,left,,,,,,,,0.45,0.2857,,,,,,,150.9231,151.173,151.4727,"[0.08634327579989591,-0.12358335182694852]",100.0,"[0.03341184358657027,0.03775034583472571]",100.0,"[0.1458169455609166,0.12536708934651578]",4.0,"[0.08476396809893608,-0.16680732313860916]",4.0,"[-0.12444626313310099,0.01637261702804704]",100.0,"[-0.07869439777051394,0.08999494355495244]",100.0,"[-0.004165701441276483,-0.03427058253646427]",100.0,"[-0.17511988510363213,-0.03874218829156252]",4.0,"[-0.11387975101972762,0.10976347107136558]",4.0,"[0.04223445256787863,-0.013669698986605455]",4.0,"[-0.017210563148704127,0.15869875957947932]",4.0,"[-0.12520426548452082,-0.1328827445820636]",4.0,"[-0.04825008802796017,-0.0807153992348348]",4.0,"[-0.10117023046760996,0.1551843400774748]",100.0,"[-0.13193384904203534,-0.07206363974247773]",100.0,"[0.12484800800516727,-0.08872379310552424]",100.0,"[0.16514162698184692,-0.07591814186370084]",4.0,"[-0.006875731853375095,0.03242625285503073]",100.0,"[-0.09659086137639838,-0.03940880494975211]",100.0,"[-0.08251190568369245,-0.17293751284184433]",4.0,"[-0.07685709383682997,-0.1183942351459028]",4.0,"[0.034013684351802013,-0.06463475624137813]",100.0,"[0.19126621513204045,0.03885234728792066]",4.0,"[0.008291700720428364,0.09653271580780093]",100.0,"[0.03259562243735665,-0.15174081475719883]",100.0,"[-0.03241205844497998,-0.00536816924498623]",4.0,"[0.08525709351634683,0.16875478130099517]",4.0,"[0.008947770452684004,0.18936596793459876]",100.0,"[-0.18179990051503367,0.04764781470264233]",4.0,"[-0.07272876673108665,-0.005075565574316722]",4.0,"[0.10700646363494581,-0.017042555440324236]",4.0,"[-0.06415077492492635,0.18283477205326865]",4.0,"[0.02,0.02]",152.5716,0.0,33.0,33.0,125.0,1.0,,,,,,,
,,,,,,,5cd083548702e10018e3b0a5,68399d25daf88b88604399f2,2025-05-30_13h57.39.671,shape_ratio,2024.1.5,Win32,59.88023952,683853e18dae57a2147b65e0,,,,,,,,,,,152.5719,153.0712,,,153.3212,153.7706,left,,,,,,,,0.1,0.4336,,,,,,,153.0712,153.3211,153.7706,"[-0.01606750332902384,-0.018330048021605823]",4.0,"[0.014784203781216249,-0.17195599274762313]",4.0,"[-0.17361083979525604,-0.04834999289863643]",4.0,"[-0.14222181071773526,-0.12768992946574392]",4.0,"[0.0025498182756110593,0.08962593013050896]",4.0,"[-0.07098379570241463,0.11782765058564423]",4.0,"[-0.15065310628141904,0.01950307961096222]",4.0,"[0.07983911721036993,-0.03544872725189058]",4.0,"[-0.02866909923213259,0.1922169023581722]",4.0,"[-0.06798292394412636,-0.04716243334072961]",4.0,"[-0.04522921831346401,0.15035933518971992]",4.0,"[0.011054314138961087,-0.12473124645338983]",4.0,"[0.16867765907188323,0.026936687166118176]",4.0,"[-0.11418048434239644,0.07581045089623634]",4.0,"[-0.058041117629314166,-0.11115424033317245]",100.0,"[0.05117414318919714,0.021031852430508705]",4.0,"[-0.040256675220301075,-0.15742728353419158]",4.0,"[-0.15418194953875067,0.10682441770400164]",4.0,"[0.1382602018464375,-0.1292436247533828]",4.0,"[0.08830228633824162,0.09376262418699433]",4.0,"[-0.11975751516206058,-0.07672926948680593]",4.0,"[-0.03661473590081388,0.02768252780524184]",4.0,"[-0.08744257566191768,0.02149455158531478]",100.0,"[0.024938418257947254,0.16647081615516743]",4.0,"[-0.08686049823237135,-0.15202264619713718]",4.0,"[-0.01539192283455416,-0.0812048088736799]",4.0,"[0.16586577987687626,-0.019928822147479597]",4.0,"[0.13355774843084056,0.09160627023524187]",4.0,"[-0.10272287566305226,0.16661439700198574]",4.0,"[0.045917525907481486,-0.09415045670321755]",100.0,"[0.18498512816373577,0.07240714136243791]",4.0,"[0.17666813290396857,-0.07929070121398371]",4.0,"[0.02,0.02]",154.8696,0.0,34.0,34.0,184.0,1.0,,,,,,,
,,,,,,,5cd083548702e10018e3b0a5,68399d25daf88b88604399f2,2025-05-30_13h57.39.671,shape_ratio,2024.1.5,Win32,59.88023952,683853e18dae57a2147b65e0,,,,,,,,,,,154.8698,155.3695,,,155.6198,155.9524,left,,,,,,,,0.1,0.3132,,,,,,,155.3695,155.6197,155.9524,"[-0.17586196201462417,-0.09235084171226633]",4.0,"[-0.03174883753390434,-0.11932070288356889]",4.0,"[0.08591769156288802,0.004535442450722327]",4.0,"[-0.09411439193102158,-0.14997918585309203]",4.0,"[0.06667153227901877,0.1786742488817325]",4.0,"[0.02095997169427926,-0.04831422017648736]",100.0,"[-0.13127158280485338,-0.09735366168516879]",4.0,"[-0.07429820289894745,0.13154393060007738]",4.0,"[-0.03927150940301228,0.06619936432219942]",4.0,"[-0.10703675743638981,-0.01851892965613962]",4.0,"[0.16642634459662792,0.02454486862705183]",4.0,"[-0.02920962666687358,-0.027603697076196806]",4.0,"[0.06578999434391766,-0.1105370212252385]",4.0,"[0.07998961656152041,0.06575673586739192]",4.0,"[0.08260353580634933,-0.036246485406750475]",4.0,"[-0.0077368572444632255,0.15516489550311963]",100.0,"[-0.17037865660498813,0.08161340019791286]",100.0,"[0.16766126376497875,-0.06723616262132366]",4.0,"[0.1433576830672571,0.11883152067755756]",4.0,"[-0.1508564025864734,0.01968172642309424]",4.0,"[0.030631323428425908,0.06119638072442349]",4.0,"[-0.09494378056019231,0.0717751280083456]",4.0,"[0.03004860316787207,-0.13450072253455755]",4.0,"[-0.07527157743111636,-0.05651365988280979]",4.0,"[0.16050260994726895,0.07868647292794667]",4.0,"[0.02106865864071482,-0.19298614008880685]",4.0,"[-0.12620210483189193,0.12437181636059823]",4.0,"[0.03430181347753883,0.11980419774627847]",4.0,"[0.060590533029191644,-0.17649570567031553]",4.0,"[0.10550463778246323,-0.08731889941274443]",4.0,"[-0.04701835713140546,0.1674280755153598]",4.0,"[0.13041313470315563,-0.14238654389531802]",4.0,"[0.02,0.02]",157.0512,0.0,35.0,35.0,189.0,1.0,,,,,,,
,,,,,,,5cd083548702e10018e3b0a5,68399d25daf88b88604399f2,2025-05-30_13h57.39.671,shape_ratio,2024.1.5,Win32,59.88023952,683853e18dae57a2147b65e0,,,,,,,,,,,157.0517,157.5507,,,157.8006,158.367,right,,,,,,,,0.45,0.5468,,,,,,,157.5507,157.8005,158.367,"[-0.08651484160730986,-0.17831594293823036]",4.0,"[-0.05829099180100788,0.16579517673448002]",4.0,"[0.06975672590939014,0.02630964667731925]",4.0,"[0.11678615624131027,0.008036802914461549]",4.0,"[0.0028467328132981626,0.028330733306113052]",100.0,"[-0.12510593393674813,0.05740908264340477]",100.0,"[0.020939000675947395,-0.040624131646632554]",4.0,"[-0.058790887859611396,-0.04378415412421571]",100.0,"[0.10137428939618656,-0.09481571504371751]",100.0,"[-0.1275392215563071,0.012080287550839713]",100.0,"[-0.18469058006007372,0.05930100594872792]",4.0,"[0.1385428644972645,-0.071800201910911]",4.0,"[0.0018357885809721377,0.12313326894068902]",100.0,"[-0.07797010663822802,0.11909220477482457]",100.0,"[-0.04105554674612115,-0.09590061905710826]",100.0,"[0.01831576203058943,-0.11793436993831796]",4.0,"[0.18717660852558812,-0.018492920444948633]",4.0,"[0.1127402970517155,0.15155559908916622]",4.0,"[0.1207319002677422,0.0940198692654758]",100.0,"[-0.08002936148390266,-0.0017971406825004672]",4.0,"[0.045719298532678934,0.060490084154243576]",4.0,"[0.07022392268697586,-0.06154945187024642]",4.0,"[-0.11390609848449057,-0.05178730032564837]",4.0,"[0.03775589315509982,-0.15563970372971123]",4.0,"[-0.17483977539120357,-0.08278933973187119]",100.0,"[-0.1967052652767475,-0.029228230163141567]",4.0,"[-0.01609062663922399,-0.057644723848857264]",100.0,"[-0.010486536956162725,0.1965652995495556]",4.0,"[0.11239702386482714,-0.16174715775616788]",100.0,"[-0.06002261922240099,0.06491460411968014]",4.0,"[-0.05115880362922685,-0.15040762383427134]",100.0,"[0.06777345823778724,0.15476706019563732]",100.0,"[0.02,0.02]",159.4656,0.0,36.0,36.0,138.0,1.0,,,,,,,
,,,,,,,5cd083548702e10018e3b0a5,68399d25daf88b88604399f2,2025-05-30_13h57.39.671,shape_ratio,2024.1.5,Win32,59.88023952,683853e18dae57a2147b65e0,,,,,,,,,,,159.4659,159.9651,,,160.2151,160.6979,right,,,,,,,,0.9,0.4625,,,,,,,159.9651,160.2151,160.698,"[-0.06218385852007019,0.08583129399402177]",100.0,"[0.13060309451716717,0.04891183850141149]",100.0,"[0.010098131147749323,0.16972883215079865]",100.0,"[-0.18580939017144948,-0.03036009888160913]",100.0,"[-0.09801322062926746,-0.11793248116762951]",100.0,"[0.1678280660467759,-0.06239723053482437]",100.0,"[-0.030816175240664538,-0.10030155575731028]",100.0,"[0.055215222581011775,-0.09553762960920482]",100.0,"[-0.1508995398578903,-0.10852099767822047]",100.0,"[0.12914391691596025,-0.12174440328972917]",100.0,"[0.07398626044535911,-0.04429150046483183]",100.0,"[0.003729044695403084,0.12365383140682942]",100.0,"[-0.09792737049134236,-0.051945210841989366]",100.0,"[-0.020810431951784496,-0.18534466518252318]",100.0,"[-0.14702564152618267,-0.05511214326633043]",100.0,"[0.13476352288625648,0.11744239661333583]",100.0,"[-0.1142131915496176,0.051512382398328845]",100.0,"[0.01070936688982662,-0.11604450817701188]",100.0,"[0.04780571288740098,-0.1371152324411865]",100.0,"[-0.017282184261380562,-0.033164426289566964]",4.0,"[-0.1698152638517875,0.03654204859138049]",4.0,"[0.046260952846287076,0.08079606673604457]",100.0,"[0.0918933469495839,0.02924619985385048]",100.0,"[-0.033572812416008346,0.02384361067730424]",4.0,"[0.047538406908798646,-0.1854283662130106]",100.0,"[0.1158439449637137,-0.04984311874723333]",100.0,"[-0.08229984305595686,0.1627170210742819]",100.0,"[0.06942539111848604,0.1312401161050235]",100.0,"[0.021659653816049968,0.002524570395662186]",100.0,"[-0.041466662509751756,0.1318044463777999]",100.0,"[-0.14800818063862323,0.12660497544584495]",100.0,"[0.14685169364309184,0.004225481834723268]",100.0,"[0.02,0.02]",161.7969,0.0,37.0,37.0,22.0,1.0,,,,,,,
,,,,,,,5cd083548702e10018e3b0a5,68399d25daf88b88604399f2,2025-05-30_13h57.39.671,shape_ratio,2024.1.5,Win32,59.88023952,683853e18dae57a2147b65e0,,,,,,,,,,,161.7971,162.2968,,,162.5471,162.8964,right,,,,,,,,0.9,0.3336,,,,,,,162.2968,162.547,162.8965,"[0.10475927189238536,0.05905869698801461]",100.0,"[-0.038343399622710224,-0.05601710225853958]",100.0,"[-0.12150649035716769,-0.10174919907758544]",100.0,"[0.009064121148351523,-0.1619744493657267]",100.0,"[0.04196474480259658,-0.027666608641574258]",100.0,"[-0.08202203719425082,0.061858690041816]",100.0,"[-0.09053139353381004,-0.07226043450295173]",4.0,"[0.09716729652824453,-0.11085029008547029]",100.0,"[0.14359137330290933,-0.1333297076498011]",100.0,"[0.10859890126697284,-0.024568747982176842]",100.0,"[-0.1572017600885878,0.10464256079026305]",100.0,"[0.005354134150365587,0.1287537021716094]",100.0,"[-0.10735103169667022,-0.15764602543029604]",4.0,"[-0.022545164223063466,0.026005669992812525]",100.0,"[-0.02423922927551353,-0.0981427898293419]",100.0,"[-0.032102186027963046,0.10822598617166052]",100.0,"[0.08153793213328331,0.12670888980098383]",100.0,"[-0.12864162215715583,-0.0071657123113782984]",4.0,"[0.17119653916551994,0.026067705548307115]",100.0,"[0.043587632674919725,0.03251304902506663]",100.0,"[-0.11047364542552515,0.1297991818386249]",100.0,"[-0.15729142269830684,0.052232732294832614]",100.0,"[-0.039792467770985614,-0.19186440126740498]",100.0,"[0.03856732159111015,0.09328378816538627]",100.0,"[-0.041962153219437213,0.06320479699990662]",100.0,"[0.07198785101000876,0.16634174794193662]",100.0,"[0.051023060945564795,-0.1315135102844583]",100.0,"[0.1498495358337403,0.1013308442324064]",100.0,"[0.023218845050525596,0.1870206996746156]",100.0,"[-0.1942250914069363,0.006828973791017639]",100.0,"[0.14852910462814722,-0.08617632084928267]",100.0,"[-0.08049122638784327,-0.0017232800957037546]",100.0,"[0.02,0.02]",163.9948,0.0,38.0,38.0,5.0,1.0,,,,,,,
,,,,,,,5cd083548702e10018e3b0a5,68399d25daf88b88604399f2,2025-05-30_13h57.39.671,shape_ratio,2024.1.5,Win32,59.88023952,683853e18dae57a2147b65e0,,,,,,,,,,,163.9952,164.4948,,,164.7447,165.0441,right,,,,,,,,0.45,0.2793,,,,,,,164.4948,164.7446,165.0441,"[0.03528229627482087,-0.06048137818379815]",4.0,"[0.03532348433465977,0.02195658286807347]",100.0,"[0.07247896684496868,0.07871921574002158]",100.0,"[0.11051753457644548,-0.118956957517478]",4.0,"[-0.026083083936983928,-0.19814165025705063]",4.0,"[0.13343624222207126,0.00019137542644976737]",100.0,"[-0.047444483600529504,0.05577692995415302]",4.0,"[-0.17797721323346283,-0.07675909467620716]",4.0,"[0.09992131411255498,0.11856281183766959]",4.0,"[0.0009441115439120744,0.18402957505848516]",4.0,"[0.08765469428390446,0.0005090142295404718]",4.0,"[0.01243081353100201,0.09083581939479948]",100.0,"[-0.059477566388463216,0.10350412772309227]",4.0,"[-0.1663969687159905,0.08336491202382777]",100.0,"[-0.14855595808297434,0.021038868968887365]",100.0,"[0.09296608623938456,0.16285403487987862]",4.0,"[0.031240668423611055,-0.14026841802942466]",4.0,"[0.15437510437689295,-0.06323251452311088]",100.0,"[-0.053857110824714526,0.18380699190616986]",100.0,"[-0.08013751747165176,-0.08903536231050142]",4.0,"[0.19389460979980608,-0.016878137573326995]",100.0,"[-0.08831765384652553,-0.023390060844415004]",100.0,"[0.1597800211247513,-0.10904079012685754]",100.0,"[0.1810831622169919,0.052575762801964576]",4.0,"[-0.08793999151000742,0.13764851790447702]",4.0,"[-0.02570558597048093,-0.15814057196495446]",100.0,"[-0.09207122257952238,-0.16286452057895467]",4.0,"[-0.13273512001703425,-0.04589862523113768]",100.0,"[0.0801544310753114,-0.0668687179939788]",4.0,"[-0.14299989679053687,0.13716080022037086]",4.0,"[0.126399961658901,0.0684593859040328]",4.0,"[0.05388966708979397,0.14710446188165358]",100.0,"[0.02,0.02]",166.1431,0.0,39.0,39.0,124.0,1.0,,,,,,,
,,,,,,,5cd083548702e10018e3b0a5,68399d25daf88b88604399f2,2025-05-30_13h57.39.671,shape_ratio,2024.1.5,Win32,59.88023952,683853e18dae57a2147b65e0,,,,,,,,,,,166.1433,166.6427,,,166.8932,167.2426,right,,,,,,,,0.9,0.3302,,,,,,,166.6427,166.8931,167.2426,"[-0.16704400504386338,-0.005084251027839886]",100.0,"[0.030216567738941096,0.031260731166080406]",100.0,"[-0.15911761301651983,-0.054626133178591364]",100.0,"[0.06318484717093557,0.11235501384084429]",100.0,"[-0.10230950655707081,0.10333725487244726]",100.0,"[-0.029950220125755364,-0.14908562775787845]",100.0,"[0.16008115891399186,-0.034370808896454934]",100.0,"[-0.08804267647320356,-0.07207639859931228]",100.0,"[-0.06335681617393779,-0.17505059465447392]",100.0,"[0.03786168967796271,-0.18026566805729893]",100.0,"[0.10681815908148731,-0.1642898362406518]",100.0,"[-0.0633967319771489,0.010164297218933156]",100.0,"[0.008090398650347353,0.084852449845514]",100.0,"[-0.04207993939025558,0.14854076400972993]",100.0,"[0.15425333964508606,0.08637633703613709]",4.0,"[0.05875711342077331,-0.11569474253604041]",100.0,"[0.08450647410055116,-0.028828625070750492]",100.0,"[0.16320086087624405,-0.11342861924835825]",100.0,"[-0.1109269548631486,-0.138791616884779]",100.0,"[0.022949388923262586,-0.02947462046516818]",100.0,"[-0.17282819371983088,0.042732069662722]",100.0,"[-0.10680276826223956,0.015409285596073892]",100.0,"[-0.008480342710360429,0.042782815324777186]",100.0,"[-0.051283331092294424,0.0756491120144007]",100.0,"[0.11292936185634266,-0.058010184134169036]",100.0,"[-0.1180845143810028,0.14160743610031185]",100.0,"[0.02347265086504381,-0.13628713069429102]",4.0,"[-0.022156449747296438,0.19253417436992698]",100.0,"[0.08299740719015228,0.027508811594236748]",100.0,"[0.135022005432978,0.1309262666149532]",100.0,"[0.1507854733001898,0.0059778405267066825]",4.0,"[0.06839319231242212,0.15385480678037022]",100.0,"[0.02,0.02]",168.3414,0.0,40.0,40.0,24.0,1.0,,,,,,,
,,,,,,,5cd083548702e10018e3b0a5,68399d25daf88b88604399f2,2025-05-30_13h57.39.671,shape_ratio,2024.1.5,Win32,59.88023952,683853e18dae57a2147b65e0,,,,,,,,,,,168.3421,168.8413,,,169.091,169.5402,left,,,,,,,,0.55,0.4293,,,,,,,168.8414,169.091,169.5402,"[-0.010007154008748206,-0.13034363802338506]",100.0,"[-0.1278260220305756,0.06444985155335221]",4.0,"[-0.11905528889369597,-0.0574357959917724]",100.0,"[0.13919458471938392,0.0290544755896753]",4.0,"[0.18756047516359073,0.019272169434249475]",100.0,"[-0.17094967773163194,0.09384248954321008]",100.0,"[-0.03421518075564462,-0.027943980994681924]",4.0,"[0.14977040467529895,-0.09512912318506007]",100.0,"[-0.04458054532276652,0.038362439165474806]",4.0,"[-0.02118865522214934,-0.08956640042882051]",100.0,"[-0.010102918754853947,0.07434037467095632]",100.0,"[0.07799675643093165,0.05412668378823792]",100.0,"[0.15805671573515154,0.08771364718296218]",4.0,"[0.036281835498203116,0.03300365276921272]",100.0,"[-0.10184173616636026,0.1332575315035694]",100.0,"[0.06754496957870912,0.14360266303728003]",4.0,"[0.10362166820882333,-0.016634496796185273]",4.0,"[-0.044012976975412066,0.10311100683327543]",100.0,"[-0.13601355669844387,0.014018367826045514]",4.0,"[0.007442217738977211,0.0013752443396921514]",4.0,"[0.15773174381347604,-0.04727684602660444]",100.0,"[0.007376774319403656,-0.17345909857064779]",4.0,"[0.023673925715147287,0.11207066464326511]",4.0,"[0.047250946279679185,-0.04360451502137464]",4.0,"[0.07001520823852798,-0.16558477526254667]",100.0,"[-0.054819865613937015,0.15785407185532827]",4.0,"[0.03219143028349556,0.17985630692575758]",4.0,"[-0.011970384895827075,0.1978879364930598]",100.0,"[0.07452465662972377,-0.10531022918938658]",100.0,"[-0.08868643399180748,-0.08873212111613828]",100.0,"[-0.07945022618449417,-0.16153734177062656]",100.0,"[0.1939233798748563,-0.024271884391105326]",100.0,"[0.02,0.02]",170.6391,0.0,41.0,41.0,64.0,1.0,,,,,,,
,,,,,,,5cd083548702e10018e3b0a5,68399d25daf88b88604399f2,2025-05-30_13h57.39.671,shape_ratio,2024.1.5,Win32,59.88023952,683853e18dae57a2147b65e0,,,,,,,,,,,170.6393,171.1387,,,171.3887,171.7882,right,,,,,,,,0.6,0.3794,,,,,,,171.1387,171.3886,171.7882,"[-0.09401051302637595,-0.14368801274330978]",100.0,"[0.09709056799013846,-0.06242532019140013]",4.0,"[0.08488266614949508,0.08481957789009194]",100.0,"[0.011152383330730792,-0.07010937070569973]",100.0,"[-0.05076503281539328,0.06367090727412797]",100.0,"[-0.1607717072848751,0.014777582224743933]",100.0,"[0.0597495659756531,0.011744990483030175]",100.0,"[0.14246376845354214,-0.10668326233596674]",100.0,"[-0.04665375235647869,-0.04957537775930404]",100.0,"[-0.0136319053742077,-0.012662331608749158]",100.0,"[0.07990033451788787,-0.10849075002201515]",4.0,"[0.1767988316660663,-0.07280638085570347]",4.0,"[0.0007493054938983949,0.1289254229529056]",4.0,"[-0.017854227003391284,-0.1847236802121255]",4.0,"[-0.056778975416121674,-0.0028165245252977857]",100.0,"[0.09494637069887711,0.13031116613376548]",100.0,"[0.046335867921277994,-0.02734421941952044]",4.0,"[0.06539984057400036,0.1716193790667256]",4.0,"[-0.15581625063777613,0.05513450061852527]",100.0,"[-0.11224572348698753,0.0790704426091507]",4.0,"[0.10533437369050276,-0.019141765103714608]",100.0,"[-0.11880251771099856,-0.01961691486126174]",4.0,"[0.10796891754211654,0.03979910055603693]",100.0,"[0.15244791242090278,-0.02851243254931292]",100.0,"[-0.1703998204242021,-0.08162417383941134]",4.0,"[-0.189218763810072,-0.045582420075660934]",100.0,"[-0.023202266701437452,-0.12983451964570278]",100.0,"[-0.07725216612724384,0.10603189362443079]",4.0,"[0.056019893558361164,-0.1603851280893657]",100.0,"[0.015966440179368626,0.02738843898201977]",4.0,"[-0.06476030163721191,0.18552011340189786]",100.0,"[0.1554555849717299,0.09226595180998443]",4.0,"[0.02,0.02]",172.8877,0.0,42.0,42.0,45.0,1.0,,,,,,,
,,,,,,,5cd083548702e10018e3b0a5,68399d25daf88b88604399f2,2025-05-30_13h57.39.671,shape_ratio,2024.1.5,Win32,59.88023952,683853e18dae57a2147b65e0,,,,,,,,,,,172.8883,173.3868,,,173.6367,174.0697,right,,,,,,,,0.6,0.4145,,,,,,,173.3868,173.6366,174.0697,"[0.05300197437341159,0.04175130011611731]",4.0,"[-0.045124980831046956,-0.014693696746018536]",100.0,"[0.11024477546067292,0.06548414628177386]",100.0,"[-0.013633268889739172,-0.17613813058725677]",4.0,"[0.06100099339508808,-0.032397210539224904]",100.0,"[0.02253578228964328,-0.08569538982361216]",100.0,"[-0.026386442920540133,0.05189995141287016]",100.0,"[-0.05440473387494566,-0.06880888326438003]",4.0,"[-0.01695694559204149,-0.1360681863958308]",4.0,"[0.14154365369474073,0.11243137159989328]",100.0,"[0.015135407084655085,-0.03105845927588297]",100.0,"[0.18665705327872376,-0.0631348294782114]",100.0,"[0.10037175710440155,-0.12341078577607136]",100.0,"[0.03865725490300155,-0.1910437186929581]",100.0,"[-0.08959845389286188,-0.102189653594713]",4.0,"[0.07566264965532309,0.17294483281967285]",100.0,"[0.012970280711371665,0.17921443884327373]",4.0,"[0.13250148293472608,0.02165144645600949]",4.0,"[-0.13500543531187267,0.13902024434203014]",4.0,"[-0.10937756312784926,0.05008124772830862]",100.0,"[-0.1373166926586683,-0.019591994108745667]",100.0,"[-0.14544102875895862,0.09665390960769073]",100.0,"[-0.10002993678973218,-0.15878061588665213]",4.0,"[0.10526876567393069,-0.06003669107384369]",4.0,"[-0.05998363727996287,0.12212461423972636]",100.0,"[-0.1482886141311535,-0.11771963441974298]",4.0,"[0.1912638179053627,0.05339256366275904]",100.0,"[-0.04584985307844523,0.1868542931402909]",4.0,"[0.04845831277068852,0.08261360825778799]",4.0,"[-0.1833909392896964,0.05343042253454009]",100.0,"[0.17277889360779916,0.007441593468763049]",100.0,"[0.14240209353266323,-0.10151436074643766]",100.0,"[0.02,0.02]",175.169,0.0,43.0,43.0,54.0,1.0,,,,,,,
,,,,,,,5cd083548702e10018e3b0a5,68399d25daf88b88604399f2,2025-05-30_13h57.39.671,shape_ratio,2024.1.5,Win32,59.88023952,683853e18dae57a2147b65e0,,,,,,,,,,,175.1696,175.6686,,,175.9183,176.2347,left,,,,,,,,0.1,0.3005,,,,,,,175.6686,175.9183,176.2347,"[-0.04468710335309779,-0.0457356607381679]",4.0,"[0.04660494997005148,-0.08066665341783126]",4.0,"[0.008727597043100659,0.02798432658485183]",4.0,"[0.06701692730208363,0.059290118044524734]",100.0,"[-0.12603368064424034,-0.0925720465416937]",4.0,"[-0.15375786491215399,0.06395141583747754]",4.0,"[-0.09385905502137518,-0.1291991777661324]",4.0,"[0.05090544602715371,0.18672673680731905]",4.0,"[-0.08803826587498922,-0.03933749038241826]",4.0,"[0.08705571722553254,-0.0244048247387642]",4.0,"[0.12957119754237292,-0.08742168895649007]",4.0,"[0.014087229617739887,-0.1640399568619679]",4.0,"[0.16799380749775786,0.10751864653957037]",4.0,"[0.1817851293699472,0.04688854731601041]",4.0,"[-0.05932711434306508,-0.08887116859576326]",100.0,"[-0.17989440409483384,-0.027994030089427156]",4.0,"[0.16827199740714108,-0.0281591057659334]",4.0,"[0.07648800998610356,0.10839610845602986]",4.0,"[-0.06401781335293402,0.05716249835796481]",4.0,"[0.02351377615703574,0.09465922114722665]",100.0,"[0.1223463164098687,0.12668700757575393]",4.0,"[-0.10972094330898995,0.11070897877310734]",4.0,"[0.12161432876095817,0.036231613916589196]",4.0,"[0.07480220068422895,0.018335773760257593]",4.0,"[-0.056533323627992245,-0.17933634443335025]",4.0,"[0.008257649054633241,0.14711536464159347]",4.0,"[0.08531529608488053,-0.16105057591359329]",4.0,"[-0.0017535000786860456,-0.03173227369114949]",4.0,"[-0.13795605657758966,-0.0397813970022247]",4.0,"[0.0894503360427676,-0.10085224790894635]",4.0,"[-0.04562480673042091,0.12502289957945129]",4.0,"[-0.10217233680263751,0.014088766705644384]",4.0,"[0.02,0.02]",177.3333,0.0,44.0,44.0,206.0,1.0,,,,,,,
,,,,,,,5cd083548702e10018e3b0a5,68399d25daf88b88604399f2,2025-05-30_13h57.39.671,shape_ratio,2024.1.5,Win32,59.88023952,683853e18dae57a2147b65e0,,,,,,,,,,,177.3336,177.8334,,,178.0838,178.4831,left,,,,,,,,0.1,0.3839,,,,,,,177.8334,178.0837,178.4833,"[0.1394015227892191,-0.0857642290394222]",4.0,"[0.0908790477710868,0.014608725773801436]",4.0,"[0.01117578928924237,-0.09172362857627786]",4.0,"[0.011664526766851294,-0.02315347750756751]",4.0,"[0.11807328879286008,0.09508982249626688]",4.0,"[-0.027685874986817786,0.015220948888022341]",4.0,"[-0.01919604522434392,-0.058160734774917906]",4.0,"[0.05164021881849242,0.17367227683165315]",4.0,"[0.1069838148186498,-0.12205542991334696]",4.0,"[0.17640729412240577,0.01079698401121886]",4.0,"[0.07260564570206356,-0.14474239246318452]",4.0,"[-0.11449325526489125,0.058000015697421]",100.0,"[0.12138749916811278,-0.01762779966663036]",4.0,"[-0.1336092023657316,0.017404709088924903]",4.0,"[0.10435971879953355,0.15657264926784378]",4.0,"[0.050564325788563826,0.06492335296255868]",4.0,"[-0.06067897250246095,0.08559396167288404]",4.0,"[-0.040867363794099464,0.14542321024646276]",100.0,"[-0.061848923345124075,-0.05313263768198288]",4.0,"[-0.17388447250867892,-0.03442687500336517]",4.0,"[-0.13974190296492897,-0.07816006515577616]",4.0,"[0.10364575026567792,-0.059917785501210845]",4.0,"[-0.1080125021509994,-0.16634814675374993]",4.0,"[0.039745516748679446,0.02547222929728242]",4.0,"[-0.028040119687760923,-0.11436164058628248]",4.0,"[-0.02947749108230976,-0.17975002237197646]",4.0,"[0.01236622312856343,-0.15021221283274266]",4.0,"[0.005091283359026737,0.11726524473039898]",4.0,"[-0.07120069030860977,0.015239053046054126]",4.0,"[-0.1754385144092064,0.07570707518198748]",4.0,"[-0.08405629482105181,0.12274219663896775]",100.0,"[0.1841641375963408,-0.059158106412437565]",4.0,"[0.02,0.02]",179.5813,0.0,45.0,45.0,198.0,1.0,,,,,,,
,,,,,,,5cd083548702e10018e3b0a5,68399d25daf88b88604399f2,2025-05-30_13h57.39.671,shape_ratio,2024.1.5,Win32,59.88023952,683853e18dae57a2147b65e0,,,,,,,,,,,179.5816,180.0808,,,180.3309,180.7812,left,,,,,,,,0.1,0.4343,,,,,,,180.0809,180.3309,180.7814,"[0.042637821824923774,-0.09659308129165776]",4.0,"[-0.026731719678952794,0.12621430311630608]",4.0,"[-0.019112238917589744,-0.13843504703407788]",4.0,"[0.08905437389303301,0.10059099199634348]",4.0,"[-0.10251427320969936,0.07624644703328584]",4.0,"[0.1536083984301893,0.0036878648176789227]",100.0,"[-0.12947235964496762,0.03988430146920523]",4.0,"[-0.06829045025014077,0.18724760469632415]",4.0,"[0.10415843312182188,0.05434225352502335]",4.0,"[0.1245915905672832,0.12110251077132689]",4.0,"[0.10762500686427183,-0.14784362965167677]",4.0,"[-0.15858056538460658,-0.08218653211510527]",4.0,"[-0.11309487541066651,-0.1638926003251419]",4.0,"[0.11965790373615208,-0.06424202070179008]",4.0,"[-0.014542569245790284,-0.04405458783127096]",4.0,"[-0.09865277700417573,-0.10485519462547745]",100.0,"[0.07526052823355642,-0.030531899282969018]",4.0,"[0.15618906117329603,-0.09229504904204061]",4.0,"[0.19737030951569914,-0.025995183874953493]",4.0,"[-0.038611698582542146,0.029851787646972362]",100.0,"[0.05086658152454173,0.07277528016354952]",4.0,"[-0.18422001259794907,0.04499354600235283]",4.0,"[0.027152156346783002,-0.14517206372383126]",4.0,"[-0.16802467585924666,-0.019902571336707996]",4.0,"[0.039934453953777954,0.013453337551147712]",4.0,"[-0.07913267448359232,0.03528881099388297]",4.0,"[-0.13569190788546306,0.14067273115762258]",4.0,"[-0.07006267287140897,0.13986312457753958]",4.0,"[0.16645576105832174,0.1034085660706324]",4.0,"[0.057029608561749205,0.18968443109499974]",4.0,"[0.06983109728960224,-0.16506152446678204]",4.0,"[0.001497393424052525,0.17635781981792983]",4.0,"[0.02,0.02]",181.8799,0.0,46.0,46.0,209.0,1.0,,,,,,,
,,,,,,,5cd083548702e10018e3b0a5,68399d25daf88b88604399f2,2025-05-30_13h57.39.671,shape_ratio,2024.1.5,Win32,59.88023952,683853e18dae57a2147b65e0,,,,,,,,,,,181.8807,182.3789,,,182.6293,183.0286,right,,,,,,,,0.5,0.3828,,,,,,,182.379,182.6292,183.0286,"[0.08379001316169647,0.1814521441693715]",100.0,"[-0.17754029631654422,0.07045332793550178]",4.0,"[0.13366688403830213,-0.01445771897752994]",100.0,"[-0.15597432076533785,-0.06478000757255972]",4.0,"[0.03732167121379801,-0.07210504784708205]",100.0,"[0.1106532683229558,0.12102686554962715]",4.0,"[-0.0716175473493436,-0.012297920111922298]",100.0,"[-0.11000976407956825,0.06333524297069573]",4.0,"[0.05675208265943421,-0.1346554696912231]",4.0,"[0.07241464546103497,-0.050254170242609655]",4.0,"[0.1779256956237369,-0.03308651800386715]",100.0,"[0.16702293910608143,0.012445045574681379]",4.0,"[-0.05535091097113291,-0.17219689522857606]",100.0,"[-0.0857896161511721,-0.072723785701371]",4.0,"[-0.054689599631146515,0.05787085530356273]",4.0,"[-0.06546229988963913,0.11985348007452991]",4.0,"[-0.13670967650492732,0.0988011638023372]",100.0,"[-0.009621644578485517,0.19052413544498]",4.0,"[-0.008088236342404449,-0.08119333090729698]",100.0,"[0.12657942414978587,0.06038767026619977]",100.0,"[-0.12062653120338894,-0.026662347748292906]",4.0,"[0.11509653931422519,-0.10686916548263828]",100.0,"[-0.028034152233916945,0.024639235841788742]",100.0,"[0.16665270275001048,0.10307448626145504]",4.0,"[0.022730298065400376,0.05026921593602062]",4.0,"[-0.0384115812589143,-0.03779774914881141]",4.0,"[-0.01725378346613522,-0.13289642126274817]",100.0,"[-0.1319933454294579,-0.11026162146188796]",100.0,"[-0.030104360407797265,0.1436030290229768]",100.0,"[0.09081994518372347,-0.17230742947325184]",100.0,"[0.015727183340986235,-0.17076772003737986]",100.0,"[0.04148361927069862,0.1719952882421936]",4.0,"[0.02,0.02]",184.1273,0.0,47.0,47.0,111.0,1.0,,,,,,,
,,,,,,,5cd083548702e10018e3b0a5,68399d25daf88b88604399f2,2025-05-30_13h57.39.671,shape_ratio,2024.1.5,Win32,59.88023952,683853e18dae57a2147b65e0,,,,,,,,,,,184.1277,184.6269,,,184.8768,185.4931,right,,,,,,,,0.4,0.6,,,,,,,184.6269,184.8767,185.4932,"[-0.0740662103314231,-0.08203812692787127]",4.0,"[0.09683691084509816,-0.12421256563330758]",100.0,"[0.09746162953419492,0.13056802483661692]",4.0,"[0.1867362733794608,-0.05278434254742518]",4.0,"[-0.1758117041134691,-0.026032333448570248]",100.0,"[0.014744606217118861,-0.16560182512525987]",100.0,"[-0.007175808617512926,0.03170346322676129]",100.0,"[-0.17995286979805702,0.060749916516706595]",100.0,"[-0.07647258283403063,-0.18005761759670363]",4.0,"[0.014854587302776723,-0.11798696839900213]",4.0,"[-0.126287696593713,-0.036850118079607426]",100.0,"[-0.07189716720177049,0.11427014828530274]",4.0,"[0.0748177041029443,-0.06790866874016022]",4.0,"[0.08346510755551471,-0.17797554929864137]",100.0,"[0.18815073693965625,0.06281882119733365]",4.0,"[0.05009883849507159,0.10013073027686592]",4.0,"[-0.11151110218221368,0.005022972055422215]",4.0,"[0.15295580502988465,-0.09912767175098386]",4.0,"[0.017576027630399983,-0.007596722948075832]",4.0,"[-0.039775192768032326,-0.040684529601123044]",100.0,"[-0.05202444053525921,0.16113426152199206]",4.0,"[-0.060196952009804544,-0.12604814776962975]",4.0,"[0.0423951610116228,0.17365613341374236]",100.0,"[0.1437126651727395,-0.054226082200650956]",4.0,"[-0.1221957163705981,0.05488927726185727]",4.0,"[0.17309983838267137,-0.00014740281339347208]",4.0,"[0.11057473956991452,0.03779704769695119]",100.0,"[0.060901032409355516,0.053102926267145]",100.0,"[-0.1401713744037661,0.12086324123296363]",100.0,"[0.13204974487057716,0.09634996051245456]",100.0,"[-0.17139980784190612,-0.09349803484005083]",4.0,"[-0.036599952315772115,0.06939771886547012]",4.0,"[0.02,0.02]",186.5924,0.0,48.0,48.0,170.0,1.0,,,,,,,
,,,,,,,5cd083548702e10018e3b0a5,68399d25daf88b88604399f2,2025-05-30_13h57.39.671,shape_ratio,2024.1.5,Win32,59.88023952,683853e18dae57a2147b65e0,,,,,,,,,,,186.5931,187.0914,,,187.3416,188.0574,right,,,,,,,,0.5,0.6996,,,,,,,187.0914,187.3416,188.0574,"[-0.08652261928115369,0.09645490072058072]",4.0,"[0.05891116096840884,0.043677365672062124]",100.0,"[-0.04350242606790483,0.06788079608210822]",4.0,"[0.08076770749044171,-0.006709723898601484]",4.0,"[-0.04207974493625091,0.18164255836608237]",100.0,"[-0.17848251084639544,0.0332712679898822]",4.0,"[0.16432775615702966,-0.09584655045454643]",100.0,"[-0.1419134312543385,-0.007251475949578107]",4.0,"[0.04575693088369929,-0.0767158424235688]",4.0,"[0.11457846456820024,-0.11494918593529235]",4.0,"[0.0737184784573037,0.15809997054472702]",4.0,"[-0.1462696295874351,-0.0770724861297432]",100.0,"[-0.11762760536444353,-0.14315419030692025]",4.0,"[-0.058541248512385374,-0.07314272819706949]",100.0,"[-0.09865212823363355,-0.0007257862970125867]",100.0,"[-0.008437300571307958,-0.05948349588149921]",100.0,"[0.0718979583027153,-0.18422994890488822]",100.0,"[0.1533530277470619,-0.018037433098616027]",100.0,"[0.10713311696289624,0.04185464193635998]",100.0,"[-0.018310755087654996,0.013664159426270986]",100.0,"[0.020579159252433737,0.10804913648928566]",100.0,"[0.031471743194548464,0.0030535973001421693]",4.0,"[0.15941150872321386,0.05127176085384446]",4.0,"[0.00008386447547540271,-0.1969723082970946]",4.0,"[-0.04729882290386733,0.13980283618949585]",4.0,"[0.0004412122674187927,0.05003069944438]",4.0,"[-0.10301428426470105,-0.09135939934969717]",4.0,"[-0.13249613012924255,0.048207165196402925]",100.0,"[-0.0021630293612808073,0.1478056542066595]",100.0,"[0.043025170399948326,-0.1231128159994031]",4.0,"[0.027255603480418552,0.18932859247876943]",100.0,"[-0.17657474880347585,-0.03379495799030501]",100.0,"[0.02,0.02]",189.1563,0.0,49.0,49.0,101.0,1.0,,,,,,,
