right,left,explain.started,explain.stopped,key_resp_3.keys,key_resp_3.rt,key_resp_3.duration,participant,session,date,expName,psychopyVersion,OS,frameRate,study_id,explain_2.started,explain_2.stopped,key_resp_4.keys,key_resp_4.rt,key_resp_4.duration,explain_3.started,explain_3.stopped,key_resp_5.keys,key_resp_5.rt,key_resp_5.duration,fixation.started,fixation.stopped,practice.started,practice.stopped,response.started,response.stopped,key_resp.keys,key_resp.rt,key_resp.duration,feedback.started,feedback.stopped,trials_2.thisRepN,trials_2.thisTrialN,trials_2.thisN,trials_2.thisIndex,trials_2.ran,dot_ratio,explain_4.started,explain_4.stopped,key_resp_6.keys,key_resp_6.rt,key_resp_6.duration,dotDisplay.started,dotDisplay.stopped,ITI.started,polygon_1.pos,polygon_1.edges,polygon_2.pos,polygon_2.edges,polygon_3.pos,polygon_3.edges,polygon_4.pos,polygon_4.edges,polygon_5.pos,polygon_5.edges,polygon_6.pos,polygon_6.edges,polygon_7.pos,polygon_7.edges,polygon_8.pos,polygon_8.edges,polygon_9.pos,polygon_9.edges,polygon_10.pos,polygon_10.edges,polygon_11.pos,polygon_11.edges,polygon_12.pos,polygon_12.edges,polygon_13.pos,polygon_13.edges,polygon_14.pos,polygon_14.edges,polygon_15.pos,polygon_15.edges,polygon_16.pos,polygon_16.edges,polygon_17.pos,polygon_17.edges,polygon_18.pos,polygon_18.edges,polygon_19.pos,polygon_19.edges,polygon_20.pos,polygon_20.edges,polygon_21.pos,polygon_21.edges,polygon_22.pos,polygon_22.edges,polygon_23.pos,polygon_23.edges,polygon_24.pos,polygon_24.edges,polygon_25.pos,polygon_25.edges,polygon_26.pos,polygon_26.edges,polygon_27.pos,polygon_27.edges,polygon_28.pos,polygon_28.edges,polygon_29.pos,polygon_29.edges,polygon_30.pos,polygon_30.edges,polygon_31.pos,polygon_31.edges,polygon_32.pos,polygon_32.edges,dot_size,ITI.stopped,trials.thisRepN,trials.thisTrialN,trials.thisN,trials.thisIndex,trials.ran,break_2.started,break_2.stopped,trials_3.thisRepN,trials_3.thisTrialN,trials_3.thisN,trials_3.thisIndex,trials_3.ran
subject chose diamond,subject chose dot,0.0,61.611,space,46.604,,5ce42dbec3f4270001574a15,683aefb86849d91dac18a4a4,2025-05-31_14h02.47.638,shape_ratio,2024.1.5,Win32,165.0165017,683ae9196541af24d3a69e58,,,,,,,,,,,,,,,,,,,,,,,,,,,,,,,,,,,,,,,,,,,,,,,,,,,,,,,,,,,,,,,,,,,,,,,,,,,,,,,,,,,,,,,,,,,,,,,,,,,,,,,,,,,,,,,,,
,,,,,,,5ce42dbec3f4270001574a15,683aefb86849d91dac18a4a4,2025-05-31_14h02.47.638,shape_ratio,2024.1.5,Win32,165.0165017,683ae9196541af24d3a69e58,61.611,92.217,space,0.596,,,,,,,,,,,,,,,,,,,,,,,,,,,,,,,,,,,,,,,,,,,,,,,,,,,,,,,,,,,,,,,,,,,,,,,,,,,,,,,,,,,,,,,,,,,,,,,,,,,,,,,,,,,,,
,,,,,,,5ce42dbec3f4270001574a15,683aefb86849d91dac18a4a4,2025-05-31_14h02.47.638,shape_ratio,2024.1.5,Win32,165.0165017,683ae9196541af24d3a69e58,,,,,,92.217,96.914,space,1.689,,,,,,,,,,,,,,,,,,,,,,,,,,,,,,,,,,,,,,,,,,,,,,,,,,,,,,,,,,,,,,,,,,,,,,,,,,,,,,,,,,,,,,,,,,,,,,,,,,,,,,,,
,,,,,,,5ce42dbec3f4270001574a15,683aefb86849d91dac18a4a4,2025-05-31_14h02.47.638,shape_ratio,2024.1.5,Win32,165.0165017,683ae9196541af24d3a69e58,,,,,,,,,,,96.924,97.418,97.418,97.667,97.667,98.546,right,0.841,,98.546,99.644,0.0,0.0,0.0,0.0,1.0,0.2,,,,,,,,,,,,,,,,,,,,,,,,,,,,,,,,,,,,,,,,,,,,,,,,,,,,,,,,,,,,,,,,,,,,,,,,,,,,,,,,,,,,,,
,,,,,,,5ce42dbec3f4270001574a15,683aefb86849d91dac18a4a4,2025-05-31_14h02.47.638,shape_ratio,2024.1.5,Win32,165.0165017,683ae9196541af24d3a69e58,,,,,,,,,,,99.644,100.142,100.142,100.391,100.391,100.688,left,0.293,,100.688,101.786,0.0,1.0,1.0,1.0,1.0,0.8,,,,,,,,,,,,,,,,,,,,,,,,,,,,,,,,,,,,,,,,,,,,,,,,,,,,,,,,,,,,,,,,,,,,,,,,,,,,,,,,,,,,,,
,,,,,,,5ce42dbec3f4270001574a15,683aefb86849d91dac18a4a4,2025-05-31_14h02.47.638,shape_ratio,2024.1.5,Win32,165.0165017,683ae9196541af24d3a69e58,,,,,,,,,,,,,,,,,,,,,,,,,,,,101.786,112.072,space,7.282,,,,,,,,,,,,,,,,,,,,,,,,,,,,,,,,,,,,,,,,,,,,,,,,,,,,,,,,,,,,,,,,,,,,,,,,,,,,,,,,,,
,,,,,,,5ce42dbec3f4270001574a15,683aefb86849d91dac18a4a4,2025-05-31_14h02.47.638,shape_ratio,2024.1.5,Win32,165.0165017,683ae9196541af24d3a69e58,,,,,,,,,,,112.079,112.575,,,112.824,113.892,right,1.062,,,,,,,,,0.4,,,,,,112.575,112.824,113.892,"[-0.09565604603026746,0.10351765501188465]",4.0,"[0.031103737098900273,-0.08331989684150448]",4.0,"[-0.02353037686784597,-0.021200554831669573]",4.0,"[0.02555357351514192,0.16447962696169183]",4.0,"[-0.04525562142600169,-0.1097214723332682]",4.0,"[-0.08546082035024888,0.040202167913011566]",4.0,"[-0.07390218543148955,0.1671420336863734]",4.0,"[0.10984541013858737,-0.11873004612672912]",100.0,"[-0.10950634641683152,-0.1352931785075321]",100.0,"[0.1348961712351913,-0.05122786340933492]",4.0,"[0.09582212352407292,0.08423376494888123]",100.0,"[-0.13115404026789945,0.05060584540686788]",4.0,"[0.0865890772024226,-0.05908295974510333]",4.0,"[-0.03765872695063006,-0.15676725660283378]",4.0,"[0.15137035222001344,-0.1247917846436107]",4.0,"[-0.08435859889490266,-0.09433797538225155]",100.0,"[0.009861129229492184,0.041693497215373895]",4.0,"[-0.06548784114614956,-0.04365719503995358]",100.0,"[0.18761439250533424,0.03680635476499874]",4.0,"[0.02850869675894508,-0.17897268528313545]",100.0,"[0.06364405254203524,-0.005941891693061353]",4.0,"[0.012702849504316103,-0.04429115006525341]",100.0,"[-0.1605345506593558,-0.09452537218737994]",100.0,"[-0.16816805320766162,0.0018937952320592733]",100.0,"[0.14880470268538432,0.11354524414232185]",100.0,"[-0.05554263074220885,0.010404408664968303]",4.0,"[-0.12286325761760415,-0.04468345706898428]",100.0,"[0.1713936121431464,-0.08466691628494862]",4.0,"[0.18139528760072313,-0.009161400146378711]",4.0,"[0.01432236591934371,0.001467835396751809]",4.0,"[0.07954819715040078,0.14337686418536597]",100.0,"[-0.010614752053710414,0.10439044196710807]",100.0,"[0.02,0.02]",114.99,0.0,0.0,0.0,169.0,1.0,,,,,,,
,,,,,,,5ce42dbec3f4270001574a15,683aefb86849d91dac18a4a4,2025-05-31_14h02.47.638,shape_ratio,2024.1.5,Win32,165.0165017,683ae9196541af24d3a69e58,,,,,,,,,,,114.99,115.487,,,115.736,116.258,right,0.517,,,,,,,,,0.1,,,,,,115.487,115.736,116.258,"[0.01795685910195875,-0.10465441476849527]",4.0,"[0.15243237978816074,0.05311364982326689]",4.0,"[-0.12305056818746365,-0.027551061418666725]",4.0,"[0.14918508243993747,-0.10614673855264652]",4.0,"[-0.08366413581754195,0.1295142361371532]",4.0,"[-0.08080930812429608,-0.055610215715587046]",4.0,"[0.0010505498598009106,0.10914153308170763]",4.0,"[-0.12238253702977366,0.05126809278168312]",4.0,"[-0.07196086160122636,-0.11188469780581599]",4.0,"[0.017704233566747687,0.04193547746037328]",4.0,"[-0.032419964432959705,-0.05707158799865535]",4.0,"[-0.001203194248450313,0.18118403027749744]",4.0,"[0.10598717589660131,0.10476305422426614]",4.0,"[-0.19878449494370812,-0.021696870526831495]",100.0,"[0.10820319383663078,0.039596115444847216]",4.0,"[0.012968593972126123,-0.028758667111057547]",4.0,"[-0.12222193036603933,0.10437873261313706]",100.0,"[0.1476466483469943,0.10780808830019419]",4.0,"[0.07533731715364451,-0.02064515509126417]",4.0,"[0.06622127993024753,-0.18258773820573224]",100.0,"[-0.020531869602083908,-0.16174910127446251]",4.0,"[-0.024995990792058352,0.03447625568366411]",4.0,"[-0.03961010825414938,0.10218040032204005]",4.0,"[0.11768005163316134,-0.003744488413734166]",4.0,"[0.103752276809303,0.14565788437701804]",4.0,"[0.05158666626924321,-0.05941951018919352]",4.0,"[-0.07047590566642295,-0.16152729661845933]",4.0,"[0.11861163387909264,-0.1381143770139847]",4.0,"[-0.08629664140830963,0.1796522511088453]",4.0,"[0.18042004876939396,-0.07693187940913282]",4.0,"[0.04499424440194234,0.12249936664110621]",4.0,"[-0.16706566434995035,0.03967519296876179]",4.0,"[0.02,0.02]",117.356,0.0,1.0,1.0,198.0,1.0,,,,,,,
,,,,,,,5ce42dbec3f4270001574a15,683aefb86849d91dac18a4a4,2025-05-31_14h02.47.638,shape_ratio,2024.1.5,Win32,165.0165017,683ae9196541af24d3a69e58,,,,,,,,,,,117.357,117.854,,,118.103,118.564,left,0.454,,,,,,,,,0.55,,,,,,117.854,118.103,118.564,"[0.13186472930912696,-0.14931171528890338]",4.0,"[-0.06857403115150718,0.030716807279092907]",4.0,"[0.02535682039190081,0.021022148042819832]",100.0,"[-0.16405353525407065,0.08670022892236637]",100.0,"[0.14557737341593574,-0.05609692552158142]",100.0,"[0.07320371211619048,-0.12979382022680627]",100.0,"[0.006758943135323361,-0.07057383109831471]",100.0,"[-0.08969682840809486,0.0818194868507812]",100.0,"[-0.1205449605498659,-0.09449319930450936]",100.0,"[0.08729129779584788,-0.0014655769618815743]",100.0,"[-0.009611487132244948,-0.15901083135360902]",4.0,"[-0.044503006039237694,-0.04367176916986633]",100.0,"[-0.16500286559298977,-0.09325544021388715]",4.0,"[-0.18638060577787866,0.005597773886846282]",4.0,"[0.10398775491645738,0.03541297789376604]",4.0,"[0.19437063531014157,0.036168867293810386]",4.0,"[0.05850721885400421,0.1598907363996124]",100.0,"[0.048023793501226854,0.05963531850760291]",100.0,"[0.19462365856734562,-0.02131316771840428]",4.0,"[0.05506864091093944,-0.07911551366261256]",100.0,"[-0.01848959942700101,0.18212704737872612]",4.0,"[-0.08540154571563295,-0.024067183692442744]",4.0,"[-0.033221557033417906,-0.10545096755540226]",100.0,"[-0.11327683725671264,0.024492166221888826]",100.0,"[0.018569290493321164,0.13709341553855509]",100.0,"[0.16024175038382948,0.08099066898460122]",100.0,"[0.1392168743376622,0.12055709458445207]",4.0,"[-0.06408793066428216,-0.179435124884541]",4.0,"[-0.02495524106358579,0.03279804459567677]",4.0,"[0.05992543678100831,-0.17643225910945762]",100.0,"[0.027681852017941072,-0.12254969230908791]",100.0,"[0.10128927281888529,-0.09279810978438587]",4.0,"[0.02,0.02]",119.662,0.0,2.0,2.0,78.0,1.0,,,,,,,
,,,,,,,5ce42dbec3f4270001574a15,683aefb86849d91dac18a4a4,2025-05-31_14h02.47.638,shape_ratio,2024.1.5,Win32,165.0165017,683ae9196541af24d3a69e58,,,,,,,,,,,119.663,120.16,,,120.408,120.985,right,0.574,,,,,,,,,0.1,,,,,,120.16,120.408,120.985,"[-0.045095882462326896,-0.06448426141616821]",4.0,"[-0.012978171002589781,0.18515024742838357]",4.0,"[-0.1516247732147358,0.011957096214883417]",4.0,"[0.16000811886530117,-0.10618614071934455]",4.0,"[-0.18590510918865819,-0.061585549462941695]",4.0,"[0.051563184133865285,0.02672956389414789]",4.0,"[0.04629948356224362,0.0744468634594345]",100.0,"[0.0629289034208085,-0.09310770388394285]",4.0,"[0.03931314465447364,-0.18078061002525217]",4.0,"[-0.09437084625389175,-0.10394559178405322]",4.0,"[-0.018699947287478636,0.07887377077053445]",4.0,"[-0.043544611657931796,-0.14309279403698263]",4.0,"[0.09274793291544524,0.13635415546701193]",4.0,"[0.14985797903278458,0.02554750715199602]",4.0,"[-0.08098546256449558,0.1183823648701774]",4.0,"[-0.08973265396809277,0.029132613192320727]",4.0,"[-0.09960586011910355,-0.16428030699680243]",4.0,"[-0.15626723617979418,0.07601958317241618]",100.0,"[0.14742330296324552,-0.031982768177890565]",4.0,"[0.005717563223046958,-0.010492475042384746]",4.0,"[-0.14661339597327738,-0.03390155727669402]",4.0,"[0.0362164797085235,0.13570460177440047]",4.0,"[0.18974255771779952,0.050741074585698764]",4.0,"[-0.11964285699429014,0.15027790403565724]",4.0,"[0.19566837038077345,-0.01739938615426905]",4.0,"[0.06596093782436156,-0.14578303642815477]",100.0,"[-0.0030520106401449375,-0.17197034132769337]",4.0,"[0.11454065197366779,-0.15212870097597037]",4.0,"[-0.13685209528174422,-0.13545769017274825]",4.0,"[0.07760233143297364,-0.010379480771981095]",4.0,"[-0.19099457922107574,0.02645287427354885]",4.0,"[-0.16782724843889743,-0.10651790862887134]",4.0,"[0.02,0.02]",122.083,0.0,3.0,3.0,182.0,1.0,,,,,,,
,,,,,,,5ce42dbec3f4270001574a15,683aefb86849d91dac18a4a4,2025-05-31_14h02.47.638,shape_ratio,2024.1.5,Win32,165.0165017,683ae9196541af24d3a69e58,,,,,,,,,,,122.083,122.581,,,122.83,123.448,left,0.615,,,,,,,,,0.5,,,,,,122.581,122.83,123.448,"[0.05374993452899258,0.08703909544412818]",100.0,"[-0.0736103966548872,0.15993037190563206]",100.0,"[0.04570604086842619,-0.03838314017535953]",100.0,"[-0.17587391839487015,0.052838790172579635]",4.0,"[0.019816426064212463,-0.1227722782535069]",100.0,"[-0.06141813111558357,-0.028193384996425836]",100.0,"[-0.18036640225877384,0.00021026345819228216]",4.0,"[-0.1088731147132049,0.03735057334995047]",4.0,"[-0.022108617034318715,0.19653135551137102]",4.0,"[-0.04887897669188522,-0.07402352218409984]",4.0,"[-0.16606437697348844,-0.07888609212005954]",100.0,"[0.13217223613662546,0.06830019719079035]",100.0,"[0.05963309952249006,0.16151303545226728]",4.0,"[0.007398084172888124,0.12919652975194232]",4.0,"[0.0025505480972482218,-0.038746900837003655]",100.0,"[0.08550543883013449,-0.16169582794737614]",4.0,"[-0.11929435798979651,-0.03805715861381763]",4.0,"[-0.01641513075810655,0.05575031231436686]",100.0,"[0.14494963271740946,-0.04407985548089475]",100.0,"[0.19507727813513598,0.041353845159016495]",100.0,"[0.08520064335546823,0.0427330978745778]",100.0,"[0.17857442751512015,-0.005700217306811301]",100.0,"[0.1377458939529185,0.01132225668582629]",4.0,"[-0.01959797921982314,-0.10357906296377271]",4.0,"[-0.06651891073515535,0.03846074126326796]",4.0,"[-0.08233723289104224,-0.113747058706682]",100.0,"[0.12333372342653172,0.11126748221255131]",4.0,"[-0.06371807374967582,-0.18350577248003175]",4.0,"[0.1249319473917671,-0.11261195138999155]",4.0,"[0.17047763278503789,-0.10241174605270661]",100.0,"[-0.10294936516739023,0.10547600365468109]",100.0,"[0.08109386451016053,-0.0666893193406615]",4.0,"[0.02,0.02]",124.547,0.0,4.0,4.0,102.0,1.0,,,,,,,
,,,,,,,5ce42dbec3f4270001574a15,683aefb86849d91dac18a4a4,2025-05-31_14h02.47.638,shape_ratio,2024.1.5,Win32,165.0165017,683ae9196541af24d3a69e58,,,,,,,,,,,124.548,125.044,,,125.294,125.724,left,0.425,,,,,,,,,0.9,,,,,,125.044,125.294,125.724,"[0.016744817249452797,0.16851758393684596]",100.0,"[0.006624500579928195,-0.14977167739398875]",100.0,"[-0.04312063682583899,0.12610445936326053]",100.0,"[0.06538310965464637,-0.09906501194031274]",100.0,"[-0.0022866973680849114,-0.011086890416474229]",100.0,"[0.057079707391910046,0.028042371335558744]",100.0,"[-0.07732089480605282,0.07789332332061442]",100.0,"[0.10600634915147024,-0.08814113579339368]",100.0,"[-0.037601283581661156,0.019548507155511916]",100.0,"[0.1300303956301964,0.007007150898596269]",100.0,"[-0.07263526904409985,-0.17826341666174586]",100.0,"[-0.17074189532270354,0.04479473702979928]",100.0,"[0.058624772527468595,0.16481903796749733]",100.0,"[0.05738232819067342,-0.025712681719375532]",100.0,"[-0.08589400398445479,0.01663475084805986]",100.0,"[0.007972752179456769,0.07901517312178187]",100.0,"[0.07894801404457823,-0.17359882021596557]",4.0,"[-0.10552814927425139,-0.11555326397923404]",100.0,"[0.14643166886662656,-0.11040343265611507]",4.0,"[0.042657601719362157,0.10545001270063703]",100.0,"[-0.09832218572203831,-0.0331674562311009]",100.0,"[-0.1302615053130266,0.1121483823263899]",100.0,"[0.00804562880170375,-0.057277673069361955]",100.0,"[0.1775625492395017,0.0548626749550109]",100.0,"[-0.17690503554301373,-0.07856848120655678]",4.0,"[0.10558535528912319,-0.04224807777568882]",100.0,"[0.00006578056283271537,-0.19794493494702167]",100.0,"[0.1568261075825359,-0.053982515538196225]",100.0,"[-0.06151841349846324,-0.1256998254006897]",100.0,"[-0.19200163104538684,0.006784776393864685]",100.0,"[-0.015829870933539842,-0.11571293502177402]",100.0,"[-0.08468399029842978,-0.07475649060575515]",100.0,"[0.02,0.02]",126.822,0.0,5.0,5.0,11.0,1.0,,,,,,,
,,,,,,,5ce42dbec3f4270001574a15,683aefb86849d91dac18a4a4,2025-05-31_14h02.47.638,shape_ratio,2024.1.5,Win32,165.0165017,683ae9196541af24d3a69e58,,,,,,,,,,,126.822,127.32,,,127.569,128.219,right,0.647,,,,,,,,,0.45,,,,,,127.32,127.569,128.219,"[0.05695184994064773,-0.029815303109795792]",100.0,"[0.10193864057120768,0.02497436333023284]",100.0,"[-0.12548172969820257,-0.11794127388274765]",4.0,"[-0.07584475047881775,-0.15863254473415256]",4.0,"[0.003524883009757978,0.038317364472220304]",4.0,"[-0.11484073934577345,0.10232311857102037]",100.0,"[0.08723403272336842,-0.10861820035407796]",100.0,"[0.0027262276871405228,-0.10054077164650263]",4.0,"[-0.08222728056596845,0.17131572866244002]",100.0,"[0.12943436317362592,-0.08153683062495114]",100.0,"[-0.03656775882015889,0.004729535090659977]",4.0,"[-0.1917269041546275,-0.011161187654291263]",100.0,"[-0.15326245357488924,-0.08509543609269184]",4.0,"[0.16468425814456242,0.02695274385579985]",4.0,"[0.046356494011739795,-0.15279737137337357]",4.0,"[-0.07068843842836095,-0.031719572959502784]",100.0,"[0.15202164327537002,0.08432034240589908]",4.0,"[-0.1732681377121298,0.06052949293224972]",100.0,"[0.07785265687648961,0.07204042364850803]",4.0,"[0.0775642465830534,0.13455719956624415]",4.0,"[0.16731212892346745,-0.013408985108950697]",4.0,"[-0.13553213791795063,0.1416604725778325]",4.0,"[-0.03577915244587084,-0.19070778889783666]",100.0,"[-0.004264645503392286,-0.04539321350478994]",4.0,"[0.03739976709968246,0.13966842889441394]",100.0,"[-0.0924513644805729,0.004491946674413902]",4.0,"[0.12125915409796162,0.12106447525117446]",4.0,"[-0.02021326132490391,0.11101071121834588]",4.0,"[-0.14514345895979608,-0.04253043092778835]",100.0,"[-0.0848739301058906,-0.07766660953042955]",100.0,"[0.12571598199035583,-0.029396526675750396]",100.0,"[-0.0712233217549649,-0.11691321554449972]",4.0,"[0.02,0.02]",129.316,0.0,6.0,6.0,124.0,1.0,,,,,,,
,,,,,,,5ce42dbec3f4270001574a15,683aefb86849d91dac18a4a4,2025-05-31_14h02.47.638,shape_ratio,2024.1.5,Win32,165.0165017,683ae9196541af24d3a69e58,,,,,,,,,,,129.317,129.814,,,130.062,130.487,left,0.418,,,,,,,,,0.4,,,,,,129.814,130.062,130.487,"[0.08980676276380652,-0.11280808116029405]",100.0,"[-0.035176749573050205,0.17897940929413084]",4.0,"[-0.027455911571658487,0.134737426537414]",4.0,"[-0.12403004685144764,0.08229780612876778]",4.0,"[0.1813454316749501,-0.014586240260774035]",100.0,"[-0.10152420756139466,-0.015045992880763012]",4.0,"[0.038401410876808095,0.08286843022816849]",4.0,"[-0.10415413030054295,-0.06585863576408284]",4.0,"[-0.02118155041058057,-0.07566727374432981]",4.0,"[0.12077648070928888,-0.14820381203856633]",4.0,"[-0.01565872730563162,0.03481676936866687]",4.0,"[0.011304342912410299,0.17769386855168737]",100.0,"[-0.19454621348467568,-0.02104933866245617]",4.0,"[-0.000988906606165544,-0.1755319181939604]",4.0,"[-0.07410514854226827,0.1331498686923312]",100.0,"[0.09608655077453307,-0.003926885601078741]",100.0,"[0.12118659124732552,0.0613519794201153]",100.0,"[0.13290225910470696,-0.0906034728489373]",4.0,"[0.06253867775992095,0.1386663027459293]",4.0,"[0.13782921497202905,-0.0200075161887964]",4.0,"[0.04277651979126472,-0.03569409958465258]",4.0,"[-0.08461251894336874,0.07210826390480747]",100.0,"[0.13551584413178858,0.12208811972444224]",4.0,"[0.08325359197787004,0.08642929346061222]",100.0,"[0.0036221954178388424,-0.014345376066337531]",100.0,"[-0.1513549758337633,0.02821503829419102]",4.0,"[-0.13409581334136575,-0.14414448389961013]",100.0,"[-0.0021392414652598277,0.09765209340635884]",100.0,"[0.03269868314567085,-0.09664444048502135]",100.0,"[-0.042979670244263905,-0.12353593327559007]",4.0,"[-0.1245085040250655,0.15300246639512632]",100.0,"[-0.16726521401065209,-0.08185553468570267]",4.0,"[0.02,0.02]",131.586,0.0,7.0,7.0,177.0,1.0,,,,,,,
,,,,,,,5ce42dbec3f4270001574a15,683aefb86849d91dac18a4a4,2025-05-31_14h02.47.638,shape_ratio,2024.1.5,Win32,165.0165017,683ae9196541af24d3a69e58,,,,,,,,,,,131.586,132.083,,,132.333,132.66,left,0.323,,,,,,,,,0.9,,,,,,132.083,132.332,132.66,"[0.07325357172765959,0.16101787987113206]",100.0,"[0.018127195082682998,-0.12054036575175159]",100.0,"[0.1790333871529326,0.018789781686723375]",100.0,"[-0.03419259104213641,0.1340342813969289]",100.0,"[-0.14613540152150925,0.1186614226269233]",100.0,"[-0.09742699158620038,0.16937534032220714]",100.0,"[0.13506709126977742,0.1273302826539965]",100.0,"[0.07923795253637068,-0.0016386370046934879]",100.0,"[-0.06496406357518236,0.06634634716347504]",100.0,"[-0.019688626056839693,-0.18335267556273835]",100.0,"[-0.12133246653321082,0.012821073265063699]",4.0,"[0.12211501872122123,-0.08236786102470768]",100.0,"[-0.12856134771823766,-0.11137213010638983]",4.0,"[0.049946167418549466,-0.15344444630090082]",100.0,"[0.10652403680290481,-0.1331705840020125]",100.0,"[-0.0357894133575437,0.1850383485618388]",100.0,"[0.19254940479667296,-0.03866859258387315]",100.0,"[-0.044022437626653144,-0.0398540119553975]",100.0,"[0.03553806914276995,0.08112316266581387]",100.0,"[0.08228626733280389,0.08300501649582619]",100.0,"[0.13935297175555142,-0.03302130433645442]",100.0,"[-0.02555558569191053,-0.09727954851372798]",100.0,"[-0.14517938028357127,-0.04346631163721569]",100.0,"[-0.07213025765502298,-0.11551525102437267]",100.0,"[0.017299991968105242,-0.05209682194961625]",100.0,"[-0.011492908243212845,0.04147725194866308]",100.0,"[-0.04533670321613213,0.01995482631325991]",100.0,"[0.14253278814410952,0.04746278180281316]",100.0,"[-0.1677938547300404,0.038867320844795876]",100.0,"[-0.015572384256828335,-0.009048364151710096]",4.0,"[-0.0835092764178223,-0.1636144755964849]",100.0,"[-0.09241374643443497,-0.048527379907639195]",100.0,"[0.02,0.02]",133.758,0.0,8.0,8.0,28.0,1.0,,,,,,,
,,,,,,,5ce42dbec3f4270001574a15,683aefb86849d91dac18a4a4,2025-05-31_14h02.47.638,shape_ratio,2024.1.5,Win32,165.0165017,683ae9196541af24d3a69e58,,,,,,,,,,,133.758,134.255,,,134.504,135.287,right,0.777,,,,,,,,,0.55,,,,,,134.256,134.504,135.287,"[0.008342746397408254,0.000032591254385385485]",4.0,"[0.09103823775481172,0.0662397831647053]",4.0,"[0.19045699558551957,-0.02451851227331858]",100.0,"[0.03717502311400678,-0.1639604273595973]",100.0,"[-0.055112235257035534,0.032009295394895575]",100.0,"[-0.15856789928044795,0.05074162326807411]",100.0,"[0.04852191191531398,0.15007253791435995]",4.0,"[-0.01464089131455193,0.12108647768789728]",4.0,"[0.13663136058448827,0.0015518501843850283]",100.0,"[0.010044325840751548,-0.0705583008607647]",100.0,"[-0.16110346177316406,-0.07950097925426461]",4.0,"[-0.056068924303463274,-0.1855346148805047]",100.0,"[0.03197198820341581,-0.12354371895823858]",100.0,"[-0.0013969622561103114,0.15937213253974714]",4.0,"[0.10324323859414704,0.12015020669584872]",4.0,"[-0.01689278432646377,-0.1347086801164844]",100.0,"[-0.0886506341106943,0.15167678598992426]",100.0,"[-0.08634550279608397,-0.01711936764436016]",100.0,"[0.04861600935028886,-0.08225078508074804]",100.0,"[0.07906410867396285,-0.025624898245492335]",100.0,"[0.14296596865151356,-0.04205692918924275]",100.0,"[0.08861232694969905,-0.1710246810415112]",4.0,"[-0.0790813814072692,-0.09731403740591844]",100.0,"[-0.12331354116901819,0.12918700679407513]",4.0,"[-0.0927814640447726,-0.1686740453004131]",4.0,"[-0.12422043415338625,0.020798275232276762]",100.0,"[-0.11797540320557116,-0.12988236910278686]",4.0,"[0.14688309546662678,0.07442455476299471]",100.0,"[0.05330968453962333,0.026434969543498565]",4.0,"[-0.019528676931342404,0.053024045794437424]",4.0,"[0.12352415719786304,-0.12652090909519287]",4.0,"[-0.19181961076634782,-0.03634628873822506]",100.0,"[0.02,0.02]",136.385,0.0,9.0,9.0,71.0,1.0,,,,,,,
,,,,,,,5ce42dbec3f4270001574a15,683aefb86849d91dac18a4a4,2025-05-31_14h02.47.638,shape_ratio,2024.1.5,Win32,165.0165017,683ae9196541af24d3a69e58,,,,,,,,,,,136.385,136.883,,,137.132,137.811,left,0.676,,,,,,,,,0.55,,,,,,136.883,137.132,137.811,"[-0.16997287049029464,-0.04411966059228532]",100.0,"[-0.10411857247437364,-0.14450451059340938]",100.0,"[0.0908467979738958,0.1642306824189437]",4.0,"[0.03099003691679358,-0.11910408492688747]",100.0,"[-0.021220743746398218,0.02738802445460239]",4.0,"[0.04875388446809972,-0.1890524674673421]",4.0,"[0.017258308138831755,0.07189561786509419]",4.0,"[-0.12477665813534534,0.12686008918586106]",100.0,"[0.022407880998563074,-0.05327859800365139]",100.0,"[-0.06800731143820023,0.10456008563910502]",4.0,"[-0.10122604351449926,-0.053200499370719356]",100.0,"[-0.1907260418779689,0.058162761685881255]",4.0,"[0.0789096027698732,0.07446403020621452]",100.0,"[0.15835800452275609,-0.1211569310148653]",100.0,"[-0.03759854107004461,-0.17621440852326012]",4.0,"[-0.02578849815660878,-0.0650100667526642]",100.0,"[0.16399672108069405,-0.02753061232640463]",4.0,"[0.060211860782293423,0.11122082874192611]",100.0,"[0.02083687501884962,0.15092909570394797]",4.0,"[0.12557445545272067,0.0011199699557824913]",4.0,"[0.11871568680255451,-0.055898652279370555]",100.0,"[-0.03320180545532892,0.1686746638135581]",100.0,"[0.05887254302699146,0.022655098379915792]",100.0,"[0.0575558393233622,-0.031001352925270297]",100.0,"[0.11758157991106573,0.062004013728906134]",4.0,"[0.015374848839396575,-0.15838369126350912]",100.0,"[0.12082786634740798,-0.1542394547023573]",4.0,"[-0.009964052816205453,-0.024168711833156532]",100.0,"[-0.06590570441790702,0.021075294259392835]",4.0,"[0.1996293177709186,0.0012997619697332865]",100.0,"[-0.19832924412579853,-0.01282504492563408]",4.0,"[0.11777277922796169,0.10233158165258345]",100.0,"[0.02,0.02]",138.91,0.0,10.0,10.0,63.0,1.0,,,,,,,
,,,,,,,5ce42dbec3f4270001574a15,683aefb86849d91dac18a4a4,2025-05-31_14h02.47.638,shape_ratio,2024.1.5,Win32,165.0165017,683ae9196541af24d3a69e58,,,,,,,,,,,138.91,139.407,,,139.656,140.208,right,0.545,,,,,,,,,0.1,,,,,,139.407,139.656,140.208,"[-0.11447970012210643,0.14890112309823986]",4.0,"[-0.03798054983102086,-0.08018972956817508]",4.0,"[-0.02044824808488232,0.1479707285865478]",4.0,"[-0.18434376960687798,0.0743948144431886]",4.0,"[-0.09157165141264982,0.05910395003583201]",4.0,"[0.1861498469104242,0.002885735765594131]",4.0,"[0.07361380185768261,-0.03420145303952464]",4.0,"[-0.1923292447678824,0.0009460413040387322]",4.0,"[-0.15105513187577532,0.029245587227433346]",4.0,"[0.14754676669411945,0.11147117832765878]",4.0,"[-0.1018573056619059,-0.06457077900871751]",4.0,"[0.029710291580924707,0.04746835359540396]",4.0,"[0.008437085952979954,-0.1536428877621452]",4.0,"[0.1685597776904361,-0.061286934551743395]",4.0,"[-0.029026954336772336,-0.19022276909389202]",4.0,"[0.04698623256479478,-0.10483671805524261]",4.0,"[0.12870536909732713,-0.022079377201719125]",4.0,"[-0.08637942962469948,-0.164704228885665]",100.0,"[-0.14913062999182233,0.10236593817698131]",4.0,"[-0.14780866210644816,-0.036444706920138945]",4.0,"[0.0950251877412978,-0.14841108472892822]",4.0,"[-0.027101166965417974,0.195320591355125]",4.0,"[-0.06829994533886966,-0.019639662185523977]",100.0,"[0.02958717110965685,-0.012907779656794094]",4.0,"[0.07514781130636813,0.12769934658329168]",4.0,"[0.152191778509038,0.026990100352700764]",100.0,"[0.10994064578816494,0.15185399390846885]",4.0,"[-0.08064704959050956,-0.11539387431025211]",4.0,"[-0.04326939024094794,0.10145481145039698]",4.0,"[0.1049823758079678,0.05347226940260031]",4.0,"[-0.039178378418614705,-0.12526696916137328]",4.0,"[-0.040674599024162615,0.010347578516187981]",4.0,"[0.02,0.02]",141.306,0.0,11.0,11.0,194.0,1.0,,,,,,,
,,,,,,,5ce42dbec3f4270001574a15,683aefb86849d91dac18a4a4,2025-05-31_14h02.47.638,shape_ratio,2024.1.5,Win32,165.0165017,683ae9196541af24d3a69e58,,,,,,,,,,,141.307,141.804,,,142.053,142.702,left,0.645,,,,,,,,,0.55,,,,,,141.804,142.053,142.702,"[0.09589685495579077,0.13648914824982675]",4.0,"[-0.07564546190641701,-0.131160598987024]",100.0,"[-0.008604112559874208,-0.09839463001372123]",4.0,"[0.09934598915529502,0.007523657526154817]",100.0,"[-0.048832622006907925,-0.06930596773616585]",4.0,"[0.1604903804471771,-0.06330498658522186]",100.0,"[-0.1259599700946365,0.12045696092760527]",100.0,"[-0.10075712826683493,-0.018594548899307336]",100.0,"[-0.10509685779161086,0.027004431280787163]",100.0,"[0.09151801875155427,-0.1684297868034463]",4.0,"[-0.02243136099962296,0.06614833375275453]",100.0,"[-0.1618319707802792,-0.05039093925874098]",4.0,"[-0.027499639674637318,0.019632567279041578]",100.0,"[-0.06759235770714125,0.11771596906346454]",4.0,"[-0.011540719707388328,-0.15812520666804727]",100.0,"[-0.1652227451263616,0.0023501617351263247]",4.0,"[0.12683830082849223,-0.0410243046130458]",4.0,"[-0.10632163506056527,0.0825940827211377]",4.0,"[0.19744605206252147,-0.003983434215195628]",100.0,"[-0.056176864338758514,-0.025759532348175542]",4.0,"[0.02831626402081951,0.15128807633893668]",4.0,"[-0.014485728462603228,0.1499556295632866]",100.0,"[0.06421285930698081,-0.066543781089185]",4.0,"[0.03219689639503344,0.05869525863678841]",100.0,"[0.14984014864358153,-0.12103149767272181]",100.0,"[-0.0982798048257742,-0.06265941624825]",100.0,"[0.12319879694713304,0.08206271122660351]",100.0,"[-0.18427666086434202,0.03815337699870832]",4.0,"[-0.1330904699145463,-0.11834356477584997]",4.0,"[0.07014687245435758,-0.11768551608711257]",100.0,"[0.004467765205139594,-0.03544394831933163]",100.0,"[-0.07794283721617662,-0.18319690385809967]",100.0,"[0.02,0.02]",143.8,0.0,12.0,12.0,61.0,1.0,,,,,,,
,,,,,,,5ce42dbec3f4270001574a15,683aefb86849d91dac18a4a4,2025-05-31_14h02.47.638,shape_ratio,2024.1.5,Win32,165.0165017,683ae9196541af24d3a69e58,,,,,,,,,,,143.8,144.298,,,144.547,145.263,left,0.71,,,,,,,,,0.45,,,,,,144.298,144.547,145.263,"[0.042614787182954604,0.014488656941534506]",4.0,"[0.019297947303402885,0.12751973706320627]",100.0,"[-0.06609964227126004,-0.09155369620951902]",4.0,"[-0.08727538056661914,0.12768211450054354]",100.0,"[-0.13837151682963458,0.11345225534504337]",100.0,"[0.015894214308206214,0.19246146895435537]",4.0,"[0.021599046085118968,-0.06877740687964784]",4.0,"[0.09445249291739172,0.13315342074109135]",100.0,"[0.09078650247844625,0.07299823378920345]",100.0,"[0.12601102920722299,-0.045021808846709074]",100.0,"[0.0283101843420902,-0.023018479558177492]",4.0,"[0.006580195718655523,0.051989717933595025]",100.0,"[0.1338493211861761,0.05936096760097148]",100.0,"[-0.02064176924883651,-0.1804467136986247]",4.0,"[-0.09218965950627403,0.04962940709676355]",4.0,"[-0.04398178644430235,0.15014174235666067]",4.0,"[-0.10234189106898037,-0.0218547807944615]",4.0,"[0.1725418407460789,-0.045600864139684366]",4.0,"[0.1036303051819997,-0.1576154151861406]",4.0,"[-0.15980727739330505,-0.023845855600930485]",100.0,"[-0.12519139643977426,-0.05474180385725698]",4.0,"[-0.18399375208235957,0.008080920998767565]",100.0,"[0.13576728252169176,0.1115954151021332]",100.0,"[-0.056048494993121346,0.08319210663610338]",4.0,"[-0.11898081163254018,-0.10405914646908968]",4.0,"[0.07070108483252543,0.17185092800666277]",100.0,"[-0.012515320275024555,-0.13799345691202425]",100.0,"[0.08432993826488915,-0.0476446832266682]",100.0,"[0.08969853614830044,0.0005549229947754702]",4.0,"[-0.048324813016283406,0.00484572781739431]",4.0,"[-0.1591014804262412,-0.08240871638536522]",4.0,"[-0.09648748408675328,-0.14703363175747025]",4.0,"[0.02,0.02]",146.361,0.0,13.0,13.0,128.0,1.0,,,,,,,
,,,,,,,5ce42dbec3f4270001574a15,683aefb86849d91dac18a4a4,2025-05-31_14h02.47.638,shape_ratio,2024.1.5,Win32,165.0165017,683ae9196541af24d3a69e58,,,,,,,,,,,146.361,146.859,,,147.107,147.72,right,0.608,,,,,,,,,0.55,,,,,,146.859,147.107,147.72,"[-0.13053581689786425,0.05451554833349506]",4.0,"[0.029661210851665423,0.005241991666462147]",4.0,"[-0.004407441081052144,0.13399434307679153]",4.0,"[0.1434512496257569,0.10260104883088993]",4.0,"[-0.0012827974849471972,-0.040730416794260954]",4.0,"[-0.13910691698476085,0.13919283785637254]",100.0,"[-0.05062650113048242,0.13136279102530776]",4.0,"[0.17273053764213522,0.0636457750910202]",100.0,"[-0.06399053869459298,0.057942714357036976]",100.0,"[-0.15545989041346894,-0.02909615333607286]",100.0,"[0.032442615966590156,0.08844364100418443]",100.0,"[0.16244074577636286,-0.03339397271779337]",100.0,"[0.014379800745807693,-0.15069879883164627]",100.0,"[-0.07986119826072557,0.0054692216348246085]",100.0,"[0.10777491506633086,-0.04316076673336457]",4.0,"[-0.08152233245512872,-0.09432383781506265]",100.0,"[-0.08986196463804734,-0.04364869325043779]",4.0,"[-0.1711283382155576,0.09314661777367234]",100.0,"[-0.0948248260780583,0.15075122405223756]",100.0,"[-0.04461088218824965,-0.11351503754594311]",4.0,"[-0.03066488834224535,-0.15347059426700263]",100.0,"[0.0783925475320835,0.17602074748248323]",4.0,"[-0.03893398131144519,0.18834346584688938]",100.0,"[0.1529077131023447,0.007156508195256471]",100.0,"[-0.10062234493982737,-0.15004222159637398]",4.0,"[-0.17405864330133933,0.03600717956723223]",100.0,"[0.07086968531500777,0.010032339142697551]",4.0,"[-0.12697420754995645,-0.06775672464848888]",100.0,"[0.06284922929284423,0.12152826032784153]",4.0,"[0.12046470487671189,-0.12928722010053423]",100.0,"[0.09483130922323472,0.07487201221341327]",4.0,"[-0.009054783166091155,0.09249899064122727]",100.0,"[0.02,0.02]",148.818,0.0,14.0,14.0,77.0,1.0,,,,,,,
,,,,,,,5ce42dbec3f4270001574a15,683aefb86849d91dac18a4a4,2025-05-31_14h02.47.638,shape_ratio,2024.1.5,Win32,165.0165017,683ae9196541af24d3a69e58,,,,,,,,,,,148.818,149.316,,,149.565,150.153,left,0.583,,,,,,,,,0.9,,,,,,149.316,149.565,150.153,"[0.07663899367558137,-0.04952200100163525]",100.0,"[0.07201824643779156,-0.11035404971526433]",100.0,"[0.01853542857235619,-0.09397409509784331]",100.0,"[-0.05897698004001846,-0.027559178776036898]",100.0,"[-0.1521678247511436,-0.12426406642760421]",100.0,"[0.16356208824248034,-0.09723749501920692]",100.0,"[0.1012775228205126,0.04950499457257665]",100.0,"[-0.1368898110168039,-0.017191481902835086]",100.0,"[0.09464945263257918,0.15790682199856634]",4.0,"[0.12220607608394021,0.09033790731014713]",100.0,"[-0.009021326691901478,-0.012153661083499112]",100.0,"[-0.06955754229448273,0.1269142404147758]",100.0,"[0.03923497702820088,-0.13882728002719413]",100.0,"[-0.06259050273566645,-0.15611452160170794]",100.0,"[-0.028618734854161967,0.17367223965335504]",100.0,"[0.11882477305254975,-0.149646133799277]",100.0,"[0.14138931491518264,0.04618341341797077]",100.0,"[0.06884104354784108,0.025534095109756176]",100.0,"[0.016626604498399016,0.1565069571561541]",100.0,"[-0.016612635188417605,-0.16024669794506163]",100.0,"[-0.13429615187590271,0.024543844331992973]",100.0,"[-0.05814920412189289,0.015605667960820132]",100.0,"[-0.1461241946444308,-0.0736847858170887]",100.0,"[0.1028258847764739,-0.012934023152341826]",100.0,"[0.1699036535903435,0.010454820318005017]",100.0,"[0.044303681240210814,0.0998397770375832]",100.0,"[-0.10820698525092569,-0.048882618955265564]",4.0,"[-0.08255917791087976,-0.1152046260554053]",100.0,"[0.0385072564858493,-0.18949453590716533]",100.0,"[-0.18286954476760714,0.06108296731147402]",100.0,"[-0.12818511315989195,0.11377125347492748]",4.0,"[0.11714060637699784,-0.07885219693520334]",100.0,"[0.02,0.02]",151.252,0.0,15.0,15.0,25.0,1.0,,,,,,,
,,,,,,,5ce42dbec3f4270001574a15,683aefb86849d91dac18a4a4,2025-05-31_14h02.47.638,shape_ratio,2024.1.5,Win32,165.0165017,683ae9196541af24d3a69e58,,,,,,,,,,,151.252,151.749,,,151.998,152.969,left,0.964,,,,,,,,,0.55,,,,,,151.749,151.998,152.969,"[-0.15424766874562224,0.033473857687613864]",4.0,"[0.03555216903906573,0.0405183644727957]",100.0,"[0.10770254599245721,-0.09136344549296682]",100.0,"[0.08979164625148803,0.1342285828857845]",4.0,"[-0.15732403979105075,0.10720084958043606]",4.0,"[0.03752690418922713,0.12109521273618895]",100.0,"[-0.12247473310239339,-0.03172979538780828]",100.0,"[-0.014303003169367078,0.13412088684133003]",4.0,"[0.1608634135540497,0.007672040549663312]",100.0,"[0.03777008267231662,-0.09827519440632743]",100.0,"[0.07581716989789355,0.010310821464188623]",100.0,"[0.06829115992748114,-0.16562216520021097]",100.0,"[0.12261134900592208,-0.0523709108549722]",100.0,"[-0.11917546137207724,-0.12882850663046724]",4.0,"[0.16317344802393471,-0.07411322346495566]",4.0,"[-0.03709837795312,-0.1945434426735596]",100.0,"[-0.11917812339786818,0.06130899335882733]",4.0,"[0.020915413895855623,-0.0029832850185323133]",100.0,"[-0.05190455128110242,-0.15432313864830738]",4.0,"[0.004336850381195335,-0.1290655375754525]",100.0,"[-0.06655054402743092,-0.07324150214528787]",100.0,"[-0.08063080218185358,0.04368486027440255]",4.0,"[0.16137959948130054,0.05170144964648941]",100.0,"[0.00303974140435786,-0.06342649620369806]",100.0,"[-0.04366934772153716,0.10500167550936754]",100.0,"[0.06508100697644957,0.07911345146002562]",100.0,"[0.12092293321395842,0.0878913126213569]",4.0,"[-0.18150410237439282,-0.050414499455992245]",4.0,"[0.002632427792987593,0.1905568032435858]",4.0,"[0.008710751013068695,0.07309120954039486]",100.0,"[0.03129031233624515,0.1616277745454176]",4.0,"[0.11852088170955968,-0.14720433991222862]",4.0,"[0.02,0.02]",154.067,0.0,16.0,16.0,74.0,1.0,,,,,,,
,,,,,,,5ce42dbec3f4270001574a15,683aefb86849d91dac18a4a4,2025-05-31_14h02.47.638,shape_ratio,2024.1.5,Win32,165.0165017,683ae9196541af24d3a69e58,,,,,,,,,,,154.067,154.565,,,154.814,155.53,right,0.71,,,,,,,,,0.6,,,,,,154.565,154.814,155.53,"[0.07355205055671575,0.05787144964732513]",4.0,"[-0.015597286187616749,0.04523749030162154]",4.0,"[-0.1740909612967366,-0.06951781650800685]",100.0,"[-0.04219275767140801,0.13570413774887904]",4.0,"[-0.10535066224379884,0.14407787185619314]",100.0,"[-0.05136458543079166,-0.16424125263859818]",100.0,"[0.1765570289003306,0.09369202639667473]",4.0,"[0.03435450338841889,-0.19651375073518465]",100.0,"[-0.08179486406285943,-0.019223857508436103]",4.0,"[0.07544486832799219,0.007092021097397784]",100.0,"[0.0029078949895932613,-0.060235116442395924]",100.0,"[-0.13234387667857125,-0.03843407235467679]",100.0,"[-0.17487047369781503,-0.016306779413182062]",4.0,"[0.0005893807186199546,-0.15354592012281887]",100.0,"[0.08603112534997276,0.10027755628110165]",4.0,"[0.10548461344322375,-0.15882123899291734]",100.0,"[0.05463758937084529,0.1815577021885587]",4.0,"[0.06026488086814969,-0.05194968602048924]",4.0,"[-0.043017527795481576,-0.11295406199222283]",100.0,"[0.12596432921025258,-0.06198202934828229]",100.0,"[0.1755679955483456,0.02717196319581968]",4.0,"[0.18912685370594162,-0.05433267265679945]",4.0,"[0.12785056987676868,-0.007509287612559353]",100.0,"[-0.16370367198456093,0.043969746823846856]",4.0,"[0.12852238160691692,0.15039385847835182]",100.0,"[0.004500360171382754,0.006985855772143882]",4.0,"[-0.10093696113970972,0.1041752532892436]",100.0,"[-0.08029054475112224,0.06576901584409958]",100.0,"[-0.04187936634310053,0.18949234389324768]",100.0,"[-0.14528777678180246,0.09352452366129514]",100.0,"[-0.05171207170471045,0.009131291287893112]",100.0,"[-0.09178887076356992,-0.1721778300000499]",100.0,"[0.02,0.02]",156.628,0.0,17.0,17.0,55.0,1.0,,,,,,,
,,,,,,,5ce42dbec3f4270001574a15,683aefb86849d91dac18a4a4,2025-05-31_14h02.47.638,shape_ratio,2024.1.5,Win32,165.0165017,683ae9196541af24d3a69e58,,,,,,,,,,,156.628,157.125,,,157.374,157.792,left,0.412,,,,,,,,,0.9,,,,,,157.125,157.374,157.792,"[-0.0006273143331296237,0.02442989745480454]",100.0,"[-0.07616754019661424,-0.18460434909815787]",100.0,"[-0.062049387719402466,0.1774305770185651]",100.0,"[-0.1220727530211994,0.07930851806996328]",100.0,"[-0.16083407596111746,0.008818052213750777]",100.0,"[0.06054911219688037,-0.16897978250780432]",100.0,"[0.09564986727359467,0.08070442690975996]",100.0,"[0.14145125194138047,-0.016216706702594744]",100.0,"[0.15031827970788952,-0.09083402859499722]",100.0,"[0.033087741869521355,-0.083801883127356]",100.0,"[-0.007612136114077877,0.09079556513579046]",100.0,"[0.1801806948834023,-0.005796402755197535]",4.0,"[0.12684896697877296,0.12158497388046378]",100.0,"[-0.09062570207456916,-0.013848766022340956]",100.0,"[0.11120562090117667,-0.1298061627720348]",100.0,"[0.048085043018403,0.10472933794465818]",100.0,"[0.007442241333158527,-0.17451836763847975]",100.0,"[-0.010408259814483145,0.16216442351059515]",100.0,"[-0.0839646267300571,0.060737361967070976]",100.0,"[0.042109881494525395,-0.013042070705148168]",100.0,"[-0.13256151043693207,-0.0675773020687918]",4.0,"[0.036176853841577525,-0.1371223088021748]",4.0,"[-0.08576867018952834,-0.12811063369761042]",100.0,"[0.09587230450642764,-0.062112240121339465]",100.0,"[0.03451909541835164,0.06638016584731837]",100.0,"[-0.16269255899424317,0.11150520382901365]",100.0,"[0.053021849401511764,0.028476973303196065]",100.0,"[-0.027672115837780818,-0.05381716570470649]",100.0,"[0.174073640276427,0.0799203975405815]",100.0,"[0.13151467146978935,0.05985227563474338]",100.0,"[-0.044697617304563245,0.028409773350076745]",100.0,"[0.09154503145822578,0.017279435432450113]",100.0,"[0.02,0.02]",158.891,0.0,18.0,18.0,14.0,1.0,,,,,,,
,,,,,,,5ce42dbec3f4270001574a15,683aefb86849d91dac18a4a4,2025-05-31_14h02.47.638,shape_ratio,2024.1.5,Win32,165.0165017,683ae9196541af24d3a69e58,,,,,,,,,,,158.891,159.388,,,159.637,160.062,left,0.422,,,,,,,,,0.9,,,,,,159.388,159.637,160.062,"[0.11098123308242275,0.11021423693179197]",100.0,"[0.14779463686441774,-0.029705537352657255]",100.0,"[-0.09012581949467141,0.014905358455584095]",100.0,"[0.16570781928993308,0.10623817968227937]",100.0,"[-0.15504212579230614,-0.07406570093164908]",100.0,"[-0.05939876528138718,-0.1064787820035169]",4.0,"[-0.03708200224513969,0.17300378498625613]",100.0,"[0.09929336080998973,-0.09409219821051505]",100.0,"[0.08773076778454718,-0.005158117947992945]",100.0,"[-0.07877885880666408,-0.15012984524779455]",100.0,"[0.11588496944674434,-0.15666661117710934]",100.0,"[-0.06372633233590541,0.047004647079819835]",100.0,"[-0.15544602429975915,0.052777081627551216]",100.0,"[-0.009322983223291835,-0.1961442606252853]",100.0,"[0.1344702999499313,0.06274813382323512]",100.0,"[0.038726874577500466,0.18954252781346556]",100.0,"[0.17181866140418836,0.03822473445874497]",4.0,"[0.0634115412906037,-0.15877821672703427]",100.0,"[-0.004755206172002891,-0.013937513702766488]",100.0,"[-0.01806185362155889,-0.1282124546001299]",100.0,"[0.032930596229695554,-0.12608820877640942]",100.0,"[-0.1284699997022072,-0.013928067139331621]",100.0,"[-0.1319031694163364,0.08624749431030442]",100.0,"[-0.032299802848352974,0.10043234885562012]",100.0,"[0.03955061682232715,-0.010119368333923578]",100.0,"[-0.10798739478168165,-0.09481065708624233]",4.0,"[-0.17473715598377515,0.010609525685873455]",100.0,"[0.03130325174538339,-0.05199890564482028]",100.0,"[-0.047704797350295494,-0.020747640998045425]",100.0,"[0.05044739612804142,0.1258859192209144]",100.0,"[-0.07807380240560527,0.09699651021958139]",100.0,"[0.1382192449346699,-0.10702440735428799]",100.0,"[0.02,0.02]",161.16,0.0,19.0,19.0,17.0,1.0,,,,,,,
,,,,,,,5ce42dbec3f4270001574a15,683aefb86849d91dac18a4a4,2025-05-31_14h02.47.638,shape_ratio,2024.1.5,Win32,165.0165017,683ae9196541af24d3a69e58,,,,,,,,,,,161.162,161.658,,,161.907,162.368,right,0.457,,,,,,,,,0.45,,,,,,161.658,161.907,162.368,"[-0.011703441847898937,0.06964966814126906]",100.0,"[0.052994321603775554,-0.11513597829415227]",4.0,"[0.12347080136427661,-0.0296142549157651]",100.0,"[-0.06911509060536393,0.01845389439473814]",100.0,"[-0.14037293852572078,-0.09208329328990211]",100.0,"[0.13827892799247143,-0.1050606711871111]",4.0,"[-0.00034012340778362144,-0.04165624747387739]",4.0,"[0.11974859990459766,0.10201470384830304]",4.0,"[-0.07272763065310732,0.07366581322731562]",100.0,"[0.006700582256036556,0.19899507795635196]",4.0,"[0.05946153908787817,0.1547426125719438]",4.0,"[-0.18207390361179954,0.05796397284338304]",4.0,"[-0.05332985318808346,0.11086488336667545]",4.0,"[-0.11249291102940985,0.11511192084353004]",4.0,"[-0.058938960036254734,-0.17662086341227204]",4.0,"[0.1437646089703584,0.030227775136687025]",100.0,"[0.005940502045828173,0.010623715637215458]",4.0,"[0.03549736100773269,0.08183833019715782]",4.0,"[-0.18784981789174984,-0.042790241661582865]",100.0,"[-0.05236694538778382,-0.05167246880422659]",4.0,"[0.16889326564347784,-0.06603831392388056]",100.0,"[-0.02491726787384365,-0.11283250752519267]",100.0,"[-0.1490584545599499,0.09268351657747567]",4.0,"[0.10703381456659081,-0.16412380052913686]",100.0,"[0.09842816823807389,0.1358623178474143]",100.0,"[-0.0060362526707624115,0.14616196641497073]",4.0,"[0.05616630705121118,-0.009035050778379745]",4.0,"[0.09426811572251999,-0.12345665689664305]",4.0,"[-0.09978769797486717,-0.15360840564258318]",100.0,"[0.03242460055926371,-0.15913162653002363]",4.0,"[0.09300290547168223,-0.07646110359866011]",100.0,"[0.16826778975117823,-0.021661751965506678]",100.0,"[0.02,0.02]",163.466,0.0,20.0,20.0,140.0,1.0,,,,,,,
,,,,,,,5ce42dbec3f4270001574a15,683aefb86849d91dac18a4a4,2025-05-31_14h02.47.638,shape_ratio,2024.1.5,Win32,165.0165017,683ae9196541af24d3a69e58,,,,,,,,,,,163.467,163.963,,,164.213,164.771,right,0.552,,,,,,,,,0.45,,,,,,163.963,164.213,164.771,"[0.06165438102107693,-0.010583865997944798]",4.0,"[-0.05331941542633604,0.10700058485367678]",4.0,"[0.0732040402564417,0.11089733386809353]",100.0,"[0.12782776847702004,0.12180692609894585]",4.0,"[-0.14361021799924942,-0.13681356565370592]",100.0,"[0.0056635899260176975,0.13138064635967242]",100.0,"[0.025485657804995634,0.09534444967744225]",4.0,"[0.03759896630582376,-0.14981335301898316]",4.0,"[-0.12116087681725567,0.04031127658615575]",100.0,"[-0.1654136098556567,0.008291420379660087]",4.0,"[-0.1790195804154354,-0.06217648943793283]",100.0,"[-0.14911595040421186,-0.033027536911406245]",100.0,"[-0.029572409785306647,-0.1457923764672314]",100.0,"[-0.028288928669008746,-0.022170320044205202]",4.0,"[-0.09780571731000892,-0.05087645924860665]",100.0,"[-0.06230996815145361,-0.11135543387758648]",100.0,"[-0.062032507362842826,0.009101693698044372]",100.0,"[-0.11889804272646588,0.08621437431922567]",100.0,"[-0.06932644026061985,0.06205193287327934]",4.0,"[0.17674545096292163,-0.07544349075423361]",4.0,"[-0.032352700963001885,-0.07299552350961415]",100.0,"[0.03238243169067398,0.032745035639617975]",4.0,"[0.0660143104756178,0.16498651906797393]",4.0,"[0.17810219908651193,0.04569383280961221]",4.0,"[-0.1120488979719604,0.12885921733157008]",4.0,"[0.011759244137136783,-0.07883362744059529]",4.0,"[0.15126631028953855,-0.031897757616712444]",4.0,"[0.10969349141623891,-0.038495447438933614]",4.0,"[-0.09729856429995232,-0.13562969827957388]",100.0,"[-0.0021790315044320756,-0.17560461618394665]",100.0,"[0.12709774168636961,-0.0756587629991029]",4.0,"[0.07333108893618819,-0.06363455732136572]",4.0,"[0.02,0.02]",165.869,0.0,21.0,21.0,146.0,1.0,,,,,,,
,,,,,,,5ce42dbec3f4270001574a15,683aefb86849d91dac18a4a4,2025-05-31_14h02.47.638,shape_ratio,2024.1.5,Win32,165.0165017,683ae9196541af24d3a69e58,,,,,,,,,,,165.869,166.366,,,166.616,167.192,left,0.573,,,,,,,,,0.9,,,,,,166.366,166.616,167.192,"[0.16979108709961419,0.1038886773050732]",100.0,"[-0.08006949566133417,0.13175194874275284]",100.0,"[0.004700315673012999,0.05268837245228752]",100.0,"[-0.05044510681312192,-0.10432278986382373]",100.0,"[0.02026433507665914,-0.01043711158053897]",100.0,"[-0.044701480018053456,0.02163565477604114]",4.0,"[0.07909640342890877,0.1786152980146057]",4.0,"[0.07998020062121428,0.026920646294125324]",100.0,"[-0.08802510205336012,0.1717397269752722]",100.0,"[-0.044151961934698114,-0.15860581201688426]",100.0,"[-0.1559062499697036,-0.10550823742645518]",100.0,"[-0.1043141012836153,0.001197196945147885]",100.0,"[0.1172710976829264,-0.15641804418662417]",100.0,"[-0.009627840705363381,-0.12196552258912906]",100.0,"[-0.03517471007386842,0.14135235664863993]",100.0,"[-0.10012146679682044,0.04452407487564126]",100.0,"[0.09719210252082455,-0.06636020783266243]",4.0,"[0.08436844536588449,0.07362838763348852]",100.0,"[0.04184684654165671,0.12597552018448532]",100.0,"[0.13130240293725512,-0.000951162254112579]",100.0,"[-0.036519839071196804,0.07688470232956102]",100.0,"[-0.04350045545981162,-0.024480266344548123]",100.0,"[0.17428628880714236,-0.015990246676720884]",100.0,"[0.0354051635755546,-0.12747488117348224]",100.0,"[-0.12265279541539863,-0.05476602265218005]",100.0,"[0.12000601648610819,-0.09948294791333678]",100.0,"[0.13778054120375843,0.07645015590217596]",100.0,"[0.05076698378440003,-0.067726726523768]",100.0,"[0.001335448036083167,-0.16115097324070027]",100.0,"[0.06692456459592035,-0.1637855751930778]",100.0,"[-0.154597388320472,0.04674704981263244]",100.0,"[-0.16003885785947747,0.08851661732845337]",100.0,"[0.02,0.02]",168.29,0.0,22.0,22.0,4.0,1.0,,,,,,,
,,,,,,,5ce42dbec3f4270001574a15,683aefb86849d91dac18a4a4,2025-05-31_14h02.47.638,shape_ratio,2024.1.5,Win32,165.0165017,683ae9196541af24d3a69e58,,,,,,,,,,,168.291,168.788,,,169.036,169.691,right,0.649,,,,,,,,,0.45,,,,,,168.788,169.036,169.691,"[0.015222487133234586,-0.08882030404181485]",100.0,"[0.1486072459748985,0.0023828179965944504]",100.0,"[0.11023090445433603,0.07062627393320875]",100.0,"[-0.08302807641535957,0.0403813742890746]",100.0,"[-0.01062154534958567,-0.14521382404609268]",100.0,"[0.013344845136752685,0.15152973576429205]",4.0,"[-0.04012965260312215,0.06917223303198014]",4.0,"[-0.15010080567169018,0.016392506067404732]",4.0,"[0.14440526009139176,-0.0750503859560785]",4.0,"[-0.08362123203466794,-0.11872022303716735]",4.0,"[0.015346606547997807,0.05631433265869751]",100.0,"[-0.009397872981916626,0.02299347434898838]",100.0,"[0.051569864697881565,0.17246456845061267]",4.0,"[-0.10763550147936601,0.11555930477572965]",100.0,"[0.04949691732822119,0.02936469973270848]",4.0,"[0.07599681095380019,-0.09558839820152339]",4.0,"[-0.11955332420749726,-0.015062030022452452]",4.0,"[0.15474817305861732,0.09074497993899856]",4.0,"[-0.17446027491154553,-0.029448276695814443]",4.0,"[-0.07244320192252347,0.13716275162811173]",4.0,"[-0.18154525769344934,0.048733447161083396]",100.0,"[0.0023425450909019046,-0.031195764744974524]",4.0,"[-0.11583892102354126,-0.15195889119053665]",4.0,"[-0.01948149652938027,-0.06561224093722746]",4.0,"[0.06516713966138453,-0.04591847105957541]",100.0,"[0.09508460307485038,-0.13604676768682464]",4.0,"[0.10186858750795423,0.0286956173204179]",100.0,"[-0.15943006971628176,-0.07415688997240202]",4.0,"[0.04265546877470625,-0.18863813873986582]",100.0,"[-0.009011227638038957,0.11642645885257782]",100.0,"[-0.11847796251799259,0.06836983401555999]",4.0,"[-0.05147288054289083,0.1823790249763387]",100.0,"[0.02,0.02]",170.79,0.0,23.0,23.0,125.0,1.0,,,,,,,
,,,,,,,5ce42dbec3f4270001574a15,683aefb86849d91dac18a4a4,2025-05-31_14h02.47.638,shape_ratio,2024.1.5,Win32,165.0165017,683ae9196541af24d3a69e58,,,,,,,,,,,170.79,171.287,,,171.536,172.058,left,0.517,,,,,,,,,0.5,,,,,,171.287,171.536,172.058,"[-0.09805301283118777,0.12238052670141442]",4.0,"[0.029333750924324616,0.08033383535280401]",4.0,"[0.05385127528271393,-0.15293720527601004]",100.0,"[0.004898891689571895,0.027350346696503155]",100.0,"[-0.03469783259767998,-0.04517715784911124]",100.0,"[0.09599441131717915,-0.1173141595324183]",4.0,"[-0.1807717796275509,-0.08478393285726017]",100.0,"[0.12075612461933047,-0.04577808057567875]",100.0,"[0.03481354142660093,-0.11458828181914596]",4.0,"[0.04205023981743664,-0.07284514663071714]",100.0,"[-0.16531934546565344,0.06579167914402645]",100.0,"[-0.015604365653481868,-0.17261368812524983]",4.0,"[-0.1184797012666347,0.08337404010877188]",4.0,"[0.10108658612347189,0.03877700867684603]",100.0,"[0.1460411398761915,0.08137386927235149]",100.0,"[0.014419118769119398,0.1454887610604146]",100.0,"[0.15846558697603186,-0.10157295333623864]",4.0,"[-0.019597887078240925,0.06320778888311518]",100.0,"[-0.10208952418664094,-0.1484675818278958]",4.0,"[-0.1251171104983608,0.029075340885488837]",4.0,"[-0.07915130970506909,0.010554662609413786]",100.0,"[0.007783503735099833,-0.040846399070910144]",4.0,"[-0.15599718088560102,-0.03553874276635763]",100.0,"[-0.09512538090697924,-0.10002784643682303]",100.0,"[0.17206492994325864,-0.023573624450171367]",4.0,"[0.0802791316427553,0.16000620014826775]",4.0,"[0.09663594025232926,0.11686096167260096]",4.0,"[-0.08580590607523471,0.05330439145589203]",100.0,"[-0.14618207721828183,0.13528803501444708]",4.0,"[0.0653988214105165,0.0003586584452667669]",4.0,"[-0.17580214123172327,0.00961548789954784]",4.0,"[-0.04468522688374041,0.12845707698490993]",100.0,"[0.02,0.02]",173.156,0.0,24.0,24.0,90.0,1.0,,,,,,,
,,,,,,,5ce42dbec3f4270001574a15,683aefb86849d91dac18a4a4,2025-05-31_14h02.47.638,shape_ratio,2024.1.5,Win32,165.0165017,683ae9196541af24d3a69e58,,,,,,,,,,,173.156,173.654,,,173.903,174.522,left,0.614,,,,,,,,,0.6,,,,,,173.654,173.903,174.522,"[-0.08462358024971142,-0.1540613375978709]",4.0,"[0.0019000376062470316,-0.12530671056973672]",100.0,"[-0.03997748000203925,0.14403723297431292]",4.0,"[-0.04197261524954112,-0.10377793738566839]",4.0,"[-0.06847816573288888,-0.01994922469570685]",4.0,"[0.12704406859503412,0.12308851382970469]",100.0,"[-0.13122684968978762,-0.03382175306436057]",100.0,"[0.1046580576366899,-0.1473588921418357]",100.0,"[0.023730914813216097,0.09663876919831366]",100.0,"[0.029985343277683152,0.008617944452728512]",100.0,"[0.03635014989939459,0.1507411146002906]",4.0,"[0.02677324977405823,-0.05418212916027541]",4.0,"[-0.09862198527452322,0.018426780632130813]",4.0,"[-0.04780087148681482,0.03584555136117926]",100.0,"[-0.04714017979625489,0.18655070597903056]",100.0,"[-0.13207106252813575,0.04305301409432285]",100.0,"[-0.15983799588965286,-0.10194428397693864]",4.0,"[-0.044782392554259004,-0.1842800903973795]",4.0,"[0.03826838540540508,-0.19441153336435685]",4.0,"[0.16664001348719862,-0.05658382597863828]",100.0,"[0.15888135376423745,0.0811068506762212]",100.0,"[-0.0036585706918111026,0.03402723254271898]",100.0,"[-0.09416730595030949,-0.06490077262028952]",4.0,"[-0.10756674004591227,0.11753072255372946]",4.0,"[0.19823755808635493,0.025359306343654225]",100.0,"[-0.18934326954604142,-0.04041308247619188]",100.0,"[-0.12156043538567053,-0.12320315173524739]",100.0,"[-0.014901552407468996,-0.04819568000501535]",100.0,"[0.12017105321691275,-0.04069039424609045]",100.0,"[0.06897564154059281,-0.07766984149612152]",100.0,"[0.02265277808249269,0.19385596955977338]",100.0,"[-0.1879829923527089,0.035393902195729146]",4.0,"[0.02,0.02]",175.62,0.0,25.0,25.0,40.0,1.0,,,,,,,
,,,,,,,5ce42dbec3f4270001574a15,683aefb86849d91dac18a4a4,2025-05-31_14h02.47.638,shape_ratio,2024.1.5,Win32,165.0165017,683ae9196541af24d3a69e58,,,,,,,,,,,175.62,176.118,,,176.367,177.009,left,0.639,,,,,,,,,0.55,,,,,,176.118,176.367,177.009,"[0.15714277834925375,-0.09442751971045348]",4.0,"[-0.17581315695487554,0.01651011365029256]",100.0,"[-0.029380193307285966,0.047610876165087]",100.0,"[0.0008837726234759615,0.007436795151419131]",100.0,"[-0.0166160252215354,-0.13068026014632458]",4.0,"[-0.07198058179582179,0.1657291369065054]",4.0,"[0.031664828397995615,0.09391367677717771]",100.0,"[0.05434480318194973,0.18569535769531087]",100.0,"[0.15322739681404612,0.050619199873696376]",100.0,"[-0.09500047100121183,-0.14808060651128613]",4.0,"[-0.12480641970354298,-0.1005402878264184]",4.0,"[-0.0019956756785656127,-0.0851526885874361]",100.0,"[0.03990735076028542,-0.14149822142309695]",100.0,"[0.1361515186965644,0.005464219144977354]",100.0,"[-0.1296864911894441,0.07720331283580271]",100.0,"[0.11511654880622876,-0.10736274573004198]",100.0,"[0.11718338555091878,-0.051170162442539496]",4.0,"[0.05088089984093913,0.034071431712948894]",4.0,"[0.09119020370991793,0.14847013919080257]",4.0,"[-0.04915445777905173,-0.06502920669725418]",100.0,"[0.18629778259771762,0.00007814012423329702]",100.0,"[-0.07518674757727507,0.0054030494319018225]",100.0,"[0.06513964669206466,-0.069413506699111]",4.0,"[-0.17485564919696492,-0.03444221262835064]",100.0,"[0.1440426233311104,0.09538510759938107]",4.0,"[-0.11004266114513808,-0.019913833130845764]",100.0,"[-0.036719687932757275,0.18571033102696374]",100.0,"[-0.08248753820227024,0.04704715199474302]",4.0,"[-0.0026997495586686404,0.1510488555081306]",4.0,"[-0.0331032429782255,-0.18423507017242752]",4.0,"[-0.08824968818435575,0.08718659053781265]",100.0,"[0.09949944846557206,0.07772457839154112]",4.0,"[0.02,0.02]",178.107,0.0,26.0,26.0,64.0,1.0,,,,,,,
,,,,,,,5ce42dbec3f4270001574a15,683aefb86849d91dac18a4a4,2025-05-31_14h02.47.638,shape_ratio,2024.1.5,Win32,165.0165017,683ae9196541af24d3a69e58,,,,,,,,,,,178.108,178.605,,,178.854,180.019,right,1.161,,,,,,,,,0.6,,,,,,178.605,178.854,180.019,"[-0.1648443822361819,0.0258480232489485]",100.0,"[-0.1267483141542195,-0.05350347472669652]",100.0,"[-0.01305213413155567,0.17230776859620767]",4.0,"[-0.11478062830685704,0.057755817809325566]",4.0,"[-0.017141235775156267,0.009597298833238102]",4.0,"[-0.08328837798986562,-0.16710851343354388]",100.0,"[-0.06449526135546223,-0.04164965434333258]",100.0,"[-0.11522846338318453,0.14437645047687328]",100.0,"[-0.06476456854844174,-0.08309075183233554]",4.0,"[0.08696063687445887,0.1238666188051595]",100.0,"[0.18752705417673468,-0.05270699909873145]",100.0,"[0.018686197732701866,-0.016103377514041322]",4.0,"[-0.04306342081683429,-0.16913280395666871]",4.0,"[0.08575000369623384,-0.06444751054525226]",100.0,"[-0.009692940090936915,0.058619767258487755]",100.0,"[0.09801149101163972,0.009224927665934395]",4.0,"[-0.029760326191438747,-0.130806310384483]",4.0,"[0.03870426476942743,-0.08266383140567177]",4.0,"[0.08543396204299113,0.1763457172985344]",4.0,"[0.04838531841046984,0.05080070079726318]",100.0,"[0.15775277650260122,0.11316880310325735]",4.0,"[0.016192114860177555,-0.15815141953313536]",100.0,"[-0.17090143062813143,-0.07757774494519044]",100.0,"[-0.09038591360895995,-0.11513987718223402]",100.0,"[-0.015832027664208617,-0.07930242140233737]",100.0,"[-0.1656022502967314,0.07067923639895492]",100.0,"[0.14468909404409705,-0.129864381874481]",100.0,"[-0.09493892332811828,-0.0009783116459733602]",4.0,"[-0.08116320758424196,0.10411051841289647]",100.0,"[-0.1391723135104762,0.10139641957457199]",100.0,"[0.15134370505161418,-0.024461518544033035]",100.0,"[-0.1743470809036417,-0.0148668238002629]",4.0,"[0.02,0.02]",181.117,0.0,27.0,27.0,31.0,1.0,,,,,,,
,,,,,,,5ce42dbec3f4270001574a15,683aefb86849d91dac18a4a4,2025-05-31_14h02.47.638,shape_ratio,2024.1.5,Win32,165.0165017,683ae9196541af24d3a69e58,,,,,,,,,,,181.117,181.615,,,181.863,182.452,right,0.582,,,,,,,,,0.4,,,,,,181.615,181.863,182.452,"[0.05044618338930952,-0.11163470721358655]",4.0,"[-0.08000128940089751,0.15799396108260844]",4.0,"[-0.024466428208431052,-0.1250077754653422]",100.0,"[0.11672661167137284,-0.13275027859518018]",4.0,"[-0.026022982853415276,0.07213147079564657]",100.0,"[0.1203866688025807,0.05534653428434372]",100.0,"[0.0827028173228008,0.1498741223750675]",4.0,"[-0.008729870374832855,0.02504168301123176]",100.0,"[0.17698697523999815,0.07956699030082762]",100.0,"[0.025542293885345926,0.04585326494725619]",4.0,"[-0.12136205498023853,0.1038571660003152]",4.0,"[-0.020609939618052034,0.17259524891929076]",100.0,"[0.07744211322953122,0.09378544778966354]",100.0,"[-0.18506935981354514,0.016137929569069533]",4.0,"[0.06149121598611988,-0.040484816688030986]",4.0,"[-0.040235573507819485,-0.012648208011577242]",4.0,"[-0.10450400526192717,-0.016273653300936206]",4.0,"[0.12933344836722246,0.012671775905225993]",4.0,"[0.12200395662321267,-0.06313551048983991]",100.0,"[-0.1169493760952064,-0.07502326854225073]",4.0,"[-0.07691969319687827,-0.09695814304345314]",4.0,"[-0.09685309305319033,0.05197813716808217]",100.0,"[-0.06707924464818887,-0.14540328437758873]",4.0,"[-0.046058390337785485,-0.18521157138468636]",4.0,"[-0.11682998720337197,-0.12229657663143793]",100.0,"[-0.1646007533476823,0.08848205173688008]",100.0,"[0.1866924108633866,-0.06317399356251822]",4.0,"[0.0015512600096558235,-0.18201433529963038]",4.0,"[0.019721791338800622,0.14255550341813464]",4.0,"[0.15151361037662153,0.12117043348999187]",100.0,"[-0.19565896217221937,-0.03187879112340101]",100.0,"[-0.08114687207117363,0.09663518974970281]",4.0,"[0.02,0.02]",183.551,0.0,28.0,28.0,172.0,1.0,,,,,,,
,,,,,,,5ce42dbec3f4270001574a15,683aefb86849d91dac18a4a4,2025-05-31_14h02.47.638,shape_ratio,2024.1.5,Win32,165.0165017,683ae9196541af24d3a69e58,,,,,,,,,,,183.551,184.048,,,184.297,184.812,left,0.509,,,,,,,,,0.9,,,,,,184.048,184.297,184.812,"[0.17226738696094532,-0.10043895469434688]",100.0,"[0.029352019194774672,0.09187501431376092]",100.0,"[0.04499128332622212,0.15146831220482265]",100.0,"[-0.05403909113715347,0.0902064066185853]",100.0,"[-0.08737421650376567,0.006021150723355808]",100.0,"[0.0915971255485952,0.01970341408410082]",100.0,"[-0.11916486192380549,0.11525441596549117]",100.0,"[0.08480610284684831,0.14451801407767292]",4.0,"[-0.000886260600135535,-0.11559668113194059]",100.0,"[-0.17189058942085478,-0.0812635602308318]",100.0,"[0.1552324305476732,0.11748304278327394]",100.0,"[0.16930201873358333,0.011817325381640549]",100.0,"[-0.014635538080770798,0.16104595075570105]",100.0,"[-0.07269731609344832,-0.04651614290260689]",100.0,"[-0.13223665594609088,-0.12150788425849017]",100.0,"[-0.16800485862053893,0.06808906889893368]",100.0,"[-0.1293721515858552,0.014692088316352084]",4.0,"[-0.15603380632685038,-0.04244735733737307]",100.0,"[-0.06829576982508298,-0.1543566276396369]",100.0,"[-0.10810423256139076,0.1604060263711681]",100.0,"[0.18997581406129554,-0.06189262837079695]",100.0,"[0.10016734959340427,-0.08684945179715202]",100.0,"[0.07604718652953807,-0.16314316166040996]",100.0,"[0.12275289960182732,-0.03140971925546888]",100.0,"[0.06587199292997055,-0.034358424455697194]",4.0,"[0.015703495012495034,-0.07908156897889776]",100.0,"[-0.06371464706914669,0.174493576880722]",100.0,"[-0.1864434720192591,0.015450745497566464]",100.0,"[0.02604938784901189,0.031968650292278]",100.0,"[0.13637399822252166,0.060918267793232395]",100.0,"[-0.12538853470955,0.06938033003941885]",100.0,"[-0.11623505829711951,-0.037382998425664955]",100.0,"[0.02,0.02]",185.911,0.0,29.0,29.0,2.0,1.0,,,,,,,
,,,,,,,5ce42dbec3f4270001574a15,683aefb86849d91dac18a4a4,2025-05-31_14h02.47.638,shape_ratio,2024.1.5,Win32,165.0165017,683ae9196541af24d3a69e58,,,,,,,,,,,185.912,186.409,,,186.657,187.082,right,0.421,,,,,,,,,0.45,,,,,,186.409,186.657,187.082,"[0.16275185233308334,-0.11276337398603727]",4.0,"[0.12067376629318106,0.14330569806142862]",4.0,"[0.08052052464461527,-0.1747263371853492]",4.0,"[-0.024816975102198487,-0.06262192215700842]",4.0,"[0.169441745730425,0.015967091111534666]",100.0,"[0.0974295972841201,-0.09998230837288179]",100.0,"[-0.14429126557408511,-0.020429039428598587]",100.0,"[-0.056259718903743455,0.07847836397345599]",100.0,"[-0.08636327395456841,-0.012445348134288194]",4.0,"[0.08412392207650408,0.11068080156194357]",4.0,"[0.09491430888200202,-0.04084103164575463]",100.0,"[0.02216878344924962,-0.02476635499756476]",4.0,"[-0.16945523587549477,0.022915590453710128]",4.0,"[0.012266998130678169,0.06100001901349651]",100.0,"[-0.05854011773620725,0.1505987862049271]",100.0,"[-0.06706233834322935,-0.14143042009778953]",4.0,"[0.14474766025119165,0.06901222007735823]",4.0,"[-0.03181912813392096,-0.18605595537949352]",4.0,"[-0.15337833041407797,0.07188690111922559]",100.0,"[-0.10054680572082529,0.04318724411906542]",4.0,"[-0.024607102571537177,0.17934242033079842]",100.0,"[0.009557553006120706,0.13989710871651737]",100.0,"[-0.13885721737895598,-0.06472902340812683]",4.0,"[0.16307825093472678,-0.0345399962259687]",4.0,"[0.07093514486452948,0.05949490659577854]",100.0,"[0.06272582700099329,0.14833963082586557]",4.0,"[-0.04894274454233319,0.010525519762753337]",100.0,"[0.05190832348161941,-0.1356091273800355]",4.0,"[0.025685191872765852,0.18318517687857588]",4.0,"[-0.08193001761184011,-0.05940900917917466]",100.0,"[0.05816157442394163,-0.09215813550593632]",4.0,"[0.18868687217334662,0.052890969171024926]",100.0,"[0.02,0.02]",188.18,0.0,30.0,30.0,120.0,1.0,,,,,,,
,,,,,,,5ce42dbec3f4270001574a15,683aefb86849d91dac18a4a4,2025-05-31_14h02.47.638,shape_ratio,2024.1.5,Win32,165.0165017,683ae9196541af24d3a69e58,,,,,,,,,,,188.18,188.678,,,188.927,189.546,right,0.616,,,,,,,,,0.55,,,,,,188.678,188.927,189.546,"[-0.06779027599946306,-0.12427791547391062]",4.0,"[0.02404321729337041,0.08600881036131894]",100.0,"[0.0010972868910584133,0.01906680552102705]",4.0,"[0.06702920116808048,0.06539684965492432]",4.0,"[0.16467450656502342,-0.0744089024512735]",4.0,"[0.06329790538293482,0.1572694563078677]",4.0,"[0.018900215474891475,-0.10320971473242865]",100.0,"[-0.10274631102675241,0.005154744980542797]",4.0,"[0.019978413990559687,0.17628972820977304]",100.0,"[-0.12928658664397344,-0.13222681797855476]",100.0,"[-0.08575727322379517,0.15665115339804783]",4.0,"[0.09558607791930265,-0.007263382626271619]",4.0,"[-0.07422286760560107,0.1008921799173034]",100.0,"[-0.17101807870203467,0.0698813973235517]",100.0,"[0.02552459309854757,-0.02053233132381429]",4.0,"[-0.10956108000707068,-0.050131422423819454]",100.0,"[-0.06435927112018869,-0.0800075345745515]",100.0,"[-0.061053197473845744,-0.03303005556459593]",100.0,"[-0.04598432016974187,-0.1937987249384426]",100.0,"[-0.04496806074686555,0.025505690971571016]",100.0,"[-0.0960614504741816,0.06641859850221686]",4.0,"[0.1311747121823479,-0.14312077294668013]",4.0,"[0.18314769351397844,0.018538479463669377]",4.0,"[-0.14769919774006982,-0.025964914034369783]",100.0,"[-0.03614017744398963,0.15657998445154184]",100.0,"[0.15486085365033,0.09128001808345586]",100.0,"[0.07621707795730752,-0.05265801294166286]",100.0,"[-0.1395525393155585,-0.07978687114032462]",4.0,"[0.12732598969222553,-0.03263031815594743]",100.0,"[0.09866411129424932,0.12386504424421499]",100.0,"[-0.009148167480988277,-0.16023693075911405]",4.0,"[-0.09904666384138387,-0.17208224852123336]",100.0,"[0.02,0.02]",190.644,0.0,31.0,31.0,82.0,1.0,,,,,,,
,,,,,,,5ce42dbec3f4270001574a15,683aefb86849d91dac18a4a4,2025-05-31_14h02.47.638,shape_ratio,2024.1.5,Win32,165.0165017,683ae9196541af24d3a69e58,,,,,,,,,,,190.644,191.141,,,191.39,191.979,right,0.585,,,,,,,,,0.55,,,,,,191.141,191.39,191.979,"[-0.18129062032734036,0.07786842250293519]",100.0,"[-0.04868568443901927,0.012164764675938931]",4.0,"[-0.08288084517683908,0.10326170938308567]",4.0,"[0.0003333779524151009,0.19235212845738045]",100.0,"[0.12169136629499437,0.07481282091326609]",100.0,"[0.05632925802797492,0.10358790412706621]",4.0,"[-0.006476981205247361,0.12104147543239256]",4.0,"[0.09751669675851159,0.11222535526800313]",4.0,"[0.021056397261001624,-0.07400178616926201]",4.0,"[-0.10732372111883154,-0.004204757495508628]",100.0,"[0.012736639025945549,-0.1507811200176507]",100.0,"[0.09639249941286962,-0.07681680231587913]",100.0,"[0.01676774882428109,0.07744921559531416]",100.0,"[0.04208550903456742,0.029782657252321553]",100.0,"[0.17053831061714278,0.03872321978158987]",100.0,"[0.1498549379843171,-0.06430397065060121]",100.0,"[-0.13106259053905775,0.05191219475413965]",4.0,"[-0.04553572821489402,-0.03560793677708948]",4.0,"[0.14396655622772023,0.11495535358154466]",100.0,"[-0.041480688877535095,0.14515333866826502]",4.0,"[0.12081883139401928,-0.03476014518278412]",100.0,"[-0.01890761034078966,-0.1836078535867258]",100.0,"[-0.1047865345271804,-0.1314195615899096]",100.0,"[0.08818465093993524,-0.13275533375299928]",4.0,"[-0.19564247510058752,-0.027323597433130953]",4.0,"[0.10530155944250189,0.020134597886385955]",100.0,"[-0.09048144646295266,-0.1735547423722492]",4.0,"[0.0241799503466079,-0.008930587436935778]",4.0,"[-0.08392856541404606,-0.06800292211835174]",100.0,"[0.08041294386590365,0.05590557500904867]",100.0,"[-0.044231222243633295,-0.11943041389139712]",100.0,"[0.10563158826981456,0.1669146712782516]",4.0,"[0.02,0.02]",193.077,0.0,32.0,32.0,89.0,1.0,,,,,,,
,,,,,,,5ce42dbec3f4270001574a15,683aefb86849d91dac18a4a4,2025-05-31_14h02.47.638,shape_ratio,2024.1.5,Win32,165.0165017,683ae9196541af24d3a69e58,,,,,,,,,,,193.077,193.574,,,193.824,194.309,right,0.479,,,,,,,,,0.1,,,,,,193.574,193.824,194.309,"[0.07045983886276651,-0.1757091989365901]",4.0,"[-0.13951806553171964,-0.017346396543800227]",4.0,"[-0.09782390865601459,-0.15930522276694636]",4.0,"[0.06424654137451129,-0.03144549438511994]",4.0,"[0.0681242274657583,0.05566401616390415]",100.0,"[0.10822232529201593,0.01112496465803317]",4.0,"[0.1450729515162804,-0.10350377160492784]",4.0,"[0.1613156593205863,-0.03128789543863403]",4.0,"[-0.0823597538400678,0.002447709699533171]",4.0,"[0.09748236208499893,0.11941416239005613]",4.0,"[-0.18817733689333543,0.06013526500143152]",4.0,"[0.08010743485499393,-0.08485981018640605]",4.0,"[-0.14330162390676812,0.06563987924412806]",100.0,"[-0.022818266954321542,0.051882835719080714]",4.0,"[-0.18923629806987988,-0.049690871181989664]",4.0,"[0.007841856676532734,-0.04993105841845736]",4.0,"[0.15007568824099488,0.11485865949463592]",4.0,"[0.07654341544186283,0.15737649901035153]",4.0,"[-0.046974577271416344,-0.19311513436255678]",4.0,"[0.18433260171800198,0.06867285117378595]",4.0,"[-0.1431627803331526,-0.09953831936963238]",4.0,"[-0.05549248609509556,-0.14464837512713144]",4.0,"[-0.0479320266805465,0.1289712942998684]",4.0,"[0.1975568539654509,-0.007214740601872109]",100.0,"[-0.11968799113538714,0.10090847871568548]",4.0,"[0.055412867977524344,0.1216478457246566]",4.0,"[0.1543262368227041,0.01578525270145461]",4.0,"[-0.0794057499344352,-0.08745160049519293]",4.0,"[-0.026169015159589068,-0.11350031564926505]",4.0,"[-0.11742000232481394,0.02242295380022767]",4.0,"[-0.004828893197043086,0.18922123765847323]",4.0,"[-0.0820080311394023,-0.04733591477409188]",4.0,"[0.02,0.02]",195.407,0.0,33.0,33.0,196.0,1.0,,,,,,,
,,,,,,,5ce42dbec3f4270001574a15,683aefb86849d91dac18a4a4,2025-05-31_14h02.47.638,shape_ratio,2024.1.5,Win32,165.0165017,683ae9196541af24d3a69e58,,,,,,,,,,,195.408,195.905,,,196.154,196.548,left,0.39,,,,,,,,,0.9,,,,,,195.905,196.154,196.548,"[0.10715479497014584,-0.06517122453160153]",100.0,"[-0.1707181886665523,0.06832413388368726]",100.0,"[-0.06932670762699573,-0.01789776526779675]",100.0,"[0.17268986287395374,0.0039412305440584515]",100.0,"[-0.103356419859689,0.04151795055103192]",100.0,"[0.04590171822880573,-0.16529692259574066]",100.0,"[0.05601927779597816,0.08262513365522338]",100.0,"[0.05201368597307632,0.1298444104900663]",100.0,"[-0.056855233166376265,-0.15750168633872724]",100.0,"[0.06403781840461581,-0.04017559554329662]",4.0,"[-0.1329901901210355,-0.0408381923539834]",100.0,"[0.007316673334727643,0.14200773843249345]",4.0,"[0.07098135068125223,0.1700898366041686]",100.0,"[0.007147270417735583,0.19353374471372803]",100.0,"[0.11330145171038376,0.06604609906555585]",100.0,"[-0.1758623075157859,-0.08397112334244748]",100.0,"[-0.0989482737674037,0.11555160806517832]",100.0,"[0.09655839484549761,-0.11089854589066847]",100.0,"[-0.10499241796355156,-0.1286742180044696]",100.0,"[-0.06132338142578361,-0.10027790017614778]",100.0,"[0.039050267681649556,-0.08385295022452342]",100.0,"[-0.007903484796363111,-0.19037697070780701]",4.0,"[-0.021595646026256323,-0.00868872937653071]",100.0,"[0.18128025782345744,0.07441764300816067]",100.0,"[-0.18566220811494877,-0.044745672655340456]",100.0,"[-0.18594312797847776,0.017439993382367576]",100.0,"[-0.02896453942666325,-0.07649137352650966]",100.0,"[-0.050896929002107155,0.04973504202026865]",100.0,"[0.0387333431031067,0.040636307310152345]",100.0,"[-0.10077430350270619,0.1621279784822157]",100.0,"[-0.036446311452877564,0.17074405639667833]",100.0,"[0.11587860057038843,0.01422943588382227]",100.0,"[0.02,0.02]",197.646,0.0,34.0,34.0,19.0,1.0,,,,,,,
,,,,,,,5ce42dbec3f4270001574a15,683aefb86849d91dac18a4a4,2025-05-31_14h02.47.638,shape_ratio,2024.1.5,Win32,165.0165017,683ae9196541af24d3a69e58,,,,,,,,,,,197.646,198.144,,,198.392,198.824,right,0.426,,,,,,,,,0.1,,,,,,198.144,198.392,198.824,"[0.15409133451107565,0.012430462706883244]",4.0,"[0.03860737220455395,-0.024654709756689555]",4.0,"[-0.13597341357873483,0.12622567295684226]",4.0,"[0.1041845697738374,0.1682046468126799]",100.0,"[0.017598535261777546,-0.17780534165339992]",4.0,"[0.19568921483802842,-0.017071512367274982]",4.0,"[0.004653864894312241,-0.06693822022409951]",4.0,"[0.12473680606318363,0.0903721727724786]",4.0,"[-0.1107365130798455,-0.07425748280607508]",4.0,"[0.07886101005581135,-0.14104353201983444]",4.0,"[-0.05856589123351517,-0.021651728872052894]",4.0,"[0.07529889387767201,0.07453221897519802]",4.0,"[-0.002640780775811367,-0.02222426865993021]",4.0,"[-0.17918942694738502,0.07277433462905163]",4.0,"[0.012158436243385886,0.12078006628079817]",4.0,"[0.0027774587805515895,0.05271941231739121]",4.0,"[0.1620691042864273,-0.06616382133568872]",4.0,"[-0.19039033665985222,-0.045709738772158955]",4.0,"[0.057932339436733114,0.03644645837986482]",4.0,"[0.12047742941460927,0.03559481667734112]",100.0,"[0.08245433558669474,-0.01842070844531514]",4.0,"[-0.11625783523077463,0.0829622562829329]",4.0,"[0.006422694977413072,-0.13679004130285663]",4.0,"[-0.049965637711880874,0.15884873703909866]",4.0,"[-0.11749987687217975,0.019261386501983963]",4.0,"[-0.03170190629716229,-0.16583314745445846]",4.0,"[-0.15254389081646008,-0.08853234565851667]",100.0,"[0.08893587235178532,0.127952507818974]",4.0,"[-0.05431013182591184,0.020185290068547017]",4.0,"[0.161250491261103,0.05574651016036853]",4.0,"[0.1536959793062996,0.11948787034721349]",4.0,"[0.07591653211491498,-0.0589634665044688]",4.0,"[0.02,0.02]",199.921,0.0,35.0,35.0,206.0,1.0,,,,,,,
,,,,,,,5ce42dbec3f4270001574a15,683aefb86849d91dac18a4a4,2025-05-31_14h02.47.638,shape_ratio,2024.1.5,Win32,165.0165017,683ae9196541af24d3a69e58,,,,,,,,,,,199.922,200.419,,,200.668,201.159,right,0.485,,,,,,,,,0.1,,,,,,200.419,200.668,201.16,"[0.10135427565271884,0.15078429924383305]",4.0,"[0.08944673919770994,0.04196745838388734]",100.0,"[-0.04324393087499,-0.17546610967062734]",4.0,"[-0.04688312155834212,-0.1038698528591354]",4.0,"[-0.008414420058864676,0.07088622998568865]",4.0,"[0.10006618532119224,-0.022057675114692418]",4.0,"[-0.1109192906690936,0.1181609373966932]",4.0,"[0.16959717764900809,-0.05701993979002107]",100.0,"[0.020467651975599,-0.1300530772078183]",4.0,"[-0.01992006697034171,-0.0026169287605766318]",4.0,"[0.035450026978676503,0.11343523149998119]",4.0,"[-0.1049278938493483,-0.08649378760999432]",4.0,"[0.15900268751343383,-0.0027533887640457306]",4.0,"[0.004347951831349917,-0.19520020762208465]",4.0,"[0.04689522601106673,-0.011050889997190548]",4.0,"[-0.1426905914109522,-0.12924664632764865]",4.0,"[0.04533723049521731,0.04454478303646229]",4.0,"[-0.13704470347543898,0.08337848331222338]",4.0,"[-0.18809371118030413,0.029997163336487106]",4.0,"[-0.12366072206780276,0.024751191971586012]",4.0,"[-0.03650810032764695,0.13561663477790112]",4.0,"[-0.09702004995690876,-0.16846368156354236]",4.0,"[-0.06163131138380991,0.07244263729099572]",4.0,"[0.04929899258562543,-0.08198554713025673]",4.0,"[0.07769913388317493,-0.17120883530442166]",4.0,"[0.06889882034115694,-0.12851345983120732]",4.0,"[0.13171990279718004,-0.08406530734072766]",4.0,"[0.00261201365831139,0.03092552428427517]",4.0,"[-0.05581386176557908,-0.04759076540349971]",4.0,"[0.1478035187789591,0.06811674506352111]",4.0,"[0.06436793735593585,0.17788061077645562]",100.0,"[-0.13391022465869892,-0.04458570291626519]",4.0,"[0.02,0.02]",202.258,0.0,36.0,36.0,200.0,1.0,,,,,,,
,,,,,,,5ce42dbec3f4270001574a15,683aefb86849d91dac18a4a4,2025-05-31_14h02.47.638,shape_ratio,2024.1.5,Win32,165.0165017,683ae9196541af24d3a69e58,,,,,,,,,,,202.258,202.755,,,203.004,203.326,left,0.317,,,,,,,,,0.6,,,,,,202.755,203.004,203.326,"[-0.07176796540771374,-0.145341473519885]",100.0,"[0.10282258137900228,0.00631229943568665]",100.0,"[-0.033278837730897515,0.08036161875393455]",100.0,"[-0.031357609403043225,0.14243305492410377]",4.0,"[-0.11029131845033074,-0.04994816581138356]",100.0,"[0.023464275183305537,0.05879569082674153]",100.0,"[-0.0829731114752305,0.15588149696409925]",100.0,"[0.13070624981043222,-0.13840924795989337]",4.0,"[-0.10149985754800712,0.10907372284623396]",4.0,"[0.16896922553406687,-0.10331407961521687]",4.0,"[-0.134343580634529,0.01532259947906562]",4.0,"[-0.11894179330015849,-0.15923576412485682]",100.0,"[0.11052813708020671,0.13042963136462174]",100.0,"[-0.04184338960058066,-0.08793939881560832]",100.0,"[-0.12129741214532792,-0.1183200276055052]",100.0,"[0.14406907680001607,-0.07063473458733634]",4.0,"[-0.06129151127822674,0.039343923381937894]",4.0,"[-0.014005112206574537,-0.002557700677467945]",100.0,"[0.048329034403060835,0.12392029686100388]",4.0,"[-0.1391873220637433,0.09087556350642496]",4.0,"[-0.17805473130612318,0.007669102189024808]",4.0,"[0.14925106638573485,0.0987907438927586]",4.0,"[0.10132154912061707,0.05157391131638214]",100.0,"[-0.01565226316069675,-0.13205310498681322]",4.0,"[0.09547805331551165,-0.11246570606692605]",100.0,"[0.07436833565722753,-0.16655870285020496]",100.0,"[0.17827135756505108,0.0007663473732382668]",100.0,"[0.08396254963695085,0.17048649527767332]",100.0,"[-0.05242234156046916,-0.18499030927888702]",4.0,"[0.0061546991168899366,-0.044384131086591165]",100.0,"[-0.17070993606717796,-0.0883714396089124]",100.0,"[0.0007750789894214505,-0.09432097412103252]",100.0,"[0.02,0.02]",204.424,0.0,37.0,37.0,36.0,1.0,,,,,,,
,,,,,,,5ce42dbec3f4270001574a15,683aefb86849d91dac18a4a4,2025-05-31_14h02.47.638,shape_ratio,2024.1.5,Win32,165.0165017,683ae9196541af24d3a69e58,,,,,,,,,,,204.425,204.921,,,205.17,205.631,right,0.455,,,,,,,,,0.4,,,,,,204.921,205.17,205.631,"[0.015367666261233601,-0.035513918499286964]",4.0,"[0.12774135440841364,-0.13362524526809175]",4.0,"[-0.05819696708812917,0.0009570224880182535]",100.0,"[0.04057741127937371,0.1554723895449838]",4.0,"[0.06436549081031051,-0.033542649820849924]",4.0,"[-0.06763251908399984,-0.12192292823680585]",4.0,"[-0.0315575753032284,0.1429910495020623]",100.0,"[0.04195316774534335,0.0861580793434092]",100.0,"[-0.13845229755669197,-0.13930888623712717]",4.0,"[-0.028302041256139544,0.07373254213161184]",4.0,"[0.08909135007142661,0.1087523837487966]",4.0,"[-0.17190628819133524,0.008080330278611618]",4.0,"[0.026733305039310474,-0.11749756576268532]",4.0,"[-0.1090346642920193,0.019132966771750658]",4.0,"[0.119187798910589,0.038221257602816194]",100.0,"[-0.01917223367048649,-0.06171323143529445]",100.0,"[0.17188450175990913,0.0965696810521559]",4.0,"[-0.07901556081412732,-0.03694317433771257]",4.0,"[0.0819817821903574,-0.0703341274626638]",4.0,"[0.15995466802545777,0.019699518941614303]",100.0,"[-0.18192871886739925,-0.0428034349689337]",4.0,"[-0.09591687114495288,0.12730073890996027]",4.0,"[-0.028834093635785842,-0.11208918768029975]",100.0,"[0.18261150266203918,-0.05626357947274818]",100.0,"[0.016298953652204268,0.03378390992070242]",4.0,"[-0.026740163529818294,-0.179547732262649]",4.0,"[-0.08588614722346896,-0.1665428411951277]",100.0,"[0.004783693544416461,0.11874654538102504]",100.0,"[0.05368110363748724,-0.15164915247674327]",4.0,"[-0.15205930396916142,-0.08509665811224687]",100.0,"[-0.08829532854692368,0.16962691340262823]",100.0,"[0.12393586115351592,-0.03923155209011834]",100.0,"[0.02,0.02]",206.729,0.0,38.0,38.0,173.0,1.0,,,,,,,
,,,,,,,5ce42dbec3f4270001574a15,683aefb86849d91dac18a4a4,2025-05-31_14h02.47.638,shape_ratio,2024.1.5,Win32,165.0165017,683ae9196541af24d3a69e58,,,,,,,,,,,206.73,207.241,,,207.483,208.192,right,0.704,,,,,,,,,0.6,,,,,,207.241,207.483,208.192,"[0.136498676093439,-0.09105538758805688]",100.0,"[-0.13619520612302202,0.10227900896549859]",100.0,"[0.19493087342007748,0.034804235628114646]",100.0,"[0.0023968094417485763,0.03886043720877147]",100.0,"[-0.08147337371052395,0.18048502427576618]",4.0,"[0.016229497527085288,-0.03351530106812113]",100.0,"[-0.023765113551528837,-0.19796299534066844]",4.0,"[-0.07658656720763328,0.0761634053513596]",100.0,"[0.08951070063300022,0.09548612275785337]",4.0,"[-0.014510447680276919,0.18095153676685669]",100.0,"[0.0023886496082325824,-0.1045813920548638]",100.0,"[-0.14308944940111554,-0.07697768467318548]",100.0,"[-0.1533281858508424,-0.008108038601127979]",4.0,"[0.05017689879885896,0.04525955265033533]",4.0,"[0.1789339976704245,-0.019615355038572323]",100.0,"[0.10077239788035487,-0.12612270685193344]",4.0,"[-0.07935325921746228,0.1262632492324568]",100.0,"[0.1359424584905088,-0.040542098994978494]",100.0,"[0.12202086696303376,0.00698300947371454]",4.0,"[0.0723213580174255,-0.021227202743294146]",4.0,"[-0.05744097271190464,-0.06573898179468253]",4.0,"[0.022279333137119207,0.09606773707978009]",100.0,"[-0.07042644698943266,-0.15479543649501065]",100.0,"[0.05392766958463847,-0.07819154147901802]",100.0,"[0.18334160070573255,-0.06333369151738377]",100.0,"[0.008464050706618228,-0.1562680858364308]",4.0,"[0.044292164543665934,0.15616997276237715]",4.0,"[-0.1711622151622905,0.0774811127470881]",4.0,"[0.14128172929588484,0.07540641018899576]",100.0,"[-0.12179501049764453,0.03797037172105806]",100.0,"[0.06959641342545622,-0.15774758753902532]",4.0,"[-0.19440560529726802,-0.006383719284450506]",100.0,"[0.02,0.02]",209.291,0.0,39.0,39.0,35.0,1.0,,,,,,,
,,,,,,,5ce42dbec3f4270001574a15,683aefb86849d91dac18a4a4,2025-05-31_14h02.47.638,shape_ratio,2024.1.5,Win32,165.0165017,683ae9196541af24d3a69e58,,,,,,,,,,,209.291,209.788,,,210.037,210.528,right,0.486,,,,,,,,,0.45,,,,,,209.788,210.037,210.529,"[-0.12359792875296795,-0.07920396709412204]",100.0,"[-0.016124829562004568,-0.19387590792489978]",4.0,"[0.02198579992482723,-0.04266503879187012]",100.0,"[0.15698818288280406,-0.001331749083683648]",4.0,"[0.0485959789458134,-0.14845546750650912]",100.0,"[-0.13429564239450567,0.1352195248520579]",4.0,"[-0.005135739673263803,0.016730014116254452]",4.0,"[-0.08320968155811843,-0.126997116685788]",4.0,"[-0.0594878255941041,0.10870267286689456]",4.0,"[-0.0736284508815809,0.0445506596060862]",4.0,"[-0.01212837776543311,0.08601434819273099]",4.0,"[-0.17223233771998886,0.023621085627400937]",4.0,"[-0.06093299694833206,0.17746591014505042]",4.0,"[0.040742525005312606,0.050608538696575465]",4.0,"[0.06190346653264293,-0.18847988136001614]",100.0,"[-0.1118291805250206,0.018066300294388958]",100.0,"[0.14798998865416993,-0.11458137707809392]",4.0,"[0.08548414819040609,-0.11663890119195597]",4.0,"[0.08195086209143326,-0.020124733295211545]",100.0,"[-0.061539465075366326,-0.17112932063941294]",100.0,"[0.12208123999094554,-0.038215903242165165]",4.0,"[-0.08879555281704103,-0.03480488177536539]",4.0,"[0.13488592921864861,0.06888470478975615]",100.0,"[0.045866233652375396,0.1537962252919995]",4.0,"[0.10448049024866629,0.10296493581536248]",100.0,"[-0.1356897179626329,-0.1441046917754883]",100.0,"[-0.11711288402071603,0.06870636155352348]",100.0,"[-0.05114462470435308,-0.059513892589515595]",4.0,"[0.16632295722110482,-0.0449633316564559]",4.0,"[-0.010271561003622354,0.1463036575315699]",100.0,"[-0.162444142288062,0.09060485716972502]",100.0,"[0.03251705428561235,-0.09452996078696387]",100.0,"[0.02,0.02]",211.626,0.0,40.0,40.0,147.0,1.0,,,,,,,
,,,,,,,5ce42dbec3f4270001574a15,683aefb86849d91dac18a4a4,2025-05-31_14h02.47.638,shape_ratio,2024.1.5,Win32,165.0165017,683ae9196541af24d3a69e58,,,,,,,,,,,211.627,212.124,,,212.373,212.725,left,0.349,,,,,,,,,0.9,,,,,,212.124,212.373,212.725,"[-0.03235048462440424,0.05898936016554131]",100.0,"[0.07496247839891844,-0.13072965199083383]",100.0,"[-0.13581413474130974,0.1158903639138374]",100.0,"[-0.13423526401099822,-0.03169476985976713]",4.0,"[-0.07262906009706242,-0.033238268638366264]",4.0,"[0.04396975475259967,0.15623242250077105]",100.0,"[-0.051625468918469065,-0.0942040573737607]",100.0,"[0.03641230966448409,-0.04766883574059599]",100.0,"[0.14982906181420672,-0.03572932892216902]",100.0,"[0.1273555030270979,0.12466994441893214]",100.0,"[0.06552128546174874,0.00717912715872797]",100.0,"[-0.04877079208754145,0.16163360065091878]",100.0,"[-0.003852148776750032,-0.08141406616259575]",4.0,"[0.033440149254573996,-0.1786227716499972]",100.0,"[-0.10411711050496862,0.14083620947900588]",100.0,"[0.13104607152481001,0.06208811677312724]",100.0,"[0.01580872953954316,0.02966020643455137]",100.0,"[-0.12138123515604676,-0.08269515416443753]",100.0,"[-0.06341243639945321,0.09441055002444265]",100.0,"[-0.06915254105727829,0.04288045885111929]",100.0,"[-0.18460766973191525,-0.06948870512109803]",100.0,"[0.17051687966395734,0.05294780562790015]",100.0,"[0.10951350021834667,-0.093178039697756]",100.0,"[0.002569655580186126,0.18421781197041917]",100.0,"[0.03675035634455445,0.09871002668710599]",100.0,"[-0.06476066493034859,-0.1400282954166578]",100.0,"[-0.12400334879704772,0.021821591157303286]",100.0,"[-0.1750825851911604,0.01416826455902554]",100.0,"[-0.015279408780286724,0.09556900218265012]",100.0,"[0.19104695237053734,-0.03654204566780712]",100.0,"[0.1004251481964048,0.15713186428214973]",100.0,"[0.1728209983484843,-0.09542280815687926]",100.0,"[0.02,0.02]",213.823,0.0,41.0,41.0,9.0,1.0,,,,,,,
,,,,,,,5ce42dbec3f4270001574a15,683aefb86849d91dac18a4a4,2025-05-31_14h02.47.638,shape_ratio,2024.1.5,Win32,165.0165017,683ae9196541af24d3a69e58,,,,,,,,,,,213.823,214.32,,,214.57,214.933,right,0.36,,,,,,,,,0.5,,,,,,214.32,214.57,214.933,"[0.015554900508683921,-0.09843379941237582]",100.0,"[0.0451593032042126,0.052437324190225724]",4.0,"[-0.158370677362359,0.0557387425758993]",100.0,"[0.09206584620969328,0.1667355263308373]",100.0,"[-0.1284271829404502,-0.0308251526553852]",4.0,"[-0.04660735175481732,-0.1366395122421776]",4.0,"[-0.12763118406308233,-0.12940539250450583]",100.0,"[-0.10587285291150378,0.08559014654062777]",100.0,"[0.0963765138529697,0.08243275112828288]",4.0,"[0.026520120011184718,0.09229178583515135]",4.0,"[0.10276753556266856,-0.14003703207229115]",4.0,"[-0.18936924253488138,-0.05974596530112982]",4.0,"[0.01742479131320325,0.012771525736650233]",4.0,"[0.05829319110707823,-0.045601580869563126]",100.0,"[0.15531684062563084,-0.08384437180212954]",4.0,"[-0.08031792712431778,-0.008949242464823898]",100.0,"[0.16434462147881626,-0.01396974106545247]",100.0,"[0.07023582166431575,0.01621955234875948]",100.0,"[0.041604665804349315,0.1318794044389998]",4.0,"[0.12127240953528026,0.023734345944051355]",100.0,"[-0.15643737369948907,0.006503183102123695]",4.0,"[0.025124664929639145,-0.158501823668034]",100.0,"[-0.03241327141358709,0.09967297497376147]",4.0,"[-0.029694151199831913,-0.0022335822949890323]",100.0,"[-0.15867918017029745,-0.0987776455253156]",100.0,"[-0.10742249363810345,0.13421937186882976]",100.0,"[-0.0033014056933089926,-0.033239241883203714]",100.0,"[0.08933461256537838,-0.08423741555078385]",4.0,"[-0.07200074664411689,-0.09211958386038142]",4.0,"[-0.15883946565945892,0.11077001816405445]",4.0,"[0.16383698220598714,0.05007264419827828]",100.0,"[0.09506169535494526,-0.028523529785060592]",4.0,"[0.02,0.02]",216.032,0.0,42.0,42.0,92.0,1.0,,,,,,,
,,,,,,,5ce42dbec3f4270001574a15,683aefb86849d91dac18a4a4,2025-05-31_14h02.47.638,shape_ratio,2024.1.5,Win32,165.0165017,683ae9196541af24d3a69e58,,,,,,,,,,,216.032,216.529,,,216.778,217.367,right,0.585,,,,,,,,,0.6,,,,,,216.53,216.778,217.367,"[-0.14318393827455686,-0.12098274777446633]",4.0,"[0.10520049636257671,0.15908832767055184]",100.0,"[-0.145802172065448,0.004908968351005537]",100.0,"[0.08856080892487496,-0.002075720307359451]",100.0,"[0.1048005600552123,-0.0587796218818626]",100.0,"[0.11343762657834118,-0.15046441901686292]",100.0,"[-0.014068465466129849,-0.0002540281654691246]",100.0,"[0.06498851501631721,-0.16529941198097578]",100.0,"[-0.14815966304705397,-0.05873357135467441]",4.0,"[-0.05713762721109255,0.059296788873254624]",100.0,"[-0.1926369923323497,-0.005503260150402496]",100.0,"[0.0035898953073398563,0.07219837777055656]",100.0,"[0.14989276678014807,0.10006278968227773]",100.0,"[0.05761768139570277,-0.038839437679097255]",4.0,"[-0.06795844914211248,-0.15653658827823272]",4.0,"[0.07644671390323604,-0.09948350245313409]",4.0,"[-0.06953853367757644,-0.09843542624591073]",100.0,"[0.06519543137163777,0.0741003048472116]",4.0,"[0.15239306971873784,0.01008912191405441]",4.0,"[-0.03481498219766788,0.13736532385800174]",100.0,"[-0.06657069141429472,0.014419673649108395]",4.0,"[-0.010986761089184739,-0.0722785455015041]",100.0,"[0.03276889325814786,-0.192895679605737]",4.0,"[0.010943990144620245,-0.03650897305535365]",4.0,"[-0.1118120243908719,-0.15074557834088295]",100.0,"[-0.13955069379263285,0.10081468748594863]",4.0,"[-0.07517749602547943,0.10937603054798217]",4.0,"[-0.0011623813836927014,0.16964290993259667]",100.0,"[0.005800786811065371,-0.1090644400682978]",100.0,"[-0.08573551606611919,0.1668016265198645]",100.0,"[0.19349337516804835,-0.001390299394954265]",100.0,"[-0.0317460159130471,-0.13774293713310795]",4.0,"[0.02,0.02]",218.465,0.0,43.0,43.0,41.0,1.0,,,,,,,
,,,,,,,5ce42dbec3f4270001574a15,683aefb86849d91dac18a4a4,2025-05-31_14h02.47.638,shape_ratio,2024.1.5,Win32,165.0165017,683ae9196541af24d3a69e58,,,,,,,,,,,218.465,218.962,,,219.211,219.673,right,0.456,,,,,,,,,0.45,,,,,,218.962,219.211,219.673,"[-0.045304957140923696,-0.10336986192271742]",4.0,"[0.015624773973850916,-0.1799088436148864]",100.0,"[0.09337265711834603,0.04836366014558962]",4.0,"[0.1593820093461884,-0.1108906700050358]",100.0,"[0.19239804527112048,0.03694775053136086]",4.0,"[-0.19177992179560222,-0.022542560295131776]",100.0,"[-0.14046513736668964,-0.13450752736543128]",4.0,"[0.004201884175512053,-0.07285415293999878]",4.0,"[0.14930059661516576,0.04662465204540393]",100.0,"[-0.04051263232872593,0.13036927982050742]",4.0,"[-0.08077418881676948,0.01010836918377197]",4.0,"[0.1100426541906299,0.08820600823394169]",100.0,"[-0.16311583262189097,0.10804795014720137]",4.0,"[-0.10980583309324418,0.1255278879280291]",100.0,"[0.02730923409269096,0.0633231633982378]",4.0,"[0.1161925903077327,-0.0005923089701324012]",100.0,"[-0.10496941222570981,-0.023449644911153884]",4.0,"[-0.18858991577974787,0.01820499384182974]",4.0,"[-0.11813686469170526,0.08489314458912903]",4.0,"[-0.021896832737540027,0.07743146818248434]",4.0,"[0.06311855221334421,-0.04169319730629167]",4.0,"[-0.08946284884192975,-0.16302144319575113]",100.0,"[-0.16899776241669476,-0.09142981030165379]",100.0,"[-0.15267493200570323,0.042597812705748674]",100.0,"[0.052342232238363685,0.17906129220265077]",100.0,"[-0.0003161559743843576,0.16975577904533642]",4.0,"[0.06922289632764184,0.1106476162428465]",4.0,"[-0.10557040247621358,-0.10232220290066954]",100.0,"[0.09563268030248946,-0.08717553389718614]",100.0,"[-0.0734161764142337,0.056513845566176606]",4.0,"[0.19271403700550682,-0.02154648340064907]",100.0,"[-0.03852999616633509,-0.038488809849862825]",4.0,"[0.02,0.02]",220.771,0.0,44.0,44.0,137.0,1.0,,,,,,,
,,,,,,,5ce42dbec3f4270001574a15,683aefb86849d91dac18a4a4,2025-05-31_14h02.47.638,shape_ratio,2024.1.5,Win32,165.0165017,683ae9196541af24d3a69e58,,,,,,,,,,,220.771,221.269,,,221.517,222.16,left,0.638,,,,,,,,,0.1,,,,,,221.269,221.517,222.16,"[-0.008615178722028004,0.15668157112694664]",4.0,"[0.10354769865353174,-0.05447478503622618]",4.0,"[0.09909089836023588,0.11065661215318094]",4.0,"[-0.001952071617228632,-0.1812049009453577]",4.0,"[0.0749705182418577,-0.09535668260304865]",4.0,"[0.01977191749339705,0.1937899496794161]",4.0,"[-0.17094173877367314,0.052133263628724884]",4.0,"[-0.13095629904830278,-0.058048456271933946]",4.0,"[-0.035142954487011574,-0.026311019062257343]",4.0,"[-0.08748640936628924,0.1781571810946158]",4.0,"[-0.08625170993738766,0.12915226701536764]",4.0,"[0.1156000594455484,-0.12154740384030763]",4.0,"[-0.07876368064136269,-0.002180156132745846]",4.0,"[0.1477900689851446,0.024178428551711022]",4.0,"[0.09269083653794288,0.06937572406014196]",4.0,"[-0.12685958988004306,0.045916974357822944]",4.0,"[0.07017849176246331,-0.029432148836577094]",100.0,"[0.021153395013042017,0.014740457765808157]",4.0,"[-0.12656589503350865,0.13679911626553456]",4.0,"[-0.11435481042406632,-0.11370095065646892]",4.0,"[-0.18832603386455254,0.00870296059419007]",4.0,"[0.14934575593766178,0.07070417778611257]",100.0,"[0.1834548374155941,0.04335019179762145]",100.0,"[-0.06098276674244878,-0.08740755882378817]",4.0,"[-0.04989683495679448,-0.17401512571599698]",4.0,"[0.06124899974401237,0.185041863649584]",4.0,"[0.1816241306228653,-0.0697104167814766]",4.0,"[0.17861637330025648,-0.02816390752386261]",4.0,"[0.03763627557224258,-0.13716552228476023]",4.0,"[0.04872786122029696,0.09376388196711959]",4.0,"[-0.022826329589926662,-0.10351787353205909]",4.0,"[-0.18783674361070107,-0.05246275733626466]",4.0,"[0.02,0.02]",223.258,0.0,45.0,45.0,199.0,1.0,,,,,,,
,,,,,,,5ce42dbec3f4270001574a15,683aefb86849d91dac18a4a4,2025-05-31_14h02.47.638,shape_ratio,2024.1.5,Win32,165.0165017,683ae9196541af24d3a69e58,,,,,,,,,,,223.258,223.756,,,224.005,224.654,left,0.646,,,,,,,,,0.6,,,,,,223.756,224.005,224.654,"[-0.056304216286741676,-0.15622639135272973]",100.0,"[-0.09310832131649106,0.08256005726057235]",100.0,"[0.13335966648749634,-0.05426608398309053]",100.0,"[0.04499567417304542,-0.12323087997236463]",4.0,"[-0.18065992784428173,0.03471280874454262]",4.0,"[-0.07988521656306301,0.15380589209110387]",100.0,"[0.006859242280467891,-0.11070268940260888]",100.0,"[-0.023245202324663653,-0.18193687195618496]",4.0,"[0.15193744853901844,-0.1267504380287142]",100.0,"[-0.12793075236920512,0.12330772781674362]",4.0,"[-0.14990723348791518,-0.11838372801182098]",100.0,"[0.07764264678451137,0.020791654606020265]",100.0,"[-0.06367362274117311,-0.03302600755753004]",100.0,"[-0.08619986473827244,0.029160263628426848]",100.0,"[0.03349082335072465,-0.18191288411367504]",100.0,"[0.031647594639347,-0.025829501171233723]",100.0,"[0.18182931782038458,-0.023550451803372258]",100.0,"[0.11921828431157448,0.1392638758991416]",4.0,"[0.07700060850239716,0.09875408572381815]",4.0,"[0.10702847224302334,-0.13250655574317666]",4.0,"[-0.008498926302227145,0.19696218676447502]",4.0,"[0.05056649113791036,0.052032566562643136]",100.0,"[-0.11868925658371396,0.003795357095614989]",4.0,"[-0.19378404312754016,-0.02234428825510155]",100.0,"[0.1560525280830865,0.12137877440927626]",100.0,"[0.019192578414806826,0.08918680415196269]",100.0,"[-0.024559132821668873,0.153159037309927]",4.0,"[-0.11354013111943692,-0.037668120316169805]",100.0,"[-0.07058049220979615,-0.08278597445798748]",4.0,"[0.03769859979910062,0.1303696037724094]",100.0,"[0.1946796207561932,0.03083140281217056]",4.0,"[0.1437773594429935,0.07145838202372667]",4.0,"[0.02,0.02]",225.753,0.0,46.0,46.0,49.0,1.0,,,,,,,
,,,,,,,5ce42dbec3f4270001574a15,683aefb86849d91dac18a4a4,2025-05-31_14h02.47.638,shape_ratio,2024.1.5,Win32,165.0165017,683ae9196541af24d3a69e58,,,,,,,,,,,225.753,226.249,,,226.499,226.901,right,0.394,,,,,,,,,0.55,,,,,,226.249,226.499,226.901,"[0.09441699517180085,0.17546456323731943]",4.0,"[0.00461771135027548,-0.1257087043965128]",4.0,"[0.07291123472701881,0.04894876534619836]",4.0,"[-0.03009758235789509,0.1741402458434781]",100.0,"[-0.16327131253890187,-0.046889909980446856]",100.0,"[0.02987900203124587,-0.08734676824123395]",100.0,"[0.10522550051082882,-0.16938199718976799]",4.0,"[0.05136974977919402,-0.006059236434781493]",4.0,"[0.004455730063976353,0.14487072452248403]",100.0,"[-0.15428198473613547,0.08762361488243156]",4.0,"[-0.10801098869545446,-0.05471110362614682]",100.0,"[-0.15895890812089214,-0.09225017792602022]",4.0,"[-0.1268716895484432,-0.14662313665395818]",100.0,"[-0.01609026823920827,-0.06867398168066446]",100.0,"[0.07153416856159846,-0.08688527791410539]",100.0,"[-0.03644451419587204,-0.1945125403626422]",100.0,"[-0.11011521403654627,0.06741927575824702]",100.0,"[-0.029449490004643523,-0.0023872211959107014]",4.0,"[0.052053734245309825,0.1622451847738919]",4.0,"[-0.12800613966308075,0.1476078049460922]",4.0,"[-0.0014030752016850492,0.09308330106713326]",100.0,"[-0.08132686084858164,-0.13941912096710954]",4.0,"[-0.1252933810814402,-0.0034409092102188617]",100.0,"[0.13543173399853597,0.015612072823389332]",100.0,"[0.14788767584626794,0.09006551912738689]",100.0,"[0.07329446019354038,0.11700477586119863]",100.0,"[0.0065741838165992135,-0.17457789718348074]",100.0,"[-0.08836605133372949,0.10436650548547208]",4.0,"[0.10860086283189352,-0.0457821399123241]",4.0,"[0.1399067539116312,-0.07619554185515395]",100.0,"[0.1895760770663174,0.025236937971111987]",4.0,"[-0.06321327042108912,-0.10296507380154403]",100.0,"[0.02,0.02]",227.998,0.0,47.0,47.0,79.0,1.0,,,,,,,
,,,,,,,5ce42dbec3f4270001574a15,683aefb86849d91dac18a4a4,2025-05-31_14h02.47.638,shape_ratio,2024.1.5,Win32,165.0165017,683ae9196541af24d3a69e58,,,,,,,,,,,227.999,228.495,,,228.744,229.265,right,0.517,,,,,,,,,0.45,,,,,,228.495,228.744,229.265,"[0.12587658241691418,-0.01743909643968806]",100.0,"[0.0654331728917325,0.05018376858263852]",4.0,"[-0.12879419909433484,-0.07555721153231514]",4.0,"[-0.05620757045674651,0.03398548841776298]",4.0,"[0.039833784862544616,-0.09556903457777902]",4.0,"[-0.1039947950990636,0.024952606795520867]",4.0,"[0.14308499760860982,0.11381276162298908]",4.0,"[0.16816896106863713,-0.06731084564057345]",4.0,"[0.16318989449251778,0.04710652878629569]",4.0,"[-0.01641221585402393,-0.13042609941925817]",100.0,"[-0.16460548886651688,0.08095758625186142]",100.0,"[-0.07048231162187832,-0.1698294713523819]",100.0,"[0.0344532962696958,-0.0473067255325206]",4.0,"[-0.17017423712266844,0.02139263394566997]",100.0,"[-0.03328790567283951,0.11918946434487242]",100.0,"[0.07960100138024845,0.1042501759677193]",100.0,"[0.08175273029374558,-0.030835432086836454]",100.0,"[0.07142276190566782,0.14573720308955107]",100.0,"[0.05279789982840665,0.006773532327475475]",4.0,"[-0.09957517417868758,-0.13307218799221987]",4.0,"[-0.012889806165859717,0.011516440122373064]",4.0,"[0.03145609161921231,0.18271683888721238]",100.0,"[-0.01722953908277105,-0.06737686212861699]",100.0,"[-0.13972146673673314,0.11617939957750775]",4.0,"[0.016804460902251312,0.0629510480691031]",4.0,"[-0.07821125758630071,-0.08389666550515659]",4.0,"[0.08455113197682913,-0.10704949016550097]",4.0,"[0.10261623341611494,0.07028285391704371]",100.0,"[-0.14448430290233796,-0.03719174725380858]",100.0,"[-0.07603845175822253,-0.036759052985599845]",4.0,"[-0.0885345558720396,0.09663081045271718]",100.0,"[0.0046956418700763655,-0.1692274785283838]",4.0,"[0.02,0.02]",230.364,0.0,48.0,48.0,130.0,1.0,,,,,,,
,,,,,,,5ce42dbec3f4270001574a15,683aefb86849d91dac18a4a4,2025-05-31_14h02.47.638,shape_ratio,2024.1.5,Win32,165.0165017,683ae9196541af24d3a69e58,,,,,,,,,,,230.364,230.862,,,231.111,231.656,left,0.541,,,,,,,,,0.1,,,,,,230.862,231.11,231.656,"[-0.028368651409300845,0.12149481275984994]",4.0,"[-0.0005735055348170691,0.04334822584836057]",4.0,"[0.0632857041333444,-0.12121235116035625]",4.0,"[-0.102292294253557,-0.05644204655017413]",4.0,"[0.0028481568828120176,-0.16420134076647078]",4.0,"[0.10962104231969093,-0.0266483421174024]",4.0,"[0.17628612940715022,-0.017876639368578244]",4.0,"[-0.08207308651361783,0.08486211570368246]",4.0,"[-0.1342663093346266,-0.00430833231138733]",4.0,"[0.12663031455822066,-0.12673214742085365]",4.0,"[0.10349109639218226,0.11744070075914585]",4.0,"[-0.10318295157555198,0.14866008989917293]",4.0,"[0.07857969259992453,-0.18132266722615084]",4.0,"[-0.08826282005850443,-0.16319967971786759]",4.0,"[-0.0022007364913603925,-0.054226760600954334]",4.0,"[-0.1522783662059356,-0.1169959808463184]",4.0,"[-0.12421321197744133,0.062025744815243145]",100.0,"[0.1646980409777147,0.07822910405359838]",4.0,"[0.06082458150067386,0.17393099830442865]",4.0,"[-0.16357391306373642,0.0411520513475563]",4.0,"[0.04677024272547488,0.12426669100219742]",4.0,"[-0.15442054052336374,0.09322786473643593]",4.0,"[-0.05758325514698286,-0.05364994330129378]",4.0,"[0.10274574324671813,0.023239235772869175]",4.0,"[0.09007341336220863,-0.06678528276388161]",4.0,"[-0.1537080899340828,-0.05683847702183046]",4.0,"[0.16389502756569274,-0.10150429121134247]",4.0,"[-0.07199665221997627,0.011409600011755982]",4.0,"[0.15029568842904698,-0.05810444210790904]",100.0,"[0.04106525261024245,-0.011792143484999013]",100.0,"[-0.03170804510573848,-0.11447458071894223]",4.0,"[-0.05028339257414621,0.19205380328866758]",4.0,"[0.02,0.02]",232.755,0.0,49.0,49.0,209.0,1.0,,,,,,,
