right,left,explain.started,explain.stopped,key_resp_3.keys,key_resp_3.rt,key_resp_3.duration,participant,session,date,expName,psychopyVersion,OS,frameRate,study_id,explain_2.started,explain_2.stopped,key_resp_4.keys,key_resp_4.rt,key_resp_4.duration,explain_3.started,explain_3.stopped,key_resp_5.keys,key_resp_5.rt,key_resp_5.duration,fixation.started,fixation.stopped,practice.started,practice.stopped,response.started,response.stopped,key_resp.keys,feedback.started,feedback.stopped,trials_2.thisRepN,trials_2.thisTrialN,trials_2.thisN,trials_2.thisIndex,trials_2.ran,dot_ratio,key_resp.rt,key_resp.duration,explain_4.started,explain_4.stopped,key_resp_6.keys,key_resp_6.rt,key_resp_6.duration,dotDisplay.started,dotDisplay.stopped,ITI.started,polygon_1.pos,polygon_1.edges,polygon_2.pos,polygon_2.edges,polygon_3.pos,polygon_3.edges,polygon_4.pos,polygon_4.edges,polygon_5.pos,polygon_5.edges,polygon_6.pos,polygon_6.edges,polygon_7.pos,polygon_7.edges,polygon_8.pos,polygon_8.edges,polygon_9.pos,polygon_9.edges,polygon_10.pos,polygon_10.edges,polygon_11.pos,polygon_11.edges,polygon_12.pos,polygon_12.edges,polygon_13.pos,polygon_13.edges,polygon_14.pos,polygon_14.edges,polygon_15.pos,polygon_15.edges,polygon_16.pos,polygon_16.edges,polygon_17.pos,polygon_17.edges,polygon_18.pos,polygon_18.edges,polygon_19.pos,polygon_19.edges,polygon_20.pos,polygon_20.edges,polygon_21.pos,polygon_21.edges,polygon_22.pos,polygon_22.edges,polygon_23.pos,polygon_23.edges,polygon_24.pos,polygon_24.edges,polygon_25.pos,polygon_25.edges,polygon_26.pos,polygon_26.edges,polygon_27.pos,polygon_27.edges,polygon_28.pos,polygon_28.edges,polygon_29.pos,polygon_29.edges,polygon_30.pos,polygon_30.edges,polygon_31.pos,polygon_31.edges,polygon_32.pos,polygon_32.edges,dot_size,ITI.stopped,trials.thisRepN,trials.thisTrialN,trials.thisN,trials.thisIndex,trials.ran,break_2.started,break_2.stopped,trials_3.thisRepN,trials_3.thisTrialN,trials_3.thisN,trials_3.thisIndex,trials_3.ran
subject chose diamond,subject chose dot,0.0002,64.2589,space,49.2421,,5d36e5a972282e0019605fa0,684428b48a1770798672be07,2025-06-07_13h56.38.052,shape_ratio,2024.1.5,Win32,61.72839506,684250e4f00cb30b92d1fa88,,,,,,,,,,,,,,,,,,,,,,,,,,,,,,,,,,,,,,,,,,,,,,,,,,,,,,,,,,,,,,,,,,,,,,,,,,,,,,,,,,,,,,,,,,,,,,,,,,,,,,,,,,,,,,,,,
,,,,,,,5d36e5a972282e0019605fa0,684428b48a1770798672be07,2025-06-07_13h56.38.052,shape_ratio,2024.1.5,Win32,61.72839506,684250e4f00cb30b92d1fa88,64.2595,116.875,space,22.6014,,,,,,,,,,,,,,,,,,,,,,,,,,,,,,,,,,,,,,,,,,,,,,,,,,,,,,,,,,,,,,,,,,,,,,,,,,,,,,,,,,,,,,,,,,,,,,,,,,,,,,,,,,,,,
,,,,,,,5d36e5a972282e0019605fa0,684428b48a1770798672be07,2025-06-07_13h56.38.052,shape_ratio,2024.1.5,Win32,61.72839506,684250e4f00cb30b92d1fa88,,,,,,116.8752,120.1523,space,0.2594,,,,,,,,,,,,,,,,,,,,,,,,,,,,,,,,,,,,,,,,,,,,,,,,,,,,,,,,,,,,,,,,,,,,,,,,,,,,,,,,,,,,,,,,,,,,,,,,,,,,,,,,
,,,,,,,5d36e5a972282e0019605fa0,684428b48a1770798672be07,2025-06-07_13h56.38.052,shape_ratio,2024.1.5,Win32,61.72839506,684250e4f00cb30b92d1fa88,,,,,,,,,,,120.1863,120.6674,120.6679,120.9222,120.9224,122.4147,,122.4149,123.5133,0.0,0.0,0.0,0.0,1.0,0.2,,,,,,,,,,,,,,,,,,,,,,,,,,,,,,,,,,,,,,,,,,,,,,,,,,,,,,,,,,,,,,,,,,,,,,,,,,,,,,,,,,,,,,,,
,,,,,,,5d36e5a972282e0019605fa0,684428b48a1770798672be07,2025-06-07_13h56.38.052,shape_ratio,2024.1.5,Win32,61.72839506,684250e4f00cb30b92d1fa88,,,,,,,,,,,123.514,124.0124,124.0124,124.2624,124.2625,124.6442,left,124.6442,125.7424,0.0,1.0,1.0,1.0,1.0,0.8,0.3741,,,,,,,,,,,,,,,,,,,,,,,,,,,,,,,,,,,,,,,,,,,,,,,,,,,,,,,,,,,,,,,,,,,,,,,,,,,,,,,,,,,,,,,
,,,,,,,5d36e5a972282e0019605fa0,684428b48a1770798672be07,2025-06-07_13h56.38.052,shape_ratio,2024.1.5,Win32,61.72839506,684250e4f00cb30b92d1fa88,,,,,,,,,,,,,,,,,,,,,,,,,,,,125.7428,129.4036,space,0.6385,,,,,,,,,,,,,,,,,,,,,,,,,,,,,,,,,,,,,,,,,,,,,,,,,,,,,,,,,,,,,,,,,,,,,,,,,,,,,,,,,,
,,,,,,,5d36e5a972282e0019605fa0,684428b48a1770798672be07,2025-06-07_13h56.38.052,shape_ratio,2024.1.5,Win32,61.72839506,684250e4f00cb30b92d1fa88,,,,,,,,,,,129.4207,129.9192,,,130.1699,130.5187,right,,,,,,,,0.55,0.3316,,,,,,,129.9196,130.1698,130.5193,"[-0.17890667439458768,-0.034636501255978974]",100.0,"[0.052064747311061366,0.15488321321971957]",4.0,"[0.18661592765438487,0.07067539308968451]",4.0,"[-0.003450633319440346,0.015855672245796603]",100.0,"[0.0016462165808100325,0.17268340483077435]",100.0,"[-0.13053348962337313,-0.04503649528063306]",100.0,"[0.16250256898515184,0.11200980223697428]",100.0,"[-0.0826739925975889,0.12387679581554718]",100.0,"[-0.06504122875718733,-0.033043466211368284]",4.0,"[-0.07895536368087054,0.011076053571034998]",4.0,"[-0.1457960725473513,0.07586149519363541]",4.0,"[-0.025524093449817098,-0.02327300839971318]",100.0,"[-0.0024668888252276987,0.08164545712121027]",100.0,"[0.11386022369633116,0.04134279327812874]",100.0,"[0.07901263651595776,0.08922595265739482]",4.0,"[-0.03786126364725096,-0.1270989132422423]",100.0,"[0.11416933116631389,-0.14763693232704264]",4.0,"[0.03993919703297648,-0.1546885274688629]",100.0,"[-0.03934013004161732,0.15298911540228982]",100.0,"[-0.06974461238289584,-0.18633433351142736]",100.0,"[0.08096330795497197,-0.11523898833835058]",100.0,"[0.0426547348211534,-0.06536946753288718]",100.0,"[-0.16279433537107244,-0.07907668682228276]",100.0,"[-0.04690021952763564,-0.08000785567796781]",100.0,"[-0.1250996400312265,0.1428665062965312]",4.0,"[0.013981519442862297,-0.18758074762341845]",4.0,"[-0.13885143434558986,-0.12863229848569585]",4.0,"[-0.07911903303923352,0.05609411349639507]",4.0,"[0.17526910352803093,-0.04413060001243851]",4.0,"[-0.12351964553564589,0.00912209079645429]",4.0,"[0.15139568797765995,0.013737972012680255]",4.0,"[0.11588061486244548,-0.08902940023261756]",100.0,"[0.02,0.02]",131.6165,0.0,0.0,0.0,79.0,1.0,,,,,,,
,,,,,,,5d36e5a972282e0019605fa0,684428b48a1770798672be07,2025-06-07_13h56.38.052,shape_ratio,2024.1.5,Win32,61.72839506,684250e4f00cb30b92d1fa88,,,,,,,,,,,131.6169,132.1157,,,132.366,133.0146,right,,,,,,,,0.45,0.6332,,,,,,,132.1157,132.366,133.0147,"[0.1489951458866644,-0.02399764993259139]",4.0,"[-0.15138279583183092,-0.11419410041359798]",100.0,"[-0.11014589556655387,0.040253072052210626]",4.0,"[-0.16092461452150852,0.041687230751650386]",4.0,"[-0.08316820753549187,0.11770757697112771]",100.0,"[-0.19818295851645576,0.0030728636318556237]",4.0,"[0.03920829248010899,-0.14929395430595607]",4.0,"[-0.009456438947394638,-0.06599978223229222]",4.0,"[-0.16451106813941366,-0.07636419509556833]",4.0,"[-0.05434870709681585,-0.12155667761893546]",4.0,"[-0.14299787283115142,0.08244404885758252]",100.0,"[0.10783775491624614,-0.10677469180585678]",4.0,"[0.10780828950933252,-0.16566314749226055]",100.0,"[0.004044752885682264,0.09501895550970059]",100.0,"[-0.11314984058261203,0.1508000796109878]",100.0,"[-0.14783054986668837,-0.03287099195167925]",4.0,"[0.17932116974134824,-0.052103733245109585]",100.0,"[-0.002912124420811167,-0.020199082608266673]",4.0,"[-0.12116335378065163,-0.0019102776696645599]",100.0,"[0.15476233341443124,0.09461068016123461]",4.0,"[-0.0341287129159627,0.01863764210215989]",100.0,"[0.04630036866044153,-0.05088193315174547]",100.0,"[-0.05742670754898257,-0.032901532087453084]",4.0,"[-0.10827641432696924,-0.0691543229765238]",4.0,"[0.03159529704952115,0.038746751438696304]",100.0,"[0.05470937570054633,0.11674864222043176]",4.0,"[-0.02238422432992265,-0.19020160206188533]",4.0,"[0.09408207788892352,-0.01494232550874318]",100.0,"[-0.0762366926322847,-0.15676939962613012]",100.0,"[-0.04224497894736622,0.08390103774809873]",100.0,"[0.018821905340225147,-0.11282088376982391]",4.0,"[0.06568471667821107,-0.11660525738980604]",4.0,"[0.02,0.02]",134.1124,0.0,1.0,1.0,129.0,1.0,,,,,,,
,,,,,,,5d36e5a972282e0019605fa0,684428b48a1770798672be07,2025-06-07_13h56.38.052,shape_ratio,2024.1.5,Win32,61.72839506,684250e4f00cb30b92d1fa88,,,,,,,,,,,134.1127,134.6121,,,134.8618,135.2778,left,,,,,,,,0.5,0.4018,,,,,,,134.6122,134.8618,135.2779,"[0.175288928838455,0.018343473662080233]",100.0,"[0.09840141685179968,0.11835429568052612]",100.0,"[0.10895414907139038,-0.026598232677801252]",100.0,"[0.009375652960559875,-0.14244421245455613]",4.0,"[-0.001626660451028485,0.13491770766389968]",4.0,"[0.01781138021448674,-0.06996363002670304]",4.0,"[0.024004880401718703,0.09056137446132483]",4.0,"[-0.09090262124327547,0.017026030786112676]",100.0,"[0.0790663918189852,0.16022957700023918]",4.0,"[-0.07476978296388045,0.10434186260774952]",4.0,"[-0.030884038520257884,-0.19175016646226897]",4.0,"[-0.10135899827090117,-0.13845333651385427]",4.0,"[0.1081282047654734,-0.12932247778336947]",100.0,"[0.04966359456539977,-0.16729923927993848]",4.0,"[-0.16541101581624834,-0.04478879018000377]",4.0,"[-0.04755346933286876,0.0683909425418532]",100.0,"[-0.03571361440562106,-0.07897569819925465]",4.0,"[-0.10271117663427187,0.15491617839503524]",100.0,"[0.020039228587324823,0.19738510308392346]",100.0,"[0.07066803529781536,-0.04297040901256221]",100.0,"[0.10198366459157543,0.04292932443571382]",100.0,"[-0.17671366700996022,0.01707426884612339]",100.0,"[-0.034129049670755154,-0.01124358568963963]",100.0,"[0.18837625561532065,-0.04052293241894503]",4.0,"[-0.08852062732923394,-0.07705696416072466]",100.0,"[-0.17538453234635748,0.0743952175522666]",4.0,"[0.09054920418228764,-0.09236667578643487]",100.0,"[-0.10632556986165097,0.07637186783184158]",100.0,"[-0.15076411125564268,-0.11351081196249185]",4.0,"[0.16253156479765893,-0.0723701591914373]",4.0,"[0.1405343076100013,0.08936012840760377]",4.0,"[0.03475880640718316,0.02438300977195688]",100.0,"[0.02,0.02]",136.3754,0.0,2.0,2.0,90.0,1.0,,,,,,,
,,,,,,,5d36e5a972282e0019605fa0,684428b48a1770798672be07,2025-06-07_13h56.38.052,shape_ratio,2024.1.5,Win32,61.72839506,684250e4f00cb30b92d1fa88,,,,,,,,,,,136.3758,136.8747,,,137.1245,137.4239,left,,,,,,,,0.5,0.2894,,,,,,,136.8748,137.1245,137.424,"[0.09434173819964178,0.06903979136804152]",4.0,"[0.04744916800982825,-0.16777899109980587]",4.0,"[-0.1229593959203149,0.012620264080183196]",100.0,"[-0.18970942306268937,0.03383652598959822]",100.0,"[0.014325002076649617,0.17479874375797805]",4.0,"[-0.17026397724351777,-0.005186341927173655]",100.0,"[-0.12374837284023239,-0.15636741123328265]",4.0,"[0.10833173196769551,0.1565824187950702]",4.0,"[-0.024633381674947906,0.0455297564558177]",100.0,"[0.15831471944896158,0.04849325758468174]",100.0,"[-0.05738019582775519,0.07527998667749831]",4.0,"[0.07143791122861273,-0.09949016957110692]",4.0,"[0.08325491567419205,-0.02771550634119263]",4.0,"[-0.147662989511766,-0.08167394110662324]",4.0,"[-0.022133464251483777,-0.18105734794536135]",4.0,"[0.020988213467740987,-0.13050314415943579]",100.0,"[0.1313187843272211,-0.09924756769142251]",100.0,"[-0.07548749029584066,-0.1007685032939302]",4.0,"[-0.11318322857474307,-0.04795111471821646]",100.0,"[0.02346488901686386,0.06815620675434114]",4.0,"[0.08201066791734009,0.020111890509280667]",100.0,"[-0.07817014439357786,-0.15463628314028233]",100.0,"[-0.11855400576551108,0.15024273203022137]",100.0,"[-0.014289478903330948,-0.025662794165698968]",100.0,"[0.04797839683517744,0.13960535895046516]",4.0,"[-0.06557067886020969,0.13526887994008185]",4.0,"[-0.1460857604063355,0.08916709553375014]",100.0,"[0.13803821922735734,0.12305156131714509]",4.0,"[0.16332561550863875,-0.07288905238551455]",100.0,"[0.18895575331995199,-0.01633712157440421]",100.0,"[-0.035130815306965754,-0.07713377420062473]",4.0,"[0.02829667405800315,0.007387561354106034]",100.0,"[0.02,0.02]",138.5222,0.0,3.0,3.0,105.0,1.0,,,,,,,
,,,,,,,5d36e5a972282e0019605fa0,684428b48a1770798672be07,2025-06-07_13h56.38.052,shape_ratio,2024.1.5,Win32,61.72839506,684250e4f00cb30b92d1fa88,,,,,,,,,,,138.5226,139.0219,,,139.2719,139.6702,right,,,,,,,,0.4,0.3869,,,,,,,139.022,139.2718,139.6702,"[0.01654791732694016,0.11415471772076756]",4.0,"[0.07767014673325337,-0.002536743229877623]",4.0,"[-0.10491930989482195,-0.0565332138236401]",4.0,"[0.1602939278670374,-0.11070417839306959]",4.0,"[-0.09857636828710459,0.03483945537840515]",100.0,"[-0.1518202286521631,0.0571741228772324]",4.0,"[0.12332247659121243,0.014299408857539034]",100.0,"[0.17903466926110742,-0.017708229654745025]",4.0,"[0.1564195734179393,0.07821807725845628]",4.0,"[0.03684203072374788,0.1775890678436737]",4.0,"[0.18328852464367978,-0.05962501438684219]",4.0,"[-0.005459878410895262,-0.15024628905537735]",4.0,"[0.09694630466530138,-0.10573803102692923]",100.0,"[-0.07062934979756304,0.1060360500870779]",4.0,"[-0.034243227196851814,-0.059405838221178044]",4.0,"[-0.041623405863452416,0.144529714183287]",4.0,"[0.0248364379844732,0.001395626839916021]",100.0,"[-0.02962126444835241,0.04007909276617801]",100.0,"[0.12134939221828218,-0.04102018825691794]",100.0,"[0.06652767846110988,0.05533277561126829]",100.0,"[-0.05951389498100809,-0.16233035228405196]",4.0,"[0.0544211448687944,-0.16615030933369057]",100.0,"[0.03819692063830159,-0.07339858532075146]",4.0,"[0.09342013106248753,0.14640687042250386]",4.0,"[-0.1441229217826903,-0.03239985085415195]",100.0,"[-0.14685506403906728,0.12305076870623312]",4.0,"[0.11561918474068879,0.10309040331418311]",100.0,"[-0.1128549794493712,0.14625193000292694]",100.0,"[0.009149976909034024,-0.19214517329402434]",4.0,"[-0.07984013365760795,-0.09253997744819445]",4.0,"[-0.13595460508054708,-0.11069640135326368]",100.0,"[0.05043569030891973,-0.11742392919215947]",100.0,"[0.02,0.02]",140.7683,0.0,4.0,4.0,166.0,1.0,,,,,,,
,,,,,,,5d36e5a972282e0019605fa0,684428b48a1770798672be07,2025-06-07_13h56.38.052,shape_ratio,2024.1.5,Win32,61.72839506,684250e4f00cb30b92d1fa88,,,,,,,,,,,140.7686,141.2676,,,141.5172,142.067,left,,,,,,,,0.55,0.5405,,,,,,,141.2676,141.5172,142.067,"[0.08787995232450549,-0.16385019676858265]",4.0,"[-0.14943983029227842,-0.09990553698633231]",4.0,"[0.1583932664620538,-0.020806110701884293]",100.0,"[0.003060159393396771,-0.028335922137838872]",4.0,"[0.002744675504940955,0.07262802533071076]",100.0,"[0.1763309738526213,-0.0887477596825441]",100.0,"[-0.1380116462592994,0.013071177441183721]",100.0,"[-0.19390140602858036,0.00010239769713649952]",100.0,"[0.13067056538504684,-0.0658261668582347]",4.0,"[-0.14112307516013456,0.13332501223029006]",4.0,"[-0.07701347619385349,0.09915586114557372]",100.0,"[0.11807619085057056,0.015713168165525173]",4.0,"[-0.05140731970681845,0.13033502815717446]",4.0,"[-0.061584104269905245,0.017069727788947393]",4.0,"[-0.07508017687705243,-0.12526399213715841]",100.0,"[0.0547470909765986,-0.11130226517920928]",100.0,"[0.036070647669718583,-0.07300285451902834]",4.0,"[0.1624448932807714,0.027414521965434768]",100.0,"[-0.09374944145890965,0.17356778070252027]",100.0,"[0.14948306963056116,-0.12617639931313818]",100.0,"[-0.013618087007131489,-0.1535054261087373]",4.0,"[-0.12482493194569114,-0.06515000077568714]",100.0,"[0.17624986624672193,0.08465788456663091]",4.0,"[0.0979008894383199,0.16665712711854136]",100.0,"[-0.1846948291168236,0.06184357534221942]",100.0,"[0.02997570042112506,-0.1582680693383461]",100.0,"[-0.06732118729959362,-0.07001574660463708]",100.0,"[0.09348496068547575,0.06316082994777063]",100.0,"[0.13808744029971765,0.06358209548503817]",4.0,"[-0.013791011730879519,-0.1030172971879761]",100.0,"[0.047514312731743495,0.04047617683787211]",4.0,"[0.19743134402589482,-0.00858890702745075]",4.0,"[0.02,0.02]",143.1648,0.0,5.0,5.0,65.0,1.0,,,,,,,
,,,,,,,5d36e5a972282e0019605fa0,684428b48a1770798672be07,2025-06-07_13h56.38.052,shape_ratio,2024.1.5,Win32,61.72839506,684250e4f00cb30b92d1fa88,,,,,,,,,,,143.1653,143.6637,,,143.9144,144.3463,left,,,,,,,,0.1,0.425,,,,,,,143.6637,143.9143,144.3464,"[0.16159773246445253,0.08834613760688971]",4.0,"[-0.07423314189404201,-0.07651264249899094]",4.0,"[0.05442335630051969,-0.09273914411729002]",100.0,"[-0.07987384774918053,-0.15083137427445098]",4.0,"[-0.18188561059217928,-0.006416324561056821]",4.0,"[-0.023195689337094115,0.06353233623203437]",4.0,"[0.04707640134328827,-0.0005487283281383973]",4.0,"[0.1211478755183549,0.12067465081575719]",4.0,"[-0.14531059043782746,0.010855782898918384]",4.0,"[0.09581116070897001,0.034222215616282296]",4.0,"[-0.1330516491789066,-0.06734985655304047]",4.0,"[0.1037488658452025,-0.14094340621538148]",4.0,"[0.07490608029616141,-0.1769069930281271]",4.0,"[-0.1880890387630728,0.05978010863374666]",4.0,"[-0.06395573516195532,-0.0025670015785132175]",100.0,"[0.070590291663825,0.1812876487931264]",4.0,"[0.016794287921335305,0.13218633339071617]",4.0,"[-0.03022595034760562,0.11414634449982669]",4.0,"[-0.032769777688373934,0.16453371573592265]",4.0,"[-0.11693247946390037,0.09653661624186002]",4.0,"[0.03167567550272131,-0.19269577177256775]",4.0,"[0.008740239057343828,0.013225162648023545]",100.0,"[0.14271976144321266,0.039195850442453585]",4.0,"[-0.08180420337046408,0.0682604647406327]",4.0,"[-0.003146700216689064,-0.07697230280049504]",4.0,"[0.03057398326289894,0.08075379798747297]",4.0,"[-0.144128822263812,-0.13580703935633678]",4.0,"[0.12631889645825745,-0.03856552826749333]",4.0,"[0.08474383177788174,0.1021087990586583]",4.0,"[0.040122622535944175,-0.1378420153110377]",4.0,"[-0.016300645507695232,-0.13966958951456873]",4.0,"[0.193441748687428,0.042425433303595536]",4.0,"[0.02,0.02]",145.4442,0.0,6.0,6.0,205.0,1.0,,,,,,,
,,,,,,,5d36e5a972282e0019605fa0,684428b48a1770798672be07,2025-06-07_13h56.38.052,shape_ratio,2024.1.5,Win32,61.72839506,684250e4f00cb30b92d1fa88,,,,,,,,,,,145.4444,145.9434,,,146.1932,146.5758,left,,,,,,,,0.9,0.3682,,,,,,,145.9434,146.1931,146.5758,"[-0.0507136577442273,0.11683995813867545]",100.0,"[0.06586138011746953,0.07561458409666842]",100.0,"[-0.15820126866418854,-0.11667972187274164]",100.0,"[0.060625117284378964,0.11695859284868425]",100.0,"[0.013369745022833479,-0.17911479333121252]",100.0,"[-0.028671385864960836,-0.10136643507885218]",100.0,"[-0.18173264871232797,-0.0139199016656432]",100.0,"[-0.14378414421719843,0.05509919520097014]",4.0,"[-0.07912939790945542,-0.10336931056270836]",100.0,"[-0.09624232363153534,0.0018892143536194852]",100.0,"[-0.02855608978307292,-0.019965674039251688]",100.0,"[-0.15219634404008714,-0.07176862374780663]",100.0,"[0.07941684759863447,0.0009336256282430523]",100.0,"[-0.06828687225529276,-0.1635593609681057]",100.0,"[-0.11065415742916768,0.15137594138731764]",100.0,"[0.020548672123137338,0.13843296095002475]",100.0,"[0.17320522128484833,-0.067783335785595]",100.0,"[0.017819428478347894,0.007283556286256453]",100.0,"[0.09074073914401867,-0.1736005602594313]",100.0,"[0.09657879481166107,0.04315068464079674]",100.0,"[0.11564613449731868,-0.06366268546473963]",4.0,"[0.14059203503035853,-0.10875454513264488]",100.0,"[0.1720381734577133,0.1002612618339337]",100.0,"[0.04132609601450593,-0.14870317631648797]",100.0,"[-0.08735171741350364,0.09504759007269852]",100.0,"[0.022436164547247294,0.08888493501045819]",100.0,"[0.016299147297532113,-0.03742060156096064]",100.0,"[0.06464716515403467,-0.061920312911335644]",100.0,"[-0.03592162266855806,0.18833097358588524]",100.0,"[0.14236251874243086,-0.012406257857576236]",4.0,"[0.11881409396985372,0.1056750590719802]",100.0,"[-0.17663163252885172,0.08240451685859851]",100.0,"[0.02,0.02]",147.6746,0.0,7.0,7.0,26.0,1.0,,,,,,,
,,,,,,,5d36e5a972282e0019605fa0,684428b48a1770798672be07,2025-06-07_13h56.38.052,shape_ratio,2024.1.5,Win32,61.72839506,684250e4f00cb30b92d1fa88,,,,,,,,,,,147.6752,148.1731,,,148.4231,148.8555,left,,,,,,,,0.9,0.4179,,,,,,,148.1731,148.423,148.8556,"[0.09907554268919909,-0.15863367821208085]",100.0,"[-0.047017723079444275,0.17981369904249572]",4.0,"[0.031006447634982302,0.18064073046156215]",100.0,"[-0.10304395753021815,-0.12357373610543768]",100.0,"[-0.1198331829092345,-0.04659916911695408]",100.0,"[-0.1739538460987157,-0.038849436547583806]",100.0,"[0.03027440829946902,0.02428761419656615]",4.0,"[-0.153948459646607,0.08432776107713706]",100.0,"[-0.09469694584284853,0.07167428154175642]",100.0,"[0.1889212169581021,0.022712081097259553]",100.0,"[0.10287565885178117,-0.0028311737822002254]",100.0,"[0.02301426486402458,-0.03843602307948167]",4.0,"[0.15482388386054,-0.08321547860535827]",100.0,"[-0.06052949572844991,-0.1507744009160846]",100.0,"[0.11220581853970243,-0.1077744731345885]",100.0,"[-0.08492935636916478,0.12791054835363083]",100.0,"[-0.0066608840110574455,0.07613849792826625]",100.0,"[0.07049221932833076,0.10531882312928842]",100.0,"[-0.15556953424596737,0.010013078621066476]",100.0,"[-0.04897379090341555,-0.036905232881171014]",100.0,"[0.12436837669527974,0.12360023418441538]",100.0,"[0.09386125132076542,0.15850964365179107]",100.0,"[-0.1879462986581614,0.05694012192466138]",100.0,"[-0.0038138404511515573,0.0024553686611985762]",100.0,"[0.16050182196373475,-0.03896023548163792]",100.0,"[-0.04221198913021872,0.03746684960941119]",100.0,"[-0.03066044815096916,-0.07400112653906009]",100.0,"[0.1708767475271483,0.06345306183075691]",100.0,"[-0.024932962700622455,0.14017297082949784]",100.0,"[0.06096496485083376,-0.18652508912774135]",100.0,"[-0.07816509649331761,0.010714533209579389]",100.0,"[0.07476912339316444,0.05289418537766126]",100.0,"[0.02,0.02]",149.954,0.0,8.0,8.0,29.0,1.0,,,,,,,
,,,,,,,5d36e5a972282e0019605fa0,684428b48a1770798672be07,2025-06-07_13h56.38.052,shape_ratio,2024.1.5,Win32,61.72839506,684250e4f00cb30b92d1fa88,,,,,,,,,,,149.9544,150.4535,,,150.7028,151.0353,left,,,,,,,,0.9,0.3155,,,,,,,150.4535,150.7027,151.0354,"[-0.05494494116948663,-0.16049886571071878]",100.0,"[-0.07923516356110608,0.04660152419630013]",100.0,"[0.08676086301086304,0.13535192971074733]",100.0,"[0.03349926696858474,0.1003358970841616]",100.0,"[-0.06495820259794531,-0.11615693604828999]",100.0,"[0.020609007245092487,0.17488629223817698]",100.0,"[-0.11143294332371714,-0.14624784634304458]",4.0,"[-0.040652303674219126,0.10787247387832195]",100.0,"[0.10952509717454166,0.04117741508877076]",100.0,"[-0.05656999193665249,0.16499235176234567]",100.0,"[-0.16390064749474506,-0.06742463272691544]",100.0,"[-0.029630921529989928,0.03207061038689937]",100.0,"[0.028022403567371394,-0.025895707324584204]",100.0,"[-0.08816180107351489,-0.07477630580325367]",100.0,"[-0.1566462622363738,0.020615769752807184]",100.0,"[0.003528147416496549,-0.07999635534902243]",4.0,"[-0.025518189704222104,-0.01343190671480405]",100.0,"[0.1471310261157916,0.08772215883133626]",100.0,"[0.0985808157739378,-0.02125035734966833]",100.0,"[0.1557927308754947,0.026364917901377585]",100.0,"[0.17243797938090202,-0.05501901998183365]",100.0,"[0.11839367179287756,-0.07134342115760095]",100.0,"[-0.08151645807704691,0.0007596526972526904]",100.0,"[-0.18139390935836863,0.07736674683646635]",100.0,"[0.028587967284638954,-0.168546351114603]",100.0,"[-0.006717527112628256,0.08624960872771159]",4.0,"[0.0625111957305613,0.1701625643847775]",100.0,"[0.13773816156397403,0.12923984156559046]",100.0,"[0.06002342675704351,0.05822591569486981]",100.0,"[0.06686243569212583,-0.09743744350273094]",100.0,"[-0.1432677468537279,0.1211226526270166]",100.0,"[-0.16235660368181218,-0.024979492885293286]",100.0,"[0.02,0.02]",152.134,0.0,9.0,9.0,6.0,1.0,,,,,,,
,,,,,,,5d36e5a972282e0019605fa0,684428b48a1770798672be07,2025-06-07_13h56.38.052,shape_ratio,2024.1.5,Win32,61.72839506,684250e4f00cb30b92d1fa88,,,,,,,,,,,152.1345,152.6331,,,152.8834,153.2984,left,,,,,,,,0.9,0.4053,,,,,,,152.6331,152.8833,153.2985,"[0.10119785594137554,0.13487735464287678]",100.0,"[-0.09328589547045459,-0.07168736871533068]",100.0,"[-0.06734335970172842,0.14274493046361314]",100.0,"[0.1835608133157349,0.04814157051911066]",100.0,"[-0.06147573330972904,0.026929714548747152]",4.0,"[-0.1356947665829953,0.05871855112691291]",100.0,"[0.05875177251453563,0.16030037058721586]",100.0,"[-0.010992822892630929,-0.009095123354322667]",100.0,"[0.08079636515480228,-0.040134984222858]",100.0,"[-0.10554259813918439,0.00213770051487755]",100.0,"[-0.0027025685105736695,-0.14475158408645086]",100.0,"[0.06084580335382137,0.06410974573536007]",100.0,"[-0.0848903684968246,-0.1570591018347709]",100.0,"[-0.028207415896965828,-0.18317122636939512]",100.0,"[0.19462627129704813,-0.017821176681987346]",100.0,"[0.019182394442574698,-0.053085566323804005]",100.0,"[-0.01702610000010046,-0.10130647053682186]",100.0,"[-0.0317452015337513,0.19058487819064993]",100.0,"[-0.1784110223982773,0.05039395172728761]",100.0,"[0.13518866391976253,0.07647312123020554]",100.0,"[-0.19090641486725746,-0.029260117266790207]",100.0,"[0.15010090038277382,-0.007768040890544587]",100.0,"[0.03464185311335166,0.019276079955800773]",100.0,"[-0.03142927355235977,0.08574231699625516]",100.0,"[0.05069262959203905,-0.15012860753516286]",100.0,"[0.035196706624396196,-0.19627005844318976]",100.0,"[-0.12220409298529358,-0.12081605690551105]",100.0,"[-0.14845060918903133,0.11604552029439284]",100.0,"[0.043752757598751725,0.11816362021176506]",4.0,"[0.14678312012102557,-0.08341874673239587]",100.0,"[0.11366876100988267,-0.14156879398898287]",100.0,"[0.09543249493504295,-0.0902619757917422]",4.0,"[0.02,0.02]",154.3971,0.0,10.0,10.0,28.0,1.0,,,,,,,
,,,,,,,5d36e5a972282e0019605fa0,684428b48a1770798672be07,2025-06-07_13h56.38.052,shape_ratio,2024.1.5,Win32,61.72839506,684250e4f00cb30b92d1fa88,,,,,,,,,,,154.3975,154.8962,,,155.1462,155.3955,right,,,,,,,,0.1,0.2335,,,,,,,154.8963,155.1462,155.3956,"[0.07144281999785297,-0.05892787937158527]",4.0,"[-0.035779404481339136,-0.1948317319765587]",4.0,"[-0.08636903117549499,0.03760551702881052]",4.0,"[-0.07024564334333995,0.13871728369172348]",4.0,"[-0.023009238880335688,-0.018027872081707235]",4.0,"[0.017145922504565977,0.17110659066306771]",4.0,"[-0.0702783710293147,-0.06075909517041274]",100.0,"[0.016562060146972434,-0.16239044628255747]",4.0,"[0.14933821699562697,0.055683450655140146]",4.0,"[0.08719888600559203,0.15035295832512627]",4.0,"[-0.17022190674096102,0.04536473018111164]",100.0,"[-0.1718453431179466,-0.04723041527533018]",4.0,"[0.1022644069443516,-0.0898076397275067]",4.0,"[0.09968480326483253,0.08515256685664628]",4.0,"[0.06600915592818934,0.04591109514154666]",4.0,"[0.0046426078081702815,0.06585140870095306]",4.0,"[0.04081248182354079,-0.10433516973620253]",4.0,"[0.15037893407779757,-0.0281959873638516]",4.0,"[0.1680368905379659,0.09442364443607067]",4.0,"[0.07629851790592457,-0.1741702765293115]",4.0,"[-0.11030735494336015,-0.01962440646646628]",4.0,"[0.13769405724670608,-0.1127215981665184]",4.0,"[-0.019651077972720647,-0.12669949434275124]",4.0,"[-0.08125065366072329,-0.13709723960830036]",4.0,"[-0.02794941518850216,-0.08008122041623456]",4.0,"[-0.018598039711923045,0.15255933742668853]",4.0,"[-0.14824980827026263,0.11263718619680199]",4.0,"[0.02625203127423148,-0.00008351000702642419]",4.0,"[0.10019641799138952,-0.01664381521735755]",100.0,"[-0.12879105785128797,0.051889806491044875]",4.0,"[-0.051013115561904486,0.08312888946553257]",4.0,"[-0.1538631164626636,-0.1228314664155655]",4.0,"[0.02,0.02]",156.4932,0.0,11.0,11.0,186.0,1.0,,,,,,,
,,,,,,,5d36e5a972282e0019605fa0,684428b48a1770798672be07,2025-06-07_13h56.38.052,shape_ratio,2024.1.5,Win32,61.72839506,684250e4f00cb30b92d1fa88,,,,,,,,,,,156.4936,156.9924,,,157.2424,157.5416,right,,,,,,,,0.6,0.2904,,,,,,,156.9924,157.2423,157.5417,"[0.025038649110578345,-0.009093110078079046]",4.0,"[-0.010718351707087828,0.03364716465353267]",100.0,"[0.0999013234966348,-0.17285068944670418]",4.0,"[-0.19639307166491085,-0.03545887068204615]",100.0,"[0.013144161581719337,0.1250367078191014]",100.0,"[-0.07764338942426076,0.1776415297217143]",100.0,"[-0.14850940672489418,0.10904626108171195]",4.0,"[0.10824974346434914,0.1122994218020905]",100.0,"[0.08585616701671381,-0.09193339126509668]",100.0,"[0.18106830910322405,-0.06727136642188951]",100.0,"[-0.015051396270049065,0.180141385304097]",100.0,"[0.09656857952406833,0.03664112883221626]",100.0,"[-0.07277293588935183,-0.010916911266038455]",4.0,"[-0.042113800237783376,-0.11057947863123979]",100.0,"[-0.07875237676965494,-0.17241477997523408]",4.0,"[-0.13141011032587718,-0.14724334966447616]",4.0,"[-0.003911370218075423,-0.16996064060416333]",100.0,"[-0.04368634488114384,0.10926044262033527]",100.0,"[0.051321032885326405,-0.17716793175723497]",100.0,"[-0.11468500082172792,-0.05145590588095674]",100.0,"[-0.07454296407828401,-0.05558208979544116]",100.0,"[0.08288590820630454,-0.018649354646361315]",4.0,"[-0.12830879482159704,-0.1000763914745542]",100.0,"[-0.16635590782005533,0.017304174232041857]",4.0,"[-0.06759961130521609,0.0521853773189195]",100.0,"[0.01291812827630966,0.06879887795105792]",4.0,"[0.13444533393444424,-0.07547662419064517]",100.0,"[-0.10458373994505941,0.09828811836165524]",4.0,"[-0.03182306696164852,-0.020548316798289924]",100.0,"[0.1502955862472273,0.0031719216882969167]",4.0,"[0.021888405992926102,-0.0570912290344728]",4.0,"[0.14784698013452433,0.08783621620774458]",4.0,"[0.02,0.02]",158.6399,0.0,12.0,12.0,37.0,1.0,,,,,,,
,,,,,,,5d36e5a972282e0019605fa0,684428b48a1770798672be07,2025-06-07_13h56.38.052,shape_ratio,2024.1.5,Win32,61.72839506,684250e4f00cb30b92d1fa88,,,,,,,,,,,158.6404,159.139,,,159.3888,159.6381,right,,,,,,,,0.5,0.2364,,,,,,,159.139,159.3888,159.6382,"[0.12891834669458083,0.13775073220150108]",100.0,"[0.07698853464857616,-0.030276489086831372]",100.0,"[-0.023398416408544065,0.059681178923073654]",100.0,"[-0.06269711199313843,-0.029411881626894974]",4.0,"[0.07469995022544272,-0.17398403465647908]",4.0,"[0.08978681568170142,0.11606509038985138]",4.0,"[-0.014990763941633624,-0.030580352664407368]",100.0,"[-0.07542087840078972,-0.07878805734740445]",100.0,"[0.15050647607036577,-0.057228802676565715]",4.0,"[-0.09295329841673296,0.005495589885409726]",4.0,"[0.051549182330929366,0.13786712071740556]",100.0,"[0.1183204220870736,0.03645798915061048]",100.0,"[0.02125070627184809,0.03968871180648025]",100.0,"[-0.1258229212289594,-0.13227698856885098]",100.0,"[0.005779055225136844,-0.12749050195583211]",100.0,"[-0.17303200596605808,0.04083174833338773]",4.0,"[0.011012247552848992,0.1935870678897666]",100.0,"[-0.1294856823572733,0.1308082403536517]",4.0,"[0.06574943293318868,0.04174221298787558]",100.0,"[-0.0658222538315001,0.11108448864135906]",4.0,"[0.12613768707012893,0.08504341443348694]",4.0,"[0.032294162508889515,-0.16763359548923149]",100.0,"[-0.16429226288001036,0.1043503944756723]",4.0,"[0.0900143859721337,-0.07711494239440077]",4.0,"[0.171828281157063,0.016687767961076627]",4.0,"[-0.15391358616173795,-0.016331463605643255]",100.0,"[0.06946591478554252,-0.13010062761417165]",100.0,"[0.026379688596181488,-0.007706572548803729]",4.0,"[-0.1275704909210422,0.046861745232600366]",100.0,"[0.01606081761707269,0.10450682458673471]",4.0,"[0.12430688390925024,-0.12979032161946533]",4.0,"[-0.03930299556299007,0.1942021877971955]",4.0,"[0.02,0.02]",160.7362,0.0,13.0,13.0,111.0,1.0,,,,,,,
,,,,,,,5d36e5a972282e0019605fa0,684428b48a1770798672be07,2025-06-07_13h56.38.052,shape_ratio,2024.1.5,Win32,61.72839506,684250e4f00cb30b92d1fa88,,,,,,,,,,,160.7364,161.2355,,,161.4853,161.7681,left,,,,,,,,0.6,0.2655,,,,,,,161.2355,161.4852,161.7681,"[-0.04934258626445001,0.009015262402210657]",100.0,"[0.14148255838352516,0.06091714842502219]",100.0,"[-0.03558923290644701,0.0819127502534473]",100.0,"[0.19721894027717637,0.013164736219833682]",100.0,"[-0.10974508357996278,0.07815942136774118]",4.0,"[0.04474817075004621,-0.16499981044934867]",100.0,"[0.1259260082202228,0.14106659542373792]",4.0,"[-0.07015246766704109,-0.04337301508727888]",100.0,"[0.04137078506647683,0.05333485534429249]",4.0,"[-0.014873211881862351,-0.17369293064717858]",100.0,"[-0.11837055446406279,-0.10798412076034772]",100.0,"[-0.16644150508789393,-0.09418371698154666]",100.0,"[-0.15989449821986035,0.06236781102375282]",100.0,"[0.007433465229205411,0.18504762945150421]",100.0,"[0.01286516869580031,0.0858860250316641]",100.0,"[-0.007752312838768097,0.014632233001579068]",100.0,"[0.10417673306374116,-0.1369138952950099]",4.0,"[-0.1341780277191772,0.006681861505472823]",100.0,"[0.14326620192825174,-0.1236651198508182]",4.0,"[0.07871879810742137,0.006922868465998631]",4.0,"[-0.13404092040188756,-0.03711327461913412]",4.0,"[0.04014257581619403,-0.1083442999060873]",100.0,"[-0.05480230743407106,0.12219527809536612]",4.0,"[0.1658118084013601,-0.0346574023684384]",100.0,"[-0.05013097659763452,0.16405991729130304]",4.0,"[0.07961211041653278,0.14620297631926255]",4.0,"[-0.10261442627501816,-0.14572588517859783]",100.0,"[-0.0008956422000423805,-0.12085816229973084]",100.0,"[-0.0010852865103151879,0.13852113315022466]",4.0,"[-0.12734753916288585,0.13278803194552788]",4.0,"[0.1266073277869165,-0.06727581212752264]",100.0,"[0.05599988068877062,0.18231271704447968]",4.0,"[0.02,0.02]",162.8661,0.0,14.0,14.0,35.0,1.0,,,,,,,
,,,,,,,5d36e5a972282e0019605fa0,684428b48a1770798672be07,2025-06-07_13h56.38.052,shape_ratio,2024.1.5,Win32,61.72839506,684250e4f00cb30b92d1fa88,,,,,,,,,,,162.8664,163.3657,,,163.6157,164.0646,right,,,,,,,,0.4,0.4363,,,,,,,163.3658,163.6156,164.0647,"[0.15292376705386837,-0.0085051131356061]",100.0,"[-0.019393550925782498,0.12795767780852474]",4.0,"[-0.0017765475129121744,-0.15134012848176953]",100.0,"[-0.11817638263591665,-0.11628907467915411]",4.0,"[0.04588191602288203,0.18543400724945508]",100.0,"[-0.026754599444035104,0.05688042059028581]",4.0,"[0.16966411645414045,-0.10404452718826952]",4.0,"[-0.12266948916612783,0.14140467890347977]",100.0,"[-0.12154488240414381,-0.029197906045442416]",100.0,"[0.05773328344267578,-0.12782315527947588]",100.0,"[-0.05126767673784379,-0.18945572030825308]",4.0,"[0.09398322652571574,-0.010469330990537021]",4.0,"[0.05289377490025064,0.03315428100332333]",4.0,"[-0.05369098523172185,-0.0930252206848182]",100.0,"[-0.1401998777083285,0.03159222969222812]",4.0,"[-0.011842596458438161,-0.09622364380975419]",100.0,"[0.11424864535941011,0.13017209354020567]",4.0,"[-0.056677278496583765,0.15598722267646042]",4.0,"[0.034150421634080046,0.12388190766491047]",4.0,"[-0.024968192881030738,0.005860862283298756]",4.0,"[-0.002249684501079888,-0.03649010045715717]",4.0,"[0.1849717287711083,0.06844414421909448]",100.0,"[0.04079224791361496,-0.03674873400329775]",4.0,"[-0.1784321715013311,-0.04727425751189614]",4.0,"[0.19412071287215954,0.014863473957692889]",4.0,"[0.08176836678191476,0.07110156681408794]",4.0,"[0.13601335381339347,0.03184465251332334]",100.0,"[-0.1270441336001143,0.09573183796368075]",100.0,"[-0.19056788498164492,-0.006894732759785017]",4.0,"[-0.09757802758288353,0.04787452720166369]",4.0,"[0.10658696712258416,-0.09512252799472852]",100.0,"[-0.09225465498077284,-0.15262338838112813]",100.0,"[0.02,0.02]",165.1629,0.0,15.0,15.0,168.0,1.0,,,,,,,
,,,,,,,5d36e5a972282e0019605fa0,684428b48a1770798672be07,2025-06-07_13h56.38.052,shape_ratio,2024.1.5,Win32,61.72839506,684250e4f00cb30b92d1fa88,,,,,,,,,,,165.1633,165.6625,,,165.9117,166.2608,right,,,,,,,,0.5,0.3425,,,,,,,165.6625,165.9117,166.2608,"[-0.17510012895045585,0.04169366778522239]",4.0,"[-0.07218239391806934,-0.15901479360384793]",4.0,"[-0.13911925078672666,-0.08066323491912075]",100.0,"[0.1735216893978153,-0.018379667245065394]",100.0,"[-0.12723911528549503,0.031458255888119534]",4.0,"[0.04347863889394425,0.046862285783486356]",100.0,"[0.16564163789722167,-0.06551894121076128]",4.0,"[0.10780499963635133,0.11114859662157607]",100.0,"[-0.07216587291910251,0.11928876249184532]",100.0,"[0.11846540442135743,-0.16015455010595753]",100.0,"[0.08598670247015258,0.012688738763999516]",100.0,"[0.005446480850340156,0.024964991818162533]",100.0,"[-0.1099720739239947,-0.10916962045855708]",4.0,"[-0.075567489307301,0.17074321251431657]",4.0,"[0.13656551059910638,0.07491097093809085]",4.0,"[0.009424338492432564,-0.18262216682757065]",4.0,"[-0.02452888173792015,-0.11412942257007047]",4.0,"[0.03226202090727528,-0.09821065736225287]",100.0,"[-0.15156984849653007,0.10506375116869655]",4.0,"[-0.06265200289106078,0.06878234890080781]",4.0,"[0.07999009403706943,-0.05322832503449309]",4.0,"[-0.006762446714577664,0.17624697803261805]",100.0,"[-0.1881277794200507,-0.025262568621702636]",4.0,"[-0.06526033216246244,-0.09433942899131494]",100.0,"[0.018967811290202863,-0.03107044364743499]",4.0,"[-0.1229627934408875,-0.014999278922602222]",100.0,"[0.04940249915065176,0.13578670730684747]",100.0,"[-0.0162222514841996,0.0677326429971223]",100.0,"[0.11022564230529255,-0.11975254417234325]",100.0,"[0.07565528798688918,-0.17904308278852635]",4.0,"[0.19093680213829892,0.03461468034946428]",4.0,"[-0.018150691522462122,-0.04942514887899706]",100.0,"[0.02,0.02]",167.3596,0.0,16.0,16.0,100.0,1.0,,,,,,,
,,,,,,,5d36e5a972282e0019605fa0,684428b48a1770798672be07,2025-06-07_13h56.38.052,shape_ratio,2024.1.5,Win32,61.72839506,684250e4f00cb30b92d1fa88,,,,,,,,,,,167.3601,167.8588,,,168.1082,168.3743,left,,,,,,,,0.9,0.2484,,,,,,,167.8588,168.1081,168.3744,"[-0.15559890388142086,-0.11179853761749353]",100.0,"[-0.018373388517081077,-0.11397779689864951]",100.0,"[0.14639825861866793,0.01912864344914181]",100.0,"[0.048136065286481976,-0.1614067594975483]",4.0,"[0.07958986810327433,0.028484966758829257]",4.0,"[-0.0193325909355905,-0.19020558389069497]",100.0,"[-0.1311004223357655,0.10907025951661481]",100.0,"[0.06829422482296725,-0.04007334897916768]",100.0,"[0.10406368160408883,-0.07304933436845953]",100.0,"[-0.1789823508067518,-0.060374540952815026]",100.0,"[0.027280267967361316,-0.03719091898196158]",100.0,"[-0.08005726640104963,-0.09346017407388067]",100.0,"[-0.0558916896776092,0.17315928838784173]",100.0,"[-0.10070839358201888,0.1678495737398446]",100.0,"[-0.11052710205112637,-0.12701700244939304]",100.0,"[-0.08262909225275068,0.10003453282617625]",100.0,"[-0.03138171745329833,-0.013997432187345898]",100.0,"[0.17210734884039922,-0.06013884857452487]",4.0,"[-0.05133285952701634,0.12518751718799312]",100.0,"[0.16454331229497365,0.07297436200051588]",100.0,"[-0.12478811848923052,-0.01604031913084861]",100.0,"[0.11136431570111546,0.12868478272132874]",100.0,"[-0.06848760416864577,-0.13424708479393996]",100.0,"[-0.04247243519347811,0.048164102170487465]",100.0,"[0.10982175325518512,-0.1522408431053963]",100.0,"[0.04733014203006789,0.05537230789138295]",100.0,"[0.08061208012784313,0.1717969567381869]",100.0,"[0.026284243319293837,0.1575631475690691]",100.0,"[-0.1441652349986892,0.021810726736448415]",100.0,"[-0.11607781733680056,-0.06599689268653075]",100.0,"[0.02570254890216786,0.0051819985052179275]",100.0,"[0.000893509312915759,0.046410387976002755]",100.0,"[0.02,0.02]",169.4723,0.0,17.0,17.0,19.0,1.0,,,,,,,
,,,,,,,5d36e5a972282e0019605fa0,684428b48a1770798672be07,2025-06-07_13h56.38.052,shape_ratio,2024.1.5,Win32,61.72839506,684250e4f00cb30b92d1fa88,,,,,,,,,,,169.4727,169.9721,,,170.2222,170.5375,right,,,,,,,,0.4,0.3089,,,,,,,169.9723,170.2222,170.5375,"[0.08556627992721648,0.10598403834279103]",100.0,"[-0.11590285721374366,0.13092437013965588]",4.0,"[0.14990944743178164,-0.11400615072155536]",100.0,"[-0.0017952420449924204,-0.02834228710730113]",4.0,"[-0.08672607319911925,0.04499654898633171]",100.0,"[-0.03210974252614514,0.0767083987810635]",4.0,"[-0.10230179250199627,-0.057030952027771586]",4.0,"[0.12741860635965033,-0.062202465383836815]",4.0,"[0.01618305957281753,0.17760800794727932]",4.0,"[0.0013741421280177915,-0.09858105375712503]",4.0,"[0.038161171479186566,0.031491777855099455]",100.0,"[0.15502637635546188,0.01645658988125012]",4.0,"[-0.07112298229797152,0.08846087558883305]",100.0,"[0.07567119495130212,-0.13046259753907224]",100.0,"[0.00048331106694472493,-0.1444000105027019]",100.0,"[-0.04462042933723894,0.17967082441122728]",4.0,"[0.024481393093208972,0.0774699806677146]",4.0,"[0.19083452453021557,-0.020547399377534158]",100.0,"[-0.1922186737539678,0.009262657834971577]",4.0,"[0.1619533229362056,0.11699278237311846]",4.0,"[-0.18399396974336912,-0.04525319301398997]",4.0,"[-0.0625777316565109,-0.0462838773845777]",100.0,"[0.0509967046382122,0.14615363921707905]",4.0,"[0.06811150570927621,-0.05088900833819638]",100.0,"[0.1857917737011135,0.06666187673007119]",4.0,"[0.08355727474913614,-0.1732362382272074]",4.0,"[0.021514564208697174,0.1186348725500564]",100.0,"[-0.04653402702377501,-0.12536652906639453]",100.0,"[-0.022371286936227117,0.0075787938520966176]",4.0,"[0.12182468884578776,-0.15485623822624722]",100.0,"[-0.16672224265450647,-0.08520654953209002]",4.0,"[-0.1452513289512245,0.05181768235953258]",4.0,"[0.02,0.02]",171.6356,0.0,18.0,18.0,175.0,1.0,,,,,,,
,,,,,,,5d36e5a972282e0019605fa0,684428b48a1770798672be07,2025-06-07_13h56.38.052,shape_ratio,2024.1.5,Win32,61.72839506,684250e4f00cb30b92d1fa88,,,,,,,,,,,171.6359,172.1348,,,172.3847,172.7174,right,,,,,,,,0.45,0.3181,,,,,,,172.1348,172.3847,172.7175,"[0.06555306787643433,0.018657973869093472]",4.0,"[-0.12056882280479014,0.14008952060785607]",100.0,"[-0.11520807988828,-0.13866843822457672]",100.0,"[-0.01263334212163354,0.18262204181010677]",100.0,"[-0.020922869999115117,-0.12339530231735617]",100.0,"[0.12791095286294776,-0.09646783368245453]",4.0,"[-0.06664809203264364,-0.11959167086159858]",4.0,"[-0.07617326385214332,-0.03833658367890935]",100.0,"[0.10651750049385805,0.03598396927318426]",4.0,"[-0.1710695025727509,0.057791508752066345]",4.0,"[0.14478627390659754,0.0010119302863022728]",100.0,"[-0.03528344580872102,0.02357723362906025]",4.0,"[0.10382742872678179,-0.014103888056062271]",4.0,"[0.03585229631352196,0.10306866709698045]",100.0,"[-0.1611404802476124,-0.04133701400389837]",100.0,"[0.16203698647939715,0.11453095711611404]",4.0,"[0.1926223723543278,-0.007550114130891897]",4.0,"[0.05838535739510312,0.059494952337322056]",4.0,"[0.059701874752277014,-0.1642236918884552]",4.0,"[0.0487052256200407,-0.04191335168458361]",100.0,"[-0.00425812164823822,0.10190433810087757]",100.0,"[-0.11210047721415106,0.06370661557981551]",4.0,"[-0.09783022994593953,0.01899619869693125]",4.0,"[-0.04175136000794944,0.14528938943409034]",4.0,"[0.029677987626787295,-0.10071636830050106]",4.0,"[0.0010703582181823992,-0.055609912202130934]",100.0,"[-0.0067207096447372975,0.055602280960574645]",4.0,"[-0.19326672571670422,-0.011205287537369754]",100.0,"[-0.04764832778815974,-0.17831735269523943]",100.0,"[0.1686864614295301,-0.0402135001433731]",100.0,"[0.08802928608945004,0.13185147034315162]",4.0,"[0.010677439402779265,0.015518004542936937]",4.0,"[0.02,0.02]",173.8155,0.0,19.0,19.0,126.0,1.0,,,,,,,
,,,,,,,5d36e5a972282e0019605fa0,684428b48a1770798672be07,2025-06-07_13h56.38.052,shape_ratio,2024.1.5,Win32,61.72839506,684250e4f00cb30b92d1fa88,,,,,,,,,,,173.8158,174.3146,,,174.5647,174.8973,right,,,,,,,,0.45,0.3149,,,,,,,174.3146,174.5647,174.8973,"[0.025406362936862447,-0.06226075903697993]",100.0,"[-0.06555146808957915,0.1860381936378518]",4.0,"[0.04519135316542863,0.008452230185455899]",4.0,"[-0.08205027864774976,-0.1665949802409387]",4.0,"[-0.10850012253163535,-0.11242657680497009]",4.0,"[0.0840666988090712,0.17986593162747086]",100.0,"[-0.02283092159514236,-0.1317764147272075]",4.0,"[-0.0261144041519723,0.14029438516632814]",4.0,"[-0.06204263061001224,-0.02272661161868395]",4.0,"[0.12675021759951027,0.11588423131946995]",100.0,"[0.12636640565504953,-0.0422824646839109]",100.0,"[0.1739024357249105,-0.08756998128221177]",100.0,"[0.09315852980232724,0.07422711636448485]",4.0,"[-0.015644599057085967,-0.06458016901270178]",100.0,"[-0.12237238920671169,0.021938626351904827]",100.0,"[-0.011050125148622447,0.19025721627393175]",4.0,"[0.026829912471858376,-0.12007717593619731]",4.0,"[-0.19145309880410116,-0.04331600052955384]",100.0,"[-0.020386023245287314,-0.1916267846279448]",4.0,"[0.04848869441197657,-0.17817737979354462]",4.0,"[0.07636773881606553,-0.09032186430390732]",100.0,"[-0.06273808711681017,-0.07179446637190949]",4.0,"[0.07327567040041219,-0.03519082970371687]",100.0,"[-0.12199101475807467,0.0943969674062605]",100.0,"[-0.003993193305610444,0.032749723379027124]",4.0,"[-0.13033105282597715,-0.03394503308858503]",4.0,"[0.1828479417001829,-0.011014033724313478]",4.0,"[0.10029743281787803,-0.13167694020674883]",100.0,"[0.1948988705381737,0.04015116975695002]",100.0,"[0.13185871043599998,0.0057200079501398635]",4.0,"[-0.1481068814329469,-0.08533686665124668]",100.0,"[-0.1946210700667799,0.007700503617376807]",4.0,"[0.02,0.02]",175.9953,0.0,20.0,20.0,130.0,1.0,,,,,,,
,,,,,,,5d36e5a972282e0019605fa0,684428b48a1770798672be07,2025-06-07_13h56.38.052,shape_ratio,2024.1.5,Win32,61.72839506,684250e4f00cb30b92d1fa88,,,,,,,,,,,175.9958,176.4945,,,176.7445,176.9938,left,,,,,,,,0.9,0.2379,,,,,,,176.4946,176.7445,176.9938,"[0.06965065734794386,-0.06960998867285115]",100.0,"[-0.0855014560764128,0.11190131938927426]",100.0,"[0.18581325446007357,0.01998429495714884]",100.0,"[-0.08666464881290599,0.1773617681180255]",100.0,"[-0.1009667463045941,0.0620307729347188]",100.0,"[0.006504734702536777,0.06988967262491005]",100.0,"[-0.1189149781844227,0.02298510094048309]",100.0,"[-0.04142211535334332,0.15982755783889993]",100.0,"[-0.13891146217366768,0.1249870017833612]",4.0,"[0.08455045151097952,-0.10805996529025379]",100.0,"[-0.05896803900050335,-0.09347070474316675]",100.0,"[0.007467430583605999,-0.0950419759194387]",100.0,"[0.10124040780228714,0.06288544992115473]",100.0,"[-0.06384486677270493,0.004741358821569468]",4.0,"[0.02997289898702916,-0.014076729875816998]",100.0,"[-0.09466720200155274,-0.03533782665381229]",100.0,"[0.005213049417172865,-0.1516458721804345]",100.0,"[-0.16336334800521535,-0.0856606335589879]",100.0,"[-0.02404327102824778,-0.18933878120542474]",100.0,"[0.03411344306132873,0.12311798448666181]",100.0,"[-0.11114355611484292,-0.07696264204252587]",100.0,"[-0.02121530538272794,-0.055608946612889024]",100.0,"[-0.03428418717756784,0.043213100797902505]",100.0,"[-0.16731729345082302,-0.021765100047345512]",100.0,"[-0.024589143683310784,-0.010742178814337975]",100.0,"[0.1763913134274798,-0.04734548065323685]",100.0,"[0.07040690166803663,0.030046094985262735]",4.0,"[0.044616390685896394,-0.15960546315568183]",100.0,"[0.13535313699865362,-0.024816067659378816]",100.0,"[-0.04346011334980152,-0.13150874114657007]",100.0,"[-0.14329042156672325,-0.13441061710367]",100.0,"[0.09372133317402567,0.11539082980232943]",100.0,"[0.02,0.02]",178.0919,0.0,21.0,21.0,18.0,1.0,,,,,,,
,,,,,,,5d36e5a972282e0019605fa0,684428b48a1770798672be07,2025-06-07_13h56.38.052,shape_ratio,2024.1.5,Win32,61.72839506,684250e4f00cb30b92d1fa88,,,,,,,,,,,178.0923,178.5915,,,178.8411,179.1735,left,,,,,,,,0.55,0.3248,,,,,,,178.5915,178.841,179.1736,"[0.0012191322364712336,-0.11771381531251372]",4.0,"[0.07063204556133236,-0.12700740517977246]",100.0,"[0.18740129065222347,0.004670417839288146]",4.0,"[0.10879217688972664,-0.01680248980832368]",4.0,"[-0.16685711690244076,-0.05309239596703297]",100.0,"[-0.051591233886074006,-0.10575586790757574]",100.0,"[0.057978829796577994,0.1062008157969866]",100.0,"[0.14265417717092327,0.036665905718874243]",100.0,"[0.09648501037473213,0.03888332075006878]",4.0,"[0.11786017205821235,-0.08622136317105393]",4.0,"[-0.133012307448569,0.09728768337722361]",100.0,"[-0.0850841715201997,0.15397584006919562]",4.0,"[0.055164222496901144,0.06269687969605815]",100.0,"[0.03224184354810953,-0.18129962062452004]",4.0,"[0.13070826564259166,0.09489691201344365]",4.0,"[0.05359781091301105,-0.06968924178963114]",4.0,"[0.028211789566850377,-0.03661244900592992]",100.0,"[0.16211779252510564,-0.03993756489210317]",4.0,"[-0.1777876955892508,0.08521161831041506]",100.0,"[-0.01656353046955839,-0.05855488510329681]",100.0,"[0.08832903157766005,0.14355258423906372]",100.0,"[-0.1431399065293391,-0.11191245808295146]",4.0,"[0.009659333559933942,0.09093607432632914]",4.0,"[0.008119001461816527,0.1440891338233426]",4.0,"[-0.04516588185777025,-0.17878686611110164]",100.0,"[-0.06584231631566367,0.11028269467612573]",100.0,"[-0.10622989787540857,-0.01688389326135677]",100.0,"[-0.19439506430627554,-0.0080949902836747]",100.0,"[-0.07206486733239013,0.07042160707691927]",4.0,"[0.03798539754105387,0.005084992630970159]",100.0,"[0.11077987684559344,-0.152196472065235]",100.0,"[-0.08648002079689342,-0.06480636114621798]",100.0,"[0.02,0.02]",180.2718,0.0,22.0,22.0,88.0,1.0,,,,,,,
,,,,,,,5d36e5a972282e0019605fa0,684428b48a1770798672be07,2025-06-07_13h56.38.052,shape_ratio,2024.1.5,Win32,61.72839506,684250e4f00cb30b92d1fa88,,,,,,,,,,,180.2722,180.7714,,,181.0208,181.3203,right,,,,,,,,0.5,0.2818,,,,,,,180.7715,181.0208,181.3203,"[-0.10903810888810865,0.1374421676076961]",4.0,"[0.011816562924546121,0.17227322798961595]",4.0,"[-0.12464074345243234,-0.12231287571988055]",100.0,"[-0.0723358020630318,0.06190213440771601]",100.0,"[-0.17795288989110106,-0.06495139319858292]",100.0,"[-0.0822049570499219,-0.12789201732921698]",4.0,"[0.127409209109905,0.030384840089479028]",100.0,"[0.10236640142300905,-0.05639044946855533]",100.0,"[0.09472240531275015,0.15173749133589234]",100.0,"[0.0738434304193557,0.054398373828923464]",4.0,"[-0.020081924748733215,0.10301733914515218]",4.0,"[0.048814079001413206,0.014502685950408082]",100.0,"[-0.00419390654652743,0.021372828927202887]",100.0,"[0.0494830268223546,0.12570087120615653]",100.0,"[-0.06760605040571813,-0.03355728006022209]",100.0,"[-0.008401395931387123,-0.046406620823469115]",4.0,"[0.1773404583951904,0.005803500741735059]",100.0,"[-0.13584372183524512,0.06883084295704549]",4.0,"[0.016941252276835753,0.0830189935938819]",100.0,"[0.1874800675110744,-0.033771201984634916]",4.0,"[-0.12716478439093148,0.0070319537218482935]",4.0,"[-0.05903117963735178,0.13618168682368548]",4.0,"[0.019556821641977484,-0.13656252679855205]",100.0,"[0.07947686070045534,-0.138266595869017]",4.0,"[0.13785916078591826,0.07580440283589988]",100.0,"[-0.0888505365779423,0.17792691577350603]",4.0,"[0.04666032602572227,-0.07670264697348748]",100.0,"[-0.1257345556589521,-0.0760688238395995]",4.0,"[-0.19341879068065457,0.02498507083954925]",4.0,"[0.10603069083886517,-0.01442041686481072]",100.0,"[0.00808162687604661,-0.09256055773772522]",4.0,"[0.17447482633619033,-0.07264889913467275]",4.0,"[0.02,0.02]",182.4184,0.0,23.0,23.0,109.0,1.0,,,,,,,
,,,,,,,5d36e5a972282e0019605fa0,684428b48a1770798672be07,2025-06-07_13h56.38.052,shape_ratio,2024.1.5,Win32,61.72839506,684250e4f00cb30b92d1fa88,,,,,,,,,,,182.4189,182.9176,,,183.168,183.5668,left,,,,,,,,0.6,0.3825,,,,,,,182.9176,183.1679,183.5668,"[-0.0757369823765216,0.02756731048448809]",100.0,"[0.17851804152735246,-0.03953266939549865]",100.0,"[0.0833944289999625,-0.09851706775410152]",100.0,"[0.09231783949511121,-0.03532405111766096]",100.0,"[0.09719502437388403,0.15911549791127463]",100.0,"[-0.09055913982981308,-0.14922937442576048]",100.0,"[-0.027055237032488775,0.15978325112828876]",100.0,"[-0.03860724848764263,-0.14365571790263013]",100.0,"[0.07271374396686266,0.09989636704277355]",4.0,"[0.029943376851183628,-0.11626904977054968]",4.0,"[0.07150757692501185,0.03719716041686488]",4.0,"[-0.08191829607088734,0.1500292775949861]",100.0,"[-0.02207452687000474,0.014148325550295864]",100.0,"[0.11980287610750456,-0.07139836064122294]",100.0,"[-0.1250137660060843,-0.03638106245981253]",4.0,"[0.052750531421629755,0.0011550517107889143]",100.0,"[0.00931804507186141,-0.02136523106353489]",100.0,"[-0.07861853018466952,0.10151019934922532]",4.0,"[0.14137472822326153,0.049225222073097846]",100.0,"[0.027819727087647673,0.10521495892367426]",4.0,"[0.0327256428832142,0.18422898040296892]",100.0,"[0.07009887821987709,-0.16080170618942113]",4.0,"[-0.025088475361886967,-0.05847247706170724]",4.0,"[-0.15284448295963515,0.024087772242050873]",100.0,"[-0.12100960195297217,0.12761879458947575]",100.0,"[0.013012176320355336,-0.17161896096783913]",100.0,"[-0.04429739561356726,-0.09811126492963546]",4.0,"[0.10648274606750968,0.07440304986393374]",4.0,"[-0.06715469368277843,-0.015224999741558208]",4.0,"[-0.02694700285274968,0.06008227650978041]",100.0,"[-0.11020078600432484,-0.09080289031157807]",4.0,"[-0.17125383654614482,0.06324497846591191]",4.0,"[0.02,0.02]",184.6648,0.0,24.0,24.0,52.0,1.0,,,,,,,
,,,,,,,5d36e5a972282e0019605fa0,684428b48a1770798672be07,2025-06-07_13h56.38.052,shape_ratio,2024.1.5,Win32,61.72839506,684250e4f00cb30b92d1fa88,,,,,,,,,,,184.6651,185.1641,,,185.4138,185.6803,left,,,,,,,,0.45,0.2488,,,,,,,185.1641,185.4138,185.6803,"[-0.05880020811084978,-0.16888181895207674]",4.0,"[-0.013359802192821686,0.10172974808010939]",4.0,"[-0.15292577762013734,-0.06678497004371706]",4.0,"[0.07421170341103886,0.15460526513171818]",100.0,"[0.0661196433371262,0.047610366685170144]",4.0,"[-0.03267767607938102,0.0019098231090833517]",100.0,"[-0.16643021676491263,0.07316798840669024]",4.0,"[0.09157487451564253,0.00476355937831737]",100.0,"[0.14373586658791307,0.08808159827762492]",100.0,"[0.19289163475841328,0.03850626645771734]",100.0,"[-0.038560734106176664,-0.10697866241651428]",4.0,"[0.10512651195205731,0.06416849667176393]",4.0,"[-0.022282338630415358,0.05999120021479688]",100.0,"[0.03402647903237277,-0.06630168776344288]",100.0,"[0.1122545062837229,-0.1645835705738561]",100.0,"[0.05940578051234976,-0.16733523377606438]",4.0,"[-0.08422226592349522,-0.12201979553246774]",4.0,"[-0.07089294128763532,0.1244872382937053]",4.0,"[0.09628859798292944,-0.07131064105230614]",4.0,"[0.03409330998026485,-0.010336317499954287]",100.0,"[-0.11469375087767109,0.13655037305683826]",4.0,"[0.16106635650077347,-0.08895511443769819]",4.0,"[0.02480934496044458,0.14999715747940182]",4.0,"[0.025673498243772422,0.06140570608400204]",4.0,"[-0.05530279827012519,-0.04257657323464721]",100.0,"[-0.0266435545348035,0.14547504874798436]",4.0,"[-0.06337006786136483,0.17787451406836094]",4.0,"[0.1375048113316519,0.007388261791273306]",100.0,"[0.14760127167899176,-0.03665205890635933]",100.0,"[0.034276150111965845,-0.11299675257236709]",100.0,"[-0.09744863867495905,0.01245771109750377]",4.0,"[-0.19704166200241416,0.0290553411205087]",100.0,"[0.02,0.02]",186.778,0.0,25.0,25.0,131.0,1.0,,,,,,,
,,,,,,,5d36e5a972282e0019605fa0,684428b48a1770798672be07,2025-06-07_13h56.38.052,shape_ratio,2024.1.5,Win32,61.72839506,684250e4f00cb30b92d1fa88,,,,,,,,,,,186.7784,187.2772,,,187.5272,187.8098,right,,,,,,,,0.45,0.2649,,,,,,,187.2773,187.5272,187.8098,"[-0.10592396747851725,-0.1551073436370257]",4.0,"[0.1143344983755408,0.03457574988894173]",4.0,"[-0.09146351726134731,0.08544369330663323]",4.0,"[-0.09970240888898468,-0.11439090412311236]",4.0,"[0.04958801524900508,-0.08297521739503526]",4.0,"[0.14962090779610993,-0.04783056844264994]",100.0,"[0.01938792526637958,0.04050298907891325]",4.0,"[0.006928363803044727,-0.09114567797948743]",4.0,"[-0.005377573752510611,0.006435078001942819]",4.0,"[-0.00835730578090924,0.07698252196940693]",100.0,"[-0.05088116713040617,0.011205007216585829]",4.0,"[-0.12535005814449318,0.04484933124153559]",100.0,"[-0.044358148581489946,-0.11488799121229226]",100.0,"[-0.16143516157739424,0.004155462122823263]",100.0,"[0.011867370640285124,-0.16394460637897088]",4.0,"[0.11299674664180359,0.14355186266039502]",4.0,"[0.13110892765475352,0.07655058098427785]",100.0,"[-0.05511527926287878,0.1427413554867083]",100.0,"[0.12220128496467443,-0.09514886224087044]",100.0,"[0.05483133808343746,-0.02303173890716072]",100.0,"[-0.02445748216838528,0.1137697225630581]",4.0,"[0.032153011428060686,0.11917711122441388]",4.0,"[-0.11934620543469998,-0.07752966290388491]",100.0,"[0.15440647258007634,0.04302138660755939]",100.0,"[0.06510234411585339,0.17298640538251414]",4.0,"[0.07252949604850666,0.09677155175473875]",100.0,"[0.07969798403198636,-0.140896559673891]",100.0,"[-0.02853908249168655,0.19571618347167216]",100.0,"[-0.15799983771973056,-0.04807498014491174]",4.0,"[-0.06770544497521892,-0.06546877130087123]",4.0,"[-0.029492032722816544,-0.18065860074295897]",4.0,"[0.10293990969437945,-0.011371645460376665]",4.0,"[0.02,0.02]",188.9083,0.0,26.0,26.0,140.0,1.0,,,,,,,
,,,,,,,5d36e5a972282e0019605fa0,684428b48a1770798672be07,2025-06-07_13h56.38.052,shape_ratio,2024.1.5,Win32,61.72839506,684250e4f00cb30b92d1fa88,,,,,,,,,,,188.9088,189.4072,,,189.6569,190.0067,right,,,,,,,,0.6,0.3367,,,,,,,189.4072,189.6568,190.0067,"[0.06577945902116211,-0.052484678011842784]",100.0,"[0.047577897294524094,-0.008829292118552913]",100.0,"[-0.15130619864018116,-0.029989112728302007]",4.0,"[-0.13504531362884825,-0.08286019150380697]",4.0,"[0.0428265384337774,0.05117485302568095]",100.0,"[0.11470047514925844,0.1008114262546516]",4.0,"[0.04463208287442484,-0.1419255379027902]",100.0,"[-0.12467922116971726,-0.14627496666104406]",100.0,"[0.16050950454590845,-0.07911659175368457]",4.0,"[0.08816027977171591,0.004189135430779437]",100.0,"[0.0035094224973798247,-0.07226996096585837]",4.0,"[0.16733072580055108,0.09710298124187948]",100.0,"[0.00849802090975301,0.023964638192363795]",100.0,"[0.06947319409970197,0.09681687199387129]",100.0,"[-0.0686833138409637,0.18751922939412793]",100.0,"[-0.12595283542374489,0.10488869276520235]",100.0,"[0.09501299836061645,-0.16465087797565453]",4.0,"[0.03791623970946626,-0.10213586225278226]",4.0,"[0.1317821478613905,-0.021272561157307315]",100.0,"[-0.0240463396803016,0.14492585834602276]",100.0,"[-0.06941195646995746,0.09988520854026207]",100.0,"[-0.03763396288079578,-0.0042214401436689725]",4.0,"[-0.0006527630200917816,-0.1315919061071709]",4.0,"[-0.002931352036144343,0.07000658278513434]",4.0,"[-0.08341649208796213,0.05675093882118496]",100.0,"[-0.1342105661633185,0.05121987055929839]",100.0,"[-0.1739539664327855,-0.06803378350766295]",100.0,"[0.06612138417850152,0.14531204079234625]",4.0,"[-0.027060044447318767,-0.1963819031783209]",100.0,"[-0.1043297117117427,0.15666139933128131]",4.0,"[0.01732520736180399,-0.17986310478696851]",4.0,"[-0.07148806891471332,-0.181828568159701]",100.0,"[0.02,0.02]",191.1044,0.0,27.0,27.0,48.0,1.0,,,,,,,
,,,,,,,5d36e5a972282e0019605fa0,684428b48a1770798672be07,2025-06-07_13h56.38.052,shape_ratio,2024.1.5,Win32,61.72839506,684250e4f00cb30b92d1fa88,,,,,,,,,,,191.1047,191.6035,,,191.8534,192.1699,right,,,,,,,,0.6,0.2993,,,,,,,191.6035,191.8534,192.1699,"[-0.07837588278124673,-0.13879270863785076]",100.0,"[0.07465949123604013,-0.020765947858591014]",100.0,"[-0.03347892059591222,-0.12727115268628822]",4.0,"[0.12745792037197576,-0.09151181359359356]",100.0,"[-0.042064333393056416,0.1893256730678404]",100.0,"[-0.16512239609112722,-0.020033939727017308]",100.0,"[-0.019456309409266716,0.1108282089216247]",4.0,"[0.1164073083831554,-0.05008649744826065]",4.0,"[-0.01079172212932731,0.041491641690447015]",100.0,"[0.05017016386246322,0.08578727290959012]",4.0,"[0.1951474690699117,0.04142084656425135]",100.0,"[-0.07684236439398909,-0.0615912634201038]",4.0,"[-0.0359537424802016,-0.017832202939221286]",4.0,"[0.13835653250902988,0.12752163780225897]",4.0,"[-0.005731239701133089,-0.07959332725178168]",100.0,"[-0.07653212705472354,0.019528058608467038]",100.0,"[0.06763578815173511,0.028956290224305826]",4.0,"[0.10265239646753231,0.10921315524595951]",100.0,"[-0.10841392889668419,0.12345154023439096]",4.0,"[-0.16872976155235006,0.02737064980562179]",100.0,"[0.023389798693978024,-0.11760663853417584]",100.0,"[-0.027996847814456986,-0.18245961040328967]",100.0,"[0.016805963479136033,-0.022835317778058695]",4.0,"[-0.1559452027147409,-0.12035846288477457]",100.0,"[0.04459224145788184,-0.1734189798153655]",4.0,"[0.11370239031530602,-0.14913715057217516]",100.0,"[-0.07964276487541185,0.09184800256399511]",100.0,"[-0.0010723406029916752,0.16444985614352903]",100.0,"[0.06493220109649424,0.1300430302452751]",4.0,"[-0.10469025389822485,0.16503758879707098]",100.0,"[-0.134866109411624,-0.06894863967164361]",100.0,"[0.1165270531488799,-0.0024691089913444963]",4.0,"[0.02,0.02]",193.2677,0.0,28.0,28.0,54.0,1.0,,,,,,,
,,,,,,,5d36e5a972282e0019605fa0,684428b48a1770798672be07,2025-06-07_13h56.38.052,shape_ratio,2024.1.5,Win32,61.72839506,684250e4f00cb30b92d1fa88,,,,,,,,,,,193.268,193.7672,,,194.0175,194.3495,right,,,,,,,,0.1,0.3244,,,,,,,193.7672,194.0174,194.3496,"[0.00680439394821611,-0.11694850669030539]",4.0,"[0.13283401114899146,0.007019883143923751]",4.0,"[0.03890650750293164,0.032737542511985775]",4.0,"[0.1792209209659901,0.04666694601061918]",4.0,"[-0.02969339215348972,-0.15712212465305586]",100.0,"[-0.009714915242672548,-0.026967830205975093]",4.0,"[-0.10634235162069458,0.15815282663072522]",4.0,"[0.11714390081668241,-0.035867033694769464]",4.0,"[0.051639948397737515,-0.1461921044989752]",4.0,"[-0.0871858695558419,0.0063278452529045345]",4.0,"[0.11976040446704511,0.11924140645087966]",4.0,"[0.10922504098055641,-0.11815161502640321]",100.0,"[-0.0857108656151408,-0.06589949868823458]",4.0,"[-0.17762263502660297,-0.08381358659021251]",4.0,"[0.16111603160173124,-0.06485675396512199]",4.0,"[0.08162831624665251,-0.08771569689470919]",4.0,"[-0.12564953219311717,0.06957325333067452]",4.0,"[0.0008654520926980958,0.1401982710418425]",4.0,"[-0.03083212270168966,0.19610807790555518]",4.0,"[0.006662651000484738,-0.0674758731542674]",4.0,"[-0.13532966568050517,0.022105352775983703]",4.0,"[0.02955840680535302,-0.008227767709530506]",4.0,"[0.058785081253320604,-0.049887244463131176]",4.0,"[0.03364253234801747,0.09736113513754191]",4.0,"[0.13676975680605272,0.08018536602414529]",4.0,"[-0.0736770295838693,-0.16912310394518953]",4.0,"[-0.1537056968534212,0.10005992135398808]",4.0,"[-0.1792423595978329,0.018650747885100554]",4.0,"[-0.15311474117973287,-0.12381095216053882]",4.0,"[-0.040877982450171914,-0.11380851409172159]",100.0,"[0.08228134968481621,0.0985682126486971]",4.0,"[-0.12989682942714068,-0.03600253638448071]",4.0,"[0.02,0.02]",195.4482,0.0,29.0,29.0,190.0,1.0,,,,,,,
,,,,,,,5d36e5a972282e0019605fa0,684428b48a1770798672be07,2025-06-07_13h56.38.052,shape_ratio,2024.1.5,Win32,61.72839506,684250e4f00cb30b92d1fa88,,,,,,,,,,,195.4487,195.9466,,,196.1965,196.6789,left,,,,,,,,0.4,0.4657,,,,,,,195.9466,196.1965,196.6789,"[-0.0473821742661287,-0.00899090814055932]",4.0,"[0.018318622346803384,-0.03739577597301079]",100.0,"[0.01447640857197755,-0.13120871213596152]",4.0,"[0.17297920845488227,0.020574293127929223]",4.0,"[-0.13110258357569188,0.058011717931976375]",100.0,"[0.1442032934975106,-0.07609774807332197]",4.0,"[-0.02510431890698022,0.1697216492300166]",4.0,"[-0.09223285273748169,0.17030600419679875]",100.0,"[0.06513582111142173,-0.018315451014351194]",100.0,"[0.13386455379470677,0.009029163992049866]",4.0,"[-0.15682491157208983,-0.06329185849565744]",4.0,"[0.09886369783059529,-0.16846129106976326]",4.0,"[-0.09373727850488793,0.10594782040415592]",4.0,"[0.01469038212224297,0.11581483485062291]",100.0,"[0.12198793136517633,0.1111306352410188]",4.0,"[-0.07861000459726145,0.02293043074646647]",4.0,"[0.17774121176245944,0.08242051536256309]",100.0,"[0.060776681583610305,-0.07280032096593164]",100.0,"[0.10958512729761465,-0.10883931665497566]",100.0,"[0.10346458504991658,0.04297353172889143]",100.0,"[-0.04628389513604731,0.10178783619996508]",4.0,"[-0.10093436088141633,-0.1460052019643918]",100.0,"[0.029118870747273158,0.05817672884846662]",100.0,"[0.16594517721584687,-0.019459552281849223]",4.0,"[0.01303587367006268,-0.18550686808839972]",4.0,"[-0.16754066903366674,0.024764892636385556]",4.0,"[-0.08581562623768804,-0.03855106869784413]",100.0,"[0.086518511783995,0.09120029633436232]",4.0,"[-0.05455304822572895,-0.12312243768082791]",4.0,"[0.10809391123056344,0.14864328790947925]",4.0,"[0.10219973371301516,-0.06016311106794748]",100.0,"[-0.010104448921360672,-0.09870954581650207]",4.0,"[0.02,0.02]",197.7775,0.0,30.0,30.0,159.0,1.0,,,,,,,
,,,,,,,5d36e5a972282e0019605fa0,684428b48a1770798672be07,2025-06-07_13h56.38.052,shape_ratio,2024.1.5,Win32,61.72839506,684250e4f00cb30b92d1fa88,,,,,,,,,,,197.7781,198.2763,,,198.5262,198.9419,left,,,,,,,,0.45,0.4086,,,,,,,198.2764,198.5262,198.942,"[-0.026152357085686802,-0.19764841681833745]",4.0,"[0.06424221353901366,0.0022276941990081248]",100.0,"[-0.008603923888820425,0.06289033376370218]",4.0,"[-0.10281789807017276,0.11729807030742839]",4.0,"[0.11311841967111412,0.14302797559679697]",4.0,"[-0.0011080695784482465,-0.11510298452707571]",100.0,"[-0.03919447753340763,-0.13983114099555358]",100.0,"[0.12273990456951273,-0.03065925618860113]",100.0,"[0.09651472326623121,-0.17299430620890335]",4.0,"[0.060485723394884804,-0.09375443890158598]",100.0,"[-0.09619434744712217,0.15681136319278868]",4.0,"[0.1733404440211626,0.004848839067124953]",100.0,"[-0.15768971597136355,0.08527829252145876]",4.0,"[0.13412505980788758,-0.07223615606980294]",100.0,"[-0.04675169302580207,0.08177115937830133]",4.0,"[0.12671611200900898,0.06644779907597122]",4.0,"[0.05552317057029843,-0.18357020129144216]",4.0,"[-0.01952111400724335,0.009911424252160506]",4.0,"[-0.09910625593558114,-0.02739192537372459]",100.0,"[-0.12953756942686603,0.005466159614206152]",100.0,"[-0.17946319158115878,0.008358867455164462]",100.0,"[-0.0016265217743170726,0.17803365883729103]",4.0,"[0.07977730370756979,-0.049202050634836306]",100.0,"[0.06520806972852657,0.08384991053286045]",100.0,"[0.06598585439162004,0.15375921899825265]",4.0,"[0.15765789036841996,-0.11648307497367631]",4.0,"[0.11585203533390934,-0.11448870706219483]",100.0,"[-0.18178630394571255,-0.05444057697389563]",100.0,"[-0.041797393980895416,-0.06097956544519304]",4.0,"[-0.08712173776684595,0.04931880809153775]",4.0,"[-0.1150911090484209,-0.12547347449475557]",4.0,"[-0.1478305275933425,-0.08984017407307897]",4.0,"[0.02,0.02]",200.0403,0.0,31.0,31.0,124.0,1.0,,,,,,,
,,,,,,,5d36e5a972282e0019605fa0,684428b48a1770798672be07,2025-06-07_13h56.38.052,shape_ratio,2024.1.5,Win32,61.72839506,684250e4f00cb30b92d1fa88,,,,,,,,,,,200.0406,200.5396,,,200.7895,201.0885,right,,,,,,,,0.4,0.2668,,,,,,,200.5396,200.7895,201.0886,"[-0.059934338007887215,0.11417101505206698]",4.0,"[-0.03662694531652897,-0.1610102917242517]",4.0,"[0.111715135057311,-0.10395031766219684]",100.0,"[-0.10563718206919036,0.10148011944880342]",4.0,"[0.1448651105319033,0.0401498565450776]",100.0,"[0.06282741733132668,0.10921947784305165]",4.0,"[-0.09161558082296245,0.010674641342725805]",4.0,"[-0.1546993225146447,-0.08661347794560326]",100.0,"[-0.11051142392171466,-0.16047176147602707]",100.0,"[0.10479829296755964,0.16394248930934877]",4.0,"[-0.17729393640181643,0.02570835568666971]",4.0,"[0.09891631137626315,0.07208271094425911]",4.0,"[0.15557423982649882,-0.05349222028941802]",100.0,"[0.054834426178901205,0.04331737746674853]",100.0,"[-0.04153018561018284,-0.11967512998130611]",4.0,"[-0.0832637381388745,-0.10328769218029467]",4.0,"[-0.04510742962040727,0.06784034544024033]",100.0,"[0.1643671623284083,0.08248116694331378]",4.0,"[0.03511032364348323,-0.121800129033099]",100.0,"[-0.09639974685462463,-0.06128812535734046]",100.0,"[-0.15487370711988088,-0.03930143651202971]",4.0,"[0.15230307331424084,-0.1121552292768514]",4.0,"[0.014164772864023715,0.032970492724026856]",100.0,"[0.0206638273823947,0.17274102232709881]",100.0,"[0.12411929399373513,-0.0009139738758372841]",4.0,"[-0.02037944328615949,0.17819384789989823]",4.0,"[0.1864961207962725,0.03204764721911883]",4.0,"[0.009623990644396523,-0.03389726391955335]",4.0,"[0.011825530535691792,-0.16742789173518585]",100.0,"[0.10490562255398204,0.11658220595221828]",100.0,"[0.164478424677085,-0.0023636647292925323]",4.0,"[-0.030522995961552765,-0.037976512390130904]",4.0,"[0.02,0.02]",202.1867,0.0,32.0,32.0,160.0,1.0,,,,,,,
,,,,,,,5d36e5a972282e0019605fa0,684428b48a1770798672be07,2025-06-07_13h56.38.052,shape_ratio,2024.1.5,Win32,61.72839506,684250e4f00cb30b92d1fa88,,,,,,,,,,,202.187,202.6865,,,202.9362,203.1852,right,,,,,,,,0.55,0.2212,,,,,,,202.6865,202.9361,203.1853,"[0.006310266280086706,-0.1558192221269787]",4.0,"[-0.06189298653755223,0.05308920431082597]",100.0,"[0.048873868125034074,-0.07981804962100109]",4.0,"[0.13257345116427396,-0.02470683598402942]",4.0,"[-0.0006696334696114781,-0.04520695810900123]",4.0,"[0.06116729495478279,-0.1266747885484186]",4.0,"[-0.18461674964444422,0.07641643589019957]",100.0,"[-0.0978732562492464,-0.03494609084505434]",4.0,"[-0.11574170859301271,0.10649423034705345]",4.0,"[0.15154472913191705,0.06971368338905745]",100.0,"[-0.07791399911519488,0.150744479721558]",100.0,"[-0.07646103420208823,-0.18412928949536575]",100.0,"[0.10000021623799596,0.039889024252431224]",100.0,"[-0.19026769711435143,-0.03747524103783387]",100.0,"[0.02262249507179352,0.03922710290851377]",4.0,"[-0.08848270524582823,0.005263083950812614]",100.0,"[0.08786501908039779,0.10553943702471016]",4.0,"[-0.04581296131846502,0.18615505634157273]",4.0,"[-0.02523446364429554,0.027835546729714482]",100.0,"[-0.14293423171284034,-0.07578382006407594]",100.0,"[0.032208497125591685,0.10552361412436836]",100.0,"[-0.02602627862700255,-0.10627477029917243]",100.0,"[-0.03967936568760296,-0.06581583868633296]",100.0,"[-0.027814269074175467,0.08344730914746774]",100.0,"[0.0504997328118573,0.16178272496241894]",100.0,"[0.15307995828926838,0.02015965948531301]",100.0,"[-0.06774042042459903,-0.12124323006986515]",4.0,"[-0.12455429873313441,0.14673449875334474]",100.0,"[0.01060270084822809,-0.003975977506091875]",4.0,"[0.133029425966158,-0.071634321850307]",4.0,"[-0.005832587181210192,-0.19789272465920893]",4.0,"[-0.03386638190591406,0.13583303804565405]",100.0,"[0.02,0.02]",204.2834,0.0,33.0,33.0,87.0,1.0,,,,,,,
,,,,,,,5d36e5a972282e0019605fa0,684428b48a1770798672be07,2025-06-07_13h56.38.052,shape_ratio,2024.1.5,Win32,61.72839506,684250e4f00cb30b92d1fa88,,,,,,,,,,,204.2837,204.783,,,205.0329,205.4484,left,,,,,,,,0.5,0.4095,,,,,,,204.7831,205.0329,205.4484,"[-0.06843176944965722,0.13687991145710723]",4.0,"[0.09992870729496374,-0.048994574655914204]",4.0,"[0.12682732495901097,0.01654676634604733]",4.0,"[0.09215205708305728,-0.104800428118474]",4.0,"[-0.1409022458405633,-0.10515793153760619]",4.0,"[0.07482282436693334,0.050398398179829974]",100.0,"[-0.10594062352438091,0.10579694233009612]",100.0,"[0.012424373031679701,0.006329313400327821]",100.0,"[-0.07152712846309481,0.03501517787574419]",4.0,"[0.025067112774414892,-0.17946577798677268]",4.0,"[0.1386919729975696,0.1036714722962952]",4.0,"[0.015805506208583373,-0.055928046014768557]",4.0,"[-0.1893454147811454,0.048252448588258216]",4.0,"[-0.02860655264819011,-0.07109191836389925]",4.0,"[0.03933394478020014,0.07989361155131793]",100.0,"[-0.0028029420639417665,0.06104695620804609]",100.0,"[-0.023803454717096287,-0.02832661163970119]",100.0,"[-0.06549159654247899,-0.1551327262722423]",4.0,"[0.01916625364114906,0.14969222235410165]",100.0,"[-0.011544814539086028,-0.1582249096221002]",100.0,"[0.15771059683823532,-0.05827027287006241]",100.0,"[0.04788946566512389,-0.13580443302204515]",100.0,"[-0.0708937962295224,-0.04667670098916588]",100.0,"[0.08201520029881494,-0.16117890108547586]",4.0,"[0.05058204461775336,-0.03357538192290907]",100.0,"[-0.09154393550358136,-0.10803047399810506]",4.0,"[0.09159012532985093,0.1551153461138547]",100.0,"[-0.10688870778151863,0.1603695853603917]",100.0,"[-0.1366353614597455,0.009436649001449623]",4.0,"[-0.03160057780748277,0.02680261071974897]",100.0,"[0.12399925443342745,-0.13786445662026114]",100.0,"[0.15554073154732492,0.06622809356304113]",4.0,"[0.02,0.02]",206.5463,0.0,34.0,34.0,117.0,1.0,,,,,,,
,,,,,,,5d36e5a972282e0019605fa0,684428b48a1770798672be07,2025-06-07_13h56.38.052,shape_ratio,2024.1.5,Win32,61.72839506,684250e4f00cb30b92d1fa88,,,,,,,,,,,206.5466,207.0455,,,207.296,207.6449,right,,,,,,,,0.4,0.3168,,,,,,,207.0455,207.296,207.6449,"[0.11019239146497063,0.004224860480793819]",100.0,"[0.17594274827540368,0.040864222341610586]",100.0,"[-0.05053084625497045,-0.05715557758915831]",4.0,"[-0.019796089362669158,0.15741222535726287]",4.0,"[0.03406775633344777,0.017672131585536145]",4.0,"[0.04729997555553124,-0.1567851471036446]",4.0,"[-0.01720621613866566,-0.011244129954390163]",100.0,"[0.11207637529883877,-0.15555774660179847]",100.0,"[-0.09301708301881056,-0.04191371985709125]",4.0,"[-0.027938736659653685,-0.10688032866557752]",4.0,"[-0.01754051798474424,0.06899169852956097]",100.0,"[-0.06696257114178221,0.06595077729365517]",4.0,"[0.16569400708110382,-0.06602435649534542]",4.0,"[-0.1452212740706412,0.10112605968736826]",4.0,"[-0.10264225788865346,0.15615422139853088]",100.0,"[0.17803077153606928,-0.007629078802218792]",100.0,"[-0.002522235784418832,0.11558922372206566]",100.0,"[0.1141212344190147,-0.10855760353796663]",4.0,"[-0.06855879750417522,0.11728547857698009]",100.0,"[0.10173829980445706,0.1343778092884709]",4.0,"[0.08933923659193382,-0.04698616162811062]",4.0,"[0.019717269133517297,0.17762226615474436]",100.0,"[0.06813294106384282,-0.09587189046225215]",4.0,"[-0.09893850854319274,-0.132924309898389]",4.0,"[-0.11089484781169467,0.04083652063234502]",100.0,"[0.05753107519817891,0.16292876339598106]",4.0,"[0.013364860408728956,-0.12007265701704181]",4.0,"[0.05410659081026896,0.07175682557554272]",4.0,"[-0.17993429029917996,-0.03470929566357789]",4.0,"[-0.04133901595706349,-0.15819643129594235]",100.0,"[-0.13428144453447455,-0.019271379664866497]",100.0,"[0.021011776648244794,-0.0724259846495046]",4.0,"[0.02,0.02]",208.7434,0.0,35.0,35.0,156.0,1.0,,,,,,,
,,,,,,,5d36e5a972282e0019605fa0,684428b48a1770798672be07,2025-06-07_13h56.38.052,shape_ratio,2024.1.5,Win32,61.72839506,684250e4f00cb30b92d1fa88,,,,,,,,,,,208.7439,209.2427,,,209.4925,209.7754,right,,,,,,,,0.5,0.2548,,,,,,,209.2427,209.4925,209.7755,"[-0.039754382246253,0.13435296138375896]",4.0,"[0.15636326571898498,0.10310800151087264]",4.0,"[-0.07198195887906854,0.02109261786312731]",4.0,"[0.1353969582337177,0.13907019874430002]",100.0,"[0.09435196001138811,-0.16697210120001574]",100.0,"[-0.11416929755995418,0.14380324967411287]",4.0,"[0.013981420239118893,0.15831713716320747]",4.0,"[-0.11552546226343227,0.013129766049615634]",100.0,"[0.04533889267944172,-0.11383128424634945]",4.0,"[0.05636032062471331,0.06089289335445742]",100.0,"[0.1840376055494722,0.04298032220522058]",100.0,"[-0.018765050018910347,0.08071649340252608]",100.0,"[0.10203314810964859,0.049339503757801564]",4.0,"[0.08773961594551112,0.10490963802509677]",4.0,"[-0.055832044578161905,0.09587367904793218]",100.0,"[-0.17254267531910453,0.08142215433450993]",4.0,"[0.07061226405692288,0.011161986157045816]",4.0,"[0.001703244064643418,-0.1765046892887854]",100.0,"[-0.05461699792870656,-0.040287447061336384]",4.0,"[0.139469476270654,-0.09029839290331511]",100.0,"[-0.19429260629232897,-0.007366160373620925]",100.0,"[0.10729946584741192,-0.01769766724571256]",100.0,"[0.10702231505312962,-0.06661126060134427]",4.0,"[-0.046823509612901215,-0.09472327992102643]",100.0,"[-0.15314160025699322,0.1257707039870161]",100.0,"[-0.00903049790057058,0.19650104892492243]",100.0,"[-0.03052702612095797,-0.13262621193541965]",100.0,"[-0.07316306308278347,-0.1401356598891388]",4.0,"[0.17177919438973693,-0.03548529217841124]",4.0,"[0.029171104059248033,-0.07144021056221547]",4.0,"[0.02223585992315978,0.03527450497506445]",4.0,"[0.01735309946747911,0.10627404849068275]",100.0,"[0.02,0.02]",210.8733,0.0,36.0,36.0,110.0,1.0,,,,,,,
,,,,,,,5d36e5a972282e0019605fa0,684428b48a1770798672be07,2025-06-07_13h56.38.052,shape_ratio,2024.1.5,Win32,61.72839506,684250e4f00cb30b92d1fa88,,,,,,,,,,,210.8738,211.3718,,,211.6239,211.8877,right,,,,,,,,0.5,0.2446,,,,,,,211.3719,211.6239,211.8878,"[0.0064232716823764725,0.16470851782699272]",100.0,"[0.01138077671025098,0.009927569724170447]",4.0,"[0.16108150197723115,0.08533549918956497]",100.0,"[0.13494297907816274,-0.13189429485639148]",100.0,"[0.031372579202958766,-0.08857589863587904]",100.0,"[-0.024678247054108003,-0.010585473030384741]",4.0,"[-0.010487326584756365,-0.1489088710788071]",4.0,"[-0.06791907672934369,0.06980965044609357]",4.0,"[-0.12844138759549478,-0.06414600428765513]",4.0,"[0.16026639816771218,-0.09559609495369464]",100.0,"[-0.013685840873896552,0.10511658424494467]",100.0,"[-0.1353196401158269,-0.13010267327925065]",4.0,"[0.04763598436547941,-0.1554806473370689]",100.0,"[0.08828131526074347,-0.0758111083634648]",4.0,"[0.027054284890373374,0.07899745511534427]",100.0,"[-0.05863405399146805,0.13392335834527966]",100.0,"[0.10539816413067044,-0.02343294643024297]",4.0,"[-0.17636215140779501,-0.0916400048776936]",100.0,"[-0.18530258178505257,-0.04583745974774063]",100.0,"[0.16080131674043607,-0.03556945459665391]",4.0,"[-0.10541258268023103,0.15226001027766192]",4.0,"[0.08303886217090663,0.10970195409566459]",4.0,"[-0.09007375711979825,-0.14965050235802138]",100.0,"[-0.1464154516048623,0.04908168139340662]",4.0,"[0.05743903378558932,-0.045601736470007335]",4.0,"[0.1078028446289248,0.1421312041741858]",100.0,"[0.18173333374205128,0.01717931831155756]",4.0,"[-0.030164041799673625,-0.09387230172884317]",4.0,"[-0.011661942314380908,0.061017589840147664]",4.0,"[0.05893250187378746,0.16432477769952697]",100.0,"[-0.06742607788509154,0.18810228732095505]",100.0,"[0.13759088408942186,0.016460311354455966]",100.0,"[0.02,0.02]",212.9863,0.0,37.0,37.0,96.0,1.0,,,,,,,
,,,,,,,5d36e5a972282e0019605fa0,684428b48a1770798672be07,2025-06-07_13h56.38.052,shape_ratio,2024.1.5,Win32,61.72839506,684250e4f00cb30b92d1fa88,,,,,,,,,,,212.9869,213.4859,,,213.7353,214.0509,right,,,,,,,,0.5,0.3011,,,,,,,213.4859,213.7353,214.051,"[0.026430665001578712,0.160134106999343]",4.0,"[0.13346610407276505,0.09699137073271509]",100.0,"[0.003985173163427428,-0.04828354060749626]",4.0,"[-0.16336219252875972,0.06451197842975416]",100.0,"[0.05154420898726101,-0.13354431882973344]",4.0,"[0.046316237804573696,-0.08800032992687186]",100.0,"[-0.02434355176506991,0.1077835403093945]",4.0,"[-0.07328048315913643,-0.04946414109007371]",100.0,"[-0.06760819582851482,-0.15527766904440798]",100.0,"[-0.09107484597771945,0.11409690203288897]",100.0,"[-0.036451610580390446,-0.08180286691392558]",100.0,"[0.18948097936919267,0.05551209612865096]",100.0,"[-0.11989642834174585,-0.01964948053265309]",100.0,"[0.01361549339159995,0.08046180458623643]",100.0,"[0.07572566466013154,0.10941381449904952]",100.0,"[-0.07372726984940603,-0.0009376513046076855]",100.0,"[0.046597913403572395,-0.17544621119809542]",4.0,"[0.13296680399119593,0.02062537550432869]",4.0,"[0.10973778460795666,-0.13797563772306892]",100.0,"[0.08839184239004338,-0.062282924978836696]",4.0,"[-0.12736034972323235,0.13760381919847936]",4.0,"[-0.13581197933283407,0.026132524673342896]",4.0,"[-0.09386260231922089,-0.11434961408655611]",4.0,"[-0.19310311469803815,-0.017204186976376646]",4.0,"[-0.07746054514057557,0.04936317184194678]",4.0,"[0.06691833171995508,-0.008942974196163037]",4.0,"[0.10001132932013865,0.046653847636556195]",100.0,"[-0.11338469167215781,-0.06365101693635669]",4.0,"[-0.017078595888491945,-0.00005885352289109701]",100.0,"[-0.013285289411850837,-0.13700905407303682]",4.0,"[0.159415678202461,-0.022871663438494103]",100.0,"[-0.06604394235066052,0.17787776127625646]",4.0,"[0.02,0.02]",215.1496,0.0,38.0,38.0,106.0,1.0,,,,,,,
,,,,,,,5d36e5a972282e0019605fa0,684428b48a1770798672be07,2025-06-07_13h56.38.052,shape_ratio,2024.1.5,Win32,61.72839506,684250e4f00cb30b92d1fa88,,,,,,,,,,,215.1498,215.6485,,,215.8989,216.2142,right,,,,,,,,0.5,0.2928,,,,,,,215.6486,215.8988,216.2143,"[0.10496110417912745,-0.11815960954252885]",100.0,"[0.06490254594658719,-0.058082635028601615]",100.0,"[0.06232833336507795,0.07531902157579143]",4.0,"[-0.19883893557059654,0.005911762191742499]",100.0,"[0.0030740115589443706,0.129254884812457]",4.0,"[-0.15876911523289755,-0.025367361202989977]",100.0,"[0.1607874333878566,-0.01786770523008683]",4.0,"[-0.04824022156393987,0.14467887247921957]",100.0,"[0.020516854036449084,-0.1644158428293624]",4.0,"[-0.024863258580723007,-0.13493450249333883]",4.0,"[0.0994358585611039,-0.023480751545355023]",100.0,"[0.12182561067979619,0.10385122096348752]",100.0,"[-0.00583097308918239,-0.08007574905168591]",100.0,"[-0.11595525855739519,0.04418991674067499]",4.0,"[-0.08936408593307228,-0.15674535115617058]",100.0,"[0.018703118094979942,-0.04116808610692156]",4.0,"[-0.057761389092572106,0.1851509058671746]",100.0,"[-0.08268315537373093,-0.06894723039849156]",100.0,"[0.013568097110050935,0.04738249131009926]",4.0,"[-0.17160580986176216,0.05756028037302358]",4.0,"[-0.1147176792999744,-0.017622599918515246]",4.0,"[-0.06891945237051737,0.03707339534075653]",100.0,"[-0.13139794100839264,-0.057941438612387874]",100.0,"[-0.13361410445318725,0.13561405013294178]",4.0,"[0.016406143314459637,0.004291424943412696]",4.0,"[0.054549949502632054,0.16044434382601838]",100.0,"[0.10526370625928762,-0.07360627564096754]",100.0,"[-0.08109184281173973,0.10458292605456869]",100.0,"[-0.04220978763393755,-0.19373368643839908]",4.0,"[-0.04129302289163896,-0.008703405032045789]",4.0,"[0.14078181760775804,-0.09727142401034237]",4.0,"[0.005792315120621512,0.19631141108112882]",4.0,"[0.02,0.02]",217.313,0.0,39.0,39.0,91.0,1.0,,,,,,,
,,,,,,,5d36e5a972282e0019605fa0,684428b48a1770798672be07,2025-06-07_13h56.38.052,shape_ratio,2024.1.5,Win32,61.72839506,684250e4f00cb30b92d1fa88,,,,,,,,,,,217.3134,217.8117,,,218.0626,218.3114,left,,,,,,,,0.55,0.2218,,,,,,,217.8117,218.0624,218.3114,"[-0.11158702626878582,-0.1571848382801025]",100.0,"[-0.11124029503222545,-0.058767147833220734]",100.0,"[-0.043535972481806524,0.050400500041913425]",100.0,"[-0.035986453877331855,-0.014417761680034807]",100.0,"[0.0675233771845993,-0.11931354344704087]",100.0,"[-0.04822767451456756,0.16107202792699932]",100.0,"[-0.1263678069320175,-0.09795158223071525]",100.0,"[0.048273007058521146,0.16539559522445565]",100.0,"[0.0037980791534003885,-0.06651359800278386]",100.0,"[-0.09788877744499697,0.05957679094185549]",100.0,"[-0.02815789765995255,-0.11207334582989155]",4.0,"[0.11136938097941988,0.11403180016004937]",100.0,"[-0.1531701869919135,-0.042116547027933035]",4.0,"[0.16342215947966382,-0.056641265314754864]",100.0,"[-0.11184023681720369,0.01325779634338697]",4.0,"[0.12198763743216447,-0.08313004352249247]",4.0,"[0.03985857182220297,-0.0017689992536213605]",4.0,"[-0.14762579450458038,0.059297904967586364]",4.0,"[-0.07399934341950104,-0.1202384610485561]",100.0,"[0.08215293844156399,0.014379208244390372]",4.0,"[0.1554411805444652,0.12107668057370155]",4.0,"[-0.1740314902766881,0.019062159734872464]",100.0,"[0.05417277225134384,-0.03953639506845158]",4.0,"[-0.0837052604011123,0.11767412272540896]",4.0,"[0.14947441248986967,0.02963443617664962]",100.0,"[0.14131736955340457,-0.12426995088840662]",4.0,"[0.050089056653793394,0.05148085681417633]",4.0,"[0.0017238469544539547,0.03829082976675913]",100.0,"[-0.05150679754984138,-0.18186915640220994]",100.0,"[0.03888489649338411,0.0994048424523204]",100.0,"[0.1747742479058803,-0.00566776256076909]",4.0,"[0.02526696882293459,-0.14826372289373946]",4.0,"[0.02,0.02]",219.4092,0.0,40.0,40.0,78.0,1.0,,,,,,,
,,,,,,,5d36e5a972282e0019605fa0,684428b48a1770798672be07,2025-06-07_13h56.38.052,shape_ratio,2024.1.5,Win32,61.72839506,684250e4f00cb30b92d1fa88,,,,,,,,,,,219.4095,219.9085,,,220.1588,220.4746,right,,,,,,,,0.55,0.3003,,,,,,,219.9086,220.1587,220.4747,"[-0.07592564460055944,0.011218640380229426]",4.0,"[-0.12164495050449871,0.008297503966280326]",100.0,"[-0.10557329046740169,-0.06592438579561084]",100.0,"[-0.13209498392363372,0.13235444659732848]",4.0,"[-0.12154365152778891,0.0930258684876794]",100.0,"[0.10258360992776651,0.011427786630086144]",100.0,"[-0.07492454386897412,0.0932901052041812]",4.0,"[0.09746028282954239,0.06521522491685114]",100.0,"[-0.06565949304281254,-0.04136504377663988]",100.0,"[0.04651871306969481,0.15788052108192946]",100.0,"[0.030196971174417733,-0.10842576888605227]",100.0,"[0.08352101306541437,-0.07468787942116713]",4.0,"[-0.00025472516248996216,0.10634427927930412]",4.0,"[0.03331423204966651,-0.05209721378618988]",100.0,"[0.16733278212387045,0.07082870394299753]",100.0,"[-0.19145292969725233,-0.04413053552841873]",100.0,"[-0.08775768896318514,0.050399926614835944]",100.0,"[0.1821792920245248,-0.03728387472447526]",4.0,"[0.08101568705105797,0.10895643968187012]",100.0,"[-0.016920626021410135,0.19367907770262613]",100.0,"[0.026408823111891164,-0.008970270979804464]",4.0,"[-0.044609375468343496,-0.11384128333445061]",4.0,"[-0.015150292153559805,-0.07508929275158181]",100.0,"[-0.09444649443640019,0.14695522158778093]",4.0,"[0.020392484956821992,-0.15661655127628582]",4.0,"[0.11030406353658438,-0.14351212262292445]",100.0,"[-0.01721694037585761,-0.008182266917792292]",4.0,"[-0.10068960187886263,-0.1095706694126734]",4.0,"[-0.02150989947567801,-0.1886313308672967]",100.0,"[-0.04886387518183316,0.1538685329093888]",100.0,"[0.04456152858613429,0.032372308427018784]",4.0,"[-0.1414029573860358,0.04517636567123321]",4.0,"[0.02,0.02]",221.5724,0.0,41.0,41.0,80.0,1.0,,,,,,,
,,,,,,,5d36e5a972282e0019605fa0,684428b48a1770798672be07,2025-06-07_13h56.38.052,shape_ratio,2024.1.5,Win32,61.72839506,684250e4f00cb30b92d1fa88,,,,,,,,,,,221.5727,222.0725,,,222.3219,222.5707,left,,,,,,,,0.9,0.2234,,,,,,,222.0726,222.3218,222.5707,"[0.09666827263739682,-0.022827644967544667]",100.0,"[0.15376169634864215,-0.1231435666689824]",100.0,"[-0.11470395696608233,-0.016026916354521963]",100.0,"[-0.1305534642959776,0.08180548684339815]",100.0,"[0.051944928226861094,-0.03260843511951822]",100.0,"[-0.15518740543880602,0.04252168531403251]",100.0,"[0.0035210385848089363,0.19176309440766]",100.0,"[-0.13145239849487156,-0.10401329846392912]",4.0,"[-0.13390910826624594,0.12334891891698489]",100.0,"[0.019433783234917366,-0.14767022729326829]",4.0,"[-0.05767861463275861,0.12175602064249202]",4.0,"[0.0623207284899869,-0.1707549903930608]",100.0,"[0.0671833107873291,-0.09463297122806465]",100.0,"[0.05662373262893444,0.08255564051026172]",100.0,"[-0.00285180098444219,0.11265704847405242]",100.0,"[0.08863775859566991,-0.13318383927035357]",100.0,"[0.004123330103752487,0.007866606163620215]",100.0,"[-0.09677078318767329,-0.060849004838421865]",100.0,"[-0.0256255135500831,-0.13029262817398926]",100.0,"[0.1448633699338621,0.009459153523352607]",100.0,"[0.10437301871102694,0.16036682109728195]",100.0,"[-0.047455531391025214,-0.004989976268602156]",100.0,"[0.09334924013390582,0.0240529476077174]",100.0,"[0.01644384874512314,-0.10015144555452059]",100.0,"[0.16196359047512932,-0.07808379907103305]",100.0,"[-0.021309044492236834,-0.03577282270233506]",100.0,"[-0.16327429548630257,-0.0738265571233182]",100.0,"[0.1734108353603617,-0.035972687976503555]",100.0,"[0.19585659337563482,0.013968703478031]",100.0,"[0.12672969029843598,0.08609801481921237]",100.0,"[0.12009526784897795,-0.07122980228130583]",100.0,"[0.146105079670687,0.128669574275929]",100.0,"[0.02,0.02]",223.6691,0.0,42.0,42.0,14.0,1.0,,,,,,,
,,,,,,,5d36e5a972282e0019605fa0,684428b48a1770798672be07,2025-06-07_13h56.38.052,shape_ratio,2024.1.5,Win32,61.72839506,684250e4f00cb30b92d1fa88,,,,,,,,,,,223.6696,224.1684,,,224.4186,224.7838,right,,,,,,,,0.1,0.3326,,,,,,,224.1685,224.4186,224.7838,"[-0.000004848843148363107,0.11314283529272724]",4.0,"[0.07508679625929045,0.16565585737965588]",4.0,"[-0.05389509617790905,-0.13985068208549942]",100.0,"[0.07778694823468515,-0.06484120602678974]",4.0,"[0.14745690800932412,-0.0805219547025468]",4.0,"[-0.1518083420595114,0.03160526076405719]",4.0,"[-0.008921498116004026,-0.15441677528075612]",100.0,"[0.04485850478199805,-0.005749422837725673]",4.0,"[-0.09330929983431252,0.09300633550217426]",4.0,"[0.03552586305664529,-0.1524292373739274]",4.0,"[-0.06779795913238551,-0.030150908970877435]",4.0,"[0.0683684161087358,-0.10894835206631662]",4.0,"[0.09699325346747235,0.0579435916976718]",4.0,"[0.03226940649129382,0.046823041852675634]",4.0,"[0.14459200684463389,0.07902028264506054]",4.0,"[-0.18418270457871436,0.06208035863204725]",4.0,"[-0.0017331801415114197,0.004655226490727485]",4.0,"[-0.16031664955419417,-0.06527118600904136]",4.0,"[-0.03771736874990172,-0.0701933108331204]",4.0,"[0.027941520064305055,-0.0701384467534154]",4.0,"[0.07443763844059663,-0.1701670423219792]",4.0,"[-0.09209825309130654,0.13802174341465517]",4.0,"[-0.09616386127164826,0.025294775411685542]",4.0,"[-0.039421647726993046,0.09452799380941979]",4.0,"[-0.02890220855635062,0.1671006074269935]",4.0,"[0.09485411915856601,0.11656227605757265]",4.0,"[0.17697111960203676,0.008461246106533088]",4.0,"[0.14180092416299261,0.13732906332368122]",4.0,"[-0.07117173425648411,0.1799658126207897]",4.0,"[0.01091214368863337,-0.11104181575812389]",4.0,"[-0.14196916017364872,0.12288464317341752]",100.0,"[0.09995812027337407,0.00075162316764493]",4.0,"[0.02,0.02]",225.8825,0.0,43.0,43.0,200.0,1.0,,,,,,,
,,,,,,,5d36e5a972282e0019605fa0,684428b48a1770798672be07,2025-06-07_13h56.38.052,shape_ratio,2024.1.5,Win32,61.72839506,684250e4f00cb30b92d1fa88,,,,,,,,,,,225.8828,226.3813,,,226.631,226.8806,left,,,,,,,,0.5,0.2338,,,,,,,226.3813,226.631,226.8806,"[-0.16077555271175897,0.04102818557128149]",4.0,"[0.03916174401369252,-0.13288779724716115]",100.0,"[0.02585551845934792,0.005204470226746279]",100.0,"[0.08683085883943921,0.11270801052537668]",4.0,"[0.04889492552404298,-0.043561405689890365]",100.0,"[-0.05610781966167603,-0.06764036623447106]",4.0,"[0.08969419270045798,0.06865591611927983]",100.0,"[0.063056075054475,0.15304125415067504]",4.0,"[-0.14983775286821974,0.09608058475368364]",4.0,"[0.00505441237403915,-0.05356233791217256]",4.0,"[-0.024361147036225324,-0.14802251565834953]",100.0,"[-0.17993228569715497,-0.056927225823225805]",100.0,"[-0.00158661208300791,-0.09910519146889843]",4.0,"[0.17003462699052202,-0.0029131007115728723]",100.0,"[0.1051631859498419,-0.022007966358788194]",4.0,"[0.07088084829432281,-0.09677776820897044]",100.0,"[0.013419741913008288,0.05944956211972499]",100.0,"[0.12733146869466158,-0.07898308476117864]",100.0,"[-0.10204379702375414,-0.13905027157429334]",4.0,"[-0.026738396294874983,-0.02703633528264837]",4.0,"[0.12746469774857716,0.04996229904175469]",100.0,"[0.19082923495317392,-0.05241582792961464]",4.0,"[-0.09153973279112061,0.004525721503567945]",4.0,"[-0.03938199046654377,0.0872041333837983]",100.0,"[-0.1308242172918834,-0.06547406625768878]",4.0,"[-0.09779147545192135,0.08531754681315035]",4.0,"[0.04558225934320282,0.08557397130753079]",4.0,"[-0.0886339925705626,-0.04300350186341105]",100.0,"[0.1515934296448958,0.09453172870299101]",100.0,"[0.19372439301323624,0.04754726580890509]",4.0,"[-0.12536168818340956,0.13277891422289206]",100.0,"[0.10246534314866912,-0.13530791410512596]",100.0,"[0.02,0.02]",227.9791,0.0,44.0,44.0,97.0,1.0,,,,,,,
,,,,,,,5d36e5a972282e0019605fa0,684428b48a1770798672be07,2025-06-07_13h56.38.052,shape_ratio,2024.1.5,Win32,61.72839506,684250e4f00cb30b92d1fa88,,,,,,,,,,,227.9795,228.4779,,,228.7278,229.0608,right,,,,,,,,0.5,0.3005,,,,,,,228.4779,228.7278,229.0609,"[-0.07836777687522048,-0.1195067787917532]",100.0,"[0.0615049983945757,0.09181775806989077]",4.0,"[-0.013659244422582796,-0.12607536200261338]",4.0,"[-0.16752803969617017,-0.09544818211208975]",100.0,"[0.05139926432999151,0.05063573277940318]",4.0,"[-0.017079348227702334,0.15667341973155297]",4.0,"[-0.04051290034559283,-0.16825368255331094]",4.0,"[0.1355185113068906,0.02490443243519789]",100.0,"[0.10344103341584665,0.04994492296886437]",100.0,"[0.07877742505173933,-0.0788980644179293]",4.0,"[-0.11287066105076084,-0.05061600538614309]",100.0,"[0.05241222349713076,0.14095828236180455]",100.0,"[-0.09465061474383768,0.07084035168536215]",100.0,"[-0.15406767235670546,0.08390475213984903]",4.0,"[-0.1689145569229873,-0.025200437596087963]",4.0,"[0.12928742037942506,-0.06319741937244569]",100.0,"[0.03210463044270165,-0.13808393333410526]",4.0,"[-0.1363635505008614,0.03461444460327856]",100.0,"[0.04276192603728205,0.18178160177264036]",4.0,"[-0.0066711272268304605,-0.05122736632566186]",100.0,"[0.09627090253788334,-0.13797403411523335]",100.0,"[0.032818623045210035,-0.19636502903031502]",100.0,"[0.014875077061461852,-0.0025707741462725714]",100.0,"[-0.09137004759486145,0.11728807088439865]",100.0,"[-0.028474898933376822,0.07511952469025047]",4.0,"[-0.07985046313007861,0.16990519174918708]",100.0,"[0.05722732246191704,-0.027858900103238764]",4.0,"[-0.19046528029469922,0.02500319461820575]",4.0,"[0.02434081402362102,-0.09788286491089712]",4.0,"[-0.07434955451705168,-0.006403988161583979]",4.0,"[0.16493431092056546,-0.012408669399080608]",100.0,"[0.1282580689258083,0.13768665777475936]",4.0,"[0.02,0.02]",230.1588,0.0,45.0,45.0,104.0,1.0,,,,,,,
,,,,,,,5d36e5a972282e0019605fa0,684428b48a1770798672be07,2025-06-07_13h56.38.052,shape_ratio,2024.1.5,Win32,61.72839506,684250e4f00cb30b92d1fa88,,,,,,,,,,,230.1595,230.6583,,,230.9083,231.34,right,,,,,,,,0.9,0.3994,,,,,,,230.6584,230.9082,231.34,"[-0.01633344298707803,0.11522262626144406]",100.0,"[0.013166880792916022,-0.10320403092806378]",100.0,"[0.06972341487939766,-0.10627012520064305]",100.0,"[0.06455685820007888,-0.035948844957238726]",100.0,"[0.15720863215839684,0.00046682226272047004]",100.0,"[-0.1585068594380771,0.11865963132243472]",100.0,"[-0.004325119102581008,0.18980483785357463]",100.0,"[-0.16592222214566066,-0.0717341980872385]",100.0,"[-0.15682783039738155,0.03568552173723919]",100.0,"[-0.07910729815554976,0.05378351902037058]",100.0,"[-0.03871670229641077,-0.1224451214320869]",100.0,"[0.10980087204909006,-0.06160229557905757]",100.0,"[0.08086247374030574,0.10342686209289026]",100.0,"[-0.17746833724807434,-0.005059281709362424]",100.0,"[-0.10595217810600718,-0.007490101107858749]",100.0,"[-0.0673087193507521,0.10323524459085089]",100.0,"[-0.10970693839237208,-0.09200714580201165]",100.0,"[0.006768986120937132,0.07329098917873426]",4.0,"[0.12192154070585846,0.12956063053500153]",100.0,"[0.10612742061770612,-0.13375988870761826]",100.0,"[0.15300952637907358,0.04763720027849642]",100.0,"[-0.012169148028118526,-0.034123963111140236]",4.0,"[0.08705136459595572,-0.1788291411605905]",100.0,"[-0.019593325307847336,-0.07987515390523144]",100.0,"[0.03401630690582062,0.16574276449904504]",100.0,"[0.15472773298907455,-0.07786673447750166]",100.0,"[-0.016769898191963648,-0.16213179619870247]",100.0,"[0.19196757072825366,-0.04054741287310619]",100.0,"[0.04922584736139397,0.014086824524010891]",100.0,"[0.02731319881354923,0.12186539676111023]",100.0,"[-0.047910052510630505,0.15755380012335377]",100.0,"[0.11379797618913114,0.057186038196177694]",4.0,"[0.02,0.02]",232.4384,0.0,46.0,46.0,3.0,1.0,,,,,,,
,,,,,,,5d36e5a972282e0019605fa0,684428b48a1770798672be07,2025-06-07_13h56.38.052,shape_ratio,2024.1.5,Win32,61.72839506,684250e4f00cb30b92d1fa88,,,,,,,,,,,232.4387,232.9377,,,233.1881,233.47,right,,,,,,,,0.4,0.2502,,,,,,,232.9377,233.188,233.47,"[0.13440393680653231,0.1313667173958273]",4.0,"[-0.010673257161555807,0.015757884560660428]",4.0,"[0.040212124803099526,-0.014816532181805285]",4.0,"[-0.005812673128655763,0.08425055363781245]",4.0,"[0.08692013959163651,0.17503502442234992]",4.0,"[-0.13234089421243125,0.041947200263240086]",100.0,"[-0.08637811464072215,-0.15943230397934915]",4.0,"[0.1286545859778325,0.025128995282911924]",4.0,"[-0.08416807653851774,-0.07130321059333308]",4.0,"[-0.052023144035096384,0.0978387901155916]",4.0,"[0.09489561623344743,0.06558446381986859]",4.0,"[-0.15178239553589826,-0.10022238170039009]",100.0,"[0.15739248201657105,-0.12200997121704787]",4.0,"[0.11342701013853956,-0.09766788388965475]",100.0,"[0.05555649336173218,-0.14977436467265587]",4.0,"[-0.1358539283181364,0.090127671120323]",100.0,"[-0.02797899585015392,-0.08819536106050721]",4.0,"[-0.07201941256050966,-0.10991016042970055]",100.0,"[0.1863925181637109,0.03441796367764012]",4.0,"[-0.0252303689863608,0.19631888888345198]",100.0,"[0.029259418794775175,-0.07369514021454758]",4.0,"[-0.17318632956530394,0.05732146676922009]",4.0,"[0.1098840912274606,-0.1619562606549829]",100.0,"[-0.16737654024959714,-0.03224222949674965]",4.0,"[0.06750781363413948,0.10532469271856097]",100.0,"[-0.11930085587452732,-0.12725392172394442]",100.0,"[-0.04576060206833191,-0.18078249228428367]",4.0,"[-0.10662333306944966,-0.0023391840815071155]",4.0,"[0.06515400681977483,0.03869465149920686]",100.0,"[0.018472800666266335,-0.12882579911697817]",100.0,"[0.1214029109372852,-0.058386205227158317]",100.0,"[-0.08748092397253782,0.15216687091258443]",100.0,"[0.02,0.02]",234.5687,0.0,47.0,47.0,155.0,1.0,,,,,,,
,,,,,,,5d36e5a972282e0019605fa0,684428b48a1770798672be07,2025-06-07_13h56.38.052,shape_ratio,2024.1.5,Win32,61.72839506,684250e4f00cb30b92d1fa88,,,,,,,,,,,234.5691,235.0674,,,235.3175,235.6334,right,,,,,,,,0.4,0.3112,,,,,,,235.0674,235.3175,235.6334,"[-0.0969292159379318,0.012490621917592207]",4.0,"[-0.0014314751984152907,-0.11041710034680005]",100.0,"[-0.1092386449591625,-0.13472626680549435]",4.0,"[-0.10649271398201515,0.15638453573622407]",4.0,"[-0.06929267234770402,0.08790313182715208]",4.0,"[0.07524745495600628,0.055298283191113594]",4.0,"[-0.14807860544380466,0.037933748612096065]",100.0,"[0.07620597865277817,-0.0010917351689995356]",4.0,"[-0.11730414808423079,-0.08086624537727508]",100.0,"[-0.07580587516151534,-0.16768004576466222]",100.0,"[-0.06148576613312937,-0.016212443696500198]",4.0,"[0.13074074085366408,0.0785665160503975]",4.0,"[0.14795039604760274,0.01658259523813914]",100.0,"[0.11038040291675301,0.1409197223596935]",4.0,"[0.010024325059108375,0.13542818222381206]",100.0,"[-0.02706928239856529,0.19702627920011676]",4.0,"[-0.006128692750343856,-0.0075542121445789775]",4.0,"[0.08200491039165594,-0.13026608155302463]",4.0,"[0.049010196678724076,-0.06199358888189138]",4.0,"[-0.16536636463473356,-0.08413073632839096]",4.0,"[-0.14251579515471138,-0.001971930489707463]",4.0,"[0.03763760907369181,0.19296754198586247]",100.0,"[-0.1964839646517777,0.02327837292958097]",100.0,"[0.18110430418492574,-0.0250488645182487]",100.0,"[0.13658837433227008,-0.09223766466325564]",4.0,"[0.020067587242924345,-0.1863691500602821]",4.0,"[0.1884857044194929,0.0657216954613468]",4.0,"[0.1230758941639069,-0.1395445768968528]",100.0,"[-0.13750361795256238,0.12385209247738059]",100.0,"[0.034507649407039515,0.029537276716547413]",100.0,"[0.09724280354732352,-0.0848006657974357]",100.0,"[-0.07051880958702787,0.04526486949960967]",4.0,"[0.02,0.02]",236.7314,0.0,48.0,48.0,165.0,1.0,,,,,,,
,,,,,,,5d36e5a972282e0019605fa0,684428b48a1770798672be07,2025-06-07_13h56.38.052,shape_ratio,2024.1.5,Win32,61.72839506,684250e4f00cb30b92d1fa88,,,,,,,,,,,236.7317,237.2306,,,237.4807,237.7303,left,,,,,,,,0.55,0.227,,,,,,,237.2306,237.4807,237.7303,"[-0.09363681197005712,0.12390203112421393]",100.0,"[-0.09503314019242853,-0.008649490440327598]",4.0,"[0.10409577667386881,-0.16473696050312872]",4.0,"[0.06608971624700716,0.13566157077835536]",100.0,"[0.1583519810410325,0.039639841700339844]",100.0,"[0.10952323083302577,0.018962193013745143]",4.0,"[-0.09891638974134327,0.07306987605807112]",4.0,"[-0.029929084231263,0.15890109678588704]",100.0,"[-0.030473972392992838,0.1026258913689031]",100.0,"[-0.03848668933248333,-0.11098072997368412]",4.0,"[-0.023273317401062886,0.024086697132647]",100.0,"[0.03506178864745097,-0.0018725966407075443]",100.0,"[-0.1582229537993672,-0.10134294422487344]",4.0,"[-0.09625347857557813,-0.06860402068927073]",4.0,"[-0.059714228308278015,-0.028136939889821005]",4.0,"[-0.14132540289304457,0.13093893750908128]",100.0,"[-0.17847343425283227,-0.0024839406857233384]",4.0,"[0.026654943488817813,0.10290863685134316]",100.0,"[-0.06442323111066212,0.03978643814650624]",100.0,"[0.10945170766058997,-0.1011841414325438]",100.0,"[0.1039524710336884,0.1516686434078008]",100.0,"[0.16527152478758292,-0.08159287895351358]",4.0,"[0.12527248496408513,-0.02020277398981546]",100.0,"[-0.17351764290151062,0.07981981979957459]",100.0,"[0.0742943238907697,0.07967445469053876]",4.0,"[-0.17655844055942108,-0.06383993664814128]",4.0,"[0.17715676016712523,0.08894506234660125]",4.0,"[-0.04791335116083688,-0.15323528822203952]",100.0,"[0.04477702138079573,-0.16135969009970316]",4.0,"[0.011700914427845549,0.1766446525352729]",100.0,"[-0.08080833254443207,0.178289552351974]",100.0,"[0.12235891890056175,0.07341123178732542]",100.0,"[0.02,0.02]",238.8284,0.0,49.0,49.0,76.0,1.0,,,,,,,
