right,left,explain.started,explain.stopped,key_resp_3.keys,key_resp_3.rt,key_resp_3.duration,participant,session,date,expName,psychopyVersion,OS,frameRate,study_id,explain_2.started,explain_2.stopped,key_resp_4.keys,key_resp_4.rt,key_resp_4.duration,explain_3.started,explain_3.stopped,key_resp_5.keys,key_resp_5.rt,key_resp_5.duration,fixation.started,fixation.stopped,practice.started,practice.stopped,response.started,response.stopped,key_resp.keys,key_resp.rt,key_resp.duration,feedback.started,feedback.stopped,trials_2.thisRepN,trials_2.thisTrialN,trials_2.thisN,trials_2.thisIndex,trials_2.ran,dot_ratio,explain_4.started,explain_4.stopped,key_resp_6.keys,key_resp_6.rt,key_resp_6.duration,dotDisplay.started,dotDisplay.stopped,ITI.started,polygon_1.pos,polygon_1.edges,polygon_2.pos,polygon_2.edges,polygon_3.pos,polygon_3.edges,polygon_4.pos,polygon_4.edges,polygon_5.pos,polygon_5.edges,polygon_6.pos,polygon_6.edges,polygon_7.pos,polygon_7.edges,polygon_8.pos,polygon_8.edges,polygon_9.pos,polygon_9.edges,polygon_10.pos,polygon_10.edges,polygon_11.pos,polygon_11.edges,polygon_12.pos,polygon_12.edges,polygon_13.pos,polygon_13.edges,polygon_14.pos,polygon_14.edges,polygon_15.pos,polygon_15.edges,polygon_16.pos,polygon_16.edges,polygon_17.pos,polygon_17.edges,polygon_18.pos,polygon_18.edges,polygon_19.pos,polygon_19.edges,polygon_20.pos,polygon_20.edges,polygon_21.pos,polygon_21.edges,polygon_22.pos,polygon_22.edges,polygon_23.pos,polygon_23.edges,polygon_24.pos,polygon_24.edges,polygon_25.pos,polygon_25.edges,polygon_26.pos,polygon_26.edges,polygon_27.pos,polygon_27.edges,polygon_28.pos,polygon_28.edges,polygon_29.pos,polygon_29.edges,polygon_30.pos,polygon_30.edges,polygon_31.pos,polygon_31.edges,polygon_32.pos,polygon_32.edges,dot_size,ITI.stopped,trials.thisRepN,trials.thisTrialN,trials.thisN,trials.thisIndex,trials.ran,break_2.started,break_2.stopped,trials_3.thisRepN,trials_3.thisTrialN,trials_3.thisN,trials_3.thisIndex,trials_3.ran
subject chose dot,subject chose diamond,0.0005,46.6829,space,31.6561,,5d40a12f4994c40001e4b80c,68399dae6f7e59acd2acb45f,2025-05-30_14h01.33.871,shape_ratio,2024.1.5,Win32,60.24096386,683853e18dae57a2147b65e0,,,,,,,,,,,,,,,,,,,,,,,,,,,,,,,,,,,,,,,,,,,,,,,,,,,,,,,,,,,,,,,,,,,,,,,,,,,,,,,,,,,,,,,,,,,,,,,,,,,,,,,,,,,,,,,,,
,,,,,,,5d40a12f4994c40001e4b80c,68399dae6f7e59acd2acb45f,2025-05-30_14h01.33.871,shape_ratio,2024.1.5,Win32,60.24096386,683853e18dae57a2147b65e0,46.6831,82.166,space,5.4648,,,,,,,,,,,,,,,,,,,,,,,,,,,,,,,,,,,,,,,,,,,,,,,,,,,,,,,,,,,,,,,,,,,,,,,,,,,,,,,,,,,,,,,,,,,,,,,,,,,,,,,,,,,,,
,,,,,,,5d40a12f4994c40001e4b80c,68399dae6f7e59acd2acb45f,2025-05-30_14h01.33.871,shape_ratio,2024.1.5,Win32,60.24096386,683853e18dae57a2147b65e0,,,,,,82.1663,90.3495,space,5.1577,,,,,,,,,,,,,,,,,,,,,,,,,,,,,,,,,,,,,,,,,,,,,,,,,,,,,,,,,,,,,,,,,,,,,,,,,,,,,,,,,,,,,,,,,,,,,,,,,,,,,,,,
,,,,,,,5d40a12f4994c40001e4b80c,68399dae6f7e59acd2acb45f,2025-05-30_14h01.33.871,shape_ratio,2024.1.5,Win32,60.24096386,683853e18dae57a2147b65e0,,,,,,,,,,,90.3719,90.8661,90.8663,91.104,91.1042,91.8662,right,0.7244,,91.8663,92.9658,0.0,0.0,0.0,1.0,1.0,0.8,,,,,,,,,,,,,,,,,,,,,,,,,,,,,,,,,,,,,,,,,,,,,,,,,,,,,,,,,,,,,,,,,,,,,,,,,,,,,,,,,,,,,,
,,,,,,,5d40a12f4994c40001e4b80c,68399dae6f7e59acd2acb45f,2025-05-30_14h01.33.871,shape_ratio,2024.1.5,Win32,60.24096386,683853e18dae57a2147b65e0,,,,,,,,,,,92.9662,93.4657,93.4659,93.7231,93.7231,94.366,left,0.621,,94.3661,95.4657,0.0,1.0,1.0,0.0,1.0,0.2,,,,,,,,,,,,,,,,,,,,,,,,,,,,,,,,,,,,,,,,,,,,,,,,,,,,,,,,,,,,,,,,,,,,,,,,,,,,,,,,,,,,,,
,,,,,,,5d40a12f4994c40001e4b80c,68399dae6f7e59acd2acb45f,2025-05-30_14h01.33.871,shape_ratio,2024.1.5,Win32,60.24096386,683853e18dae57a2147b65e0,,,,,,,,,,,,,,,,,,,,,,,,,,,,95.4661,103.2329,space,4.7402,,,,,,,,,,,,,,,,,,,,,,,,,,,,,,,,,,,,,,,,,,,,,,,,,,,,,,,,,,,,,,,,,,,,,,,,,,,,,,,,,,
,,,,,,,5d40a12f4994c40001e4b80c,68399dae6f7e59acd2acb45f,2025-05-30_14h01.33.871,shape_ratio,2024.1.5,Win32,60.24096386,683853e18dae57a2147b65e0,,,,,,,,,,,103.2469,103.7493,,,104.0082,104.666,right,0.6341,,,,,,,,,0.45,,,,,,103.7499,104.0082,104.6665,"[-0.17568285297395017,0.046253174373645026]",4.0,"[-0.1549841250638603,0.12031812064720636]",4.0,"[0.040992323033826154,-0.139262843125219]",100.0,"[-0.0762847528401683,0.0975261287292524]",100.0,"[-0.10358601292257434,-0.1009441565611371]",100.0,"[0.06314887345511053,0.15587264552647226]",4.0,"[-0.1038018809035412,0.1471068570865578]",100.0,"[0.18366189548051154,0.0055693194618929385]",4.0,"[-0.1114998945040109,0.04480887936097163]",4.0,"[-0.10724536768004335,-0.005502467280836103]",4.0,"[-0.004654876317307153,-0.1504331760433089]",100.0,"[0.016775737196788588,-0.029967025109782656]",4.0,"[0.12142873699737289,0.051842735119485735]",4.0,"[0.0847814203777483,0.09706185752417217]",100.0,"[0.06863173574830636,-0.04033621774059463]",4.0,"[0.016886137423981696,0.07757654718492729]",100.0,"[-0.022495053384438635,0.18262832715536792]",100.0,"[0.045754867969152686,-0.1881330017504414]",100.0,"[-0.16877079193520858,0.002836945262066721]",4.0,"[0.16319304820603328,0.09520830948744474]",100.0,"[0.09140301269567717,-0.08702738276045743]",100.0,"[-0.042986331952352755,-0.038861214210932]",4.0,"[-0.06274847979431471,0.14176652855047092]",4.0,"[0.10953349618256802,-0.16631021395074133]",4.0,"[-0.07438189677795662,-0.1791377396986014]",4.0,"[-0.11553774007961246,-0.15054784525649717]",4.0,"[0.13121581240976601,-0.07034847236032042]",100.0,"[0.0779613881016949,0.024036469940131987]",100.0,"[-0.07472452469405315,0.027172651677465194]",4.0,"[-0.1081727106625482,-0.057703992533939125]",4.0,"[-0.020797381893884616,0.04547108058546018]",4.0,"[-0.017919508762938467,-0.0771666686975743]",100.0,"[0.02,0.02]",105.766,0.0,0.0,0.0,141.0,1.0,,,,,,,
,,,,,,,5d40a12f4994c40001e4b80c,68399dae6f7e59acd2acb45f,2025-05-30_14h01.33.871,shape_ratio,2024.1.5,Win32,60.24096386,683853e18dae57a2147b65e0,,,,,,,,,,,105.7665,106.2658,,,106.5163,107.0994,left,0.5507,,,,,,,,,0.5,,,,,,106.2658,106.5162,107.0994,"[-0.0889066732280499,-0.12040250148466887]",4.0,"[-0.1690404822761925,0.028336040665296085]",100.0,"[-0.0748078616257121,-0.010625765209377578]",100.0,"[0.15093364777332877,0.038004619485970025]",100.0,"[0.08562779606381488,-0.16631814706801556]",4.0,"[0.02390728879105326,0.040335785664908815]",4.0,"[-0.12734696344340884,0.027958836571353653]",100.0,"[-0.014116025482095394,0.1888199148404016]",4.0,"[-0.14720976350858322,-0.05821074466575461]",100.0,"[0.03194794682065734,-0.024137185772098644]",4.0,"[0.17172977709729897,-0.04105721222233331]",100.0,"[0.0705082206658144,0.17881032438815905]",4.0,"[-0.09236409714942931,-0.06476964426604427]",100.0,"[0.06709868278439053,-0.12358436004113271]",100.0,"[-0.14693244488473842,-0.013648594451391468]",4.0,"[-0.06418716231418549,0.0992434781805511]",100.0,"[0.11459024755239872,0.11883474638093951]",4.0,"[-0.040786993537479166,0.024839816153969175]",4.0,"[-0.10894860067657883,0.11693172346261463]",100.0,"[-0.03260226361858592,-0.12318035766511429]",4.0,"[-0.013442745335487762,0.06308654892506045]",4.0,"[-0.11143370418662307,0.06892102638027757]",100.0,"[0.011716965205895716,-0.09562339161478131]",100.0,"[-0.002794659192768889,-0.1914847480807617]",4.0,"[-0.03677491143839187,-0.03767456741066275]",4.0,"[-0.0737600824447391,0.14541126849688393]",100.0,"[0.0916209768395195,0.04250693616032786]",4.0,"[0.05131768340825034,0.11160371075592639]",100.0,"[-0.16056001401347242,0.09930357721162644]",4.0,"[-0.04936306056117144,-0.1884524426273545]",100.0,"[0.10640579774190498,-0.09611914318042997]",100.0,"[0.18914850879760353,-0.0045384384777953975]",4.0,"[0.02,0.02]",108.1993,0.0,1.0,1.0,99.0,1.0,,,,,,,
,,,,,,,5d40a12f4994c40001e4b80c,68399dae6f7e59acd2acb45f,2025-05-30_14h01.33.871,shape_ratio,2024.1.5,Win32,60.24096386,683853e18dae57a2147b65e0,,,,,,,,,,,108.1998,108.6993,,,108.9385,109.5161,left,0.5518,,,,,,,,,0.45,,,,,,108.6994,108.9385,109.5161,"[0.155545476380799,0.07238082526812464]",100.0,"[-0.0577869332372826,-0.05599533636416344]",4.0,"[-0.16651536661321242,0.09885357237709842]",4.0,"[0.08714735282703082,0.16670853691640272]",4.0,"[0.07273292973543978,0.09224677292729772]",4.0,"[-0.07983136336310008,-0.09476810342620212]",4.0,"[0.07398796723268163,-0.028481149892172215]",4.0,"[-0.07903192253390225,-0.1717794077846323]",100.0,"[-0.0006993606476452699,0.05363990216562975]",4.0,"[-0.10220000836075185,-0.006592701607631673]",100.0,"[-0.09084937568482795,0.16567727285718145]",100.0,"[0.03518807087668705,-0.0166969763479176]",4.0,"[-0.15684730669615124,0.04712004631041995]",100.0,"[-0.045667494454247774,0.027478527776912707]",100.0,"[-0.11904521669726738,-0.12028418978051918]",4.0,"[0.006945924402267421,-0.04536718305694267]",4.0,"[0.159294372951943,-0.04074663527661679]",100.0,"[-0.0069233041233231745,-0.1825698981636157]",4.0,"[0.023953276698722988,-0.1502640770937676]",100.0,"[0.12947348820202123,-0.07883770566187638]",4.0,"[-0.04686270155270424,0.15564022238752437]",100.0,"[0.08070562111533125,-0.16311903569709027]",4.0,"[0.14617882167432963,-0.12755986895923216]",4.0,"[0.1166455380774323,-0.02139786386526186]",4.0,"[0.1699177103451542,0.023742917058368607]",4.0,"[-0.028443667717692,0.11931134900526583]",100.0,"[0.05871675504628182,-0.0695232572913509]",4.0,"[-0.016682819481228496,-0.14065239680473338]",4.0,"[0.13864382865150046,0.11987203109990202]",100.0,"[-0.004465493511959194,0.17369918557349567]",100.0,"[0.11039981785314741,0.04804715793296866]",100.0,"[-0.18614770868299804,0.013431744471480085]",100.0,"[0.02,0.02]",110.6159,0.0,2.0,2.0,129.0,1.0,,,,,,,
,,,,,,,5d40a12f4994c40001e4b80c,68399dae6f7e59acd2acb45f,2025-05-30_14h01.33.871,shape_ratio,2024.1.5,Win32,60.24096386,683853e18dae57a2147b65e0,,,,,,,,,,,110.6163,111.1163,,,111.3735,112.1496,left,0.7548,,,,,,,,,0.6,,,,,,111.1164,111.3735,112.1497,"[0.14931732193669156,0.12154378431281918]",100.0,"[-0.0014273055435824746,0.025264741746276978]",100.0,"[-0.06454834288140804,0.13033020246273555]",100.0,"[-0.13173579727115747,-0.12926141651243622]",4.0,"[0.1334357294692757,0.006712017109554728]",100.0,"[-0.0029303871426331683,0.1843489522251588]",4.0,"[0.06884364113336039,0.059929679052584464]",4.0,"[-0.017505990769422466,-0.02123657638093926]",100.0,"[-0.16484981176496905,-0.10487981649880274]",4.0,"[-0.13513283101811446,-0.04651428582745832]",100.0,"[0.10734126641633825,0.11275694679033946]",100.0,"[0.09167232927242665,-0.12354223275032894]",100.0,"[0.010516107868119923,-0.12298200719614392]",4.0,"[0.044060811641741096,-0.05763621223536932]",4.0,"[0.06260776704960792,0.1360753375044909]",4.0,"[-0.02993513915895046,-0.13366867187580536]",100.0,"[-0.12579931733063718,0.11124679725971562]",4.0,"[0.17558854160039486,-0.06902588284001297]",100.0,"[-0.18190389811411245,0.07372377416175352]",100.0,"[0.0014393484945037143,-0.18624935480158655]",4.0,"[-0.08936776806107667,0.16467964876912433]",4.0,"[-0.18758383817867103,-0.04367358448013028]",100.0,"[0.18544742582893636,0.04817728640994326]",4.0,"[-0.13505065414440603,0.06283999677635525]",100.0,"[0.05449049858780382,-0.16091359013341558]",100.0,"[-0.04984942624065463,-0.07605654894416762]",100.0,"[0.11914582651497804,0.15403614670448368]",100.0,"[0.1289646065804068,-0.07700232180200445]",100.0,"[-0.067444858430125,0.08052720433065369]",100.0,"[-0.18913762218733304,0.023166465179347624]",4.0,"[0.13038479507062894,-0.03333854123809985]",100.0,"[0.027309382831394714,0.08597226527417128]",4.0,"[0.02,0.02]",113.2494,0.0,3.0,3.0,34.0,1.0,,,,,,,
,,,,,,,5d40a12f4994c40001e4b80c,68399dae6f7e59acd2acb45f,2025-05-30_14h01.33.871,shape_ratio,2024.1.5,Win32,60.24096386,683853e18dae57a2147b65e0,,,,,,,,,,,113.2499,113.7493,,,113.9899,114.5997,right,0.5838,,,,,,,,,0.55,,,,,,113.7494,113.9898,114.5998,"[0.1351669350688577,-0.13813262272604576]",100.0,"[-0.025487840327074886,0.06423557974940625]",4.0,"[-0.09939963184497434,-0.028086721886574312]",100.0,"[-0.030509655801288837,-0.12614996348133486]",4.0,"[0.1489650712959979,0.10312022628192011]",100.0,"[-0.1856244406634399,0.04928639533471323]",100.0,"[0.08057690873419178,0.13305154432559246]",100.0,"[-0.03099106265235287,0.1201697099434983]",100.0,"[0.053374103346130304,0.02293047412092698]",4.0,"[-0.05476558614685069,-0.052444395171089606]",100.0,"[0.07769419456536948,-0.05996082759644782]",100.0,"[-0.011530002586068584,-0.1857047062042075]",100.0,"[0.020246346911959243,-0.09292550328279316]",100.0,"[-0.00825524826221302,-0.05173705834352687]",4.0,"[-0.09304478300000835,-0.16672772395691907]",4.0,"[-0.11083753473313562,-0.12263156655426216]",4.0,"[0.19737303772557085,0.01075578458033183]",100.0,"[0.10304779039406084,0.08667014902856378]",100.0,"[-0.028382564352667155,0.17561592121432953]",4.0,"[0.0735232163931004,-0.12648952197493926]",100.0,"[0.13795968804969538,-0.02016838106926918]",4.0,"[0.14996600329830842,0.029590949461720834]",100.0,"[0.18125357782132887,0.07400202887554505]",100.0,"[-0.19224955599948534,-0.023919691918762084]",4.0,"[0.19582551792527456,-0.03157364798670953]",100.0,"[0.009295728631074777,0.19729384866844357]",100.0,"[-0.10103731930725343,0.12137985178683557]",4.0,"[-0.16265185890671238,-0.11586011925190796]",100.0,"[0.09802664923763629,0.010939114716946126]",4.0,"[-0.12815334523286126,0.05705882930800384]",4.0,"[0.040040779500255134,-0.020466347784426835]",4.0,"[0.021162096453468147,-0.15343944121592235]",4.0,"[0.02,0.02]",115.6993,0.0,4.0,4.0,62.0,1.0,,,,,,,
,,,,,,,5d40a12f4994c40001e4b80c,68399dae6f7e59acd2acb45f,2025-05-30_14h01.33.871,shape_ratio,2024.1.5,Win32,60.24096386,683853e18dae57a2147b65e0,,,,,,,,,,,115.6998,116.1994,,,116.4565,117.0164,left,0.5343,,,,,,,,,0.1,,,,,,116.1994,116.4564,117.0165,"[-0.013948971267721188,-0.18373338534614983]",4.0,"[0.034841961440696394,0.0992347475291823]",4.0,"[-0.1347425424520068,-0.01608849734871056]",4.0,"[0.13081281582108117,-0.09619069641879079]",4.0,"[0.0847368657054897,0.07512077858989048]",4.0,"[-0.030975851482872113,-0.035072859414495255]",4.0,"[0.040631992549304115,0.04066363134243589]",100.0,"[-0.0358172238001166,0.02828072930601321]",4.0,"[-0.0012334289697731218,0.16070885203490812]",4.0,"[0.04123135145063973,-0.006664989180694156]",4.0,"[0.07740267091253325,-0.09081168893916257]",4.0,"[0.007094350184040361,-0.1313389648723111]",4.0,"[-0.11680898787022222,-0.07816665777346178]",4.0,"[0.16201688196948422,0.0005185730740960888]",100.0,"[-0.13604647629373953,-0.1463378894418105]",4.0,"[0.14464446706617506,0.0901770446490267]",4.0,"[-0.17056422341637917,0.06451792002462381]",4.0,"[0.11391388529968692,-0.05819179330974178]",4.0,"[-0.0013019954615846345,0.004849346779993389]",100.0,"[-0.12207720828157616,0.041167238264096136]",4.0,"[-0.08989888557578164,-0.020567697718970872]",4.0,"[0.1068682190473781,-0.14063552325248027]",4.0,"[0.030376334947616077,-0.0758838252335523]",4.0,"[-0.1094311645847298,0.0918010612008262]",4.0,"[0.09549219735386581,0.13902207313558315]",4.0,"[-0.05950563427635572,-0.11561809293881753]",4.0,"[-0.1877065763057285,-0.05678130200634997]",4.0,"[0.0896699348528666,0.014353452459786128]",4.0,"[0.04420578564856227,0.14229931786742483]",4.0,"[-0.06658462336146354,0.1771109574869564]",4.0,"[-0.050001433170351654,0.12222061268856924]",4.0,"[-0.07490735013941495,-0.06376399123185682]",4.0,"[0.02,0.02]",118.1162,0.0,5.0,5.0,207.0,1.0,,,,,,,
,,,,,,,5d40a12f4994c40001e4b80c,68399dae6f7e59acd2acb45f,2025-05-30_14h01.33.871,shape_ratio,2024.1.5,Win32,60.24096386,683853e18dae57a2147b65e0,,,,,,,,,,,118.1166,118.616,,,118.8716,119.4241,right,0.534,,,,,,,,,0.55,,,,,,118.6161,118.8716,119.4242,"[-0.12501682199646877,0.11162757781498008]",100.0,"[-0.033666055450499215,-0.034190217015141224]",4.0,"[0.08108992362344668,0.012458225561300475]",100.0,"[0.001669454348881042,0.15652288187001534]",100.0,"[-0.12533740796311765,0.003664394670146515]",4.0,"[0.060447297734272154,0.06033433237192252]",100.0,"[-0.16984145135420908,0.06134950462865368]",100.0,"[-0.026572835743603956,0.07002628006806955]",100.0,"[0.0984571433385468,-0.10000328931340251]",4.0,"[-0.0558109277403646,-0.09151635224139189]",100.0,"[0.14817989475034274,-0.0806247633196901]",4.0,"[-0.08795856154274466,-0.06617548376748855]",4.0,"[0.10705657641039355,0.0849873548710956]",100.0,"[0.006701466802636693,-0.18019185146828762]",100.0,"[-0.04252463913348261,0.14221314131612364]",100.0,"[-0.18159652261940207,-0.08241952524597694]",4.0,"[-0.18508549519892997,-0.014417545540086415]",4.0,"[-0.04292856784966142,-0.17641532492088186]",4.0,"[-0.016488666072264933,-0.08083284873403071]",100.0,"[0.009033494715917361,-0.13642052638681598]",100.0,"[0.15005281394088793,-0.03397390506329843]",4.0,"[0.08846343327970693,0.12651908537398246]",100.0,"[0.15857355849754212,0.09122378523390545]",100.0,"[0.1367727245840004,0.01583241942860018]",100.0,"[0.003594867260219654,0.010629130853586377]",100.0,"[0.036848951350917175,-0.07245650576941541]",4.0,"[0.11387780804963567,-0.14439305966899688]",4.0,"[-0.09096233386970898,0.08272476541482306]",4.0,"[-0.06478669856468557,0.0005559572729810386]",100.0,"[0.09948567677091999,-0.04913767007342497]",4.0,"[-0.13711671030852912,-0.1449512827462924]",100.0,"[-0.012843132137164604,0.19569733779126847]",4.0,"[0.02,0.02]",120.5161,0.0,6.0,6.0,70.0,1.0,,,,,,,
,,,,,,,5d40a12f4994c40001e4b80c,68399dae6f7e59acd2acb45f,2025-05-30_14h01.33.871,shape_ratio,2024.1.5,Win32,60.24096386,683853e18dae57a2147b65e0,,,,,,,,,,,120.5166,121.023,,,121.2733,121.8165,right,0.5267,,,,,,,,,0.6,,,,,,121.023,121.2732,121.8166,"[0.05884642055662693,0.0689697178581672]",4.0,"[0.008345481402003743,0.1342108028301284]",100.0,"[-0.07865268567012355,0.05979333733729739]",100.0,"[0.17785805893590706,0.03019268830528869]",100.0,"[0.017507225285811712,-0.18963782844337526]",100.0,"[-0.00027951287625227906,-0.017765778294532568]",100.0,"[0.16496597189567902,-0.029392945103348733]",100.0,"[0.0899127043677993,-0.0574231868723815]",4.0,"[0.04547539138093474,-0.016521419703576446]",100.0,"[-0.059065012975057174,0.12683726472085755]",100.0,"[-0.01421587509445597,-0.07260184490338827]",4.0,"[-0.08511853187324463,-0.1085730612910057]",100.0,"[0.06898730003961269,-0.1077022279939134]",4.0,"[-0.1498547752973464,0.11729694145470392]",4.0,"[0.036283145205745916,-0.13531470054166217]",4.0,"[0.12313851857460142,-0.009999015007350206]",4.0,"[-0.13646705431826298,-0.14009380807803082]",4.0,"[-0.14876843127794856,0.04701897965783247]",100.0,"[0.08965070256049372,0.14874823460853268]",100.0,"[-0.04481925876449549,-0.005938649952083225]",4.0,"[0.09375657545353919,-0.1509756265909361]",100.0,"[0.11845969030850607,0.08817159555507824]",100.0,"[-0.08087704546165587,-0.1568922754332295]",100.0,"[-0.12769219512675878,-0.001554018261344762]",4.0,"[-0.01198212684600768,-0.11589390931427303]",100.0,"[-0.007437951916443675,0.05722317279322218]",100.0,"[-0.1172970989620935,-0.06154972926949544]",100.0,"[-0.09250028659438415,0.018103368424592675]",100.0,"[0.1525764030658376,0.1287363259782974]",100.0,"[0.028021349280430527,0.17122357357538903]",4.0,"[-0.032914162893758175,0.1908416280842352]",4.0,"[0.1479990218816935,-0.10262146639094025]",4.0,"[0.02,0.02]",122.923,0.0,7.0,7.0,51.0,1.0,,,,,,,
,,,,,,,5d40a12f4994c40001e4b80c,68399dae6f7e59acd2acb45f,2025-05-30_14h01.33.871,shape_ratio,2024.1.5,Win32,60.24096386,683853e18dae57a2147b65e0,,,,,,,,,,,122.9233,123.4161,,,123.6565,124.333,right,0.6503,,,,,,,,,0.4,,,,,,123.4161,123.6564,124.3331,"[0.16345868417547432,0.07766740678037465]",4.0,"[-0.17650021063158258,0.049582557852783926]",4.0,"[0.07611242191677724,-0.0679488788743357]",100.0,"[-0.01865901364672052,0.06189444772611425]",4.0,"[-0.15874770184390277,0.11210633232846179]",4.0,"[0.09388407902279614,-0.11323913090544781]",4.0,"[-0.1736959290902035,-0.020518059695047174]",100.0,"[0.11454374832784461,0.054287215048076404]",4.0,"[-0.052946775966872535,-0.15998460942925816]",100.0,"[0.016927995774780945,0.11027714836108947]",4.0,"[0.054457300135330816,0.011951155408741003]",4.0,"[-0.05591655335970334,0.18543408412180812]",4.0,"[-0.17428794244700974,-0.08232205412580786]",100.0,"[0.13908336162390403,-0.13046929882509176]",100.0,"[-0.08441094666980074,-0.08783112816697243]",4.0,"[0.1337499361349373,0.018798993704933806]",4.0,"[0.02543422526381248,-0.16299669428084493]",100.0,"[-0.13359767645628404,-0.13567014665470872]",100.0,"[0.18672205828769572,-0.06259947983741371]",4.0,"[-0.05626698216501525,0.10226243348414978]",100.0,"[0.12522533990819815,-0.02649688921503742]",100.0,"[-0.025757397472923712,-0.1033071440654019]",100.0,"[0.06921767293390242,-0.1577790161446195]",4.0,"[0.0688824930202746,0.18256760040249445]",4.0,"[0.10554902237958012,0.14256874082474388]",4.0,"[-0.008377061508743722,-0.04951683242162532]",4.0,"[0.058317942183994026,0.14241759188153086]",100.0,"[-0.12077206743912536,-0.021893816187979375]",4.0,"[0.02435441583851188,-0.08469172826691754]",100.0,"[-0.09665336324561126,0.15122892026255078]",4.0,"[-0.010318043756402688,0.19890140990624786]",4.0,"[-0.05701422681337731,0.021783278082660465]",100.0,"[0.02,0.02]",125.433,0.0,8.0,8.0,174.0,1.0,,,,,,,
,,,,,,,5d40a12f4994c40001e4b80c,68399dae6f7e59acd2acb45f,2025-05-30_14h01.33.871,shape_ratio,2024.1.5,Win32,60.24096386,683853e18dae57a2147b65e0,,,,,,,,,,,125.4333,125.9403,,,126.1904,126.8669,left,0.6512,,,,,,,,,0.45,,,,,,125.9404,126.1904,126.8669,"[0.10359021228258862,0.006919666145895703]",100.0,"[-0.03879891999753486,-0.01819268418514624]",100.0,"[-0.17170262894593352,-0.06663012981629052]",100.0,"[-0.08524895358917753,0.054367532494944325]",100.0,"[0.044735172312878234,-0.08350448719926273]",4.0,"[0.11030022377543952,0.05304547575774252]",4.0,"[-0.15715911293850165,0.06684354571492393]",100.0,"[0.03561186092838452,0.01670765062448052]",100.0,"[0.1197890298423781,-0.0656981903435935]",100.0,"[0.03943588142252461,0.1466360435819973]",4.0,"[-0.042848858379193264,-0.0935797255130893]",100.0,"[0.08239676445772975,-0.13380316480688714]",4.0,"[0.12141211970178656,-0.10620615217379353]",4.0,"[-0.1945302659908738,0.046428179499469355]",100.0,"[-0.016788164557155816,-0.17017145245706358]",4.0,"[-0.0791105003929723,-0.11866190718652912]",100.0,"[0.03766645037466338,-0.17101826527519665]",100.0,"[-0.1503076133768262,-0.12319959644804515]",4.0,"[-0.06346894664798561,0.1617295829097326]",4.0,"[-0.035134612996807625,0.0245111813019021]",4.0,"[-0.012099305981767736,0.11439622675066584]",100.0,"[0.09343466583546065,0.14214206189175432]",4.0,"[0.13539319062314298,0.08504980826742795]",4.0,"[0.17479101350526183,0.042259050014909906]",4.0,"[-0.09412681284437219,-0.05700467329777554]",4.0,"[0.008139207742430541,-0.1053027530611437]",100.0,"[0.06355175794409085,0.18315565339656986]",4.0,"[-0.07420436957459874,-0.161694151944908]",4.0,"[-0.15323278416832214,0.012821292006691501]",4.0,"[0.04584712047228961,0.06410142987686122]",4.0,"[-0.056194083413180336,0.09091725944207632]",100.0,"[0.09188075945975012,-0.17349270040378073]",4.0,"[0.02,0.02]",127.9662,0.0,9.0,9.0,135.0,1.0,,,,,,,
,,,,,,,5d40a12f4994c40001e4b80c,68399dae6f7e59acd2acb45f,2025-05-30_14h01.33.871,shape_ratio,2024.1.5,Win32,60.24096386,683853e18dae57a2147b65e0,,,,,,,,,,,127.9666,128.4664,,,128.707,129.1907,right,0.4781,,,,,,,,,0.9,,,,,,128.4664,128.7069,129.1907,"[-0.07828360073784825,0.13471384364637612]",100.0,"[-0.1742782754896712,-0.02387965939433444]",100.0,"[0.06470908194149282,-0.14168013158775014]",100.0,"[0.08228629370713873,0.1348171333776554]",4.0,"[-0.028981214257553144,-0.05902710923705084]",100.0,"[0.055210441064021724,0.08656650204244423]",100.0,"[0.0008140482075531382,-0.16141032386221962]",100.0,"[-0.043752943969684495,0.193626309884048]",100.0,"[-0.010812950666740097,0.08623001642498944]",100.0,"[-0.12360871886387458,-0.022739242605219038]",100.0,"[-0.09993626787287942,-0.09380468072622664]",100.0,"[0.0037591484151432955,-0.008574967184492271]",100.0,"[-0.1715302320749521,0.03565485274372064]",4.0,"[0.020596472579351384,-0.047932678169533456]",100.0,"[-0.06614489863966265,0.0780616006802226]",100.0,"[0.13220529009040607,0.03817454324650008]",100.0,"[0.001233419228386005,0.033504734651312956]",100.0,"[0.1807739534649227,0.059690789653170144]",4.0,"[0.05656933967707265,-0.005813805745011115]",100.0,"[-0.0554298065431804,0.02410686465404381]",100.0,"[-0.15806599172727623,0.11414783752675177]",100.0,"[0.10482298428573097,-0.03641923600370709]",100.0,"[0.038345548498938634,0.1351053951876227]",100.0,"[0.04970065997775443,-0.18213145244105813]",100.0,"[-0.12463559276370281,0.1552952556946857]",100.0,"[0.05524981353221489,-0.0856748292711078]",100.0,"[0.16932276464232177,-0.0700657213235894]",100.0,"[0.140088449338123,0.11124381649417558]",100.0,"[0.11189043584436496,0.08094246123621267]",100.0,"[-0.02835501561049368,-0.12825742081879649]",100.0,"[-0.0712900234219242,-0.13096950714268185]",100.0,"[0.09052022418400127,0.03822529913330724]",100.0,"[0.02,0.02]",130.2829,0.0,10.0,10.0,29.0,1.0,,,,,,,
,,,,,,,5d40a12f4994c40001e4b80c,68399dae6f7e59acd2acb45f,2025-05-30_14h01.33.871,shape_ratio,2024.1.5,Win32,60.24096386,683853e18dae57a2147b65e0,,,,,,,,,,,130.2835,130.7835,,,131.0391,131.6338,left,0.5673,,,,,,,,,0.45,,,,,,130.7835,131.0391,131.6339,"[0.09392498569017986,-0.1499663129795022]",4.0,"[-0.08706672120109632,-0.1098199223994725]",4.0,"[0.09730423295000952,0.07063288797742785]",4.0,"[0.11163451291763134,-0.03283943091049425]",100.0,"[-0.008279183973636358,-0.13911330703341415]",100.0,"[0.10552518009068323,0.1454314224096026]",4.0,"[0.04837487497931183,0.1436088524998014]",100.0,"[0.13898861277723942,0.1066130208022341]",4.0,"[0.004363847886238604,0.0029698663833450773]",100.0,"[0.17631524985494607,0.03217527380528995]",4.0,"[-0.08254925277859398,0.01752776166889811]",4.0,"[-0.019049816016614284,-0.038528987094101096]",100.0,"[0.05186969036304414,-0.052159370443692836]",4.0,"[0.1595530024623847,-0.028823884348225495]",4.0,"[-0.05824985537811366,-0.16028138584279764]",4.0,"[-0.03652949902246608,0.06863234813037175]",100.0,"[-0.1407040811388895,0.061511197568016845]",100.0,"[-0.1331773333525089,-0.08960763677256955]",4.0,"[-0.014095470013695197,0.10770067470054263]",4.0,"[0.11382239663344226,-0.08331640331819126]",100.0,"[-0.17489498842922996,-0.07161885719008129]",4.0,"[0.05791721926988267,-0.11071408818683334]",4.0,"[0.04117944335237886,0.05089389177918251]",4.0,"[0.14378450846491067,0.06438797903383131]",100.0,"[-0.12825261115211165,-0.15165058642378915]",100.0,"[0.06963699810582283,-0.014030800322834193]",4.0,"[-0.09793878342540746,0.05510005824200185]",100.0,"[-0.12562538960984335,0.13588355741014618]",100.0,"[-0.1970485939690747,0.013076201663192772]",4.0,"[-0.026668348602560732,0.1464324894476031]",100.0,"[-0.09615157323824737,0.09682378064708651]",4.0,"[-0.03397224798039624,0.022910354872995378]",100.0,"[0.02,0.02]",132.723,0.0,11.0,11.0,147.0,1.0,,,,,,,
,,,,,,,5d40a12f4994c40001e4b80c,68399dae6f7e59acd2acb45f,2025-05-30_14h01.33.871,shape_ratio,2024.1.5,Win32,60.24096386,683853e18dae57a2147b65e0,,,,,,,,,,,132.7234,133.2164,,,133.4569,133.8872,right,0.4139,,,,,,,,,0.9,,,,,,133.2164,133.4568,133.8873,"[0.12396624028316156,-0.04726625649908551]",100.0,"[0.06441420392730875,-0.1662953632986255]",100.0,"[-0.14642016270409983,0.12344012465155002]",4.0,"[-0.12270911505468533,0.05558934484844408]",100.0,"[-0.16973949077717848,0.0037830026252352947]",100.0,"[-0.1648828051573169,-0.1110612339403319]",100.0,"[-0.07350777934595384,-0.05889762065744265]",100.0,"[0.0036930490250550053,-0.19567480959724876]",100.0,"[-0.1724175068877776,0.08859157728560992]",100.0,"[-0.07975337537605448,0.11990788597831348]",100.0,"[-0.0349602144429508,0.13171794215489416]",100.0,"[0.05518911430890313,-0.017765865787558115]",100.0,"[0.00441359112743678,0.09594257301436755]",100.0,"[-0.16797011633456893,-0.03768882642943692]",100.0,"[0.18823373402283997,0.022426914637731412]",100.0,"[-0.10463322718248615,-0.09298067582323706]",100.0,"[0.1635305444128208,0.08436098790366942]",100.0,"[0.046611216974216364,-0.07863176534998319]",100.0,"[0.11769353249016222,0.019793953297453305]",100.0,"[-0.0008305390073198044,-0.0962548518662586]",100.0,"[-0.0786734439945616,0.004809209060210566]",100.0,"[0.13798396874929897,0.13191012123194118]",100.0,"[0.1483654104275991,-0.08155900193092115]",4.0,"[0.06311850839562465,0.17212301486758796]",100.0,"[-0.10212108026170963,-0.16452564980317666]",4.0,"[-0.12283700636948748,0.011094171988128532]",100.0,"[0.02717971621117868,0.1459484530865729]",100.0,"[0.19452824419102505,-0.037348287339002924]",100.0,"[0.15065796639322018,-0.011276704276037844]",100.0,"[-0.03773707867382028,0.07309639856738731]",100.0,"[-0.10959061845520165,0.1598670012408068]",100.0,"[0.11081467968889547,0.08991571302890272]",100.0,"[0.02,0.02]",134.9837,0.0,12.0,12.0,6.0,1.0,,,,,,,
,,,,,,,5d40a12f4994c40001e4b80c,68399dae6f7e59acd2acb45f,2025-05-30_14h01.33.871,shape_ratio,2024.1.5,Win32,60.24096386,683853e18dae57a2147b65e0,,,,,,,,,,,134.9843,135.4836,,,135.7405,136.1664,left,0.4085,,,,,,,,,0.1,,,,,,135.4836,135.7404,136.1664,"[-0.044583167333303385,-0.01095276542946516]",4.0,"[-0.050749418057141345,-0.11556154856159265]",4.0,"[-0.15286669317760873,-0.08943144942381455]",4.0,"[0.01199193182543168,0.17510576049446994]",4.0,"[0.048627863818544996,-0.15283414193248365]",4.0,"[0.14103412011108155,0.06777561740657374]",4.0,"[-0.13590945092929552,0.06910365581801242]",100.0,"[-0.18090951820294326,-0.0179906600616102]",4.0,"[0.07059788896190997,-0.043858907004446446]",4.0,"[-0.10867719751511949,-0.14701758061681341]",100.0,"[-0.11305672790341016,0.03303160041956545]",4.0,"[0.003339472101958623,0.05399408159455332]",100.0,"[0.02554336658758187,0.1303487716229653]",4.0,"[-0.14728837848699544,-0.04197340900589165]",4.0,"[0.06553549762382242,0.08779531117069772]",4.0,"[0.023126883826568193,-0.09238410701965624]",4.0,"[-0.09480046750696938,0.0718069582000236]",4.0,"[-0.053617565609709025,0.05938711532687122]",4.0,"[0.19009494491958626,-0.05462842154120473]",4.0,"[-0.09899459537853263,0.16290588509174844]",4.0,"[-0.008652322491572073,0.09916191970394266]",4.0,"[-0.13199706878451872,0.13887666824235598]",4.0,"[0.0007818060454152043,-0.13859834899823065]",4.0,"[0.0902681028550027,-0.090431125925418]",4.0,"[-0.10855818146366401,-0.10125422883039224]",4.0,"[-0.04670055167771351,0.1450552180623132]",4.0,"[-0.17459693683520477,0.044250245717585124]",4.0,"[0.133616195606132,-0.013034493153652774]",4.0,"[-0.0024035281960845638,0.009978341633738305]",4.0,"[-0.06612804011372742,-0.17382489177410834]",4.0,"[0.08110937936876371,0.029979934027870477]",4.0,"[0.0852947226400844,-0.132345644392762]",4.0,"[0.02,0.02]",137.2662,0.0,13.0,13.0,196.0,1.0,,,,,,,
,,,,,,,5d40a12f4994c40001e4b80c,68399dae6f7e59acd2acb45f,2025-05-30_14h01.33.871,shape_ratio,2024.1.5,Win32,60.24096386,683853e18dae57a2147b65e0,,,,,,,,,,,137.2665,137.7564,,,138.0008,138.6166,left,0.592,,,,,,,,,0.6,,,,,,137.7565,138.0008,138.6166,"[0.058294288844729904,-0.07917504319433964]",4.0,"[-0.03096505852057554,0.06381600662661437]",100.0,"[-0.15999775675408393,-0.07384721224002957]",100.0,"[0.03793885558015038,0.07254240479335833]",100.0,"[-0.050780672017586535,-0.02748467350885152]",4.0,"[0.07388446364926382,-0.020209937875988692]",4.0,"[0.020585798992555564,-0.02918400805540374]",4.0,"[-0.09799044766195451,-0.17138166013354947]",100.0,"[0.05747027861112207,0.17764089663545485]",100.0,"[0.09793278064581284,0.13334583609187542]",100.0,"[0.15790916102914426,0.018799661973717016]",100.0,"[-0.11987099913274611,-0.057293486727132276]",100.0,"[0.09499664551367784,0.03955081800958929]",100.0,"[-0.07556787546083549,0.16419206867809305]",4.0,"[0.15513314780935922,-0.09549000621639973]",4.0,"[-0.004414314238687712,0.010463844115857822]",4.0,"[-0.022162841723117055,0.11549461244905833]",100.0,"[-0.04970416889028075,-0.1538821654848364]",100.0,"[0.1727450975434064,-0.05376597821270378]",4.0,"[-0.08875556599909706,0.08578631013004878]",4.0,"[0.13133889037025695,-0.13870393307389475]",100.0,"[-0.1540122801879685,-0.024521562691305267]",100.0,"[-0.06439224284962622,-0.08425550360196259]",100.0,"[-0.019120326319887134,-0.19577291503220345]",100.0,"[-0.03333605336798374,0.16344905507958096]",100.0,"[0.12472432471537233,-0.06091795925524636]",100.0,"[-0.15117701745311551,0.029796716882798245]",4.0,"[-0.13218857973564355,-0.11630097422273232]",100.0,"[-0.1955076653683375,-0.006180996373538348]",4.0,"[-0.10078021218633199,0.003994678909428805]",100.0,"[0.021378720869798695,0.1313089131518723]",4.0,"[0.09297626176481931,-0.1626020327732901]",4.0,"[0.02,0.02]",139.7167,0.0,14.0,14.0,35.0,1.0,,,,,,,
,,,,,,,5d40a12f4994c40001e4b80c,68399dae6f7e59acd2acb45f,2025-05-30_14h01.33.871,shape_ratio,2024.1.5,Win32,60.24096386,683853e18dae57a2147b65e0,,,,,,,,,,,139.7172,140.2163,,,140.467,140.9498,right,0.4506,,,,,,,,,0.4,,,,,,140.2163,140.467,140.9499,"[-0.14915011425494193,-0.05270727474612317]",4.0,"[-0.09460842923445777,-0.169152458292486]",4.0,"[-0.034853724131898946,0.10618162339722671]",100.0,"[0.15111206569071056,0.11526144277338055]",100.0,"[0.07172502039389228,-0.17565234749017114]",4.0,"[-0.12720040301892477,-0.12170139672270701]",100.0,"[-0.0706715103985769,0.05018328139521804]",100.0,"[0.1812730825469187,-0.03172782974017395]",100.0,"[0.06703816913868407,-0.027892490730100385]",4.0,"[0.09858770166781222,-0.14011135389231896]",100.0,"[0.13653703507037038,-0.05153022707291483]",4.0,"[-0.046290220251514004,-0.1213753578461927]",4.0,"[-0.009355817423848821,0.037615545731032055]",4.0,"[0.039059594639862194,0.11300749657042103]",100.0,"[-0.17238559393351438,0.02390367631755817]",100.0,"[-0.013259909218315552,-0.007024661599545797]",4.0,"[0.11271958938787718,0.020083242938264807]",4.0,"[0.0689640257703006,-0.08945307486850881]",4.0,"[-0.1182628849835347,0.05329871240229464]",100.0,"[-0.12403159282886513,0.1357169009418983]",4.0,"[0.1464656185815915,-0.1083597062886514]",4.0,"[-0.0022815105692808833,-0.11324934829165993]",100.0,"[0.06695607873954879,0.17900492316788885]",4.0,"[0.16813264986197085,0.0447089682097391]",100.0,"[-0.062415904157568876,0.1687673638195195]",4.0,"[-0.01431765476375071,-0.18541381507508783]",4.0,"[0.02429295206008836,-0.03642640646730991]",100.0,"[-0.03306034895093477,-0.060557732132717285]",100.0,"[-0.07676326881235553,-0.011250112391254364]",4.0,"[0.08714327346113108,0.1007428013480443]",4.0,"[-0.1000523803746336,-0.08503147112865692]",4.0,"[0.008386707730128512,0.19466099153185948]",4.0,"[0.02,0.02]",142.0499,0.0,15.0,15.0,179.0,1.0,,,,,,,
,,,,,,,5d40a12f4994c40001e4b80c,68399dae6f7e59acd2acb45f,2025-05-30_14h01.33.871,shape_ratio,2024.1.5,Win32,60.24096386,683853e18dae57a2147b65e0,,,,,,,,,,,142.0504,142.5499,,,142.8069,143.3405,right,0.5173,,,,,,,,,0.9,,,,,,142.5499,142.8068,143.3405,"[0.12777096604840912,-0.07437787583402451]",100.0,"[-0.14785186153857136,-0.0020184057586188748]",100.0,"[0.11766341727048382,0.04397891783553021]",100.0,"[-0.13691337893897285,0.13991724354075505]",4.0,"[-0.024540417791376074,0.09809354469977259]",100.0,"[-0.1645672706386399,-0.05739403613132799]",100.0,"[0.040610518251648006,0.17416437409641547]",100.0,"[-0.01700422162736672,-0.03147465239151987]",100.0,"[0.12935704417497948,0.13901290489921977]",100.0,"[0.08149698760891802,-0.06174426769999413]",100.0,"[0.12367478754338693,-0.12834013544996245]",100.0,"[-0.06371279278710096,0.08368458880937654]",100.0,"[0.15129219291504362,-0.03734235080328502]",4.0,"[-0.14747580651336575,-0.11737547720810215]",100.0,"[-0.07863200906868999,0.02772979672184368]",100.0,"[-0.05830499814268017,-0.13639548666540507]",100.0,"[0.06991600009683774,-0.17174736289634873]",100.0,"[0.17252747028624704,-0.09723391961472411]",100.0,"[-0.10436098401042267,0.09818434475584087]",100.0,"[0.033657678684480524,0.082766255547823]",100.0,"[0.015967145883442134,0.12508988363425297]",100.0,"[-0.12286542281257827,-0.06562619452721578]",100.0,"[0.007515503191696654,-0.17459170495630266]",100.0,"[0.00668968257085142,-0.12352651246565292]",4.0,"[0.11366609017634133,0.0874429125927995]",100.0,"[0.025784419672262523,0.0030065560187098454]",100.0,"[-0.1576828146522571,0.09319833035626986]",100.0,"[0.11707745115802534,0.0012093028418301345]",100.0,"[-0.031161963455805613,0.02624787081889135]",100.0,"[-0.09755044361626543,-0.10989518572601129]",100.0,"[0.015800080562005128,0.04516837180361409]",100.0,"[0.05722972062529546,0.029043447009320357]",100.0,"[0.02,0.02]",144.4331,0.0,16.0,16.0,3.0,1.0,,,,,,,
,,,,,,,5d40a12f4994c40001e4b80c,68399dae6f7e59acd2acb45f,2025-05-30_14h01.33.871,shape_ratio,2024.1.5,Win32,60.24096386,683853e18dae57a2147b65e0,,,,,,,,,,,144.4336,144.9332,,,145.1906,145.7834,left,0.5669,,,,,,,,,0.1,,,,,,144.9332,145.1905,145.7834,"[0.10090916459978004,0.12021351616168272]",100.0,"[0.18874713438625257,0.042044758376074465]",4.0,"[0.09369688170562428,-0.05966184557551974]",4.0,"[-0.07402840384323515,0.09117814762102451]",4.0,"[0.033073251288754484,0.17906451383141153]",4.0,"[0.011466545989056741,0.08045532386687833]",4.0,"[0.1334861845915899,0.009115000832845317]",4.0,"[0.028304673117210695,-0.030708364717850146]",4.0,"[-0.0378935945657713,0.1486983898809588]",4.0,"[-0.0009677757991632045,-0.12030515804720757]",4.0,"[-0.09777844999046956,-0.0303046227832568]",4.0,"[0.13844449029139935,-0.08059567011638862]",4.0,"[0.17993419097460536,-0.03594026156322507]",4.0,"[-0.10418984316169816,-0.09229283131189474]",100.0,"[-0.16648123352371247,-0.005614422343451761]",4.0,"[-0.1402300119847367,0.0712034504600706]",4.0,"[0.05005407874343592,-0.1691101960589536]",4.0,"[0.1053252880390595,0.04499671894271268]",4.0,"[-0.029604040382022065,0.06732545417095549]",4.0,"[0.05307924897192426,0.033280328432181906]",100.0,"[-0.09577713929578746,0.17075558373423974]",4.0,"[-0.06719139267073089,0.020366105642356146]",4.0,"[-0.015298196778404062,-0.15852865212951664]",4.0,"[-0.014981263001215366,-0.04690366700477404]",4.0,"[0.05352881034856508,-0.083865537112576]",4.0,"[0.13005243774225866,-0.14636722836760452]",4.0,"[0.010954123510570771,0.019919689266529973]",4.0,"[-0.1453996723527802,0.12788477461862496]",4.0,"[-0.1818948620223208,-0.0794359751630137]",4.0,"[-0.1295691785420932,-0.14444889102172942]",4.0,"[-0.06160697563895065,-0.09072220869018066]",4.0,"[0.17558690483760317,0.08473715827122029]",4.0,"[0.02,0.02]",146.8832,0.0,17.0,17.0,200.0,1.0,,,,,,,
,,,,,,,5d40a12f4994c40001e4b80c,68399dae6f7e59acd2acb45f,2025-05-30_14h01.33.871,shape_ratio,2024.1.5,Win32,60.24096386,683853e18dae57a2147b65e0,,,,,,,,,,,146.8838,147.3833,,,147.6338,148.2503,left,0.6021,,,,,,,,,0.9,,,,,,147.3833,147.6337,148.2503,"[-0.11539393744098565,-0.12541513027058449]",100.0,"[0.13584313371114684,-0.07797856368498539]",100.0,"[-0.04051466191433107,-0.16544689957928138]",100.0,"[0.008787037335960663,-0.048233215150353635]",100.0,"[-0.09769982473727588,-0.024818747232651477]",100.0,"[-0.14248021255935728,-0.09512640502791606]",100.0,"[0.10907745912951132,0.0200226948159744]",100.0,"[0.09524825458705705,-0.14442660170127566]",4.0,"[0.026146382427641654,0.12372649456740062]",4.0,"[-0.09630124714418827,-0.17297911051750345]",100.0,"[-0.117342358700746,0.0706726520453606]",100.0,"[0.10727584632643809,0.07305178614735867]",100.0,"[0.18358816098909486,-0.07812728653205145]",100.0,"[0.056644135062519446,-0.18491437994993337]",100.0,"[-0.033426895299911455,0.1861474778330058]",100.0,"[0.015931732939629274,-0.18319424341886886]",100.0,"[-0.16289011112028678,-0.05036207428771754]",100.0,"[0.07741012310066687,-0.0493423400680759]",100.0,"[-0.011781769690899108,-0.1263970379754816]",100.0,"[-0.08076411742742536,0.10962981139991664]",100.0,"[-0.0787805161510193,-0.0610623376109824]",4.0,"[0.16463805625604402,0.10475172533816718]",100.0,"[0.16537875821159045,-0.017191436609377615]",100.0,"[-0.13653852767802208,0.00522799016607514]",100.0,"[0.0026682539664669705,0.027238034905747638]",100.0,"[-0.17849676445964377,0.04695572920914679]",100.0,"[0.18584031902449302,0.0463942901814837]",100.0,"[0.10064517017617025,0.12042435783922625]",100.0,"[-0.05720491842971661,0.053218507113907514]",100.0,"[0.11134016089582835,-0.027829085246062004]",100.0,"[-0.08300133951596542,0.16019153932455882]",100.0,"[0.07753603775580607,0.1639490218526827]",100.0,"[0.02,0.02]",149.3498,0.0,18.0,18.0,14.0,1.0,,,,,,,
,,,,,,,5d40a12f4994c40001e4b80c,68399dae6f7e59acd2acb45f,2025-05-30_14h01.33.871,shape_ratio,2024.1.5,Win32,60.24096386,683853e18dae57a2147b65e0,,,,,,,,,,,149.3504,149.8499,,,150.1002,150.6167,left,0.4998,,,,,,,,,0.1,,,,,,149.85,150.1002,150.6167,"[0.10058323938159303,-0.04732938265462641]",4.0,"[-0.08291807749066639,0.14277850701561748]",4.0,"[0.0509607334666569,0.02193598270599411]",4.0,"[0.1715790032448473,0.08929885386142927]",4.0,"[-0.0028488002325381344,-0.12727212374152536]",4.0,"[0.10881386591540883,0.08267954937511675]",4.0,"[0.14247083735047292,0.052372103441351306]",4.0,"[0.0662280390920797,0.11674919953964066]",4.0,"[-0.16738618421634682,0.031331339335840924]",4.0,"[-0.03369223524072505,0.14503538854525116]",4.0,"[0.1830940157197123,-0.06691205655665096]",100.0,"[-0.019132955464110753,0.08508587545932902]",4.0,"[0.027412408476452647,0.14554692776652453]",4.0,"[-0.13287587524135464,-0.06217137891247735]",4.0,"[0.1583502275006115,-0.010718345611934505]",100.0,"[-0.053364897573134354,-0.15700410717815103]",4.0,"[-0.0893315277704659,-0.040804555837567855]",4.0,"[-0.003628209601059843,0.03526365105070202]",4.0,"[0.0155014908818645,-0.0010776172806637142]",4.0,"[-0.13825827265937665,0.11527905157475729]",4.0,"[-0.1401317056010018,-0.00045003254960645513]",4.0,"[0.14531666266175094,-0.11538878041866135]",4.0,"[0.1067996133590362,0.16600047571835666]",4.0,"[-0.09303804149321024,0.09336851173876354]",4.0,"[-0.07745836369547204,-0.09147898224027469]",4.0,"[0.054641805949837065,0.19137828921854347]",4.0,"[-0.035792405358457,-0.004119195119395041]",4.0,"[0.0023826167986317863,-0.07681105799350034]",4.0,"[-0.07784845841973001,0.05345159075474413]",4.0,"[-0.14909593469282553,-0.11824641833482238]",4.0,"[-0.08779039310279427,0.009903390342422987]",4.0,"[0.019591306743727423,0.09637021484915881]",100.0,"[0.02,0.02]",151.7166,0.0,19.0,19.0,195.0,1.0,,,,,,,
,,,,,,,5d40a12f4994c40001e4b80c,68399dae6f7e59acd2acb45f,2025-05-30_14h01.33.871,shape_ratio,2024.1.5,Win32,60.24096386,683853e18dae57a2147b65e0,,,,,,,,,,,151.7172,152.2165,,,152.467,152.9668,left,0.4741,,,,,,,,,0.1,,,,,,152.2165,152.4669,152.9668,"[0.0008699064920711102,0.08329211836170781]",4.0,"[0.10370475768674074,-0.13967653017694712]",4.0,"[-0.17439464147376266,-0.03725899312560533]",4.0,"[0.1829575174175704,0.025627835571183106]",4.0,"[0.0961165273548218,0.07812785639753615]",4.0,"[-0.14745785690033686,-0.06993594276633398]",100.0,"[0.07236104578588873,0.010410117548619955]",4.0,"[-0.02225152752698252,-0.10147786060324213]",4.0,"[0.12832640931188746,-0.025333702406516]",4.0,"[-0.05596568708494598,0.039555023407387466]",4.0,"[-0.0841062839106139,-0.11028924584056948]",100.0,"[0.1800354898350131,0.07101741700892225]",4.0,"[-0.00747544856697259,-0.0351083070891996]",4.0,"[0.11219551596313773,0.038910057868821846]",4.0,"[0.07137718688180102,-0.05289038418498775]",100.0,"[0.02275407190729461,0.16004619755559363]",4.0,"[0.18522528313479733,-0.04037736726386443]",4.0,"[0.029629157447648196,-0.1319156823725244]",4.0,"[0.012584018061656344,-0.17958523513687719]",4.0,"[-0.13590633990663292,-0.11269593072871618]",4.0,"[-0.19031006212154314,0.03225580357981443]",4.0,"[-0.013378625886480833,0.043436148813637734]",4.0,"[0.12278753830514201,-0.070100537861902]",4.0,"[-0.16107614253791508,0.08991008424993686]",4.0,"[-0.1535250316364401,0.015587030298826484]",4.0,"[-0.0035998957311068128,0.1271123882307033]",4.0,"[-0.07382531644093579,-0.03147949087165887]",4.0,"[0.14891105337688607,0.11859211286285895]",4.0,"[-0.058701259182714384,-0.16032681501379822]",4.0,"[0.04637526128004642,0.11594354928176094]",4.0,"[-0.042788881573374994,0.14244412549659005]",4.0,"[0.10871030066060183,0.13991689060439613]",4.0,"[0.02,0.02]",154.0667,0.0,20.0,20.0,205.0,1.0,,,,,,,
,,,,,,,5d40a12f4994c40001e4b80c,68399dae6f7e59acd2acb45f,2025-05-30_14h01.33.871,shape_ratio,2024.1.5,Win32,60.24096386,683853e18dae57a2147b65e0,,,,,,,,,,,154.0672,154.5567,,,154.8004,155.2501,left,0.4173,,,,,,,,,0.4,,,,,,154.5568,154.8004,155.2502,"[0.09247574929917768,-0.013151472922392573]",100.0,"[-0.10355723640409187,0.0048057915767279686]",4.0,"[-0.07581784165047607,-0.02955189086243912]",100.0,"[0.05364206048602033,0.004697856605700316]",4.0,"[-0.025394697398873282,0.13888816722758393]",100.0,"[-0.15661800644028004,-0.1118507462008591]",4.0,"[-0.05783948372033244,-0.1848849218900423]",100.0,"[0.11249771821151257,-0.07045428691609598]",4.0,"[0.10885238664900833,-0.13110875230733568]",4.0,"[0.06127437858157265,-0.11234930241387985]",4.0,"[-0.06288708217515276,0.02204055734299073]",4.0,"[0.14887965029194777,0.07831726628843579]",4.0,"[-0.05050788197508825,-0.14272044100482095]",100.0,"[-0.13415824659570708,0.04338387400106677]",100.0,"[-0.060152717415625605,0.07414001596108322]",100.0,"[0.17441127157879416,-0.02813023972785036]",4.0,"[0.12049419619546037,0.13735324243255514]",4.0,"[-0.18841596438564215,0.026488854431152883]",4.0,"[-0.12665759605465463,-0.036442060143970216]",4.0,"[0.00036798063858011767,-0.03208513062961697]",4.0,"[0.017276240837798718,-0.1340966452733419]",100.0,"[-0.01743856221813883,-0.08495368007026091]",100.0,"[0.05381423057736153,0.16395249812218016]",4.0,"[0.12850380511988913,0.020381631921549754]",4.0,"[-0.1622140535910264,0.10203599464752607]",100.0,"[0.09339517281205575,-0.1744196168235015]",100.0,"[0.0840798186705799,0.04811798547566528]",100.0,"[0.1773457786631161,0.0124909627405701]",4.0,"[0.03804449952152012,-0.1790053840030451]",4.0,"[-0.08730927410813484,0.16035969388221416]",4.0,"[0.018166207689700942,0.11560899353438023]",4.0,"[-0.0022147219235696875,-0.18432633714997154]",100.0,"[0.02,0.02]",156.3506,0.0,21.0,21.0,155.0,1.0,,,,,,,
,,,,,,,5d40a12f4994c40001e4b80c,68399dae6f7e59acd2acb45f,2025-05-30_14h01.33.871,shape_ratio,2024.1.5,Win32,60.24096386,683853e18dae57a2147b65e0,,,,,,,,,,,156.3511,156.8578,,,157.107,157.7841,right,0.6505,,,,,,,,,0.45,,,,,,156.8578,157.1069,157.7842,"[0.13119667194232865,-0.012999287143884]",4.0,"[0.13477942747997548,-0.11768082850852654]",4.0,"[-0.08477788532391277,0.09935623221056952]",4.0,"[0.058881470421009136,0.16569714073294026]",100.0,"[0.051394257267250616,0.11573684282297905]",4.0,"[0.038258542459064064,-0.11670869083502133]",100.0,"[-0.04940209181997099,0.07534018912739315]",4.0,"[-0.1130364060838239,0.005197869533738941]",4.0,"[0.005873760455250193,-0.06277746851441099]",100.0,"[0.08412083605893647,-0.06451648854079436]",100.0,"[-0.050396823761330554,-0.1598275892881581]",4.0,"[-0.024851041128590202,-0.08869837669654725]",100.0,"[-0.14744268632866162,-0.10724444007331219]",100.0,"[0.1487277526025518,0.05479631189415109]",4.0,"[-0.012691489226607832,-0.1937783587204618]",100.0,"[-0.02186842430902716,0.16683168137243748]",4.0,"[-0.0007886785167391278,-0.0007766394425354052]",4.0,"[-0.17213361680949746,-0.05792467486869663]",100.0,"[0.16670008920291315,-0.0894509892778828]",100.0,"[-0.0016098034938292378,0.03924312593469829]",4.0,"[0.08658380592318042,-0.020497236377505446]",4.0,"[0.12000607150019894,0.14659455141490246]",100.0,"[-0.1452407343782444,0.12518657289922303]",4.0,"[-0.05413547340502639,-0.013052329747364094]",4.0,"[0.00047889283874920775,0.12366550761116873]",4.0,"[0.06070193860719641,-0.16944260645584008]",4.0,"[-0.08131413351706614,0.04373041899983052]",4.0,"[0.17436014779092673,-0.022952327867171805]",100.0,"[0.03235940806767088,0.07490921618218596]",100.0,"[-0.18448638281787888,0.05907232131534126]",100.0,"[-0.08329116020483414,0.1613342025953603]",100.0,"[-0.17829923253659513,0.007454106068753445]",4.0,"[0.02,0.02]",158.8837,0.0,22.0,22.0,149.0,1.0,,,,,,,
,,,,,,,5d40a12f4994c40001e4b80c,68399dae6f7e59acd2acb45f,2025-05-30_14h01.33.871,shape_ratio,2024.1.5,Win32,60.24096386,683853e18dae57a2147b65e0,,,,,,,,,,,158.8843,159.3837,,,159.6339,160.1667,left,0.5007,,,,,,,,,0.1,,,,,,159.3838,159.6339,160.1668,"[0.028421903940822613,-0.0692813433796591]",4.0,"[0.18306310585904348,-0.06406462893877023]",4.0,"[0.12894056200939336,0.08066764438888385]",4.0,"[0.06657689045409682,-0.1570373731578858]",4.0,"[-0.1760483019331988,0.051542132080540995]",4.0,"[-0.023977638994770564,0.03357761415618419]",4.0,"[-0.028452206263242595,-0.18610166285465465]",4.0,"[-0.1117976897905818,0.0013332073752748475]",100.0,"[0.0476879057554708,0.09131426759975951]",4.0,"[-0.03856524288370838,0.15139325565484418]",4.0,"[0.009101885970737586,0.14160500777107624]",4.0,"[-0.08760326188564815,-0.16517526881947847]",4.0,"[-0.12354981199261138,0.09928131298770126]",4.0,"[0.00285864247405045,-0.16005931796682987]",4.0,"[-0.011908484438915401,-0.04434046951154443]",4.0,"[-0.06912799573136738,-0.09815533325241792]",4.0,"[0.1579828201719935,0.12176587456226767]",4.0,"[-0.06812266832343203,0.09080213965618447]",4.0,"[0.11400599141466732,-0.11911359477905173]",4.0,"[-0.14294300149082453,-0.11850853009078609]",4.0,"[-0.17400496718709693,0.09798274300997462]",4.0,"[-0.0594494177087587,-0.04746004627141582]",4.0,"[0.006783037899355243,0.19171820440471854]",4.0,"[-0.07864422701270596,0.182327011793157]",4.0,"[0.06447341690299804,-0.01858813969835816]",4.0,"[0.11387039809283986,-0.04179706749073601]",4.0,"[-0.13304403777296692,-0.06287075516476223]",4.0,"[0.10044611876633369,0.047457509943002955]",100.0,"[0.17325454481923142,0.08345819395371175]",4.0,"[0.0049172807434704185,0.004915037431824719]",100.0,"[-0.014474535916943306,-0.11065430656902565]",4.0,"[0.19202212908431437,0.028335320182605872]",4.0,"[0.02,0.02]",161.2666,0.0,23.0,23.0,186.0,1.0,,,,,,,
,,,,,,,5d40a12f4994c40001e4b80c,68399dae6f7e59acd2acb45f,2025-05-30_14h01.33.871,shape_ratio,2024.1.5,Win32,60.24096386,683853e18dae57a2147b65e0,,,,,,,,,,,161.267,161.7669,,,162.0208,162.5501,left,0.5016,,,,,,,,,0.45,,,,,,161.7669,162.0207,162.5501,"[-0.035370983434159994,0.17330820906408165]",100.0,"[-0.004298145513534019,-0.16901986372024547]",4.0,"[0.174932276201983,-0.05211966535412194]",4.0,"[0.0028968069406150126,0.01632808695537922]",100.0,"[0.1133916339498337,0.10994606567084639]",4.0,"[0.03707346176902018,-0.16171725953403088]",4.0,"[-0.17563433880421944,-0.004827162838092021]",100.0,"[0.12871843609029612,0.06239515857140424]",100.0,"[-0.09235532491605113,-0.011749764767762579]",4.0,"[0.04024873862563124,0.0995980428348379]",4.0,"[0.13109597336735643,-0.03637877447515604]",100.0,"[0.16119126058206157,0.09984728408692485]",4.0,"[-0.0575918211125892,0.03846775073780271]",100.0,"[0.0157100391796537,-0.08991220509905419]",100.0,"[-0.1487596010114812,0.059403857337239685]",100.0,"[-0.0741517382686998,-0.17167745371156004]",4.0,"[-0.11200544365866172,0.09269301523136261]",100.0,"[-0.09445799836705732,0.16446114691973968]",4.0,"[0.13445856525976344,-0.08126208584132358]",4.0,"[0.08630537112154071,0.054614932371189084]",100.0,"[-0.1486128995904682,-0.1251761712666779]",4.0,"[-0.011473949800003899,-0.022168971968590825]",4.0,"[0.1946341720075272,0.04225458889634945]",4.0,"[-0.0007046820170364285,0.13264766797856034]",4.0,"[-0.05158927160371504,-0.04348212674771449]",100.0,"[0.16178515100979332,0.007461341677464567]",4.0,"[0.01739966355721456,0.19680119243479383]",4.0,"[-0.11059093792833627,-0.14629053974917608]",100.0,"[0.07111703563065415,-0.045097573240760566]",100.0,"[-0.12118958443852537,-0.04964080596680348]",4.0,"[-0.18098582050848172,-0.06181906871887846]",100.0,"[-0.021591594451009437,0.0835442605242754]",4.0,"[0.02,0.02]",163.6501,0.0,24.0,24.0,125.0,1.0,,,,,,,
,,,,,,,5d40a12f4994c40001e4b80c,68399dae6f7e59acd2acb45f,2025-05-30_14h01.33.871,shape_ratio,2024.1.5,Win32,60.24096386,683853e18dae57a2147b65e0,,,,,,,,,,,163.6505,164.1501,,,164.4007,164.8005,left,0.3738,,,,,,,,,0.1,,,,,,164.1501,164.4006,164.8006,"[0.09963083702664507,0.15424925801197056]",4.0,"[-0.09899770710668367,-0.038394511232222574]",4.0,"[-0.039365460410715834,0.1311720988341409]",4.0,"[-0.17449773918148356,0.012011547823068285]",4.0,"[0.06466837011933743,-0.12796542159042953]",4.0,"[-0.05278601001082367,-0.048087686467572076]",4.0,"[0.03427304320867429,-0.04373411175997728]",4.0,"[0.06724073942266845,-0.01691835405571183]",4.0,"[0.18607538789064457,0.0030057248154115902]",4.0,"[-0.10273550836235011,0.05103731353798983]",4.0,"[0.1584544590112536,0.09005235827887309]",4.0,"[-0.15415906412553587,0.084088884121349]",4.0,"[0.07371551743529442,-0.08413150593713954]",4.0,"[0.005075511015460879,0.09280913408783259]",100.0,"[-0.033426122741021386,0.02608921214001274]",4.0,"[0.005400049995458277,0.047474782346447995]",100.0,"[-0.01086282572712352,-0.09701828634676465]",4.0,"[-0.12096064262276371,0.15120133072011002]",4.0,"[-0.12009823905293869,-0.10178150104047246]",4.0,"[-0.10674715389271903,0.09769134625558423]",4.0,"[0.09779742754634577,0.036433230540850355]",4.0,"[-0.022130104500136905,-0.14761616802769767]",4.0,"[-0.15896177520092664,-0.08514372893625897]",4.0,"[-0.07148211442696517,-0.18469330297461817]",4.0,"[0.03295225733847523,0.12199304752804056]",100.0,"[0.11931743722288433,-0.0045919254847124205]",4.0,"[0.00514279367250764,0.16000243287971144]",4.0,"[-0.13818440297032386,-0.04706115239859907]",4.0,"[0.12766940817003622,-0.06059211953433262]",4.0,"[0.02364184459803333,-0.12799086545511162]",4.0,"[0.10944372645891882,-0.1170463470613932]",4.0,"[0.0994596293843936,0.09058193312660114]",4.0,"[0.02,0.02]",165.9002,0.0,25.0,25.0,182.0,1.0,,,,,,,
,,,,,,,5d40a12f4994c40001e4b80c,68399dae6f7e59acd2acb45f,2025-05-30_14h01.33.871,shape_ratio,2024.1.5,Win32,60.24096386,683853e18dae57a2147b65e0,,,,,,,,,,,165.9006,166.4001,,,166.6405,167.2169,right,0.5499,,,,,,,,,0.6,,,,,,166.4002,166.6405,167.217,"[-0.11430635062162642,-0.09729382469567657]",100.0,"[0.03646992512077073,-0.006934685355483616]",100.0,"[-0.117758430217319,0.1433509671012586]",100.0,"[-0.010566579600834188,-0.12736692726633375]",100.0,"[-0.07832499304593485,-0.004416282001179428]",4.0,"[-0.1521227779085123,-0.00430598051338702]",100.0,"[0.1440807603079035,0.006349176584079132]",100.0,"[-0.12740807198687923,0.10422296420231984]",100.0,"[0.06628853932484886,0.12647817110637408]",100.0,"[-0.014249873840406994,0.10020023975866803]",100.0,"[0.061600440377887436,-0.1757264496007251]",4.0,"[0.18323417550058457,0.07516914263173843]",4.0,"[0.011812291252559688,0.05122348599309257]",100.0,"[0.1822751883761019,-0.05306652302708296]",4.0,"[-0.002447774156307794,-0.1883753044259668]",4.0,"[-0.03662968952346941,0.18320508313810507]",100.0,"[0.10000805597799936,-0.05153665177951069]",4.0,"[-0.0567765423902544,-0.06017007052810757]",100.0,"[-0.057226393938555144,-0.11723682524297291]",100.0,"[0.0018963546551284533,0.14351022192921944]",100.0,"[-0.1806642317966675,0.027214713084218276]",4.0,"[0.14471682528268223,-0.097679834315851]",100.0,"[0.04676745941449593,0.08341101020794676]",100.0,"[-0.154258884777911,-0.06304556994071824]",4.0,"[-0.08845838308670485,-0.1428829407819017]",100.0,"[0.004249403342539863,-0.07799169590448776]",4.0,"[0.05867016692244292,0.03630414501564008]",100.0,"[-0.020714226260736712,0.021137483815992085]",100.0,"[0.08769603452066728,-0.10075824665768043]",4.0,"[0.10545802466259893,0.06579700860677183]",4.0,"[-0.05444212923972136,0.1354252132785502]",4.0,"[0.14256718830826806,0.10535423836353902]",4.0,"[0.02,0.02]",168.3167,0.0,26.0,26.0,58.0,1.0,,,,,,,
,,,,,,,5d40a12f4994c40001e4b80c,68399dae6f7e59acd2acb45f,2025-05-30_14h01.33.871,shape_ratio,2024.1.5,Win32,60.24096386,683853e18dae57a2147b65e0,,,,,,,,,,,168.3171,168.8169,,,169.0577,169.4507,left,0.3728,,,,,,,,,0.4,,,,,,168.8169,169.0577,169.4509,"[-0.18564342803183906,-0.03088983698598872]",4.0,"[-0.02018986462343582,0.04859024671548676]",100.0,"[-0.16122886395244393,0.11718066939870816]",4.0,"[0.12044272272605545,0.011474676687622946]",100.0,"[-0.08361402404580473,0.13592255708068035]",4.0,"[0.08528993275834898,-0.09129467746882804]",100.0,"[-0.14176441343101118,0.04624812745252492]",4.0,"[0.06277799031489036,0.11825758594696023]",4.0,"[-0.0699389024667292,0.03499604360648462]",4.0,"[0.1436076316069704,0.13099868543012982]",4.0,"[-0.06367651756672041,-0.07979697955731707]",4.0,"[-0.04168561593174671,-0.16732658545984846]",4.0,"[-0.025338455130969002,0.1609296056836816]",100.0,"[-0.04951928759650126,-0.007692500728356502]",4.0,"[0.15239885342536214,-0.02486040039526604]",100.0,"[0.08680670409535667,0.07054176640622305]",100.0,"[-0.023325164435913995,-0.07756119928033844]",4.0,"[-0.15051881312093826,-0.07510628520232876]",100.0,"[0.11740739188240286,-0.12243181426416698]",100.0,"[-0.11124938141548242,0.09918273500054368]",4.0,"[0.10257340635110111,-0.04965785014627007]",100.0,"[0.07529063388082631,0.03161853981231179]",4.0,"[0.17992985643112938,0.01930521900303747]",4.0,"[-0.10461579266500938,0.0020676708928966097]",4.0,"[0.008402020232328961,-0.04193121514269487]",4.0,"[-0.1290289031088755,-0.1383454394726756]",4.0,"[0.04340193206495723,-0.18406211695540764]",100.0,"[-0.10803100827621713,-0.10245785252234368]",100.0,"[0.0837136702008147,-0.0103917585377939]",4.0,"[-0.1838035956528256,0.018427537531344147]",100.0,"[0.010517330870417478,0.1289276346144318]",4.0,"[0.14115575882338224,0.06118266901026034]",100.0,"[0.02,0.02]",170.5504,0.0,27.0,27.0,164.0,1.0,,,,,,,
,,,,,,,5d40a12f4994c40001e4b80c,68399dae6f7e59acd2acb45f,2025-05-30_14h01.33.871,shape_ratio,2024.1.5,Win32,60.24096386,683853e18dae57a2147b65e0,,,,,,,,,,,170.551,171.05,,,171.291,171.8336,right,0.524,,,,,,,,,0.55,,,,,,171.0501,171.2909,171.8337,"[-0.010351975744466502,0.10641030835811909]",100.0,"[0.10217229728353958,0.10693254879540519]",100.0,"[0.12199190017831424,0.07080604272616102]",4.0,"[-0.010042683245067978,0.1491114679530511]",4.0,"[-0.15372668781083712,0.11046399721911256]",4.0,"[-0.16039449539872552,-0.0712494332025612]",4.0,"[0.06758659015988734,-0.13019388068654733]",100.0,"[-0.15285249537524845,-0.0053421285922506815]",100.0,"[-0.09903988918438195,0.08400027514331145]",4.0,"[-0.15689493740486893,0.045947384549957414]",4.0,"[-0.07975606329593572,-0.0404538773925062]",4.0,"[-0.12969159629216737,-0.13500934056676872]",4.0,"[-0.004451183323549134,0.041754768170310395]",100.0,"[-0.04237601698155602,-0.07556801118406725]",100.0,"[0.0011132917454894334,-0.06510862279867403]",4.0,"[-0.18277822225484086,0.08087323834194249]",100.0,"[-0.12267945488841947,-0.04160371424514973]",100.0,"[0.17322080967242293,-0.023978579799768644]",4.0,"[-0.06560318597107138,0.0024361725048443967]",100.0,"[-0.05838559277044429,0.08891246106598316]",100.0,"[0.020498483067571165,-0.17262645519371417]",4.0,"[0.05192979996200684,0.09936905877646078]",4.0,"[-0.1934550741327218,-0.035613772909340535]",100.0,"[-0.10188799978356108,-0.07625613548678306]",100.0,"[0.06934245991253275,-0.03240860745198471]",100.0,"[-0.08036010454975835,0.1249257763121405]",100.0,"[-0.07887288505115493,-0.14873116504193074]",100.0,"[0.163049850748283,-0.06876489374756793]",100.0,"[0.10066464764583467,0.01978578738765767]",4.0,"[0.14320399630714703,0.10860351297475056]",100.0,"[0.1176699385292545,-0.018354948680819435]",100.0,"[0.11975657842824491,-0.1040548484023234]",4.0,"[0.02,0.02]",172.9335,0.0,28.0,28.0,65.0,1.0,,,,,,,
,,,,,,,5d40a12f4994c40001e4b80c,68399dae6f7e59acd2acb45f,2025-05-30_14h01.33.871,shape_ratio,2024.1.5,Win32,60.24096386,683853e18dae57a2147b65e0,,,,,,,,,,,172.9339,173.4336,,,173.6911,174.1337,left,0.417,,,,,,,,,0.5,,,,,,173.4336,173.691,174.1337,"[-0.1240106364608206,0.007487234908978467]",100.0,"[0.13833726906571858,0.11814765896630591]",4.0,"[-0.04950966873493797,-0.04733530444009067]",100.0,"[0.007955083195161838,0.19192712959734148]",4.0,"[0.16103369711518986,-0.08958942002500565]",4.0,"[-0.058341472249107795,0.05459839174769097]",100.0,"[-0.09672904825110483,-0.1538173193417902]",4.0,"[-0.023559630704116766,-0.14260481539367023]",100.0,"[-0.14505302950713772,0.07837267807002768]",4.0,"[-0.0997759507485359,-0.10077372808825516]",100.0,"[0.012788712160947839,-0.18464400267278094]",4.0,"[0.02902826676311158,-0.039298882890216304]",100.0,"[-0.17061004761916107,-0.030664796026794765]",4.0,"[-0.008197731984438078,0.09757542718807521]",4.0,"[-0.004808629347112679,0.13876768933905803]",100.0,"[0.0698722063980408,-0.02876089720763127]",100.0,"[0.10360501563798089,0.04988354937629974]",4.0,"[0.16590431532471928,0.08341699793565026]",4.0,"[-0.09835235144468016,0.12029383917585484]",100.0,"[-0.04955334243944011,0.09868485750447066]",4.0,"[0.0342083920436273,-0.11667737466284896]",4.0,"[-0.037838219311739925,0.1815414790246353]",100.0,"[-0.18134432053965382,0.061173277374424885]",4.0,"[0.17924283917764505,-0.04592423567504104]",100.0,"[0.08356610433436187,0.13310933474997366]",100.0,"[0.10890991661255621,-0.10092906098453826]",4.0,"[-0.048090605137682776,-0.09912256435219327]",100.0,"[0.04227295788946161,0.06298131941791053]",100.0,"[-0.17764207514526148,-0.08820031182378353]",100.0,"[0.10383442259292154,-0.1475136191082772]",4.0,"[-0.04378626620547617,-0.17965354230586644]",4.0,"[0.18988828694275045,0.008112960716098837]",100.0,"[0.02,0.02]",175.2336,0.0,29.0,29.0,113.0,1.0,,,,,,,
,,,,,,,5d40a12f4994c40001e4b80c,68399dae6f7e59acd2acb45f,2025-05-30_14h01.33.871,shape_ratio,2024.1.5,Win32,60.24096386,683853e18dae57a2147b65e0,,,,,,,,,,,175.234,175.7336,,,175.984,176.5505,right,0.5336,,,,,,,,,0.4,,,,,,175.7336,175.984,176.5505,"[0.11751535822445067,0.08174081592006381]",4.0,"[-0.1029383727766082,0.10693085387803804]",100.0,"[-0.14007437472104703,0.017569929613545747]",4.0,"[0.0933416405668794,0.15270682329896462]",4.0,"[0.052108754576824665,0.19196058992303094]",4.0,"[0.0629706159374271,0.01285718984090495]",4.0,"[0.11015999727406975,-0.001001243215858507]",4.0,"[0.022135097524643602,0.12534123002361988]",100.0,"[0.18915000929921857,0.04701164772286158]",4.0,"[0.0023414991041449825,0.05538770131252715]",4.0,"[-0.045520682344570344,0.1748608300923657]",4.0,"[-0.07950438420020162,-0.11186296066924288]",100.0,"[-0.021957674801994502,-0.11852354305687812]",100.0,"[-0.07172076214442652,0.04693282294148274]",4.0,"[-0.18578864546890286,0.017531443900159534]",4.0,"[0.02440537901426603,-0.19706185885414146]",4.0,"[0.012544142236184446,-0.08533916043203017]",100.0,"[0.1735860214834548,-0.052850909587978404]",4.0,"[-0.007597525567098369,-0.049925678498894996]",4.0,"[0.06068888234541575,-0.12286016114218917]",100.0,"[-0.05422765839566777,-0.052404425505878996]",100.0,"[-0.1587582885692447,0.10474376776333981]",100.0,"[0.01946434427937946,0.0165577035034609]",100.0,"[0.15299638759543624,-0.12536616263702313]",4.0,"[-0.04574524740193867,0.006887509238467114]",100.0,"[0.012149271589827346,0.18214648168325354]",100.0,"[-0.16605837684859778,-0.10297920127229339]",4.0,"[-0.10609794712479843,0.1517648218276487]",4.0,"[0.15019827186872028,0.0571381309431834]",100.0,"[-0.04598222866071643,-0.1741239133548535]",4.0,"[-0.02039666753451695,0.13590875808820863]",4.0,"[-0.14093031921877136,0.06838845610315872]",100.0,"[0.02,0.02]",177.6503,0.0,30.0,30.0,163.0,1.0,,,,,,,
,,,,,,,5d40a12f4994c40001e4b80c,68399dae6f7e59acd2acb45f,2025-05-30_14h01.33.871,shape_ratio,2024.1.5,Win32,60.24096386,683853e18dae57a2147b65e0,,,,,,,,,,,177.6507,178.1502,,,178.4076,178.867,right,0.4339,,,,,,,,,0.5,,,,,,178.1502,178.4075,178.8671,"[0.03482379091978254,0.1301523600642747]",4.0,"[-0.15364916073990897,0.07034267131754608]",100.0,"[-0.009699353521577586,-0.05965691291247493]",4.0,"[-0.146554337014687,-0.06827598651122363]",100.0,"[0.16319112626808333,-0.0397688896748126]",4.0,"[-0.18776831508188613,0.0198810710210513]",4.0,"[-0.055031026473417996,-0.045586400121995836]",4.0,"[0.05314246107220379,0.18863443070990046]",4.0,"[-0.09981200518804091,-0.14647707816605224]",4.0,"[0.0842444058806469,-0.03842972519674814]",4.0,"[0.044426964758529655,-0.014463732197217522]",100.0,"[-0.04343226185161866,0.09400323557017835]",100.0,"[0.05552611992448394,-0.0842577999450533]",100.0,"[-0.03525539408983727,-0.10091021362972728]",100.0,"[0.10393150793759573,0.03326597908449793]",100.0,"[-0.032903836508531716,0.170526051390353]",4.0,"[0.17078325737277011,0.0071384529495291385]",100.0,"[-0.11179112382221082,0.03474387355577165]",100.0,"[-0.0034656404848996095,0.055636660594530964]",100.0,"[0.1070171921263666,0.11156152365442927]",100.0,"[0.006695223890310882,-0.15102955471581464]",4.0,"[-0.07572062668572999,0.14198286990072015]",4.0,"[0.1522463389708215,0.056765660036513885]",4.0,"[0.14929017261171665,-0.1077599361008621]",4.0,"[-0.0831727547610936,-0.0059014340285787545]",4.0,"[0.0061541429362720204,-0.10775565921631633]",4.0,"[-0.03406432120213988,0.019257712838446888]",4.0,"[-0.18392047577339246,-0.04149025355872232]",100.0,"[-0.007212944198398014,-0.19318061053591207]",100.0,"[-0.12985068423809823,-0.026575052108858334]",100.0,"[0.08344250523876591,-0.12469918844524297]",100.0,"[-0.08937263516459079,0.07098785478805739]",100.0,"[0.02,0.02]",179.9668,0.0,31.0,31.0,90.0,1.0,,,,,,,
,,,,,,,5d40a12f4994c40001e4b80c,68399dae6f7e59acd2acb45f,2025-05-30_14h01.33.871,shape_ratio,2024.1.5,Win32,60.24096386,683853e18dae57a2147b65e0,,,,,,,,,,,179.9672,180.4669,,,180.7075,181.3504,left,0.617,,,,,,,,,0.5,,,,,,180.467,180.7074,181.3505,"[0.18433898618864317,-0.010621794145846096]",100.0,"[-0.10456003838207685,-0.01119404344455115]",100.0,"[0.027234012507808294,-0.10618943201107454]",100.0,"[0.1265061701628555,-0.11311584420347066]",100.0,"[-0.030577644506260004,0.06020555421140657]",4.0,"[0.06536320980055209,-0.04056485082141697]",4.0,"[-0.10580233137025875,-0.11741848201659717]",100.0,"[-0.08665859920611116,-0.05704736551390855]",100.0,"[0.002412907057099366,-0.14974738737026622]",100.0,"[-0.16558378045429978,0.08346428472838274]",4.0,"[0.0490331216370085,0.1440743642887183]",4.0,"[-0.05465448866037736,-0.181716811332657]",100.0,"[-0.026154553325543364,0.1158806365612884]",4.0,"[0.17600158057977305,-0.051655645073565175]",4.0,"[0.09799869732502889,0.16534047536268123]",4.0,"[0.18145721441278673,0.04431587006431884]",4.0,"[-0.09902158270801556,0.12555849227521498]",100.0,"[0.13888646058612977,0.06934524668924708]",4.0,"[-0.1653065480746057,0.016483681845361642]",100.0,"[0.11466273518259698,0.016572102170668776]",100.0,"[0.013797863357397681,-0.03987129966784704]",100.0,"[0.04095455806962962,0.07226303115987487]",4.0,"[0.07888262771588608,0.045569495480777523]",4.0,"[0.14038793411598985,-0.016532738862857086]",100.0,"[-0.032781009825404356,-0.051899349787688176]",4.0,"[-0.08482553244076114,0.16305398445970118]",4.0,"[-0.03367216564567349,-0.10993521467554553]",4.0,"[-0.05131268211485995,0.0058325571277206825]",4.0,"[0.08924570181420773,0.09508633968603854]",100.0,"[-0.09219194668808493,0.04979314748640224]",4.0,"[-0.15168807132163448,-0.06967274371695352]",100.0,"[-0.13625689374104744,0.14024253987915775]",100.0,"[0.02,0.02]",182.4504,0.0,32.0,32.0,115.0,1.0,,,,,,,
,,,,,,,5d40a12f4994c40001e4b80c,68399dae6f7e59acd2acb45f,2025-05-30_14h01.33.871,shape_ratio,2024.1.5,Win32,60.24096386,683853e18dae57a2147b65e0,,,,,,,,,,,182.4508,182.9504,,,183.2075,183.7338,left,0.5006,,,,,,,,,0.1,,,,,,182.9504,183.2074,183.7339,"[0.1931112989043494,-0.033732584949547686]",4.0,"[0.03554945352727026,0.05522481315401282]",4.0,"[-0.03623134682198556,-0.09232156892180803]",4.0,"[0.1350956462043029,0.05987024256571199]",4.0,"[-0.040808510127219075,0.018622106496244444]",4.0,"[0.01747903480986003,-0.07513630816005572]",4.0,"[-0.00793654424950501,-0.13227806589948912]",4.0,"[-0.0077961214048325326,0.07340670153030933]",4.0,"[0.12033072230207714,-0.12749399746079468]",4.0,"[-0.08075618383797427,0.085944483968194]",4.0,"[-0.02551979348909788,0.192358606034524]",4.0,"[0.15844387207370178,-0.06054077423549088]",100.0,"[0.06833507444128081,0.18470356249275896]",100.0,"[-0.15570330858015352,-0.034649168981718055]",4.0,"[0.04481923842593466,0.01083474593752692]",4.0,"[0.07508108015313955,-0.019564692541997896]",4.0,"[0.11118521279371608,-0.06608372661250428]",4.0,"[-0.10913271847884086,-0.031109011501230827]",4.0,"[0.048743931083723054,0.11887422898099474]",4.0,"[-0.10414355295758797,0.128714148253557]",4.0,"[-0.11267570552654677,-0.14709934201005834]",4.0,"[0.061379311120180496,-0.18463500934971547]",4.0,"[0.021261424592323646,-0.1970404581210005]",4.0,"[0.15451339944057918,0.01155485360419353]",100.0,"[0.15265660280034102,0.10845680461089754]",4.0,"[-0.030426297867732568,-0.04730396250574824]",4.0,"[-0.08776520421759101,-0.07621578252227305]",4.0,"[-0.10156335676215164,0.017265425763496208]",4.0,"[0.10522992489852213,0.018612656785976095]",4.0,"[0.08812122328278228,0.13709894924646712]",4.0,"[-0.13363804974249865,0.08138634211786965]",4.0,"[-0.14323159159599314,-0.11721323936758674]",4.0,"[0.02,0.02]",184.8337,0.0,33.0,33.0,201.0,1.0,,,,,,,
,,,,,,,5d40a12f4994c40001e4b80c,68399dae6f7e59acd2acb45f,2025-05-30_14h01.33.871,shape_ratio,2024.1.5,Win32,60.24096386,683853e18dae57a2147b65e0,,,,,,,,,,,184.8342,185.3337,,,185.5743,186.0846,left,0.4833,,,,,,,,,0.45,,,,,,185.3337,185.5742,186.0846,"[0.032982611446748016,0.18597226921385057]",100.0,"[0.10149498455603294,-0.1121152955025081]",4.0,"[-0.009670809977918679,-0.06906208961151651]",100.0,"[0.0945274416442389,0.014739393139062796]",100.0,"[-0.05166939256721415,-0.1834577429250741]",4.0,"[0.06395919479051745,0.08580930155367064]",4.0,"[0.17533167832888763,0.042515763250438134]",100.0,"[-0.15226342776479518,-0.0194848514273194]",100.0,"[-0.15406012205541056,0.07823219006467742]",100.0,"[-0.16085249771461632,-0.09627231080507308]",4.0,"[-0.0732016133310754,0.07523150810116903]",4.0,"[-0.019761545015911385,-0.11115080158220557]",4.0,"[-0.01891116049391046,0.15473608881168657]",4.0,"[-0.11164795161769947,-0.07613224213807866]",4.0,"[0.00930417830647156,-0.029002536874664885]",4.0,"[0.18008247346063294,-0.03991885811302287]",100.0,"[-0.09901096960760719,-0.1628858178749812]",4.0,"[0.006388028768111946,-0.16114926634957]",4.0,"[-0.08415883486797968,0.16932191867823046]",100.0,"[0.11994027810528125,0.0977766349277828]",100.0,"[0.04965106789675004,0.14593167393276946]",100.0,"[0.056165236993694426,-0.16313428161606905]",4.0,"[0.05312467954990795,0.013838809608056024]",100.0,"[0.09192983302459552,0.14852417893644018]",100.0,"[-0.07482346847584859,0.12240361197879861]",4.0,"[0.12764556384328982,0.05368670214038013]",4.0,"[-0.06573684106760108,-0.0511371595933682]",100.0,"[0.01423654119792264,0.1150939911454586]",100.0,"[0.010047614797709955,0.021947351916549344]",4.0,"[0.13508377931223725,-0.035505463133357625]",4.0,"[-0.006507947457385501,0.07795311525386345]",4.0,"[-0.14418545668758592,0.1248324380918492]",4.0,"[0.02,0.02]",187.1838,0.0,34.0,34.0,121.0,1.0,,,,,,,
,,,,,,,5d40a12f4994c40001e4b80c,68399dae6f7e59acd2acb45f,2025-05-30_14h01.33.871,shape_ratio,2024.1.5,Win32,60.24096386,683853e18dae57a2147b65e0,,,,,,,,,,,187.1842,187.6843,,,187.9244,188.3339,right,0.3847,,,,,,,,,0.55,,,,,,187.6843,187.9244,188.334,"[0.18194833000362343,0.06248105119689054]",100.0,"[0.03319633240069826,-0.17181797428510978]",4.0,"[-0.027949598663045264,0.10145856797848894]",4.0,"[-0.08035782814967656,-0.14659217863885923]",4.0,"[0.18342257632291867,0.017393891335918184]",4.0,"[0.05240787474237361,-0.1330922069818147]",4.0,"[0.059308913560150604,0.026766206238802572]",4.0,"[0.014425045792427184,0.06087707804697437]",100.0,"[0.13349123676904293,0.08216375501561692]",100.0,"[-0.08921419391441182,0.17196770751176327]",100.0,"[-0.04474367220610154,0.18245870353423888]",100.0,"[0.09312263527020795,-0.0012169326173827341]",100.0,"[-0.05250494930480838,0.016434093479983997]",4.0,"[-0.18821026341467442,0.037043104161749434]",4.0,"[-0.10731015720413174,0.09416703866010272]",100.0,"[0.11937781372651388,0.12755847889765531]",100.0,"[-0.14903531890581792,0.06651665363817447]",100.0,"[0.15835145420627578,-0.04811269791335164]",100.0,"[0.09810084014172069,-0.1726710074993023]",100.0,"[0.013953590510762988,0.1799561924153841]",100.0,"[-0.06533820952023164,-0.05354552130661476]",4.0,"[-0.025232026693074283,-0.05655001974883691]",100.0,"[0.037388375997461136,-0.09181553724026563]",100.0,"[-0.13211870826168365,-0.022661623711747878]",4.0,"[0.12671906000217514,-0.09403151226530357]",4.0,"[0.05732641441997985,-0.03344094010301124]",100.0,"[-0.04537209610365512,-0.17624367801863827]",4.0,"[-0.14688900615807465,0.11822289680756526]",100.0,"[-0.006493265734025326,-0.1646707015509156]",4.0,"[-0.0397074458443279,-0.12430542407268327]",100.0,"[-0.12376596516202776,-0.08965287062940835]",100.0,"[0.06005945169699162,0.07658683472916927]",4.0,"[0.02,0.02]",189.4343,0.0,35.0,35.0,82.0,1.0,,,,,,,
,,,,,,,5d40a12f4994c40001e4b80c,68399dae6f7e59acd2acb45f,2025-05-30_14h01.33.871,shape_ratio,2024.1.5,Win32,60.24096386,683853e18dae57a2147b65e0,,,,,,,,,,,189.4349,189.9346,,,190.1734,190.584,right,0.3904,,,,,,,,,0.9,,,,,,189.9347,190.1734,190.584,"[0.08415574218491939,-0.14137664423579543]",100.0,"[0.01768555691530476,-0.07429208031119194]",100.0,"[0.01451609213570652,0.13836527793822795]",100.0,"[0.018251188557343093,0.03853445152929653]",100.0,"[0.14936757334688644,-0.1298042751238151]",100.0,"[-0.023106991876490422,0.11354115990261318]",100.0,"[-0.09533459752791609,0.10825724422217736]",100.0,"[-0.07086789369796882,0.17947890798075916]",4.0,"[0.07885922729860094,0.07155027249780034]",100.0,"[-0.1320242554542543,0.09031334292871268]",100.0,"[0.03531927148474685,-0.12907149388476089]",100.0,"[0.1685323390345395,-0.04445295238258418]",100.0,"[-0.10041808347618655,-0.10638009950540149]",100.0,"[0.13501464253652345,-0.013981263555800705]",100.0,"[-0.06499350547091821,0.04825482238176095]",100.0,"[0.15039491193683302,0.09738852678030328]",100.0,"[-0.06635144342910927,-0.0008111430000428017]",100.0,"[0.07214583611721544,-0.0612191553094803]",100.0,"[-0.14236522816517358,0.03517756468340445]",100.0,"[-0.014723997892439467,0.17101463116484475]",100.0,"[0.11049032512124383,0.16487575964466206]",100.0,"[-0.16620586720935965,-0.026447441585786362]",100.0,"[0.10743169734340387,0.1003816781773065]",100.0,"[0.1096804572279357,0.03125719387904006]",100.0,"[0.1877807137890814,0.06651752628781793]",100.0,"[-0.08473510195815492,-0.05706228995944175]",100.0,"[-0.18333396363689258,0.04813596162035471]",100.0,"[-0.03135617284378564,-0.029506542648201368]",4.0,"[0.06520465767962691,0.1316345039533475]",100.0,"[-0.06604612849422141,-0.18660148942280405]",100.0,"[-0.11235690971697836,0.005739112784737119]",4.0,"[-0.18199922129398713,-0.06931601043090989]",100.0,"[0.02,0.02]",191.6841,0.0,36.0,36.0,12.0,1.0,,,,,,,
,,,,,,,5d40a12f4994c40001e4b80c,68399dae6f7e59acd2acb45f,2025-05-30_14h01.33.871,shape_ratio,2024.1.5,Win32,60.24096386,683853e18dae57a2147b65e0,,,,,,,,,,,191.6845,192.1838,,,192.4406,192.8338,right,0.3738,,,,,,,,,0.9,,,,,,192.1838,192.4405,192.8338,"[-0.052897498172810815,-0.08386646301897749]",100.0,"[-0.14099803047428774,0.08114775547240667]",100.0,"[-0.017105126036267643,-0.16523280016758257]",100.0,"[0.18924569200413474,-0.05113613107791426]",100.0,"[-0.1419616099391413,-0.08339224955606071]",100.0,"[0.05067127440887821,-0.012803776882631318]",100.0,"[-0.155272674319477,-0.007288714754799906]",100.0,"[-0.06516588463514555,-0.13753898346506824]",100.0,"[-0.004463465020240942,0.16872936815792156]",4.0,"[0.06048041914175265,-0.05865380165903768]",100.0,"[0.01658812550228269,0.128202018458717]",100.0,"[0.001225799581462735,-0.059442147332958224]",100.0,"[-0.10687363095084622,0.05917030739396295]",100.0,"[-0.0487868801500655,0.1785447895000765]",100.0,"[-0.10887812365675968,0.11104040762255948]",100.0,"[0.14092230973675438,0.08009467286298858]",100.0,"[-0.10052380821261758,-0.09930656019645108]",100.0,"[-0.15893913937928345,0.0400981820999245]",100.0,"[0.058340862839860244,0.09007848537882271]",4.0,"[-0.08981622700145217,0.15771901559585633]",100.0,"[0.08990769744468433,0.012922047091641926]",100.0,"[0.07745528831014623,-0.14492953384594504]",4.0,"[0.07844285665767944,0.05522802238302175]",100.0,"[0.11799054807339304,-0.1322926821940419]",100.0,"[-0.047334757992543275,0.0011354844630357245]",100.0,"[0.04347533770413234,-0.18631427638390785]",100.0,"[-0.019191738009602926,0.09884113932659816]",100.0,"[0.14341650702961423,-0.09951464394196712]",100.0,"[0.1392309120354834,-0.04151464183113619]",100.0,"[0.09178321891990021,-0.0943455972163626]",100.0,"[0.010306529308344832,-0.018874332166635116]",100.0,"[0.10502275143725592,0.13814208964429472]",100.0,"[0.02,0.02]",193.9339,0.0,37.0,37.0,7.0,1.0,,,,,,,
,,,,,,,5d40a12f4994c40001e4b80c,68399dae6f7e59acd2acb45f,2025-05-30_14h01.33.871,shape_ratio,2024.1.5,Win32,60.24096386,683853e18dae57a2147b65e0,,,,,,,,,,,193.9344,194.441,,,194.6848,195.0219,left,0.3139,,,,,,,,,0.5,,,,,,194.4411,194.6847,195.0219,"[-0.05094753673243688,0.0661824805574283]",100.0,"[0.06887666754680924,-0.03019761098865789]",4.0,"[0.005354794209724178,-0.08986382661556257]",4.0,"[-0.14532159140063589,0.13580954524828817]",4.0,"[0.014365316942418105,0.1713141700929937]",4.0,"[-0.009030373590575673,0.10225308666709643]",100.0,"[0.10831708708537285,0.09359127015239714]",4.0,"[-0.02384405240039003,0.004419262356697597]",4.0,"[-0.14063310404423154,0.07952918541066914]",100.0,"[-0.04452378136804624,-0.09478679890431782]",100.0,"[-0.09481267915813442,-0.16131829004162523]",4.0,"[0.0015164553185708855,0.05111715108475814]",100.0,"[0.19631771999674316,-0.03517674393707449]",100.0,"[0.08074626768013837,-0.08396433712393492]",4.0,"[0.12018934481910304,0.005831306197379583]",4.0,"[-0.17229222765414037,0.024822192298672014]",4.0,"[-0.07750892121513402,-0.060257213992071984]",4.0,"[-0.05389198258002218,0.10985419538604765]",100.0,"[-0.04775140815666433,-0.18027043348141122]",100.0,"[-0.041380134592603715,0.18056381111548328]",100.0,"[0.13159583665547023,-0.13275294540722737]",100.0,"[0.045412199160718175,-0.1258991764270605]",4.0,"[-0.12515286319661553,-0.08194385215732228]",100.0,"[-0.10102603083779242,0.029837839683281398]",4.0,"[-0.15996199521042537,-0.03518178276289395]",100.0,"[0.12069958550219266,-0.03536417466588718]",4.0,"[0.11783353014939497,0.1552974950505521]",100.0,"[0.06167353320054544,0.17210736050694891]",100.0,"[0.1544334570821209,0.07391720423693265]",100.0,"[-0.01612763160025103,-0.1370920596244291]",100.0,"[0.03211093161019951,0.09066034081307621]",4.0,"[-0.16461400621217542,-0.07539840396520604]",4.0,"[0.02,0.02]",196.1172,0.0,38.0,38.0,92.0,1.0,,,,,,,
,,,,,,,5d40a12f4994c40001e4b80c,68399dae6f7e59acd2acb45f,2025-05-30_14h01.33.871,shape_ratio,2024.1.5,Win32,60.24096386,683853e18dae57a2147b65e0,,,,,,,,,,,196.1175,196.6171,,,196.8564,197.5012,right,0.6219,,,,,,,,,0.4,,,,,,196.6171,196.8564,197.5013,"[0.10237789896498113,-0.003003924051243132]",100.0,"[-0.02983429755218287,0.13603184967545065]",100.0,"[-0.04260900322673285,-0.06778305737526605]",100.0,"[0.016779078219145746,-0.13823600588096224]",4.0,"[-0.10968191773172296,-0.04499999638386577]",4.0,"[-0.15142186102410832,0.08707012696021998]",4.0,"[-0.01938349950397415,0.19344950277339107]",4.0,"[0.12207105788941286,-0.038090613486827206]",4.0,"[0.01535571964047047,-0.041925543376635024]",4.0,"[0.08227587321318557,-0.13526908676161556]",100.0,"[0.09029353092960479,0.16423188701970384]",4.0,"[0.006728319290214917,0.08208747055026752]",4.0,"[0.10952151239248255,0.10565134093032129]",100.0,"[0.1535713384367477,-0.0027746510764278835]",4.0,"[-0.02491213673031323,-0.1938337736911591]",4.0,"[0.1806035198544496,-0.06868739440788653]",4.0,"[0.05978056896528665,0.05181669676881286]",100.0,"[-0.049423749517467384,0.02922291039317644]",4.0,"[0.05626271273753521,-0.06428965248221184]",100.0,"[-0.09362972069240655,0.028628303104233865]",100.0,"[-0.06283074855240127,0.18715900240020752]",4.0,"[-0.10918060030954457,-0.10906205802600438]",4.0,"[-0.1097816659462085,-0.15281495087861327]",4.0,"[-0.12304510014700078,0.14040283091699765]",4.0,"[-0.06717091433977035,-0.007557437845267477]",100.0,"[-0.047980264594595846,-0.12984657117859255]",4.0,"[0.016620686967685382,-0.00033700496179367504]",100.0,"[-0.05929431252466208,0.06820521265850545]",4.0,"[0.1539349934586403,0.06288099695450085]",100.0,"[-0.027297005954998784,-0.025956325176567357]",4.0,"[0.0766800982022406,-0.17641400963422635]",100.0,"[0.03984330851755765,0.16100389798303508]",100.0,"[0.02,0.02]",198.6009,0.0,39.0,39.0,170.0,1.0,,,,,,,
,,,,,,,5d40a12f4994c40001e4b80c,68399dae6f7e59acd2acb45f,2025-05-30_14h01.33.871,shape_ratio,2024.1.5,Win32,60.24096386,683853e18dae57a2147b65e0,,,,,,,,,,,198.6016,199.1009,,,199.3583,199.7846,left,0.4014,,,,,,,,,0.5,,,,,,199.1009,199.3583,199.7847,"[0.011656825619242644,-0.01580706666801256]",4.0,"[0.14563261486172807,0.012226609370347235]",100.0,"[0.084833279290184,-0.17690395587880772]",4.0,"[-0.08965430652934658,-0.09229470470042511]",4.0,"[0.09931973216215226,-0.021552174660117537]",4.0,"[-0.04335429610385532,-0.08258907271775046]",4.0,"[-0.08937561367456125,0.0354863893789017]",100.0,"[-0.08382218073463873,-0.004224845876813518]",100.0,"[-0.0026478713468367798,0.04504167710639238]",100.0,"[-0.16570411227242451,0.0945367420728494]",100.0,"[-0.15481479252473349,-0.1210729812892255]",4.0,"[0.0591137890866855,0.1469760563878118]",100.0,"[0.11319049355648297,0.09989520451798124]",100.0,"[-0.14010518943468872,-0.08222331933327134]",4.0,"[0.14142218237194798,-0.08708658833683569]",100.0,"[0.14587240286450914,0.06482091311540913]",100.0,"[0.1978742572172225,-0.0038508373039200508]",4.0,"[-0.04461060227858796,0.10787959301578624]",4.0,"[-0.1742090622424698,-0.023323855577328398]",4.0,"[-0.07462454011699446,0.15072190258329857]",100.0,"[-0.09194882494272304,-0.1506823571978652]",4.0,"[0.0441616281689117,-0.1526861133302134]",4.0,"[-0.18803857943541258,0.033577000490429776]",100.0,"[0.18331336202979615,-0.05411236262823769]",4.0,"[0.1849670076788745,0.04099839452618547]",100.0,"[-0.08949971141643588,-0.046945913402572516]",4.0,"[-0.04953020716004135,0.18846933934318194]",4.0,"[0.03269700299153232,0.07197575459395465]",100.0,"[0.06959304072528909,0.020703931743828678]",100.0,"[0.020077482532352697,-0.08344520209996113]",4.0,"[-0.05773978669923124,-0.19054306067436053]",100.0,"[-0.009244651847280308,-0.14676164760166255]",100.0,"[0.02,0.02]",200.8839,0.0,40.0,40.0,110.0,1.0,,,,,,,
,,,,,,,5d40a12f4994c40001e4b80c,68399dae6f7e59acd2acb45f,2025-05-30_14h01.33.871,shape_ratio,2024.1.5,Win32,60.24096386,683853e18dae57a2147b65e0,,,,,,,,,,,200.8842,201.3839,,,201.6245,202.1507,right,0.5057,,,,,,,,,0.5,,,,,,201.3839,201.6245,202.1508,"[-0.015033731063622205,0.18878742017806927]",4.0,"[-0.01796149696534295,0.13170733916865193]",100.0,"[0.0991137122397966,-0.07591447305273914]",100.0,"[-0.0023420711106534684,0.010964317041468373]",100.0,"[0.10846320433912843,0.029315875439626087]",4.0,"[-0.004999742262802275,-0.08238862809859146]",4.0,"[0.026665431303622242,-0.13661381536184325]",4.0,"[-0.11141793735407654,0.14782992009930962]",4.0,"[0.05486982360206142,0.013483203351388043]",100.0,"[-0.046308383642338,0.04862657653280194]",100.0,"[0.0401492483718656,0.06004721620050229]",100.0,"[0.19890527847597728,0.019810689565654505]",4.0,"[0.02765088430373728,0.125573850008133]",100.0,"[0.16148321050964365,-0.06220127557559527]",4.0,"[0.005189757246111995,0.09060611122076903]",100.0,"[-0.06984635876394789,0.16068138258501308]",4.0,"[-0.14401690012696372,-0.13066656630076431]",100.0,"[0.03550759114833533,-0.04342584939017389]",4.0,"[0.125156892465331,-0.03618699699333695]",100.0,"[0.17690918894832564,0.05519789090756209]",4.0,"[-0.052593003682043823,-0.067255992944219]",100.0,"[-0.07109571193438768,-0.11415701248195483]",4.0,"[-0.17361881244364552,-0.0319000594290843]",100.0,"[0.1581943516301335,0.09066236900764225]",4.0,"[-0.14364507955321615,-0.061114442251304746]",4.0,"[-0.09359059724247386,-0.06389945651860204]",100.0,"[0.11751970853177605,0.09378893989290457]",100.0,"[0.030058201208545122,0.18907949276741662]",4.0,"[0.08249398600140656,0.14508625416181595]",4.0,"[-0.1222398453479805,0.09570495205255436]",100.0,"[-0.14476070318590076,0.024729880913968248]",100.0,"[-0.08809408002244663,-0.015472414570102844]",4.0,"[0.02,0.02]",203.2393,0.0,41.0,41.0,118.0,1.0,,,,,,,
,,,,,,,5d40a12f4994c40001e4b80c,68399dae6f7e59acd2acb45f,2025-05-30_14h01.33.871,shape_ratio,2024.1.5,Win32,60.24096386,683853e18dae57a2147b65e0,,,,,,,,,,,203.2396,203.7348,,,203.9737,204.4183,left,0.4185,,,,,,,,,0.5,,,,,,203.7349,203.9737,204.4184,"[-0.15804153653260805,-0.10438246887657059]",100.0,"[0.10681838712077396,-0.1375532751146901]",4.0,"[-0.16998382600895465,0.064230599437607]",4.0,"[0.17306267944316303,-0.04419990670054282]",4.0,"[-0.0961777471664486,0.08974814954483187]",4.0,"[0.1181483568083569,-0.059631470201852756]",4.0,"[-0.02285977588566011,-0.061916210864046355]",4.0,"[0.022341793360566218,-0.02186771040783242]",100.0,"[-0.019742014769537235,0.02702714067567656]",4.0,"[-0.08149405754156704,0.005140093738386812]",4.0,"[0.15752235164239245,-0.08343408673387026]",100.0,"[-0.06660860248411349,0.05522399904832872]",100.0,"[0.14159461682675872,-0.016467941222571964]",100.0,"[0.07029963675575637,-0.01609594894004265]",4.0,"[0.1165396811139109,0.1550586253700236]",4.0,"[0.1772180600402953,0.03748600674890325]",4.0,"[0.06657080498981738,0.12541251568155734]",100.0,"[-0.0544036359455617,0.11667151294175096]",100.0,"[0.160465941100652,0.1148706175683954]",4.0,"[-0.12605494591926641,-0.14226935400752438]",100.0,"[0.07885088190532732,-0.17211215689389153]",100.0,"[-0.17673713119272416,0.007219829477702846]",100.0,"[0.030347962991251795,-0.11415557489113687]",4.0,"[0.04073620067974703,0.15969061329925835]",100.0,"[-0.041368313063368745,-0.11247529321829322]",100.0,"[0.005534391450044796,-0.19129161321276505]",100.0,"[0.02804203550744952,0.11181094564502672]",4.0,"[0.11363442515966882,0.08445951299750196]",100.0,"[0.02464477995157954,0.06684950808019381]",4.0,"[0.07256986100433488,-0.07594713279841356]",100.0,"[-0.10730879165973652,-0.03391175592513913]",4.0,"[0.0006026544760902891,0.14489877833052278]",100.0,"[0.02,0.02]",205.518,0.0,42.0,42.0,95.0,1.0,,,,,,,
,,,,,,,5d40a12f4994c40001e4b80c,68399dae6f7e59acd2acb45f,2025-05-30_14h01.33.871,shape_ratio,2024.1.5,Win32,60.24096386,683853e18dae57a2147b65e0,,,,,,,,,,,205.5184,206.0177,,,206.2568,206.7719,right,0.4973,,,,,,,,,0.6,,,,,,206.0178,206.2567,206.7719,"[-0.030318308035085336,-0.14966597864616854]",4.0,"[-0.012352763718431505,0.06452601599991756]",100.0,"[0.10367770615981908,0.037677939424668024]",100.0,"[0.035136239491263696,0.13214309177272301]",100.0,"[-0.07000707392787868,-0.13887161118223215]",4.0,"[-0.1837952121258818,0.054030468229150884]",100.0,"[-0.05732675717374423,-0.06894799747334854]",100.0,"[0.1967803393719777,-0.02438926238839661]",100.0,"[0.0453191544170855,-0.10559695567769688]",100.0,"[0.06156956204107703,-0.008759970213454506]",4.0,"[-0.04014577093512622,-0.0013147414431208119]",100.0,"[-0.042932448495460004,-0.18903236396430215]",100.0,"[-0.11628504304848039,0.02431070685658733]",100.0,"[-0.09957298458670723,0.10316706327199877]",100.0,"[-0.07423872073785215,0.05500919229116986]",4.0,"[0.1551283478353099,-0.07831789108381197]",4.0,"[0.07491825863666819,0.08852264195180153]",4.0,"[0.10389891476437792,-0.1055302790489215]",4.0,"[-0.08572703538652565,-0.03944772598585394]",4.0,"[0.11670686342035536,-0.015331509595059653]",4.0,"[-0.03367352246519118,0.17160686593158403]",100.0,"[0.05948080620123172,-0.05853166006671628]",100.0,"[-0.12443144344257308,-0.11617335390537585]",4.0,"[-0.17957560388096372,-0.03363783167733656]",4.0,"[-0.16112150978861609,0.09347617491541615]",100.0,"[0.1411771742548508,-0.12448002769072365]",4.0,"[0.14767735992063533,0.02894360922136767]",100.0,"[0.0864136156843802,0.1299917203034519]",100.0,"[0.007971461942409818,-0.17613973416599804]",100.0,"[-0.1268290101398466,-0.018592703505280018]",100.0,"[0.014930020196185874,0.19247178002363102]",100.0,"[-0.09984717435964353,0.14855706123793264]",4.0,"[0.02,0.02]",207.8678,0.0,43.0,43.0,40.0,1.0,,,,,,,
,,,,,,,5d40a12f4994c40001e4b80c,68399dae6f7e59acd2acb45f,2025-05-30_14h01.33.871,shape_ratio,2024.1.5,Win32,60.24096386,683853e18dae57a2147b65e0,,,,,,,,,,,207.8684,208.3675,,,208.6233,209.1515,right,0.5006,,,,,,,,,0.4,,,,,,208.3675,208.6232,209.1515,"[0.13271611036800088,-0.07789751472640404]",4.0,"[-0.11217216057629766,0.007598397267945642]",100.0,"[0.001470207734717287,-0.17381563802382421]",100.0,"[-0.039238541328448624,-0.0721624647836283]",4.0,"[-0.07430648958377102,0.14627870103076335]",4.0,"[-0.01827970222818824,0.04898921878685073]",100.0,"[0.03695042257093526,0.05050655501042827]",100.0,"[-0.14539805279485007,0.07076675320935516]",4.0,"[-0.016364008666424734,0.09544418920686042]",100.0,"[-0.10546718642569831,-0.04433629120777392]",100.0,"[-0.06642674932145172,0.07958359699589038]",4.0,"[0.0853697962717398,-0.1305684092414242]",100.0,"[0.17637410743319862,0.07299381249399144]",100.0,"[-0.1044840791969902,0.06526484457944899]",4.0,"[-0.07653704549652979,-0.17930617306449062]",4.0,"[0.08776870844743097,0.07394184853453757]",4.0,"[-0.0593435556355571,0.035749985455379746]",4.0,"[-0.027695987510534918,-0.12522136839978718]",100.0,"[-0.035467572520891194,0.13140116612619854]",4.0,"[0.08411117356883449,-0.030375892231429367]",4.0,"[-0.09847323722775095,-0.12426272607735243]",4.0,"[0.055241944719460326,-0.1728621281805692]",4.0,"[-0.17176460465732815,-0.0809093014575981]",4.0,"[0.13841351306261007,-0.037320697398365674]",4.0,"[-0.19409187015940468,0.023829611279149936]",4.0,"[0.07308296409387464,0.14418559229215527]",100.0,"[0.10128973264802195,-0.16918612670487307]",4.0,"[0.01719867360826281,-0.11796249290452279]",4.0,"[0.0356352554236193,-0.04940220110697578]",4.0,"[0.16176845807842444,-0.004841021116430686]",100.0,"[-0.02390583787237508,0.005897714428397451]",100.0,"[-0.1832651129126772,-0.02788703323549445]",100.0,"[0.02,0.02]",210.2583,0.0,44.0,44.0,165.0,1.0,,,,,,,
,,,,,,,5d40a12f4994c40001e4b80c,68399dae6f7e59acd2acb45f,2025-05-30_14h01.33.871,shape_ratio,2024.1.5,Win32,60.24096386,683853e18dae57a2147b65e0,,,,,,,,,,,210.259,210.7509,,,210.9911,211.4222,left,0.4261,,,,,,,,,0.5,,,,,,210.7509,210.9911,211.4223,"[0.12932306492247303,-0.10246595349332556]",100.0,"[-0.1204217235984751,-0.0916935650197134]",100.0,"[0.05910137495402088,-0.04152956072190247]",4.0,"[-0.13007523116465422,0.12361786454567088]",100.0,"[-0.15278733338640074,0.006693568595992599]",4.0,"[0.12073812741271349,0.11928052601135976]",100.0,"[0.00945834586437999,0.06627964340688909]",4.0,"[0.154005691509185,0.09576204040131621]",4.0,"[-0.05722534568893874,-0.06642918828621862]",4.0,"[0.05635311497454442,0.1538846708513515]",4.0,"[0.07349596194858526,-0.09499100583423521]",4.0,"[-0.112418148210192,0.026067330157868475]",100.0,"[0.09535952101761448,0.1638852068064642]",4.0,"[-0.03486431842684333,-0.1674917841475701]",100.0,"[0.04903488411416203,0.1039967817592335]",4.0,"[-0.007815488767375523,0.11335811992699601]",4.0,"[-0.0967866567639232,-0.1257062004058736]",4.0,"[0.15653007386635118,-0.015313073273680906]",100.0,"[-0.04470771743386675,0.15138702858450673]",100.0,"[0.07661393105395459,0.024171701657649765]",4.0,"[-0.026958059879634906,-0.10597061268177368]",4.0,"[-0.17917627776643943,0.04494929106524935]",4.0,"[-0.16646017294881355,-0.056335357636490016]",100.0,"[0.06512903242347709,-0.18405559657419343]",4.0,"[0.1827268673882615,0.050602219190102195]",4.0,"[-0.06643018632137423,0.06317392669223165]",100.0,"[0.013748016985838357,0.15242565453543575]",100.0,"[0.14149413221911228,0.035319716233093976]",100.0,"[-0.07458194991661751,-0.17878537499811856]",100.0,"[-0.10370711868051397,0.0803832225103628]",100.0,"[0.002199763173380383,-0.03890898073233594]",100.0,"[-0.04273250550066991,0.19467628007124668]",100.0,"[0.02,0.02]",212.5175,0.0,45.0,45.0,106.0,1.0,,,,,,,
,,,,,,,5d40a12f4994c40001e4b80c,68399dae6f7e59acd2acb45f,2025-05-30_14h01.33.871,shape_ratio,2024.1.5,Win32,60.24096386,683853e18dae57a2147b65e0,,,,,,,,,,,212.5178,213.018,,,213.2744,213.7848,right,0.4957,,,,,,,,,0.4,,,,,,213.018,213.2744,213.7849,"[-0.013031015393296956,-0.1856792630406596]",100.0,"[-0.08418449651107403,-0.11926705300072298]",100.0,"[0.06113254069371439,-0.040110990721776395]",100.0,"[0.14074249923268453,0.11206170084034688]",100.0,"[0.004544621291400709,-0.11579046290252457]",4.0,"[-0.032822520674170116,0.06673994826907806]",4.0,"[0.16384467485375337,0.06679865723350997]",4.0,"[-0.08149557635251889,-0.04592183841394451]",4.0,"[-0.1267935901068705,0.13477887595580237]",100.0,"[0.11198753572373152,-0.11984388154656114]",4.0,"[-0.05139434062423418,0.16969236201674878]",4.0,"[-0.11889285620608755,-0.06124157944533357]",4.0,"[0.0727222862897264,0.07101702283764626]",100.0,"[0.12311415409977354,-0.03538311195069416]",4.0,"[-0.1915784648741541,0.01333473446004569]",100.0,"[0.16381351608620814,-0.014218380164776343]",4.0,"[-0.1640169559750282,0.06248470715814088]",4.0,"[-0.0006924880241752825,-0.03235953742060073]",4.0,"[-0.00047151995223541427,0.11205668919244266]",4.0,"[0.0674249536213678,0.1467097345509233]",100.0,"[-0.04340912552811758,-0.0028350648622474366]",4.0,"[-0.16111327228682132,-0.09264466367256759]",100.0,"[-0.11330716307743992,0.02960754540225707]",100.0,"[0.02398924672580469,-0.07593675032886589]",4.0,"[0.04455139447191881,0.021312930946317872]",4.0,"[0.06532883990510345,-0.17711322096595572]",100.0,"[-0.08719401647123615,0.07561159336311012]",4.0,"[0.07797006754560414,-0.08404949025673261]",100.0,"[0.19334090897565617,0.031007612837313233]",100.0,"[-0.039643886996077356,0.1261569341723692]",4.0,"[-0.04220312434741609,-0.10402715460117135]",4.0,"[0.044601690768889465,0.1912888962763792]",4.0,"[0.02,0.02]",214.8845,0.0,46.0,46.0,176.0,1.0,,,,,,,
,,,,,,,5d40a12f4994c40001e4b80c,68399dae6f7e59acd2acb45f,2025-05-30_14h01.33.871,shape_ratio,2024.1.5,Win32,60.24096386,683853e18dae57a2147b65e0,,,,,,,,,,,214.8852,215.3849,,,215.6346,216.1092,right,0.4504,,,,,,,,,0.6,,,,,,215.385,215.6346,216.1092,"[-0.13814842261948257,0.025332696657661993]",100.0,"[0.13751345186158545,-0.12332706643305616]",100.0,"[-0.08338317737753552,0.08953270590301324]",100.0,"[-0.16987074141240416,-0.046391482951150045]",4.0,"[0.12450296557814736,0.11264656017484483]",4.0,"[-0.1681804385360637,-0.10069058506966205]",4.0,"[-0.12376599290773803,-0.1307796013759156]",4.0,"[-0.043577968272818485,0.1448628608114142]",100.0,"[-0.0032545497058302656,-0.06011531414235351]",4.0,"[0.02313447056010748,0.07772692610794883]",4.0,"[0.03993953796411406,-0.07190950665545677]",100.0,"[0.14985807807417503,0.00818774779886437]",100.0,"[-0.07674618948283649,-0.05108065151986945]",4.0,"[0.1111105644103161,-0.1608851266828743]",100.0,"[-0.02431635884886737,-0.17809293183079353]",100.0,"[-0.031017235561975703,0.09028799169542413]",100.0,"[-0.06310560036792323,0.03611723534919224]",100.0,"[-0.09185178019492073,-0.1603575090934218]",100.0,"[-0.12274302067503412,-0.02440815527788662]",100.0,"[-0.07697022421304558,-0.12226927112119884]",4.0,"[-0.15868360767889073,0.09445961874254262]",100.0,"[0.04063465176803384,-0.13686699154021706]",4.0,"[0.09681877472558663,-0.0068321656968807695]",100.0,"[0.053782213133823815,0.17714641318787785]",100.0,"[0.09631928415722561,-0.09351124864260509]",4.0,"[0.08824398802701154,0.06701106540477259]",4.0,"[0.07640950565179545,0.11793145353586523]",100.0,"[-0.10435181673628592,0.05124950502337738]",4.0,"[0.13836126128462398,0.053320287474965276]",100.0,"[-0.12016503209497673,0.10906298652657723]",4.0,"[-0.001253869521228151,0.18333665835458937]",100.0,"[0.19293352386339696,-0.0016000702116564696]",100.0,"[0.02,0.02]",217.2011,0.0,47.0,47.0,44.0,1.0,,,,,,,
,,,,,,,5d40a12f4994c40001e4b80c,68399dae6f7e59acd2acb45f,2025-05-30_14h01.33.871,shape_ratio,2024.1.5,Win32,60.24096386,683853e18dae57a2147b65e0,,,,,,,,,,,217.2018,217.7014,,,217.9422,218.3009,left,0.3407,,,,,,,,,0.1,,,,,,217.7015,217.9421,218.301,"[-0.1664301415810629,-0.008297521131299711]",4.0,"[-0.0013260828999803573,-0.07667817086902579]",4.0,"[0.09567165001010186,0.12302695906571201]",4.0,"[0.04872345179213919,-0.02594056709300759]",4.0,"[-0.12622648444868612,0.07010895510995158]",4.0,"[0.11897266302271826,-0.09922573785945075]",4.0,"[-0.002955455843683304,-0.0013059560947697444]",4.0,"[-0.04655328312815678,0.07493200827555985]",4.0,"[0.19155544503967997,-0.017536199584634485]",4.0,"[-0.12680468511221882,0.13931861965301126]",4.0,"[0.04671086841304224,-0.1753323102908155]",4.0,"[-0.031744397637312745,0.17061652834199176]",100.0,"[0.13497006377084886,-0.0599466803511076]",4.0,"[0.008021006446494535,0.06534919036003187]",4.0,"[0.1500302495522505,-0.007919755945747233]",4.0,"[0.047604117739130945,0.1652672037490814]",4.0,"[-0.05902585341982231,-0.07292990904948704]",4.0,"[-0.0915868051940192,0.026224537855236252]",4.0,"[-0.12555876301550592,-0.047537107080432704]",4.0,"[-0.07987229138739044,-0.13748968668066305]",100.0,"[-0.19087680751965605,0.028361500146923534]",4.0,"[0.04665819345810082,-0.09704509420730335]",4.0,"[0.0794801227650915,0.06450060700795221]",4.0,"[0.0020514531107149107,-0.18688217034975685]",4.0,"[-0.14746865717839025,-0.09696730157930458]",4.0,"[-0.1738344198313353,-0.04856877143896221]",100.0,"[0.18203812588808155,0.07688769784104438]",4.0,"[0.0997983804890857,-0.15276612521305338]",4.0,"[-0.016910845702047605,-0.13367325864713425]",4.0,"[-0.157489866960217,0.11207633640041438]",4.0,"[-0.1351209032769387,-0.14383201806032897]",4.0,"[0.08385693968735146,0.023271595585210886]",4.0,"[0.02,0.02]",219.4019,0.0,48.0,48.0,187.0,1.0,,,,,,,
,,,,,,,5d40a12f4994c40001e4b80c,68399dae6f7e59acd2acb45f,2025-05-30_14h01.33.871,shape_ratio,2024.1.5,Win32,60.24096386,683853e18dae57a2147b65e0,,,,,,,,,,,219.4024,219.9016,,,220.159,220.792,left,0.6171,,,,,,,,,0.5,,,,,,219.9017,220.1589,220.7921,"[0.014359144274253818,-0.07746105042338096]",4.0,"[0.02342809910438748,0.04191059512366448]",100.0,"[-0.037080488968521556,0.059933163358283977]",100.0,"[-0.09617197095548927,-0.09894253561240367]",4.0,"[0.15395651140414157,0.03484852177701106]",4.0,"[-0.09748937900301645,0.055885515947558556]",100.0,"[-0.023302833569780333,-0.015655376362649114]",4.0,"[0.020083324979458996,-0.17134266513445676]",100.0,"[0.09475955200595493,0.14754029908320662]",100.0,"[-0.04131972782725831,0.12214301717633398]",4.0,"[-0.11519334595787756,-0.012608655564720787]",100.0,"[0.0943587893584661,0.036863214321715965]",4.0,"[0.03420328264261901,0.13128445806094813]",4.0,"[-0.18523229896413268,-0.06055902225795731]",100.0,"[-0.17441661223409222,0.020078182333016982]",100.0,"[0.053691319528491044,0.17544665666514656]",100.0,"[0.044083575040390226,0.08988392282793466]",4.0,"[-0.025375314333985658,-0.19760757154864425]",100.0,"[-0.01570619397427267,-0.12530737446824516]",4.0,"[0.08575854097569881,-0.0623904003988467]",100.0,"[0.11282909302719585,-0.029625894476282704]",100.0,"[-0.06135126269972089,-0.07670108474087577]",100.0,"[-0.08036039961211129,-0.15876169668401244]",4.0,"[-0.1507419898990116,0.06471041507429792]",4.0,"[-0.1460029790834247,-0.048371236534504404]",4.0,"[0.14142016662757345,-0.10421611252018571]",4.0,"[-0.08111283619128223,0.1311011846933803]",100.0,"[0.02321538912004281,-0.02268673934874686]",4.0,"[0.15885689824434396,0.07833941657643635]",4.0,"[0.09309729739208102,0.07729985595852469]",100.0,"[-0.07626481746996452,0.0191364127251545]",100.0,"[0.17862500742319964,-0.025630669583229997]",4.0,"[0.02,0.02]",221.8849,0.0,49.0,49.0,104.0,1.0,,,,,,,
