right,left,explain.started,explain.stopped,key_resp_3.keys,key_resp_3.rt,key_resp_3.duration,participant,session,date,expName,psychopyVersion,OS,frameRate,study_id,explain_2.started,explain_2.stopped,key_resp_4.keys,key_resp_4.rt,key_resp_4.duration,explain_3.started,explain_3.stopped,key_resp_5.keys,key_resp_5.rt,key_resp_5.duration,fixation.started,fixation.stopped,practice.started,practice.stopped,response.started,response.stopped,key_resp.keys,key_resp.rt,key_resp.duration,feedback.started,feedback.stopped,trials_2.thisRepN,trials_2.thisTrialN,trials_2.thisN,trials_2.thisIndex,trials_2.ran,dot_ratio,explain_4.started,explain_4.stopped,key_resp_6.keys,key_resp_6.rt,key_resp_6.duration,dotDisplay.started,dotDisplay.stopped,ITI.started,polygon_1.pos,polygon_1.edges,polygon_2.pos,polygon_2.edges,polygon_3.pos,polygon_3.edges,polygon_4.pos,polygon_4.edges,polygon_5.pos,polygon_5.edges,polygon_6.pos,polygon_6.edges,polygon_7.pos,polygon_7.edges,polygon_8.pos,polygon_8.edges,polygon_9.pos,polygon_9.edges,polygon_10.pos,polygon_10.edges,polygon_11.pos,polygon_11.edges,polygon_12.pos,polygon_12.edges,polygon_13.pos,polygon_13.edges,polygon_14.pos,polygon_14.edges,polygon_15.pos,polygon_15.edges,polygon_16.pos,polygon_16.edges,polygon_17.pos,polygon_17.edges,polygon_18.pos,polygon_18.edges,polygon_19.pos,polygon_19.edges,polygon_20.pos,polygon_20.edges,polygon_21.pos,polygon_21.edges,polygon_22.pos,polygon_22.edges,polygon_23.pos,polygon_23.edges,polygon_24.pos,polygon_24.edges,polygon_25.pos,polygon_25.edges,polygon_26.pos,polygon_26.edges,polygon_27.pos,polygon_27.edges,polygon_28.pos,polygon_28.edges,polygon_29.pos,polygon_29.edges,polygon_30.pos,polygon_30.edges,polygon_31.pos,polygon_31.edges,polygon_32.pos,polygon_32.edges,dot_size,ITI.stopped,trials.thisRepN,trials.thisTrialN,trials.thisN,trials.thisIndex,trials.ran,break_2.started,break_2.stopped,trials_3.thisRepN,trials_3.thisTrialN,trials_3.thisN,trials_3.thisIndex,trials_3.ran
subject chose diamond,subject chose dot,0.0002,25.8825,space,10.8503,,5d6e3252dfe6d10001dbe508,684428b2c1753ab9bb8d4f81,2025-06-07_13h55.48.251,shape_ratio,2024.1.5,Linux x86_64,60.24096386,684250e4f00cb30b92d1fa88,,,,,,,,,,,,,,,,,,,,,,,,,,,,,,,,,,,,,,,,,,,,,,,,,,,,,,,,,,,,,,,,,,,,,,,,,,,,,,,,,,,,,,,,,,,,,,,,,,,,,,,,,,,,,,,,,
,,,,,,,5d6e3252dfe6d10001dbe508,684428b2c1753ab9bb8d4f81,2025-06-07_13h55.48.251,shape_ratio,2024.1.5,Linux x86_64,60.24096386,684250e4f00cb30b92d1fa88,25.8828,67.5319,space,11.628,,,,,,,,,,,,,,,,,,,,,,,,,,,,,,,,,,,,,,,,,,,,,,,,,,,,,,,,,,,,,,,,,,,,,,,,,,,,,,,,,,,,,,,,,,,,,,,,,,,,,,,,,,,,,
,,,,,,,5d6e3252dfe6d10001dbe508,684428b2c1753ab9bb8d4f81,2025-06-07_13h55.48.251,shape_ratio,2024.1.5,Linux x86_64,60.24096386,684250e4f00cb30b92d1fa88,,,,,,67.5321,72.3318,space,1.7739,,,,,,,,,,,,,,,,,,,,,,,,,,,,,,,,,,,,,,,,,,,,,,,,,,,,,,,,,,,,,,,,,,,,,,,,,,,,,,,,,,,,,,,,,,,,,,,,,,,,,,,,
,,,,,,,5d6e3252dfe6d10001dbe508,684428b2c1753ab9bb8d4f81,2025-06-07_13h55.48.251,shape_ratio,2024.1.5,Linux x86_64,60.24096386,684250e4f00cb30b92d1fa88,,,,,,,,,,,72.3532,72.8482,72.8486,73.0825,73.0828,74.1493,right,1.055,,74.1496,75.2492,0.0,0.0,0.0,0.0,1.0,0.2,,,,,,,,,,,,,,,,,,,,,,,,,,,,,,,,,,,,,,,,,,,,,,,,,,,,,,,,,,,,,,,,,,,,,,,,,,,,,,,,,,,,,,
,,,,,,,5d6e3252dfe6d10001dbe508,684428b2c1753ab9bb8d4f81,2025-06-07_13h55.48.251,shape_ratio,2024.1.5,Linux x86_64,60.24096386,684250e4f00cb30b92d1fa88,,,,,,,,,,,75.2499,75.7481,75.7481,75.9985,75.9986,76.5314,left,0.5276,,76.5315,77.6322,0.0,1.0,1.0,1.0,1.0,0.8,,,,,,,,,,,,,,,,,,,,,,,,,,,,,,,,,,,,,,,,,,,,,,,,,,,,,,,,,,,,,,,,,,,,,,,,,,,,,,,,,,,,,,
,,,,,,,5d6e3252dfe6d10001dbe508,684428b2c1753ab9bb8d4f81,2025-06-07_13h55.48.251,shape_ratio,2024.1.5,Linux x86_64,60.24096386,684250e4f00cb30b92d1fa88,,,,,,,,,,,,,,,,,,,,,,,,,,,,77.6329,83.2661,space,2.6127,,,,,,,,,,,,,,,,,,,,,,,,,,,,,,,,,,,,,,,,,,,,,,,,,,,,,,,,,,,,,,,,,,,,,,,,,,,,,,,,,,
,,,,,,,5d6e3252dfe6d10001dbe508,684428b2c1753ab9bb8d4f81,2025-06-07_13h55.48.251,shape_ratio,2024.1.5,Linux x86_64,60.24096386,684250e4f00cb30b92d1fa88,,,,,,,,,,,83.2803,83.7821,,,84.0323,84.8485,left,0.8125,,,,,,,,,0.4,,,,,,83.7826,84.0322,84.8489,"[-0.07586806689819754,0.08531878493553861]",4.0,"[-0.0761910199331961,0.00705576900182119]",100.0,"[-0.04406859217313234,-0.09838947388012843]",4.0,"[0.017650979869865906,0.16650562575898634]",4.0,"[0.004443666667191049,-0.06350111472901808]",4.0,"[-0.12049814244220966,0.02334274304395388]",100.0,"[0.023214712390622328,-0.14451709986746591]",4.0,"[0.06214462025929157,0.15237888755434936]",100.0,"[-0.15781952203690278,-0.014781253298710318]",4.0,"[-0.08792876818809164,-0.08918392171614498]",100.0,"[0.14675478669930597,0.02492345232590834]",4.0,"[0.08261088224322952,-0.13673923255635484]",4.0,"[0.11012947923513693,-0.08293545462447112]",4.0,"[0.10284461047086947,0.059096887167980124]",4.0,"[-0.1439156073933774,0.10639415992851546]",100.0,"[0.015729901057681208,0.07259820312495353]",100.0,"[-0.1435386585114917,-0.057518686571004556]",100.0,"[-0.07231177005948754,-0.04173077385425441]",100.0,"[0.028131574088464187,-0.19687000514504072]",100.0,"[0.035774123116471546,0.01851302324376755]",4.0,"[0.13651367285907007,-0.038415779500691236]",4.0,"[0.03526671909630927,-0.09843264858984142]",100.0,"[0.07532235290669499,-0.0463735892631814]",4.0,"[0.18464215543573376,-0.0548235961786681]",4.0,"[0.08757759385089064,-0.004337468902928015]",100.0,"[-0.10559138492765169,-0.13982217342791062]",100.0,"[-0.03351538950192096,0.08919786419473687]",4.0,"[0.07062362990797424,-0.18453152681294724]",4.0,"[-0.1050126807298647,0.16651791730157486]",100.0,"[-0.016376701499233367,0.012639191998031226]",4.0,"[0.020182123649773495,-0.018587115241774428]",4.0,"[-0.053501092812330765,0.1694806610618677]",4.0,"[0.02,0.02]",85.9486,0.0,0.0,0.0,177.0,1.0,,,,,,,
,,,,,,,5d6e3252dfe6d10001dbe508,684428b2c1753ab9bb8d4f81,2025-06-07_13h55.48.251,shape_ratio,2024.1.5,Linux x86_64,60.24096386,684250e4f00cb30b92d1fa88,,,,,,,,,,,85.949,86.4485,,,86.6988,87.3648,left,0.6598,,,,,,,,,0.4,,,,,,86.4486,86.6988,87.3648,"[-0.17877971581521135,-0.003508105380488111]",100.0,"[-0.1412820536610483,-0.1282587145642196]",4.0,"[-0.1089188528156423,0.00891282217637668]",4.0,"[0.09249464574418269,0.11866531304599333]",100.0,"[0.12539465928406562,-0.10038394863542481]",4.0,"[0.13520193587077833,0.11388980341832812]",100.0,"[-0.1333727328680269,0.14499515206112706]",4.0,"[0.016105143242858323,-0.10990751920695695]",4.0,"[0.16091659271435318,-0.056146797984433956]",4.0,"[-0.17061322270191492,0.08666071216523027]",4.0,"[-0.023566847442986146,0.04956776071991623]",100.0,"[0.11095738412817793,-0.060044757970971786]",4.0,"[-0.03290791809596853,-0.09565383188025282]",4.0,"[-0.027276647173306683,-0.18955612286120205]",100.0,"[0.1284797022257458,0.02181083377472856]",4.0,"[0.07029607167370207,0.031931781872400554]",4.0,"[0.12356922961257913,0.07362410080124401]",100.0,"[-0.021839672694061132,-0.025366332244467344]",4.0,"[0.058786106328658404,-0.1020350391121586]",100.0,"[0.029330109229033778,0.17879064602936093]",4.0,"[0.014646514063615492,0.018798901884216027]",4.0,"[-0.02201243559129106,-0.14377526896042728]",4.0,"[-0.11971986489497803,-0.059347576497919045]",4.0,"[0.10599606945113989,-0.16410784459220773]",100.0,"[-0.18556031171171677,-0.05892683168703024]",100.0,"[-0.09407061908248292,-0.13004111140487865]",100.0,"[-0.0616671702613192,0.18229550817255977]",100.0,"[0.19548055506641235,0.02539799305047915]",100.0,"[-0.12808186780996078,0.07335509776376918]",100.0,"[-0.049987360970412315,0.13094908568896033]",4.0,"[-0.087148271083705,-0.02683189551741219]",4.0,"[0.05209439164768488,-0.05736226082102473]",4.0,"[0.02,0.02]",88.4644,0.0,1.0,1.0,169.0,1.0,,,,,,,
,,,,,,,5d6e3252dfe6d10001dbe508,684428b2c1753ab9bb8d4f81,2025-06-07_13h55.48.251,shape_ratio,2024.1.5,Linux x86_64,60.24096386,684250e4f00cb30b92d1fa88,,,,,,,,,,,88.4648,88.965,,,89.216,89.6486,left,0.4255,,,,,,,,,0.9,,,,,,88.9651,89.216,89.6487,"[-0.13810911325746336,-0.141985967744585]",100.0,"[0.03800346628298743,0.07866165234246748]",100.0,"[-0.09433401735311243,-0.07033891809060686]",100.0,"[-0.05081280800786927,0.07686851496362321]",100.0,"[0.06275697820714987,0.1735727329973732]",100.0,"[0.11648739433977263,-0.08210530791822203]",100.0,"[-0.160174597797309,-0.03769032925601374]",100.0,"[-0.07026910509434442,0.03828669439422884]",100.0,"[-0.019640725611830258,0.026768318229436195]",100.0,"[-0.004376264816834665,0.08929246054805856]",100.0,"[-0.03246158805009774,-0.03525837682479649]",100.0,"[-0.08090292323278928,0.12551073259232837]",100.0,"[-0.15862096916199886,0.055580431883367455]",100.0,"[-0.02296226879383563,-0.1696016127907721]",100.0,"[0.024035947682863403,-0.0162057789070207]",100.0,"[0.1744779710685775,0.01641773941617423]",100.0,"[-0.1094121951743772,0.08906855227377752]",100.0,"[0.022498498688750628,0.17198121975967964]",100.0,"[0.1355666455816887,0.09071179672902617]",100.0,"[-0.09481954744173961,0.16325626632040405]",100.0,"[0.11984207928221323,0.02064286026009227]",100.0,"[0.07215569894022499,-0.18546585952780478]",100.0,"[0.06149365034924037,0.03893690804013036]",100.0,"[-0.10612386242016797,-0.01137217811093455]",100.0,"[-0.042118381290255996,0.15244686164109295]",100.0,"[0.1646766407294984,-0.08349861329701616]",100.0,"[-0.01675585647196587,-0.11925846103703425]",4.0,"[-0.1089963847784442,0.0489214054659902]",100.0,"[-0.07111498397889907,-0.10933584752050188]",100.0,"[0.12255076463470525,-0.13890631943461187]",4.0,"[0.0749099430932318,0.13386685852572755]",100.0,"[0.020463071116359047,-0.0978148417974895]",4.0,"[0.02,0.02]",90.7482,0.0,2.0,2.0,6.0,1.0,,,,,,,
,,,,,,,5d6e3252dfe6d10001dbe508,684428b2c1753ab9bb8d4f81,2025-06-07_13h55.48.251,shape_ratio,2024.1.5,Linux x86_64,60.24096386,684250e4f00cb30b92d1fa88,,,,,,,,,,,90.7486,91.248,,,91.4989,92.0321,left,0.5198,,,,,,,,,0.55,,,,,,91.248,91.4989,92.0322,"[-0.19583373226779238,0.02703431273255051]",4.0,"[0.0913640511198702,-0.017516872720653033]",4.0,"[0.09968908275509988,0.1289341186554571]",100.0,"[-0.04641603716897935,0.021467168581371876]",100.0,"[-0.014073640628484308,-0.016167603238923328]",100.0,"[-0.10941181883978501,-0.01802962577220921]",4.0,"[-0.15941414765416964,0.004382690016012848]",100.0,"[-0.12459664629072559,0.06940929901744872]",100.0,"[0.04342542013553172,-0.07390654897744643]",4.0,"[-0.18246216460816317,-0.058246285579359826]",4.0,"[-0.08277851904235324,-0.14663489792386045]",100.0,"[-0.05825115252571968,-0.06374797703113988]",4.0,"[0.008293832979912923,0.16866288095623608]",100.0,"[-0.1548408547831387,-0.09399881305972868]",100.0,"[-0.08064583077375047,0.15256944009770973]",100.0,"[0.0013056486449569355,-0.10018249006154648]",100.0,"[0.08660475857595092,-0.11191897136581853]",4.0,"[0.17180823829147004,0.10133243106812535]",4.0,"[0.16579852831895475,0.037359248139050845]",4.0,"[0.01819387491506277,0.09679540619615971]",4.0,"[0.12462869587788993,0.09680965613998099]",4.0,"[0.004394158492263521,-0.19847067202649862]",100.0,"[-0.07947889085090257,0.07248593149455393]",100.0,"[0.16656256147052453,-0.00836553510687044]",100.0,"[0.1657538192389883,-0.07298953346306468]",100.0,"[-0.03649608136090545,-0.13085939682072648]",100.0,"[-0.12688201863733273,-0.15130471309608595]",100.0,"[0.026997515054765532,-0.009502451213191232]",100.0,"[-0.034094763484400915,0.1969449805620538]",4.0,"[-0.1648205343531387,0.0656056878062177]",100.0,"[0.07446372276267371,0.08270534397672755]",4.0,"[0.12354045342761025,0.049266117606210205]",4.0,"[0.02,0.02]",93.1316,0.0,3.0,3.0,77.0,1.0,,,,,,,
,,,,,,,5d6e3252dfe6d10001dbe508,684428b2c1753ab9bb8d4f81,2025-06-07_13h55.48.251,shape_ratio,2024.1.5,Linux x86_64,60.24096386,684250e4f00cb30b92d1fa88,,,,,,,,,,,93.132,93.6321,,,93.8833,94.4157,right,0.5164,,,,,,,,,0.5,,,,,,93.6322,93.8833,94.4158,"[0.020171842148532657,0.19307332029735583]",100.0,"[-0.10172359332311806,-0.015078133856795888]",100.0,"[0.15609131900639917,-0.08080522287915645]",100.0,"[0.0017404088742347366,0.1308463940837211]",4.0,"[-0.17591737391911996,0.003425320488725155]",4.0,"[-0.13729290812250522,-0.0779155056316954]",100.0,"[0.16839446940132718,-0.020256341936290417]",4.0,"[0.10618073143015912,0.036235850456493204]",100.0,"[0.07026090486205808,-0.029824788955439593]",100.0,"[0.06447995326426925,-0.17606619911064025]",4.0,"[-0.0742613293143398,0.16650687237775422]",100.0,"[0.08329990504427819,0.1481074122878612]",4.0,"[-0.03881135071001488,-0.18143186127117725]",100.0,"[-0.0848288218986743,-0.0785769262230906]",4.0,"[0.0979224962530371,-0.1341697574967271]",100.0,"[0.014626663850689035,-0.14242014190080063]",4.0,"[-0.1754031641268315,-0.03689113187040026]",100.0,"[-0.14898145645805322,0.13120880327378817]",4.0,"[0.13742326010711656,-0.12162047524776416]",100.0,"[-0.11356755242095715,0.031157851951842654]",100.0,"[-0.1549397129897536,0.057287957723100816]",100.0,"[-0.023962085307490787,-0.10539008767815591]",4.0,"[-0.08102184860140745,-0.18123052051925867]",100.0,"[0.08867058361906738,0.10812973298152224]",4.0,"[0.16452824293282034,0.03245955443950392]",4.0,"[0.03635949223096799,-0.0018702935853073712]",4.0,"[0.06555877404047647,0.037326907762923626]",4.0,"[0.14825632373328837,0.07629937032084963]",4.0,"[-0.025792164350894778,0.06272970526502186]",100.0,"[-0.060747037699788946,-0.04052269223898181]",4.0,"[-0.1114921069071611,0.1498218996481501]",100.0,"[0.11020128687271546,-0.08472458533984444]",4.0,"[0.02,0.02]",95.5148,0.0,4.0,4.0,96.0,1.0,,,,,,,
,,,,,,,5d6e3252dfe6d10001dbe508,684428b2c1753ab9bb8d4f81,2025-06-07_13h55.48.251,shape_ratio,2024.1.5,Linux x86_64,60.24096386,684250e4f00cb30b92d1fa88,,,,,,,,,,,95.5153,96.0149,,,96.2655,96.6316,right,0.3616,,,,,,,,,0.6,,,,,,96.0149,96.2655,96.6316,"[0.17310694663017293,0.0792648690358334]",100.0,"[-0.025538155302912,0.19617939143541696]",4.0,"[-0.19356702323131256,0.04714186803727578]",100.0,"[0.06352616565209701,-0.09867284981052918]",4.0,"[0.05818270526039581,0.103467274683771]",4.0,"[0.051617323294628856,-0.05296760280612354]",100.0,"[-0.10616609010991275,0.07583523394335893]",100.0,"[0.14337548129537375,-0.10380062951372937]",100.0,"[-0.028813813857403097,-0.1541623631851327]",100.0,"[0.12276753260885197,0.05665761536863171]",4.0,"[-0.054812914685853,0.05593735400247319]",4.0,"[-0.09703631685139422,-0.03751176682309503]",4.0,"[0.017299740850501663,0.12640480929462813]",100.0,"[-0.19449815425355493,-0.010748632781717324]",100.0,"[0.04776181851031054,-0.009730407208278377]",100.0,"[-0.04755124696025325,-0.020878235738499708]",4.0,"[-0.08542496253787349,-0.14444553499817833]",100.0,"[-0.15637664231205853,0.12227079024923836]",4.0,"[0.09694586039766995,-0.12217506712593734]",100.0,"[0.15394204923051877,-0.0245844292205257]",100.0,"[-0.12565502317362623,0.024045555074711854]",4.0,"[-0.03547532013609147,-0.07196860244145645]",4.0,"[-0.14050444365292425,-0.013985611573010296]",100.0,"[0.003358381602295493,-0.19287335498851688]",100.0,"[0.08292351581530497,-0.17452393824501164]",100.0,"[-0.07096443836746708,0.12719407691104856]",100.0,"[0.08981867323087632,-0.0675491709187289]",100.0,"[0.00043687091846191065,-0.02170816262121841]",4.0,"[0.07871965945283534,0.04653761452654111]",4.0,"[0.028871626088281352,-0.12230425562516979]",100.0,"[-0.028844328518943523,0.08895477421117658]",100.0,"[-0.18111281383130884,-0.06994202414008914]",4.0,"[0.02,0.02]",97.7313,0.0,5.0,5.0,53.0,1.0,,,,,,,
,,,,,,,5d6e3252dfe6d10001dbe508,684428b2c1753ab9bb8d4f81,2025-06-07_13h55.48.251,shape_ratio,2024.1.5,Linux x86_64,60.24096386,684250e4f00cb30b92d1fa88,,,,,,,,,,,97.7318,98.2317,,,98.4816,99.0313,left,0.5431,,,,,,,,,0.4,,,,,,98.2317,98.4815,99.0313,"[-0.17398749989531295,-0.09756451381278904]",100.0,"[0.08225939667329414,0.010068220730888013]",4.0,"[-0.010957844480853626,0.015687399750275374]",100.0,"[0.12040475767079975,-0.05727437319523755]",100.0,"[-0.028361048218097106,-0.19269962722759681]",4.0,"[0.05722989521964695,0.17058660913615167]",100.0,"[-0.10885285575399505,0.10109105329793765]",4.0,"[-0.13025474723670796,-0.12181640248876678]",100.0,"[0.022480426394721656,0.11579186779448604]",4.0,"[-0.09014952137012278,-0.032467790257556]",4.0,"[0.11731344605127261,0.033735329525451906]",100.0,"[-0.14530629130137632,-0.06014131409043076]",4.0,"[0.08266355660681034,0.07398381371089024]",4.0,"[0.03701012587995622,-0.04206173870402059]",4.0,"[-0.027974096422471867,0.14813874867764498]",4.0,"[0.08743898987020653,-0.12633000546270579]",100.0,"[0.18167636611243285,0.0811738015651562]",4.0,"[-0.14901854766264439,0.013340898482627983]",4.0,"[-0.013471202637268401,-0.05837525440518595]",4.0,"[0.02043038876376771,0.07227901719809024]",4.0,"[-0.07095202267300454,-0.12147868514346019]",4.0,"[0.13116946171176125,-0.13914569028996715]",4.0,"[-0.029294126977591015,0.09829644244096411]",100.0,"[0.02306541185628498,-0.17085068325147443]",100.0,"[0.08209497666001807,-0.08480158174069326]",4.0,"[0.12172639245379835,-0.09896998040609452]",4.0,"[-0.1264988887034262,0.14172407695299374]",100.0,"[0.043569616518874844,-0.12259858553183092]",100.0,"[0.16255579189534963,-0.09559624066013195]",4.0,"[0.1592020033924149,-0.045564026032639045]",100.0,"[-0.012121425836417779,-0.14590758295590073]",4.0,"[-0.07003362948528591,0.11994811972676434]",100.0,"[0.02,0.02]",100.1316,0.0,6.0,6.0,168.0,1.0,,,,,,,
,,,,,,,5d6e3252dfe6d10001dbe508,684428b2c1753ab9bb8d4f81,2025-06-07_13h55.48.251,shape_ratio,2024.1.5,Linux x86_64,60.24096386,684250e4f00cb30b92d1fa88,,,,,,,,,,,100.1321,100.6315,,,100.8819,101.3986,right,0.4997,,,,,,,,,0.5,,,,,,100.6316,100.8818,101.3986,"[-0.022089637073099393,0.06592304389363915]",100.0,"[-0.0787899272221223,0.18013259278373014]",100.0,"[0.0504189590504046,-0.07833792226189418]",4.0,"[-0.12578634695957663,0.15446933367857468]",100.0,"[-0.17964244988164804,-0.04316281003457957]",4.0,"[0.13529330085651065,0.0165477613594863]",4.0,"[-0.16568113924485672,0.0360599364564558]",100.0,"[0.025944372042337988,-0.1419779823745841]",100.0,"[-0.033745804392054324,0.011790340806546139]",4.0,"[-0.041935357830279976,-0.1759366029156024]",100.0,"[0.13664278582683156,-0.047464564872868126]",100.0,"[-0.17120441010616946,0.10202713047023845]",100.0,"[0.06816271965889881,0.0680331949167642]",100.0,"[-0.11604471589970695,-0.046955979596221165]",4.0,"[0.04337449193316246,0.01835944792236868]",4.0,"[0.09756944650073314,-0.09736524751326481]",100.0,"[-0.014602756779033416,0.1448563723174236]",100.0,"[0.04268594412727423,0.16170581452540242]",4.0,"[-0.13021818431230398,-0.08772189644518272]",4.0,"[-0.07578226238987985,0.1107317084466289]",4.0,"[0.07906670001928605,-0.02312830147402984]",4.0,"[0.028366094732096492,-0.18564053206158412]",4.0,"[0.16587560024479767,0.10687654514696386]",4.0,"[0.06803078409100823,0.11539242321845908]",100.0,"[-0.10788799513843182,0.07368100047931546]",100.0,"[-0.12748107586919122,-0.002494070240673087]",100.0,"[0.17514780364045318,-0.08668590918405343]",100.0,"[-0.06234790112769329,-0.022709936640882833]",4.0,"[0.021680908484052568,0.11359932680466013]",4.0,"[-0.03414422012377534,0.10932248586985019]",4.0,"[-0.024578300156736097,-0.1134845756020652]",100.0,"[-0.12792203214297015,-0.14070881973876867]",4.0,"[0.02,0.02]",102.4986,0.0,7.0,7.0,97.0,1.0,,,,,,,
,,,,,,,5d6e3252dfe6d10001dbe508,684428b2c1753ab9bb8d4f81,2025-06-07_13h55.48.251,shape_ratio,2024.1.5,Linux x86_64,60.24096386,684250e4f00cb30b92d1fa88,,,,,,,,,,,102.499,102.9989,,,103.2487,103.632,left,0.3688,,,,,,,,,0.45,,,,,,102.9989,103.2487,103.632,"[0.09131127369597336,-0.11053119792783496]",100.0,"[0.12214454957653699,0.0984583675579089]",100.0,"[-0.09334034319494755,-0.13958413284565568]",100.0,"[-0.001941738134880787,-0.18292704944063504]",4.0,"[-0.14398130169951173,0.057888734640701774]",100.0,"[-0.0319513771170094,0.04554830792944011]",4.0,"[-0.16159335545998457,-0.1081778686393611]",4.0,"[-0.08753373292222201,-0.018004553339778247]",100.0,"[0.1714079056914659,-0.05310917091037127]",4.0,"[0.13655842698798923,0.05048591538565333]",4.0,"[0.0908043129537908,0.03356564149529342]",100.0,"[0.08790163188786224,-0.06579407077787353]",100.0,"[0.11399899927870057,-0.02009632983047059]",4.0,"[0.06856200962461188,0.10905154168489882]",100.0,"[0.02777814958410367,0.19236866028441238]",4.0,"[0.09542853009011718,0.17315221569608044]",4.0,"[-0.03789704090446114,0.13169446016851594]",4.0,"[-0.0472148513920141,-0.15934697135875933]",100.0,"[0.13588869185041505,-0.13205247050010013]",100.0,"[0.1234951150812388,-0.08618638367959731]",100.0,"[0.011436911106789764,0.07467795079294136]",4.0,"[-0.10244550458369661,-0.08516324444085972]",4.0,"[-0.05328161694175586,0.1715804119262022]",4.0,"[0.02529574861369962,-0.14318263879317297]",100.0,"[-0.0311159951566884,0.08835035511481332]",4.0,"[-0.021651711485670546,-0.11976632281243166]",100.0,"[0.1520371653592288,0.00350945146398547]",4.0,"[0.06879392733490632,-0.14939227533574256]",4.0,"[-0.018390623729352625,-0.03172063850512183]",100.0,"[-0.07573245632130104,0.11830325043391521]",4.0,"[-0.15209543633646347,-0.04235149190784169]",4.0,"[0.02821130470219008,-0.05004257834337259]",4.0,"[0.02,0.02]",104.7323,0.0,8.0,8.0,126.0,1.0,,,,,,,
,,,,,,,5d6e3252dfe6d10001dbe508,684428b2c1753ab9bb8d4f81,2025-06-07_13h55.48.251,shape_ratio,2024.1.5,Linux x86_64,60.24096386,684250e4f00cb30b92d1fa88,,,,,,,,,,,104.7326,105.2321,,,105.4815,106.2487,right,0.7494,,,,,,,,,0.45,,,,,,105.2321,105.4815,106.2487,"[0.1379923258062822,0.06321969497790424]",4.0,"[-0.13984018040907834,0.10145818459679735]",100.0,"[-0.14148894852654656,-0.06481329766284126]",4.0,"[0.016516842730910117,0.06218853150232393]",100.0,"[0.07798168305048424,-0.13985090090992777]",4.0,"[-0.03525161207637217,-0.15650202072791755]",100.0,"[0.06234039414707287,0.10110096242663066]",4.0,"[0.09758292353135199,-0.05072109794649244]",100.0,"[-0.09813556812881075,-0.0005238980645216143]",100.0,"[-0.06172754991355149,0.1551876151154258]",4.0,"[-0.05050058610944006,0.03592669425912069]",4.0,"[-0.1179539029738581,-0.1534232392042204]",4.0,"[0.10099854961515682,0.12512741503272465]",4.0,"[-0.02060322689084165,0.1745167277565076]",4.0,"[-0.06454399245504477,-0.06804939895048055]",100.0,"[0.019318483192332946,-0.13358592264995325]",100.0,"[0.03524691807474182,0.15455122570469348]",100.0,"[0.057383945916779304,-0.006116457140271223]",4.0,"[0.15941737689894536,0.022143020152797958]",100.0,"[-0.08809915833230067,0.1206933156914405]",4.0,"[0.08652372076680617,-0.0995304393625522]",100.0,"[-0.15596514438693307,0.017485840563092565]",4.0,"[-0.11889289883240196,0.05209576085141655]",4.0,"[0.022278799823233934,-0.043619582420074306]",4.0,"[0.14005407070646428,0.11216497516734851]",4.0,"[0.06168453930399726,-0.18917033898373148]",100.0,"[-0.18811886563911356,-0.02779045463245824]",100.0,"[-0.010109820466286843,0.13518608121026193]",4.0,"[0.15201235661803644,-0.01806163483417421]",100.0,"[0.14147168361243406,-0.0975806110118857]",4.0,"[-0.07719205493504731,-0.11840317604103036]",4.0,"[-0.04738852746535463,0.10004970825677362]",100.0,"[0.02,0.02]",107.3488,0.0,9.0,9.0,124.0,1.0,,,,,,,
,,,,,,,5d6e3252dfe6d10001dbe508,684428b2c1753ab9bb8d4f81,2025-06-07_13h55.48.251,shape_ratio,2024.1.5,Linux x86_64,60.24096386,684250e4f00cb30b92d1fa88,,,,,,,,,,,107.3493,107.8483,,,108.099,109.0648,left,0.9557,,,,,,,,,0.55,,,,,,107.8483,108.099,109.0648,"[0.08874945376526536,0.03601936149239873]",4.0,"[0.18877725438545664,0.0008958856724715137]",4.0,"[0.06210710027345197,0.09322886164840147]",100.0,"[-0.05663002965130834,-0.10445863721332983]",4.0,"[0.15527552906466127,0.10872340222979628]",100.0,"[-0.17227407478980633,0.020411172396806922]",100.0,"[0.03586594028091416,-0.013270701960056322]",100.0,"[0.024644900859363335,-0.12272594735228355]",100.0,"[-0.14007043878303077,-0.060523640960484175]",4.0,"[-0.12942462818632644,-0.006872031214256529]",100.0,"[-0.016372115521986353,0.11993192150957417]",100.0,"[0.034861608848800386,-0.055915365616637354]",4.0,"[0.05543825438267259,0.1908599966951163]",4.0,"[-0.02107260241948007,-0.07326728145557444]",100.0,"[-0.020546722271844484,-0.1841789411400455]",4.0,"[-0.08582773052164626,-0.17444593884695606]",4.0,"[0.1604981678037631,0.06789978668103928]",100.0,"[0.13022599653566197,0.018131411474281715]",100.0,"[-0.10331143101773317,0.16979477404947635]",4.0,"[0.13658325371134647,-0.08329953457351823]",4.0,"[-0.09633513841775482,-0.07460176248793159]",100.0,"[0.17118472982734395,-0.04959432490041623]",4.0,"[-0.03507617825413495,-0.14017361938734288]",4.0,"[-0.044381036649333405,-0.03240898406701767]",100.0,"[-0.03107362554261732,0.0320905759755235]",4.0,"[-0.1505784941863976,-0.12328382368956517]",100.0,"[0.1074057403338731,0.14989789550418559]",100.0,"[-0.18993657426742955,-0.02169198512323096]",100.0,"[0.0389771993915125,0.13114378387771217]",4.0,"[-0.08773003080462825,0.039781103486641704]",100.0,"[-0.1271545840603822,0.1351173104848878]",100.0,"[0.06462110321920642,-0.11261357695609726]",100.0,"[0.02,0.02]",110.165,0.0,10.0,10.0,61.0,1.0,,,,,,,
,,,,,,,5d6e3252dfe6d10001dbe508,684428b2c1753ab9bb8d4f81,2025-06-07_13h55.48.251,shape_ratio,2024.1.5,Linux x86_64,60.24096386,684250e4f00cb30b92d1fa88,,,,,,,,,,,110.1655,110.6651,,,110.9155,111.7321,left,0.8102,,,,,,,,,0.6,,,,,,110.6652,110.9155,111.7322,"[-0.029562392724699307,-0.14735755280134047]",100.0,"[-0.011935917034275994,0.03228988944660931]",100.0,"[-0.14141217350825247,-0.05652637548262371]",100.0,"[0.032113686154142264,-0.1505774129892673]",100.0,"[0.005784762196222727,0.16699026190492905]",100.0,"[0.07467409604922631,-0.15514152972834833]",4.0,"[0.0381909195308739,0.09341476767340497]",4.0,"[-0.0982090159884688,0.053888058307662155]",4.0,"[0.15205155677876403,0.09865168598310174]",4.0,"[-0.19230862804702126,-0.008493472592025058]",100.0,"[0.021067474665617317,-0.06674491262746853]",100.0,"[0.07277782245100957,0.036967376294849044]",4.0,"[-0.04989583874286771,-0.0432936314841629]",100.0,"[-0.11109880367419889,0.13776618680816505]",100.0,"[-0.00020358432406021517,-0.025133529848690078]",100.0,"[-0.1301772882967105,0.005157928548501286]",100.0,"[0.0812468100768235,0.09051459604908534]",4.0,"[-0.13885307082040493,-0.10675939144399962]",4.0,"[0.10705437083702232,-0.09234055754368166]",100.0,"[0.10486522182311576,-0.033318287895368906]",4.0,"[-0.1715336986318123,0.05945852812639562]",4.0,"[-0.03289953352198502,0.10909635820315314]",100.0,"[0.07003680294277927,0.16825611454892062]",100.0,"[-0.13234819494615777,0.08779344489612154]",100.0,"[-0.06164332297694071,-0.09810170287377468]",100.0,"[-0.037756061524491236,0.0011349176616673444]",100.0,"[0.15198265133559477,0.03840698958178651]",100.0,"[0.17097132711412474,-0.08442192276415046]",4.0,"[0.11207175608753508,0.125807264133611]",100.0,"[-0.07314199893431048,-0.1385683903919379]",4.0,"[0.030441666213463888,-0.19108751359829676]",4.0,"[0.0557278677019298,-0.11753994220053694]",4.0,"[0.02,0.02]",112.8321,0.0,11.0,11.0,49.0,1.0,,,,,,,
,,,,,,,5d6e3252dfe6d10001dbe508,684428b2c1753ab9bb8d4f81,2025-06-07_13h55.48.251,shape_ratio,2024.1.5,Linux x86_64,60.24096386,684250e4f00cb30b92d1fa88,,,,,,,,,,,112.8324,113.3315,,,113.5817,114.0988,left,0.5047,,,,,,,,,0.6,,,,,,113.3315,113.5816,114.0989,"[0.10519628359138554,-0.12446294869099789]",100.0,"[0.12337669074968871,-0.06733207483869866]",100.0,"[-0.09932059374362803,0.05634653783552276]",100.0,"[-0.12183045218285316,0.00921861065162707]",100.0,"[-0.07663913858321458,0.1640525400538317]",100.0,"[0.16728037156996528,-0.08923008483578186]",4.0,"[0.1905140406858301,-0.02732097900454953]",4.0,"[0.062053783140206376,0.0046469463376955025]",100.0,"[0.07689288011226494,0.12260600617699507]",4.0,"[-0.019743388645069818,-0.1681212093288456]",100.0,"[-0.1446652063455044,-0.10194146597084605]",100.0,"[-0.11704423962025867,-0.14650510789916757]",100.0,"[-0.05874558281540795,-0.00009883562943621587]",100.0,"[0.06899090773789493,0.16385000964022126]",100.0,"[0.1611919523985935,0.06682447821989972]",100.0,"[0.009759934764778388,0.06017420395379597]",4.0,"[0.011446848200326206,-0.013550332032977709]",4.0,"[-0.04450655833504093,0.12547446020731182]",100.0,"[-0.07802880145836286,-0.09219585833445838]",100.0,"[-0.045257618555473354,0.06891369890803495]",100.0,"[0.03576385645399397,0.09285022823865816]",100.0,"[-0.1604259663922854,0.07310437852394183]",4.0,"[0.03702867523047522,-0.1312641625967732]",4.0,"[0.018437852426957776,0.1442060119200828]",4.0,"[0.07281390931668105,-0.16074679613381937]",4.0,"[-0.15012998608282566,-0.04134237327196917]",4.0,"[-0.1269192694894055,0.10967888238025628]",4.0,"[0.024305988150374432,-0.07570970849910731]",100.0,"[0.1646978747768869,0.02287679462667228]",4.0,"[0.1024596066236873,0.07998341485393831]",4.0,"[0.08242438747883646,-0.03393257647685187]",100.0,"[-0.022349188730556965,0.16212703598534925]",100.0,"[0.02,0.02]",115.1982,0.0,12.0,12.0,39.0,1.0,,,,,,,
,,,,,,,5d6e3252dfe6d10001dbe508,684428b2c1753ab9bb8d4f81,2025-06-07_13h55.48.251,shape_ratio,2024.1.5,Linux x86_64,60.24096386,684250e4f00cb30b92d1fa88,,,,,,,,,,,115.1986,115.6979,,,115.9498,116.399,right,0.4386,,,,,,,,,0.45,,,,,,115.6979,115.9498,116.399,"[0.09543078149615436,0.07879031712731634]",4.0,"[0.05391624088879336,0.15449315848803877]",100.0,"[-0.09800275198399117,0.047331503256020833]",4.0,"[0.05996580593991457,-0.003532369549060571]",4.0,"[0.0015010046798978453,0.1717831768406284]",4.0,"[-0.033924618502150554,-0.025943551295301605]",100.0,"[-0.19525138072468942,0.015326198655525505]",4.0,"[0.09322089822670658,0.12008428398713052]",100.0,"[-0.03692817343825151,-0.14447311802584673]",4.0,"[-0.14677223436491074,-0.07728219985954092]",100.0,"[0.015166287096266018,-0.0023050046289954797]",4.0,"[0.03276388383906763,-0.17595989451498384]",100.0,"[0.02784895263112581,-0.07450709635474714]",4.0,"[-0.10976935614148221,0.14488433480458937]",4.0,"[-0.1022753658933579,0.0026728903899099796]",100.0,"[-0.14250295827151427,0.06736563352071233]",4.0,"[0.197951998047911,-0.0055420699791343675]",100.0,"[0.07375065937320692,-0.0767687884334445]",100.0,"[-0.12248335651520402,-0.0373885957481452]",100.0,"[-0.0797301306076869,-0.15207611999114193]",4.0,"[0.12599370577076285,-0.000681705979163892]",4.0,"[0.12689221972379985,-0.12496670510692462]",100.0,"[-0.03602797521065982,0.18963681210009153]",4.0,"[-0.1628989724731036,-0.011056576311451212]",100.0,"[0.14972073289791063,0.04134763577960651]",4.0,"[-0.058785398739174655,0.0916088753905728]",4.0,"[-0.09790459446689673,-0.0762046700618566]",4.0,"[0.07521494378629189,-0.1325009304484995]",4.0,"[0.05227807341347332,0.056232616368436315]",4.0,"[0.14846725503757677,0.11516194146606988]",100.0,"[-0.043749747257655305,-0.10197470516644697]",100.0,"[-0.02059497080650644,0.016294384030905593]",100.0,"[0.02,0.02]",117.4985,0.0,13.0,13.0,149.0,1.0,,,,,,,
,,,,,,,5d6e3252dfe6d10001dbe508,684428b2c1753ab9bb8d4f81,2025-06-07_13h55.48.251,shape_ratio,2024.1.5,Linux x86_64,60.24096386,684250e4f00cb30b92d1fa88,,,,,,,,,,,117.4988,117.9995,,,118.2489,118.7985,right,0.5338,,,,,,,,,0.4,,,,,,117.9995,118.2488,118.7985,"[-0.005068480401842393,0.052681313807734304]",4.0,"[-0.12355798692139418,-0.050406050508359765]",4.0,"[-0.05799923472622638,0.09441893341834719]",100.0,"[0.00946514616835255,0.11907533133180757]",4.0,"[-0.020809737633842352,-0.12266246728437731]",100.0,"[0.11021981357840592,-0.10196716967805156]",4.0,"[-0.11933434207188148,0.11047386109676094]",100.0,"[-0.011513363197882955,0.19506512543139154]",100.0,"[0.04471200827622676,0.18573764619433786]",4.0,"[0.1822867414756204,0.07688691291036857]",100.0,"[0.034223449267856074,-0.18012989110585337]",4.0,"[0.13153086694244123,-0.13998081843244525]",4.0,"[0.050649259594607296,-0.013535226858982905]",4.0,"[0.11171806994279203,0.13177053182142895]",100.0,"[-0.05233981511209467,-0.03049807415843497]",4.0,"[0.10110756251223278,0.035675754191017844]",4.0,"[0.19133435712072952,0.0004158787399951256]",4.0,"[-0.07809749285406234,0.03601475233843928]",100.0,"[-0.08829750649774157,-0.15100729823781245]",4.0,"[-0.0397923818633634,0.14369512091725822]",100.0,"[0.07528917457682607,0.1125307278614069]",100.0,"[-0.0024327422287954746,-0.002973451816598687]",4.0,"[-0.06846187691965805,0.1743607716821459]",100.0,"[0.061030906611673305,-0.1001690331039694]",100.0,"[0.15233251353262767,-0.06639523413817167]",100.0,"[0.15692896924105182,0.03009084021308878]",100.0,"[-0.12636421129942565,0.05474948572932679]",4.0,"[-0.15590008154731308,-0.016348672428191036]",4.0,"[0.0947261578520472,-0.17218363052890354]",4.0,"[0.03602204174529783,-0.1351903715280467]",4.0,"[0.04005776267231798,0.04647924153635394]",4.0,"[-0.1808395772287763,0.0532892533249152]",4.0,"[0.02,0.02]",119.8987,0.0,14.0,14.0,152.0,1.0,,,,,,,
,,,,,,,5d6e3252dfe6d10001dbe508,684428b2c1753ab9bb8d4f81,2025-06-07_13h55.48.251,shape_ratio,2024.1.5,Linux x86_64,60.24096386,684250e4f00cb30b92d1fa88,,,,,,,,,,,119.899,120.3979,,,120.6486,121.1818,left,0.516,,,,,,,,,0.6,,,,,,120.3979,120.6486,121.1818,"[-0.1750927281468344,-0.02331053407329977]",100.0,"[0.19749831292561687,-0.007132906306963578]",100.0,"[0.040038269515669696,-0.1011769324633971]",100.0,"[0.13912587835132786,-0.054063320492925906]",100.0,"[-0.06959667981328309,0.16084765055542868]",4.0,"[-0.08477383600193336,-0.17937686101456]",4.0,"[-0.18885528711093222,-0.06509103508396515]",4.0,"[0.11096666542720822,-0.12467941163553391]",100.0,"[0.07180842585759563,-0.03206281902561244]",100.0,"[-0.03172647827958541,-0.01501508889999362]",100.0,"[-0.09481630117499643,-0.1303092500276623]",4.0,"[0.06574394742083799,0.12230878018873365]",100.0,"[0.006162515963974554,0.047988588197591775]",4.0,"[-0.11151519296344363,0.033722248123020784]",100.0,"[-0.08518931428014175,0.0012268836011563712]",100.0,"[-0.07579228848971228,-0.08817299213584251]",4.0,"[0.02299156881621609,-0.031539110946339585]",4.0,"[-0.008931058017727398,-0.11663664167644629]",4.0,"[-0.054593592156337266,0.0882645450198973]",4.0,"[0.1348134153008932,0.002498628561443716]",100.0,"[0.032054400368991244,0.15792781367785014]",100.0,"[0.13296055561474385,0.05315604479944396]",100.0,"[0.17639755607831875,0.08561903075467575]",4.0,"[-0.12563936636461792,-0.004919050712963831]",100.0,"[-0.1427845341646755,-0.08926612076026649]",100.0,"[-0.19337187161914993,0.015278492353916685]",4.0,"[0.06002817883668042,-0.17513082670071112]",100.0,"[-0.11527948290389725,0.09191515580644964]",100.0,"[0.053390810500865624,0.006376539337164104]",100.0,"[0.06545680915549298,0.046123551360541686]",4.0,"[0.15694097901447573,0.12147855629221319]",4.0,"[-0.07380608293647879,0.05146587587838537]",100.0,"[0.02,0.02]",122.2815,0.0,15.0,15.0,44.0,1.0,,,,,,,
,,,,,,,5d6e3252dfe6d10001dbe508,684428b2c1753ab9bb8d4f81,2025-06-07_13h55.48.251,shape_ratio,2024.1.5,Linux x86_64,60.24096386,684250e4f00cb30b92d1fa88,,,,,,,,,,,122.2819,122.7815,,,123.0326,123.5153,right,0.4732,,,,,,,,,0.4,,,,,,122.7815,123.0326,123.5154,"[0.08454533268318444,-0.007437246608785918]",4.0,"[0.024077336368711497,0.17697359572926813]",100.0,"[-0.037914154645922474,0.02529974556143154]",100.0,"[-0.15107351866739208,0.06877164302958311]",4.0,"[-0.02189484110261178,-0.03603255849143978]",4.0,"[-0.02523616698430499,-0.0784730543848925]",4.0,"[-0.1672900893371989,-0.10010159304543258]",4.0,"[0.044105523991901666,0.03634879525128919]",100.0,"[0.15716989894067004,0.08515382751707543]",4.0,"[-0.009248895699060785,0.09480132089377305]",100.0,"[0.08489705964339812,-0.1748397749825854]",4.0,"[-0.024752703273891136,-0.18739560861076593]",4.0,"[-0.1156940415287657,-0.03747336317996956]",4.0,"[0.18262937776558982,0.042249380360066924]",4.0,"[-0.16563868252497424,-0.04027783313873352]",100.0,"[-0.06640743318357294,-0.06951588970750527]",100.0,"[0.1914193947902886,-0.015549021857613895]",100.0,"[-0.019641265173114302,0.16827459808705006]",4.0,"[-0.07645646883466235,0.16646632483593937]",4.0,"[0.07551251163830765,0.08041750305930805]",100.0,"[-0.07775722369076743,0.012367841204958653]",4.0,"[0.07472623295357013,-0.07964459301838807]",100.0,"[-0.11226953384310588,-0.16047911350932575]",4.0,"[0.026839575960526683,-0.14940068551570795]",4.0,"[0.04105338590411138,-0.022043769783401078]",100.0,"[0.1120782597541453,0.1281526051418916]",100.0,"[0.12250993139547932,-0.02251564401448431]",4.0,"[0.10554261412757195,-0.11244881344387729]",4.0,"[0.0708194947935967,0.16074286570250196]",4.0,"[-0.07120109267171018,0.09503435197933802]",100.0,"[-0.07783219873376859,-0.13213211109780623]",100.0,"[-0.12422332007141428,0.11686054515328387]",4.0,"[0.02,0.02]",124.6148,0.0,16.0,16.0,165.0,1.0,,,,,,,
,,,,,,,5d6e3252dfe6d10001dbe508,684428b2c1753ab9bb8d4f81,2025-06-07_13h55.48.251,shape_ratio,2024.1.5,Linux x86_64,60.24096386,684250e4f00cb30b92d1fa88,,,,,,,,,,,124.6152,125.1156,,,125.3659,125.6989,left,0.3271,,,,,,,,,0.9,,,,,,125.1156,125.3658,125.6989,"[0.01724809667345915,0.11260810880604029]",100.0,"[0.030981912174065238,-0.17899074021418013]",100.0,"[-0.15937727905231575,0.08905841493588927]",100.0,"[-0.05328932659104192,-0.019523123339947265]",100.0,"[-0.10548524359252354,0.02080411142061284]",100.0,"[-0.17267529082109345,0.0029617373125497277]",100.0,"[0.008459120573053406,-0.1356844669958512]",4.0,"[0.07290524137514642,0.09688820788717688]",100.0,"[-0.04316701803824401,-0.10791061292025388]",100.0,"[-0.0640182483983245,0.023224598843493104]",100.0,"[-0.10533513341481925,0.14311648656446715]",100.0,"[-0.00460000696497677,-0.06971486614590722]",100.0,"[0.05507590148952496,-0.009688773953077125]",100.0,"[0.18186651687660066,0.015362115208299547]",100.0,"[0.16492739883942284,-0.10646403873448411]",100.0,"[0.12333023776356386,0.04415468648381006]",4.0,"[0.0472532106583391,0.18650953805615936]",100.0,"[0.08334256385017934,-0.15571301949191996]",100.0,"[0.08776101447987339,0.17513670416937488]",100.0,"[-0.06814175327987682,-0.14360390896466838]",100.0,"[-0.12621394876573094,-0.10115497086327248]",100.0,"[0.15182407639233922,-0.055712606822781986]",100.0,"[-0.02868648273777738,0.05776539559037232]",100.0,"[0.00799271590504403,0.008937788776510728]",100.0,"[-0.18448181006754616,-0.05529886074503211]",4.0,"[0.08202013255637658,0.04714357928382253]",100.0,"[-0.008085913063271378,-0.19055080748021563]",100.0,"[0.05332731219968174,-0.1018032906410681]",100.0,"[0.1881379634298341,0.06372943269748438]",100.0,"[-0.019085694531781834,0.143223470623815]",100.0,"[0.10984553361722528,0.000780941621841688]",100.0,"[0.0833419250278654,-0.06685277438536984]",100.0,"[0.02,0.02]",126.7987,0.0,17.0,17.0,16.0,1.0,,,,,,,
,,,,,,,5d6e3252dfe6d10001dbe508,684428b2c1753ab9bb8d4f81,2025-06-07_13h55.48.251,shape_ratio,2024.1.5,Linux x86_64,60.24096386,684250e4f00cb30b92d1fa88,,,,,,,,,,,126.7991,127.2986,,,127.5487,127.8983,left,0.3395,,,,,,,,,0.9,,,,,,127.2987,127.5486,127.8983,"[-0.12150802569171908,0.12412480808789136]",100.0,"[-0.009035112081562144,-0.07874258401245234]",100.0,"[-0.18538672851905857,0.06003180211620604]",100.0,"[-0.12483232523311849,-0.14433551631067232]",4.0,"[0.13690882865130358,-0.058833912347227416]",100.0,"[0.068989182679869,0.16391856300401814]",100.0,"[-0.07328050661021451,0.16276793724627436]",100.0,"[0.02947843336070117,-0.11028311461536637]",100.0,"[0.1468798347687346,0.04729867140550905]",100.0,"[0.022646072055504583,-0.02817815201701966]",100.0,"[0.012488775425261799,-0.19423178734960156]",100.0,"[0.03259785854144387,0.14006030929569688]",100.0,"[-0.08061129533351054,-0.06860227329107607]",100.0,"[-0.06241974450285628,0.08856578645717385]",100.0,"[-0.04067310963618455,-0.01709931039361902]",100.0,"[0.07037371987903547,-0.17776354954375523]",100.0,"[0.14314520535195843,0.1218122470527422]",100.0,"[-0.01830026384300322,0.12605107320490147]",100.0,"[-0.15145832327202702,-0.025347111392928206]",100.0,"[0.19356101771482484,-0.016860623657668425]",100.0,"[-0.06878152551269175,-0.11551905255076361]",100.0,"[0.07529106629080054,0.025005728659662555]",4.0,"[-0.010511748153086172,0.03093643534624086]",100.0,"[0.11399723271038191,-0.10874176719113314]",100.0,"[-0.0968653399306476,0.003876714691294865]",100.0,"[0.08610465727733829,0.11740723950455287]",100.0,"[0.17679757673850496,-0.08017269237920857]",100.0,"[0.07888017398146903,-0.042735484446712484]",100.0,"[-0.18412209929607404,-0.06311680139977667]",100.0,"[0.11583597999435966,0.08422004371899591]",4.0,"[-0.15682663618971424,-0.10654170108042584]",100.0,"[0.0329978136121136,0.047282419673214615]",100.0,"[0.02,0.02]",128.9992,0.0,18.0,18.0,4.0,1.0,,,,,,,
,,,,,,,5d6e3252dfe6d10001dbe508,684428b2c1753ab9bb8d4f81,2025-06-07_13h55.48.251,shape_ratio,2024.1.5,Linux x86_64,60.24096386,684250e4f00cb30b92d1fa88,,,,,,,,,,,128.9997,129.4985,,,129.7491,130.4989,right,0.7341,,,,,,,,,0.55,,,,,,129.4985,129.7491,130.4989,"[0.05539441670499221,0.08766491656669542]",4.0,"[-0.05046040530622866,0.09004328086715863]",100.0,"[-0.010907943396485278,-0.04152914641870404]",4.0,"[0.11580477243554504,-0.09800661118718723]",4.0,"[0.08025021094752742,-0.16546487679021726]",4.0,"[0.05982767668544818,0.03264094111345718]",4.0,"[0.05469677092603928,-0.07160998891985355]",100.0,"[-0.05645528626300898,0.14882562647098213]",100.0,"[-0.015552618421450198,0.18489444365103588]",100.0,"[0.0006445109178552062,-0.14298310758757024]",100.0,"[0.10214037691017713,-0.06024961021477111]",100.0,"[0.07351125869977798,-0.014328516900543802]",100.0,"[-0.16973520532608358,-0.06351226286121955]",100.0,"[0.03186899331802253,-0.1912602212526951]",4.0,"[0.13882677133459081,0.06427275647950684]",100.0,"[-0.18184353225216307,-0.010158143818590612]",100.0,"[-0.04224712543103316,-0.18081132874860412]",100.0,"[-0.08586665861671534,-0.08393484024531721]",4.0,"[-0.1219715731546071,-0.0207104043724285]",4.0,"[0.16212084932942092,-0.022068264812449757]",100.0,"[-0.008465886093591753,0.011001133039403976]",100.0,"[-0.09581198114349707,-0.15208401464731464]",100.0,"[-0.08083613456052054,-0.03586255528376531]",100.0,"[0.1300660201493877,0.14315070558992535]",4.0,"[-0.11304435658239481,0.021746831409836104]",4.0,"[-0.18044312876877222,0.037597915301353646]",100.0,"[-0.1264590687075265,-0.08285120095695177]",100.0,"[0.09813446232306407,0.058908110786812524]",4.0,"[0.19165960548867955,0.020034877765751694]",100.0,"[-0.04287978218806567,-0.08651251592445407]",4.0,"[-0.03824195099663718,-0.13299624332088897]",4.0,"[0.12055187459467731,0.009154130053706308]",4.0,"[0.02,0.02]",131.5984,0.0,19.0,19.0,84.0,1.0,,,,,,,
,,,,,,,5d6e3252dfe6d10001dbe508,684428b2c1753ab9bb8d4f81,2025-06-07_13h55.48.251,shape_ratio,2024.1.5,Linux x86_64,60.24096386,684250e4f00cb30b92d1fa88,,,,,,,,,,,131.5987,132.0992,,,132.3481,132.7654,right,0.4134,,,,,,,,,0.1,,,,,,132.0992,132.348,132.7654,"[-0.020206394012518347,0.0354843874169156]",4.0,"[-0.13075462247839964,0.13529556990589148]",4.0,"[0.10028753578645182,0.03636489114354615]",4.0,"[0.11312686537698377,0.14427077359438695]",4.0,"[-0.16800919214678567,-0.03953032610460809]",4.0,"[-0.06626188741374481,-0.1737058807119074]",4.0,"[-0.04150119016064098,0.15819337502583097]",4.0,"[0.1593333630517273,-0.04150897686083884]",4.0,"[0.01635842154442804,-0.15622958482094443]",4.0,"[0.021296843730460494,-0.08993466195032442]",4.0,"[-0.06917332615963134,0.01659902385581508]",4.0,"[0.05318856320139878,0.041749509764310466]",4.0,"[-0.17054569465380076,0.06340964576090455]",4.0,"[-0.12090888535459274,-0.07195808061751395]",4.0,"[0.13030275072316613,-0.09631531492769288]",4.0,"[0.005623122272738885,0.09944267801725812]",100.0,"[-0.1811163350725698,-0.08033166864490437]",4.0,"[0.1631374018474816,0.10398904586474582]",4.0,"[0.018833746753424203,-0.19901899244433618]",4.0,"[0.16919866669113356,0.043093865226698294]",4.0,"[0.03549538536448599,-0.02764532459013298]",4.0,"[0.009994013409865795,0.19451563244127787]",4.0,"[-0.0862486835669576,0.14882282697887306]",4.0,"[-0.046367385255767904,-0.09280901736942139]",4.0,"[-0.1321034868618743,0.036864334085685894]",100.0,"[-0.05703460252161264,-0.04935811206302024]",4.0,"[-0.03436514307172103,-0.01596071604054172]",4.0,"[0.1361933878144245,0.06630376217690878]",4.0,"[-0.08917477457694624,-0.10596311230175887]",100.0,"[0.0639784796718881,-0.126576051628867]",4.0,"[-0.09861296073587417,0.07470732728931095]",4.0,"[-0.11187308066495827,-0.14471104525178027]",4.0,"[0.02,0.02]",133.8653,0.0,20.0,20.0,205.0,1.0,,,,,,,
,,,,,,,5d6e3252dfe6d10001dbe508,684428b2c1753ab9bb8d4f81,2025-06-07_13h55.48.251,shape_ratio,2024.1.5,Linux x86_64,60.24096386,684250e4f00cb30b92d1fa88,,,,,,,,,,,133.8658,134.3655,,,134.6148,135.2157,right,0.5887,,,,,,,,,0.5,,,,,,134.3655,134.6148,135.2157,"[-0.05947781068606883,0.0898620607740783]",100.0,"[0.020453306434294802,-0.06836926041015866]",100.0,"[-0.10301351773408286,0.07288408478803893]",4.0,"[-0.005487098037347179,-0.14681504635607154]",100.0,"[0.11129076830206043,0.09054327006847827]",4.0,"[0.058327472111710084,0.12896507577863495]",4.0,"[0.10996389169853293,-0.02029837975586251]",4.0,"[-0.14692394336707193,-0.09533843199034966]",4.0,"[-0.059954924032007424,-0.020017092022951162]",100.0,"[0.180309963761259,-0.07340799232742094]",100.0,"[-0.1525417386923619,0.03251112634976153]",4.0,"[0.13352339531250346,-0.14731297970519164]",4.0,"[-0.05631864027401863,-0.06563521003668611]",100.0,"[-0.016339183346261135,0.12320137117025051]",100.0,"[-0.1445087128968103,0.08283151938763744]",100.0,"[0.06531309702474127,-0.10138742701629695]",100.0,"[0.09390499404078162,0.034639026865564124]",4.0,"[-0.0012368067122242982,0.026852031786091805]",100.0,"[-0.06582424655165207,0.1831870144471631]",4.0,"[0.012094670955340961,-0.19653077046867032]",100.0,"[0.059333430295567056,-0.03913312988679496]",100.0,"[-0.0125066601736114,0.19514295248499744]",4.0,"[0.15687049556085247,-0.04049983353561092]",4.0,"[-0.18834743999891998,-0.03378481079216075]",4.0,"[-0.06156631651559495,0.034669865475841666]",4.0,"[-0.14572874871238714,-0.04524367395108904]",100.0,"[-0.10709555714192343,0.14290663097868767]",100.0,"[0.1878856898297566,0.04006747979574128]",4.0,"[-0.05671816189932177,-0.11110355121704123]",100.0,"[-0.0581701217189572,0.13434096021910974]",4.0,"[0.03492814114012003,0.07185669197736176]",4.0,"[0.016953898108973846,0.1637867561894041]",100.0,"[0.02,0.02]",136.3147,0.0,21.0,21.0,94.0,1.0,,,,,,,
,,,,,,,5d6e3252dfe6d10001dbe508,684428b2c1753ab9bb8d4f81,2025-06-07_13h55.48.251,shape_ratio,2024.1.5,Linux x86_64,60.24096386,684250e4f00cb30b92d1fa88,,,,,,,,,,,136.3151,136.8152,,,137.0655,137.7814,right,0.6999,,,,,,,,,0.6,,,,,,136.8152,137.0655,137.7814,"[-0.10367544350072143,-0.1306827084318782]",100.0,"[-0.18590515589423925,0.06349744636979825]",100.0,"[-0.04728738837213083,0.10835873677735024]",100.0,"[0.09439297326930841,-0.025039143341578713]",4.0,"[0.02191547481259625,-0.1292234818947295]",4.0,"[0.16011300900348951,-0.03645419821730206]",100.0,"[-0.16884775189125797,-0.08492781694685428]",4.0,"[-0.06996543380041281,0.026010176409638926]",4.0,"[0.11669914636330736,0.011309177516027268]",4.0,"[0.036920083680194164,-0.0312924192568526]",100.0,"[-0.15237423717537482,-0.12282145544733]",100.0,"[0.0201021652611629,0.1463786337421141]",4.0,"[0.18748523105191936,0.04001689237382229]",100.0,"[0.09368083653849954,0.16349391127295623]",100.0,"[0.03619680785499088,0.009715237202513993]",100.0,"[-0.019607757979943283,-0.081208033435652]",4.0,"[0.12882169390222295,0.11055351091290673]",100.0,"[0.12313150561821513,-0.1374583846135129]",4.0,"[0.009593961323878972,-0.17851023911244754]",100.0,"[-0.16362592868696332,-0.006185259944706929]",4.0,"[-0.024832640959529393,-0.02201865088751719]",4.0,"[-0.09677420937066863,-0.052517188156603674]",100.0,"[-0.1235035653546903,0.03972688778252263]",100.0,"[-0.07538764309634985,0.17205581064393577]",100.0,"[0.02392379196107516,-0.08498033929027772]",100.0,"[0.0022854776523782514,0.09271446297911937]",100.0,"[0.11883626081525292,-0.07693493362901192]",100.0,"[-0.1420082370413301,0.07716409373139722]",4.0,"[0.05139102210064516,0.07408898148619297]",100.0,"[0.061950387353131325,-0.10427640720822298]",100.0,"[-0.041321295585250856,-0.1601270105613698]",4.0,"[-0.00948613886417475,0.05203389653562874]",4.0,"[0.02,0.02]",138.8821,0.0,22.0,22.0,42.0,1.0,,,,,,,
,,,,,,,5d6e3252dfe6d10001dbe508,684428b2c1753ab9bb8d4f81,2025-06-07_13h55.48.251,shape_ratio,2024.1.5,Linux x86_64,60.24096386,684250e4f00cb30b92d1fa88,,,,,,,,,,,138.8826,139.3814,,,139.6323,140.1489,right,0.5072,,,,,,,,,0.4,,,,,,139.3814,139.6323,140.149,"[-0.15014257142125453,0.03355398392594347]",100.0,"[-0.0993984017500528,-0.15936412349193693]",4.0,"[0.017518455300759822,0.1157956757247183]",4.0,"[0.16706936000397649,0.1056838952449662]",100.0,"[-0.09050680126061655,-0.0459678193688376]",4.0,"[0.17620119249653762,-0.03411060324826575]",100.0,"[-0.0472197906716603,0.09877761183453432]",4.0,"[-0.1507802965470792,-0.021786785560338875]",4.0,"[0.044756175591756306,0.03335931598595896]",4.0,"[-0.16821196867217647,0.09674478257280708]",4.0,"[0.004381334658545101,-0.08158789516984116]",100.0,"[-0.13945216543766578,-0.06512206213855612]",4.0,"[-0.1151867390278953,-0.11411751419086741]",4.0,"[0.006907643289181646,0.015480831968016891]",4.0,"[-0.039394828810728484,-0.010421370151967207]",100.0,"[0.12292225966867051,0.09938648408944414]",4.0,"[0.1301270255551662,0.059484985299303704]",4.0,"[0.08284202620636609,-0.12423545416252584]",100.0,"[0.06349752993516335,-0.03158059876610969]",100.0,"[0.131023587189748,-0.06544190832434688]",4.0,"[0.19828208985579054,0.02294261426412888]",4.0,"[-0.013504303201121712,0.18849708616140295]",100.0,"[-0.0631618383458643,0.040486615971070235]",100.0,"[0.1633049347324386,-0.10744419011625202]",4.0,"[0.09488677589606537,0.011471617912534196]",4.0,"[-0.017635580403063178,-0.16597600128509432]",100.0,"[0.07455203909469502,0.1349808983651796]",4.0,"[0.011208250780097882,-0.030811710733955184]",4.0,"[0.10245162621299428,0.16545408658885535]",100.0,"[-0.10577679066447082,0.07036294111000638]",100.0,"[-0.1953082873974128,0.029981533068818803]",100.0,"[0.06670814791564314,0.06876791958290114]",4.0,"[0.02,0.02]",141.249,0.0,23.0,23.0,159.0,1.0,,,,,,,
,,,,,,,5d6e3252dfe6d10001dbe508,684428b2c1753ab9bb8d4f81,2025-06-07_13h55.48.251,shape_ratio,2024.1.5,Linux x86_64,60.24096386,684250e4f00cb30b92d1fa88,,,,,,,,,,,141.2493,141.7482,,,141.9987,142.5485,right,0.536,,,,,,,,,0.1,,,,,,141.7483,141.9986,142.5486,"[-0.18942402056710606,0.009489251238209562]",4.0,"[0.017931288170622988,0.19727644690629162]",4.0,"[0.12141542852615786,-0.07026018857598852]",4.0,"[-0.004108710187200974,-0.1821296911053605]",4.0,"[-0.04709491341437007,-0.14496762248281558]",4.0,"[0.1022910070808718,-0.021726907871996333]",4.0,"[0.05800199679008855,-0.16826623819770825]",4.0,"[0.08294289198194699,0.08430672486980327]",100.0,"[-0.17934740444154018,0.05463564193189893]",4.0,"[0.0036240980284836643,0.08465189754472655]",4.0,"[-0.09027578319222519,0.061359677801010606]",4.0,"[-0.1561912650572177,-0.1154513810054207]",4.0,"[-0.11533699575458325,-0.10123618504602]",4.0,"[0.11047370246527596,0.14332552565526177]",4.0,"[0.013336392325664097,-0.04103615010126955]",4.0,"[0.14252384482278863,-0.012797462268153937]",4.0,"[0.1604762716023548,0.05976075924512087]",4.0,"[-0.03310681507213151,0.15942543581816881]",4.0,"[0.061351359470130186,0.14330383751881134]",4.0,"[0.051579638147147853,-0.09131794739764751]",4.0,"[0.0705922341176343,0.035394672470395405]",4.0,"[-0.028702153955864982,-0.033363795934745005]",4.0,"[-0.11564498525065034,0.02185631817690606]",100.0,"[-0.15352031330278654,-0.043122262448018235]",4.0,"[-0.14962711879258483,0.13230604297235965]",4.0,"[0.08454680814184068,-0.13222258678559587]",4.0,"[-0.03679227300325343,0.09256374006873355]",4.0,"[-0.07490431615018651,-0.10991147665961334]",4.0,"[-0.09762306489186143,0.146251055935704]",4.0,"[0.03253348486735463,-0.005192387030319742]",4.0,"[0.1573610628272835,0.12178676072121448]",4.0,"[0.008739994381212408,-0.0831864476009202]",100.0,"[0.02,0.02]",143.6482,0.0,24.0,24.0,196.0,1.0,,,,,,,
,,,,,,,5d6e3252dfe6d10001dbe508,684428b2c1753ab9bb8d4f81,2025-06-07_13h55.48.251,shape_ratio,2024.1.5,Linux x86_64,60.24096386,684250e4f00cb30b92d1fa88,,,,,,,,,,,143.6486,144.1486,,,144.399,144.8155,left,0.3986,,,,,,,,,0.6,,,,,,144.1486,144.399,144.8155,"[0.053623138877772376,0.13978672093277858]",100.0,"[0.12400712712208514,0.04568946652007785]",100.0,"[-0.0076169911620852454,0.06566495687596109]",100.0,"[0.08256682085654997,-0.020871171677355343]",100.0,"[0.08966585616519955,-0.06062119001070106]",100.0,"[-0.0605472771827478,0.05399640249018251]",100.0,"[-0.012635044386784368,0.11652869171408768]",4.0,"[-0.05054816874623609,-0.015391018499607657]",100.0,"[-0.14390114617853847,-0.1081038026860159]",100.0,"[-0.013099936755499031,0.16658156963016893]",100.0,"[0.06805470791369551,-0.11977604003897713]",4.0,"[-0.0627399052452795,0.18511416527566657]",100.0,"[-0.1431855121434313,0.05554941649541892]",4.0,"[-0.10918542929626346,-0.07303312010943598]",100.0,"[0.12073373301571044,-0.11936211741109046]",100.0,"[-0.09587858520889854,0.03440713383875397]",4.0,"[0.14521458648846103,0.1360714566324905]",100.0,"[0.03517081685139628,0.016370181365794437]",100.0,"[-0.10508822103419609,0.1292305247262842]",100.0,"[0.002606696836376937,-0.09943310085473532]",4.0,"[-0.15190921992311074,0.10674527169797422]",4.0,"[-0.06209782941357489,-0.11620128577590448]",4.0,"[0.052230026110929466,0.08176151677119838]",4.0,"[-0.06434214758266674,0.10539159131485291]",4.0,"[-0.12234941679388003,-0.14451246556574118]",100.0,"[-0.059090897051878234,-0.1785419593080575]",4.0,"[0.17289251132371175,-0.0003707628779088982]",100.0,"[0.16779822820593576,-0.056104583893874106]",100.0,"[0.1611302240200934,0.08201575714158978]",100.0,"[-0.1292181937766536,-0.03163557481057605]",4.0,"[0.08502636394479715,0.05732885519972301]",4.0,"[0.014291998254762614,-0.03414005577726108]",4.0,"[0.02,0.02]",145.9157,0.0,25.0,25.0,54.0,1.0,,,,,,,
,,,,,,,5d6e3252dfe6d10001dbe508,684428b2c1753ab9bb8d4f81,2025-06-07_13h55.48.251,shape_ratio,2024.1.5,Linux x86_64,60.24096386,684250e4f00cb30b92d1fa88,,,,,,,,,,,145.9161,146.4154,,,146.6649,147.1325,right,0.4538,,,,,,,,,0.55,,,,,,146.4155,146.6649,147.1325,"[-0.0049527191560169255,-0.10605389403323624]",100.0,"[-0.04968136331205138,0.12946058078075243]",100.0,"[-0.07192303590714795,0.08321804918374195]",4.0,"[-0.036272847839454565,-0.002483732654888325]",100.0,"[-0.02579451897755042,0.188125601418779]",4.0,"[-0.08801214754386083,-0.026624779715215614]",100.0,"[0.1479375138087111,-0.08743085359783376]",4.0,"[0.07519903989017492,0.03567227344305387]",4.0,"[-0.13120670596334127,0.0793167949439669]",4.0,"[-0.09291145643720658,-0.08725932489444688]",4.0,"[0.07653455883578819,0.1521947882413666]",100.0,"[0.11383644404429097,0.07329620868055209]",100.0,"[0.09406128802494156,-0.14443253120726482]",100.0,"[-0.002491604161272951,-0.16527362225171563]",100.0,"[0.12627574312710108,0.13061673595050613]",100.0,"[0.06853499083266468,-0.02314330809317671]",100.0,"[-0.17240123352425707,-0.03207381391649838]",100.0,"[-0.1799798414456684,0.028398991772985965]",100.0,"[0.014926294676504382,-0.051308823513789764]",100.0,"[-0.04117700051581549,0.056066794135815785]",4.0,"[0.04505911633372469,0.18522253841038483]",4.0,"[0.09942903320908467,0.0033164301696278803]",100.0,"[0.1687773841308435,0.06365908835154382]",4.0,"[-0.04888867765708223,-0.0957506883232202]",100.0,"[0.08938560745077644,0.11177751892569364]",4.0,"[0.04669113464455413,-0.1076522708673518]",100.0,"[0.0001336243571052765,0.02626570146884796]",4.0,"[-0.08891767976212021,0.03323901176461287]",4.0,"[0.10164650793640852,-0.052330997684486034]",4.0,"[0.13108195383920396,0.033613037895228896]",4.0,"[0.1922443458461831,0.026238076829451257]",100.0,"[0.05531507417371782,0.08908405081859712]",100.0,"[0.02,0.02]",148.2314,0.0,26.0,26.0,85.0,1.0,,,,,,,
,,,,,,,5d6e3252dfe6d10001dbe508,684428b2c1753ab9bb8d4f81,2025-06-07_13h55.48.251,shape_ratio,2024.1.5,Linux x86_64,60.24096386,684250e4f00cb30b92d1fa88,,,,,,,,,,,148.2318,148.7322,,,148.9824,149.4984,left,0.5126,,,,,,,,,0.4,,,,,,148.7323,148.9824,149.4984,"[-0.014683307393747971,0.18218736629864812]",100.0,"[-0.011391227598472801,-0.15720565561854874]",4.0,"[-0.11452389455256443,-0.07015050116747844]",4.0,"[0.0657508640506162,0.11975680397824234]",100.0,"[-0.061440892283818646,0.16436002706971076]",4.0,"[0.10127707651001033,-0.11471285163520127]",4.0,"[0.10334282555391963,0.03305099935161605]",100.0,"[-0.11814473210790352,0.07809725853703275]",100.0,"[0.16031096351163132,0.037345464975486756]",4.0,"[0.03377453838884928,-0.08588261649857917]",4.0,"[0.08435741126458036,-0.15116351065355682]",100.0,"[0.1480216306509431,0.08587531142111957]",100.0,"[-0.0729678404786133,-0.0021122928817150417]",100.0,"[0.056460578387289476,0.050277941802642764]",100.0,"[-0.11244529869004856,-0.1646923839589664]",4.0,"[-0.03237724146849899,-0.10766785911313452]",4.0,"[-0.04312039787536335,-0.05897053432227874]",100.0,"[-0.17747066729732897,0.028902156895832788]",4.0,"[-0.1573568991271273,-0.10628844581564309]",4.0,"[0.09157559061507822,-0.06116398125582223]",4.0,"[0.08219036154978276,-0.017790052813452]",4.0,"[0.028254880067310372,-0.030954509257529024]",4.0,"[-0.06281575089002316,0.03686833459991306]",4.0,"[0.1658923055248925,-0.05721568092752904]",4.0,"[-0.0038642422751983645,0.050143468148145194]",100.0,"[-0.07218041010167511,-0.14002250383370096]",100.0,"[-0.14584428686428266,0.13677057243541146]",4.0,"[0.16960323784429174,-0.008346079511762467]",4.0,"[0.07472804234206797,0.1613490809651958]",100.0,"[0.016334535030897816,0.10832081548393889]",100.0,"[0.13270459868972298,0.12619097292120834]",4.0,"[0.08937031967810247,0.0807131696341134]",4.0,"[0.02,0.02]",150.5986,0.0,27.0,27.0,173.0,1.0,,,,,,,
,,,,,,,5d6e3252dfe6d10001dbe508,684428b2c1753ab9bb8d4f81,2025-06-07_13h55.48.251,shape_ratio,2024.1.5,Linux x86_64,60.24096386,684250e4f00cb30b92d1fa88,,,,,,,,,,,150.599,151.0979,,,151.3488,151.8487,right,0.4833,,,,,,,,,0.5,,,,,,151.0979,151.3487,151.8488,"[-0.027256701608117488,-0.14469857895032676]",100.0,"[-0.13925722277937186,-0.08179347835071965]",4.0,"[-0.08132672771947208,0.12651380241603447]",100.0,"[-0.0960898421961702,-0.12811644211342246]",100.0,"[0.1055066247324416,-0.06501518041023793]",4.0,"[0.1973650362855489,0.0170020281493355]",100.0,"[0.0355752343302435,0.13409643993048154]",100.0,"[0.10818166321067336,0.010962961589400116]",100.0,"[0.0777279489441632,0.06288679392891741]",4.0,"[-0.007855053578329123,0.12182079305800528]",100.0,"[-0.04173156403133657,0.02645999076214834]",4.0,"[-0.11293804109059943,-0.03794578025323191]",100.0,"[-0.01715367109888265,0.08127195131425267]",4.0,"[-0.00046792854080380137,-0.18705216413797304]",4.0,"[0.008275668668091402,-0.09853827210263129]",4.0,"[-0.03803609631228229,0.17817383246747834]",100.0,"[-0.18081098270080787,0.0806325145178991]",4.0,"[0.09266895883289425,0.1625653007346754]",100.0,"[-0.055293701893319315,-0.10961626319835518]",4.0,"[0.02915586419054197,0.1816886021381]",4.0,"[-0.1536959833294845,0.0376435106670883]",100.0,"[0.12886791661614552,0.1319721697077391]",100.0,"[0.17498818069424005,0.06273386345701594]",4.0,"[0.015668569890539153,0.030798640715163826]",100.0,"[-0.028317123354385024,-0.017011087470392223]",100.0,"[-0.18907867306319587,-0.04733085205567945]",4.0,"[-0.0024454801550841438,-0.05716393410240111]",4.0,"[0.14470167695608313,-0.12801914507854006]",100.0,"[0.08594536876807018,0.11468839813086262]",4.0,"[-0.1217479032611862,0.11402372850013019]",4.0,"[0.17357099687756503,-0.0735125513013917]",100.0,"[-0.1082194331243611,0.01343087883379432]",4.0,"[0.02,0.02]",152.9489,0.0,28.0,28.0,113.0,1.0,,,,,,,
,,,,,,,5d6e3252dfe6d10001dbe508,684428b2c1753ab9bb8d4f81,2025-06-07_13h55.48.251,shape_ratio,2024.1.5,Linux x86_64,60.24096386,684250e4f00cb30b92d1fa88,,,,,,,,,,,152.9492,153.4495,,,153.6982,154.2985,right,0.5867,,,,,,,,,0.6,,,,,,153.4495,153.6982,154.2986,"[0.12468743448927873,0.026755352635039628]",4.0,"[0.17688043630680036,0.07293602527244596]",100.0,"[-0.02262700901237077,-0.08153836277502449]",100.0,"[-0.06940295297847558,0.08287256239284793]",4.0,"[-0.0351822433831884,-0.14444153997313156]",4.0,"[0.08668185632026269,-0.017868750925542666]",100.0,"[-0.15604029447995482,0.028998351437459647]",100.0,"[0.000857575776755909,-0.010068453095421584]",100.0,"[0.034970902623415394,0.10862765255608108]",100.0,"[0.14442814892311434,-0.02928334307995867]",100.0,"[0.04385467280762614,-0.036774777246297165]",4.0,"[-0.0794696102567978,0.03380906045030242]",100.0,"[0.012845040610839567,-0.12626904193511365]",4.0,"[-0.12950815744470967,-0.11221992105745521]",100.0,"[0.08116543368784293,0.05379892532287727]",100.0,"[-0.06273895616206435,0.1372658671621901]",4.0,"[-0.09695526503949177,-0.05950884003168782]",100.0,"[0.04362611375604082,-0.16448259840713275]",100.0,"[-0.08770363993689678,0.17545265794313475]",100.0,"[-0.004909820819955481,0.1367315555960418]",4.0,"[0.0316479175853906,0.18420365925204976]",100.0,"[0.16514229214040743,-0.06777186237201055]",4.0,"[-0.09647858452412279,-0.172695380465368]",4.0,"[-0.18148435138355082,-0.08325911783100176]",100.0,"[0.08406974579787665,0.11469752032816008]",4.0,"[0.131943393770815,0.07067657138921936]",100.0,"[0.1921488236829884,0.020762910327435265]",100.0,"[0.1494752341513839,0.11205664799191938]",100.0,"[-0.04436438637142753,-0.023490604798913118]",4.0,"[-0.15195588080033293,0.11410713776467733]",4.0,"[0.0386133241662258,0.007621014168665632]",100.0,"[0.11317289846421777,-0.11746374432982397]",4.0,"[0.02,0.02]",155.3988,0.0,29.0,29.0,58.0,1.0,,,,,,,
,,,,,,,5d6e3252dfe6d10001dbe508,684428b2c1753ab9bb8d4f81,2025-06-07_13h55.48.251,shape_ratio,2024.1.5,Linux x86_64,60.24096386,684250e4f00cb30b92d1fa88,,,,,,,,,,,155.3992,155.8995,,,156.1492,156.6658,right,0.5068,,,,,,,,,0.45,,,,,,155.8995,156.1492,156.6659,"[0.038886996416753486,-0.1559289138021617]",4.0,"[-0.08280324669368182,0.13467755234453624]",4.0,"[0.07117254152361172,0.1528065809232024]",4.0,"[-0.017535861917712583,0.024739514366911314]",4.0,"[0.15808130644828344,-0.0757706397493075]",4.0,"[-0.12621645242498294,0.12588091552965908]",4.0,"[0.0858030897296249,-0.007501283798566205]",100.0,"[0.10425222012597055,0.09384486125608855]",100.0,"[-0.006295092681491467,-0.14119159555124908]",4.0,"[-0.09528581098754599,0.08100687327841893]",4.0,"[-0.0162259617947344,-0.09848678013627131]",100.0,"[-0.07428367029461895,-0.11850597317420031]",4.0,"[-0.007634945972069578,0.12025634114115982]",4.0,"[0.18072230045239268,0.03689513545702107]",4.0,"[-0.10882504508326432,-0.14100743728878523]",100.0,"[-0.17806551256411066,-0.017106457734285915]",100.0,"[-0.033196507352386974,0.15979433500861873]",4.0,"[0.03175385015229959,-0.10469907733006335]",100.0,"[0.034400882833375314,-0.0594574719661254]",4.0,"[0.12603070816705483,0.01916320360735105]",100.0,"[-0.004684924160193315,0.19088415213932217]",100.0,"[-0.16293242655804294,0.023100302394905795]",100.0,"[-0.07828676078114531,-0.07247335928736227]",4.0,"[0.16571721457632982,-0.006605577647209791]",100.0,"[-0.14855029531459127,-0.04458489799664574]",100.0,"[0.06512709139378069,0.04547095693474047]",100.0,"[-0.11033078485503378,0.038742690490922965]",4.0,"[-0.1547253791248438,0.09131495030929487]",4.0,"[-0.0029141397291822073,-0.024286650622202414]",4.0,"[0.10955772637945344,-0.08923368905801497]",100.0,"[0.15472864244255918,0.08625833514241475]",100.0,"[-0.05762310556569279,0.01961027717864548]",4.0,"[0.02,0.02]",157.7658,0.0,30.0,30.0,143.0,1.0,,,,,,,
,,,,,,,5d6e3252dfe6d10001dbe508,684428b2c1753ab9bb8d4f81,2025-06-07_13h55.48.251,shape_ratio,2024.1.5,Linux x86_64,60.24096386,684250e4f00cb30b92d1fa88,,,,,,,,,,,157.7661,158.2655,,,158.5157,158.9151,left,0.3891,,,,,,,,,0.55,,,,,,158.2655,158.5156,158.9151,"[0.15784190587817423,-0.03840069589371364]",4.0,"[0.1207040616112591,0.14159779249676713]",100.0,"[-0.16476547423317578,-0.02244144597666951]",100.0,"[-0.014470652890617825,-0.16522212713443551]",4.0,"[-0.16460344022271997,-0.08532602348054406]",100.0,"[0.055039205160890906,-0.1459393443028642]",4.0,"[0.08274506734877453,-0.07062822857611487]",4.0,"[-0.1818635032896612,0.05658131486551762]",100.0,"[-0.0017600984636783105,0.17496788082905126]",100.0,"[-0.10374013102002239,0.11407857338141368]",4.0,"[-0.04187450510267345,-0.05744631343508886]",100.0,"[0.09392842711046473,-0.15740428439015586]",100.0,"[0.04291961553762025,0.05816760536570307]",100.0,"[0.15555316302136532,0.08581583969430455]",100.0,"[0.12099497515681253,0.044330854530244185]",100.0,"[0.025788734837692798,-0.11308047397059175]",100.0,"[-0.10654158077081724,-0.1009302764830225]",4.0,"[-0.05893081147439344,0.12762107342864112]",100.0,"[-0.0893828509060932,0.05809924316786106]",4.0,"[0.16688195525451996,0.012346215696734558]",4.0,"[0.18949870664186808,0.04725008089565167]",100.0,"[-0.09285901543666393,-0.04902084129360838]",100.0,"[0.1111421591171252,-0.10246137672840717]",100.0,"[0.09571061271827873,0.1008843686006571]",4.0,"[0.148773825482945,-0.07909990475059948]",100.0,"[-0.02720094436650472,0.10105250400162255]",4.0,"[-0.1563539457979925,0.09158262302382447]",4.0,"[0.056954242927877194,-0.18758083023484534]",4.0,"[-0.03776613217690469,0.022686845504113283]",100.0,"[-0.07614378935151314,-0.18143837943114854]",4.0,"[0.03023899599519011,0.13870596321454948]",4.0,"[-0.10062422516404118,0.008466111645720935]",100.0,"[0.02,0.02]",160.0161,0.0,31.0,31.0,87.0,1.0,,,,,,,
,,,,,,,5d6e3252dfe6d10001dbe508,684428b2c1753ab9bb8d4f81,2025-06-07_13h55.48.251,shape_ratio,2024.1.5,Linux x86_64,60.24096386,684250e4f00cb30b92d1fa88,,,,,,,,,,,160.0164,160.5154,,,160.765,161.5649,right,0.785,,,,,,,,,0.4,,,,,,160.5154,160.765,161.5649,"[-0.03377448275888665,0.14388085048492774]",4.0,"[0.08294702085865441,-0.10792004185325164]",100.0,"[0.018279757618402264,0.10680372270852861]",100.0,"[0.000008571081072089703,0.1841931581437156]",4.0,"[0.031696180232835505,-0.11364331651337006]",100.0,"[0.022412506124927477,-0.042340123646348767]",4.0,"[-0.1184685842136137,-0.0902717316602148]",4.0,"[0.14503808864951007,0.10330235872023637]",4.0,"[-0.09160300116319194,0.057379646541935135]",4.0,"[0.08886977020885334,0.03278981001055386]",100.0,"[0.1397866240610103,0.0003985446687811113]",100.0,"[0.16791469801950015,0.049513218125961746]",100.0,"[-0.0386663239184058,0.040651863665249074]",4.0,"[-0.0929480972844954,0.1153285267550214]",4.0,"[-0.04620859057498336,-0.00030316406464548544]",4.0,"[0.13765199818433793,-0.11731902404849086]",100.0,"[-0.15226532455969294,0.11060020618514185]",4.0,"[-0.16569854500441256,-0.04042422871347757]",100.0,"[0.09425844367323775,0.07697736155594197]",100.0,"[-0.07166416342472101,-0.03428242804363199]",4.0,"[-0.12339632682241032,-0.04692584664476373]",4.0,"[-0.011692289039703636,-0.17678299922156027]",4.0,"[-0.012186389821812653,-0.08106851011149303]",4.0,"[0.13108222425388247,-0.07435237402043328]",4.0,"[-0.15533399980759968,0.004201686334978211]",4.0,"[-0.1637739798944806,0.05690112270582931]",100.0,"[-0.030844809054903003,-0.13612715776807846]",4.0,"[0.0513680261773025,0.13095249632062464]",4.0,"[-0.07151626282984846,0.15818592098463027]",100.0,"[-0.1558762953936423,-0.12233344900183415]",100.0,"[0.03582305904584184,0.03507739635126118]",100.0,"[-0.07295072132938193,-0.11762407659472175]",4.0,"[0.02,0.02]",162.6663,0.0,32.0,32.0,166.0,1.0,,,,,,,
,,,,,,,5d6e3252dfe6d10001dbe508,684428b2c1753ab9bb8d4f81,2025-06-07_13h55.48.251,shape_ratio,2024.1.5,Linux x86_64,60.24096386,684250e4f00cb30b92d1fa88,,,,,,,,,,,162.6666,163.1653,,,163.4155,163.8323,left,0.4076,,,,,,,,,0.55,,,,,,163.1654,163.4154,163.8323,"[0.016811850483603796,0.12942374369293994]",100.0,"[-0.1805905361519222,0.04548915439179535]",100.0,"[-0.08312580870867324,-0.11164458158298518]",100.0,"[0.1616488773067287,-0.11356008122057126]",4.0,"[-0.055512602418266666,0.08200263065333502]",100.0,"[0.07704553010869475,-0.08691597960771433]",4.0,"[0.039317327184492434,-0.17628633262829452]",100.0,"[0.08129488688242209,0.003759037027551465]",100.0,"[0.09077357838080101,-0.16006048140280998]",100.0,"[0.013216247314120359,-0.0006338811920098836]",4.0,"[-0.016163795223014754,0.027293522504349382]",100.0,"[-0.10918691843254609,-0.07974026042131259]",4.0,"[0.1853302327117673,0.06974862123134849]",4.0,"[-0.03329315016330492,-0.10671146622680079]",100.0,"[-0.052718720384984624,-0.16709912346423816]",100.0,"[0.14215618421423531,0.11057043267498921]",100.0,"[0.06399817363104046,0.16680861666075456]",4.0,"[-0.08915290462635002,0.02977730644793237]",4.0,"[-0.1593965325450908,0.08884794658357775]",4.0,"[-0.05337824634583376,-0.02026129752901774]",100.0,"[0.1488490992108074,-0.03470711026317635]",100.0,"[0.13304979754829302,0.006311967993145246]",4.0,"[-0.13271581660328208,-0.021331002283232578]",100.0,"[-0.1478676374035104,-0.12469552536225709]",4.0,"[0.03282727939039736,-0.1342299921929984]",4.0,"[-0.13055142874387393,0.02861613589888932]",100.0,"[-0.07483265826168253,0.1716274509389452]",4.0,"[0.06321415247059828,-0.03790200657399256]",100.0,"[-0.09767908327477581,0.09985398520990932]",4.0,"[-0.17182126439404732,-0.04719197738886815]",100.0,"[0.09963864521287254,0.1197742219255496]",4.0,"[0.12887873514931925,-0.07606445467600373]",100.0,"[0.02,0.02]",164.9319,0.0,33.0,33.0,81.0,1.0,,,,,,,
,,,,,,,5d6e3252dfe6d10001dbe508,684428b2c1753ab9bb8d4f81,2025-06-07_13h55.48.251,shape_ratio,2024.1.5,Linux x86_64,60.24096386,684250e4f00cb30b92d1fa88,,,,,,,,,,,164.9323,165.4318,,,165.6818,166.2324,left,0.5343,,,,,,,,,0.5,,,,,,165.4318,165.6818,166.2324,"[0.05489785897303009,-0.12625854478365126]",4.0,"[0.073957699246359,0.16116998405016583]",100.0,"[0.1422931658882157,0.08408059277411546]",4.0,"[-0.027390124122484687,-0.04015414330277923]",100.0,"[0.0026623963304129453,-0.008719921399687474]",100.0,"[0.08345760797628239,-0.17114168707336722]",4.0,"[0.13296530886571686,0.007736963888552965]",4.0,"[-0.09812172651711772,0.08209840813017662]",4.0,"[0.05583908528607981,-0.0814083461055481]",4.0,"[-0.1338408545718909,0.05985836443499622]",4.0,"[0.12673130085470674,-0.06365512665845231]",4.0,"[-0.00909515354821629,0.044564290664051494]",4.0,"[0.01383767826149056,-0.06652386833959446]",4.0,"[-0.07577162326445328,-0.09222035290080235]",100.0,"[-0.0030261638683511697,-0.19555890883179763]",4.0,"[-0.13483381688172366,0.005527610506667653]",100.0,"[-0.10360078657807056,-0.12641964554205412]",100.0,"[-0.1413020188383754,-0.0878546133428087]",100.0,"[-0.06319622507457694,-0.17135230150271855]",100.0,"[0.08711566601177494,0.0776565262935121]",4.0,"[-0.06805418034617353,-0.008786712477037504]",4.0,"[-0.17600150004928627,0.013026495168575073]",100.0,"[0.12130436552219713,0.1410313115536513]",4.0,"[0.03535597954867815,0.14640582065159916]",100.0,"[-0.04341180349670141,0.07638830595112969]",100.0,"[-0.05295606357429409,0.19060686342920452]",100.0,"[-0.17231703904017998,0.0749879057440603]",100.0,"[0.04186011652122298,0.00527869353289803]",100.0,"[-0.12196744715460536,0.11435747648802794]",100.0,"[-0.039921942219168116,0.1440760626526507]",4.0,"[-0.07561190085435746,0.04571209388475503]",100.0,"[-0.09084490920211401,0.13994163496743176]",4.0,"[0.02,0.02]",167.3318,0.0,34.0,34.0,99.0,1.0,,,,,,,
,,,,,,,5d6e3252dfe6d10001dbe508,684428b2c1753ab9bb8d4f81,2025-06-07_13h55.48.251,shape_ratio,2024.1.5,Linux x86_64,60.24096386,684250e4f00cb30b92d1fa88,,,,,,,,,,,167.332,167.8314,,,168.0819,168.7657,left,0.6772,,,,,,,,,0.5,,,,,,167.8314,168.0819,168.7657,"[-0.0034805790678100056,-0.018352728428743144]",100.0,"[0.17211664168063928,-0.08557296393333211]",4.0,"[-0.16307503677453972,-0.03544507018047044]",4.0,"[-0.012269388770924353,0.04235766692311362]",100.0,"[-0.09744507024343611,-0.15399285444845937]",100.0,"[0.03504896965365842,-0.0037790432157120083]",100.0,"[0.0768871863765954,-0.04901031155210884]",100.0,"[0.10380511931591291,-0.0823389572101871]",4.0,"[-0.05911915375822875,0.014347460244698186]",4.0,"[-0.08912182457069281,-0.10498769636946678]",4.0,"[-0.14285164192030647,0.04945249460901164]",100.0,"[-0.09302497315790147,0.14043088121245856]",4.0,"[0.17041333867182595,0.05275321103198889]",100.0,"[-0.0016168707483656217,-0.089296474055781]",100.0,"[0.06892048748787528,0.17015087772665805]",100.0,"[-0.043749595047934305,0.06746732650539072]",4.0,"[-0.18317717581200776,0.012112652865744342]",4.0,"[0.11947161918686362,-0.13225564753901436]",4.0,"[0.08230187080557796,-0.18011619151669087]",100.0,"[0.046589139963698886,0.035046383978776886]",4.0,"[0.07888083391437374,0.10286169870845022]",4.0,"[-0.13831897567538035,-0.11991651052715772]",4.0,"[-0.007305115683090461,-0.133318323361277]",100.0,"[0.1361674839028755,0.1159781316589425]",100.0,"[-0.056471269899526076,0.12332603707871768]",4.0,"[-0.15375923654733015,0.10757771413855961]",100.0,"[0.04661762726894332,-0.10778998740389142]",100.0,"[0.0189334875701179,0.1556879478210655]",4.0,"[0.028879877546173813,-0.0610219457380907]",100.0,"[-0.045344948703335865,-0.09845349674200986]",4.0,"[0.14326507377687406,-0.0033121041813014796]",4.0,"[-0.07041591297844717,-0.04140463575663602]",100.0,"[0.02,0.02]",169.8655,0.0,35.0,35.0,116.0,1.0,,,,,,,
,,,,,,,5d6e3252dfe6d10001dbe508,684428b2c1753ab9bb8d4f81,2025-06-07_13h55.48.251,shape_ratio,2024.1.5,Linux x86_64,60.24096386,684250e4f00cb30b92d1fa88,,,,,,,,,,,169.8659,170.3653,,,170.6156,170.9492,right,0.3284,,,,,,,,,0.55,,,,,,170.3653,170.6156,170.9493,"[0.09464589307368108,-0.1278464664067738]",100.0,"[0.03596616121122055,0.056526530188547475]",4.0,"[0.08380920407704037,0.13517952692006774]",100.0,"[-0.10197868343605544,-0.13341683015993094]",4.0,"[0.14573384965743236,-0.13267921597815577]",4.0,"[-0.02805513334649775,-0.10219400009546419]",100.0,"[-0.14066844354676067,0.03964179822233579]",4.0,"[-0.042039081965163864,0.032272215813677736]",4.0,"[-0.14182929681733975,0.12313032670468162]",100.0,"[0.047070861350282406,-0.08202252231418838]",100.0,"[-0.06985453360972468,0.06809392553190123]",4.0,"[0.17050460358947805,0.09217128698688327]",100.0,"[0.09838582667752507,-0.08320116115732862]",100.0,"[-0.06431361179916113,-0.043332431272780345]",4.0,"[0.11245522310797927,0.04625678996193047]",4.0,"[-0.021492883517028945,-0.0537256887610433]",100.0,"[0.07117842766778631,-0.04221456531120939]",4.0,"[0.0029346775795942347,-0.00823202776913939]",4.0,"[0.022276652125804305,-0.11444411349773352]",100.0,"[-0.1920335453745903,-0.053562055562545195]",100.0,"[-0.08607243951928724,0.13752285468479108]",100.0,"[-0.11976075313564788,-0.09683613685412981]",4.0,"[0.04769243478540431,0.18895020492995573]",4.0,"[0.18034927185859823,0.037261658234426204]",100.0,"[0.014662491351672106,0.11373516054858425]",100.0,"[0.17401159998054092,-0.028618668778000022]",100.0,"[-0.12228850768838033,-0.034062748791128174]",4.0,"[0.04023243423432408,-0.15991551872909227]",4.0,"[0.11185464355328706,0.09276999275618288]",100.0,"[-0.06957648658711522,-0.10848888276624627]",100.0,"[0.12475624070642716,0.006783130590733577]",100.0,"[-0.029832314030768175,0.1459096525574564]",100.0,"[0.02,0.02]",172.0492,0.0,36.0,36.0,79.0,1.0,,,,,,,
,,,,,,,5d6e3252dfe6d10001dbe508,684428b2c1753ab9bb8d4f81,2025-06-07_13h55.48.251,shape_ratio,2024.1.5,Linux x86_64,60.24096386,684250e4f00cb30b92d1fa88,,,,,,,,,,,172.0496,172.5485,,,172.7989,173.2155,right,0.4127,,,,,,,,,0.5,,,,,,172.5485,172.7988,173.2155,"[0.02359458842740819,0.10054763148351685]",4.0,"[-0.02011353256152911,-0.11375695661775874]",4.0,"[0.005289849289982746,-0.16492295964636455]",100.0,"[-0.05454326650070876,0.04317297949107992]",100.0,"[0.05560184511436949,-0.13791434121831522]",4.0,"[0.012845458557614441,0.14708299821984466]",4.0,"[0.08852001251478037,0.12248774977817527]",4.0,"[0.06327357872676279,-0.09388924748141086]",100.0,"[-0.1813393319767254,0.0800518188479531]",4.0,"[-0.07041345325271985,-0.15099270809511028]",100.0,"[0.11809513611496936,0.0533712876859152]",4.0,"[-0.1108289857589578,-0.09706251884128214]",100.0,"[0.05784245240316441,0.07270664178363102]",100.0,"[0.023609676696428484,-0.07950620410967246]",100.0,"[-0.10322171125881864,-0.04045401019961692]",4.0,"[0.13984386603014207,0.012277131393460825]",4.0,"[-0.04303390860183509,0.16853053380983496]",4.0,"[-0.047844130770394,-0.1922525135331191]",4.0,"[-0.12920056794690993,0.03345361168062081]",100.0,"[0.18349996096315654,0.03929485340364448]",4.0,"[-0.02593583877071864,-0.06621924316808613]",4.0,"[-0.09009397654640744,0.13630856715836293]",100.0,"[0.14705906945779132,-0.07753404465235991]",4.0,"[0.003217146084637253,-0.028751415653018704]",100.0,"[0.10220032349783273,-0.06113320251238029]",100.0,"[-0.08612880192858453,0.004613232713288667]",100.0,"[0.19397422676136605,-0.04047055059642523]",4.0,"[-0.00402501267183892,0.015389802590678304]",4.0,"[0.10532247872376412,-0.16106388119779472]",100.0,"[-0.15533558585943333,-0.09048560755713277]",100.0,"[-0.005305512931926513,0.07130412135355103]",100.0,"[-0.06809703496531867,0.08393919007468705]",100.0,"[0.02,0.02]",174.3161,0.0,37.0,37.0,102.0,1.0,,,,,,,
,,,,,,,5d6e3252dfe6d10001dbe508,684428b2c1753ab9bb8d4f81,2025-06-07_13h55.48.251,shape_ratio,2024.1.5,Linux x86_64,60.24096386,684250e4f00cb30b92d1fa88,,,,,,,,,,,174.3166,174.8152,,,175.0656,175.5161,right,0.4334,,,,,,,,,0.45,,,,,,174.8153,175.0655,175.5161,"[-0.09992611882469515,0.017071685030792684]",4.0,"[-0.06213379410384848,-0.16425072521264286]",4.0,"[0.04230018029279126,-0.11541852234162887]",4.0,"[-0.14828985553177945,-0.013832033437216507]",100.0,"[-0.032627145352328114,0.1482980392707585]",4.0,"[0.10919667561149146,0.15818131983663283]",100.0,"[0.15612477722205204,0.06053646984840941]",100.0,"[-0.06672425502971133,0.042494726000146706]",4.0,"[-0.05171537658285646,0.1050835918282852]",4.0,"[0.06901794366308726,-0.14975456311912524]",100.0,"[0.06814156825639826,-0.00046019879192058714]",100.0,"[0.04789101848308784,-0.03887502338251299]",4.0,"[0.16754722603843347,-0.06114887160161439]",100.0,"[-0.18397372764117492,0.07592744857616397]",4.0,"[-0.12186071662141158,-0.09917977020207767]",4.0,"[0.10962375124635418,0.06736060038111538]",100.0,"[-0.04429455800041375,0.18776594624812437]",4.0,"[0.12764550949702214,-0.07474536721670999]",4.0,"[0.00605324400808967,0.08358576247266118]",100.0,"[-0.043793383265261485,0.004829720095064453]",100.0,"[-0.04386098840833138,-0.06461428148011955]",4.0,"[0.0655065728064487,0.17383935108667933]",4.0,"[0.03960384121922882,0.05492144477040764]",100.0,"[0.12911624421536036,-0.02740222481428684]",4.0,"[-0.07748061193430252,-0.030713827901420302]",100.0,"[-0.14737895712232227,0.10673036225669102]",100.0,"[0.015313002105179727,0.17495154304547944]",4.0,"[0.043533210374867286,-0.18105272734545713]",4.0,"[0.07876412808464574,0.114250338217227]",4.0,"[0.0000224927704332857,0.008879540952704944]",100.0,"[0.19354937337528078,0.012527291787881383]",100.0,"[0.028465661217602314,-0.07558671566967856]",4.0,"[0.02,0.02]",176.6159,0.0,38.0,38.0,135.0,1.0,,,,,,,
,,,,,,,5d6e3252dfe6d10001dbe508,684428b2c1753ab9bb8d4f81,2025-06-07_13h55.48.251,shape_ratio,2024.1.5,Linux x86_64,60.24096386,684250e4f00cb30b92d1fa88,,,,,,,,,,,176.6161,177.1149,,,177.3661,177.7491,left,0.3724,,,,,,,,,0.6,,,,,,177.115,177.3661,177.7491,"[-0.045947213907571345,-0.026752914943356743]",4.0,"[0.1274459278290623,0.058148671121421094]",100.0,"[-0.004864048937674966,0.03732526594957991]",4.0,"[0.0891219154335442,-0.12767722074599344]",100.0,"[-0.12040372418724447,0.0639601113978154]",4.0,"[-0.17837162514942917,-0.050615028052977074]",100.0,"[0.0557602078975531,-0.19179890984038309]",4.0,"[-0.034893458092149575,0.17160362989166508]",100.0,"[0.02445126500900234,0.07578787857821134]",4.0,"[-0.1335838575731577,0.022911002079902692]",4.0,"[0.06666822073364732,0.133232274918465]",100.0,"[0.10940493625171084,-0.16409943293023657]",100.0,"[0.13947172038887737,0.12404356712817834]",100.0,"[-0.10913614069047815,-0.09552755559615259]",4.0,"[0.057552967279457044,-0.026262358913575645]",100.0,"[-0.015195978644493093,-0.1561368525049164]",100.0,"[-0.16628269053778383,-0.08938007469895969]",100.0,"[0.013991094782372582,-0.07923582972521734]",4.0,"[0.0839889211079191,0.05907741185705715]",4.0,"[-0.08777276666730735,0.16471323943156915]",100.0,"[0.194345115226834,-0.020581356210421425]",4.0,"[0.013698069195652609,0.0017749633086765566]",4.0,"[0.027566646243667343,-0.14488490927702252]",4.0,"[0.031114085296274883,0.17607602731911684]",4.0,"[-0.004518092815083674,-0.19905871167546993]",100.0,"[0.13752743444746104,-0.1265823192881988]",100.0,"[0.11156153087998119,-0.0033501705493324263]",100.0,"[-0.16498442275570638,0.059156643900642625]",100.0,"[-0.0010603655001476591,0.12429879371827787]",100.0,"[-0.061508201351315815,-0.1729023842084887]",100.0,"[0.15324452640732947,-0.08804176208125843]",100.0,"[-0.12205421654821862,0.10627031688004301]",100.0,"[0.02,0.02]",178.8488,0.0,39.0,39.0,38.0,1.0,,,,,,,
,,,,,,,5d6e3252dfe6d10001dbe508,684428b2c1753ab9bb8d4f81,2025-06-07_13h55.48.251,shape_ratio,2024.1.5,Linux x86_64,60.24096386,684250e4f00cb30b92d1fa88,,,,,,,,,,,178.8492,179.3487,,,179.599,180.1154,right,0.5112,,,,,,,,,0.1,,,,,,179.3487,179.5989,180.1154,"[-0.14270516932541133,-0.04754553156862302]",4.0,"[-0.10150078163411604,-0.08697992096844848]",4.0,"[-0.13244797797582414,0.028387633025049]",4.0,"[0.10484694375895696,-0.014145652854291755]",4.0,"[-0.10171754498445185,0.06363161537044976]",4.0,"[-0.08769917267353321,0.14670706662720695]",4.0,"[-0.1808762111668182,-0.016397676475839833]",100.0,"[0.07665008625295318,-0.11909172148078012]",4.0,"[-0.0226072121989363,0.13098472192389413]",4.0,"[0.09542059357722404,0.07173154769457926]",4.0,"[-0.007311851422415616,0.010323935921468672]",4.0,"[-0.011182490606457119,-0.07460288772515358]",4.0,"[0.03900271780715608,0.1288320922852836]",4.0,"[-0.13255947310070848,-0.11956390005955116]",4.0,"[-0.09389981501450854,-0.033341681536706094]",4.0,"[-0.17595283649179344,0.08223382140643758]",4.0,"[0.013692323942530473,-0.03467273034650384]",4.0,"[-0.04696680573081984,-0.12129263865495903]",4.0,"[-0.005664163336973092,-0.14659005128121763]",4.0,"[0.047647142725504785,0.04786690037578295]",4.0,"[0.11411656266867753,-0.14161407067623002]",4.0,"[0.11934294160759687,0.14564103640131124]",4.0,"[-0.09081230839086607,-0.12931275485313334]",4.0,"[-0.048005251288851865,0.19040734113400173]",100.0,"[-0.04457152246506531,0.05993656154684444]",4.0,"[-0.17381158071712086,0.027068140273242364]",4.0,"[0.15245893782929082,0.09028160015983054]",4.0,"[0.11519563921116492,-0.07873339542342123]",4.0,"[0.17463810288889506,-0.015942871220237454]",4.0,"[0.12985483840340448,0.024098910839992747]",4.0,"[0.062397698814083406,-0.0534203545539906]",4.0,"[0.030409502402770645,-0.09626991867066843]",100.0,"[0.02,0.02]",181.2152,0.0,40.0,40.0,200.0,1.0,,,,,,,
,,,,,,,5d6e3252dfe6d10001dbe508,684428b2c1753ab9bb8d4f81,2025-06-07_13h55.48.251,shape_ratio,2024.1.5,Linux x86_64,60.24096386,684250e4f00cb30b92d1fa88,,,,,,,,,,,181.2156,181.7147,,,181.9652,182.9324,left,0.9551,,,,,,,,,0.55,,,,,,181.7147,181.9652,182.9324,"[0.1864933572099648,-0.010388699781389243]",100.0,"[0.05720939109289356,0.08194413300843395]",100.0,"[-0.17341522116720795,-0.004048563440236325]",100.0,"[0.06587941629428136,0.1841507571835668]",4.0,"[0.12221822581864764,0.019477329569222622]",4.0,"[0.0847395896617844,-0.016213554555493104]",100.0,"[-0.028311519691814377,0.10060357093615795]",100.0,"[-0.0034953822741159994,-0.10266099207918244]",100.0,"[0.033756041576288864,-0.1735344014636983]",4.0,"[-0.15718802619208888,0.056289393287727946]",4.0,"[-0.08974781203513475,0.1780749866194936]",100.0,"[0.04858713379545204,-0.09141626437088925]",4.0,"[0.13991576555809218,0.06711756248964482]",100.0,"[-0.056565717853568606,-0.041681031174507624]",4.0,"[-0.11979087636981953,0.034425440055920124]",100.0,"[0.018491074528186824,0.043354718129382]",100.0,"[0.12049484876232013,0.1245583953060463]",4.0,"[-0.04841858539109135,-0.15250830859350314]",100.0,"[-0.09377372788479528,-0.058819715477997095]",4.0,"[-0.1075514061445114,-0.007000722640257284]",100.0,"[0.06597888404613149,0.12303338335593465]",4.0,"[-0.15537580374721008,-0.04016783365865284]",100.0,"[0.11599810978092202,-0.10976803136332426]",100.0,"[0.10590512574230718,-0.0646388369454279]",4.0,"[-0.15060553276747432,-0.10130603820448929]",4.0,"[-0.14689142253140064,0.10375026005289475]",100.0,"[-0.08682248491162853,0.07738434845206112]",4.0,"[0.07414055089658732,-0.14788172755342324]",4.0,"[0.020767988321753937,0.1312845037840214]",100.0,"[0.1571610362414374,-0.11235471583969416]",4.0,"[0.007765018342951638,-0.06278403669805642]",100.0,"[-0.0027487837774754138,-0.023632641241498924]",100.0,"[0.02,0.02]",184.032,0.0,41.0,41.0,78.0,1.0,,,,,,,
,,,,,,,5d6e3252dfe6d10001dbe508,684428b2c1753ab9bb8d4f81,2025-06-07_13h55.48.251,shape_ratio,2024.1.5,Linux x86_64,60.24096386,684250e4f00cb30b92d1fa88,,,,,,,,,,,184.0323,184.5326,,,184.7831,185.1328,right,0.3323,,,,,,,,,0.1,,,,,,184.5326,184.7831,185.1328,"[0.12106925880118066,0.15577196424689993]",100.0,"[-0.10792115794158776,0.09799531853438709]",4.0,"[0.05304368130442948,-0.11459951863193227]",4.0,"[-0.05409738433148881,0.06375346800839655]",4.0,"[-0.021091722233163576,0.14840579247805225]",4.0,"[0.015680305921756087,-0.1346614650402956]",4.0,"[0.140611303379287,-0.12442117446872283]",4.0,"[-0.022274162260882024,0.029225360329487547]",4.0,"[0.06621888726044345,-0.1534538023182432]",4.0,"[-0.035250085535894704,0.10292212803059635]",4.0,"[0.1776820308672976,-0.008415547390995058]",4.0,"[0.05393481452154618,0.12642458024917597]",4.0,"[0.10473034505805515,-0.03720871971161865]",4.0,"[-0.1493392285088926,0.02410633871843979]",4.0,"[-0.03785190031132247,-0.16718525743998788]",4.0,"[0.032128678033060604,-0.17509220727044006]",4.0,"[-0.14760030311410383,0.13137905812247674]",4.0,"[-0.0723589238361006,0.13268435926323338]",4.0,"[-0.09625398887418299,-0.0005379018199053473]",4.0,"[0.18885861475192436,-0.05187063048941937]",4.0,"[-0.12458742654332919,-0.14357752092498946]",4.0,"[0.032920648327424994,0.19659144868026363]",4.0,"[-0.09579600062153415,-0.09520661858766365]",100.0,"[0.10421908427306546,0.07936512954949147]",4.0,"[0.0005310141357550953,-0.040299999717897966]",4.0,"[-0.10354880302732307,-0.046206566359042925]",4.0,"[0.04733568629209667,-0.05444694042195908]",4.0,"[0.15638024269751005,0.06605025510565711]",4.0,"[-0.03160974634890953,-0.11267382239424938]",4.0,"[-0.14944605771056474,-0.06435620874886408]",4.0,"[0.01383616015287764,0.01005143273993916]",4.0,"[0.1112638421688426,0.02830575333534727]",100.0,"[0.02,0.02]",186.2315,0.0,42.0,42.0,186.0,1.0,,,,,,,
,,,,,,,5d6e3252dfe6d10001dbe508,684428b2c1753ab9bb8d4f81,2025-06-07_13h55.48.251,shape_ratio,2024.1.5,Linux x86_64,60.24096386,684250e4f00cb30b92d1fa88,,,,,,,,,,,186.2318,186.7315,,,186.9817,187.6495,right,0.6521,,,,,,,,,0.55,,,,,,186.7315,186.9816,187.6495,"[-0.09713698872572822,0.013250023095449542]",4.0,"[-0.09497658903278325,-0.16444052119943367]",4.0,"[-0.10272149849586554,-0.10319785921854993]",4.0,"[-0.04309094032207912,0.12038007576784986]",100.0,"[0.17589789897750616,-0.05959499471144273]",100.0,"[0.037409014974596415,-0.0442276394754627]",4.0,"[0.1565979074174564,-0.010539522204978353]",4.0,"[0.0007596482706575213,0.16728761913738568]",100.0,"[0.11498700412457052,-0.05407940085326776]",100.0,"[-0.07600197550920004,0.0722953723779067]",4.0,"[-0.16591197604905022,0.018596864710802758]",4.0,"[0.19895897980121147,0.004797613756253245]",100.0,"[-0.03685272562098633,-0.11156290626942057]",100.0,"[-0.12535838055881723,0.1497158653568157]",4.0,"[0.028010665790688047,0.04095271953373674]",4.0,"[0.171633346211899,0.0961791452245738]",4.0,"[-0.135488751654918,-0.06381781868544582]",100.0,"[-0.014540311441496603,-0.15147785166895475]",100.0,"[-0.010097405185831989,-0.058681129524500705]",4.0,"[0.09314931539003231,0.15695070983771878]",100.0,"[-0.15748602620417,-0.1077469768993359]",4.0,"[0.11431516935047231,-0.00453934718684264]",100.0,"[-0.1302044241761081,-0.013518717894795446]",100.0,"[-0.044686227803960255,0.01066293024339289]",100.0,"[-0.1726019591442008,0.05914249013777622]",100.0,"[0.024053720248785427,0.11340046284435507]",100.0,"[-0.18988388668995296,-0.03577940884605331]",4.0,"[0.09252787895203289,-0.0977549246362904]",100.0,"[0.033279648228952706,-0.182149228896892]",100.0,"[0.08240326265681104,0.1075583264040207]",100.0,"[0.02572249288196445,-0.13669938110011562]",100.0,"[0.1290167338387087,0.08839137831348817]",4.0,"[0.02,0.02]",188.7488,0.0,43.0,43.0,72.0,1.0,,,,,,,
,,,,,,,5d6e3252dfe6d10001dbe508,684428b2c1753ab9bb8d4f81,2025-06-07_13h55.48.251,shape_ratio,2024.1.5,Linux x86_64,60.24096386,684250e4f00cb30b92d1fa88,,,,,,,,,,,188.7491,189.2492,,,189.499,189.9993,right,0.49,,,,,,,,,0.1,,,,,,189.2492,189.4989,189.9994,"[-0.030995484441499705,-0.07283466288659834]",4.0,"[-0.08052273476882435,0.1595444541073857]",4.0,"[-0.038245958654699944,0.12113712360613278]",4.0,"[-0.01981190981252838,0.1569403824273541]",4.0,"[-0.15640650457913785,0.05630623929301264]",4.0,"[-0.0766068273329237,-0.0014922778751725733]",4.0,"[0.1804171171539179,-0.06254179657918016]",4.0,"[0.18348470727920926,0.05216659730062446]",4.0,"[-0.004367434095461595,0.05540026799880197]",4.0,"[0.11650772040505826,0.06353609974628954]",4.0,"[-0.037140111172812046,-0.1511725121507997]",4.0,"[0.022426036283505695,-0.17347662378905165]",4.0,"[0.0458583656778028,-0.11327810229865354]",4.0,"[-0.09124923046358413,-0.15327307452885666]",4.0,"[0.05530506343865236,-0.017371609577163778]",4.0,"[0.17025492838550332,0.09840462653131421]",4.0,"[0.06603168404559494,0.08914047209139905]",4.0,"[0.10897255083924033,-0.08847752069233147]",100.0,"[-0.10272219115899911,0.09246992279858508]",4.0,"[0.1337436949605568,-0.029141254374619507]",4.0,"[0.05932302661693426,0.04048878583546192]",4.0,"[0.042359091142567015,-0.06304048237760593]",4.0,"[-0.09000148786405979,-0.0784834094275406]",4.0,"[0.10740466076528288,0.13618152711768836]",4.0,"[-0.1199830506403236,0.13902950084337953]",100.0,"[-0.11457354645672026,0.024259665690353746]",100.0,"[-0.18970297898438573,-0.044157173492986986]",4.0,"[0.01097868534160153,0.00786193524093634]",4.0,"[-0.031953264920729356,-0.19163264225355398]",4.0,"[0.08210402936274723,0.17087111434375607]",4.0,"[0.07458056709432688,-0.17953002948612196]",4.0,"[0.15229365532048075,0.01903396710192482]",4.0,"[0.02,0.02]",191.0989,0.0,44.0,44.0,201.0,1.0,,,,,,,
,,,,,,,5d6e3252dfe6d10001dbe508,684428b2c1753ab9bb8d4f81,2025-06-07_13h55.48.251,shape_ratio,2024.1.5,Linux x86_64,60.24096386,684250e4f00cb30b92d1fa88,,,,,,,,,,,191.0992,191.5985,,,191.8485,192.6986,right,0.8446,,,,,,,,,0.45,,,,,,191.5986,191.8484,192.6986,"[-0.09883082741656397,-0.1605721970094192]",4.0,"[0.1068081736512166,-0.07909644363277277]",4.0,"[-0.13594645698937366,0.06850052744902571]",4.0,"[-0.10229960812161139,0.013267090591660443]",4.0,"[-0.1827673760046756,0.06517123910146796]",100.0,"[0.09446807287626278,0.15069441018777988]",4.0,"[-0.015970781729361602,-0.0006392455683216705]",100.0,"[0.0007271204136361179,-0.19889735741267392]",4.0,"[-0.17470017544854385,-0.008054527564312863]",100.0,"[0.1313494295627942,-0.14012853488667684]",4.0,"[-0.03362438121757131,-0.05863688140908966]",100.0,"[0.08473014835008882,-0.12053986476557167]",4.0,"[-0.016970580674239216,0.1470303588384114]",100.0,"[0.18525425860815678,-0.060518470866427226]",4.0,"[0.0261798160212645,0.16864782763870376]",100.0,"[0.004621302805297316,0.09145102274089982]",4.0,"[-0.08441456116128737,-0.11894329053255326]",4.0,"[0.13862027785374514,0.11521153947563675]",100.0,"[-0.1340541864749749,-0.011352386996965506]",100.0,"[-0.04223349496668951,-0.10136836381669918]",4.0,"[-0.013497154348658464,-0.14364953757578675]",100.0,"[0.06766409807540051,0.008953471283132708]",4.0,"[0.07412734368540962,-0.1798325271436781]",4.0,"[0.050968178173535585,0.09202601394017793]",4.0,"[-0.03354613991965741,0.07613291583806449]",100.0,"[0.008091339171336616,-0.09581275791872267]",100.0,"[0.18430095987878015,0.01673313150948457]",100.0,"[0.1481812877228674,-0.0019530496618630736]",4.0,"[0.07617741024031237,-0.036107235882831046]",100.0,"[0.08831501561343277,0.10711137269153913]",4.0,"[-0.11603219907746166,0.14062174636101826]",4.0,"[-0.1496541593096691,0.10912065855854242]",100.0,"[0.02,0.02]",193.7982,0.0,45.0,45.0,136.0,1.0,,,,,,,
,,,,,,,5d6e3252dfe6d10001dbe508,684428b2c1753ab9bb8d4f81,2025-06-07_13h55.48.251,shape_ratio,2024.1.5,Linux x86_64,60.24096386,684250e4f00cb30b92d1fa88,,,,,,,,,,,193.7985,194.2995,,,194.5485,194.8818,left,0.3187,,,,,,,,,0.6,,,,,,194.2995,194.5484,194.8819,"[-0.09188789271206699,-0.16335101605579358]",100.0,"[0.07281298413998538,-0.11606248513927127]",4.0,"[0.008217022440935204,-0.11235520565898678]",100.0,"[-0.04823370385752042,-0.07158024533799706]",100.0,"[0.0003434200616869464,-0.01891871605382596]",100.0,"[0.11564350710691645,-0.1150271105043479]",4.0,"[-0.16852954827677996,-0.10591503191163282]",100.0,"[0.18753768842594162,-0.032708817182595606]",4.0,"[-0.07043575796238243,-0.11038349572702626]",100.0,"[-0.13064906101435916,-0.13252942960806596]",4.0,"[0.04150884914679948,0.14371878073489705]",4.0,"[-0.10130026991293994,0.06559134719088655]",4.0,"[0.0765165100551059,0.09214633983375752]",100.0,"[0.17671193142322697,0.03835825950305252]",100.0,"[0.006790313132638502,-0.1697694117397666]",4.0,"[0.05749225416592317,-0.0010975127956114052]",100.0,"[0.12548632768547732,0.0281583997176267]",4.0,"[-0.011887423572152387,0.18648354226794459]",4.0,"[-0.10142946790534953,0.16184942682872122]",100.0,"[-0.1735038476535922,-0.037462139839853005]",4.0,"[-0.025197190926953536,0.059417288193322794]",4.0,"[-0.050525674973402435,-0.009765917251466555]",100.0,"[0.046908261528949904,-0.07970773629200635]",4.0,"[0.016438503778902377,0.056506390321457524]",100.0,"[-0.11205653630071248,-0.06029671550108309]",100.0,"[0.09331083413654793,-0.07061379733387836]",100.0,"[0.08140484019495686,-0.16144896191348257]",4.0,"[-0.16745579174536504,0.05373226770739948]",100.0,"[-0.11919340303636684,-0.018849930457730646]",100.0,"[-0.11203747228005838,0.022116496746851212]",100.0,"[0.09113875271996405,0.14478498435001264]",100.0,"[-0.18398868815012218,0.013069934999089712]",100.0,"[0.02,0.02]",195.9825,0.0,46.0,46.0,41.0,1.0,,,,,,,
,,,,,,,5d6e3252dfe6d10001dbe508,684428b2c1753ab9bb8d4f81,2025-06-07_13h55.48.251,shape_ratio,2024.1.5,Linux x86_64,60.24096386,684250e4f00cb30b92d1fa88,,,,,,,,,,,195.9829,196.4822,,,196.7323,197.0826,left,0.3374,,,,,,,,,0.9,,,,,,196.4823,196.7323,197.0826,"[0.03314336973658555,0.1600938970815895]",100.0,"[0.08576050735335142,-0.15082052961926087]",100.0,"[0.00003758855912157653,0.06550961337022916]",100.0,"[0.13493488025304526,-0.034133915068344144]",100.0,"[0.027112033841761415,-0.10965820964840071]",100.0,"[-0.14459398390135955,-0.0762291292545552]",100.0,"[0.07323915492034229,0.11176540129092227]",100.0,"[-0.026320954686908257,-0.08520176949559874]",100.0,"[-0.05585684700907106,-0.02616101639131228]",100.0,"[0.08311611402019446,0.18026532784751348]",100.0,"[0.12612420020487863,-0.12896737233041053]",100.0,"[-0.16327092053565803,0.03208495597431798]",100.0,"[-0.0066992885856473105,0.008527335826254426]",100.0,"[-0.07951291053327321,0.029701669674087185]",100.0,"[-0.09375043941155198,-0.0415928981331931]",100.0,"[-0.007787955624301173,0.1510868595950067]",100.0,"[0.0932629951684697,-0.022542098864757498]",4.0,"[-0.10693167990873433,0.12237714669794698]",4.0,"[0.06533449068077453,-0.0818353636153798]",100.0,"[-0.15072514353280814,0.07607380528397077]",100.0,"[0.17162076660181963,0.03956861863841591]",100.0,"[0.1659047480813627,-0.10255065188053603]",100.0,"[-0.13537385654162007,-0.03437268621259433]",4.0,"[0.13298819427449968,0.012235882006134772]",100.0,"[-0.07276793806800191,0.160200282219546]",100.0,"[0.09408472657082054,0.04881241610804689]",100.0,"[0.1299819201744517,0.1258097211062737]",100.0,"[-0.0881248344736892,-0.1198895180410106]",100.0,"[0.02393760761815194,-0.06564253644226305]",100.0,"[0.03896739534133736,-0.15493719927773314]",100.0,"[-0.054115948947257686,0.074200109933686]",100.0,"[-0.18667670527446478,-0.0023406360449226868]",100.0,"[0.02,0.02]",198.1825,0.0,47.0,47.0,14.0,1.0,,,,,,,
,,,,,,,5d6e3252dfe6d10001dbe508,684428b2c1753ab9bb8d4f81,2025-06-07_13h55.48.251,shape_ratio,2024.1.5,Linux x86_64,60.24096386,684250e4f00cb30b92d1fa88,,,,,,,,,,,198.1829,198.6826,,,198.9326,199.3153,left,0.3692,,,,,,,,,0.9,,,,,,198.6826,198.9325,199.3154,"[0.03488226958169006,0.08646724725656182]",100.0,"[-0.18048702994175117,0.0676537648754559]",100.0,"[-0.002579386622670906,-0.06239104242697328]",100.0,"[-0.019240225559050278,-0.025602419712405226]",100.0,"[0.06921772637976999,0.16284663945666944]",4.0,"[0.012312818135325523,0.011837154754915367]",4.0,"[-0.1530659920102343,0.12680179829604432]",100.0,"[-0.0962676203020095,-0.04009218643394177]",100.0,"[0.08173862523004996,-0.05602694039401706]",100.0,"[0.04480990053112126,-0.0160422904880038]",100.0,"[-0.11366219330164123,0.0727511693165564]",100.0,"[0.04701847475087827,-0.11467045993127377]",100.0,"[0.011156289899818483,0.13427825120951337]",100.0,"[-0.05677810666306949,-0.18223563633293932]",100.0,"[-0.053015256516721426,-0.11764771677698714]",100.0,"[-0.1586769702289642,-0.06317854900428073]",100.0,"[0.18178412956079817,0.07829685414446239]",100.0,"[-0.004192286329199829,-0.18838003563774508]",100.0,"[0.1332128564415384,0.12713220781369955]",100.0,"[0.10763926133169922,-0.15982847994154384]",100.0,"[-0.05253870195286561,0.11723748334030018]",100.0,"[-0.09822396285215479,-0.11119986863076307]",100.0,"[-0.04623280174056896,0.1585411570073836]",100.0,"[0.16489476423839425,-0.09574691975764754]",100.0,"[0.11393074684694483,0.0735375037817693]",100.0,"[0.12423386229395779,0.0032245140756964508]",100.0,"[-0.06600738427514684,0.023429627211896058]",100.0,"[-0.024806267226611025,0.050102752778456605]",4.0,"[-0.10584526728782193,0.15500792736051727]",100.0,"[0.0640314064549225,-0.1730515415713546]",100.0,"[-0.14186176731692915,0.010409740780569313]",100.0,"[0.17521721020108472,-0.028622987920823715]",100.0,"[0.02,0.02]",200.4152,0.0,48.0,48.0,9.0,1.0,,,,,,,
,,,,,,,5d6e3252dfe6d10001dbe508,684428b2c1753ab9bb8d4f81,2025-06-07_13h55.48.251,shape_ratio,2024.1.5,Linux x86_64,60.24096386,684250e4f00cb30b92d1fa88,,,,,,,,,,,200.4155,200.9148,,,201.1656,201.5495,right,0.3682,,,,,,,,,0.1,,,,,,200.9148,201.1656,201.5495,"[-0.09459116612644937,0.11944100576932176]",4.0,"[-0.15307255235127887,-0.022591146384928977]",4.0,"[0.1150742038566042,0.09357682240133662]",4.0,"[0.14004228233133498,-0.1041732732619044]",4.0,"[0.042607183470251254,-0.0013880504435567565]",4.0,"[-0.13354890929509267,-0.06458145317285705]",4.0,"[-0.0846406489835828,-0.12651333405112122]",4.0,"[-0.014506824805496577,0.1663693435615305]",4.0,"[0.15881763248390104,-0.03394783170670362]",100.0,"[-0.09919865895820185,0.007297931362089859]",4.0,"[0.1013837088912886,0.14605482336485145]",4.0,"[-0.08169463974295246,0.04808638845945476]",4.0,"[-0.15040562834242652,0.11019432353857771]",100.0,"[0.027002758254621458,0.04415817819977148]",4.0,"[0.06664063019377811,-0.08652819558321342]",4.0,"[0.03454100839319583,0.14690685742791307]",4.0,"[0.1497202473607313,0.02117145544139205]",4.0,"[0.0635810269735632,-0.14921204723237244]",4.0,"[0.10691420939744403,-0.06549755417368794]",4.0,"[-0.000558125109417521,-0.060940190494826164]",4.0,"[0.011022624323004989,-0.10714688935446309]",4.0,"[0.19512296670558096,-0.01191036266549888]",4.0,"[-0.010157280138455573,-0.19208655349121198]",4.0,"[-0.1387298256036724,0.029032746380053452]",4.0,"[-0.09261346639950128,-0.08043197293914724]",4.0,"[-0.046616243817612535,0.13381925457454094]",4.0,"[0.01363665648739213,-0.1495830153914627]",4.0,"[-0.010514687496968286,0.07885670083750142]",4.0,"[-0.06275438399114082,0.18951882367292572]",4.0,"[-0.153012363853847,-0.100327642120222]",100.0,"[0.17321903821367748,0.0755518804458602]",4.0,"[-0.0052184851672680745,0.0031771071267804353]",4.0,"[0.02,0.02]",202.6483,0.0,49.0,49.0,187.0,1.0,,,,,,,
