right,left,explain.started,explain.stopped,key_resp_3.keys,key_resp_3.rt,key_resp_3.duration,participant,session,date,expName,psychopyVersion,OS,frameRate,study_id,explain_2.started,explain_2.stopped,key_resp_4.keys,key_resp_4.rt,key_resp_4.duration,explain_3.started,explain_3.stopped,key_resp_5.keys,key_resp_5.rt,key_resp_5.duration,fixation.started,fixation.stopped,practice.started,practice.stopped,response.started,response.stopped,key_resp.keys,key_resp.rt,key_resp.duration,feedback.started,feedback.stopped,trials_2.thisRepN,trials_2.thisTrialN,trials_2.thisN,trials_2.thisIndex,trials_2.ran,dot_ratio,explain_4.started,explain_4.stopped,key_resp_6.keys,key_resp_6.rt,key_resp_6.duration,dotDisplay.started,dotDisplay.stopped,ITI.started,polygon_1.pos,polygon_1.edges,polygon_2.pos,polygon_2.edges,polygon_3.pos,polygon_3.edges,polygon_4.pos,polygon_4.edges,polygon_5.pos,polygon_5.edges,polygon_6.pos,polygon_6.edges,polygon_7.pos,polygon_7.edges,polygon_8.pos,polygon_8.edges,polygon_9.pos,polygon_9.edges,polygon_10.pos,polygon_10.edges,polygon_11.pos,polygon_11.edges,polygon_12.pos,polygon_12.edges,polygon_13.pos,polygon_13.edges,polygon_14.pos,polygon_14.edges,polygon_15.pos,polygon_15.edges,polygon_16.pos,polygon_16.edges,polygon_17.pos,polygon_17.edges,polygon_18.pos,polygon_18.edges,polygon_19.pos,polygon_19.edges,polygon_20.pos,polygon_20.edges,polygon_21.pos,polygon_21.edges,polygon_22.pos,polygon_22.edges,polygon_23.pos,polygon_23.edges,polygon_24.pos,polygon_24.edges,polygon_25.pos,polygon_25.edges,polygon_26.pos,polygon_26.edges,polygon_27.pos,polygon_27.edges,polygon_28.pos,polygon_28.edges,polygon_29.pos,polygon_29.edges,polygon_30.pos,polygon_30.edges,polygon_31.pos,polygon_31.edges,polygon_32.pos,polygon_32.edges,dot_size,ITI.stopped,trials.thisRepN,trials.thisTrialN,trials.thisN,trials.thisIndex,trials.ran,break_2.started,break_2.stopped,trials_3.thisRepN,trials_3.thisTrialN,trials_3.thisN,trials_3.thisIndex,trials_3.ran
subject chose dot,subject chose diamond,0.0,308.424,space,293.403,,5dd25456cc192027096069bb,6842bbcfd3a92410aca99606,2025-06-06_11h59.02.735,shape_ratio,2024.1.5,Win32,60.09615385,6842b561977af9ba9b0f87ca,,,,,,,,,,,,,,,,,,,,,,,,,,,,,,,,,,,,,,,,,,,,,,,,,,,,,,,,,,,,,,,,,,,,,,,,,,,,,,,,,,,,,,,,,,,,,,,,,,,,,,,,,,,,,,,,,
,,,,,,,5dd25456cc192027096069bb,6842bbcfd3a92410aca99606,2025-06-06_11h59.02.735,shape_ratio,2024.1.5,Win32,60.09615385,6842b561977af9ba9b0f87ca,308.424,339.633,space,1.189,,,,,,,,,,,,,,,,,,,,,,,,,,,,,,,,,,,,,,,,,,,,,,,,,,,,,,,,,,,,,,,,,,,,,,,,,,,,,,,,,,,,,,,,,,,,,,,,,,,,,,,,,,,,,
,,,,,,,5dd25456cc192027096069bb,6842bbcfd3a92410aca99606,2025-06-06_11h59.02.735,shape_ratio,2024.1.5,Win32,60.09615385,6842b561977af9ba9b0f87ca,,,,,,339.633,347.181,space,4.537,,,,,,,,,,,,,,,,,,,,,,,,,,,,,,,,,,,,,,,,,,,,,,,,,,,,,,,,,,,,,,,,,,,,,,,,,,,,,,,,,,,,,,,,,,,,,,,,,,,,,,,,
,,,,,,,5dd25456cc192027096069bb,6842bbcfd3a92410aca99606,2025-06-06_11h59.02.735,shape_ratio,2024.1.5,Win32,60.09615385,6842b561977af9ba9b0f87ca,,,,,,,,,,,347.208,347.696,347.696,347.947,347.948,348.827,left,0.845,,348.827,349.924,0.0,0.0,0.0,1.0,1.0,0.8,,,,,,,,,,,,,,,,,,,,,,,,,,,,,,,,,,,,,,,,,,,,,,,,,,,,,,,,,,,,,,,,,,,,,,,,,,,,,,,,,,,,,,
,,,,,,,5dd25456cc192027096069bb,6842bbcfd3a92410aca99606,2025-06-06_11h59.02.735,shape_ratio,2024.1.5,Win32,60.09615385,6842b561977af9ba9b0f87ca,,,,,,,,,,,349.926,350.423,350.423,350.676,350.676,351.771,left,1.083,,351.771,352.868,0.0,1.0,1.0,0.0,1.0,0.2,,,,,,,,,,,,,,,,,,,,,,,,,,,,,,,,,,,,,,,,,,,,,,,,,,,,,,,,,,,,,,,,,,,,,,,,,,,,,,,,,,,,,,
,,,,,,,5dd25456cc192027096069bb,6842bbcfd3a92410aca99606,2025-06-06_11h59.02.735,shape_ratio,2024.1.5,Win32,60.09615385,6842b561977af9ba9b0f87ca,,,,,,,,,,,,,,,,,,,,,,,,,,,,352.869,356.227,space,0.346,,,,,,,,,,,,,,,,,,,,,,,,,,,,,,,,,,,,,,,,,,,,,,,,,,,,,,,,,,,,,,,,,,,,,,,,,,,,,,,,,,
,,,,,,,5dd25456cc192027096069bb,6842bbcfd3a92410aca99606,2025-06-06_11h59.02.735,shape_ratio,2024.1.5,Win32,60.09615385,6842b561977af9ba9b0f87ca,,,,,,,,,,,356.245,356.743,,,356.993,357.773,right,0.77,,,,,,,,,0.5,,,,,,356.743,356.993,357.774,"[-0.027762649691338365,0.02815132464765749]",4.0,"[-0.15274998829069264,-0.007662602360176043]",100.0,"[0.012106301012926401,-0.10450216471634242]",4.0,"[-0.07035855446801624,0.08161960105557627]",100.0,"[0.14539327324062876,0.014391865621985453]",100.0,"[-0.14759756123486056,-0.06732048205646342]",100.0,"[-0.08443876189392736,0.14041418058704058]",100.0,"[-0.1995790807739397,-0.0061202927967124255]",100.0,"[-0.05231964135345586,-0.043565448993587025]",100.0,"[0.010818795079874877,0.09102145595574014]",4.0,"[0.012740444669238564,0.026226154487025723]",100.0,"[0.07504357753924486,-0.170522644824131]",4.0,"[0.08573611454692592,0.17925775530559712]",4.0,"[-0.0820682798497866,0.013192448910822606]",4.0,"[0.16141603531186968,0.11745056325500486]",4.0,"[0.09585104407130553,0.09418107276136861]",4.0,"[0.1009377160089493,-0.039950619903569205]",100.0,"[0.0432342387895018,0.1323661173841969]",100.0,"[-0.08643896870466544,-0.07185934175115662]",4.0,"[0.110218294176848,0.05063018658325451]",4.0,"[0.015683224404157117,-0.16371216718836556]",100.0,"[0.10770891136473375,0.1411724307803628]",100.0,"[-0.034924990277829526,-0.17163014706537597]",100.0,"[0.1701677037657124,0.06835065983392326]",100.0,"[-0.002739058628004801,-0.06467160769029306]",100.0,"[0.06987071400971032,-0.10557149884730949]",4.0,"[0.17680367406476308,-0.05750735238555406]",4.0,"[0.15233311579150852,-0.10927766426487505]",4.0,"[-0.16409547562985574,0.07691987719724581]",4.0,"[0.07092820307177808,0.03247511596340072]",4.0,"[-0.14174255877261088,0.11055226892144739]",4.0,"[0.10187915022215879,-0.1315545105023805]",100.0,"[0.02,0.02]",358.871,0.0,0.0,0.0,99.0,1.0,,,,,,,
,,,,,,,5dd25456cc192027096069bb,6842bbcfd3a92410aca99606,2025-06-06_11h59.02.735,shape_ratio,2024.1.5,Win32,60.09615385,6842b561977af9ba9b0f87ca,,,,,,,,,,,358.873,359.37,,,359.622,360.367,right,0.733,,,,,,,,,0.4,,,,,,359.37,359.622,360.367,"[-0.13438335326119133,-0.09581904658762617]",4.0,"[0.10997942614304192,-0.04343497430166966]",4.0,"[0.04782804727451081,-0.1126009023179333]",100.0,"[-0.035291935228887614,-0.19568451626155242]",100.0,"[-0.04018594733244774,0.19101646808209716]",100.0,"[-0.03940964227549728,-0.04595324151692136]",100.0,"[-0.12430097202740811,-0.1464999355294903]",4.0,"[-0.05716935033641123,0.018446688196679925]",4.0,"[0.05339837361181891,0.08784635307613924]",4.0,"[-0.016807983337885118,0.10390069268864102]",4.0,"[0.1323281691067274,0.033265130152689726]",4.0,"[-0.004531392119805205,-0.002808777911275586]",4.0,"[0.005963660814811857,-0.1353230494741483]",100.0,"[0.11298662355927792,0.13184318785789528]",4.0,"[-0.15121342720989242,0.0872943413515382]",4.0,"[0.09996266876051817,0.004033517029176932]",4.0,"[-0.15323079524345007,0.02908169328802856]",4.0,"[0.14471284283576455,-0.12956101220254843]",4.0,"[0.03869868233990863,-0.006606186388528064]",100.0,"[0.16693473269007938,0.00987252709254858]",100.0,"[-0.06396674047860534,-0.15180626723323787]",100.0,"[-0.1554120704814293,-0.04596253234404058]",100.0,"[0.042734178166658414,0.13275856402912772]",4.0,"[-0.1003876348302381,0.14415062216182659]",100.0,"[-0.053276015923677075,0.06689801564856866]",4.0,"[-0.10058157714755679,0.05214281312427088]",100.0,"[0.06033468778540933,-0.042552413732887456]",4.0,"[0.09333679184385417,0.07246197692509657]",4.0,"[0.028303574050719777,0.05147961134922398]",4.0,"[-0.04796258313204448,-0.09464269606607612]",4.0,"[0.027722283169808206,-0.19791101285632928]",100.0,"[0.04350360231060363,0.17361919290498004]",100.0,"[0.02,0.02]",361.465,0.0,1.0,1.0,159.0,1.0,,,,,,,
,,,,,,,5dd25456cc192027096069bb,6842bbcfd3a92410aca99606,2025-06-06_11h59.02.735,shape_ratio,2024.1.5,Win32,60.09615385,6842b561977af9ba9b0f87ca,,,,,,,,,,,361.466,361.963,,,362.215,363.211,right,0.985,,,,,,,,,0.55,,,,,,361.963,362.215,363.211,"[0.0778911173899366,0.017812209091675538]",100.0,"[0.14693694562193146,-0.10897911867789581]",4.0,"[-0.1287955694121711,0.027377686664629256]",100.0,"[-0.060144099097568356,-0.12124360954901202]",4.0,"[0.028838421433706362,0.1725445670875799]",100.0,"[-0.05153605453932223,-0.003750763777187996]",4.0,"[-0.16548386906150492,-0.09677900027554853]",100.0,"[0.06782854623900439,-0.184780791776269]",4.0,"[0.1923095026812609,-0.0008348967246901045]",100.0,"[-0.07813243457984109,0.046022716304224075]",100.0,"[0.021525390507107497,-0.11498617912784949]",4.0,"[0.027960845046868868,-0.006139268861939939]",4.0,"[-0.06919561099095853,0.11453454583187625]",100.0,"[-0.01187555498554457,0.06548820817034634]",4.0,"[-0.11637971853417964,-0.11432282379022231]",100.0,"[-0.1785471803808662,0.08970474113349847]",4.0,"[0.15885779100249425,-0.024898326562604087]",100.0,"[-0.021297974102382693,-0.174963804173607]",100.0,"[0.11816054253030439,-0.06495891672170775]",4.0,"[0.09179142618670003,0.0994364506708407]",4.0,"[0.02983915192875688,0.10416574729772828]",100.0,"[0.06159252292037793,-0.13762558345711204]",100.0,"[-0.04609345074693677,-0.06165652199562245]",4.0,"[0.13487944353528525,0.05411746867313209]",4.0,"[-0.09093679701001815,-0.07441996590334907]",100.0,"[0.10883931558970414,0.15651718458701647]",100.0,"[0.05580674848030775,-0.03952569143091077]",100.0,"[-0.08193511258948574,-0.16661697323010874]",100.0,"[-0.19864946105336986,-0.021710305168637374]",4.0,"[-0.17940609642717678,0.042729133308653654]",100.0,"[0.10771987301046385,-0.014908290683331788]",100.0,"[0.11387460314510679,-0.14107911841240428]",4.0,"[0.02,0.02]",364.308,0.0,2.0,2.0,75.0,1.0,,,,,,,
,,,,,,,5dd25456cc192027096069bb,6842bbcfd3a92410aca99606,2025-06-06_11h59.02.735,shape_ratio,2024.1.5,Win32,60.09615385,6842b561977af9ba9b0f87ca,,,,,,,,,,,364.313,364.806,,,365.058,365.689,left,0.618,,,,,,,,,0.55,,,,,,364.808,365.058,365.689,"[-0.17782926333525267,0.0767327771928349]",100.0,"[0.034892543289429555,-0.16147092608129085]",100.0,"[-0.13551785966762722,-0.024931978529238726]",100.0,"[0.05794627192047237,0.1060809274392948]",4.0,"[-0.02457452167930361,0.12769993229591609]",4.0,"[0.12569065556579925,-0.017496778162227188]",100.0,"[-0.08952097458209461,-0.15087975216340263]",4.0,"[-0.1398603491391364,0.05861520745603791]",100.0,"[0.053166313894939976,0.1921187395060194]",100.0,"[-0.07428834096572577,-0.01580886609579348]",4.0,"[0.18950897251429968,-0.058104022613142646]",100.0,"[0.020763631104280655,0.154997019973135]",100.0,"[-0.0008323289184321058,-0.0031906232276214417]",4.0,"[-0.06102839477850911,-0.0873875942340866]",100.0,"[-0.014857462774729019,-0.1705324822591226]",4.0,"[-0.07257207374697124,0.0989664931997344]",100.0,"[0.18207397757518118,0.030126565238033545]",4.0,"[-0.09902566036587372,-0.10405944818573057]",100.0,"[0.05706944518549243,-0.02252882991636717]",100.0,"[-0.016452846943529182,0.051028800157809605]",4.0,"[0.1575535840557866,0.0851853249447267]",4.0,"[-0.17490404491777528,-0.08768995973041882]",4.0,"[-0.13908626338228391,-0.06741673019603033]",4.0,"[0.14240851058095333,-0.13967628988529446]",4.0,"[0.07556918214563074,-0.12352395468265447]",100.0,"[-0.14130716859444456,-0.11641046633155777]",100.0,"[-0.06706628399823092,0.03497199293050106]",100.0,"[0.019573965561988416,0.08540762649815907]",100.0,"[0.11489701522575406,-0.10404471764544809]",100.0,"[0.01567505690058492,-0.06483242493003917]",4.0,"[-0.18307067120386714,-0.034699094893960315]",100.0,"[-0.11157731868339693,0.009748196653768698]",4.0,"[0.02,0.02]",366.785,0.0,3.0,3.0,84.0,1.0,,,,,,,
,,,,,,,5dd25456cc192027096069bb,6842bbcfd3a92410aca99606,2025-06-06_11h59.02.735,shape_ratio,2024.1.5,Win32,60.09615385,6842b561977af9ba9b0f87ca,,,,,,,,,,,366.786,367.285,,,367.535,368.133,right,0.583,,,,,,,,,0.6,,,,,,367.285,367.535,368.133,"[-0.09108467877429745,0.02544301698876072]",4.0,"[0.0913975208472857,-0.12938523938561888]",100.0,"[-0.08038805467857837,-0.0801176205777246]",100.0,"[-0.03469166429910269,-0.18420203604926869]",4.0,"[0.08028134963539281,-0.027861461102811333]",4.0,"[0.03044175205186824,-0.13912833602765015]",4.0,"[-0.023755256737465067,0.013896688426325169]",100.0,"[0.030680439105091526,-0.003967306525050229]",100.0,"[0.10459231030841692,-0.08511797850915699]",100.0,"[-0.020407665718672908,0.18553487020336715]",4.0,"[0.1634278739672888,-0.08436736638045715]",100.0,"[-0.1500135598522916,-0.07350797064535029]",100.0,"[0.035024030536656474,0.06421420509918993]",100.0,"[-0.06403760773915597,-0.021296265617339646]",100.0,"[-0.05571306352578893,0.11970622431089757]",100.0,"[-0.00842651646335573,-0.05074407822727478]",100.0,"[0.14863230138891104,-0.022661637135518258]",100.0,"[0.052869419143288514,0.18830916819369828]",100.0,"[-0.1848189823345494,0.051582696677552796]",100.0,"[0.14773999446604527,0.025767706900606598]",100.0,"[-0.045802432128646514,0.0692033647311884]",4.0,"[0.001142615778218744,0.10660378939425225]",100.0,"[0.11201732858199745,0.161877335876113]",4.0,"[-0.14557979074954036,0.06350011282909589]",4.0,"[-0.11967867296108377,0.11324477818574179]",4.0,"[-0.16884859562474827,0.0007990598925737782]",4.0,"[-0.010078323283545382,-0.11911402999521545]",4.0,"[-0.07249836939682079,-0.1516840659795584]",100.0,"[0.05609509204412517,-0.18670193805688198]",4.0,"[0.09999864149463147,0.03938347932926458]",100.0,"[-0.021436360802655204,0.1415582340808327]",100.0,"[0.18396180134965687,-0.0006833759157547265]",4.0,"[0.02,0.02]",369.23,0.0,4.0,4.0,48.0,1.0,,,,,,,
,,,,,,,5dd25456cc192027096069bb,6842bbcfd3a92410aca99606,2025-06-06_11h59.02.735,shape_ratio,2024.1.5,Win32,60.09615385,6842b561977af9ba9b0f87ca,,,,,,,,,,,369.231,369.729,,,369.98,370.711,left,0.718,,,,,,,,,0.5,,,,,,369.729,369.979,370.711,"[-0.09996158560137157,0.08557553431053551]",100.0,"[-0.11138083003664274,-0.09485814172882759]",100.0,"[0.055091091307160285,-0.08233988573422603]",100.0,"[-0.09325584122040213,0.1692052178424339]",4.0,"[-0.17244933045500543,-0.037360858746519794]",4.0,"[-0.04900639061846782,-0.17801838088430852]",4.0,"[0.015069501342030651,-0.07486703534831725]",4.0,"[-0.009915678751582552,0.19013750077111438]",4.0,"[0.00020059870077343244,0.1419192077222454]",100.0,"[-0.11143623589093529,0.03704378472791536]",100.0,"[0.08513308094956883,0.14713772157590313]",100.0,"[-0.05964259758860835,0.11109156027386316]",4.0,"[0.1283183209188703,0.11704291167111901]",4.0,"[0.17281524410754023,-0.09483086622694062]",4.0,"[-0.16842642480572348,0.033874004064213196]",100.0,"[0.02491354770565426,-0.13786779652423875]",100.0,"[0.02106981486963113,0.006745644634551419]",100.0,"[-0.16554843933785926,0.09316300029295581]",100.0,"[0.040722747181064056,0.16320466671825754]",100.0,"[0.14702058970782853,0.01991080356361084]",100.0,"[-0.10077039779540507,-0.15135666623540875]",4.0,"[-0.050914447004181275,-0.001678556800940019]",4.0,"[0.1107646025152359,-0.14798585733087768]",4.0,"[-0.0052984418347158556,0.07189703829376787]",4.0,"[-0.08007785103503057,-0.0356170136395982]",4.0,"[0.03327949035480556,-0.19240186321125116]",100.0,"[-0.06987897148946524,-0.10504423469206038]",100.0,"[0.19241918832155985,-0.05403803873328004]",100.0,"[0.07391056978750288,0.08333814798944233]",4.0,"[0.06994748676136849,-0.15178492647707792]",100.0,"[-0.009997233751275906,-0.19022607530818214]",4.0,"[0.17370994602795609,0.06284471302136899]",4.0,"[0.02,0.02]",371.808,0.0,5.0,5.0,116.0,1.0,,,,,,,
,,,,,,,5dd25456cc192027096069bb,6842bbcfd3a92410aca99606,2025-06-06_11h59.02.735,shape_ratio,2024.1.5,Win32,60.09615385,6842b561977af9ba9b0f87ca,,,,,,,,,,,371.809,372.306,,,372.556,373.404,right,0.835,,,,,,,,,0.45,,,,,,372.306,372.556,373.404,"[-0.1321527030866545,0.020828256161359485]",100.0,"[0.06745525858594892,0.08913923987774837]",4.0,"[-0.06631124728128464,-0.0906097354857202]",100.0,"[-0.11421590490268627,-0.028162687904371424]",4.0,"[-0.04723671451611207,-0.04029591220137736]",100.0,"[-0.1861061774461784,-0.060998939010009454]",4.0,"[-0.0895426424741669,-0.14399719107259298]",100.0,"[0.11784529044304375,-0.15540611064583948]",4.0,"[-0.0654912116300762,0.11761513959406734]",4.0,"[0.05481799540730714,-0.16757515256048006]",4.0,"[0.06794466323142838,-0.030254080187330362]",4.0,"[0.14307522754811733,-0.012641506872519193]",4.0,"[0.010997165273708117,0.032439860896469254]",4.0,"[-0.010573071673604403,0.10878904365709074]",4.0,"[-0.02932636239910976,-0.10996716542745662]",100.0,"[0.13418505450890844,0.10091083299487572]",100.0,"[-0.036264254259037176,-0.18126931615582015]",4.0,"[0.10853740619434435,-0.07678119438406311]",100.0,"[0.04978827218259267,0.1572169715772037]",100.0,"[-0.13452359657954935,0.08567185478979056]",4.0,"[0.1849390970992834,-0.05994849707565618]",100.0,"[0.12988554109367953,0.14754147522987326]",4.0,"[-0.05500992157419438,0.03657472487942865]",100.0,"[-0.10724489640814885,0.15323109839275828]",100.0,"[-0.0020454915518353,-0.15439570223712468]",4.0,"[0.05148688626009165,0.03914022504345364]",100.0,"[-0.04820251240780797,0.19251859209842176]",100.0,"[0.15864031529793485,0.05019782029891034]",4.0,"[0.10038019990863285,0.03731701592019497]",100.0,"[-0.0034330589744681252,0.15622652513952306]",4.0,"[-0.004778691284972887,-0.02221063467580051]",4.0,"[0.030661637605404666,-0.06338115681681318]",4.0,"[0.02,0.02]",374.502,0.0,6.0,6.0,141.0,1.0,,,,,,,
,,,,,,,5dd25456cc192027096069bb,6842bbcfd3a92410aca99606,2025-06-06_11h59.02.735,shape_ratio,2024.1.5,Win32,60.09615385,6842b561977af9ba9b0f87ca,,,,,,,,,,,374.503,375.001,,,375.25,376.18,left,0.914,,,,,,,,,0.5,,,,,,375.001,375.25,376.18,"[0.06484110397879413,0.18695171843730962]",100.0,"[-0.06466699185325217,0.14398874725300304]",100.0,"[0.15185416877174684,-0.08172119580949369]",100.0,"[-0.15003965411387998,-0.03867024621871779]",100.0,"[0.1560214466704981,0.04109372424458114]",4.0,"[-0.16378345704075442,0.03993995277564714]",100.0,"[-0.0061337250248461655,-0.14326324190854514]",100.0,"[-0.09219962825754292,-0.136279717113591]",4.0,"[0.004181268447975236,-0.04478691414023752]",100.0,"[-0.06193985157896906,0.09792163179840842]",4.0,"[-0.030530786923985816,0.0224001684440637]",4.0,"[-0.07543975206812192,-0.062109006904184756]",100.0,"[-0.04871781455049289,0.1829865892463714]",4.0,"[0.09969151205603448,-0.10863899629549892]",4.0,"[0.19043553819743547,-0.05779175588863452]",100.0,"[0.027520852375160835,0.08244866713556792]",4.0,"[-0.09985638194825054,0.03265062525622292]",4.0,"[0.09506438205018514,-0.1669438071500251]",100.0,"[0.14524236692406395,-0.03189824517108937]",4.0,"[0.03202194681922098,-0.10342867485884832]",4.0,"[-0.12898730301268824,0.10130332113344366]",100.0,"[-0.003065411086850836,-0.18959450577070858]",4.0,"[0.05390468944071679,0.011541424535118151]",4.0,"[0.0778115511327376,-0.06656176225043722]",100.0,"[0.10968477523865328,0.1321766770663795]",100.0,"[0.010250136639342836,0.12700347431332495]",100.0,"[0.13578578124647922,0.091635262554289]",100.0,"[0.05293097635512464,-0.16061009343070876]",4.0,"[-0.174568582837106,0.09596052933067818]",100.0,"[-0.042185868940265034,-0.1234620559735471]",4.0,"[-0.06716852691455881,-0.17574878806960237]",4.0,"[-0.17236630822428858,-0.003970736485994802]",4.0,"[0.02,0.02]",377.278,0.0,7.0,7.0,109.0,1.0,,,,,,,
,,,,,,,5dd25456cc192027096069bb,6842bbcfd3a92410aca99606,2025-06-06_11h59.02.735,shape_ratio,2024.1.5,Win32,60.09615385,6842b561977af9ba9b0f87ca,,,,,,,,,,,377.279,377.777,,,378.027,378.709,right,0.666,,,,,,,,,0.45,,,,,,377.777,378.027,378.709,"[0.10064075434490122,-0.07879238198873405]",4.0,"[-0.13335144118973682,0.1264556539065973]",100.0,"[0.010396925152093079,0.02545450288801422]",100.0,"[0.08039999389532829,0.12865898411363064]",4.0,"[0.03929637472349376,-0.17903720076546079]",4.0,"[0.06362235702390627,0.06379122102630821]",100.0,"[0.01296226082788371,-0.11779355714833069]",100.0,"[-0.13667785742807573,-0.038240681106337625]",100.0,"[0.14538139346929013,0.07370359457436745]",4.0,"[0.11552934285914081,0.026337335542939957]",100.0,"[0.017613625928392274,-0.07095727751335414]",4.0,"[-0.025342370097274882,-0.18390832315867606]",100.0,"[-0.18585958931718108,-0.00691488340275518]",100.0,"[-0.10908950534495035,-0.002657091259025435]",4.0,"[-0.06226864505145899,0.1452019163251775]",100.0,"[0.01077049564721822,0.1744965677864377]",100.0,"[-0.07749154495263673,-0.06591460105050323]",100.0,"[0.028177574006165326,0.11722993627971559]",4.0,"[-0.1730984919311776,0.06826501014430587]",4.0,"[0.09947297819984473,0.09062012812777637]",4.0,"[-0.19265716830928176,-0.048311284630204274]",100.0,"[0.159281745052234,-0.1108404341353111]",100.0,"[0.06335586789385517,-0.12918814546348822]",4.0,"[0.08372061685127626,-0.16861304555047357]",4.0,"[0.18825255134083682,-0.042216089017777986]",4.0,"[0.05902369492882087,-0.059479172097879646]",4.0,"[-0.035671924938836995,-0.02739230047812914]",4.0,"[-0.12327623582539321,-0.09064547344063334]",100.0,"[0.13796016032900565,-0.06370197116952128]",4.0,"[-0.03333224706785656,-0.1297704769868023]",4.0,"[-0.10496595910387715,0.16331652483764653]",4.0,"[-0.03979569939872669,0.1877166761044669]",4.0,"[0.02,0.02]",379.806,0.0,8.0,8.0,145.0,1.0,,,,,,,
,,,,,,,5dd25456cc192027096069bb,6842bbcfd3a92410aca99606,2025-06-06_11h59.02.735,shape_ratio,2024.1.5,Win32,60.09615385,6842b561977af9ba9b0f87ca,,,,,,,,,,,379.806,380.305,,,380.555,381.286,left,0.717,,,,,,,,,0.45,,,,,,380.305,380.554,381.286,"[0.12635251037466558,0.019754059057776597]",100.0,"[-0.09013056405377705,-0.09214319226653102]",100.0,"[0.020996851092177346,0.16593771557727155]",100.0,"[-0.14586115994170448,-0.08841895704454628]",4.0,"[0.06274548210228065,0.144505953329526]",4.0,"[-0.1976916407329679,-0.02670535681312038]",4.0,"[-0.09876975808368176,0.07688885322150474]",4.0,"[-0.12798385765376397,0.11386445769601318]",4.0,"[0.01093215607206663,-0.0086271835318817]",100.0,"[-0.08181871523775384,0.13760203742905233]",4.0,"[0.11824658867037918,0.1585154907097064]",100.0,"[-0.10621481295267804,0.02627470376481411]",4.0,"[0.001181973908196846,0.07879501083625326]",100.0,"[0.1444905283881765,-0.03007413057653081]",4.0,"[-0.03868626218288163,0.1722215530253898]",100.0,"[0.1852942617898197,-0.025732409498161458]",100.0,"[0.19408191638704225,0.019984241013381605]",100.0,"[-0.09144598707385272,-0.1758570555674209]",100.0,"[-0.04292716549968276,0.11078263791644682]",4.0,"[-0.056424868973085435,-0.12180023346550689]",4.0,"[-0.052703361595963664,0.004466349716290417]",100.0,"[-0.03600501883441613,-0.16896371515384234]",4.0,"[0.11961770940568811,-0.09897658254351634]",4.0,"[0.14973150288564369,0.10415394311853368]",4.0,"[-0.11773820033095045,-0.04958806390602767]",4.0,"[0.011218941619834286,-0.0651913274759037]",100.0,"[0.06943365492809364,-0.17969356717928717]",100.0,"[0.15778964569275858,-0.07834933515796631]",4.0,"[0.05995211156519959,0.0376896924945239]",4.0,"[0.07305038014779454,-0.06412291383772009]",100.0,"[-0.13671878181290759,-0.12934400585355973]",4.0,"[0.048890065428164514,-0.10418060967430125]",4.0,"[0.02,0.02]",382.383,0.0,9.0,9.0,139.0,1.0,,,,,,,
,,,,,,,5dd25456cc192027096069bb,6842bbcfd3a92410aca99606,2025-06-06_11h59.02.735,shape_ratio,2024.1.5,Win32,60.09615385,6842b561977af9ba9b0f87ca,,,,,,,,,,,382.383,382.883,,,383.133,383.697,left,0.552,,,,,,,,,0.6,,,,,,382.883,383.133,383.697,"[0.18535213325373434,0.06684769356759569]",4.0,"[-0.10125634829659207,-0.01364910703968209]",100.0,"[-0.1323417638237815,-0.09304765998673158]",4.0,"[0.14693685222698258,-0.10423438421078153]",100.0,"[-0.08236830608984881,-0.09160580235609539]",100.0,"[0.12480694726464543,-0.13897766199226244]",100.0,"[0.056627086417808795,-0.13618434066504395]",100.0,"[0.07026811980947188,0.03274806511187705]",4.0,"[0.08140733460935407,0.13959755349274341]",100.0,"[0.03594416713011651,0.15485176264884812]",100.0,"[0.0017056269629910036,0.10378618141390913]",4.0,"[0.023495637488579062,-0.06558362070015854]",4.0,"[-0.023069114408835852,-0.11257741249458882]",100.0,"[-0.08256091991737799,-0.1548947019230955]",100.0,"[0.15473931072561978,-0.05356112109463584]",100.0,"[-0.1733757580475256,-0.0875982242326604]",4.0,"[0.07687079974086115,-0.07142455070240047]",100.0,"[-0.09853456595667984,0.036924520199901785]",4.0,"[0.1971573630928187,0.013381170931245454]",4.0,"[-0.059963906864505125,0.1866083431600108]",100.0,"[-0.05053841772063084,-0.05387996755343937]",100.0,"[-0.1374750248013626,0.07363896768314904]",100.0,"[-0.013937756597200162,-0.03384497599490426]",100.0,"[-0.019293697908255678,-0.16878009251004006]",4.0,"[0.03982453533441863,-0.016724109440544088]",100.0,"[-0.042366717288130865,0.058763956418794006]",4.0,"[0.05334010480368727,-0.18613103503519215]",100.0,"[-0.01886120012760592,0.011907340556518108]",100.0,"[-0.12458549535587878,-0.14051762643474205]",4.0,"[0.13669613570033662,0.08641497632737705]",4.0,"[-0.18510989902948602,0.0669706636075129]",100.0,"[0.04121623782550575,0.11180364550468562]",4.0,"[0.02,0.02]",384.794,0.0,10.0,10.0,38.0,1.0,,,,,,,
,,,,,,,5dd25456cc192027096069bb,6842bbcfd3a92410aca99606,2025-06-06_11h59.02.735,shape_ratio,2024.1.5,Win32,60.09615385,6842b561977af9ba9b0f87ca,,,,,,,,,,,384.794,385.293,,,385.543,386.191,left,0.635,,,,,,,,,0.4,,,,,,385.293,385.543,386.191,"[-0.16906312927811834,-0.040774128117077466]",4.0,"[-0.019675375704678467,0.04808253758389621]",4.0,"[0.09022574685076701,0.029360722027323278]",100.0,"[-0.12172427583399548,-0.15233846889515376]",100.0,"[0.012136109670655076,-0.03566448470974451]",100.0,"[-0.08340952921309774,-0.047596136147948435]",4.0,"[-0.17362554925156495,-0.00038564138829734175]",4.0,"[-0.11086341879144834,0.09145404776471298]",4.0,"[-0.047855000936551303,-0.09059227742119186]",4.0,"[0.11613422770173078,0.14074921758202993]",4.0,"[-0.03236021642506589,0.13331057948500485]",100.0,"[0.0436066249047385,0.08559635666352275]",4.0,"[-0.05387860963355539,-0.1502651398545657]",4.0,"[-0.1058134842986981,-0.08882995900545175]",100.0,"[0.0031873305868090943,0.15769840960579184]",100.0,"[-0.08557205364944175,0.0073528458073779486]",100.0,"[-0.15909850184496255,0.062214657142204824]",4.0,"[0.04213419680390875,-0.1627478532978013]",4.0,"[-0.1719962888025142,-0.08774254688060198]",4.0,"[0.05723294917602727,-0.011542553731657445]",4.0,"[0.016445063942253212,0.018364353378513238]",4.0,"[0.05930073352925536,0.14747376638183157]",100.0,"[0.10867971888651985,0.06956350577209261]",4.0,"[0.14252300533282666,0.10678730685894033]",4.0,"[0.12541433218184303,-0.07635645960532178]",100.0,"[0.08792711961416257,-0.17541390936114373]",100.0,"[0.09541163435638224,-0.10489825425831169]",4.0,"[0.16562403842790216,-0.013416936137122975]",100.0,"[0.19322211054942426,-0.04266593108330572]",100.0,"[-0.056324956396567434,0.06562904340410994]",4.0,"[0.048951577051349796,0.1879207097217309]",100.0,"[0.1893349755295803,0.03986578803891386]",4.0,"[0.02,0.02]",387.289,0.0,11.0,11.0,164.0,1.0,,,,,,,
,,,,,,,5dd25456cc192027096069bb,6842bbcfd3a92410aca99606,2025-06-06_11h59.02.735,shape_ratio,2024.1.5,Win32,60.09615385,6842b561977af9ba9b0f87ca,,,,,,,,,,,387.29,387.788,,,388.037,388.885,left,0.835,,,,,,,,,0.55,,,,,,387.788,388.037,388.885,"[-0.056260311910778946,0.17407655399482552]",4.0,"[0.006117332716641606,-0.037929926099182075]",100.0,"[-0.02215755305754895,0.14375786398062673]",4.0,"[0.08484682127562646,0.0833843661125547]",4.0,"[0.16967850878625784,-0.04329985540684356]",100.0,"[-0.05355336648634732,-0.10481958870895747]",100.0,"[0.14758215011480602,0.03579385794934315]",100.0,"[0.06103939910036838,-0.016898382714906672]",100.0,"[0.05362414946691121,0.19233373263185713]",100.0,"[-0.15195035780933164,0.025468630381325283]",4.0,"[0.09153266132407196,0.03426183932097321]",4.0,"[-0.15989719843987943,-0.020378395209875715]",4.0,"[-0.13191668366638098,-0.09561908719792057]",100.0,"[-0.03243953161924656,0.09366542305752455]",100.0,"[0.10609054801237329,0.16565356711529733]",4.0,"[-0.0059018362437248,0.025993079948649602]",4.0,"[-0.013098126593044738,0.19386334413540626]",100.0,"[0.1561712033589425,0.11670530879736352]",100.0,"[0.0032773931921654216,-0.0824389174315973]",4.0,"[-0.08643416762210467,0.04641730406221229]",100.0,"[0.12016680165362424,-0.016178417314777566]",100.0,"[0.0474667258913541,0.038435571279411926]",100.0,"[0.034035571431907,-0.19201604215977117]",4.0,"[-0.06821248767428793,0.12935645855045025]",4.0,"[0.020916131659041298,-0.14257511829650976]",100.0,"[0.10738187512559214,-0.12332350537062492]",4.0,"[0.18015644020379032,0.059923293550073725]",100.0,"[0.07318078454932542,-0.09146090806325764]",100.0,"[-0.09952281627662206,-0.055905465612468654]",4.0,"[0.19850057912601088,0.0031072838121259105]",4.0,"[-0.03394770938828283,-0.004920056739851888]",100.0,"[-0.11728223685418072,0.11072056708216219]",100.0,"[0.02,0.02]",389.982,0.0,12.0,12.0,60.0,1.0,,,,,,,
,,,,,,,5dd25456cc192027096069bb,6842bbcfd3a92410aca99606,2025-06-06_11h59.02.735,shape_ratio,2024.1.5,Win32,60.09615385,6842b561977af9ba9b0f87ca,,,,,,,,,,,389.982,390.481,,,390.731,391.163,right,0.415,,,,,,,,,0.9,,,,,,390.482,390.731,391.163,"[-0.07438751150278969,0.11319811858111019]",100.0,"[0.12472364761314751,-0.13891433911734943]",100.0,"[-0.11292993271853849,0.02182931929565872]",100.0,"[-0.04178330095543612,0.08898326685000857]",100.0,"[-0.1540694616331147,0.02300037252782924]",100.0,"[0.12156196456837848,-0.07599657003755897]",100.0,"[0.05238885171928376,0.018394644827742508]",100.0,"[0.052543335211237,0.11131536416995245]",4.0,"[0.1926700406344233,-0.0410189432901327]",100.0,"[0.10123376160801482,0.12877171250354705]",100.0,"[-0.04824091549724158,-0.17545969589473434]",100.0,"[-0.08685447651048302,0.05818231860094208]",100.0,"[-0.04394939646906763,-0.11874035890115361]",100.0,"[0.04468782535427889,-0.07117570701209021]",100.0,"[-0.07475125836418008,0.17375068560244766]",100.0,"[-0.09299086133849602,-0.16620989590683968]",100.0,"[-0.002956885210058491,0.15938639835177315]",4.0,"[-0.04731896652232264,-0.042457077163822014]",100.0,"[0.03927352038145925,0.15542007595785656]",100.0,"[0.17555332758950898,0.03920363399561115]",100.0,"[-0.1386857882018351,-0.08138833367432853]",4.0,"[0.016795957875599208,-0.13575470071698953]",100.0,"[0.08550273473638055,-0.004193120860917562]",100.0,"[-0.18583228020305223,-0.05251109040507436]",100.0,"[0.14087774533082975,-0.03316938325760501]",100.0,"[0.06292591133591519,0.063281788430896]",100.0,"[-0.038515563056551634,0.01782687240011747]",100.0,"[-0.16432594041753731,0.11122141749623864]",100.0,"[0.09324486370076371,-0.16882595306888076]",100.0,"[0.00854528899755281,-0.1851293098947973]",100.0,"[0.06521680042005638,-0.13121712683146022]",100.0,"[-0.0007616553956121952,0.03761110392227889]",100.0,"[0.02,0.02]",392.26,0.0,13.0,13.0,22.0,1.0,,,,,,,
,,,,,,,5dd25456cc192027096069bb,6842bbcfd3a92410aca99606,2025-06-06_11h59.02.735,shape_ratio,2024.1.5,Win32,60.09615385,6842b561977af9ba9b0f87ca,,,,,,,,,,,392.261,392.76,,,393.009,393.458,right,0.434,,,,,,,,,0.9,,,,,,392.76,393.009,393.458,"[-0.08862311499206227,-0.14698328753546283]",100.0,"[0.12102754801959051,-0.10647805562577849]",100.0,"[0.1809536501665928,-0.0472120110279058]",100.0,"[0.02440880647420483,-0.08580870539817147]",100.0,"[-0.018584506677009824,0.18677768694816432]",100.0,"[-0.13283201156469457,-0.10828480850228067]",100.0,"[-0.1130609192923469,0.03882077320747316]",100.0,"[0.10216528105691194,0.13641055216758155]",100.0,"[-0.15729380521793737,-0.06365586727363842]",4.0,"[-0.0001624573454613668,0.05312532688957292]",100.0,"[0.10523411431284214,-0.055165460967549255]",100.0,"[-0.1032689042751574,0.1664717203585553]",100.0,"[0.07738091402120836,0.08790886843335485]",4.0,"[-0.05035712471344411,0.09704800683251828]",100.0,"[-0.18216794707623876,0.05788252875135992]",100.0,"[0.1726738088045812,0.021769955616249836]",100.0,"[0.16995523840920915,0.0895842875300449]",100.0,"[0.06797399943331389,-0.09469052791935156]",100.0,"[0.04644320028287909,0.1675648590378886]",100.0,"[0.03519834938314178,-0.04555870977982175]",100.0,"[-0.01692872014000822,-0.14328016011973635]",100.0,"[-0.19260164178390426,0.0190824965479574]",100.0,"[-0.1428604648750661,0.11806505375941732]",100.0,"[-0.07192689635635208,-0.056022239385631126]",100.0,"[-0.08780233863358526,0.12146242768219183]",4.0,"[-0.011595435236424353,-0.02749435988200584]",100.0,"[-0.06126280870517929,0.049393026587031166]",100.0,"[0.08020334280793663,-0.1624707621006777]",100.0,"[-0.01729985921041806,-0.07759281385525797]",100.0,"[0.11228377190639928,0.06162742318603493]",100.0,"[-0.16940776249869866,-0.018327190719765022]",100.0,"[-0.07568104452773824,0.011760726273843593]",100.0,"[0.02,0.02]",394.568,0.0,14.0,14.0,0.0,1.0,,,,,,,
,,,,,,,5dd25456cc192027096069bb,6842bbcfd3a92410aca99606,2025-06-06_11h59.02.735,shape_ratio,2024.1.5,Win32,60.09615385,6842b561977af9ba9b0f87ca,,,,,,,,,,,394.573,395.071,,,395.322,396.219,left,0.883,,,,,,,,,0.6,,,,,,395.072,395.322,396.219,"[-0.12632016421155648,0.06429353399589029]",100.0,"[-0.05365809756321455,0.18866837204553666]",4.0,"[-0.04923932567743968,-0.11264836573999452]",100.0,"[0.11984084283964744,0.06203392628173878]",100.0,"[0.016966851989272388,-0.0016539856824819145]",100.0,"[-0.09198242780853981,-0.13554130357770777]",4.0,"[-0.16140644574002946,-0.09869668040713181]",100.0,"[-0.03784649377128185,-0.15796530704341316]",4.0,"[-0.004628182008151232,0.13135753082196436]",4.0,"[0.04423430146331933,-0.1726416371222745]",100.0,"[0.143908864259721,-0.10718765546006193]",100.0,"[0.11180971674236706,0.009217044848548184]",4.0,"[-0.07909532190741266,0.07329039376657041]",100.0,"[-0.11011911576171322,-0.06261167961353498]",4.0,"[-0.06392338124253415,-0.05438727160181242]",100.0,"[0.01404404554189923,-0.10871769724781556]",100.0,"[-0.044351381841072145,0.09920467120158426]",100.0,"[0.15259570847173853,0.014376475291396603]",100.0,"[-0.18460019357867724,-0.02506955520658526]",100.0,"[0.17471198386972045,-0.035134969389134206]",100.0,"[0.06967992565407322,0.14007756913222127]",4.0,"[-0.029180262795672523,0.02658441302011434]",100.0,"[0.10222874979003223,-0.12450247247858352]",4.0,"[0.03199499278107293,0.04946533601660136]",4.0,"[0.1463064630912128,0.10245591964002401]",100.0,"[0.03653781185213683,0.1720508536227915]",100.0,"[0.08674388027709289,0.08487413995241425]",4.0,"[-0.08251498472392318,0.13957987070831357]",100.0,"[0.18037650761131463,0.04930344723674622]",4.0,"[-0.14807346496045556,0.015617250958198957]",4.0,"[0.04423146327673593,-0.04551691863361233]",4.0,"[0.059426175792404105,-0.12299812486545883]",100.0,"[0.02,0.02]",397.316,0.0,15.0,15.0,45.0,1.0,,,,,,,
,,,,,,,5dd25456cc192027096069bb,6842bbcfd3a92410aca99606,2025-06-06_11h59.02.735,shape_ratio,2024.1.5,Win32,60.09615385,6842b561977af9ba9b0f87ca,,,,,,,,,,,397.317,397.815,,,398.064,398.779,right,0.7,,,,,,,,,0.9,,,,,,397.815,398.064,398.779,"[0.1026833336440622,-0.09177205130281325]",100.0,"[0.18616780889310638,-0.020501373500193865]",100.0,"[0.029951173417238297,0.0700768885446243]",100.0,"[-0.03965213866171165,0.036087729069460076]",100.0,"[0.16085506928019289,0.03919711017417327]",100.0,"[0.07773875715300546,0.10301103142640519]",100.0,"[0.12945595021939493,0.1172294766466376]",100.0,"[-0.0642433060925892,-0.1471397999305727]",100.0,"[0.05341470329514279,-0.18619039224123304]",100.0,"[-0.12792002140403524,-0.03838623407631053]",100.0,"[-0.08406269427681659,0.09971562133247149]",100.0,"[-0.10853346579692644,0.023586252778550667]",100.0,"[-0.1370835669288446,0.05832407626184112]",100.0,"[-0.005399164484204754,0.1598592881287223]",100.0,"[-0.1283663256441005,-0.07891835119255033]",100.0,"[0.1346512738604618,-0.0372847686613224]",4.0,"[0.11684378619200701,0.1578936250255623]",100.0,"[0.005296973172925517,-0.1841445069412533]",100.0,"[-0.1616294272936577,0.11174080442467393]",100.0,"[0.03895154013534135,-0.03109095344508135]",100.0,"[-0.09851405355708012,0.15097587226769285]",100.0,"[-0.1728106714341019,-0.04374345067774724]",100.0,"[0.07776658653672616,-0.003892359312524233]",100.0,"[0.005751796656275011,0.1099899519555995]",100.0,"[0.11580886345922432,0.038603870890661834]",100.0,"[-0.07812800509578328,-0.058677458184496586]",100.0,"[0.028390772300891966,0.026046712884884422]",4.0,"[-0.03646015349233014,-0.10633210622590888]",100.0,"[-0.18952491714422068,0.04908181206247297]",100.0,"[-0.11671949460016498,-0.13319928196626935]",4.0,"[0.1767561701727615,-0.07564837633592623]",100.0,"[-0.0350725652576868,0.18928755061781088]",100.0,"[0.02,0.02]",399.876,0.0,16.0,16.0,8.0,1.0,,,,,,,
,,,,,,,5dd25456cc192027096069bb,6842bbcfd3a92410aca99606,2025-06-06_11h59.02.735,shape_ratio,2024.1.5,Win32,60.09615385,6842b561977af9ba9b0f87ca,,,,,,,,,,,399.876,400.375,,,400.625,401.506,left,0.865,,,,,,,,,0.45,,,,,,400.376,400.625,401.506,"[0.04888665970312795,-0.105806590231803]",4.0,"[0.11933527603973498,0.10899673929974073]",4.0,"[0.12370412700906416,-0.09255288213323386]",4.0,"[-0.010631928051956712,0.09997967243562206]",4.0,"[0.09319752082735462,0.0423007516348211]",4.0,"[-0.1554858512989747,-0.033052886534673094]",4.0,"[-0.1114961377719689,-0.012376137305274022]",4.0,"[-0.0644209873712532,0.058466282511068564]",4.0,"[-0.14204732073644868,0.02917754814156396]",4.0,"[0.013158134476524697,0.012064536326661005]",4.0,"[-0.0296683463465315,-0.0518343840217332]",4.0,"[0.16875919842753426,0.07218587848795002]",100.0,"[-0.07041593610586129,-0.11964238480698736]",100.0,"[0.1688341863318816,-0.07454829546891559]",100.0,"[0.15090533561502834,-0.019893474152163665]",100.0,"[0.09248100899633845,0.17037406434581773]",100.0,"[-0.061198192746968444,-0.025040741738976267]",4.0,"[-0.03543252861680143,-0.15143083953919403]",4.0,"[0.020350646568688676,-0.14452377398302896]",100.0,"[0.09848748079931868,-0.02228680595771999]",4.0,"[-0.08453251261745146,0.13989778756507548]",4.0,"[-0.05036348912599647,0.17815154623858326]",4.0,"[0.1454826801813477,0.03224610490463658]",100.0,"[-0.17981633564150667,0.08720267078536988]",100.0,"[0.09782333403570245,-0.13616484202052404]",100.0,"[0.04319291451691129,0.19395736497021873]",100.0,"[-0.029578616348433392,-0.1936426242685714]",100.0,"[0.014602924504124364,0.1453402973309842]",100.0,"[0.06052085387114804,0.10749274340000121]",100.0,"[-0.12219287792280116,-0.07714212631653485]",4.0,"[0.05504961641529561,0.06421561729702793]",100.0,"[-0.1884037004521706,0.009939835511230302]",4.0,"[0.02,0.02]",402.603,0.0,17.0,17.0,121.0,1.0,,,,,,,
,,,,,,,5dd25456cc192027096069bb,6842bbcfd3a92410aca99606,2025-06-06_11h59.02.735,shape_ratio,2024.1.5,Win32,60.09615385,6842b561977af9ba9b0f87ca,,,,,,,,,,,402.604,403.102,,,403.352,403.9,left,0.536,,,,,,,,,0.6,,,,,,403.102,403.352,403.901,"[0.1251332026308625,0.12989991950126048]",100.0,"[0.16602213939072766,0.0064695740263668155]",4.0,"[-0.1892274435642982,-0.05220121062901973]",4.0,"[0.017718527400880476,-0.09859942506360217]",4.0,"[-0.07370429176346467,-0.03724913266984053]",100.0,"[0.1284446343426356,-0.056173687789376245]",100.0,"[0.07433759479385861,-0.05848481795714691]",100.0,"[0.16376990619421172,0.10832942679232758]",4.0,"[-0.003539854363374948,-0.05674112213077385]",4.0,"[-0.053366635244505474,0.11498144411588494]",4.0,"[-0.14733352486474963,0.10521198871771852]",100.0,"[0.043924599598278234,0.048184541574479565]",4.0,"[0.11144152563560378,0.07179852670975687]",100.0,"[0.01715947489307767,-0.1988087710917573]",100.0,"[0.05929950431055102,-0.12873221102346047]",4.0,"[0.06175293111788247,-0.18224976230384138]",100.0,"[0.004691742950374394,-0.010519634234593069]",100.0,"[-0.12150501743426179,-0.13181610214902462]",4.0,"[-0.0801919394433046,-0.15297319762737988]",4.0,"[-0.14939236860360827,-0.04655781739817022]",100.0,"[-0.06875203161831847,0.15797282682132133]",4.0,"[-0.18246114214478346,0.011627079370235379]",4.0,"[0.15572381800120355,0.04891163669158998]",100.0,"[0.11921005629452874,-0.009913444114078997]",100.0,"[-0.104618950529011,0.04987896176314105]",100.0,"[0.05075000266741028,0.10546395438993529]",100.0,"[0.018975894948235445,0.1802136593355086]",100.0,"[0.1043986840908911,-0.1331896601918489]",100.0,"[-0.019879754281315738,0.13868661496014656]",100.0,"[-0.19046038841050678,0.05316675833799161]",4.0,"[-0.021549031119759532,0.036793140197311086]",100.0,"[0.0032822184953891368,0.07242425632215253]",100.0,"[0.02,0.02]",404.998,0.0,18.0,18.0,47.0,1.0,,,,,,,
,,,,,,,5dd25456cc192027096069bb,6842bbcfd3a92410aca99606,2025-06-06_11h59.02.735,shape_ratio,2024.1.5,Win32,60.09615385,6842b561977af9ba9b0f87ca,,,,,,,,,,,404.999,405.496,,,405.747,406.411,left,0.652,,,,,,,,,0.9,,,,,,405.497,405.747,406.411,"[0.09768270091894833,-0.10543343655923411]",100.0,"[-0.09074257840902518,-0.1346959287595321]",100.0,"[0.01748787386914052,-0.15045139744877278]",100.0,"[-0.04756957957205794,-0.15949553970213282]",100.0,"[-0.15875426630277475,-0.02859964327993976]",100.0,"[0.1767986327985678,0.05839196809995493]",100.0,"[0.019921761267389253,0.02630746191332656]",100.0,"[-0.12469160681554652,0.01883802637879168]",4.0,"[-0.0036918018996586594,-0.1965400598537723]",100.0,"[0.07817730513654188,-0.15532052560721382]",100.0,"[-0.1579763693713271,0.1134898985145482]",100.0,"[-0.135928809735271,0.0688542133013936]",100.0,"[-0.19320487317927354,0.03750938058026857]",100.0,"[-0.060547998068877174,0.02336967420266225]",100.0,"[0.096934778065002,-0.04594100221182129]",100.0,"[-0.009420845972929765,-0.040911647708189156]",100.0,"[-0.1688022463403903,-0.09225690930981313]",4.0,"[0.02354032107656394,0.19319137494809108]",100.0,"[-0.07671297600237292,0.1821431727654214]",100.0,"[0.07831051245567049,-0.00568936593852008]",100.0,"[-0.09826805933308401,0.10358158752968706]",100.0,"[-0.0010544498989524225,-0.09701280598480025]",100.0,"[0.19651340248998192,-0.020778025518357675]",100.0,"[-0.011717051361258243,0.14770819368013785]",100.0,"[0.023341196364034877,0.11019259538316405]",100.0,"[0.15804076453856797,-0.10496931541839884]",100.0,"[-0.030598372717429066,0.08566118193218437]",100.0,"[0.06425878123911517,0.07304418606678499]",4.0,"[0.14047285829721606,0.12098527931706964]",100.0,"[-0.023318407642522118,0.04582765473680836]",100.0,"[0.08972183308307922,0.16910439148290524]",100.0,"[0.12240548349852674,-0.0004916206523184232]",100.0,"[0.02,0.02]",407.509,0.0,19.0,19.0,19.0,1.0,,,,,,,
,,,,,,,5dd25456cc192027096069bb,6842bbcfd3a92410aca99606,2025-06-06_11h59.02.735,shape_ratio,2024.1.5,Win32,60.09615385,6842b561977af9ba9b0f87ca,,,,,,,,,,,407.51,408.008,,,408.258,408.856,right,0.584,,,,,,,,,0.9,,,,,,408.008,408.258,408.856,"[-0.17188466068434363,-0.09053320638700968]",100.0,"[0.07201430171960527,0.15045402000390384]",4.0,"[0.08901614899696504,-0.03673118568900969]",100.0,"[0.0344501990742631,-0.023126814890383682]",100.0,"[0.021684686264934822,0.07036774018129745]",100.0,"[-0.07746171456130714,0.07597970219551912]",100.0,"[0.17699746574386244,0.03052800873827762]",100.0,"[-0.17083976593036673,-0.022901700150110182]",4.0,"[0.09825968197812386,0.10147607901197467]",4.0,"[0.05377159489391942,-0.1335728007189387]",100.0,"[-0.04013079900649968,0.18478845962961535]",100.0,"[0.1476618652546996,0.07371045060419053]",100.0,"[0.026765461534894612,-0.08144499176348947]",100.0,"[-0.08981518143035679,0.018732739608611302]",100.0,"[-0.02132247078688915,0.11904718764628608]",100.0,"[0.09060574506351136,0.05513585773335058]",100.0,"[-0.1537677768682988,0.09234275543145698]",100.0,"[-0.06337985005306009,-0.1839271377089757]",100.0,"[0.11609680073931297,0.13856081501853976]",100.0,"[-0.03904106191017864,-0.02550520334339141]",100.0,"[-0.05201212945895744,-0.12978318153236068]",100.0,"[0.007720472440369476,0.15600772961753961]",100.0,"[0.10885601617919789,-0.08851049074686533]",100.0,"[-0.03272802535255485,0.051878927647471394]",100.0,"[0.06497197363028648,-0.18789486081640444]",100.0,"[-0.01812982186063749,-0.1569693131530558]",100.0,"[0.04032642851700326,0.12281345125731608]",100.0,"[-0.09659844048208503,-0.07142287190090246]",100.0,"[-0.026579348286213205,-0.08959100248831944]",100.0,"[0.1454753056802124,-0.04422727673779544]",100.0,"[-0.18293686434304796,0.02661818479042957]",100.0,"[0.13003294937385432,0.007101490878228167]",100.0,"[0.02,0.02]",409.953,0.0,20.0,20.0,3.0,1.0,,,,,,,
,,,,,,,5dd25456cc192027096069bb,6842bbcfd3a92410aca99606,2025-06-06_11h59.02.735,shape_ratio,2024.1.5,Win32,60.09615385,6842b561977af9ba9b0f87ca,,,,,,,,,,,409.954,410.452,,,410.703,411.266,left,0.549,,,,,,,,,0.1,,,,,,410.452,410.703,411.267,"[-0.004766316881738776,-0.04923401312181832]",4.0,"[0.025522888762281946,0.1811698304224723]",100.0,"[0.07114647457099106,-0.0898861321446116]",4.0,"[0.17089150125210673,-0.0468686313446771]",4.0,"[-0.07964766474769203,-0.04945990704976601]",100.0,"[0.09381113435264496,-0.013907577264475713]",100.0,"[0.1671279837693558,0.05028475303154703]",4.0,"[0.08427880532200431,0.024943613136024848]",4.0,"[-0.19311571233140679,-0.0006415252123345048]",4.0,"[-0.026737587971601657,0.028466651635658022]",4.0,"[0.029452378365783908,0.08658701896104411]",4.0,"[-0.00991753234784864,-0.1707812003080555]",4.0,"[0.10175541585854557,0.06847098851113086]",4.0,"[-0.08739163530167077,0.05286142262671582]",4.0,"[-0.09205196377232322,-0.010296089925494873]",4.0,"[0.037199706077593146,0.036867725083436734]",4.0,"[-0.06685028280121395,-0.1713977529570487]",4.0,"[0.12840070538166526,-0.11359742463667524]",4.0,"[0.09764434242462301,0.16528294865154555]",4.0,"[-0.04385930698870074,0.11669152115587712]",4.0,"[0.14251367672152818,-0.01489814229783815]",4.0,"[0.06428188587173587,0.12331525742795746]",4.0,"[-0.11287716284885323,-0.14440391169011696]",4.0,"[0.13283155513231665,0.028969996843693214]",4.0,"[0.00046914998468926316,0.12384354147578522]",4.0,"[-0.11281448471661273,0.16118441385554283]",4.0,"[-0.1404661950468516,-0.02218852385361311]",4.0,"[-0.10253765601274625,0.09412711621007283]",4.0,"[-0.14716092520554128,0.05335483047719998]",4.0,"[0.1253831136609313,0.11975691532908275]",4.0,"[-0.05772245651636363,0.16079865777972654]",4.0,"[-0.03270513855593134,-0.1362704283609296]",4.0,"[0.02,0.02]",412.364,0.0,21.0,21.0,201.0,1.0,,,,,,,
,,,,,,,5dd25456cc192027096069bb,6842bbcfd3a92410aca99606,2025-06-06_11h59.02.735,shape_ratio,2024.1.5,Win32,60.09615385,6842b561977af9ba9b0f87ca,,,,,,,,,,,412.365,412.863,,,413.112,414.127,left,1.0,,,,,,,,,0.9,,,,,,412.863,413.112,414.127,"[0.03680658339373369,0.01539913933408256]",100.0,"[0.1604259470291604,-0.1091391181712157]",4.0,"[-0.09090480357065624,0.08246746671045017]",100.0,"[0.08941922772675773,0.013910780857843419]",100.0,"[0.04963982152695041,-0.12255958599499119]",100.0,"[0.15378595350521973,0.045970728696915805]",4.0,"[-0.007731490206114335,0.006414865239073764]",100.0,"[-0.18244020023192573,0.012303810827949685]",100.0,"[-0.10889752111354607,-0.032750020521723794]",100.0,"[0.010440481744564656,-0.037661884641222824]",100.0,"[0.09091900638475202,0.1410218271770559]",100.0,"[0.07164504086804928,-0.16402218798523102]",100.0,"[-0.03971383992156419,-0.06918008945228137]",4.0,"[0.19326096811583696,0.007208020156290437]",100.0,"[-0.14401880444468498,0.06777639190843361]",100.0,"[-0.14716673387221305,-0.09146554970331006]",100.0,"[-0.07399677644948069,0.14701330004559793]",100.0,"[0.12804110695002127,0.12416530204714002]",100.0,"[0.003976901080820877,-0.15877358546358947]",100.0,"[0.0894385597033032,-0.050173954723549505]",100.0,"[0.042951785695649905,0.10038408535001661]",100.0,"[-0.03869013074348162,0.1919306302157074]",100.0,"[-0.04104289064296394,-0.15865288576394673]",100.0,"[-0.15634533014689003,-0.034709126516069354]",100.0,"[0.17497833815736366,0.0834282410255779]",100.0,"[-0.12162985506865133,-0.15099888385035812]",100.0,"[-0.10517383837206665,-0.10835019547185666]",100.0,"[-0.08076314573115348,-0.1497825009314131]",100.0,"[0.024128163512167226,-0.07661790723293206]",100.0,"[-0.015064534899942297,0.05905169001205707]",100.0,"[0.10962437978943511,0.05254221820952779]",100.0,"[-0.042597498500758994,-0.014312547970066078]",100.0,"[0.02,0.02]",415.224,0.0,22.0,22.0,17.0,1.0,,,,,,,
,,,,,,,5dd25456cc192027096069bb,6842bbcfd3a92410aca99606,2025-06-06_11h59.02.735,shape_ratio,2024.1.5,Win32,60.09615385,6842b561977af9ba9b0f87ca,,,,,,,,,,,415.224,415.723,,,415.972,416.771,left,0.785,,,,,,,,,0.45,,,,,,415.723,415.972,416.771,"[0.13842285024459156,-0.028971792792983283]",4.0,"[-0.12174563443446326,0.14986291297088458]",4.0,"[-0.16366282014916764,-0.027253151570000404]",100.0,"[0.022315425795249113,0.011335630662316595]",100.0,"[-0.06629701224346211,-0.16471834379291986]",100.0,"[0.025167793070963715,0.16511038304801182]",4.0,"[-0.0783661064052794,0.14773871845817835]",4.0,"[0.009890222895940826,0.08299953981974796]",4.0,"[0.06362860441083007,0.18370531075034408]",4.0,"[-0.05033573867435221,-0.0493217600476445]",4.0,"[0.04049960249099532,-0.03643364631066755]",4.0,"[-0.04131509701189778,-0.11584936315589288]",100.0,"[0.09156738590549744,0.05766151400597134]",100.0,"[-0.17409708733636886,0.026885196872228782]",100.0,"[0.09801311649730701,-0.13786842851181785]",4.0,"[-0.05605793067830102,0.004202854710638334]",4.0,"[0.043959872055502454,0.12282731592958968]",100.0,"[0.04279257836289987,-0.1861497552607993]",4.0,"[-0.0041353683104755935,-0.06810649048268841]",100.0,"[-0.041055750726515634,0.1945300477846285]",100.0,"[0.14121250787393047,-0.10497986355915094]",4.0,"[0.1492240199254344,0.021973531441058392]",4.0,"[0.19115108695133226,0.03805761947919943]",4.0,"[-0.09914319363493755,0.040095134833413294]",4.0,"[0.14159668106697862,0.13139770056329914]",100.0,"[-0.1429076098984844,0.05458187887254888]",100.0,"[0.03288425291841777,-0.11348149089782088]",100.0,"[-0.0715097803981089,0.09749989514914856]",100.0,"[-0.08213194257633587,-0.11487435031720147]",4.0,"[0.15111831669731937,0.06891168191762788]",100.0,"[-0.1181908012036571,-0.023859349934992672]",4.0,"[-0.11649552268314863,0.09097726803091352]",4.0,"[0.02,0.02]",417.868,0.0,23.0,23.0,140.0,1.0,,,,,,,
,,,,,,,5dd25456cc192027096069bb,6842bbcfd3a92410aca99606,2025-06-06_11h59.02.735,shape_ratio,2024.1.5,Win32,60.09615385,6842b561977af9ba9b0f87ca,,,,,,,,,,,417.868,418.367,,,418.617,419.482,right,0.85,,,,,,,,,0.4,,,,,,418.367,418.617,419.482,"[-0.05806280088926033,-0.1599232825970545]",4.0,"[0.14429541395854717,-0.008910579628925216]",100.0,"[0.06671456635008634,0.10390984804569127]",100.0,"[0.13887896375348557,-0.04862963214604136]",4.0,"[-0.13329439850184208,-0.029482219940315]",4.0,"[0.07327750780854637,0.0483466653626723]",100.0,"[0.12994357151534558,-0.11626359440529374]",100.0,"[-0.07469565566806305,0.04491256426221582]",4.0,"[0.13789658549278674,0.13447144857575405]",100.0,"[0.08060699410754393,-0.1639226919447804]",4.0,"[-0.11085443138044718,-0.07606492645217]",100.0,"[-0.058397243715265626,-0.11049144684872654]",4.0,"[0.05351254390782033,-0.06202282282053776]",100.0,"[-0.060829735721027074,0.12717490391854805]",4.0,"[-0.16712006559218037,0.0229675505438427]",100.0,"[-0.01905792993931106,0.010760313889056359]",100.0,"[-0.13533114808734678,0.12025854478558647]",4.0,"[-0.08217683561863445,-0.044854946048577066]",4.0,"[-0.014837887866506964,0.1617322557066247]",4.0,"[-0.1429223321117412,-0.10796306216258655]",4.0,"[0.18955744558424437,-0.028422934647820506]",4.0,"[-0.12237890746291831,-0.15510780458380663]",4.0,"[-0.12758171429508822,0.011304664702458226]",4.0,"[0.0911825753919918,0.16883177246590517]",4.0,"[0.03559722361977613,-0.10192073309880892]",100.0,"[-0.18387954752465382,-0.07074418204787354]",100.0,"[-0.09731124927768081,0.1508522363619276]",4.0,"[-0.001129406454903258,-0.14331963022989108]",4.0,"[0.023283728923524857,-0.03450290727955709]",4.0,"[-0.013625126729374968,0.07070024323128597]",100.0,"[0.12249168923230606,0.04939579399136093]",100.0,"[0.08105628945147904,0.0005727507373645796]",4.0,"[0.02,0.02]",420.579,0.0,24.0,24.0,150.0,1.0,,,,,,,
,,,,,,,5dd25456cc192027096069bb,6842bbcfd3a92410aca99606,2025-06-06_11h59.02.735,shape_ratio,2024.1.5,Win32,60.09615385,6842b561977af9ba9b0f87ca,,,,,,,,,,,420.579,421.077,,,421.328,421.809,left,0.467,,,,,,,,,0.55,,,,,,421.077,421.328,421.81,"[-0.10653261055698983,-0.12013905333835753]",100.0,"[-0.013245149378939875,0.11606301829161902]",4.0,"[-0.0066459393744547285,0.0650915838081429]",4.0,"[-0.036442752380717355,0.03131305584463345]",4.0,"[-0.03170664904190081,-0.12628354026902505]",100.0,"[-0.00599124783448513,-0.082742630730254]",4.0,"[0.03166444263066725,-0.1523956209224661]",100.0,"[-0.09550828503963464,0.08591056659389731]",100.0,"[-0.14608368197080893,-0.08217721113986343]",100.0,"[0.024928395723594583,-0.19489947641489308]",100.0,"[0.17906814655005182,-0.07888953189058437]",100.0,"[-0.1092930533478375,-0.01895517597310029]",4.0,"[-0.07815813811173734,-0.07928942425248829]",100.0,"[0.12928188334397078,0.14205977459180022]",100.0,"[0.015903885443128072,-0.006682799432964236]",4.0,"[0.08643493162585436,-0.17326260102554944]",4.0,"[0.06187049933379552,-0.09212489885053744]",100.0,"[-0.14560631935649943,0.004214102360087252]",100.0,"[0.013618993076024296,0.17351213427113088]",100.0,"[0.07710244589199826,0.045074331950435774]",100.0,"[0.12375629502803273,-0.01036647436601098]",4.0,"[0.10497695433493946,-0.08370197423007697]",4.0,"[-0.08840201303587653,-0.1609423501001692]",100.0,"[0.16610252143990156,0.09985635038162623]",4.0,"[0.034249242996712476,0.1318163690193246]",4.0,"[0.12006167402431336,0.05509339069859445]",100.0,"[-0.03179756189859117,0.1585771631690021]",4.0,"[-0.1355823573104344,0.13721033969682678]",100.0,"[-0.03942731958867129,-0.04776123744277023]",100.0,"[0.06398723750138355,-0.012428289851282644]",4.0,"[0.07786182242176214,0.157212215626111]",4.0,"[-0.09638367426051496,0.17013203356250073]",100.0,"[0.02,0.02]",422.906,0.0,25.0,25.0,72.0,1.0,,,,,,,
,,,,,,,5dd25456cc192027096069bb,6842bbcfd3a92410aca99606,2025-06-06_11h59.02.735,shape_ratio,2024.1.5,Win32,60.09615385,6842b561977af9ba9b0f87ca,,,,,,,,,,,422.907,423.405,,,423.656,424.155,right,0.488,,,,,,,,,0.9,,,,,,423.405,423.656,424.155,"[0.07050190682479743,0.11318724520672904]",100.0,"[0.11039958754344152,-0.06062928536243266]",100.0,"[-0.048918519499252036,-0.1768090321981945]",100.0,"[-0.0006814144321320168,-0.143332644950914]",100.0,"[-0.08242653372037015,0.007309584216530113]",100.0,"[0.07514113182370759,-0.022561171887760075]",100.0,"[-0.1355309821174367,0.013545709863734268]",100.0,"[0.05230118006361442,-0.1496176328769751]",4.0,"[-0.062238503703797576,0.07143945910769643]",100.0,"[0.13062216665095872,0.1467737201859057]",100.0,"[-0.19260395199166302,0.02758566239077455]",100.0,"[0.15549917557514747,0.020688008853485977]",100.0,"[0.10935754203956954,0.061928669430315386]",100.0,"[-0.12321351230599799,-0.15680772894394285]",100.0,"[0.04017119824561364,0.1824616935286435]",100.0,"[-0.14508032481459537,0.13565250559226785]",100.0,"[-0.03481519309080365,0.017957508059332553]",100.0,"[-0.09655741597902301,0.1432108542109149]",100.0,"[-0.07212023487960723,-0.1427664683573901]",100.0,"[0.012913842438251767,-0.09001654572931216]",100.0,"[-0.013119463224387588,0.16979460053931086]",100.0,"[-0.043963582234321966,-0.09679706348580654]",100.0,"[0.14427788813771059,0.10889129590241593]",100.0,"[-0.15852818447390948,-0.07972900459271345]",4.0,"[0.13855967509575862,-0.13034739458622252]",100.0,"[0.17613564450467709,0.07406958589654643]",4.0,"[-0.11887623441614795,-0.10486398732396238]",100.0,"[-0.03218714655139933,-0.04272894960133729]",100.0,"[0.15883019306289084,-0.05843541501179637]",100.0,"[-0.10260759903249995,0.08540339508208922]",100.0,"[0.19614782638038275,-0.033212414309866316]",100.0,"[-0.10448485230066822,0.04267620556636672]",100.0,"[0.02,0.02]",425.252,0.0,26.0,26.0,28.0,1.0,,,,,,,
,,,,,,,5dd25456cc192027096069bb,6842bbcfd3a92410aca99606,2025-06-06_11h59.02.735,shape_ratio,2024.1.5,Win32,60.09615385,6842b561977af9ba9b0f87ca,,,,,,,,,,,425.253,425.75,,,426.0,426.715,right,0.7,,,,,,,,,0.55,,,,,,425.75,426.0,426.715,"[0.011920509373525637,-0.09984030597150688]",4.0,"[-0.01782933378062214,0.02693731594286829]",4.0,"[0.14361395866239507,-0.052607749705233624]",4.0,"[0.08641535342131663,0.1785857118163021]",100.0,"[0.045070480924080586,-0.1818065195817069]",4.0,"[-0.06842872397726207,0.15061161846205245]",4.0,"[-0.032330151215246954,-0.17371408145490938]",100.0,"[0.10973419117336651,-0.012085818513227852]",100.0,"[0.014261752756614423,0.15730598448582184]",100.0,"[0.06452880364041606,0.06948718530530268]",4.0,"[-0.15172786903983682,0.10584198110272403]",4.0,"[0.11228408553505216,-0.09348976189349559]",100.0,"[0.08945866659441919,0.03796427953627637]",4.0,"[-0.094634842427337,0.006863172566807817]",100.0,"[-0.07681046927023355,-0.06325220996812735]",100.0,"[0.15381337885253035,0.018684983565319148]",100.0,"[0.1963465598383808,-0.0035485734431317368]",100.0,"[-0.18708985441034504,0.020701955455669104]",100.0,"[0.09037818219616099,0.12872836268337254]",4.0,"[-0.10517907440768468,-0.11217863439819196]",4.0,"[0.010590819940008414,0.08035810844406908]",4.0,"[-0.035257447222601955,-0.04579972713679021]",100.0,"[0.04341760747296645,-0.03679383276538549]",100.0,"[-0.17129085596736796,-0.026973126694684067]",100.0,"[-0.13543324564307577,-0.14106551631562483]",100.0,"[-0.18298493901167417,0.07607826273881566]",100.0,"[-0.12442283660867302,-0.04608063099390884]",100.0,"[-0.11537399697811018,0.06967666735428511]",100.0,"[0.08536090437602527,-0.13695459383146566]",4.0,"[-0.18194572679822468,-0.06642494557323082]",4.0,"[-0.03663269490891783,-0.08934386142736954]",4.0,"[-0.031783689726774984,0.184717244445594]",100.0,"[0.02,0.02]",427.812,0.0,27.0,27.0,62.0,1.0,,,,,,,
,,,,,,,5dd25456cc192027096069bb,6842bbcfd3a92410aca99606,2025-06-06_11h59.02.735,shape_ratio,2024.1.5,Win32,60.09615385,6842b561977af9ba9b0f87ca,,,,,,,,,,,427.812,428.313,,,428.563,429.325,left,0.747,,,,,,,,,0.1,,,,,,428.313,428.562,429.325,"[0.09344719688993008,-0.11293826673847296]",4.0,"[-0.07243147069880176,0.07923784178042668]",4.0,"[0.06806042008131626,0.033739010419478924]",100.0,"[-0.15442032688896898,-0.05458466757566121]",100.0,"[0.15286095759659438,0.07366818089952606]",4.0,"[-0.056186823754959106,-0.05207194669737845]",4.0,"[0.08184825174540385,0.18092241399872777]",4.0,"[-0.007494706044855002,0.17328962703065168]",4.0,"[0.04949157365596663,0.07060924203757633]",100.0,"[-0.02204399663021455,0.12849960379542635]",4.0,"[-0.036225218882694074,0.0274825429256275]",4.0,"[0.14485500163671827,-0.014737545753061491]",4.0,"[-0.009036292545217867,-0.13946293464818788]",4.0,"[0.09635430755994909,-0.16385025501578288]",4.0,"[-0.10989778690774164,-0.02493228649565173]",4.0,"[-0.00846787675512592,0.08276363571658021]",4.0,"[-0.053305418232870536,-0.011636458973526106]",4.0,"[-0.10528656358751953,-0.1177758356138599]",4.0,"[0.08505187637380439,-0.06145786528077048]",4.0,"[0.010967656936852832,-0.18325199789309848]",4.0,"[0.0422574605459025,-0.13887075112059213]",4.0,"[-0.0820405249399508,0.1597441470096282]",4.0,"[-0.16533590132483034,0.036331038679292944]",4.0,"[0.12521043070849064,0.10556731611107147]",4.0,"[-0.046822880789503106,-0.16609438265711024]",4.0,"[-0.04588953744798524,-0.11401227405214914]",4.0,"[-0.11477258731291803,0.05885742842665812]",4.0,"[0.04463888361952246,0.12433223172684908]",4.0,"[0.14899060606790238,-0.0772924638645474]",4.0,"[0.025047371194067046,-0.08072964617408342]",4.0,"[-0.07593794014474184,0.03404436761706831]",4.0,"[-0.09629974523969798,-0.1685148273054336]",4.0,"[0.02,0.02]",430.423,0.0,28.0,28.0,204.0,1.0,,,,,,,
,,,,,,,5dd25456cc192027096069bb,6842bbcfd3a92410aca99606,2025-06-06_11h59.02.735,shape_ratio,2024.1.5,Win32,60.09615385,6842b561977af9ba9b0f87ca,,,,,,,,,,,430.425,430.922,,,431.171,432.035,right,0.849,,,,,,,,,0.45,,,,,,430.922,431.171,432.035,"[-0.021133973193960265,0.08748210049660213]",4.0,"[0.05270365790179176,-0.07527000996737783]",4.0,"[0.06846699637391006,0.12036810800916885]",4.0,"[0.0615234730102697,-0.02438054001330951]",4.0,"[0.14701516534263698,0.12881163717261054]",4.0,"[-0.08125376713098105,-0.16756725393689167]",100.0,"[-0.05215733522903951,0.1486429428445299]",100.0,"[-0.18279304440740354,-0.03780400552996127]",100.0,"[-0.08351141442866047,-0.09427089883561864]",100.0,"[-0.015404912079352294,0.13090674528950594]",4.0,"[-0.010565264144458455,-0.049361968033247085]",4.0,"[-0.19164458835032858,0.013858046631426375]",100.0,"[0.14854813437199132,-0.12601248673555715]",4.0,"[0.1317348564045832,-0.05196820182275332]",4.0,"[-0.08177986842186596,-0.002684976575479285]",4.0,"[-0.11350784423022801,-0.04266547698468174]",4.0,"[-0.03195431961970154,-0.12382612874258393]",4.0,"[0.12216434806268463,0.00462258725489786]",100.0,"[-0.1627484835420531,0.09158567260986694]",100.0,"[0.043750585420236486,0.018773169547675474]",4.0,"[-0.12463935168518339,-0.1025168156331507]",4.0,"[0.025565457133313083,0.08717022141488043]",100.0,"[-0.03635194183534502,-0.004660165013725414]",100.0,"[0.06393158772009506,-0.151965942745649]",100.0,"[-0.06407092417850402,0.05126463124165087]",4.0,"[0.0641615951243906,0.06566635828688841]",4.0,"[-0.13186356432875806,0.01765865826338715]",4.0,"[0.191646658850121,0.04819978893107141]",100.0,"[0.06322580969841016,0.18914031991096592]",100.0,"[0.014330259423572725,-0.16228527306791798]",100.0,"[0.11316449976955054,0.09856364285834596]",4.0,"[0.11503492145938818,0.15492642633939238]",100.0,"[0.02,0.02]",433.133,0.0,29.0,29.0,120.0,1.0,,,,,,,
,,,,,,,5dd25456cc192027096069bb,6842bbcfd3a92410aca99606,2025-06-06_11h59.02.735,shape_ratio,2024.1.5,Win32,60.09615385,6842b561977af9ba9b0f87ca,,,,,,,,,,,433.134,433.632,,,433.883,434.746,left,0.849,,,,,,,,,0.6,,,,,,433.632,433.883,434.746,"[-0.1900530572951426,0.010201636420951827]",100.0,"[0.05454648418497587,-0.08752535360711458]",100.0,"[0.08828915015103546,-0.061503743714379173]",100.0,"[-0.024967127161513194,0.02965620495504025]",100.0,"[0.13886213908334505,0.03768357839011378]",100.0,"[0.053364637845094424,-0.03876687241728262]",100.0,"[-0.09495881677574382,0.06669563534312242]",100.0,"[0.15840524363338837,-0.08885726499971436]",4.0,"[0.13296870687826087,0.14870171022806652]",4.0,"[0.006857409165689521,0.16062457357879217]",100.0,"[0.1113189776944073,0.10589276333814851]",4.0,"[-0.0801230197135483,-0.05255969834617973]",100.0,"[0.04288581350808805,0.09708828622005482]",4.0,"[-0.020365091835476735,-0.059574093600616766]",4.0,"[0.1070226265693568,-0.1323056342210229]",100.0,"[-0.09740662489611818,-0.12658831175711513]",4.0,"[-0.06227588303018789,-0.09661757687960132]",100.0,"[0.049409676021985344,0.18677039046425656]",100.0,"[-0.1494565025736439,0.06656085097364194]",100.0,"[-0.07967284159963976,0.16436131339476248]",4.0,"[-0.11797169270882003,-0.02931113400734002]",4.0,"[0.09736496895930609,0.021116363921659477]",100.0,"[0.1787133385617338,0.06071477875106617]",100.0,"[0.038645325884029934,-0.17409894723677985]",4.0,"[-0.023990603450962367,0.11351105959966633]",4.0,"[-0.12501995241049574,0.014912187590351974]",4.0,"[0.13393038234681107,-0.046866144159586585]",100.0,"[-0.010675217991649097,-0.10555452218485657]",100.0,"[-0.018390105547818426,-0.1530791935227071]",100.0,"[-0.07248869118502863,-0.1633602572020313]",4.0,"[-0.11460699159851777,-0.07541606305997706]",100.0,"[-0.015452676179184083,-0.01812081038512658]",4.0,"[0.02,0.02]",435.844,0.0,30.0,30.0,57.0,1.0,,,,,,,
,,,,,,,5dd25456cc192027096069bb,6842bbcfd3a92410aca99606,2025-06-06_11h59.02.735,shape_ratio,2024.1.5,Win32,60.09615385,6842b561977af9ba9b0f87ca,,,,,,,,,,,435.844,436.343,,,436.593,437.241,right,0.632,,,,,,,,,0.5,,,,,,436.343,436.593,437.241,"[-0.18567445002092678,-0.026535658225821088]",4.0,"[0.17805962097482758,-0.01476224291734736]",100.0,"[-0.15017171737702797,0.10980619005966061]",4.0,"[0.07705095418449105,0.0015914189762544822]",100.0,"[-0.001974646933892527,0.0714305560801326]",4.0,"[0.0585297228724016,0.12149769178444017]",100.0,"[-0.031195158914054607,-0.13895114933798]",4.0,"[-0.03980665380771652,0.152961443114022]",4.0,"[0.06115910315910774,-0.040111469453107514]",4.0,"[0.06876275344402916,-0.14098547675467527]",100.0,"[0.13764499807541192,0.11071865653711746]",100.0,"[-0.07920411929905996,-0.004442808586099546]",100.0,"[-0.016933044814369812,0.19375828811290505]",4.0,"[0.09122847119378276,0.1455675178867984]",4.0,"[-0.08954213294206181,-0.163945396463802]",4.0,"[-0.14435985199745738,0.06317611950520555]",4.0,"[0.11486688346644539,-0.10884656396569527]",4.0,"[0.014459428488734443,-0.06847748597429637]",100.0,"[0.07347329321841833,0.0779964810773045]",100.0,"[0.05326921501868117,0.1712248168682918]",100.0,"[-0.08009904084704422,0.09530754323749144]",100.0,"[-0.12021312690795409,-0.11723347356693008]",100.0,"[-0.03476319614702564,0.11030527282620284]",100.0,"[-0.05063033891350283,-0.05685588345993762]",4.0,"[0.15569615639144,0.019154475945635584]",4.0,"[0.023694790442838256,-0.11862974999619215]",100.0,"[0.1509157165902376,-0.13077452634418388]",4.0,"[-0.0145855575395317,-0.09977787179861095]",100.0,"[0.12087066626041415,-0.06419535353830198]",4.0,"[-0.04524775198731894,0.04865394923544059]",100.0,"[-0.18876246994627713,0.05053398122023448]",100.0,"[0.11651611226287156,0.041365295907318696]",4.0,"[0.02,0.02]",438.337,0.0,31.0,31.0,104.0,1.0,,,,,,,
,,,,,,,5dd25456cc192027096069bb,6842bbcfd3a92410aca99606,2025-06-06_11h59.02.735,shape_ratio,2024.1.5,Win32,60.09615385,6842b561977af9ba9b0f87ca,,,,,,,,,,,438.338,438.837,,,439.086,439.767,left,0.666,,,,,,,,,0.4,,,,,,438.837,439.086,439.767,"[-0.11012230381535527,0.15636799803001517]",4.0,"[-0.09708147457418037,0.03604821348499412]",4.0,"[0.11396985854002963,0.09671167640525921]",4.0,"[0.1585177135205595,0.027454320088974908]",4.0,"[-0.10931841093160707,-0.0697317370803841]",4.0,"[-0.061190488391085436,-0.041707579758603106]",100.0,"[0.022152477204164613,-0.17440741216096842]",4.0,"[-0.12912723675960652,-0.13504821911204978]",100.0,"[0.013816400543360929,-0.021376852895186284]",4.0,"[0.1416082609959874,-0.11886382115224736]",4.0,"[0.06574981367990032,0.09929652250408673]",4.0,"[0.10997799813502376,-0.06675911773368459]",4.0,"[-0.005144768947758677,0.18530449667173496]",100.0,"[0.15116100100029542,0.1245585613729195]",4.0,"[0.11683113052401689,-0.011671071071460261]",100.0,"[0.031002147960760805,0.15452176597235212]",4.0,"[0.11871931687231124,-0.152844342259024]",100.0,"[0.02715623252080082,0.045320435311747724]",100.0,"[0.08133230571773356,0.15253479618375335]",4.0,"[-0.13485361627742498,0.09983293284608317]",100.0,"[-0.15131059752490908,-0.010820253047018103]",100.0,"[-0.040486351815525325,0.13816931405125696]",4.0,"[-0.16506848950503522,-0.08684323050141969]",4.0,"[0.08244400541813776,0.037706887407708334]",100.0,"[0.03502384025030201,-0.07133128256381767]",4.0,"[0.15143166585967865,-0.05770093127598086]",4.0,"[-0.04529147928468678,-0.003777433979018888]",100.0,"[-0.16492056434750296,0.05913577730196626]",100.0,"[-0.034320372152375885,-0.16582865571638478]",100.0,"[-0.09315505292883462,0.07854584306966901]",4.0,"[0.02475522438925496,-0.11711692661738547]",4.0,"[-0.02153102630760293,0.03512032102272759]",100.0,"[0.02,0.02]",440.865,0.0,32.0,32.0,167.0,1.0,,,,,,,
,,,,,,,5dd25456cc192027096069bb,6842bbcfd3a92410aca99606,2025-06-06_11h59.02.735,shape_ratio,2024.1.5,Win32,60.09615385,6842b561977af9ba9b0f87ca,,,,,,,,,,,440.866,441.364,,,441.614,442.345,left,0.715,,,,,,,,,0.55,,,,,,441.364,441.614,442.345,"[0.06841583730904935,-0.09381137727222888]",100.0,"[0.06967009095794721,0.06841462339208182]",100.0,"[-0.17482147499165598,0.02241669793094252]",4.0,"[0.09751748947180905,0.009089323189276228]",100.0,"[0.11444077251559863,0.14725905787163085]",100.0,"[0.04287222127093678,-0.1449055668359737]",100.0,"[0.08263127730054017,-0.15580009470908912]",100.0,"[0.02475364072072009,-0.10219762770492938]",4.0,"[0.19839584857367337,0.020121336337702616]",100.0,"[-0.10427883007622679,0.01162377923210653]",4.0,"[0.06334915490392683,0.12579883402184208]",100.0,"[0.16274830928747633,-0.006640007151520998]",100.0,"[-0.18586365055612894,-0.048737451573624156]",100.0,"[-0.132880423495348,0.09415645446223184]",4.0,"[-0.08576444686571856,-0.11731789769025391]",100.0,"[0.10999996378621685,-0.10464701449037032]",100.0,"[0.026175554250493716,0.07231176856102489]",4.0,"[-0.02800013110175875,-0.14926812231597755]",100.0,"[0.03860548778280511,0.16894513064323527]",100.0,"[-0.0616122752004868,0.027981216087795795]",4.0,"[-0.020928794341698833,0.1119029984847129]",4.0,"[0.0668842175147859,-0.021648888592345126]",100.0,"[-0.005590936080400708,-0.023220061782893757]",4.0,"[-0.06442642107508374,-0.07994403969119526]",4.0,"[0.019105192820236767,-0.17990378875620933]",100.0,"[-0.07942659023644547,0.16218011767380688]",100.0,"[-0.1020828588929605,0.06638296963714459]",4.0,"[0.18092280040523118,-0.04833423129134812]",4.0,"[0.13339836599585983,-0.06158160774935918]",4.0,"[-0.13146808350692285,-0.10394304047255597]",100.0,"[-0.018271846348015035,0.1680440635211658]",4.0,"[0.036348472769089195,-0.05220803105004145]",4.0,"[0.02,0.02]",443.443,0.0,33.0,33.0,87.0,1.0,,,,,,,
,,,,,,,5dd25456cc192027096069bb,6842bbcfd3a92410aca99606,2025-06-06_11h59.02.735,shape_ratio,2024.1.5,Win32,60.09615385,6842b561977af9ba9b0f87ca,,,,,,,,,,,443.444,443.942,,,444.195,445.156,left,0.949,,,,,,,,,0.45,,,,,,443.942,444.195,445.156,"[-0.12740356636815137,0.07242646808020248]",100.0,"[0.008944561855632728,0.13506613978409227]",100.0,"[0.016847390223289363,0.18070963380957303]",4.0,"[-0.04586718785565977,-0.11374980140040392]",4.0,"[-0.09222579153513642,0.12237564224265979]",4.0,"[0.015391496464609258,-0.06386928084811559]",4.0,"[-0.02492071358176998,-0.011855303943310268]",100.0,"[-0.10836017269560869,-0.014445943944683093]",4.0,"[-0.05947432584119944,-0.0499808839467917]",4.0,"[0.12233457412043214,-0.08219321008867247]",4.0,"[0.13549397346215414,0.08932918172890554]",100.0,"[-0.16212169142280958,0.11319929806606897]",100.0,"[0.158108221745862,0.010111122646589227]",100.0,"[0.0839188324440348,0.024611108128842003]",4.0,"[0.10059972637078352,0.14039861322256028]",4.0,"[0.11855440524654923,-0.13528790224493192]",4.0,"[0.012459742058580655,0.018038086122466705]",4.0,"[0.06849573782768101,0.11637796389384429]",100.0,"[-0.18457030493697915,0.037355555145898355]",4.0,"[-0.09701450098684586,-0.13800849605323973]",100.0,"[0.050208875553476945,-0.13213971076469483]",100.0,"[-0.19343248419232295,-0.00473359529303106]",100.0,"[0.07858421105797853,-0.015824148862427567]",100.0,"[-0.12936048000261485,0.030966462316717843]",4.0,"[0.0030716702953303187,-0.16316952583792615]",100.0,"[0.006696082011044643,0.07542356121785557]",100.0,"[-0.03770209113452028,0.08835666153361821]",4.0,"[-0.11867290218324873,0.16038400634420716]",4.0,"[0.11817369534221114,-0.02379876383553462]",4.0,"[0.17759330682794522,0.06896403752958179]",4.0,"[-0.03994932113337565,-0.15571526322227436]",100.0,"[-0.11400953187873593,-0.05813908791997039]",4.0,"[0.02,0.02]",446.253,0.0,34.0,34.0,132.0,1.0,,,,,,,
,,,,,,,5dd25456cc192027096069bb,6842bbcfd3a92410aca99606,2025-06-06_11h59.02.735,shape_ratio,2024.1.5,Win32,60.09615385,6842b561977af9ba9b0f87ca,,,,,,,,,,,446.254,446.752,,,447.002,447.965,left,0.951,,,,,,,,,0.55,,,,,,446.752,447.002,447.965,"[0.18604014602322325,0.04336027393774137]",4.0,"[0.14549308362774238,-0.08105931520526123]",100.0,"[0.09975841691904488,0.14295082009586318]",4.0,"[-0.15255233363162332,-0.09066312954027778]",100.0,"[0.05510552733840244,-0.017380393449315627]",4.0,"[-0.07172233404564912,-0.04119483403209708]",4.0,"[-0.046507436803920284,-0.11943354325663583]",100.0,"[0.12343477534314565,0.04583342463149139]",4.0,"[0.039725693989527265,0.18955108707306692]",4.0,"[-0.1397208174533461,0.06217386644371488]",100.0,"[-0.11496422447985943,0.02061154800997061]",100.0,"[-0.07898872364350962,0.17179842781904747]",4.0,"[0.017050588495864608,-0.04350496275307751]",100.0,"[0.10288531988384889,-0.03139452983947662]",100.0,"[0.05022764350874519,0.085799073375922]",4.0,"[0.09702593540213585,0.009287013449689147]",100.0,"[-0.019524542581460833,0.13169793662971926]",100.0,"[-0.02338892601910374,0.014389662371563253]",4.0,"[-0.09165667290430286,0.07585194795002992]",100.0,"[0.17638741635120558,-0.05540324659630017]",100.0,"[-0.11280289816738243,-0.0951497692213218]",100.0,"[-0.001551305039431015,-0.13887103236055673]",4.0,"[-0.06506101987719266,0.04206409379773304]",100.0,"[-0.03908201028501078,-0.1814813689505851]",4.0,"[-0.13135782863060633,-0.13645739878304017]",100.0,"[0.11354486071988176,-0.1145870250255941]",100.0,"[0.019547110130860013,0.008308781572305465]",4.0,"[0.08519178628828465,-0.07677578106976889]",100.0,"[-0.07440522087597169,0.1169016806449218]",4.0,"[0.15199713763251763,-0.0030702231606247136]",4.0,"[0.054077969941453446,-0.1328209771738973]",100.0,"[-0.1122266382419159,-0.03589692681945307]",100.0,"[0.02,0.02]",449.063,0.0,35.0,35.0,78.0,1.0,,,,,,,
,,,,,,,5dd25456cc192027096069bb,6842bbcfd3a92410aca99606,2025-06-06_11h59.02.735,shape_ratio,2024.1.5,Win32,60.09615385,6842b561977af9ba9b0f87ca,,,,,,,,,,,449.064,449.562,,,449.812,450.21,right,0.384,,,,,,,,,0.9,,,,,,449.562,449.812,450.21,"[0.04448224289416435,0.06133951212199024]",100.0,"[0.055140902748013546,-0.040819144536535]",100.0,"[0.06479870869829359,0.10324603092439286]",100.0,"[-0.03957735484266364,-0.1273379763237013]",100.0,"[0.18229474376502292,0.05737438431232192]",100.0,"[0.1584972118620068,-0.06265520326098108]",100.0,"[0.028338636366995473,-0.07347238687907913]",100.0,"[-0.08957413187181021,-0.021909707806724344]",100.0,"[-0.12077835939083836,0.055465175007058456]",100.0,"[0.0018914246189045,-0.18578017375786637]",100.0,"[-0.012515319514240298,0.19777132954309265]",100.0,"[0.10725483383010086,0.11506171127751535]",100.0,"[-0.002939903891860535,0.14835888619602938]",4.0,"[-0.05162692217922692,0.07268670379426577]",100.0,"[-0.15188910967957797,0.12570797600454278]",100.0,"[0.12346971720873162,-0.1286881273792283]",4.0,"[-0.03624030700815698,-0.07181700080640836]",100.0,"[0.006966907413567967,0.10102325390204907]",100.0,"[-0.1715619964415148,-0.07195099896056796]",100.0,"[0.10679344960131787,-0.08659190434844671]",100.0,"[-0.08188716678424891,-0.17436068663626125]",100.0,"[-0.08243216218998653,-0.10249399210869832]",100.0,"[0.04185468063410332,0.13991802047604648]",100.0,"[-0.025367403383268584,-0.0031619476199002262]",100.0,"[0.02465842277745143,-0.014638826040102094]",100.0,"[0.14227195014837687,0.08939405810582601]",100.0,"[-0.15636251211855928,0.03057125341192431]",100.0,"[-0.0922350046020589,0.10701758322463485]",100.0,"[-0.07614043016088143,0.036065305092776244]",100.0,"[0.13318496203786562,0.015171845317572699]",4.0,"[0.1813571904457297,-0.010718482237820019]",100.0,"[-0.010011660420885974,0.04021931345453521]",100.0,"[0.02,0.02]",451.308,0.0,36.0,36.0,20.0,1.0,,,,,,,
,,,,,,,5dd25456cc192027096069bb,6842bbcfd3a92410aca99606,2025-06-06_11h59.02.735,shape_ratio,2024.1.5,Win32,60.09615385,6842b561977af9ba9b0f87ca,,,,,,,,,,,451.309,451.806,,,452.057,452.422,right,0.352,,,,,,,,,0.9,,,,,,451.806,452.057,452.422,"[-0.119514034492937,-0.05704588049661268]",100.0,"[-0.013002000456786225,0.06644416655257099]",100.0,"[0.09102099453828348,0.06845846447036016]",100.0,"[0.16882740481507721,0.07394741499127491]",100.0,"[0.03730677632551955,-0.1024375607918792]",100.0,"[0.04197909726900087,0.011164447740639823]",100.0,"[-0.10929374530658058,-0.14771949928874947]",100.0,"[-0.028744666377800255,0.0051354949811084965]",4.0,"[0.0484707932868486,0.06438160769437934]",100.0,"[-0.06788879516945898,-0.024241679571648658]",4.0,"[0.06948542265040264,-0.06398179050244861]",100.0,"[-0.049642141766970356,-0.08491052384875807]",100.0,"[0.1178179459539195,0.031263574900771314]",100.0,"[-0.09529761852264451,0.13174074151650175]",100.0,"[0.16979771299878127,-0.058655568508599536]",100.0,"[-0.04977099837515167,0.162394789015788]",100.0,"[-0.14680543941715612,0.007192800361156836]",100.0,"[0.11441492952989547,-0.0277582657346887]",100.0,"[-0.16601696649039885,-0.08738495171991278]",100.0,"[0.006643598986255523,0.11916956330608125]",100.0,"[-0.09314628640944414,0.07501667020654981]",100.0,"[-0.005173013523680289,-0.030218453850985844]",100.0,"[-0.09163372908456718,0.029546895264481655]",4.0,"[-0.00388709626571682,0.1756439651579719]",100.0,"[0.017403390920768886,-0.18380762668399597]",100.0,"[0.056464939748489026,0.17117374526091178]",100.0,"[-0.19541368343147322,0.03804897677887786]",100.0,"[0.11456306331154467,-0.10168648702296988]",100.0,"[-0.14046936087649306,0.07420817465919616]",100.0,"[0.08725028309943161,0.141989365160083]",100.0,"[-0.02348690092977239,-0.18310059302733867]",100.0,"[-0.008796595487610576,-0.10053491942445555]",100.0,"[0.02,0.02]",453.52,0.0,37.0,37.0,10.0,1.0,,,,,,,
,,,,,,,5dd25456cc192027096069bb,6842bbcfd3a92410aca99606,2025-06-06_11h59.02.735,shape_ratio,2024.1.5,Win32,60.09615385,6842b561977af9ba9b0f87ca,,,,,,,,,,,453.52,454.018,,,454.268,455.249,left,0.967,,,,,,,,,0.5,,,,,,454.018,454.268,455.249,"[0.021980436755175647,-0.03747212170430321]",100.0,"[0.08666091426147694,0.010491831450153217]",100.0,"[0.022078707205228084,0.03188732419253484]",100.0,"[0.04686387675713117,-0.12050956730893514]",4.0,"[0.026667962661695823,0.13590164776350527]",4.0,"[-0.047923479536130194,0.05972364163825291]",4.0,"[0.0023203758890018786,-0.1769335248638286]",100.0,"[-0.03273760875625601,0.17382403466270074]",100.0,"[0.1339437188225433,-0.11049238583348607]",100.0,"[0.09348705479217854,0.15918667356638194]",4.0,"[0.16891066639104285,-0.04200619880740593]",100.0,"[0.1459664138550479,0.0760421032318988]",100.0,"[-0.03463865140115311,-0.05834934739058808]",100.0,"[0.08990881124350053,-0.1488032752849191]",4.0,"[0.07949627575550515,0.11384394622712404]",100.0,"[0.07657011461857934,-0.05866732262071678]",100.0,"[-0.09675612655830419,-0.1290244412516887]",4.0,"[-0.16134905833046442,0.11618897495840867]",100.0,"[-0.1511579733986139,-0.009696633780486581]",4.0,"[0.1928623328240303,0.01383653304341127]",4.0,"[-0.08586784498781148,0.1616815276251929]",4.0,"[-0.12344018884087987,-0.069299255168239]",100.0,"[-0.0695963955912319,0.10736053485502932]",100.0,"[0.14261907214464803,0.004156503766824434]",4.0,"[0.001977035826753851,-0.1138803597828721]",4.0,"[-0.05592731800433446,0.005225043455103662]",4.0,"[-0.12695098001539254,0.042769670281102456]",100.0,"[-0.04416707948743178,-0.10443113363566003]",4.0,"[0.08180494567767167,0.051395345471088594]",4.0,"[-0.1716952234828739,0.05706040015468276]",100.0,"[-0.07772212762763743,-0.050675175068785404]",4.0,"[-0.08901172021369635,0.06436442473065568]",4.0,"[0.02,0.02]",456.346,0.0,38.0,38.0,92.0,1.0,,,,,,,
,,,,,,,5dd25456cc192027096069bb,6842bbcfd3a92410aca99606,2025-06-06_11h59.02.735,shape_ratio,2024.1.5,Win32,60.09615385,6842b561977af9ba9b0f87ca,,,,,,,,,,,456.346,456.845,,,457.096,457.644,right,0.533,,,,,,,,,0.9,,,,,,456.845,457.095,457.644,"[-0.13883580130724396,0.11497154157127876]",100.0,"[0.14049495317307947,0.09103294585674204]",100.0,"[-0.0396899067317571,-0.17270499182030932]",100.0,"[0.08045392309434013,0.0073853329435788345]",100.0,"[0.007196671752452513,-0.17348075055691012]",100.0,"[-0.07474240618658581,0.06284921587050124]",100.0,"[0.008516004982103321,0.130900202846437]",4.0,"[0.06077834746669745,0.09948699645752737]",100.0,"[-0.07925257913802274,0.11506470270188794]",100.0,"[-0.11665903775892457,0.031363674736088955]",100.0,"[-0.10094736701408263,0.15071041256808593]",100.0,"[-0.08295773135164751,-0.031107561190626673]",100.0,"[-0.0028562266731780523,-0.03261510696928265]",100.0,"[-0.006732359534692433,0.19509409333926958]",100.0,"[0.11810890380143187,-0.04046108832857442]",100.0,"[-0.18175118074917002,0.08224717535503201]",100.0,"[-0.033493636966704876,0.0936291242565455]",100.0,"[-0.061807132951329086,-0.11943314415876616]",100.0,"[0.05244421073037058,-0.18602965852662842]",100.0,"[-0.006977190701417571,-0.0974284252892536]",100.0,"[0.10037581222225497,-0.0922752334902334]",100.0,"[-0.13643216256502436,-0.11195114845598339]",100.0,"[0.18718626471409244,0.06442802771496688]",100.0,"[0.068792722716069,0.05372107519740945]",4.0,"[0.0025980678586614812,0.07109875952673125]",100.0,"[-0.11942433727597315,-0.009193512473460761]",100.0,"[-0.10067648057975137,-0.16477862210796396]",4.0,"[0.056508808474583457,-0.07966841924697263]",100.0,"[0.04183534332446925,0.18375616107978388]",100.0,"[-0.06231705049820845,0.007364643651668452]",100.0,"[-0.06581232231410203,0.1747073069230661]",100.0,"[0.09073526746012674,-0.1565609292046073]",100.0,"[0.02,0.02]",458.741,0.0,39.0,39.0,13.0,1.0,,,,,,,
,,,,,,,5dd25456cc192027096069bb,6842bbcfd3a92410aca99606,2025-06-06_11h59.02.735,shape_ratio,2024.1.5,Win32,60.09615385,6842b561977af9ba9b0f87ca,,,,,,,,,,,458.742,459.24,,,459.491,460.054,right,0.55,,,,,,,,,0.6,,,,,,459.24,459.491,460.054,"[0.09718006259771864,-0.11444125025327889]",4.0,"[0.011053325456355201,-0.087462123069883]",4.0,"[-0.08710943108652772,-0.029167927954424137]",100.0,"[-0.03954134877068287,0.12664936784008837]",100.0,"[0.1748993348237848,-0.024166916580617606]",100.0,"[0.012032216264790278,-0.188428881453349]",4.0,"[-0.1567563091792249,0.06878117114884347]",100.0,"[-0.1287959257115972,0.024472103837132147]",100.0,"[-0.19391375599016944,0.04210943318001506]",4.0,"[-0.13838196716554138,-0.061923783599550856]",100.0,"[0.09866439205554071,0.1578481647356881]",100.0,"[-0.001286172618780006,0.10286704313039788]",100.0,"[0.08252193837002396,0.04670131875702408]",4.0,"[0.034444513369473774,0.02362463559951223]",4.0,"[-0.08489915688502014,0.06737532710022293]",4.0,"[-0.07783220475483266,0.027445982394386073]",100.0,"[0.14283614700878214,-0.13075356595134519]",100.0,"[-0.036280157610266456,-0.06796353927610764]",100.0,"[-0.05080115468460296,-0.10548543409795352]",4.0,"[0.13807955242148015,-0.005161670059710059]",4.0,"[0.07838195926648815,-0.17277010976975024]",4.0,"[0.09070182865031624,-0.053238026735549934]",4.0,"[-0.02975644961533725,0.013612105289068952]",100.0,"[0.17688758988136505,-0.09141990854034981]",100.0,"[0.1229777143160097,0.08244196997516823]",4.0,"[0.019961091101578593,0.06708717850289671]",100.0,"[-0.06196769354751175,-0.153322724325172]",100.0,"[0.06152342033116301,0.12022738947806831]",100.0,"[-0.03994064247727369,-0.025348980015703397]",100.0,"[0.022570251045486503,-0.044308061199939686]",100.0,"[-0.14552121816636734,-0.11934632824760956]",4.0,"[-0.11883429046829254,-0.15712384040929922]",100.0,"[0.02,0.02]",461.153,0.0,40.0,40.0,39.0,1.0,,,,,,,
,,,,,,,5dd25456cc192027096069bb,6842bbcfd3a92410aca99606,2025-06-06_11h59.02.735,shape_ratio,2024.1.5,Win32,60.09615385,6842b561977af9ba9b0f87ca,,,,,,,,,,,461.156,461.651,,,461.902,462.3,left,0.384,,,,,,,,,0.1,,,,,,461.652,461.902,462.3,"[0.02905017874032685,-0.051084154704062586]",4.0,"[-0.07819797611076691,0.11509555327282699]",4.0,"[0.027311262351697,0.11852714529743356]",4.0,"[0.06229930296053415,-0.027593842828254736]",4.0,"[0.10034443727920965,-0.011058324403199067]",4.0,"[-0.176190196353726,0.020936464744171983]",4.0,"[0.16752056259181639,-0.0026449938004166037]",4.0,"[0.07143079968806643,0.09500644280689514]",4.0,"[-0.13964171835011902,-0.09548105088556724]",4.0,"[-0.10296927241088233,-0.04642182988206467]",4.0,"[0.11363395868097356,-0.14382801437197354]",4.0,"[0.15442911484328595,-0.059050140109787666]",4.0,"[0.015386830391683532,-0.1386695833596433]",4.0,"[-0.12965988430333647,-0.007983312765194307]",4.0,"[-0.03549110390612027,-0.17648395776428763]",4.0,"[-0.1291240282622974,0.10733778215340245]",4.0,"[0.024283762515285082,0.1740459133080282]",4.0,"[-0.042014270146681125,0.055833412627386635]",100.0,"[-0.07689039457840462,0.0020892535048162592]",4.0,"[-0.17967567298107442,-0.041922608075038205]",4.0,"[-0.011676222183722398,0.1385272954653535]",4.0,"[-0.10210451583641744,-0.13433043628507238]",4.0,"[0.07324853234294043,-0.08407829404827188]",4.0,"[-0.009682403153709898,-0.0959422992912114]",4.0,"[0.15388363436026234,0.07617968100390997]",4.0,"[0.1278992181159743,0.12542658419113556]",4.0,"[0.057348918527092646,-0.16756703835816705]",100.0,"[0.01636253509911889,-0.008055509175755624]",100.0,"[-0.05846222440360129,0.15519099496554584]",4.0,"[0.04824353918098699,0.048706758215243035]",4.0,"[-0.04649938985034369,-0.13165581401266463]",4.0,"[0.10004602651265337,0.05013818098022988]",4.0,"[0.02,0.02]",463.397,0.0,41.0,41.0,205.0,1.0,,,,,,,
,,,,,,,5dd25456cc192027096069bb,6842bbcfd3a92410aca99606,2025-06-06_11h59.02.735,shape_ratio,2024.1.5,Win32,60.09615385,6842b561977af9ba9b0f87ca,,,,,,,,,,,463.397,463.896,,,464.146,465.043,left,0.885,,,,,,,,,0.55,,,,,,463.896,464.146,465.043,"[0.027037920704321067,0.12413127044587735]",4.0,"[-0.1874302209731384,0.02040189869724072]",100.0,"[0.13922455229081396,0.10636077584374831]",100.0,"[-0.11003517833277535,-0.015301070601739223]",100.0,"[0.10322745313827711,-0.15925054011317671]",100.0,"[0.015540537350879128,-0.07044094475750014]",100.0,"[0.04001662182111265,-0.031141635632497083]",4.0,"[-0.07241052793821444,-0.04661289773005659]",100.0,"[0.14185601559252617,-0.08240793525388526]",4.0,"[0.045828637530114215,-0.14731567828447206]",4.0,"[0.16695914504912432,-0.02119757688951296]",4.0,"[-0.01213531021218377,-0.1597631168417333]",4.0,"[-0.13581868934106645,-0.13105788440017094]",4.0,"[0.044104414355764454,0.07581525654698369]",4.0,"[-0.06192909113651529,0.06639584495710299]",100.0,"[-0.14401496827121893,0.06603710342710657]",100.0,"[-0.10213188309279121,0.025656162441163297]",100.0,"[0.0761334901552437,0.17599655969522754]",100.0,"[0.1443035351996559,0.05977091525531077]",4.0,"[0.09049979225248622,0.020330387284697014]",100.0,"[-0.024944163366394656,0.10198015061715253]",4.0,"[-0.09964525815348514,-0.1711292762261373]",4.0,"[-0.03027487299181373,0.02803391468353751]",100.0,"[-0.05864323884999936,-0.14776271985916267]",100.0,"[-0.17695156602890855,-0.09160627805413739]",4.0,"[-0.18799630653679458,0.06148548001671557]",100.0,"[0.11760364463471211,0.1614887496808637]",4.0,"[-0.0803955373831126,-0.10573430371011991]",100.0,"[-0.08914380214672978,0.16419034798198548]",100.0,"[-0.14663255676127418,0.13280631054395028]",4.0,"[-0.10568812876367714,-0.06990077982080016]",100.0,"[-0.009293553369712005,0.1799434050575419]",100.0,"[0.02,0.02]",466.14,0.0,42.0,42.0,71.0,1.0,,,,,,,
,,,,,,,5dd25456cc192027096069bb,6842bbcfd3a92410aca99606,2025-06-06_11h59.02.735,shape_ratio,2024.1.5,Win32,60.09615385,6842b561977af9ba9b0f87ca,,,,,,,,,,,466.141,466.631,,,466.873,467.538,left,0.652,,,,,,,,,0.6,,,,,,466.631,466.873,467.538,"[-0.10224556356324115,0.15542578268786697]",4.0,"[-0.10894729278709069,0.03985462258579259]",4.0,"[-0.041269241877175365,-0.01973196272422154]",4.0,"[0.0715073221800971,0.05296123136645826]",4.0,"[-0.06524545125991037,-0.12990519795008404]",100.0,"[0.1792120630372203,0.000025987811319135203]",100.0,"[-0.0022188639740361865,0.156238605024051]",100.0,"[0.0608045652882626,-0.17347056617835896]",4.0,"[-0.04602909010603772,-0.08543439262424084]",100.0,"[0.013097182115483946,0.025973999336506955]",100.0,"[-0.19624410735876582,-0.022662481641506412]",100.0,"[0.06570319645544904,-0.05255643109121901]",100.0,"[-0.02666257687883279,0.19276599092485186]",4.0,"[-0.10739811689497855,-0.03270166971203044]",100.0,"[-0.02797977698980557,0.10444488451996212]",100.0,"[-0.024954760935528997,-0.19692251398790828]",4.0,"[0.16721801002399916,-0.057278312636642265]",100.0,"[-0.17831740620183306,0.016403414079502163]",100.0,"[0.1475987104355979,0.027645913177046618]",100.0,"[0.11567897029595334,0.14795805234678905]",4.0,"[0.08342830533785005,-0.12399674779332906]",4.0,"[-0.15776718356472183,-0.12265160745749211]",100.0,"[0.1819772707682738,0.05474838204506415]",4.0,"[-0.1548897164329247,-0.02326323981991841]",100.0,"[0.021498149759263223,-0.1479145092792707]",100.0,"[0.10716768004129608,0.08025172425570158]",4.0,"[-0.04871532731648706,0.043093472681587315]",100.0,"[-0.08332517688594986,0.0948734509612523]",100.0,"[0.025932125023507255,-0.08234277713098685]",100.0,"[0.13185193400325046,-0.11191609862234769]",100.0,"[0.028147506044143133,0.08947224837215462]",4.0,"[0.07796742361111059,-0.011106454738731451]",4.0,"[0.02,0.02]",468.635,0.0,43.0,43.0,34.0,1.0,,,,,,,
,,,,,,,5dd25456cc192027096069bb,6842bbcfd3a92410aca99606,2025-06-06_11h59.02.735,shape_ratio,2024.1.5,Win32,60.09615385,6842b561977af9ba9b0f87ca,,,,,,,,,,,468.636,469.133,,,469.384,469.799,right,0.399,,,,,,,,,0.6,,,,,,469.133,469.383,469.799,"[0.02343561750657529,0.1737543612063604]",100.0,"[0.07474071780753742,-0.17143026606557019]",4.0,"[0.11942459650861324,-0.07162089409677913]",4.0,"[0.16732408236309318,0.07746741176489279]",4.0,"[0.08669052635520062,-0.12959138879524942]",100.0,"[0.13617183444165204,0.113676000212743]",4.0,"[-0.18328707854585394,0.07244099137352408]",4.0,"[-0.1407033042271418,-0.12375243596277156]",100.0,"[-0.00521710439237605,-0.19893389993933425]",4.0,"[0.09488970306717048,0.009668186960949926]",4.0,"[-0.02828173488621577,-0.012199937294917963]",100.0,"[0.018159013822910512,0.10535693810260399]",4.0,"[0.18812305019805534,-0.007480561209634611]",100.0,"[-0.1137740556336081,0.10928373218330023]",4.0,"[-0.11700369121113159,-0.08969446305964122]",100.0,"[-0.14705674421297507,0.0044628848139416305]",100.0,"[0.0036686857502237396,-0.1388745149046777]",4.0,"[0.13539109134198712,0.00736562388388354]",4.0,"[-0.13642926155982493,0.06808436364329208]",4.0,"[-0.004366452294452047,-0.08503975837148856]",100.0,"[0.08812267935018428,0.08701084532086056]",100.0,"[-0.0578276313641545,-0.14682760790248792]",100.0,"[-0.09839241899847646,-0.1314637668372744]",100.0,"[0.17935828022319142,-0.049420572995684635]",100.0,"[-0.10270898546152983,-0.0038468527683404564]",100.0,"[-0.03217506072749312,0.13574755664956314]",100.0,"[0.056551782294860145,-0.080349441600675]",4.0,"[-0.1853003793577391,-0.04071966987985317]",100.0,"[-0.06722594656057453,-0.040257566917585044]",100.0,"[0.0541741243397737,0.05928916600119986]",100.0,"[0.011514733639839235,-0.03579036399481181]",100.0,"[-0.07138052334649307,0.09550426800614695]",100.0,"[0.02,0.02]",470.896,0.0,44.0,44.0,36.0,1.0,,,,,,,
,,,,,,,5dd25456cc192027096069bb,6842bbcfd3a92410aca99606,2025-06-06_11h59.02.735,shape_ratio,2024.1.5,Win32,60.09615385,6842b561977af9ba9b0f87ca,,,,,,,,,,,470.897,471.396,,,471.645,472.177,left,0.515,,,,,,,,,0.4,,,,,,471.396,471.645,472.177,"[0.003581515856548488,0.16625115989339273]",4.0,"[-0.00569416053755319,-0.05748319203105732]",100.0,"[0.16893533614492023,0.07383384132371887]",100.0,"[0.03093018269809957,-0.09443460816163053]",100.0,"[-0.08234542924947526,-0.06512649095317757]",4.0,"[0.04311591436893521,0.1371349791717342]",100.0,"[0.10379402975912944,0.0055667603308730195]",4.0,"[0.18289257303560108,-0.07914209767077846]",100.0,"[0.05168407762883219,-0.13543917536511893]",4.0,"[-0.07180590938783452,0.03607896084708757]",100.0,"[-0.1861774063405306,0.02871366516387481]",4.0,"[-0.14247575680707816,0.05449914273409184]",100.0,"[0.12289911904011232,0.12239377697091264]",4.0,"[0.18330126812582018,0.00442021096012035]",4.0,"[-0.16041592355498066,-0.08543259572210145]",4.0,"[0.006616935816174249,0.10824849792486131]",4.0,"[-0.12522045647145127,-0.12844005875027456]",4.0,"[-0.026918292002708774,0.0857530120269512]",4.0,"[0.1431789858544362,-0.11768055650916846]",4.0,"[0.0533914984437226,0.060962360971767084]",100.0,"[0.13510204907053466,-0.07480384513067376]",4.0,"[-0.016083614094506524,-0.0052142896335302755]",100.0,"[0.06961730940960677,-0.022044794642271427]",4.0,"[-0.12989390513811097,0.1319559156241394]",100.0,"[-0.06173888084519681,-0.15130814527494194]",4.0,"[-0.09051842300948407,-0.0018369081414508727]",100.0,"[0.17225428446141486,-0.038719597479169164]",4.0,"[0.09040034539427609,-0.09834829667002472]",4.0,"[-0.14087158321221832,-0.022930279488608152]",4.0,"[-0.02573411297255119,-0.10976494534782749]",100.0,"[0.04073127097292677,0.007008828570528803]",4.0,"[0.0006906186924037107,-0.1528624128052597]",100.0,"[0.02,0.02]",473.274,0.0,45.0,45.0,152.0,1.0,,,,,,,
,,,,,,,5dd25456cc192027096069bb,6842bbcfd3a92410aca99606,2025-06-06_11h59.02.735,shape_ratio,2024.1.5,Win32,60.09615385,6842b561977af9ba9b0f87ca,,,,,,,,,,,473.274,473.773,,,474.022,474.887,left,0.85,,,,,,,,,0.45,,,,,,473.773,474.022,474.887,"[0.056617247088075986,0.14438140779924485]",100.0,"[-0.17016492861374483,-0.013827098474346109]",4.0,"[-0.007714557813946037,-0.17161263002674196]",4.0,"[0.058781388015732884,-0.03649123160494637]",100.0,"[-0.07530400126468466,-0.03375823610505705]",100.0,"[0.03717510968989462,0.06364494526711567]",100.0,"[0.07259372711838631,-0.17904504362077572]",4.0,"[-0.10406802284671575,0.049085167586253496]",100.0,"[0.03839801883204409,-0.14497973645370454]",4.0,"[0.14133450274112985,-0.0894172643524979]",4.0,"[0.16972846590982357,-0.011107678942715717]",4.0,"[-0.07919034640043389,-0.1539217227951669]",4.0,"[-0.17305249922241914,0.07907209213159931]",4.0,"[0.10110397034458651,0.14756428533777216]",100.0,"[-0.1230309035178437,0.10074985081789536]",100.0,"[0.02380093955556773,0.19590471451393404]",100.0,"[-0.09673163471440231,0.17202831899989446]",4.0,"[-0.0032463086488198362,-0.03844626942407982]",4.0,"[-0.02120800166324001,0.061663691427885026]",100.0,"[0.08728005752530144,0.005745035019256558]",100.0,"[0.11888452614256308,0.0896429953075836]",100.0,"[-0.07990539017415517,-0.10197110507978951]",4.0,"[-0.12021408629667704,-0.12019755247201816]",100.0,"[-0.02472772739213254,0.12952547485091917]",100.0,"[0.014226713247621259,0.10553250442510026]",4.0,"[0.07836812598069964,0.1065582393881044]",4.0,"[0.16824728586870316,0.07189938264706529]",4.0,"[0.12126939159363788,-0.1392108816669968]",4.0,"[0.004068975712806233,0.023210281995390783]",100.0,"[-0.07528697017965846,0.08965528955230188]",4.0,"[-0.17326851289452616,-0.09539140364330691]",4.0,"[-0.041012626705318,0.19208073640481102]",4.0,"[0.02,0.02]",475.984,0.0,46.0,46.0,147.0,1.0,,,,,,,
,,,,,,,5dd25456cc192027096069bb,6842bbcfd3a92410aca99606,2025-06-06_11h59.02.735,shape_ratio,2024.1.5,Win32,60.09615385,6842b561977af9ba9b0f87ca,,,,,,,,,,,475.984,476.484,,,476.733,477.132,right,0.386,,,,,,,,,0.9,,,,,,476.484,476.733,477.132,"[0.0420016723830589,-0.06066161464844984]",100.0,"[-0.024161971165093974,0.1267543212558283]",100.0,"[-0.05002670006012095,-0.05665426257271911]",100.0,"[0.1559488867364217,0.00035093727617757447]",100.0,"[0.10526527638113174,-0.0346429390162447]",100.0,"[-0.10116037559237495,0.10771877055917008]",100.0,"[0.06309110217068481,0.1034761378034442]",100.0,"[-0.12249290914137409,0.06653294895799532]",4.0,"[0.11451078074816486,0.15256416368295012]",100.0,"[0.013236287607940211,0.021470888540268778]",100.0,"[0.13099609339161705,-0.08365363104073645]",100.0,"[-0.028156753722120932,0.19740720048253538]",100.0,"[-0.12738916620364962,0.15129892823804783]",100.0,"[0.06914830292701865,-0.1794799554564075]",100.0,"[-0.07871912820735874,-0.16178164445695922]",4.0,"[-0.159204756392787,0.08550151618035144]",100.0,"[-0.11976156732026826,0.025319931168606754]",100.0,"[0.07525398875270303,-0.00739144546849038]",100.0,"[-0.06819360250914279,0.1531784654492084]",100.0,"[0.11643567614892221,0.0677980236266599]",100.0,"[-0.13141036014719398,-0.06527132869850662]",100.0,"[0.014350887272759846,-0.16327257815477628]",100.0,"[-0.09089242523506885,-0.04345176872177951]",4.0,"[0.06809173147196214,0.040951227641601695]",100.0,"[-0.13959188036183867,-0.14086794275171693]",100.0,"[0.01789596933519735,0.07031622553903563]",100.0,"[0.1915729730039722,0.05002636321554887]",100.0,"[0.19647391876035547,0.0030608093173024944]",100.0,"[0.0908302188411302,-0.13160790674884001]",100.0,"[-0.19131504447582603,-0.009518338506960876]",100.0,"[-0.01612679268554353,-0.027278581743825223]",100.0,"[-0.028582511941333842,0.06748446486256288]",100.0,"[0.02,0.02]",478.23,0.0,47.0,47.0,16.0,1.0,,,,,,,
,,,,,,,5dd25456cc192027096069bb,6842bbcfd3a92410aca99606,2025-06-06_11h59.02.735,shape_ratio,2024.1.5,Win32,60.09615385,6842b561977af9ba9b0f87ca,,,,,,,,,,,478.231,478.729,,,478.979,479.411,left,0.418,,,,,,,,,0.1,,,,,,478.729,478.979,479.411,"[-0.05628466131407378,-0.12419600352669677]",100.0,"[0.030337955185762534,0.08449432161142884]",4.0,"[-0.15102091930243788,-0.006686664892705205]",4.0,"[0.0033399852124784916,0.004982667107075471]",4.0,"[0.037993862727173075,-0.09619231956628183]",4.0,"[-0.011173013625265075,0.12402598466725598]",4.0,"[-0.12817346531708887,-0.10897844868885495]",4.0,"[-0.1313142447911532,0.09435215356886292]",4.0,"[0.19476185800613893,-0.03114066514384458]",4.0,"[-0.09973562366241999,0.05716291475385284]",4.0,"[0.06718666624803318,0.01711668429570086]",4.0,"[-0.11421672646851684,-0.06915356271047546]",4.0,"[0.09438538817928774,0.1340716125127192]",4.0,"[0.07822408372064513,-0.15340339871152286]",100.0,"[0.17178558175514078,-0.09097283990631087]",4.0,"[-0.09577358998812986,-0.016916022361771185]",4.0,"[0.15482925242303103,0.1067778069808899]",4.0,"[-0.023268512659028674,0.06845057051510806]",4.0,"[0.09511875675605153,-0.0815565113798132]",4.0,"[0.15234599473720586,-0.024970285445210443]",4.0,"[0.08426837523975003,0.08370139318037909]",4.0,"[0.00548371891213603,-0.1315573472555488]",4.0,"[-0.003053267934548209,-0.051371862468836224]",4.0,"[-0.09140636679529762,0.13440419892125963]",4.0,"[0.11842912889346517,0.05349840498347203]",100.0,"[-0.025757745534572832,0.19699267341180052]",4.0,"[0.1194269587042148,-0.13355902269017636]",4.0,"[0.04277865560397353,0.16926535187264893]",4.0,"[-0.04856730757220062,0.13827451514799374]",4.0,"[0.1636552329850915,0.02518006368077027]",4.0,"[0.002237258696055463,-0.18064156355323358]",4.0,"[-0.17125567462884117,0.09930258185433462]",4.0,"[0.02,0.02]",480.508,0.0,48.0,48.0,188.0,1.0,,,,,,,
,,,,,,,5dd25456cc192027096069bb,6842bbcfd3a92410aca99606,2025-06-06_11h59.02.735,shape_ratio,2024.1.5,Win32,60.09615385,6842b561977af9ba9b0f87ca,,,,,,,,,,,480.508,481.006,,,481.256,481.972,right,0.702,,,,,,,,,0.6,,,,,,481.006,481.256,481.972,"[-0.06461933540705606,-0.07245438748409617]",100.0,"[0.04096534341378527,-0.11827982255818434]",100.0,"[-0.02442617532811961,0.08522150608383373]",4.0,"[0.07313006259406214,-0.15734680430907783]",100.0,"[0.18926160485627266,0.04865624280508583]",100.0,"[-0.1939631023653465,-0.044763540059458005]",4.0,"[-0.05766322480289196,0.1401137861124563]",4.0,"[0.04296832538004077,0.12296711050724392]",100.0,"[0.12174999096018632,-0.12925046362432793]",100.0,"[0.17550266380551396,-0.005262327288746686]",4.0,"[-0.04262848679112032,0.04287075481880228]",4.0,"[-0.006871121758110797,0.1344870948172576]",100.0,"[0.03312094838955964,-0.19498684791900073]",100.0,"[-0.11232545340841411,0.08506766575205765]",4.0,"[-0.09525384759011657,-0.10024238760634975]",4.0,"[-0.02034681023376219,-0.1839146632464214]",4.0,"[0.06269785109683498,0.17866422301421125]",100.0,"[-0.13699341322433709,-0.041962736405663954]",4.0,"[0.0558768476453243,0.06268802149471922]",100.0,"[0.14648581582890852,-0.07567594131708226]",100.0,"[0.04541184699174889,-0.01135175342371059]",100.0,"[-0.09907024623988882,-0.02287634744210032]",100.0,"[0.018130221454418533,0.037326473054494165]",100.0,"[0.08922053822038936,0.1146815727596413]",4.0,"[-0.017727010386681005,-0.08663701464739752]",4.0,"[-0.10310467554995907,0.16060063002591096]",100.0,"[0.07275161762234192,-0.08438955446871393]",100.0,"[-0.1547895540695271,0.11958172704750054]",100.0,"[0.1647850633184037,0.08610391378586053]",4.0,"[-0.1488926131943024,0.06386981671289431]",100.0,"[-0.017107596980186473,-0.04496124555174713]",4.0,"[0.13479735957810013,0.11363227793311696]",100.0,"[0.02,0.02]",483.068,0.0,49.0,49.0,31.0,1.0,,,,,,,
