right,left,explain.started,explain.stopped,key_resp_3.keys,key_resp_3.rt,key_resp_3.duration,participant,session,date,expName,psychopyVersion,OS,frameRate,study_id,explain_2.started,explain_2.stopped,key_resp_4.keys,key_resp_4.rt,key_resp_4.duration,explain_3.started,explain_3.stopped,key_resp_5.keys,key_resp_5.rt,key_resp_5.duration,fixation.started,fixation.stopped,practice.started,practice.stopped,response.started,response.stopped,key_resp.keys,key_resp.rt,key_resp.duration,feedback.started,feedback.stopped,trials_2.thisRepN,trials_2.thisTrialN,trials_2.thisN,trials_2.thisIndex,trials_2.ran,dot_ratio,explain_4.started,explain_4.stopped,key_resp_6.keys,key_resp_6.rt,key_resp_6.duration,dotDisplay.started,dotDisplay.stopped,ITI.started,polygon_1.pos,polygon_1.edges,polygon_2.pos,polygon_2.edges,polygon_3.pos,polygon_3.edges,polygon_4.pos,polygon_4.edges,polygon_5.pos,polygon_5.edges,polygon_6.pos,polygon_6.edges,polygon_7.pos,polygon_7.edges,polygon_8.pos,polygon_8.edges,polygon_9.pos,polygon_9.edges,polygon_10.pos,polygon_10.edges,polygon_11.pos,polygon_11.edges,polygon_12.pos,polygon_12.edges,polygon_13.pos,polygon_13.edges,polygon_14.pos,polygon_14.edges,polygon_15.pos,polygon_15.edges,polygon_16.pos,polygon_16.edges,polygon_17.pos,polygon_17.edges,polygon_18.pos,polygon_18.edges,polygon_19.pos,polygon_19.edges,polygon_20.pos,polygon_20.edges,polygon_21.pos,polygon_21.edges,polygon_22.pos,polygon_22.edges,polygon_23.pos,polygon_23.edges,polygon_24.pos,polygon_24.edges,polygon_25.pos,polygon_25.edges,polygon_26.pos,polygon_26.edges,polygon_27.pos,polygon_27.edges,polygon_28.pos,polygon_28.edges,polygon_29.pos,polygon_29.edges,polygon_30.pos,polygon_30.edges,polygon_31.pos,polygon_31.edges,polygon_32.pos,polygon_32.edges,dot_size,ITI.stopped,trials.thisRepN,trials.thisTrialN,trials.thisN,trials.thisIndex,trials.ran,break_2.started,break_2.stopped,trials_3.thisRepN,trials_3.thisTrialN,trials_3.thisN,trials_3.thisIndex,trials_3.ran
subject chose diamond,subject chose dot,0.0004,52.7764,space,37.7586,,5dd3699ee73e6136c640f1cf,6844286014f0fd16d229e9b2,2025-06-07_07h56.39.079,shape_ratio,2024.1.5,Win32,40.16064257,684250e4f00cb30b92d1fa88,,,,,,,,,,,,,,,,,,,,,,,,,,,,,,,,,,,,,,,,,,,,,,,,,,,,,,,,,,,,,,,,,,,,,,,,,,,,,,,,,,,,,,,,,,,,,,,,,,,,,,,,,,,,,,,,,
,,,,,,,5dd3699ee73e6136c640f1cf,6844286014f0fd16d229e9b2,2025-06-07_07h56.39.079,shape_ratio,2024.1.5,Win32,40.16064257,684250e4f00cb30b92d1fa88,52.7783,85.4463,space,2.6513,,,,,,,,,,,,,,,,,,,,,,,,,,,,,,,,,,,,,,,,,,,,,,,,,,,,,,,,,,,,,,,,,,,,,,,,,,,,,,,,,,,,,,,,,,,,,,,,,,,,,,,,,,,,,
,,,,,,,5dd3699ee73e6136c640f1cf,6844286014f0fd16d229e9b2,2025-06-07_07h56.39.079,shape_ratio,2024.1.5,Win32,40.16064257,684250e4f00cb30b92d1fa88,,,,,,85.4466,90.5405,space,2.0716,,,,,,,,,,,,,,,,,,,,,,,,,,,,,,,,,,,,,,,,,,,,,,,,,,,,,,,,,,,,,,,,,,,,,,,,,,,,,,,,,,,,,,,,,,,,,,,,,,,,,,,,
,,,,,,,5dd3699ee73e6136c640f1cf,6844286014f0fd16d229e9b2,2025-06-07_07h56.39.079,shape_ratio,2024.1.5,Win32,40.16064257,684250e4f00cb30b92d1fa88,,,,,,,,,,,90.5956,91.0412,91.0417,91.293,91.2936,92.3465,right,0.9421,,92.3468,93.451,0.0,0.0,0.0,1.0,1.0,0.8,,,,,,,,,,,,,,,,,,,,,,,,,,,,,,,,,,,,,,,,,,,,,,,,,,,,,,,,,,,,,,,,,,,,,,,,,,,,,,,,,,,,,,
,,,,,,,5dd3699ee73e6136c640f1cf,6844286014f0fd16d229e9b2,2025-06-07_07h56.39.079,shape_ratio,2024.1.5,Win32,40.16064257,684250e4f00cb30b92d1fa88,,,,,,,,,,,93.4522,93.9533,93.9534,94.2036,94.2037,94.8555,left,0.6347,,94.8556,95.9607,0.0,1.0,1.0,0.0,1.0,0.2,,,,,,,,,,,,,,,,,,,,,,,,,,,,,,,,,,,,,,,,,,,,,,,,,,,,,,,,,,,,,,,,,,,,,,,,,,,,,,,,,,,,,,
,,,,,,,5dd3699ee73e6136c640f1cf,6844286014f0fd16d229e9b2,2025-06-07_07h56.39.079,shape_ratio,2024.1.5,Win32,40.16064257,684250e4f00cb30b92d1fa88,,,,,,,,,,,,,,,,,,,,,,,,,,,,95.9615,107.5044,space,8.5195,,,,,,,,,,,,,,,,,,,,,,,,,,,,,,,,,,,,,,,,,,,,,,,,,,,,,,,,,,,,,,,,,,,,,,,,,,,,,,,,,,
,,,,,,,5dd3699ee73e6136c640f1cf,6844286014f0fd16d229e9b2,2025-06-07_07h56.39.079,shape_ratio,2024.1.5,Win32,40.16064257,684250e4f00cb30b92d1fa88,,,,,,,,,,,107.5301,108.0294,,,108.2685,108.6812,right,0.3776,,,,,,,,,0.6,,,,,,108.03,108.2685,108.6819,"[-0.0662805529715848,0.06846806541772682]",100.0,"[0.04757237307998239,0.10977953279667785]",4.0,"[0.1279729505138588,0.1227518272496321]",100.0,"[-0.006575687058014546,-0.067631087744834]",4.0,"[-0.10648054570777883,-0.10498966361142825]",100.0,"[-0.17913030542411135,-0.0022751038452325633]",4.0,"[0.1560963590136879,0.0911223785892197]",4.0,"[-0.045089091232281726,0.0033154994020161066]",100.0,"[0.0333399258612793,0.07036101540245984]",100.0,"[-0.02349069023746316,0.10656339031429035]",4.0,"[0.12646910976494596,0.061627678261109535]",100.0,"[0.19082170102109858,0.015331314832165469]",100.0,"[-0.1617029889710289,0.10301082011307171]",100.0,"[-0.02595904551085112,0.152852729430906]",4.0,"[-0.04908176320943603,-0.091457192526573]",100.0,"[0.08415770568273422,-0.0027201971398132046]",100.0,"[-0.028387865883265775,0.04211324124252327]",100.0,"[0.014792703870383115,-0.02209412607525773]",4.0,"[0.03396881327332361,-0.17175763182348183]",4.0,"[0.16403577762476043,-0.09601026393751982]",100.0,"[-0.024404173993821655,-0.14976487517784629]",4.0,"[0.15441380291127765,-0.007652367264598356]",100.0,"[-0.13688517240489997,-0.057786462337526975]",100.0,"[0.010819268946946297,0.19313473914338727]",4.0,"[0.1851465429020743,-0.05919278611881987]",100.0,"[0.027294833616956282,0.021847138431365865]",4.0,"[0.08756638005417407,-0.14262155468584484]",100.0,"[0.07709322521728089,-0.0445135962566716]",100.0,"[-0.1203921016092538,0.0352842500300458]",4.0,"[0.12379939089006302,-0.08082978979209401]",4.0,"[0.09913741837594846,0.1712060382444143]",100.0,"[-0.06922169605248794,0.12613890678850925]",100.0,"[0.02,0.02]",109.7861,0.0,0.0,0.0,37.0,1.0,,,,,,,
,,,,,,,5dd3699ee73e6136c640f1cf,6844286014f0fd16d229e9b2,2025-06-07_07h56.39.079,shape_ratio,2024.1.5,Win32,40.16064257,684250e4f00cb30b92d1fa88,,,,,,,,,,,109.7869,110.288,,,110.5273,110.9897,right,0.4291,,,,,,,,,0.55,,,,,,110.2881,110.5272,110.9898,"[-0.025442085073470705,-0.12365180661737755]",100.0,"[-0.10148441839283354,-0.040744341713785215]",4.0,"[-0.10004047720952047,0.009480815955838004]",4.0,"[0.15343519505030473,0.11746827690078333]",100.0,"[0.11989711068089504,-0.059613363323938046]",4.0,"[-0.1383067823479242,0.11428004011372157]",4.0,"[-0.15494567753367,0.046358458676643045]",100.0,"[0.1348621229824274,0.01223768938107461]",100.0,"[-0.0061741151677025905,-0.1699750378702291]",100.0,"[0.08098873281203543,0.1002403414591753]",100.0,"[0.0016503273070341631,-0.03515496909175839]",4.0,"[0.07794382731199886,0.02518733490393016]",100.0,"[-0.0009383615761292313,0.005256098521706862]",4.0,"[0.135679610349738,0.055247093701525404]",100.0,"[-0.04851725734835636,-0.18012827868253112]",100.0,"[-0.008612761283734552,0.05626297437133582]",100.0,"[0.03972272825089088,-0.17705502175827195]",100.0,"[-0.09082051701521061,-0.10137421122419465]",100.0,"[0.040966650546207524,0.1780344015760902]",100.0,"[-0.009404513443607059,0.19373560083019242]",4.0,"[0.04981453221225029,0.06281215547260106]",4.0,"[-0.03604693918524877,0.12362743416447837]",100.0,"[-0.05861247980856187,0.019393659143533235]",100.0,"[-0.09391825950461556,0.12520132621460253]",100.0,"[0.16243100085576595,-0.09569394657676694]",4.0,"[0.061352946482157354,-0.01995551605786076]",4.0,"[0.011380686715924368,-0.08129967499002917]",100.0,"[-0.07388983975376326,0.06136805249734632]",4.0,"[-0.14241582113455709,-0.10310900792997171]",100.0,"[0.167271796066114,-0.04962945929288299]",4.0,"[-0.11268584571365349,-0.14866921039337536]",4.0,"[-0.19044573918627836,-0.012287519758366165]",4.0,"[0.02,0.02]",112.0948,0.0,1.0,1.0,60.0,1.0,,,,,,,
,,,,,,,5dd3699ee73e6136c640f1cf,6844286014f0fd16d229e9b2,2025-06-07_07h56.39.079,shape_ratio,2024.1.5,Win32,40.16064257,684250e4f00cb30b92d1fa88,,,,,,,,,,,112.0956,112.5965,,,112.8481,113.1731,left,0.3021,,,,,,,,,0.4,,,,,,112.5966,112.8481,113.1731,"[-0.06988316680052035,-0.03245544624153517]",4.0,"[0.0457083821181167,-0.0007174313409665185]",4.0,"[-0.1503720030444182,0.017293836638202824]",4.0,"[-0.0575398585295383,-0.08738919997252736]",4.0,"[0.14443663012454758,-0.01111855361112764]",100.0,"[0.03953360619064903,-0.17993511210588295]",100.0,"[-0.011057070756779103,-0.1254772944942815]",4.0,"[0.18590900787816353,0.0009184040583276168]",4.0,"[-0.03263552384966103,0.07075083857177834]",100.0,"[0.04723335356707743,0.11528677578503747]",100.0,"[0.11128211270895871,-0.08428320695064749]",4.0,"[-0.04356900930478132,0.14344391256492015]",4.0,"[-0.07921882587065654,0.06288268288330272]",100.0,"[-0.16311776868711145,-0.09604282883262664]",4.0,"[-0.05763193462985916,-0.18109996092284594]",100.0,"[0.16911659653299474,0.046362113460166644]",100.0,"[0.13056822182073308,-0.14683675103302554]",4.0,"[-0.1761968331027731,-0.02560644690106102]",4.0,"[0.1662549164243818,-0.08167610657105127]",4.0,"[0.09267176697153508,0.1469323067414071]",4.0,"[-0.10402955442894667,0.023402848542014732]",4.0,"[-0.018511671896226736,-0.02963825656435269]",100.0,"[-0.13172239080135864,-0.029235618324677713]",100.0,"[-0.12356641063623347,-0.15044999060107403]",100.0,"[0.010650257094607391,0.04870946511793166]",4.0,"[-0.033927583541212974,0.01741803010031615]",4.0,"[0.11660176438431338,0.10031495609153589]",100.0,"[0.16936605656304285,0.09492848299390218]",100.0,"[0.05421075231271974,-0.05215230238533504]",4.0,"[-0.15363115243574926,0.09448426577775211]",4.0,"[-0.07258604707120947,-0.12518791562630177]",4.0,"[0.0768151131733573,0.04252762388974511]",100.0,"[0.02,0.02]",114.277,0.0,2.0,2.0,176.0,1.0,,,,,,,
,,,,,,,5dd3699ee73e6136c640f1cf,6844286014f0fd16d229e9b2,2025-06-07_07h56.39.079,shape_ratio,2024.1.5,Win32,40.16064257,684250e4f00cb30b92d1fa88,,,,,,,,,,,114.2775,114.7787,,,115.0311,115.2055,right,0.1503,,,,,,,,,0.4,,,,,,114.7787,115.031,115.2056,"[-0.13578820805375963,-0.08889684720572653]",4.0,"[0.07120487413196501,0.04762076052294724]",4.0,"[-0.11913215697798199,0.046523877750134265]",100.0,"[0.1595506221794975,0.07658119994094806]",100.0,"[-0.057437447841602034,0.03809198742585321]",100.0,"[-0.16550539475986667,-0.061862765922784724]",4.0,"[0.0871561351909982,-0.08565376189113226]",4.0,"[-0.16050459700164066,0.08781482639117294]",100.0,"[-0.031838590700738204,-0.10659206568698068]",4.0,"[-0.115691701216238,-0.1473365898416504]",100.0,"[0.13552935936770172,0.030312068145550132]",100.0,"[0.14118016993884674,-0.029646806963254793]",4.0,"[0.08857010012865273,-0.005104470827127899]",4.0,"[0.13612691178817282,0.10965659728655185]",4.0,"[-0.03171338165018673,0.11254059574763679]",4.0,"[0.044939056603059226,-0.06725174181954136]",4.0,"[-0.003482119269559044,-0.04272438909792795]",4.0,"[-0.03298017800647971,-0.19060747039210696]",4.0,"[-0.06227314108392391,0.17522708220865751]",4.0,"[-0.06372431990521249,-0.04674741181641454]",4.0,"[-0.010493358049162916,-0.14307795538240817]",100.0,"[-0.1099426357662403,0.08687926954492335]",100.0,"[-0.0797915409486738,-0.10823512368299651]",100.0,"[-0.004226179223740272,0.14534086031110333]",100.0,"[0.11795612540240534,-0.15963901564911012]",100.0,"[0.08071323267887714,0.1791746701126877]",4.0,"[0.0388085352634627,0.07512841448804645]",100.0,"[-0.09356940789316642,-0.0033063301606163224]",100.0,"[-0.15114265190371728,0.005605635075356378]",4.0,"[-0.0036689588240462613,0.025959721653291704]",4.0,"[0.13198888516476598,-0.09536377655493401]",4.0,"[0.17997433150540032,-0.0775327357851593]",4.0,"[0.02,0.02]",116.3094,0.0,3.0,3.0,150.0,1.0,,,,,,,
,,,,,,,5dd3699ee73e6136c640f1cf,6844286014f0fd16d229e9b2,2025-06-07_07h56.39.079,shape_ratio,2024.1.5,Win32,40.16064257,684250e4f00cb30b92d1fa88,,,,,,,,,,,116.3101,116.8114,,,117.0628,117.3645,right,0.2775,,,,,,,,,0.1,,,,,,116.8115,117.0627,117.3648,"[-0.06423292386997431,0.019650974414631123]",4.0,"[-0.15243619405096956,-0.09249624237915205]",4.0,"[-0.1467793355297801,0.07005450350114857]",4.0,"[-0.01195661308240222,0.07294159965921773]",100.0,"[0.0724250159350685,0.11765338995845495]",4.0,"[0.10601917710661476,0.014772494557884779]",4.0,"[-0.18060062712075658,0.02563049901044591]",4.0,"[-0.13963780221503044,-0.13188136653866644]",4.0,"[0.16164058831869912,0.061818458429160034]",4.0,"[0.022852226745851266,-0.07273590918198412]",4.0,"[0.11754396592851371,0.07359692447060963]",4.0,"[-0.00812272628847803,-0.1802313230559061]",4.0,"[0.07597002810547568,-0.016831130873887275]",4.0,"[-0.13686130695468435,-0.032086330655511607]",4.0,"[-0.06229174894415078,-0.09108430454997807]",4.0,"[0.08121082961700404,-0.1349972359181136]",4.0,"[0.06410829333489607,0.17315437203246775]",4.0,"[0.0170658598481062,0.16292996718905214]",4.0,"[-0.015502277051032643,0.018610203710474792]",4.0,"[0.16430285326637242,-0.03488334162186308]",4.0,"[0.09825472256524047,-0.05881738382009362]",4.0,"[-0.06909967158331448,-0.13973312949839328]",4.0,"[0.11845386194683903,0.12064106316073478]",4.0,"[0.03345743093379007,0.013371382221526595]",4.0,"[-0.005259860448980754,-0.13705586731469324]",4.0,"[-0.1764578095769781,-0.057176674200939276]",100.0,"[0.0358259250300694,-0.13487708976225687]",4.0,"[-0.14381714233838716,0.1351332996147523]",100.0,"[0.1511339965591862,0.008965900841022553]",4.0,"[-0.08955886734634731,0.11645370261010242]",4.0,"[-0.10142805394886495,-0.10498834326009791]",4.0,"[-0.032779732638252665,-0.050921010808982904]",4.0,"[0.02,0.02]",118.4681,0.0,4.0,4.0,181.0,1.0,,,,,,,
,,,,,,,5dd3699ee73e6136c640f1cf,6844286014f0fd16d229e9b2,2025-06-07_07h56.39.079,shape_ratio,2024.1.5,Win32,40.16064257,684250e4f00cb30b92d1fa88,,,,,,,,,,,118.4688,118.97,,,119.2226,119.6478,left,0.4054,,,,,,,,,0.45,,,,,,118.97,119.2224,119.6481,"[-0.06825654337703468,0.18013162330491173]",100.0,"[-0.09598163851033374,-0.06541889843094333]",100.0,"[0.01942076215227376,-0.007565163481342341]",4.0,"[-0.10205700048612677,-0.16076536717936468]",100.0,"[0.07706683361439419,-0.1478051629129059]",4.0,"[-0.01323948587924405,0.11676297435548197]",4.0,"[0.04327291736181384,-0.08945274950189062]",100.0,"[0.05427729581585861,-0.028992787872797163]",4.0,"[0.10162250558825764,-0.05724479682418274]",4.0,"[0.14178306380417321,-0.10773765798385058]",100.0,"[-0.08209374850057724,0.06152885217158959]",100.0,"[0.19765291585124042,-0.026376174864310067]",4.0,"[0.14874636702461783,-0.04445428986726235]",100.0,"[0.1394522684411981,0.018154500047323725]",4.0,"[-0.19675282880397343,0.0023885730672900925]",4.0,"[0.07844333652080795,0.181406110961196]",4.0,"[0.050146016952447185,0.04100051630575059]",100.0,"[-0.15707968967320263,-0.08806081342673214]",4.0,"[0.02504555604399331,0.13789720732373906]",4.0,"[0.08661772864339165,0.07652551782749926]",4.0,"[-0.03876828638632276,-0.14621721250061506]",4.0,"[-0.1052033556110954,0.10275789737179478]",4.0,"[-0.12661612388483706,-0.023280758241911396]",100.0,"[-0.0226807116429761,0.17349402093764488]",100.0,"[0.10145098427210664,-0.007628202485990874]",4.0,"[-0.145113824112727,0.12216092966715117]",4.0,"[0.12187806537875806,-0.1520397696473673]",4.0,"[-0.03645933647385329,-0.08166515840402958]",100.0,"[-0.13536929642727016,0.07282226665561926]",100.0,"[-0.11109011459322532,0.16513790087322475]",100.0,"[-0.10397428533846571,0.014275667287759424]",100.0,"[-0.022381402224691007,0.0702295740107415]",4.0,"[0.02,0.02]",120.7507,0.0,5.0,5.0,143.0,1.0,,,,,,,
,,,,,,,5dd3699ee73e6136c640f1cf,6844286014f0fd16d229e9b2,2025-06-07_07h56.39.079,shape_ratio,2024.1.5,Win32,40.16064257,684250e4f00cb30b92d1fa88,,,,,,,,,,,120.7512,121.253,,,121.4932,121.705,right,0.1803,,,,,,,,,0.6,,,,,,121.253,121.4931,121.7052,"[0.04555018154548932,0.09791475957845283]",4.0,"[0.18281734943399672,0.06721622797178192]",4.0,"[0.0594088594316023,-0.1346549909031019]",100.0,"[0.04397173795583264,0.1826039552790476]",4.0,"[-0.06830434113329499,0.044126324643077426]",100.0,"[0.053543112169876075,-0.19123667993269725]",100.0,"[-0.04633699715606317,0.19363820520265895]",4.0,"[0.15056342965440492,-0.06028755454030801]",4.0,"[0.08470822244765348,0.08577146764270872]",4.0,"[-0.14456941595022765,-0.07780494326776814]",4.0,"[-0.14415535438157745,-0.01019402155325365]",100.0,"[-0.00814854757082618,0.1750456323471828]",100.0,"[-0.07911936583573588,0.15470503660452165]",100.0,"[-0.03639821462601966,-0.1758564613061142]",100.0,"[-0.12218764714316223,-0.1503295317410264]",4.0,"[0.18257029715894346,-0.01995873374696035]",4.0,"[-0.09205831444004402,0.10078822091968535]",100.0,"[0.0038769896458128675,0.10105495600130616]",100.0,"[-0.18598341569999352,0.044119039930761494]",4.0,"[0.04996906959096068,0.05529358598812518]",100.0,"[-0.05761574354149373,-0.07069931781726965]",4.0,"[-0.023504493281753042,0.004685496122458927]",100.0,"[-0.006084552370964176,0.053524413126882525]",4.0,"[0.08956396558336215,0.004531902059320123]",100.0,"[-0.14306970333138125,0.044632590888783866]",100.0,"[0.019180804972023107,-0.010831535183128542]",100.0,"[-0.1600247987835328,0.09920446519853332]",100.0,"[-0.1627048548028496,-0.11519319123884718]",100.0,"[0.0871537200784788,0.13444881540098075]",100.0,"[-0.022246419725701655,-0.12959242243588892]",100.0,"[-0.07281467790984633,-0.03152177144431347]",4.0,"[-0.060615198467128956,-0.11659088736230815]",100.0,"[0.02,0.02]",122.8084,0.0,6.0,6.0,41.0,1.0,,,,,,,
,,,,,,,5dd3699ee73e6136c640f1cf,6844286014f0fd16d229e9b2,2025-06-07_07h56.39.079,shape_ratio,2024.1.5,Win32,40.16064257,684250e4f00cb30b92d1fa88,,,,,,,,,,,122.8089,123.3106,,,123.5494,124.3893,right,0.8038,,,,,,,,,0.6,,,,,,123.3106,123.5493,124.3893,"[-0.11236146849440475,-0.017316959507327683]",4.0,"[0.07958430279121091,-0.13917208702688766]",100.0,"[-0.10534230544541234,-0.16016167984242247]",100.0,"[-0.03989697170910429,-0.1532809163944402]",4.0,"[-0.1317373483355117,0.05472232856849822]",100.0,"[-0.06431538464538582,-0.18721227477099037]",100.0,"[-0.04399247907398153,-0.07597479363004724]",100.0,"[-0.026390549183007553,0.03679004731459417]",4.0,"[-0.1470002103025124,-0.05821115620195721]",100.0,"[-0.030680422317696923,0.09074963378689455]",4.0,"[0.18213552925807389,-0.06016455924597813]",4.0,"[-0.023178242696364138,0.16399687736046586]",100.0,"[0.015507651306701571,0.011860124621071047]",100.0,"[0.10815266626405391,0.134689768523952]",100.0,"[0.09902687441624664,-0.027063390933496054]",4.0,"[-0.013166196420416146,-0.10569228905929688]",100.0,"[0.1561574637135895,-0.11829610094285767]",100.0,"[0.045699626456038644,0.1753320729928031]",100.0,"[-0.07314185023487334,-0.11115981828766022]",4.0,"[0.1292517293697743,0.05729969626468083]",100.0,"[-0.09866487778060011,0.126206878143555]",4.0,"[0.06466249914007892,0.010668736708685605]",4.0,"[0.04941831982886641,-0.07150707660608754]",4.0,"[0.13970356493417907,-0.009084257853655459]",100.0,"[-0.08606404665364085,0.17041527269826848]",100.0,"[0.06820385428228594,0.060826188259448855]",100.0,"[-0.006813252478876625,-0.19571847212643698]",100.0,"[-0.11100939609028003,-0.07827285163776528]",4.0,"[0.016091908263681516,-0.16111468588588243]",4.0,"[-0.15404191797835842,-0.12338211118989298]",4.0,"[0.01454247741151646,-0.033766883219926644]",100.0,"[-0.16406327324015704,0.026600368762123416]",100.0,"[0.02,0.02]",125.4938,0.0,7.0,7.0,51.0,1.0,,,,,,,
,,,,,,,5dd3699ee73e6136c640f1cf,6844286014f0fd16d229e9b2,2025-06-07_07h56.39.079,shape_ratio,2024.1.5,Win32,40.16064257,684250e4f00cb30b92d1fa88,,,,,,,,,,,125.4943,125.996,,,126.2468,127.1496,left,0.8791,,,,,,,,,0.55,,,,,,125.9961,126.2467,127.1498,"[0.0971279378529853,0.10138543430296396]",4.0,"[-0.029209055501671778,-0.18425836280850516]",100.0,"[-0.17318146823897348,-0.0354627280621699]",100.0,"[-0.14519223992601493,-0.13270108845009618]",100.0,"[0.08177501877831596,-0.07626035434077712]",4.0,"[0.047898972677816516,0.18518225048972997]",100.0,"[0.1645106159198699,0.07961137363976195]",4.0,"[0.11918608172313123,0.014336947491499413]",4.0,"[-0.05633406036274505,-0.1207966001775182]",4.0,"[0.03296792744333912,0.0041228407518653165]",4.0,"[-0.08277651113790045,0.11356599480298206]",100.0,"[-0.06892118982160222,-0.16305261224167256]",100.0,"[-0.11261949941924353,-0.10684333814372415]",100.0,"[-0.14112481448210087,0.13299564627316834]",4.0,"[0.06237962435022678,-0.11359654210408068]",100.0,"[0.19675346476770855,-0.007501753148953111]",4.0,"[0.14332574510152177,-0.09623691782913298]",100.0,"[-0.09984355517102904,-0.061137215280227475]",100.0,"[-0.06908504317153241,-0.0007078554894605388]",100.0,"[0.06266016720380335,-0.1700336867552268]",100.0,"[-0.15250236374674558,0.09237118610344465]",100.0,"[0.035112743501353724,0.04544704324870292]",4.0,"[-0.028707192614635026,0.07345772028383415]",4.0,"[-0.05228420603253307,-0.04842542932597709]",100.0,"[0.1265257896678597,-0.13702245038943536]",4.0,"[-0.006264543320997955,-0.004938565238609674]",4.0,"[-0.015148987495165746,0.19635620004447404]",100.0,"[-0.0032496685944757644,-0.0623909422167438]",100.0,"[-0.18862482197822994,0.007633545366135084]",4.0,"[0.1134159093277142,0.06446680788570114]",4.0,"[-0.1513025601463118,0.051175248962523616]",100.0,"[0.15655312815735567,0.032714943552044455]",100.0,"[0.02,0.02]",128.2539,0.0,8.0,8.0,62.0,1.0,,,,,,,
,,,,,,,5dd3699ee73e6136c640f1cf,6844286014f0fd16d229e9b2,2025-06-07_07h56.39.079,shape_ratio,2024.1.5,Win32,40.16064257,684250e4f00cb30b92d1fa88,,,,,,,,,,,128.2545,128.7557,,,129.0126,129.6345,right,0.6006,,,,,,,,,0.5,,,,,,128.7558,129.0126,129.6346,"[-0.020986120129782196,-0.08911958758382647]",4.0,"[0.0025019069926405547,0.1962389858994864]",100.0,"[0.06018855519740161,-0.18441161617035606]",4.0,"[0.06764796355498756,0.12981396051741645]",4.0,"[0.059240921105752666,-0.05836837446527253]",4.0,"[-0.0646101573573775,-0.023335297583616108]",4.0,"[-0.09168644720308533,0.01748044608788496]",4.0,"[-0.029283857988633998,-0.004248655768961436]",100.0,"[-0.033314425528665446,-0.19284611988242573]",4.0,"[-0.18623230663690568,0.038187336986686984]",100.0,"[0.12977432789479032,-0.09943709871760668]",100.0,"[0.022945256695865234,0.07362056993540016]",4.0,"[-0.05530217005907594,0.10767594671229128]",100.0,"[-0.18196139279085194,-0.017575601029706706]",100.0,"[0.1905731081156102,0.01096305971633663]",4.0,"[0.11655788879835838,-0.037909680162099765]",100.0,"[-0.12946880413709444,0.11911223000347093]",100.0,"[-0.04212661726968512,0.18932203702248818]",100.0,"[0.16698969733387103,-0.037353766264576635]",100.0,"[-0.13357205708389353,-0.08472306831801721]",100.0,"[0.10482160545252686,0.16985960884575296]",4.0,"[0.024247978223177397,0.030726572385761344]",4.0,"[-0.08666729365350663,-0.15192555425747853]",4.0,"[-0.11891354344251519,-0.04646317350281922]",4.0,"[0.1348135548630542,0.09141758917582248]",100.0,"[0.053374486695129085,0.18757523998492404]",100.0,"[-0.050643361881152524,0.05982526736224936]",100.0,"[0.03498558069165183,-0.1404376231208608]",4.0,"[-0.0569061744103195,-0.10783500273817412]",100.0,"[-0.10217950046644575,-0.11170611717203774]",4.0,"[-0.08857544148335522,0.13420448495703133]",100.0,"[0.13339212133814263,0.017638512977828216]",4.0,"[0.02,0.02]",130.7382,0.0,9.0,9.0,90.0,1.0,,,,,,,
,,,,,,,5dd3699ee73e6136c640f1cf,6844286014f0fd16d229e9b2,2025-06-07_07h56.39.079,shape_ratio,2024.1.5,Win32,40.16064257,684250e4f00cb30b92d1fa88,,,,,,,,,,,130.7388,131.2412,,,131.8382,132.1934,left,0.3307,,,,,,,,,0.9,,,,,,131.2412,131.8382,132.1936,"[-0.07931530276824462,0.05782459362258499]",4.0,"[-0.16900612853114172,-0.058328844212604154]",100.0,"[0.10038942791998351,-0.15438718554587294]",100.0,"[0.0846164222892083,-0.11547290034539273]",100.0,"[0.1695962219411584,-0.006501640008559178]",100.0,"[0.06388398596037786,0.16515859760529464]",100.0,"[0.0367228802136269,-0.16111249169262695]",100.0,"[-0.0159318061239692,0.06820812108996901]",100.0,"[-0.00638709211703955,-0.12801235813410178]",100.0,"[-0.011127050979703021,-0.18428314037900162]",100.0,"[-0.0680923129963506,-0.08899572544798838]",100.0,"[-0.1154168200725808,0.017876372375628738]",100.0,"[-0.13495785665042465,0.07145862648152518]",100.0,"[0.009335004243286036,-0.055545154292280595]",100.0,"[-0.18376662621995568,0.061274561130663076]",100.0,"[0.1356914202442741,0.1413991607268776]",100.0,"[0.14017834460635306,-0.11493354819739637]",100.0,"[-0.1803292070098,-0.006820012705399491]",100.0,"[0.11240819225700233,-0.04400174871022873]",100.0,"[0.026105481624319644,0.037345670403504005]",100.0,"[-0.040170529513450265,0.03444842755896822]",4.0,"[0.10883569538903012,0.011602931815144017]",4.0,"[-0.12201500033606838,0.13132780612288503]",100.0,"[0.06555051868609021,-0.07662075572506631]",100.0,"[0.08557446330138847,0.1275108557209803]",100.0,"[-0.0508315401644296,-0.04723423593640144]",100.0,"[-0.009400807143486978,-0.004392549853901096]",100.0,"[-0.07379223241404949,-0.1807399422652677]",100.0,"[0.014179890584929059,0.15762214285895465]",100.0,"[-0.14600373655040516,-0.1284461238121028]",100.0,"[0.06736003966656248,0.05148584017531838]",100.0,"[0.17907290408689733,0.03610598386737707]",100.0,"[0.02,0.02]",133.2982,0.0,10.0,10.0,13.0,1.0,,,,,,,
,,,,,,,5dd3699ee73e6136c640f1cf,6844286014f0fd16d229e9b2,2025-06-07_07h56.39.079,shape_ratio,2024.1.5,Win32,40.16064257,684250e4f00cb30b92d1fa88,,,,,,,,,,,133.2988,133.8002,,,134.0423,134.6522,right,0.5779,,,,,,,,,0.4,,,,,,133.8002,134.0422,134.6522,"[-0.06952965664803588,-0.021372150470935953]",100.0,"[0.00633793481742496,0.19276511536294538]",100.0,"[0.16499369058733673,-0.07976463460798515]",4.0,"[0.1160943017317381,-0.04251747265541312]",100.0,"[0.13641156935033058,0.1454101990168666]",4.0,"[0.10538820787004337,0.072691723224068]",100.0,"[-0.09231140246731842,-0.11897775479707287]",100.0,"[0.06674316340122527,-0.12655543421642135]",4.0,"[-0.08281646560597589,0.03460061974665144]",100.0,"[-0.0578944092229972,0.19028372388031817]",4.0,"[-0.009491638278663565,0.055412722012967076]",4.0,"[-0.1304507825766782,0.030022450836752267]",4.0,"[-0.17828563143715592,0.056073888218439234]",4.0,"[0.14896679656566894,0.0404284761213645]",4.0,"[0.014934957270025629,-0.1711443346364294]",100.0,"[-0.030410413126303503,-0.15089825790125444]",100.0,"[-0.13101130841879638,0.10772244345383289]",100.0,"[0.11366546147927975,-0.1427777802284813]",4.0,"[0.0591476089974772,0.16787738845691533]",4.0,"[-0.021703283239750563,0.10583507561605951]",4.0,"[-0.19107085248481143,-0.04080384902787459]",4.0,"[-0.05047404892262837,-0.07338694285098529]",4.0,"[-0.06428654772476204,0.07534712455204134]",100.0,"[0.03554202299655776,0.052442438247024215]",100.0,"[0.16550647959257472,-0.026268723783298406]",4.0,"[-0.0774859199089235,0.1313076727194196]",4.0,"[0.009124583338743544,0.016297785308250858]",100.0,"[-0.12287622005545523,0.1495627085331273]",4.0,"[0.06998688180493304,-0.0594745468072822]",4.0,"[-0.1788776766248865,0.014187086225763968]",4.0,"[-0.09863631693634199,-0.07393983160382639]",100.0,"[-0.023110518809351496,-0.10781015320478766]",4.0,"[0.02,0.02]",135.7565,0.0,11.0,11.0,175.0,1.0,,,,,,,
,,,,,,,5dd3699ee73e6136c640f1cf,6844286014f0fd16d229e9b2,2025-06-07_07h56.39.079,shape_ratio,2024.1.5,Win32,40.16064257,684250e4f00cb30b92d1fa88,,,,,,,,,,,135.7569,136.2586,,,136.5104,137.0617,left,0.5252,,,,,,,,,0.5,,,,,,136.2586,136.5103,137.0618,"[-0.18157474991509756,-0.06134634454129103]",100.0,"[0.16190222845263544,0.04030166306561908]",4.0,"[0.13413072118237174,-0.04184003629892819]",100.0,"[-0.0011522956514805904,0.17876889214418096]",100.0,"[-0.006397867468205022,0.09254215421129619]",4.0,"[0.0007183272742765596,0.023650586744104495]",4.0,"[0.06693927881442217,0.035148231838992246]",4.0,"[-0.10334033790825559,0.10366908591617698]",100.0,"[0.0487258384168494,-0.0525079047469231]",4.0,"[-0.17712026995341673,0.008477657499368744]",100.0,"[-0.08704429514483386,-0.16412037598938464]",4.0,"[-0.1092259634830549,-0.067450378063128]",100.0,"[0.1659319874404905,-0.07311173233998321]",100.0,"[0.016021849769986832,-0.12204757291956672]",4.0,"[-0.04836480945042487,0.08744661620903438]",100.0,"[0.0043344857282881085,-0.193683220006937]",4.0,"[-0.0344962049215016,-0.13480957535279567]",4.0,"[0.0965584390935896,-0.10444727190479318]",4.0,"[0.14566095053071382,-0.11150028099054433]",100.0,"[-0.06543867012823318,-0.014956232670279557]",100.0,"[-0.11650974788638474,0.05162887857097586]",4.0,"[-0.11189070518572032,0.1572463066898671]",100.0,"[0.0919575073873011,0.12817558865093637]",4.0,"[0.11911035117444775,-0.001844793912370262]",4.0,"[0.0902040872436406,-0.0612231488474869]",100.0,"[0.10371841986587563,-0.16383967006288863]",100.0,"[0.1462386977083481,0.128164510399977]",4.0,"[0.18824959252095372,-0.009768034477484863]",100.0,"[-0.16374358863729932,0.06618264325099014]",4.0,"[-0.06698332456755778,0.0476880138324097]",100.0,"[0.007356359296801588,-0.07810317518712723]",100.0,"[0.05504497973784587,-0.003671174215398038]",4.0,"[0.02,0.02]",138.1653,0.0,12.0,12.0,100.0,1.0,,,,,,,
,,,,,,,5dd3699ee73e6136c640f1cf,6844286014f0fd16d229e9b2,2025-06-07_07h56.39.079,shape_ratio,2024.1.5,Win32,40.16064257,684250e4f00cb30b92d1fa88,,,,,,,,,,,138.1659,138.6686,,,138.9192,139.5971,right,0.6578,,,,,,,,,0.6,,,,,,138.6686,138.9191,139.5972,"[-0.0005579464052087409,0.07445008558625399]",100.0,"[0.061274592337459625,0.144951441997682]",100.0,"[0.10806436758611732,0.011635704709095612]",4.0,"[-0.08040560678447965,0.10082423655599605]",100.0,"[0.085270949397062,-0.10160659455207617]",100.0,"[-0.14011875876724283,-0.0008152818438176506]",4.0,"[0.06491958043963109,-0.03735133068953922]",100.0,"[-0.16027661637959917,-0.09517077586469169]",100.0,"[0.12227817482449028,0.14218111219650958]",100.0,"[0.17009676652243227,0.02502273417569371]",100.0,"[-0.007475146880377303,-0.07870545891205599]",100.0,"[0.09199485682344086,-0.17056249622333863]",100.0,"[-0.14630178506972824,0.10780043158990453]",4.0,"[-0.0725331696493502,-0.09976660159007791]",100.0,"[0.13637937236579864,-0.1385948174330453]",100.0,"[-0.009358828721722475,0.1853136445175736]",4.0,"[-0.08623765728671931,-0.019878868510406933]",4.0,"[0.042042366167755175,-0.07697020132133224]",4.0,"[0.013566583580210472,-0.1451743534995621]",100.0,"[0.09238084110966865,0.09820925028135301]",4.0,"[-0.03915930367060589,-0.15302323802630405]",100.0,"[-0.10427311843985942,0.020386778477777544]",100.0,"[-0.127562707610201,-0.12707417368402527]",100.0,"[0.039619720891491676,0.006848159111602268]",100.0,"[0.13899576087410995,-0.07491236816602126]",4.0,"[0.19095884867342616,-0.009543802018585937]",4.0,"[-0.016122887494835248,0.11830042749898635]",4.0,"[-0.14191407753600654,0.06226045949965504]",100.0,"[-0.13218452626460606,-0.04258757174494223]",4.0,"[-0.10205692488335513,-0.16884936596828806]",100.0,"[0.03987993122353958,0.192637889182326]",4.0,"[-0.06503169137674261,-0.18761011992250393]",4.0,"[0.02,0.02]",140.7001,0.0,13.0,13.0,59.0,1.0,,,,,,,
,,,,,,,5dd3699ee73e6136c640f1cf,6844286014f0fd16d229e9b2,2025-06-07_07h56.39.079,shape_ratio,2024.1.5,Win32,40.16064257,684250e4f00cb30b92d1fa88,,,,,,,,,,,140.7007,141.2016,,,141.4538,141.9045,left,0.4231,,,,,,,,,0.1,,,,,,141.2016,141.4538,141.9045,"[-0.040598614664847335,-0.14669536598481886]",4.0,"[0.006039042065532289,-0.1563847901397198]",4.0,"[-0.15463190739967433,-0.047456276117446225]",4.0,"[-0.06984443256949151,-0.040998644103689696]",4.0,"[0.07778994282925294,0.06751203390938754]",4.0,"[-0.03522352858307219,-0.09311479573712458]",4.0,"[-0.1888371097103727,-0.0027937944134964247]",4.0,"[0.11646292328430864,-0.037490304494708075]",100.0,"[-0.02240325584612304,0.04169014657612761]",4.0,"[0.11684546675490101,-0.1482094168794667]",4.0,"[0.03207872122131542,0.09983870822107939]",100.0,"[0.10256394276750642,0.0164557763936317]",4.0,"[0.02816083999675371,0.187448069632886]",4.0,"[0.1889984574658131,-0.026252760812758118]",4.0,"[0.060869513539305815,-0.007112453546484197]",4.0,"[-0.0770852241727191,0.1552361329529066]",4.0,"[-0.08073563997987616,-0.18055188892883625]",4.0,"[-0.13863382563585927,0.0803387737628871]",4.0,"[0.12050372580959175,0.11223534657517306]",4.0,"[-0.026007915012355227,0.12373810533246783]",4.0,"[0.04657869597892321,-0.09179315025672746]",4.0,"[-0.08021113160798686,-0.11136793996354723]",4.0,"[-0.08575490241919236,0.026690792126347115]",4.0,"[0.026247285546066722,0.03852934627063433]",4.0,"[-0.02467788195700854,-0.04481516165432388]",100.0,"[-0.16392148682969485,0.029809069023664616]",4.0,"[-0.09983474013665151,0.09221619034710075]",4.0,"[-0.12380961421557174,0.0023903966059000536]",4.0,"[0.12101437868730253,0.06747914744799843]",4.0,"[0.16811689614360445,-0.08606941723206382]",4.0,"[0.06900981131258131,0.17907301682159035]",4.0,"[0.18857946346139512,0.03842567993842746]",4.0,"[0.02,0.02]",143.0081,0.0,14.0,14.0,198.0,1.0,,,,,,,
,,,,,,,5dd3699ee73e6136c640f1cf,6844286014f0fd16d229e9b2,2025-06-07_07h56.39.079,shape_ratio,2024.1.5,Win32,40.16064257,684250e4f00cb30b92d1fa88,,,,,,,,,,,143.0088,143.5113,,,143.7615,144.2636,right,0.4734,,,,,,,,,0.55,,,,,,143.5114,143.7615,144.2637,"[0.02129150453727742,0.1654546199074938]",100.0,"[-0.04996018577429658,-0.12559578281003766]",4.0,"[-0.010245560562640322,0.0443149420631275]",100.0,"[0.09602724897280021,0.09374520832050577]",100.0,"[-0.06991313555104574,0.046317822284703096]",4.0,"[0.004784183784346276,-0.17059714779203555]",100.0,"[-0.01602893240508094,-0.0979596808904668]",4.0,"[-0.14707159346430349,-0.08548914329458784]",100.0,"[0.029732181203420673,-0.10665192823994471]",100.0,"[-0.10669963382786789,0.1454525219482104]",4.0,"[0.02104482917582299,-0.011939466926978549]",100.0,"[0.0776138305333121,-0.07265230665830794]",100.0,"[-0.07672194267862852,0.09361930637239423]",4.0,"[0.04430178787766858,0.13073167260941143]",4.0,"[-0.0331685847633915,-0.005489232406406269]",4.0,"[-0.06180204258444872,-0.16447647733198067]",4.0,"[0.16873356784268453,0.08554074221190097]",100.0,"[0.13173186267215425,-0.0760487045352159]",4.0,"[-0.0824916614746244,-0.05594163498165877]",100.0,"[0.1340156571357201,0.0379936587518434]",100.0,"[0.0926266316755708,-0.17098836235686857]",4.0,"[0.0457333720296013,-0.1940341197462801]",100.0,"[0.0415713914324487,0.036325691518904746]",100.0,"[0.1936791558543535,-0.0025997530875900093]",100.0,"[-0.11334702528752451,0.04462030455902437]",4.0,"[-0.16507037413177997,0.10386244211826086]",100.0,"[0.09683175750436376,-0.013671119448825137]",100.0,"[0.05924124204831367,-0.03543422822876507]",100.0,"[-0.15804055914606732,0.05625753560534083]",100.0,"[-0.12467189500962511,-0.013070496125915019]",4.0,"[-0.03842304960719299,0.1601294236114007]",4.0,"[-0.00863875610844413,0.09598308981967556]",4.0,"[0.02,0.02]",145.367,0.0,15.0,15.0,65.0,1.0,,,,,,,
,,,,,,,5dd3699ee73e6136c640f1cf,6844286014f0fd16d229e9b2,2025-06-07_07h56.39.079,shape_ratio,2024.1.5,Win32,40.16064257,684250e4f00cb30b92d1fa88,,,,,,,,,,,145.3677,145.8692,,,146.1202,146.4212,right,0.2799,,,,,,,,,0.4,,,,,,145.8695,146.1202,146.4212,"[0.07166077613324998,0.009215597488032778]",4.0,"[0.1016556749395143,0.12049953849313336]",4.0,"[-0.18049372322154328,-0.03160216909520581]",100.0,"[-0.12346015784947001,0.020423355175304907]",4.0,"[0.05576029069304682,0.13113210943784454]",100.0,"[-0.0411507892774714,0.021160791544721145]",100.0,"[-0.010075545144181781,0.15339848576683537]",4.0,"[-0.12968040694575605,-0.09520921545744561]",4.0,"[-0.006208844743199975,-0.13713684328833625]",4.0,"[-0.044965613241368205,0.09207135715790937]",100.0,"[0.05309004104645757,-0.028500465282921415]",4.0,"[0.08774015037587267,0.07981589477494058]",4.0,"[0.12858652390497646,0.023143644114934126]",100.0,"[-0.11120417793609938,-0.0314518822410794]",4.0,"[0.02804520648990044,-0.10675138148921362]",4.0,"[0.040302313693951264,0.1810034672018155]",100.0,"[-0.021639626940387912,-0.0664155443910584]",100.0,"[-0.08215486933312323,-0.15067646145311028]",4.0,"[0.04706467109893535,-0.15303537034865408]",4.0,"[0.13596604935613227,0.09644416004163033]",100.0,"[0.028343301902541976,0.09492997842904317]",4.0,"[-0.08152153234031256,0.06261877192977644]",4.0,"[-0.1276294606038681,0.06422861353763366]",4.0,"[-0.07810154366203094,0.13365978127360706]",100.0,"[0.0023104611949613632,0.04907007190669806]",4.0,"[0.11660793121822603,-0.03885943221902838]",100.0,"[0.17655619102490447,-0.017754464665049235]",100.0,"[0.0883814626404752,-0.1377156906377311]",100.0,"[-0.08021762382350481,0.18141700777313416]",4.0,"[0.14057911096420736,-0.13026444335573084]",4.0,"[-0.014069807903479638,-0.19575941485535706]",4.0,"[-0.05085992927019332,-0.11682858433841153]",100.0,"[0.02,0.02]",147.5256,0.0,16.0,16.0,179.0,1.0,,,,,,,
,,,,,,,5dd3699ee73e6136c640f1cf,6844286014f0fd16d229e9b2,2025-06-07_07h56.39.079,shape_ratio,2024.1.5,Win32,40.16064257,684250e4f00cb30b92d1fa88,,,,,,,,,,,147.5265,148.0266,,,148.279,148.7801,right,0.4742,,,,,,,,,0.55,,,,,,148.0267,148.2789,148.7803,"[-0.05904839312785741,0.12937389690063508]",100.0,"[0.14036977298657133,-0.04272550733862105]",4.0,"[0.09031091074768119,0.15261679915437615]",4.0,"[-0.05244250172877552,0.0042611331442807794]",4.0,"[0.09070943286207332,0.005340148976392215]",100.0,"[-0.16408142834379189,-0.06421395425584359]",4.0,"[-0.035239761931094134,-0.08501742472457083]",100.0,"[0.15945559413237373,0.08831266635818225]",4.0,"[0.05278679377371785,-0.1315474605630019]",100.0,"[0.08017822264645523,-0.05397641049016155]",100.0,"[0.007321019681418369,0.007178128866554762]",100.0,"[-0.10442058943144324,0.058317183240779995]",4.0,"[-0.08342022756642548,-0.11253414232601684]",100.0,"[-0.0010271401254904732,0.07137508299156507]",100.0,"[0.019805220310791637,0.15695835005654396]",4.0,"[-0.025107839577942243,0.1059478412163676]",100.0,"[0.18148376753639014,-0.026875787348661008]",100.0,"[0.13071400503772593,0.11997686989658445]",100.0,"[0.04969410076462945,0.05363753441459293]",100.0,"[0.17610219444507258,-0.08436925723641452]",4.0,"[0.11200213507477921,0.04450727263683298]",4.0,"[0.013988572827474307,-0.08946112850776002]",4.0,"[-0.10482168682002185,-0.15131241537160592]",4.0,"[-0.012874341935431263,-0.17598943823804444]",100.0,"[0.05220750278982989,-0.016505318333811317]",100.0,"[0.13062161719006019,-0.1379264778846047]",100.0,"[-0.03652404992693986,0.18072120429833802]",4.0,"[-0.06931432151129192,-0.04083611319381735]",100.0,"[-0.035299851745837676,-0.1331978438766436]",100.0,"[0.022053369973111196,-0.05018825774253396]",4.0,"[-0.12380212126527051,-0.018950097711462967]",4.0,"[-0.18532130026251217,0.050070041373849745]",100.0,"[0.02,0.02]",149.8842,0.0,17.0,17.0,89.0,1.0,,,,,,,
,,,,,,,5dd3699ee73e6136c640f1cf,6844286014f0fd16d229e9b2,2025-06-07_07h56.39.079,shape_ratio,2024.1.5,Win32,40.16064257,684250e4f00cb30b92d1fa88,,,,,,,,,,,149.8849,150.3864,,,150.6373,151.1139,left,0.4511,,,,,,,,,0.5,,,,,,150.3864,150.6373,151.114,"[-0.17621859045095864,0.0681759569303065]",100.0,"[-0.19050806620209748,0.0001534090277281368]",100.0,"[-0.17328987637468804,-0.08027919331145213]",4.0,"[-0.09814045543716661,0.1184068986019969]",100.0,"[-0.0862398341980827,-0.15402764197985627]",4.0,"[0.09666199825319464,0.1668930705357935]",100.0,"[-0.037128233414690716,0.012975094731395583]",100.0,"[-0.026883420977304756,0.19344842319718378]",100.0,"[-0.04337004270787359,-0.1615448534512839]",4.0,"[0.14561750075434113,0.12727492774215887]",4.0,"[0.0024274728639429115,0.11262085810460391]",100.0,"[-0.08361070430647945,0.02025299129968015]",4.0,"[0.16805205360396155,0.08502689812846743]",4.0,"[-0.13044569095632183,0.026713156665205403]",4.0,"[-0.00623787190389939,-0.18273186609131015]",100.0,"[0.1302291381597687,-0.11263139571281046]",4.0,"[0.17395005633012023,-0.0405400247781276]",100.0,"[0.10258346102222324,0.03283010950056191]",4.0,"[0.11642143957517956,0.09644541910868741]",4.0,"[0.030017249526370932,-0.16309482605833434]",100.0,"[0.04360966036902982,0.04635326048042011]",4.0,"[0.07710682339793883,-0.08951468369951421]",100.0,"[0.15214443950710588,0.004238327001606352]",4.0,"[0.11126284539929993,-0.0554042932022807]",100.0,"[0.03915068439725032,0.09318894566484916]",100.0,"[-0.0006830862023185105,-0.018115937758839396]",4.0,"[-0.06503588916404777,-0.020860131341796605]",4.0,"[0.09635495112289465,-0.15821479357007973]",4.0,"[0.07424093699193296,0.1255293692552995]",100.0,"[-0.07835837520139254,0.15657141806481722]",100.0,"[-0.09098640744494957,-0.06266977211903829]",4.0,"[-0.04243781597136874,0.09370343603328417]",100.0,"[0.02,0.02]",152.2177,0.0,18.0,18.0,103.0,1.0,,,,,,,
,,,,,,,5dd3699ee73e6136c640f1cf,6844286014f0fd16d229e9b2,2025-06-07_07h56.39.079,shape_ratio,2024.1.5,Win32,40.16064257,684250e4f00cb30b92d1fa88,,,,,,,,,,,152.2183,152.7192,,,152.9707,153.3727,right,0.375,,,,,,,,,0.55,,,,,,152.7192,152.9706,153.3728,"[-0.002194695451153572,-0.18222919744316146]",4.0,"[-0.09579393791386086,0.068709037734402]",100.0,"[0.0013335029386060838,0.0781616789183469]",100.0,"[0.12393125820412769,0.14759659581387446]",4.0,"[0.13267144653043775,0.004858848289331835]",4.0,"[0.06267177129670058,0.016282894923565782]",100.0,"[0.15515858759599876,0.04881469416063695]",4.0,"[-0.15511975341626408,-0.029922771107056014]",100.0,"[-0.052467707659704,0.1455383489437855]",100.0,"[0.06659550986324829,-0.04858047826774947]",100.0,"[-0.05140614156349392,-0.01560189157861882]",4.0,"[0.03515725918131801,-0.11134649624118595]",100.0,"[-0.11523036317246567,-0.10765357205113825]",100.0,"[0.1159184116205837,0.0950179259901826]",100.0,"[0.04218748605598345,0.18206695822615543]",100.0,"[0.041236970062003296,0.11548547348967846]",4.0,"[-0.12038916145425485,-0.06388898391225584]",4.0,"[0.10359517216240059,-0.16875233190662406]",4.0,"[-0.16853240179556586,0.0307054831732455]",4.0,"[-0.0014356117594824913,-0.0734343723272232]",4.0,"[0.003103916272399576,-0.02302677610366491]",100.0,"[-0.0389848052641164,0.06815516251457876]",4.0,"[-0.12617153220163627,0.09712363859108665]",100.0,"[-0.019470166701838414,-0.12943031415825768]",100.0,"[0.07395751628991294,-0.13378328936215103]",100.0,"[0.09756263685992196,-0.08054580499720584]",100.0,"[-0.09551531334950372,-0.0255355224810061]",4.0,"[0.14846121874003765,-0.10030282253383144]",4.0,"[-0.023805605646201322,0.030389417161969058]",100.0,"[-0.050660507521079215,-0.15989613916955916]",4.0,"[0.15224398148872847,-0.05512825422574727]",100.0,"[0.08735925048907289,0.12622166179412092]",100.0,"[0.02,0.02]",154.476,0.0,19.0,19.0,64.0,1.0,,,,,,,
,,,,,,,5dd3699ee73e6136c640f1cf,6844286014f0fd16d229e9b2,2025-06-07_07h56.39.079,shape_ratio,2024.1.5,Win32,40.16064257,684250e4f00cb30b92d1fa88,,,,,,,,,,,154.4767,154.9774,,,155.2291,155.6305,right,0.3771,,,,,,,,,0.1,,,,,,154.9774,155.2291,155.6306,"[0.055912946459700505,-0.13853275260446773]",4.0,"[0.017646837644805506,-0.006902116819285725]",4.0,"[-0.08957359243727687,-0.10563153461436925]",4.0,"[0.06669613185179371,-0.027359381703458144]",4.0,"[0.08950272648678352,0.08146551190749343]",4.0,"[-0.08903573656647858,0.006474856765891152]",4.0,"[-0.17782769451855363,0.038530748456093]",4.0,"[0.019202616088744004,-0.07850751753834447]",4.0,"[0.1820560536650614,0.055912282232384314]",100.0,"[0.10980385429262705,-0.015454131703856646]",4.0,"[-0.03945766493722307,-0.16781652577603376]",4.0,"[0.0928271375725675,-0.10652104272030612]",4.0,"[0.06300029091542897,0.17971332649058297]",4.0,"[-0.12930311619230933,-0.08532411877294147]",4.0,"[-0.01989461962678797,-0.12054611995065624]",4.0,"[0.06009405629231601,0.1300957250778805]",100.0,"[0.14766621886720896,-0.0990683548715701]",100.0,"[-0.13518476021444573,0.1428147733628312]",4.0,"[0.1931662309637303,-0.040534968936757114]",4.0,"[-0.0678379909105873,0.08933763465351915]",4.0,"[-0.14029327855641427,-0.014823030282371905]",4.0,"[-0.16990306934571636,-0.04888149364838823]",4.0,"[-0.06713714067478933,-0.06955319594825005]",4.0,"[-0.08721018020520489,0.17218566452461742]",4.0,"[-0.14187789115605162,0.10172092158114351]",4.0,"[0.010013166760349678,0.06322538822569714]",4.0,"[-0.0784825486675612,-0.1455744948755133]",4.0,"[-0.006359160988640682,0.146770925788899]",4.0,"[0.14742097133027227,0.02911369054533478]",4.0,"[0.05149208279681013,0.06283519790132865]",4.0,"[-0.17182556794048476,-0.09518448439609153]",4.0,"[0.13184071524947577,0.14022427679031763]",4.0,"[0.02,0.02]",156.7343,0.0,20.0,20.0,204.0,1.0,,,,,,,
,,,,,,,5dd3699ee73e6136c640f1cf,6844286014f0fd16d229e9b2,2025-06-07_07h56.39.079,shape_ratio,2024.1.5,Win32,40.16064257,684250e4f00cb30b92d1fa88,,,,,,,,,,,156.7349,157.2375,,,157.4881,157.9141,right,0.4025,,,,,,,,,0.55,,,,,,157.2375,157.488,157.9142,"[-0.1357704531740371,0.06333670783855122]",4.0,"[0.06786683816534349,0.04969297275616521]",100.0,"[-0.1715486592981339,-0.08205717899498124]",100.0,"[-0.009933962239405021,0.1050446012238787]",4.0,"[-0.020540804551069953,-0.19045441193423093]",4.0,"[0.15046034995602262,-0.023368390933509887]",100.0,"[-0.03204606108523514,0.02267322399560399]",100.0,"[0.053163922926523055,0.15673953075557667]",4.0,"[0.0402288355965644,-0.17136911790978218]",4.0,"[0.1646801670554351,-0.11043965996617755]",100.0,"[0.05144383339689603,-0.07090121554610464]",4.0,"[-0.07576192469281555,0.1446200984608817]",100.0,"[0.1335739528863308,0.08370905584985305]",4.0,"[-0.010423690910958069,-0.0360466169765254]",100.0,"[-0.01802600904229264,-0.13741083385268438]",100.0,"[-0.12033723983462068,-0.09679165065034472]",100.0,"[0.1012402569535238,0.16190160278315124]",100.0,"[-0.030157489176224902,0.17932423539565756]",100.0,"[-0.06401289452390785,-0.12103207414238867]",100.0,"[-0.12656232871884956,-0.030283029126166407]",100.0,"[-0.09009812321999001,-0.0544998642677915]",4.0,"[-0.15436450800691562,0.017525871324828333]",100.0,"[0.07321072147687428,-0.11032040362291537]",4.0,"[0.028922456886496764,-0.025628451196451275]",4.0,"[0.04872993999391644,0.10634278344560497]",100.0,"[0.11320622387002705,-0.1215113634910244]",4.0,"[0.18878790093949654,0.0256812779617729]",100.0,"[-0.19260926372649334,0.04502689227645846]",100.0,"[0.08675867930165186,0.012720418481304566]",4.0,"[-0.08067200964909732,0.052837658986009985]",4.0,"[-0.05877948115079748,-0.02593912435608357]",4.0,"[-0.18150029322956304,-0.037166706853525626]",100.0,"[0.02,0.02]",159.0182,0.0,21.0,21.0,83.0,1.0,,,,,,,
,,,,,,,5dd3699ee73e6136c640f1cf,6844286014f0fd16d229e9b2,2025-06-07_07h56.39.079,shape_ratio,2024.1.5,Win32,40.16064257,684250e4f00cb30b92d1fa88,,,,,,,,,,,159.0188,159.5193,,,159.7709,160.1471,left,0.3492,,,,,,,,,0.9,,,,,,159.5194,159.7708,160.1472,"[0.1287159505693198,0.023341806296945867]",100.0,"[0.10130396485125619,-0.13843210049645988]",100.0,"[-0.05979648596863312,-0.14986755492662532]",100.0,"[0.055762082605292446,-0.10300599942515659]",100.0,"[-0.13940138746627775,-0.12644339710492294]",100.0,"[0.1883040747883515,-0.05527528963055487]",100.0,"[-0.049952565485459545,0.14649210443799962]",100.0,"[-0.004736960722633736,-0.1804255876994575]",100.0,"[0.19508574933662656,0.010100050385347146]",100.0,"[-0.10258237234826108,0.16562705784234852]",100.0,"[-0.18718161714069892,0.04371345464822638]",100.0,"[-0.014225852514119598,-0.0143630245831311]",100.0,"[0.08644304664148282,0.00023545729889790933]",100.0,"[-0.01916122522054661,-0.08865492235518402]",100.0,"[-0.07691801459066791,0.06109767037643282]",100.0,"[0.06572021019309483,-0.18044024547588203]",100.0,"[-0.17345508057300366,-0.08839206599560785]",100.0,"[-0.12207719253686398,-0.06292647122925232]",100.0,"[0.062360789182516446,0.10346800611062858]",100.0,"[0.024776509781033174,0.03727080801916248]",100.0,"[0.1620685928611651,0.11631884188133144]",100.0,"[0.06550000285832833,0.14829609338394337]",4.0,"[0.07673496910210104,0.0519067551432506]",100.0,"[-0.06904679948625563,-0.09081074090947108]",100.0,"[0.17354532970439268,-0.09626596768809907]",100.0,"[0.012469642498810612,0.07964860192396782]",100.0,"[0.019825769123164576,0.1634774645265222]",100.0,"[0.1524983961397853,-0.029256421346609104]",100.0,"[-0.1403536448427023,-0.007183825023275286]",4.0,"[-0.044700203981584606,0.01941797633311974]",100.0,"[-0.13483099177700472,0.06145872910886936]",100.0,"[-0.10135207093479047,0.12050605084735513]",4.0,"[0.02,0.02]",161.2505,0.0,22.0,22.0,7.0,1.0,,,,,,,
,,,,,,,5dd3699ee73e6136c640f1cf,6844286014f0fd16d229e9b2,2025-06-07_07h56.39.079,shape_ratio,2024.1.5,Win32,40.16064257,684250e4f00cb30b92d1fa88,,,,,,,,,,,161.2512,161.7533,,,162.004,162.3798,right,0.3548,,,,,,,,,0.5,,,,,,161.7534,162.004,162.38,"[0.07889885551241553,0.12122206858125388]",4.0,"[-0.09293205599123924,0.1510747861678957]",100.0,"[-0.026016443879252577,-0.12336052773026437]",4.0,"[-0.04766461295512262,0.17744287961607275]",4.0,"[-0.12324794209413742,0.09860645105348138]",100.0,"[-0.12086979002434203,-0.027630169979538696]",4.0,"[-0.08640865726449923,-0.0772421512385567]",4.0,"[-0.06113096765768984,0.025340915508735157]",100.0,"[-0.17312360985471276,0.0516194220591459]",4.0,"[-0.045450072327708924,0.10357026105912862]",100.0,"[-0.017373096087707596,-0.03645898121626948]",4.0,"[0.020464434237693032,0.0497640413772326]",100.0,"[0.0771237136844749,0.02462147632229748]",100.0,"[0.08010143571374657,-0.1326509041385863]",100.0,"[-0.16797603495282687,-0.06342291387151738]",100.0,"[-0.08024983139962115,0.08361834854847536]",4.0,"[-0.18231930607145985,-0.01421888820171257]",4.0,"[0.1266054824324532,-0.1300204946256227]",100.0,"[0.17032519029109944,-0.04578876714871778]",100.0,"[-0.02584699490698491,0.04701008992118982]",100.0,"[-0.07330979286436601,-0.17087208703270165]",4.0,"[-0.11965566321547447,0.026071770514913693]",4.0,"[0.018157252746052597,0.1562203125099116]",4.0,"[0.09899405598579099,-0.02769601415045712]",4.0,"[0.05840920459916802,-0.17820387339873117]",100.0,"[0.01091550572518453,-0.19732512607652045]",4.0,"[0.17881048343709793,-0.08503585934971995]",4.0,"[0.04573389064181153,-0.02697350279612839]",100.0,"[-0.16103464592698707,-0.1172528791525521]",100.0,"[0.1402360251675358,0.015614621338664354]",100.0,"[0.1034858746065902,0.15927966473970007]",4.0,"[0.17637921827931907,0.03555369564111678]",100.0,"[0.02,0.02]",163.4845,0.0,23.0,23.0,97.0,1.0,,,,,,,
,,,,,,,5dd3699ee73e6136c640f1cf,6844286014f0fd16d229e9b2,2025-06-07_07h56.39.079,shape_ratio,2024.1.5,Win32,40.16064257,684250e4f00cb30b92d1fa88,,,,,,,,,,,163.4851,163.9858,,,164.2373,164.6148,right,0.3539,,,,,,,,,0.1,,,,,,163.9858,164.2372,164.6149,"[-0.09550789939038068,-0.1663683491526214]",4.0,"[-0.11033662328413937,-0.03460536361365213]",4.0,"[-0.052160163129182834,0.05027407255393783]",4.0,"[-0.060819387706271044,-0.1464267593862586]",4.0,"[-0.014696097725073371,-0.10251638967448881]",4.0,"[0.1011639047568951,-0.1632961389912106]",4.0,"[0.0006284533784540085,0.04846286144533713]",4.0,"[-0.1400510470082307,0.06847794933600643]",100.0,"[0.09036896836719943,0.05371816909079742]",4.0,"[-0.10779991361829187,-0.08521926484973688]",100.0,"[0.109623085632723,0.16164851789376183]",4.0,"[0.16557052720769666,-0.05977351706838937]",4.0,"[-0.14012012122181902,0.10961561698956894]",4.0,"[-0.013620046755735355,0.1816673356621542]",4.0,"[-0.11304073497436012,0.028028336214706774]",4.0,"[-0.1851637800878371,-0.006192386570227629]",4.0,"[0.15685495130393107,0.03761895631290246]",4.0,"[-0.03003608879756416,-0.025545239557278446]",4.0,"[0.17598624664228957,0.08978757533206166]",4.0,"[0.04175683561719912,-0.004875713165690757]",4.0,"[0.13072523088207139,-0.12290189709543932]",4.0,"[0.022732526302875446,0.11334017264722876]",100.0,"[-0.05957608149366124,0.08990432209138415]",4.0,"[0.08103736848494458,-0.11384354101500677]",4.0,"[0.013956577890089987,-0.1537349408314811]",4.0,"[-0.18063882487758104,-0.05351888382491599]",4.0,"[0.08672824616268757,-0.0016558931855860718]",4.0,"[0.05682035917404969,0.15314542610598128]",4.0,"[0.07454002797753898,-0.06830101730031071]",4.0,"[-0.06077552652129626,-0.08204131343669423]",4.0,"[-0.13358721684511934,-0.14513987768029207]",4.0,"[-0.0971905944858075,0.13715517859517332]",4.0,"[0.02,0.02]",165.7173,0.0,24.0,24.0,209.0,1.0,,,,,,,
,,,,,,,5dd3699ee73e6136c640f1cf,6844286014f0fd16d229e9b2,2025-06-07_07h56.39.079,shape_ratio,2024.1.5,Win32,40.16064257,684250e4f00cb30b92d1fa88,,,,,,,,,,,165.718,166.2205,,,166.4712,167.6253,right,1.1382,,,,,,,,,0.5,,,,,,166.2205,166.4712,167.6254,"[0.14610758146715086,-0.04849656899061178]",100.0,"[-0.19200722222586938,0.018021982726113522]",100.0,"[-0.1491958629979902,0.03442603275509003]",4.0,"[0.08164026511327852,0.02215980674352405]",4.0,"[-0.05758407864305143,-0.17823697978608494]",100.0,"[0.0733788600467847,0.06928332675208926]",100.0,"[-0.10983812931130528,0.09428724136425788]",100.0,"[0.15976571334267262,0.09180922965871875]",100.0,"[0.08699933776953188,0.15310299551206596]",4.0,"[0.17451022812796438,-0.0037677823987699094]",100.0,"[-0.08733880423619908,-0.09308643222519042]",4.0,"[0.1375542198150859,-0.09728564743416816]",100.0,"[-0.012611245078807865,0.051406626536906024]",4.0,"[-0.007809501466982825,-0.08261920286584695]",4.0,"[-0.07068789122443904,-0.019553880173583713]",100.0,"[0.0567597654298744,-0.18909412885611637]",100.0,"[-0.025870780637693925,-0.010690661661610834]",4.0,"[-0.13315663102704567,-0.0404715401011701]",4.0,"[-0.16009139680386023,0.08789861962892674]",4.0,"[-0.17507655170138314,-0.08156781341207342]",4.0,"[0.0813750632613756,-0.024164637173202906]",100.0,"[-0.03309648726621765,0.17039731559885785]",4.0,"[0.012837507793332538,0.142569212897672]",4.0,"[0.0212566533592915,0.01337853243463067]",100.0,"[0.02816768104203645,0.18496743509260596]",100.0,"[0.0009076451926784728,-0.17903899314094288]",4.0,"[0.1926492728263974,0.032724464119749073]",100.0,"[-0.08603889526241665,0.17058826352718723]",100.0,"[0.0849856018718447,-0.1480723811984204]",100.0,"[-0.13582122573027297,-0.14421694640940713]",4.0,"[0.0027290072222055733,-0.1264235566686173]",4.0,"[-0.12279720722675698,0.13642066707348563]",4.0,"[0.02,0.02]",168.7288,0.0,25.0,25.0,96.0,1.0,,,,,,,
,,,,,,,5dd3699ee73e6136c640f1cf,6844286014f0fd16d229e9b2,2025-06-07_07h56.39.079,shape_ratio,2024.1.5,Win32,40.16064257,684250e4f00cb30b92d1fa88,,,,,,,,,,,168.7295,169.2301,,,169.482,170.2346,right,0.7282,,,,,,,,,0.5,,,,,,169.2302,169.4819,170.2346,"[0.0671387930059902,-0.08376529052799206]",4.0,"[-0.05652658373451858,0.15809913027432307]",4.0,"[0.13853092084924754,0.08760885525110988]",100.0,"[0.18746526054338974,-0.044918842418852765]",4.0,"[-0.061683160241181714,0.06517496452483669]",4.0,"[0.16725305866584353,-0.006533765822273172]",100.0,"[-0.12634113464199037,-0.15309303742784616]",4.0,"[-0.037387330861278815,-0.02169848974551554]",4.0,"[0.18707671040990567,0.04861351959404966]",100.0,"[-0.0266842780816707,0.025611743155306173]",4.0,"[0.07137545359128958,0.16553738948134705]",4.0,"[-0.06366082007954839,-0.11210655798823599]",4.0,"[0.10313244092785334,-0.0571766650070533]",100.0,"[-0.15143542518357309,-0.10445992058377636]",4.0,"[0.0541960646824921,-0.12779171894368316]",100.0,"[0.03115381110812164,0.17435876280340148]",4.0,"[-0.03352799527919403,0.12271976037152264]",100.0,"[-0.0009232461154201526,-0.15444360478815333]",4.0,"[0.09717421380419637,0.08231227554042006]",100.0,"[-0.0813077044068678,0.004697928976757816]",100.0,"[-0.01369724953899839,-0.07445656057640739]",100.0,"[-0.15290786287952052,-0.029340692525195514]",4.0,"[0.11076163027794364,-0.16565428594919446]",100.0,"[0.14939708180831418,-0.08355307276738029]",4.0,"[-0.0943938038186645,-0.052362001912103696]",100.0,"[0.010463265777137562,-0.19644513791071902]",100.0,"[0.016018387946302906,0.06387467625016753]",4.0,"[0.1131529006530685,0.006890782700277325]",100.0,"[-0.1441269915234169,0.09579640445534772]",100.0,"[-0.19741628685984294,-0.004753849856475218]",100.0,"[-0.04576777569760232,-0.16016685787546375]",100.0,"[0.06437070175078079,-0.17581093773869044]",4.0,"[0.02,0.02]",171.338,0.0,26.0,26.0,117.0,1.0,,,,,,,
,,,,,,,5dd3699ee73e6136c640f1cf,6844286014f0fd16d229e9b2,2025-06-07_07h56.39.079,shape_ratio,2024.1.5,Win32,40.16064257,684250e4f00cb30b92d1fa88,,,,,,,,,,,171.3385,171.8402,,,172.0918,172.6178,right,0.5033,,,,,,,,,0.1,,,,,,171.8403,172.0918,172.6178,"[0.010782014754561923,-0.18871228073584578]",4.0,"[-0.0748132633393933,-0.1484207224352574]",100.0,"[0.04315875860454452,0.028512035318872832]",4.0,"[0.057251087436777884,0.11802341882236442]",4.0,"[0.19325139943941524,-0.050555632230726566]",4.0,"[-0.05323319611262888,-0.027234698428665823]",4.0,"[0.04092761483085773,-0.15150432495454655]",4.0,"[-0.14778899839271814,0.09320723963502128]",4.0,"[0.14547507230682466,-0.020643275711178685]",100.0,"[-0.016710425726365823,0.08865490037851957]",4.0,"[-0.09351152865038191,0.0992120255751749]",4.0,"[0.07585310113895648,-0.09400979197507484]",4.0,"[-0.021764660903525884,0.1347407443756609]",4.0,"[-0.0356466529735028,-0.12271247890460632]",4.0,"[0.03964255551003027,0.07997563576609613]",4.0,"[-0.09641420283938643,0.002192235507308526]",4.0,"[0.11050107357615467,-0.1640725990868786]",4.0,"[-0.0841021950416087,0.156962649662986]",4.0,"[-0.1306809253591607,0.13894138968464848]",4.0,"[-0.15653728659338328,-0.09185245135963349]",4.0,"[0.1156359782040391,0.05386898594592147]",4.0,"[-0.01639991016703821,0.01945825090642966]",4.0,"[-0.07564879779214681,-0.0662635590559123]",4.0,"[0.1035170134227671,0.16073131384331424]",4.0,"[-0.11658478183436251,-0.13696695975346815]",4.0,"[-0.14878275281347467,0.02676787001263005]",4.0,"[0.09837139814930843,-0.007311912573599999]",4.0,"[0.15379523192228253,0.019349255634445332]",100.0,"[-0.0556436714082302,-0.18899173281344286]",4.0,"[0.04920541832271182,0.1642882000053964]",4.0,"[-0.18965431585741796,-0.04313421353198467]",4.0,"[-0.0847953167512235,0.04655305190038638]",4.0,"[0.02,0.02]",173.7223,0.0,27.0,27.0,203.0,1.0,,,,,,,
,,,,,,,5dd3699ee73e6136c640f1cf,6844286014f0fd16d229e9b2,2025-06-07_07h56.39.079,shape_ratio,2024.1.5,Win32,40.16064257,684250e4f00cb30b92d1fa88,,,,,,,,,,,173.7229,174.2243,,,174.4753,174.9262,right,0.4269,,,,,,,,,0.1,,,,,,174.2243,174.4753,174.9263,"[0.12735173014451082,-0.04712694718899443]",4.0,"[-0.19277837137032314,0.041296850469583896]",4.0,"[-0.0046825206050304085,-0.03291850948894223]",4.0,"[0.03509249765086298,-0.01287839823836774]",4.0,"[0.10784630943361236,-0.16029725351033233]",4.0,"[0.05538531024954334,0.15297762591067401]",100.0,"[0.09523577414635867,0.04899229488903172]",4.0,"[-0.09270339280200811,0.07812690935600938]",4.0,"[-0.037208375316744396,0.14486123009128554]",4.0,"[0.03494221747237243,0.06376879563005307]",4.0,"[0.1649254442694797,-0.027268043594064408]",4.0,"[0.13433204841614593,0.08877254836053909]",100.0,"[-0.14904207612544734,-0.11478852971663855]",4.0,"[-0.13198135057460275,-0.005563156167524356]",4.0,"[0.09468385961743173,0.11566030907247489]",4.0,"[0.12453573315510591,-0.10046948343043875]",4.0,"[-0.18677064383829417,-0.07016922883216198]",4.0,"[-0.04035810586342938,0.02023078994869826]",4.0,"[-0.01974512186081892,0.19289890146474206]",4.0,"[-0.10983527515037345,0.12814505348958938]",4.0,"[-0.03180564101958273,-0.06785409047619592]",4.0,"[0.025894755081833132,-0.194783055806224]",4.0,"[-0.04432074805780233,-0.1342529934430533]",4.0,"[-0.10149415243041551,-0.05155910055241943]",4.0,"[0.11530263706169172,0.014134562601441455]",4.0,"[0.0676096858605048,-0.17612405267729433]",4.0,"[0.020227177490797336,-0.12961939952985796]",4.0,"[-0.03274262690768036,-0.18891972872315552]",4.0,"[-0.10019407978692782,0.03628537512955318]",4.0,"[-0.14356743987078366,0.03792772093686896]",100.0,"[0.06426389267285548,-0.05245692374865889]",4.0,"[-0.16187543367271046,0.09362403331369054]",4.0,"[0.02,0.02]",176.0304,0.0,28.0,28.0,197.0,1.0,,,,,,,
,,,,,,,5dd3699ee73e6136c640f1cf,6844286014f0fd16d229e9b2,2025-06-07_07h56.39.079,shape_ratio,2024.1.5,Win32,40.16064257,684250e4f00cb30b92d1fa88,,,,,,,,,,,176.0309,176.5327,,,176.7474,177.3102,left,0.5274,,,,,,,,,0.9,,,,,,176.5328,176.7473,177.3103,"[-0.1734305665453159,0.08474663182362972]",100.0,"[-0.07828607739840995,0.012450126991126543]",100.0,"[-0.11827967159681162,-0.15813221914735243]",100.0,"[0.05724935494442551,-0.15065775016592103]",100.0,"[-0.044044305137755535,0.15656040745190003]",100.0,"[-0.1450026781051645,0.050964751713646554]",100.0,"[-0.006944531025251921,-0.1618037505090771]",4.0,"[-0.006070171042399628,-0.09878396191445826]",100.0,"[0.16950623013714675,-0.0210530397766114]",100.0,"[-0.05593767166987233,-0.030627143699396158]",100.0,"[-0.08982572094521628,0.17392095328605867]",100.0,"[0.08176111216440357,-0.10716817231902635]",100.0,"[0.1360983262204845,0.014103926685635901]",100.0,"[-0.07425769367346888,0.09696720706425413]",100.0,"[0.09898208194712341,0.16358849054884705]",4.0,"[0.1825831946312896,0.03268758166043489]",100.0,"[-0.05517470200203036,-0.16401513815453597]",100.0,"[0.0521875100180842,0.12145177052007283]",100.0,"[0.08255438621734063,0.03800705296016729]",4.0,"[-0.1936565307762294,-0.01077935349874546]",100.0,"[0.07613954222558145,-0.0647539309848736]",100.0,"[0.059484816836453,0.002639610694780433]",100.0,"[-0.18565442599205437,0.029522619259346038]",100.0,"[0.021795683398750775,-0.12824991407027364]",100.0,"[0.13900004687054116,-0.10881987853285299]",100.0,"[0.05223462001337498,0.18939009393412734]",100.0,"[0.031435875959180876,0.08620734947988375]",100.0,"[0.10260173321249842,-0.01759277954589809]",100.0,"[0.033721760472144736,-0.031723345932400865]",100.0,"[0.12897096358108529,0.05418939983579185]",100.0,"[-0.16078037403277018,-0.07014894685996845]",100.0,"[-0.1487776070170349,-0.12516736070166182]",100.0,"[0.02,0.02]",178.4146,0.0,29.0,29.0,24.0,1.0,,,,,,,
,,,,,,,5dd3699ee73e6136c640f1cf,6844286014f0fd16d229e9b2,2025-06-07_07h56.39.079,shape_ratio,2024.1.5,Win32,40.16064257,684250e4f00cb30b92d1fa88,,,,,,,,,,,178.415,178.916,,,179.1683,179.5946,right,0.4024,,,,,,,,,0.1,,,,,,178.916,179.1683,179.5946,"[0.08890097822535738,0.10081449299987288]",4.0,"[0.15530857368536385,0.05203334617640697]",4.0,"[0.05258275626754082,-0.07604457467742598]",4.0,"[0.029008345402968462,0.17669266661221222]",4.0,"[-0.10683240346013764,-0.11767077055918017]",4.0,"[-0.06962122644887711,0.0024891757967909836]",4.0,"[0.06636072499510387,0.010171764296754333]",4.0,"[-0.13487115277139106,-0.0484335782388359]",4.0,"[0.09326214468374998,-0.13987540735400075]",4.0,"[0.01782270217179927,0.07998716346251625]",4.0,"[0.16109393960435764,-0.08765146283673834]",4.0,"[-0.053516003480138505,-0.04448109761488243]",4.0,"[0.041385864510178526,-0.12772999295829543]",4.0,"[-0.12975142948569088,0.012539140826449852]",4.0,"[-0.08468068340590106,0.07833926649286808]",100.0,"[0.12548747413296985,0.128328347339126]",4.0,"[0.15991123861065445,-0.015971430575407387]",4.0,"[-0.06318063082073413,0.1517159277558255]",4.0,"[-0.19515471700905687,0.010247718423072595]",4.0,"[0.05494175095947316,0.05210945997218944]",4.0,"[-0.0220467431653839,-0.09355589750275091]",4.0,"[-0.1636166060231219,0.08266100929535158]",4.0,"[0.1096962631475746,-0.022554057744617793]",4.0,"[-0.006597473644055201,0.012403150999425948]",100.0,"[-0.04115936168517129,-0.1706803342958277]",4.0,"[-0.12329302198672994,0.15328962954013597]",4.0,"[-0.04483749788520997,0.0966695227452848]",4.0,"[0.19836387084034962,0.0027004587898361125]",4.0,"[-0.10034125977849156,0.1166426268326978]",4.0,"[-0.06437991047345566,-0.1347928716113132]",4.0,"[-0.1709029843377391,-0.0851322145072658]",4.0,"[0.09581024852477216,0.044857059597010085]",100.0,"[0.02,0.02]",180.6989,0.0,30.0,30.0,196.0,1.0,,,,,,,
,,,,,,,5dd3699ee73e6136c640f1cf,6844286014f0fd16d229e9b2,2025-06-07_07h56.39.079,shape_ratio,2024.1.5,Win32,40.16064257,684250e4f00cb30b92d1fa88,,,,,,,,,,,180.6996,181.2,,,181.4396,182.0285,right,0.5527,,,,,,,,,0.55,,,,,,181.2001,181.4396,182.0286,"[0.15966673241919063,0.05604444632662149]",4.0,"[0.08869652152984704,0.04396406627265073]",100.0,"[-0.07944430679334459,-0.03975467374640977]",100.0,"[0.03556961847923351,0.06914932407832232]",4.0,"[-0.0038433714229508245,0.09591830933900736]",100.0,"[0.07865858045271006,-0.17107449815890083]",100.0,"[-0.039965883918386395,0.1765729471570778]",100.0,"[0.12343776497947419,-0.14321630781858197]",4.0,"[0.11057897573054556,0.0036843988870400896]",100.0,"[-0.18522104469108558,-0.06203382567153022]",4.0,"[-0.13806841081416033,-0.04768580686670123]",4.0,"[-0.10357949253817351,0.12820964798537068]",4.0,"[0.1892679788452272,-0.006230915245408705]",4.0,"[-0.13214032893669278,-0.13431620395576038]",100.0,"[-0.16566520080453523,0.039404204028017774]",100.0,"[0.03287606750214065,-0.1294705006624006]",4.0,"[0.023618536049374486,-0.05167137857860212]",100.0,"[-0.12891992912286107,0.09508381286711813]",4.0,"[-0.06816216694537842,0.10255737910024718]",4.0,"[-0.019817191720037885,-0.007846718786294548]",100.0,"[0.0683265218611666,0.14824521322595793]",100.0,"[-0.0466831973101816,-0.07468355214555208]",100.0,"[0.0828806272799079,-0.07588541372583606]",100.0,"[0.08745532129419283,-0.1179462471229942]",100.0,"[-0.026815102582576945,-0.1687232600166911]",100.0,"[-0.10584419258101867,0.013433532047236072]",4.0,"[-0.19745376976588852,0.0026597909356965974]",4.0,"[0.14615098329148432,0.11872535308487167]",4.0,"[-0.09008651193141824,-0.10221993113453148]",4.0,"[0.013290240200742653,0.15541279944673034]",100.0,"[-0.034861954045270115,0.056026886045637325]",100.0,"[0.14169706377939856,-0.02756527262483962]",100.0,"[0.02,0.02]",183.1318,0.0,31.0,31.0,78.0,1.0,,,,,,,
,,,,,,,5dd3699ee73e6136c640f1cf,6844286014f0fd16d229e9b2,2025-06-07_07h56.39.079,shape_ratio,2024.1.5,Win32,40.16064257,684250e4f00cb30b92d1fa88,,,,,,,,,,,183.1323,183.6335,,,183.873,184.4616,right,0.5562,,,,,,,,,0.45,,,,,,183.6335,183.8729,184.4617,"[-0.1192648605496353,0.10006635449833762]",4.0,"[-0.15851342920620398,-0.09024160600047405]",100.0,"[-0.07802416367272999,-0.009388335024795287]",4.0,"[-0.059083111136355476,0.1057725394952904]",100.0,"[0.10423519810763864,0.08720336144452669]",4.0,"[0.17138230200322152,0.07137897685948474]",4.0,"[0.10627182070246845,0.04155814722607973]",4.0,"[0.04591131842404488,0.11623600896497775]",100.0,"[0.013361074841644128,-0.11705373712993014]",100.0,"[0.05632101232952542,0.17735405857667566]",4.0,"[-0.09772106679765533,0.1401019149061963]",4.0,"[0.11879535029151854,0.1487082209214675]",100.0,"[-0.036072811491692426,-0.09752872770704345]",4.0,"[-0.018381459868243254,0.1893528864060637]",100.0,"[0.15855450269893448,-0.07771562543287905]",4.0,"[0.1824505292970163,-0.01557048899092096]",4.0,"[0.13588647829441677,-0.024133925209804324]",4.0,"[-0.03562640931693988,-0.181599313449063]",100.0,"[0.004509742100200376,0.05120114814423403]",100.0,"[-0.11686992499288602,0.026101933685237718]",4.0,"[-0.18032270945339163,0.030295005207478895]",100.0,"[-0.05282734399040816,0.16192482532285735]",4.0,"[-0.09299295025427326,-0.07380580339640026]",4.0,"[0.10043831720316747,-0.07308645531013407]",100.0,"[0.07491385897996031,-0.1536296973409471]",100.0,"[0.07235855532610723,0.010099451785327193]",4.0,"[0.039776881153007114,-0.015361135255937686]",100.0,"[-0.09848935198606491,-0.16561703468852465]",100.0,"[0.03343972246665502,-0.07746737759231279]",100.0,"[-0.10413042455966233,-0.12142171402535402]",4.0,"[-0.03696522210958384,0.05826398472213334]",4.0,"[-0.05028278413226239,-0.0545296253539331]",4.0,"[0.02,0.02]",185.5661,0.0,32.0,32.0,131.0,1.0,,,,,,,
,,,,,,,5dd3699ee73e6136c640f1cf,6844286014f0fd16d229e9b2,2025-06-07_07h56.39.079,shape_ratio,2024.1.5,Win32,40.16064257,684250e4f00cb30b92d1fa88,,,,,,,,,,,185.5667,186.0679,,,186.3191,186.921,left,0.5775,,,,,,,,,0.9,,,,,,186.068,186.319,186.921,"[0.12398864109084934,-0.14900639518603134]",100.0,"[-0.0630082759424923,-0.1811876314990515]",100.0,"[-0.11684288160726454,-0.13548083468967015]",100.0,"[-0.05632452241452786,0.030389935535144293]",100.0,"[-0.09236163223963847,0.17073005243952294]",100.0,"[-0.0003381422490868289,-0.14930826575021713]",100.0,"[-0.021261457702707973,0.08156859046920659]",4.0,"[-0.04891833732395055,-0.13476133721606579]",100.0,"[0.03780715070398012,-0.18894151833346856]",100.0,"[0.07305613846076062,-0.1464796015773859]",4.0,"[-0.10982358960388092,0.06391382632084926]",100.0,"[0.059961162384145485,0.011515872030870379]",100.0,"[0.008999036662314643,0.11243375460152324]",100.0,"[0.14968206411795199,-0.006039476765062202]",100.0,"[0.07925042734447613,0.061359473036514005]",100.0,"[-0.15014002862066836,-0.03738065249319417]",100.0,"[-0.03668630544209887,0.1799026269099523]",100.0,"[-0.16344416897725716,0.11221430181464007]",100.0,"[0.019718314630112983,0.177463358529133]",100.0,"[0.11666258639144733,-0.056425008085484236]",100.0,"[-0.062129934515195946,0.0745907801914183]",100.0,"[0.13111367050793465,0.0726741583234042]",100.0,"[-0.04372763283082585,0.11753016864199349]",100.0,"[0.17591616053577827,-0.08080753075833666]",100.0,"[0.05677065544223402,-0.0885003311096149]",100.0,"[0.16371216281931694,0.04143527027367311]",100.0,"[0.024654108512943914,0.06840567228925794]",100.0,"[-0.0827750177784722,-0.03650690254557002]",100.0,"[0.10144878438979694,0.11489128619877079]",100.0,"[-0.08660199778869258,-0.08592693454565643]",4.0,"[0.10740284655318973,-0.00984869106858768]",100.0,"[0.04643133344305206,-0.026630843884544512]",100.0,"[0.02,0.02]",188.0256,0.0,33.0,33.0,2.0,1.0,,,,,,,
,,,,,,,5dd3699ee73e6136c640f1cf,6844286014f0fd16d229e9b2,2025-06-07_07h56.39.079,shape_ratio,2024.1.5,Win32,40.16064257,684250e4f00cb30b92d1fa88,,,,,,,,,,,188.0261,188.5284,,,188.7946,189.3804,left,0.5591,,,,,,,,,0.6,,,,,,188.5284,188.7946,189.3805,"[0.04268633895063285,-0.06329297512823091]",100.0,"[0.09054190266034136,0.014940279358373248]",100.0,"[-0.14111678556410648,0.13794669293880144]",100.0,"[-0.03362933096492564,-0.1477730334362697]",100.0,"[0.15296424219840804,0.0022096977760636106]",100.0,"[0.05865443288884355,-0.14002642776660512]",100.0,"[-0.08242307049676682,0.0423627887769869]",100.0,"[0.08745068982034533,0.16666437327849923]",100.0,"[-0.029025829914045394,-0.008907375566085196]",100.0,"[0.029589057598434783,0.12369916577982248]",4.0,"[-0.10052497974033614,-0.15467768917212701]",100.0,"[-0.1145962546716862,-0.0754832525108282]",4.0,"[-0.02202314066370142,0.19236572801817875]",4.0,"[-0.057692093822888084,0.15743307154042047]",100.0,"[0.0326898183107087,0.08234185605477484]",4.0,"[0.10755125729024148,-0.024932899099206266]",100.0,"[0.09662892239673909,-0.0756117750586919]",4.0,"[-0.12984710676895506,0.04781252689399793]",4.0,"[0.037304963152722574,-0.1925781235615945]",4.0,"[0.009307420543036885,-0.03580565907543968]",100.0,"[0.15467596346605966,0.11604455412865503]",100.0,"[0.0007542075613421187,0.1524240466904602]",4.0,"[0.08726461852627942,0.11326692314851156]",100.0,"[0.12233836643074714,-0.15125806556999608]",4.0,"[-0.013891451323983834,0.049885954741063394]",100.0,"[-0.05854128035845341,-0.18363111573121033]",100.0,"[-0.057624336313965234,-0.03694704425399642]",4.0,"[-0.06879872612176519,-0.12422794048253682]",100.0,"[-0.13020389279747174,-0.038107611415614084]",4.0,"[-0.09717212926026732,-0.004763780932438321]",4.0,"[0.06458841625765792,-0.025102062902999978]",4.0,"[-0.08676995945193824,0.0918637651131651]",100.0,"[0.02,0.02]",190.4838,0.0,34.0,34.0,31.0,1.0,,,,,,,
,,,,,,,5dd3699ee73e6136c640f1cf,6844286014f0fd16d229e9b2,2025-06-07_07h56.39.079,shape_ratio,2024.1.5,Win32,40.16064257,684250e4f00cb30b92d1fa88,,,,,,,,,,,190.4842,190.987,,,191.2273,191.7889,left,0.5319,,,,,,,,,0.6,,,,,,190.9871,191.2271,191.789,"[-0.16557389910661321,-0.020156521573005882]",4.0,"[0.14079766727423992,-0.057122105898521985]",100.0,"[-0.16232967229289602,-0.06221548754437757]",100.0,"[0.12647774882107368,0.1518735097749848]",100.0,"[-0.08857223275533899,-0.09987278088041102]",4.0,"[-0.08017143676582458,0.15882123892888203]",100.0,"[-0.019065322208252758,0.13490797917980424]",4.0,"[0.03142031593527209,0.10797990579397014]",4.0,"[-0.08251179971567865,0.08585691879148676]",100.0,"[0.12936420601297172,0.07667238411542321]",4.0,"[-0.13289419720688464,0.13736883380211054]",100.0,"[-0.03700215092778554,-0.1753356744855219]",100.0,"[0.06494375648966799,0.05467147813456233]",4.0,"[0.07736049265667654,0.11004631149698378]",100.0,"[-0.04019959153393484,-0.09664740597604228]",100.0,"[0.07911911166992378,-0.09754383782209494]",4.0,"[0.07421979103415237,-0.04200445871827135]",4.0,"[0.002458504212858745,-0.018242021542632166]",100.0,"[-0.16453857617827633,0.04646241269380466]",100.0,"[0.12603203559655252,-0.14120105015861178]",100.0,"[-0.003021240484515826,-0.06154589104071434]",100.0,"[0.12774642961558164,0.011397268123005977]",4.0,"[-0.1191543713360941,0.057257719858620555]",100.0,"[-0.02815231715847156,0.04273040727800528]",4.0,"[0.0036293159421418295,-0.17619640732828237]",4.0,"[-0.1064870569626838,-0.1585307850479592]",100.0,"[0.03172189101693521,-0.1059490459404631]",4.0,"[-0.07813939481057361,0.040889480892040524]",100.0,"[0.07491012648627741,-0.17300974335714991]",100.0,"[0.16731868228788926,-0.10847177110389176]",100.0,"[0.00860856071060051,0.0586220290938267]",100.0,"[-0.167701020504796,0.10435192889766277]",4.0,"[0.02,0.02]",192.893,0.0,35.0,35.0,32.0,1.0,,,,,,,
,,,,,,,5dd3699ee73e6136c640f1cf,6844286014f0fd16d229e9b2,2025-06-07_07h56.39.079,shape_ratio,2024.1.5,Win32,40.16064257,684250e4f00cb30b92d1fa88,,,,,,,,,,,192.8935,193.395,,,193.6344,194.0472,right,0.3764,,,,,,,,,0.45,,,,,,193.3951,193.6344,194.0473,"[-0.07709207846272999,0.053369950602726125]",4.0,"[0.03928997006435033,0.10025469678699613]",4.0,"[-0.10429300193619753,-0.1180415315071609]",4.0,"[0.12013068841490188,-0.09905158981821624]",100.0,"[-0.18954686038344418,-0.020502077259045785]",4.0,"[-0.08634939293389565,-0.08082295299433685]",100.0,"[-0.0435741699938028,-0.1875376368015073]",100.0,"[0.06026698569441963,-0.03732193308567012]",4.0,"[-0.03168933614919518,0.1908577946048872]",100.0,"[-0.11627060120060904,0.13484347084236942]",100.0,"[0.09358032275763091,0.09653544630039271]",100.0,"[-0.0006808209694861379,-0.08915875172579463]",100.0,"[-0.17135913709296272,0.09788889646258422]",4.0,"[0.02884233389596977,0.04034882072124533]",4.0,"[0.020452098205982552,-0.17341637395502532]",4.0,"[0.19686394657573628,0.033533703523991654]",4.0,"[0.06535178415248076,0.1459341935413162]",100.0,"[0.03959112562740542,-0.0762011671132711]",4.0,"[-0.1319746312652172,-0.0004219203823777492]",4.0,"[0.06399593724555205,-0.1377207752898981]",100.0,"[0.10264706471518154,0.007879315234211428]",4.0,"[-0.0004436024496120063,-0.004368279923943082]",100.0,"[-0.04328811988968902,0.1316671468294185]",100.0,"[0.009569614633475162,0.18734744722150604]",4.0,"[-0.13308415646646182,-0.05854975134142295]",4.0,"[0.17095200642375594,-0.08977328037088432]",100.0,"[0.005675377632812222,0.1355047435654647]",4.0,"[0.12290983458484393,-0.04487796298566716]",4.0,"[-0.02376544563596065,0.04555376775384628]",100.0,"[0.07418496716056473,0.05387673595078847]",100.0,"[0.14479673323661227,0.023049674220827078]",4.0,"[-0.014130408980460519,-0.13524844259998647]",4.0,"[0.02,0.02]",195.151,0.0,36.0,36.0,138.0,1.0,,,,,,,
,,,,,,,5dd3699ee73e6136c640f1cf,6844286014f0fd16d229e9b2,2025-06-07_07h56.39.079,shape_ratio,2024.1.5,Win32,40.16064257,684250e4f00cb30b92d1fa88,,,,,,,,,,,195.1514,195.6531,,,195.9049,196.5567,right,0.6276,,,,,,,,,0.45,,,,,,195.6531,195.9049,196.5569,"[0.1901472960268937,-0.05710631889598247]",4.0,"[-0.04810031733610952,0.1758709118619458]",4.0,"[-0.07361939838294145,0.007050544720946111]",4.0,"[0.07139503059366685,-0.1312842778932925]",100.0,"[0.0881540557698005,0.12988883533444817]",4.0,"[0.08109152167239339,-0.03715271717859569]",4.0,"[0.12006806316473026,-0.07183694410957227]",4.0,"[-0.14257988703073568,0.08798987910377229]",4.0,"[0.028026511527947443,0.16573868663900995]",4.0,"[-0.017361263700060633,-0.16984287895465633]",100.0,"[-0.030087321582577355,0.10572741783227467]",100.0,"[0.008471123264153646,0.018279057526724738]",100.0,"[-0.1746408906300344,-0.021682064530048874]",4.0,"[0.04397818989738118,0.07460952799581126]",4.0,"[-0.08799293440861068,-0.041127272762293346]",4.0,"[-0.03655598300877304,-0.027542424875916734]",4.0,"[-0.13236917257625008,0.13549426655175983]",4.0,"[0.1156671405300334,0.021625274736356417]",100.0,"[-0.01755448929335766,-0.08706317778827839]",100.0,"[-0.15665067312550235,0.01438997807646812]",4.0,"[-0.06652902671383625,-0.17311454602625825]",100.0,"[0.034873302919868836,-0.029211060347793794]",4.0,"[0.1008354711089904,0.06519139980666691]",100.0,"[-0.08012594470477846,0.0514186054788565]",100.0,"[-0.11400330298985493,-0.1351033893671036]",4.0,"[-0.07962926199681007,-0.09255754033002597]",100.0,"[0.028757245813589228,-0.13092985118461037]",4.0,"[0.1659555137176023,-0.09578105333927985]",100.0,"[-0.030223766216477814,-0.13018962872026962]",100.0,"[0.15628350985715045,0.07126699418544723]",100.0,"[0.11015893098346412,-0.11436018424971862]",100.0,"[0.05872679898915912,-0.18178852151952046]",4.0,"[0.02,0.02]",197.6611,0.0,37.0,37.0,130.0,1.0,,,,,,,
,,,,,,,5dd3699ee73e6136c640f1cf,6844286014f0fd16d229e9b2,2025-06-07_07h56.39.079,shape_ratio,2024.1.5,Win32,40.16064257,684250e4f00cb30b92d1fa88,,,,,,,,,,,197.6619,198.1626,,,198.4139,199.0409,left,0.6024,,,,,,,,,0.6,,,,,,198.1626,198.4138,199.041,"[0.03436596368543642,0.14873818908971698]",4.0,"[0.12209738339403813,-0.1369449383395287]",100.0,"[0.07157154014675371,-0.13289968997719445]",4.0,"[0.19029687756740543,0.021830789849046822]",4.0,"[0.09580681501653265,0.053430071017991666]",100.0,"[-0.025340855516215247,0.04536533777714197]",100.0,"[-0.08764438586604761,-0.13366560835422794]",100.0,"[-0.11209631040561698,0.0722835626616769]",4.0,"[-0.09601694070038465,0.028794831884236077]",4.0,"[0.15947166628330525,0.05263521904004404]",4.0,"[0.0177374405010258,0.030149761800857263]",100.0,"[0.0736338923028619,-0.05257565961426543]",4.0,"[0.025470980759060697,-0.12233459621584986]",4.0,"[-0.017302251490792182,-0.1969679843572983]",4.0,"[0.07412704581030051,0.09459237083202149]",100.0,"[0.004533294914483753,-0.05153237152023952]",100.0,"[0.08977414841230623,0.16417437814798344]",100.0,"[0.022695362995473232,-0.18069511355125556]",100.0,"[-0.15186822644631118,0.1297779670320566]",100.0,"[-0.08689820752498571,-0.041949730203906785]",4.0,"[-0.1864677816856614,0.038521344960786595]",4.0,"[-0.02001546239192066,0.11623380933977985]",100.0,"[-0.13069623093967825,-0.05559066982745887]",4.0,"[0.015853632719005892,0.07639939186488645]",100.0,"[-0.050031451273787254,0.01161027240913349]",100.0,"[-0.11241158965663348,-0.16511490001905424]",4.0,"[0.05825239025132731,0.030477798418417076]",100.0,"[-0.023733503406659962,-0.13076938109492872]",100.0,"[-0.03453275023434633,-0.030398088589846977]",100.0,"[0.1294756292277238,-0.06977726131073325]",100.0,"[-0.0064964933466501815,0.17218220155597888]",100.0,"[-0.050555979965931565,0.1686212494299337]",100.0,"[0.02,0.02]",200.1451,0.0,38.0,38.0,44.0,1.0,,,,,,,
,,,,,,,5dd3699ee73e6136c640f1cf,6844286014f0fd16d229e9b2,2025-06-07_07h56.39.079,shape_ratio,2024.1.5,Win32,40.16064257,684250e4f00cb30b92d1fa88,,,,,,,,,,,200.1457,200.6464,,,200.8984,201.4745,right,0.5561,,,,,,,,,0.1,,,,,,200.6464,200.8982,201.4745,"[0.10524881846242683,0.019516964253383517]",4.0,"[0.048075823219320926,-0.1855120765014433]",4.0,"[-0.12428590667013752,-0.07421028917886703]",4.0,"[0.01220030745981959,0.18408866509708724]",100.0,"[-0.006272027524497548,-0.042874378293498265]",4.0,"[0.0400689608508701,-0.07367500103882357]",4.0,"[-0.10219411308434066,-0.011584016577947448]",4.0,"[-0.012485635560255464,-0.15772697730729204]",4.0,"[-0.038302863888966227,0.09397957288995994]",4.0,"[0.013769441620178112,-0.12521361100828646]",4.0,"[0.12826620400106611,-0.10819474431763632]",4.0,"[0.09135384797307607,0.14124504035407126]",4.0,"[0.04718388300121174,0.06744353081787408]",4.0,"[0.18700375475080067,-0.006975863699109913]",4.0,"[0.07308308491616597,-0.020373508330133905]",4.0,"[-0.047811879981279934,-0.10248168783220704]",100.0,"[0.024363352163653294,0.01662495269288067]",4.0,"[-0.08769708082445732,0.11436231135245327]",100.0,"[-0.07472356942430293,-0.1825433794470637]",4.0,"[-0.10129147097163557,0.06492012244616267]",4.0,"[0.1664674229144978,-0.09337260866995337]",4.0,"[-0.02345078250670924,0.1604983373423939]",4.0,"[0.1583865431606153,0.08570406075613102]",4.0,"[-0.1592941906689943,0.08331705244623869]",4.0,"[-0.0831562410574665,0.17326942065511758]",4.0,"[-0.1302091645937858,-0.1153259653780668]",4.0,"[-0.058781684861190835,-0.01923555501956428]",4.0,"[-0.14732417641482104,0.0406393318923552]",4.0,"[-0.1892698901708725,0.005284563984491574]",4.0,"[0.07605218276063513,-0.14103370338673907]",4.0,"[0.14779676413492096,-0.04130891159251527]",4.0,"[0.030511441755431606,0.11574295017652539]",4.0,"[0.02,0.02]",202.5787,0.0,39.0,39.0,184.0,1.0,,,,,,,
,,,,,,,5dd3699ee73e6136c640f1cf,6844286014f0fd16d229e9b2,2025-06-07_07h56.39.079,shape_ratio,2024.1.5,Win32,40.16064257,684250e4f00cb30b92d1fa88,,,,,,,,,,,202.5792,203.0817,,,203.3321,204.2615,left,0.9058,,,,,,,,,0.6,,,,,,203.0819,203.3321,204.2615,"[-0.08105563684429855,-0.03274966254285474]",100.0,"[-0.088146676265007,0.07564338924668286]",4.0,"[0.08296861215487411,0.09829842972103713]",100.0,"[-0.1516205410735622,-0.08585034647855416]",4.0,"[-0.021607872471411285,-0.14961450168808096]",4.0,"[0.03947581085920028,0.03246484405103137]",100.0,"[-0.13473822062306218,0.03491086887736668]",100.0,"[-0.14304018344452235,0.1057732671594556]",4.0,"[-0.0014415284808074924,0.10288715436031931]",100.0,"[0.03135395608365121,-0.039179465742975005]",4.0,"[0.1482189235432536,0.11083197539993969]",100.0,"[0.13672005376169605,0.04326466688474182]",100.0,"[-0.1712507785655435,0.05801576617229249]",4.0,"[0.09415839052051815,-0.15298292747930947]",4.0,"[-0.0006258703136317577,0.0037076909649166293]",100.0,"[-0.12535205571360641,0.15304254741987547]",4.0,"[0.17534281074527702,-0.08291614462530933]",4.0,"[0.10519076715791982,0.0033211813202847274]",100.0,"[0.07776499456517798,-0.11126532900382013]",100.0,"[-0.12904968232456338,-0.05068592966194637]",100.0,"[-0.07306920885709416,-0.07952662286902695]",4.0,"[-0.07278600048039008,0.027052075348719076]",100.0,"[0.09102037309444819,0.045200452595554184]",100.0,"[0.19801463744394568,-0.023735237839758016]",100.0,"[-0.1562084740689033,-0.021279393933600413]",4.0,"[0.1895009793531382,0.04927732026890366]",4.0,"[0.12052270484765217,-0.07664437862886246]",100.0,"[-0.06783888543862229,0.1756147185617466]",100.0,"[0.0672701704536814,-0.011448726906286687]",100.0,"[0.02560651293654157,-0.11657716634087702]",100.0,"[-0.04060663463503358,0.06289444974007405]",4.0,"[0.03621250402703462,0.17814198427637187]",100.0,"[0.02,0.02]",205.3642,0.0,40.0,40.0,56.0,1.0,,,,,,,
,,,,,,,5dd3699ee73e6136c640f1cf,6844286014f0fd16d229e9b2,2025-06-07_07h56.39.079,shape_ratio,2024.1.5,Win32,40.16064257,684250e4f00cb30b92d1fa88,,,,,,,,,,,205.3649,205.8663,,,206.118,207.0204,left,0.8869,,,,,,,,,0.5,,,,,,205.8664,206.1178,207.0205,"[-0.07357246961615227,0.041871751579549525]",100.0,"[-0.0008755848555756907,0.03857603273298801]",100.0,"[-0.08944275480739727,0.1571442557926357]",100.0,"[0.004207658250272801,0.1604834400956925]",4.0,"[0.12698500963959702,0.14681930864743317]",100.0,"[0.11012546253482251,-0.06743088027017902]",4.0,"[0.03672146568194797,0.06726502051757645]",100.0,"[-0.13776030519037732,-0.12098254407987497]",4.0,"[-0.13877719692241905,-0.05743572730084951]",4.0,"[-0.05958980334519797,-0.08331106403921237]",100.0,"[-0.09528653977612939,-0.06480150294573818]",4.0,"[-0.17156895933124772,0.06748487077001337]",100.0,"[0.17824464240876883,-0.0817242208315485]",100.0,"[0.14798962979863825,-0.0344013820580235]",4.0,"[-0.0685042462846845,0.1010621500205144]",100.0,"[0.05186837652975559,-0.10312671469870181]",100.0,"[0.1940299792375936,0.0023585701461034964]",4.0,"[-0.19234837570842803,-0.050572184219347345]",100.0,"[-0.004593711878933904,0.08762550683453023]",100.0,"[0.1287117809959604,-0.13498330299673653]",4.0,"[0.0836834978464275,-0.027955271920654216]",4.0,"[0.026731052489532333,-0.13648438164253196]",100.0,"[-0.14304172828141198,-0.007711361479134352]",100.0,"[0.1159017791895076,0.007544791201083696]",4.0,"[-0.1851414472906031,0.0038806187601965088]",4.0,"[0.08756887525497564,0.170661436968774]",4.0,"[-0.07906397372467645,-0.18191984361832667]",4.0,"[0.11851712587737916,0.09980989863615317]",4.0,"[-0.1240106201705864,0.036146448734132516]",100.0,"[-0.015829452255228617,-0.05277872128559119]",4.0,"[-0.09308146377299156,-0.007001735583276192]",4.0,"[-0.049601652299958957,-0.13133215179806582]",100.0,"[0.02,0.02]",208.1254,0.0,41.0,41.0,108.0,1.0,,,,,,,
,,,,,,,5dd3699ee73e6136c640f1cf,6844286014f0fd16d229e9b2,2025-06-07_07h56.39.079,shape_ratio,2024.1.5,Win32,40.16064257,684250e4f00cb30b92d1fa88,,,,,,,,,,,208.126,208.6274,,,208.8784,209.5044,left,0.6028,,,,,,,,,0.1,,,,,,208.6275,208.8784,209.5044,"[0.04112472035934791,0.18866298518879168]",4.0,"[-0.07132389811701449,0.18440912574912366]",4.0,"[0.0870284537160578,0.1344034787503078]",4.0,"[0.05185633984523634,0.11338609757622575]",4.0,"[0.01076919375106681,0.012192073977949336]",4.0,"[-0.09007585009900829,0.07280926390826052]",4.0,"[0.06815784232181053,-0.15830000391429977]",4.0,"[0.08050049194591252,-0.07543828273832218]",4.0,"[-0.016387443732671796,0.1079187553087466]",100.0,"[-0.07289407511128942,0.13947754000926663]",4.0,"[0.14881014512315316,0.09145324925181977]",4.0,"[-0.008805100801556661,-0.17993154026569294]",4.0,"[0.05659417148932752,-0.1115831145279515]",4.0,"[-0.1400425059718527,-0.06984296946490705]",4.0,"[0.14872908965449372,-0.0020676229472738443]",4.0,"[-0.008818997126506275,0.048854238628289345]",100.0,"[-0.0689864634215007,-0.010671150703086968]",4.0,"[-0.03587375258909378,-0.0994970787507521]",4.0,"[0.01832924914473197,0.0825084835579771]",4.0,"[0.13189458938127394,0.1453716930620375]",4.0,"[-0.1644194270240864,0.09515493730330714]",4.0,"[-0.16736674352782996,0.032621875005276205]",4.0,"[-0.08620648046987932,-0.09042088408999197]",4.0,"[0.06787638697181828,-0.03241344553216046]",4.0,"[0.19018787338859758,-0.01185247690889954]",4.0,"[-0.13186834696003719,-0.14537448267255165]",100.0,"[0.11762418517728562,-0.13243045483022403]",4.0,"[-0.03177928468229228,-0.05054319251088877]",4.0,"[-0.12155979078267001,-0.02191868037848536]",4.0,"[-0.004499565755691787,0.15969174149099916]",4.0,"[-0.18712488513675615,-0.060801604982219155]",4.0,"[0.17941163997266488,0.046029993765481725]",4.0,"[0.02,0.02]",210.6084,0.0,42.0,42.0,208.0,1.0,,,,,,,
,,,,,,,5dd3699ee73e6136c640f1cf,6844286014f0fd16d229e9b2,2025-06-07_07h56.39.079,shape_ratio,2024.1.5,Win32,40.16064257,684250e4f00cb30b92d1fa88,,,,,,,,,,,210.609,211.11,,,211.3624,211.7877,right,0.3985,,,,,,,,,0.5,,,,,,211.11,211.3624,211.7879,"[0.15974104891869229,-0.012431579726503194]",100.0,"[0.04849726281867576,-0.1526542603619727]",4.0,"[0.085819109225988,-0.06098109376510622]",4.0,"[-0.09555450484281665,0.08313237573750677]",4.0,"[-0.051127025489716225,-0.04874091911177045]",4.0,"[-0.01815582207957335,-0.1061559947501932]",100.0,"[0.16292358237059895,-0.0572875395967627]",4.0,"[-0.016303579123215936,0.12232737532044942]",4.0,"[0.11986142507370585,0.1081871994757495]",100.0,"[0.11020112402879281,-0.09965123817384076]",4.0,"[0.09436506587548295,0.14524554333325623]",4.0,"[-0.19260419261885686,-0.022419874204548957]",100.0,"[-0.08223117900123195,0.18013301303859477]",100.0,"[0.05973471919560191,0.04247817152958306]",4.0,"[0.021129629503797383,0.07212226707277092]",4.0,"[-0.13423852701247033,0.02578977352496424]",100.0,"[-0.0670617432983577,-0.09298736453213106]",4.0,"[-0.03366494986299993,-0.009625966058575344]",4.0,"[0.17524224020493728,0.09372504013611743]",4.0,"[0.043610532284765566,-0.030190081882974572]",100.0,"[-0.08868885987364221,0.03809626837594112]",100.0,"[-0.03574683374395831,0.17281550667484658]",100.0,"[0.18695187279656209,0.020482796971370086]",100.0,"[0.013446872984901171,0.17917373575517936]",100.0,"[-0.10605000997549363,-0.14247622727809167]",100.0,"[-0.0659468643555511,-0.15704108575752018]",100.0,"[0.04883560843680814,0.14738665848512747]",4.0,"[-0.01755388908910495,-0.19721483916076255]",4.0,"[0.1509081426742791,-0.10994862676599522]",100.0,"[0.15803078480881735,0.05431274437669663]",100.0,"[-0.10110363568402224,-0.06725305447904589]",100.0,"[0.03180212350302948,-0.07112351671767612]",4.0,"[0.02,0.02]",212.8915,0.0,43.0,43.0,98.0,1.0,,,,,,,
,,,,,,,5dd3699ee73e6136c640f1cf,6844286014f0fd16d229e9b2,2025-06-07_07h56.39.079,shape_ratio,2024.1.5,Win32,40.16064257,684250e4f00cb30b92d1fa88,,,,,,,,,,,212.892,213.3936,,,213.6456,214.2224,right,0.5605,,,,,,,,,0.1,,,,,,213.3936,213.6456,214.2226,"[0.07566936040542696,-0.043594848977068446]",100.0,"[-0.1391231148369197,0.03324482469511392]",4.0,"[0.04644984339080194,0.02639673120797647]",100.0,"[0.006314360114380188,-0.15542710910342447]",4.0,"[-0.10400328331607267,-0.12312319687691017]",4.0,"[-0.1411408552096589,-0.050921971025367385]",4.0,"[-0.046570530434978434,0.03878685162476813]",100.0,"[0.15914778219136938,0.06535387707397247]",4.0,"[0.13350586073572035,0.031931345875414754]",4.0,"[-0.10134417461059599,0.06824480065532465]",4.0,"[0.019553488075451982,-0.04865955895198622]",4.0,"[-0.09320628659556086,0.028836517384334563]",4.0,"[0.034852897176395996,0.10291233890240797]",4.0,"[-0.19221120595222896,0.007744007623692491]",4.0,"[0.07589475682607766,-0.09826103713841032]",4.0,"[0.0889341233648207,0.016316281254497567]",4.0,"[0.06603525575375392,0.14747517421378875]",4.0,"[-0.019485654323186448,0.1519055496681681]",4.0,"[0.004463216389561292,0.18561160558124112]",4.0,"[-0.06173005160273549,-0.002941725601162483]",4.0,"[-0.06695613243364085,0.12761517834439384]",4.0,"[-0.10604004550392898,0.15304861397927103]",4.0,"[0.016559947832327712,-0.08923676621440078]",4.0,"[0.1632179827872861,-0.11044241906198417]",4.0,"[0.18773527789991684,-0.030665731797719517]",4.0,"[-0.05602057202394967,-0.15368286255176666]",4.0,"[-0.012640978910448655,0.08186217952033321]",4.0,"[0.08047341564056941,-0.16092359014080912]",4.0,"[-0.13547940373881398,-0.09634308893925483]",4.0,"[0.11946169482940693,0.07449810185572538]",4.0,"[0.1260529366378326,-0.13767078495588372]",4.0,"[-0.0157617325036494,-0.19785631001469292]",4.0,"[0.02,0.02]",215.3261,0.0,44.0,44.0,193.0,1.0,,,,,,,
,,,,,,,5dd3699ee73e6136c640f1cf,6844286014f0fd16d229e9b2,2025-06-07_07h56.39.079,shape_ratio,2024.1.5,Win32,40.16064257,684250e4f00cb30b92d1fa88,,,,,,,,,,,215.3267,215.8282,,,216.079,216.5557,left,0.4519,,,,,,,,,0.4,,,,,,215.8283,216.0789,216.5559,"[0.04504211488499098,0.16254474409535272]",4.0,"[-0.14024881742556913,-0.1233912676360157]",4.0,"[-0.01286260422391594,-0.19381218233716327]",100.0,"[0.05926486234337453,0.11729114119616758]",100.0,"[-0.10528431590790323,-0.098188588040816]",100.0,"[0.1355190003258719,-0.036105248626143276]",4.0,"[-0.0018825330882650277,-0.01112881052799376]",4.0,"[0.11759521180178593,0.04154829554601083]",4.0,"[0.05444388326397154,0.05354652704082471]",100.0,"[-0.13162106448053829,-0.06002611821355734]",100.0,"[-0.04400384765559519,-0.15845321797599074]",4.0,"[-0.13647799324035745,0.035225030453936795]",4.0,"[0.019342286926562327,0.07560035562574868]",4.0,"[0.18148782669811878,-0.057530808293051613]",4.0,"[-0.06598685969620907,-0.0644947806092873]",4.0,"[-0.03301463466391618,0.04055903926193991]",100.0,"[0.10055631346853837,-0.0036406662128713493]",100.0,"[0.18078336610659537,0.07420895014458594]",100.0,"[-0.10213154819092453,-0.16603829380101948]",100.0,"[-0.17649105672801232,0.03779767034036508]",4.0,"[-0.16504575859778164,0.09991002304545779]",100.0,"[-0.11364572012001019,-0.018621215875410164]",4.0,"[0.14350734230180134,-0.1262974047256062]",4.0,"[-0.0544980418083236,0.15012692558340393]",100.0,"[0.0384040760525237,-0.08692140102378981]",4.0,"[-0.038030062741257455,-0.11118992856999736]",4.0,"[0.0921723628590954,-0.05265196852579632]",100.0,"[-0.006256372178076483,0.1839382334261924]",100.0,"[0.047172308604537194,-0.03634883801910437]",4.0,"[0.07727011365287506,-0.15589664704796602]",4.0,"[-0.06617124609190228,0.06378884565596127]",4.0,"[0.01935064472109414,-0.12350828405927917]",4.0,"[0.02,0.02]",217.6597,0.0,45.0,45.0,153.0,1.0,,,,,,,
,,,,,,,5dd3699ee73e6136c640f1cf,6844286014f0fd16d229e9b2,2025-06-07_07h56.39.079,shape_ratio,2024.1.5,Win32,40.16064257,684250e4f00cb30b92d1fa88,,,,,,,,,,,217.6601,218.1619,,,218.4012,218.9647,right,0.528,,,,,,,,,0.6,,,,,,218.1619,218.4011,218.9647,"[0.15693954688290615,-0.12015189777298095]",4.0,"[0.14996648694190595,-0.055964016752462216]",4.0,"[-0.0648007060763428,-0.06628477545643319]",4.0,"[0.1476572015646654,0.023549655158796198]",100.0,"[0.024348643723189824,-0.152685134006108]",100.0,"[0.07900292163285144,0.13686953497942633]",100.0,"[0.06626286341853449,0.04134989682879634]",100.0,"[-0.04962541411883051,0.026082845122267054]",100.0,"[0.02928857026140432,-0.08689721739535397]",100.0,"[-0.08594533579437232,0.09449548160759746]",4.0,"[-0.19685448679609227,0.029742428459198784]",4.0,"[-0.041636819943661245,-0.11274236169991447]",100.0,"[0.1052169923289277,-0.019888133988044565]",100.0,"[0.02273678962037596,0.15497907431785476]",100.0,"[0.08692583465911441,-0.09571283104849289]",4.0,"[-0.10388549019900722,0.15887379803254412]",100.0,"[0.1977258437641182,-0.006625436630150367]",100.0,"[-0.016924146628669097,-0.0719834581845779]",4.0,"[-0.04401293665436817,-0.17646288295645385]",4.0,"[0.062233065388663036,0.18665399948905712]",100.0,"[-0.10084826113191521,-0.019314978638459716]",4.0,"[-0.16387326452206072,0.0842538322282419]",100.0,"[-0.10880735404915813,-0.1388614618767954]",4.0,"[-0.040975218368628295,0.14258697980067486]",100.0,"[-0.05074506446126546,-0.017699408455997965]",100.0,"[0.08868508125715166,-0.13906530368421494]",100.0,"[-0.14085231908247206,-0.07750062384765448]",4.0,"[-0.0038005057975003752,0.19085431650763438]",4.0,"[-0.030766061227291502,0.07960229694768634]",4.0,"[0.13332071703902307,0.1455536579390083]",100.0,"[0.014434103924909706,0.07836362008131995]",100.0,"[0.029197127100485804,0.008178295779174892]",100.0,"[0.02,0.02]",220.0688,0.0,46.0,46.0,39.0,1.0,,,,,,,
,,,,,,,5dd3699ee73e6136c640f1cf,6844286014f0fd16d229e9b2,2025-06-07_07h56.39.079,shape_ratio,2024.1.5,Win32,40.16064257,684250e4f00cb30b92d1fa88,,,,,,,,,,,220.0694,220.5709,,,220.822,221.3485,right,0.5018,,,,,,,,,0.45,,,,,,220.5709,220.8219,221.3486,"[0.06739143898037254,-0.1406877162311459]",100.0,"[0.14161113963681377,0.09576566243450192]",4.0,"[0.09017790073384205,0.15029338310428983]",4.0,"[-0.055797397406047014,0.17832755194534222]",100.0,"[-0.1382823350983729,-0.12444380751330875]",4.0,"[-0.08711786873721633,0.053833829117721915]",100.0,"[-0.11549743566312104,0.1339494026877441]",100.0,"[0.045623347451397005,0.13535314836159248]",4.0,"[0.08197592729475432,0.03151690503404804]",4.0,"[-0.043977643736740464,0.05756518978877838]",100.0,"[-0.12184979116765161,-0.0764504836772735]",4.0,"[-0.008929423117421747,-0.18019002162284395]",4.0,"[-0.05638271115410758,0.11633934373432528]",4.0,"[-0.06902892739490432,-0.020918128248173667]",4.0,"[0.061176607591736126,-0.076718514864597]",100.0,"[0.05642756166412831,-0.00020865537624198714]",100.0,"[-0.10476117647955238,0.014953141057288285]",4.0,"[0.10452394183268437,-0.0027619729280184435]",4.0,"[-0.1581550373507317,0.024145740091804643]",100.0,"[-0.023274672570037555,-0.0245543783359708]",100.0,"[-0.028786331818408287,-0.07768247609897262]",100.0,"[0.013229053050501689,-0.0004014739361008678]",4.0,"[0.0823779591078164,0.0743843995560691]",100.0,"[-0.18755258091481178,-0.049985475957772287]",100.0,"[-0.01033394377785813,0.13916192118660756]",4.0,"[0.1065185696130142,-0.161365145908798]",4.0,"[-0.05592625502795306,-0.13494400094819353]",100.0,"[0.13253969751413758,-0.03917162390526719]",4.0,"[0.012005613941875421,-0.09830531526884674]",4.0,"[0.022157711649659243,0.1755451435906342]",100.0,"[0.15865294385620626,-0.07630418578453949]",4.0,"[-0.09330385890700836,-0.16556336268813515]",4.0,"[0.02,0.02]",222.4525,0.0,47.0,47.0,146.0,1.0,,,,,,,
,,,,,,,5dd3699ee73e6136c640f1cf,6844286014f0fd16d229e9b2,2025-06-07_07h56.39.079,shape_ratio,2024.1.5,Win32,40.16064257,684250e4f00cb30b92d1fa88,,,,,,,,,,,222.4531,222.9537,,,223.1938,223.8076,right,0.5768,,,,,,,,,0.45,,,,,,222.9538,223.1937,223.8077,"[0.0019060625495044587,0.07224840425071005]",100.0,"[-0.06862321215622627,0.04261752063072916]",100.0,"[-0.0931418425505252,0.14291144115575619]",100.0,"[0.05983431273898309,0.18014677025627837]",4.0,"[-0.07889923363215824,0.10303909769986784]",100.0,"[-0.13115222686870734,0.05722360966973372]",4.0,"[-0.12147225526472578,-0.15257898863317637]",4.0,"[0.07689055777284831,-0.14076335593176792]",4.0,"[0.033779688374181466,0.013946786791397454]",100.0,"[0.0717530532255843,0.08716468585300352]",4.0,"[-0.009242171163744234,0.009554699599385678]",4.0,"[0.020148011927853444,-0.08755881215116379]",4.0,"[0.08387110044547104,0.021671137004259048]",4.0,"[-0.10420074208753931,-0.08191848162471162]",100.0,"[-0.17743109498380258,0.08956100523099926]",4.0,"[-0.03864632837569707,-0.036799283724662325]",100.0,"[0.023447948626927236,0.15901516583891978]",4.0,"[-0.08233111212721926,-0.12661154513014886]",100.0,"[-0.09044182111976415,-0.024057232094376994]",100.0,"[-0.1736220681487299,-0.03519860532621896]",4.0,"[0.14819650948786284,-0.03794717986211586]",100.0,"[0.0985194645471724,0.12991282648636177]",4.0,"[0.1920454422601353,0.033306981879214]",100.0,"[0.11169027480706378,-0.0731776683967321]",100.0,"[0.18049309757023363,0.08184991384551445]",4.0,"[0.12045699768526869,0.08464582491977754]",4.0,"[0.026685769648831157,-0.17050505263413956]",4.0,"[0.14203985705313943,0.010320256507146889]",100.0,"[-0.1312646637930632,-0.0480680442062394]",4.0,"[0.01733704009786323,-0.03990675589825248]",100.0,"[-0.02036094873448614,-0.11666124938576236]",4.0,"[-0.15300184089663812,-0.10129422917744657]",4.0,"[0.02,0.02]",224.9114,0.0,48.0,48.0,148.0,1.0,,,,,,,
,,,,,,,5dd3699ee73e6136c640f1cf,6844286014f0fd16d229e9b2,2025-06-07_07h56.39.079,shape_ratio,2024.1.5,Win32,40.16064257,684250e4f00cb30b92d1fa88,,,,,,,,,,,224.912,225.4132,,,225.652,226.7183,left,1.0302,,,,,,,,,0.5,,,,,,225.4133,225.652,226.7184,"[-0.08253620438767698,0.06263514841941951]",4.0,"[0.004370269167316486,0.10745327611286387]",100.0,"[0.043487188750258435,-0.15744922473563827]",4.0,"[-0.12322239869703257,0.007916434415140436]",100.0,"[0.10608855861750316,0.16369562933402157]",100.0,"[-0.1907229575623349,0.01908987173507681]",100.0,"[-0.011463438333590837,0.03990673922441259]",4.0,"[0.10237891692818037,-0.07801565935533272]",4.0,"[-0.1483775558954224,-0.061724000149930326]",4.0,"[0.021735515195406077,-0.014856440953658779]",100.0,"[-0.09504784964219057,-0.028530009912995234]",100.0,"[-0.02334860735569148,-0.17345520738112513]",4.0,"[-0.0004670116285651953,-0.06328553437724144]",4.0,"[-0.03956995087266949,0.08446380719712225]",100.0,"[0.13715494870607844,0.005652534533100716]",4.0,"[0.1533602357555122,0.06594487687332526]",100.0,"[-0.13943827061520908,0.11051039504166837]",100.0,"[-0.1868503482830513,-0.0395528166151697]",100.0,"[0.03919545433026701,0.17984695252997956]",100.0,"[-0.05606985010677891,-0.05022303877196057]",4.0,"[0.07427073035445708,0.0557875133165491]",100.0,"[-0.1854160549007306,0.06115068071897951]",4.0,"[0.08851119922808133,-0.16710211594411375]",100.0,"[0.016966555602682475,-0.19394722685719645]",100.0,"[-0.08982387552700588,-0.10418120081476591]",100.0,"[0.1466720039877013,-0.07012841237989774]",4.0,"[-0.12661045986033004,-0.12850473426906062]",4.0,"[-0.021483564726912104,-0.01754604066267578]",4.0,"[-0.04499003695518318,-0.13383131535316542]",100.0,"[-0.03770625289011117,0.14564807441280342]",4.0,"[0.10180561075782966,-0.024778360716420773]",4.0,"[-0.05394668754138248,0.01336367925578195]",4.0,"[0.02,0.02]",227.8224,0.0,49.0,49.0,109.0,1.0,,,,,,,
