right,left,explain.started,explain.stopped,key_resp_3.keys,key_resp_3.rt,key_resp_3.duration,participant,session,date,expName,psychopyVersion,OS,frameRate,study_id,explain_2.started,explain_2.stopped,key_resp_4.keys,key_resp_4.rt,key_resp_4.duration,explain_3.started,explain_3.stopped,key_resp_5.keys,key_resp_5.rt,key_resp_5.duration,fixation.started,fixation.stopped,practice.started,practice.stopped,response.started,response.stopped,key_resp.keys,key_resp.rt,key_resp.duration,feedback.started,feedback.stopped,trials_2.thisRepN,trials_2.thisTrialN,trials_2.thisN,trials_2.thisIndex,trials_2.ran,dot_ratio,explain_4.started,explain_4.stopped,key_resp_6.keys,key_resp_6.rt,key_resp_6.duration,dotDisplay.started,dotDisplay.stopped,ITI.started,polygon_1.pos,polygon_1.edges,polygon_2.pos,polygon_2.edges,polygon_3.pos,polygon_3.edges,polygon_4.pos,polygon_4.edges,polygon_5.pos,polygon_5.edges,polygon_6.pos,polygon_6.edges,polygon_7.pos,polygon_7.edges,polygon_8.pos,polygon_8.edges,polygon_9.pos,polygon_9.edges,polygon_10.pos,polygon_10.edges,polygon_11.pos,polygon_11.edges,polygon_12.pos,polygon_12.edges,polygon_13.pos,polygon_13.edges,polygon_14.pos,polygon_14.edges,polygon_15.pos,polygon_15.edges,polygon_16.pos,polygon_16.edges,polygon_17.pos,polygon_17.edges,polygon_18.pos,polygon_18.edges,polygon_19.pos,polygon_19.edges,polygon_20.pos,polygon_20.edges,polygon_21.pos,polygon_21.edges,polygon_22.pos,polygon_22.edges,polygon_23.pos,polygon_23.edges,polygon_24.pos,polygon_24.edges,polygon_25.pos,polygon_25.edges,polygon_26.pos,polygon_26.edges,polygon_27.pos,polygon_27.edges,polygon_28.pos,polygon_28.edges,polygon_29.pos,polygon_29.edges,polygon_30.pos,polygon_30.edges,polygon_31.pos,polygon_31.edges,polygon_32.pos,polygon_32.edges,dot_size,ITI.stopped,trials.thisRepN,trials.thisTrialN,trials.thisN,trials.thisIndex,trials.ran,break_2.started,break_2.stopped,trials_3.thisRepN,trials_3.thisTrialN,trials_3.thisN,trials_3.thisIndex,trials_3.ran
subject chose dot,subject chose diamond,0.0002,45.9332,space,30.913,,5f0f6811a0ed4a11dbc57b79,68399de980caacdc60371909,2025-05-30_13h01.20.460,shape_ratio,2024.1.5,MacIntel,59.88023952,683853e18dae57a2147b65e0,,,,,,,,,,,,,,,,,,,,,,,,,,,,,,,,,,,,,,,,,,,,,,,,,,,,,,,,,,,,,,,,,,,,,,,,,,,,,,,,,,,,,,,,,,,,,,,,,,,,,,,,,,,,,,,,,
,,,,,,,5f0f6811a0ed4a11dbc57b79,68399de980caacdc60371909,2025-05-30_13h01.20.460,shape_ratio,2024.1.5,MacIntel,59.88023952,683853e18dae57a2147b65e0,45.9336,89.4536,space,13.4986,,,,,,,,,,,,,,,,,,,,,,,,,,,,,,,,,,,,,,,,,,,,,,,,,,,,,,,,,,,,,,,,,,,,,,,,,,,,,,,,,,,,,,,,,,,,,,,,,,,,,,,,,,,,,
,,,,,,,5f0f6811a0ed4a11dbc57b79,68399de980caacdc60371909,2025-05-30_13h01.20.460,shape_ratio,2024.1.5,MacIntel,59.88023952,683853e18dae57a2147b65e0,,,,,,89.4539,94.1917,space,1.7349,,,,,,,,,,,,,,,,,,,,,,,,,,,,,,,,,,,,,,,,,,,,,,,,,,,,,,,,,,,,,,,,,,,,,,,,,,,,,,,,,,,,,,,,,,,,,,,,,,,,,,,,
,,,,,,,5f0f6811a0ed4a11dbc57b79,68399de980caacdc60371909,2025-05-30_13h01.20.460,shape_ratio,2024.1.5,MacIntel,59.88023952,683853e18dae57a2147b65e0,,,,,,,,,,,94.2145,94.708,94.7086,94.9588,94.9591,95.6417,right,0.658,,95.6418,96.7432,0.0,0.0,0.0,1.0,1.0,0.8,,,,,,,,,,,,,,,,,,,,,,,,,,,,,,,,,,,,,,,,,,,,,,,,,,,,,,,,,,,,,,,,,,,,,,,,,,,,,,,,,,,,,,
,,,,,,,5f0f6811a0ed4a11dbc57b79,68399de980caacdc60371909,2025-05-30_13h01.20.460,shape_ratio,2024.1.5,MacIntel,59.88023952,683853e18dae57a2147b65e0,,,,,,,,,,,96.7441,97.2432,97.2433,97.4941,97.4942,97.8771,left,0.3663,,97.8773,98.978,0.0,1.0,1.0,0.0,1.0,0.2,,,,,,,,,,,,,,,,,,,,,,,,,,,,,,,,,,,,,,,,,,,,,,,,,,,,,,,,,,,,,,,,,,,,,,,,,,,,,,,,,,,,,,
,,,,,,,5f0f6811a0ed4a11dbc57b79,68399de980caacdc60371909,2025-05-30_13h01.20.460,shape_ratio,2024.1.5,MacIntel,59.88023952,683853e18dae57a2147b65e0,,,,,,,,,,,,,,,,,,,,,,,,,,,,98.9787,102.5972,space,0.6057,,,,,,,,,,,,,,,,,,,,,,,,,,,,,,,,,,,,,,,,,,,,,,,,,,,,,,,,,,,,,,,,,,,,,,,,,,,,,,,,,,
,,,,,,,5f0f6811a0ed4a11dbc57b79,68399de980caacdc60371909,2025-05-30_13h01.20.460,shape_ratio,2024.1.5,MacIntel,59.88023952,683853e18dae57a2147b65e0,,,,,,,,,,,102.6143,103.0982,,,103.3492,103.3985,left,0.0372,,,,,,,,,0.1,,,,,,103.0989,103.3492,103.399,"[0.1031706721842923,-0.1484687706336812]",4.0,"[0.10002981402401505,0.11494165384369877]",4.0,"[-0.14221996373329276,0.07227257921843847]",4.0,"[-0.1575155380124625,-0.02127290513035577]",4.0,"[0.053361309705508196,-0.192367378202284]",4.0,"[0.018962684177496296,0.1088580174835537]",4.0,"[-0.030594173386104224,-0.006356398447604998]",4.0,"[-0.1604492505479347,-0.07102534398469863]",4.0,"[0.07024909507465649,-0.05616609902788844]",4.0,"[-0.03577209486620917,0.17871294498310897]",100.0,"[-0.09545658582035961,-0.08021976592744479]",4.0,"[0.18252002254077465,-0.024572197006199694]",4.0,"[0.040194285911748916,-0.026348858309391307]",4.0,"[-0.02193791636706513,0.04928091483533731]",4.0,"[-0.10346901513811349,0.008102015203607038]",4.0,"[0.1676313675500345,0.06858420896142883]",4.0,"[-0.014571554948341883,-0.1733171509510498]",4.0,"[0.03004165518573809,-0.09559641063953636]",4.0,"[-0.01466328658749551,-0.06068131293570687]",100.0,"[0.14791892399328413,0.11334760806811249]",100.0,"[0.12867624943825182,-0.10479698155693538]",4.0,"[0.04512304767658202,0.043218401885461284]",4.0,"[0.06035500930930875,0.16191953230623266]",4.0,"[0.12320272052905239,-0.012745760492435471]",4.0,"[-0.06494730151121776,0.08756638263698452]",4.0,"[0.09549027385175796,0.06994327438481836]",4.0,"[-0.11305845436929934,-0.1458520520555669]",4.0,"[-0.028559749992628603,-0.11965096891748606]",4.0,"[0.09701864676968229,0.021469819697971237]",4.0,"[-0.0584398919044315,0.1417658226642532]",4.0,"[-0.13808708198909242,0.11956552598830918]",4.0,"[0.17664347827253363,-0.09084741726398621]",4.0,"[0.02,0.02]",104.4987,0.0,0.0,0.0,196.0,1.0,,,,,,,
,,,,,,,5f0f6811a0ed4a11dbc57b79,68399de980caacdc60371909,2025-05-30_13h01.20.460,shape_ratio,2024.1.5,MacIntel,59.88023952,683853e18dae57a2147b65e0,,,,,,,,,,,104.4994,104.9989,,,105.2504,105.9507,left,0.684,,,,,,,,,0.1,,,,,,104.999,105.2504,105.9508,"[-0.06885425415411171,0.01711132513087054]",4.0,"[-0.1093995537022533,-0.15675906175320675]",4.0,"[-0.092410034756849,0.16277976843842726]",100.0,"[-0.06130514639803185,-0.07053470599030252]",100.0,"[-0.1467708511347577,-0.007353397768962234]",4.0,"[0.10203442784257337,-0.06775265524753743]",4.0,"[-0.11090116511488769,0.0767619727142937]",4.0,"[-0.15241449436080023,0.10246633685614873]",4.0,"[0.15894080722980405,-0.07648898247637209]",4.0,"[-0.010438422957368344,-0.055128152051706396]",4.0,"[0.04272943671027628,0.14315680345356696]",4.0,"[0.13012414348900075,-0.031136928371977044]",4.0,"[-0.018067013660993426,-0.13959757484725463]",4.0,"[-0.04576004423198045,-0.1832696422824237]",4.0,"[-0.023097664236276648,0.028229842378575933]",4.0,"[0.0023330198934581143,0.15219004516561563]",4.0,"[0.1627216890336643,0.09819395991350337]",4.0,"[0.14997904913820112,0.041750551252230324]",4.0,"[-0.11612964460476738,0.12456722084069852]",100.0,"[0.09450046530143698,0.09858441826628957]",4.0,"[-0.1097202756655361,-0.03266489276692065]",4.0,"[0.04184164563920793,-0.19332558884794857]",4.0,"[0.10558407331892265,-0.13166263192932695]",4.0,"[-0.06153658267424083,-0.12856246526340404]",4.0,"[0.029237378399540947,-0.0010148603298902974]",4.0,"[-0.17386950785574362,0.02910751834258353]",4.0,"[-0.16781007573915663,-0.08766677175920247]",4.0,"[-0.09281110175099373,-0.09593018635654747]",4.0,"[0.1837781499164892,0.01311500199138111]",4.0,"[0.035919458980374706,0.09526793062252578]",4.0,"[-0.047545964132662606,0.09785082440281817]",4.0,"[-0.027440270860435483,0.19229354517159775]",4.0,"[0.02,0.02]",107.0516,0.0,1.0,1.0,198.0,1.0,,,,,,,
,,,,,,,5f0f6811a0ed4a11dbc57b79,68399de980caacdc60371909,2025-05-30_13h01.20.460,shape_ratio,2024.1.5,MacIntel,59.88023952,683853e18dae57a2147b65e0,,,,,,,,,,,107.0522,107.552,,,107.803,108.035,right,0.2199,,,,,,,,,0.45,,,,,,107.552,107.8029,108.0352,"[-0.0034004106407546546,-0.03732626730446964]",4.0,"[0.011115932252690438,0.18085515867659996]",100.0,"[-0.12707367266994848,0.11302601160292444]",4.0,"[-0.08872032035552878,-0.09277195623667737]",4.0,"[0.015401291364051016,0.06453509806871058]",100.0,"[-0.08143680752036428,-0.14870602279992792]",4.0,"[-0.005049519339647872,-0.10131632674473193]",100.0,"[-0.13810355699015622,-0.035891890598186635]",4.0,"[0.035507290935041326,-0.07354721583852158]",100.0,"[0.18571512822592653,0.013529669012906299]",4.0,"[0.07044388082433516,0.048339880540575995]",4.0,"[0.06048376412230576,-0.14173805983546348]",100.0,"[0.11238398842571487,-0.15159563992791095]",100.0,"[-0.13451803845282467,0.01192930793837893]",100.0,"[-0.15636663035188467,0.0512034232949356]",4.0,"[-0.06440888180643066,-0.02449900293080434]",4.0,"[0.1475801405078593,0.1242628267659393]",100.0,"[-0.07420173712172892,0.02278404134310053]",4.0,"[0.10419122990328501,-0.029664691771680313]",4.0,"[-0.08597048047021937,0.11750026453282748]",4.0,"[-0.1893845356066552,0.022233317666540905]",100.0,"[-0.10344094368624018,0.05129766204331372]",4.0,"[-0.05141761107891288,0.05850009657782016]",4.0,"[0.09168478187268875,-0.0951825952345601]",100.0,"[0.007614969517100143,-0.19499752598066086]",4.0,"[0.05615199649076752,-0.030161473132537]",4.0,"[0.06964260529020737,0.11655162777289069]",100.0,"[0.0009552011878718574,-0.1502573886399552]",100.0,"[0.048309166350427556,0.013503272185240098]",4.0,"[0.13701953313451107,0.04175227351342151]",4.0,"[-0.040030247175635275,0.12248968850327087]",100.0,"[-0.17820764450871027,0.0875846487972565]",100.0,"[0.02,0.02]",109.1357,0.0,2.0,2.0,139.0,1.0,,,,,,,
,,,,,,,5f0f6811a0ed4a11dbc57b79,68399de980caacdc60371909,2025-05-30_13h01.20.460,shape_ratio,2024.1.5,MacIntel,59.88023952,683853e18dae57a2147b65e0,,,,,,,,,,,109.1362,109.6371,,,109.8879,110.7206,left,0.8168,,,,,,,,,0.9,,,,,,109.6371,109.8879,110.7206,"[-0.0561022458645554,0.1600644266354177]",100.0,"[0.013738815549900639,-0.15853872671607702]",100.0,"[-0.06999292449646703,-0.12044866932189531]",100.0,"[0.0625737994873721,0.16129405195469146]",100.0,"[0.18262360287668905,-0.06772991073965606]",100.0,"[-0.043341356855718056,0.005582519570008196]",100.0,"[0.02285847014667398,0.005966725505543193]",100.0,"[0.08752583968708567,-0.02604071029742995]",100.0,"[0.08036746285704721,-0.10790867798528887]",100.0,"[0.05993466753254232,-0.06838059071516438]",4.0,"[0.00510411221239075,-0.08081534867296247]",100.0,"[-0.15864157533337211,0.007766389724857665]",100.0,"[-0.019464503944570295,0.19600421946973257]",100.0,"[-0.10484958197969194,0.0912155743372432]",100.0,"[0.030587312508865365,0.11107676581368973]",100.0,"[-0.09798805466277712,-0.07901133226859591]",100.0,"[-0.17570701413075668,0.04633947022411031]",100.0,"[0.15287172927493814,0.021248076580713468]",100.0,"[-0.0659619966007802,-0.03901683843474181]",100.0,"[-0.14710279535664814,-0.0786747945125991]",100.0,"[-0.057187808947556956,0.04617937248663573]",4.0,"[-0.04985888308959682,-0.17008012957564003]",100.0,"[0.10826135034025076,-0.06548231743593387]",100.0,"[0.04391738657291691,0.06758653524303371]",100.0,"[0.0339760170908999,-0.11571440950116982]",4.0,"[-0.19794077541106853,-0.011460664634583199]",100.0,"[-0.022083517085960822,0.09654390946099295]",100.0,"[0.023502229458553472,0.17891157297546958]",100.0,"[0.11832238608700868,0.14221344037988962]",100.0,"[0.16840578708669926,0.06172307936253097]",100.0,"[0.15460898082981564,-0.03282673188961657]",100.0,"[-0.12634870201909118,-0.14932846885366338]",100.0,"[0.02,0.02]",111.8224,0.0,3.0,3.0,21.0,1.0,,,,,,,
,,,,,,,5f0f6811a0ed4a11dbc57b79,68399de980caacdc60371909,2025-05-30_13h01.20.460,shape_ratio,2024.1.5,MacIntel,59.88023952,683853e18dae57a2147b65e0,,,,,,,,,,,111.823,112.3228,,,112.5733,112.7399,right,0.1506,,,,,,,,,0.55,,,,,,112.3229,112.5733,112.74,"[-0.01531509498591807,0.17611166532283162]",4.0,"[0.0703074584868525,-0.03267684308925529]",4.0,"[-0.16824005912629614,-0.03248424457463502]",100.0,"[0.10555052648507887,-0.06314714819667634]",4.0,"[0.043377428705445795,-0.19472899969466112]",4.0,"[0.1157780436791639,0.13305197143058692]",100.0,"[-0.15783676123246626,-0.11950907012224378]",100.0,"[0.07359415962285029,-0.16145651521608237]",100.0,"[0.03527654637208236,0.005174942007132057]",4.0,"[-0.11236631754619747,-0.038314899554732225]",100.0,"[0.01722380032016719,0.07447888155147707]",100.0,"[-0.1829477929066631,0.06641009668431151]",100.0,"[-0.10369601905981508,-0.1647115670866547]",4.0,"[0.07210861978652722,0.1345066140641722]",100.0,"[-0.09370811580703704,0.09374891849900513]",100.0,"[-0.012561584451655837,-0.006897915130839393]",4.0,"[-0.07220155115250641,-0.08201047301334873]",4.0,"[0.09089190838629335,0.07948524119490823]",4.0,"[0.11162169479549558,-0.007125751715117823]",4.0,"[-0.09861305762930692,0.019357357549466256]",100.0,"[0.029371778363066058,0.1405541329154771]",100.0,"[0.08604910348323215,0.02680759543148193]",4.0,"[0.18056748940017345,0.037262729664817675]",100.0,"[-0.14251749693198268,0.11085400170955122]",100.0,"[0.006381348971542794,-0.06543412336750788]",100.0,"[0.14959561299187038,-0.030494410008915063]",4.0,"[-0.01717785003689973,-0.1961394242953791]",100.0,"[-0.13150541372417046,-0.08137679584999566]",100.0,"[0.1376870622939418,0.030626257284657437]",4.0,"[-0.002220667044995182,0.038667053736527936]",100.0,"[-0.015925280508164465,-0.13646763400883694]",4.0,"[-0.03705498114271675,0.09938980711446675]",100.0,"[0.02,0.02]",113.8398,0.0,4.0,4.0,68.0,1.0,,,,,,,
,,,,,,,5f0f6811a0ed4a11dbc57b79,68399de980caacdc60371909,2025-05-30_13h01.20.460,shape_ratio,2024.1.5,MacIntel,59.88023952,683853e18dae57a2147b65e0,,,,,,,,,,,113.8404,114.3412,,,114.592,114.8741,left,0.2714,,,,,,,,,0.45,,,,,,114.3413,114.5918,114.8742,"[-0.03346857376040693,0.1569807356199886]",100.0,"[0.15092376584969908,0.07999960488756432]",100.0,"[0.06105335140993499,-0.15267390781457046]",100.0,"[0.12367689369441068,-0.1385867863641823]",4.0,"[0.07346021606015264,0.015383624470503692]",4.0,"[0.17944339118982833,0.03203110687886361]",4.0,"[0.028405985997493593,0.07209809754388014]",4.0,"[-0.13195874243505618,-0.06102487352388503]",4.0,"[0.0932417452982991,0.1230143335513117]",4.0,"[-0.05162325643679284,0.09686368309943488]",100.0,"[0.11585490587683583,-0.08285955494712956]",4.0,"[-0.010556355356020118,0.02037841281258915]",100.0,"[-0.08460145827889182,0.059042030801248424]",4.0,"[-0.13986790358390822,0.09833843382577527]",100.0,"[-0.04681249534463457,-0.14339814561480183]",100.0,"[0.022984147923025514,-0.019615502302299154]",4.0,"[-0.06775819966991112,0.009609595795848924]",4.0,"[0.17162800544433998,-0.014131421911027864]",100.0,"[0.155669972100213,-0.10460025580138696]",4.0,"[0.050112313228770654,-0.07946850592658339]",100.0,"[-0.14245045458464967,0.013432776911710189]",4.0,"[0.11495286942256999,0.009952077060505576]",4.0,"[-0.10060512464165952,-0.14446303959376208]",4.0,"[-0.17617860432283927,-0.015459021718638702]",100.0,"[0.009555240621849963,-0.15643101001713008]",4.0,"[0.009624572729767982,0.1204748586309776]",4.0,"[0.15872100629457384,-0.05916360574171185]",4.0,"[-0.1619759923674854,0.057719139703863526]",100.0,"[0.022831256346358363,-0.11403662236836533]",100.0,"[0.05268915334611551,0.15666259454432577]",4.0,"[-0.03445267569542078,-0.18781131675277477]",100.0,"[-0.12453417909069406,0.14548817600496552]",100.0,"[0.02,0.02]",115.9758,0.0,5.0,5.0,121.0,1.0,,,,,,,
,,,,,,,5f0f6811a0ed4a11dbc57b79,68399de980caacdc60371909,2025-05-30_13h01.20.460,shape_ratio,2024.1.5,MacIntel,59.88023952,683853e18dae57a2147b65e0,,,,,,,,,,,115.9764,116.4755,,,116.7261,117.3437,left,0.6124,,,,,,,,,0.5,,,,,,116.4755,116.7261,117.3438,"[0.053048168898812156,0.12565977988721175]",100.0,"[0.09130229761114887,0.04053978553149804]",100.0,"[0.019091015165339623,-0.02828163798584846]",4.0,"[0.05794310509747885,-0.10434397769303394]",100.0,"[-0.06181447620820504,-0.0322661483687404]",4.0,"[-0.06770480085118787,0.15812368835180868]",4.0,"[0.019739617144601287,-0.16280138164441596]",4.0,"[0.016165146711370385,0.04571336495484594]",4.0,"[-0.1965075041359187,0.01422132605655672]",4.0,"[-0.0719419551980215,0.1089687431722052]",4.0,"[-0.10267614056573875,-0.000019655683220398565]",100.0,"[0.017366321271406904,-0.06990523540024225]",4.0,"[-0.0008586235900931787,0.14974815835049402]",100.0,"[-0.13341767475779714,0.10641552316404618]",4.0,"[0.14097599470798935,0.13634912390036052]",100.0,"[0.07721687413041045,-0.17368852235661258]",100.0,"[0.10074188011154168,-0.026898786401326]",100.0,"[0.19287309795501878,0.04465839405672862]",100.0,"[0.11492650951329528,0.10052179886319086]",100.0,"[-0.13387348108393976,-0.045630945350172016]",100.0,"[-0.11250350211664883,-0.13920427801199747]",4.0,"[-0.14907958056604484,-0.08488061854948087]",100.0,"[-0.10505228213036517,-0.09284192994511455]",100.0,"[0.13398720924262203,-0.09701262734531621]",100.0,"[0.16290312797931758,0.0907317587753183]",4.0,"[0.15813186539831645,0.023101073429617532]",4.0,"[-0.06939742862766533,-0.16994981402088763]",4.0,"[-0.02822521219818503,0.03486850832694255]",100.0,"[-0.1470355008230674,0.05092538543469212]",4.0,"[0.15522562849316324,-0.025663515113697365]",100.0,"[-0.17684547070705922,-0.02998462784979094]",4.0,"[-0.022670463238945598,-0.16183205265571013]",4.0,"[0.02,0.02]",118.4439,0.0,6.0,6.0,92.0,1.0,,,,,,,
,,,,,,,5f0f6811a0ed4a11dbc57b79,68399de980caacdc60371909,2025-05-30_13h01.20.460,shape_ratio,2024.1.5,MacIntel,59.88023952,683853e18dae57a2147b65e0,,,,,,,,,,,118.4444,118.9442,,,119.1953,119.261,left,0.0548,,,,,,,,,0.55,,,,,,118.9442,119.1953,119.2611,"[-0.11949180248622006,-0.06636782849865559]",100.0,"[0.07521034552511542,-0.08893087019071531]",4.0,"[-0.1691629646717707,0.04150329394095019]",4.0,"[-0.05785926685594158,-0.023077082982469077]",100.0,"[0.09932054426028637,-0.1669836017884463]",100.0,"[0.18858549218711818,-0.04026950541098928]",100.0,"[-0.02762875457930376,-0.06664939038229217]",4.0,"[-0.08123292861071223,0.1131956138779704]",100.0,"[0.11499788861169984,-0.0512608145082993]",4.0,"[0.04290462212769179,0.008190444795633722]",100.0,"[-0.03946107853892029,0.1797214668065202]",100.0,"[0.015852037448544822,-0.19464443446652646]",100.0,"[0.09885183860999416,0.03230708653411259]",100.0,"[0.045310789908159926,0.11917781327873457]",4.0,"[-0.14810786019009126,0.091893543513105]",100.0,"[-0.18773218515882115,-0.04827154793950078]",100.0,"[-0.05069356888475762,-0.1923982095253549]",100.0,"[-0.11237642449222877,0.050078253311474544]",100.0,"[-0.06906637848477547,0.06183224244039243]",4.0,"[0.008752222630220284,0.13736757837071664]",4.0,"[0.031211055622331504,-0.11301412031855763]",4.0,"[-0.0010675163331645655,0.19315340649740553]",4.0,"[-0.08536592344157418,-0.13652024100828067]",100.0,"[0.05073326901563815,-0.1698112074314027]",4.0,"[-0.1117275489782605,-0.02198885419455653]",100.0,"[0.12992433475559112,-0.0028120604486709232]",4.0,"[0.11770463906816267,0.15082936241619668]",4.0,"[0.1917005764498941,0.0032048328600060155]",100.0,"[0.05645821855294637,-0.03275420002439518]",4.0,"[0.16791751478492267,0.042491187757179215]",4.0,"[0.08967571222663542,0.10229341892506141]",100.0,"[-0.04757168396287877,0.025496351431700454]",100.0,"[0.02,0.02]",120.3619,0.0,7.0,7.0,65.0,1.0,,,,,,,
,,,,,,,5f0f6811a0ed4a11dbc57b79,68399de980caacdc60371909,2025-05-30_13h01.20.460,shape_ratio,2024.1.5,MacIntel,59.88023952,683853e18dae57a2147b65e0,,,,,,,,,,,120.3624,120.8634,,,121.1134,121.1638,right,0.0322,,,,,,,,,0.6,,,,,,120.8635,121.1134,121.1639,"[-0.05725501337421851,-0.005020927493681427]",4.0,"[-0.09355774737584112,-0.13227581639781963]",4.0,"[-0.061911601600213216,-0.17905205924940037]",100.0,"[-0.05898357921435763,0.03994052009757541]",4.0,"[0.020361994458404576,0.032699106874543075]",100.0,"[0.020486706312608096,0.1629994712916157]",100.0,"[0.13684452478878684,0.018179306908256674]",4.0,"[-0.12029783595948418,-0.031630832661763655]",100.0,"[-0.01287756038691123,-0.17619923426605189]",4.0,"[-0.12806147137530038,0.019210404251348536]",100.0,"[0.14047560469218687,0.11513992358386681]",100.0,"[0.06115564359041308,0.16458382070311525]",100.0,"[-0.09449231747495596,0.09751278126674291]",100.0,"[-0.1418552985764245,-0.13776204228649522]",100.0,"[-0.1809301360103304,-0.0040293547378242546]",100.0,"[-0.057644764222055035,-0.04779511661294169]",100.0,"[-0.1393590462772957,0.0973509213951554]",100.0,"[0.09074264072834859,-0.0791119964125219]",100.0,"[0.19525066646321432,-0.011431068655363693]",4.0,"[-0.027612469888954806,0.0996681843408486]",4.0,"[0.1468653376358444,0.05993353105515102]",100.0,"[-0.06169921509602719,0.14753687101969384]",100.0,"[0.13940155709050409,-0.12785358679438422]",4.0,"[-0.14169478974029162,0.05729259196163214]",4.0,"[-0.14247209072927125,0.13860462991342618]",4.0,"[0.07264904658834523,0.03918591499592826]",100.0,"[-0.11558942666136483,-0.08189757400481869]",100.0,"[-0.03675644244398476,-0.12981769748837232]",4.0,"[0.05635578266914409,-0.12993784066366226]",100.0,"[0.17402603107399514,-0.09111563858840917]",4.0,"[-0.0487626653248596,0.1912902555950284]",100.0,"[0.06535106198803078,0.12110979007560074]",4.0,"[0.02,0.02]",122.2646,0.0,8.0,8.0,38.0,1.0,,,,,,,
,,,,,,,5f0f6811a0ed4a11dbc57b79,68399de980caacdc60371909,2025-05-30_13h01.20.460,shape_ratio,2024.1.5,MacIntel,59.88023952,683853e18dae57a2147b65e0,,,,,,,,,,,122.2653,122.7652,,,123.0147,123.3156,right,0.284,,,,,,,,,0.5,,,,,,122.7653,123.0146,123.3157,"[-0.13405543661497216,0.0017378887848806398]",100.0,"[-0.12796081838868384,-0.05292873489255998]",4.0,"[0.04475890811818909,-0.021421357072240077]",4.0,"[-0.1173909666291993,-0.13204020044989478]",4.0,"[0.04204634949135676,-0.18483958715294269]",4.0,"[0.14525685386448237,0.027323305957228785]",4.0,"[-0.04252053065001469,0.02041226713802676]",4.0,"[-0.010915943423811489,-0.1767382324571692]",100.0,"[0.154935385847897,-0.04630970907744324]",100.0,"[0.09537622201923343,-0.06666213190304765]",4.0,"[0.08846209927759677,-0.15100416621667656]",4.0,"[-0.14154352383918592,0.11348467407176897]",100.0,"[0.060552012245065456,0.1596946738868824]",4.0,"[-0.15644612716868714,-0.09232356202271001]",4.0,"[0.032109523813518344,-0.07270566999559441]",100.0,"[-0.0395058200683907,-0.10356166471424869]",100.0,"[0.04866454109269296,0.11827534986134138]",100.0,"[0.011199109225734959,0.041329876063663756]",100.0,"[0.044803550346659685,-0.12403229562530738]",4.0,"[-0.10462471595594913,0.14024721689639277]",100.0,"[0.163442782441145,0.09046720343461821]",4.0,"[0.12193670805351987,-0.12431708080340902]",4.0,"[-0.08246900779843769,0.031156117728234872]",100.0,"[-0.023119670689444875,0.17408999018525076]",4.0,"[-0.045869365440148406,-0.1568748346822719]",100.0,"[0.0924551661038296,0.08581010351737503]",100.0,"[-0.14439700038935538,0.04938198642337131]",100.0,"[-0.1832522497687523,-0.012138279264085339]",4.0,"[-0.025904131165175804,-0.06134838962351224]",100.0,"[-0.04575941163733359,0.07081159878526899]",4.0,"[0.07450282501231334,0.0482177412462144]",100.0,"[-0.10556440194446942,0.06769430950715434]",100.0,"[0.02,0.02]",124.4166,0.0,9.0,9.0,95.0,1.0,,,,,,,
,,,,,,,5f0f6811a0ed4a11dbc57b79,68399de980caacdc60371909,2025-05-30_13h01.20.460,shape_ratio,2024.1.5,MacIntel,59.88023952,683853e18dae57a2147b65e0,,,,,,,,,,,124.4172,124.917,,,125.1677,125.2005,right,0.0227,,,,,,,,,0.55,,,,,,124.917,125.1677,125.2006,"[0.035893296985494705,0.14466334761409383]",4.0,"[-0.04855103506955002,-0.12189214608023319]",100.0,"[-0.1292437145750959,0.11804205948312771]",100.0,"[0.04325401551261317,0.07640090847025037]",100.0,"[0.10154483061903616,0.03855257635387063]",100.0,"[0.1390170007595603,0.11108030265423731]",100.0,"[-0.14303609874138537,-0.13670296053500258]",100.0,"[-0.015533969766593792,-0.17396272726061615]",100.0,"[0.03031058077082953,0.00590903228612964]",100.0,"[-0.14153756957958608,-0.026741709381359897]",100.0,"[-0.07616586306532921,-0.06504182385991998]",4.0,"[0.06610612829434089,-0.03604668735041525]",4.0,"[0.18693319290635388,0.043279807275821765]",100.0,"[0.07769271224302551,-0.08191795783311986]",100.0,"[0.03394691790837748,-0.08637142817636252]",100.0,"[0.18954873538382358,-0.015294941410415505]",100.0,"[-0.03646488395769902,0.028591557715017393]",4.0,"[-0.16061454071523368,0.07134621052604039]",4.0,"[0.15713080616533212,-0.07801224884189911]",4.0,"[0.12361870217961918,-0.11956449966961107]",4.0,"[-0.006092222123464856,0.1374632923436304]",100.0,"[-0.06573488245836702,0.14487623764480037]",4.0,"[0.03484560561557758,-0.14276540434303692]",4.0,"[0.008702198926992285,0.19463109278792393]",100.0,"[-0.002441744548707724,0.07587752036882968]",4.0,"[0.07920769171999152,-0.1335240614231723]",100.0,"[-0.10883044363103535,-0.16637020790709087]",4.0,"[0.059776087422157655,0.1795011563090567]",4.0,"[0.11231208802211375,-0.057121812209035505]",100.0,"[-0.03668204361513713,-0.05791454576674823]",4.0,"[0.11364460668573804,-0.010152459402521238]",4.0,"[0.07698981281181858,0.13670392509877854]",100.0,"[0.02,0.02]",126.3014,0.0,10.0,10.0,75.0,1.0,,,,,,,
,,,,,,,5f0f6811a0ed4a11dbc57b79,68399de980caacdc60371909,2025-05-30_13h01.20.460,shape_ratio,2024.1.5,MacIntel,59.88023952,683853e18dae57a2147b65e0,,,,,,,,,,,126.302,126.8019,,,127.0525,127.7361,left,0.6669,,,,,,,,,0.4,,,,,,126.8019,127.0525,127.7362,"[0.07191161072379006,-0.04600425816687082]",4.0,"[0.016807873052131172,-0.09734306374783674]",4.0,"[-0.06448297325380188,0.08409001732765758]",4.0,"[-0.13839241911602254,-0.044095785900938746]",100.0,"[0.022513587654616713,0.128923816028459]",100.0,"[-0.17843382685889803,-0.017872537068512013]",4.0,"[-0.07154285139802603,-0.06731939295698353]",4.0,"[-0.12306356834803514,0.006175228323471248]",4.0,"[0.009097795884453712,0.018783466508194527]",4.0,"[-0.13543690922938417,-0.11203596234041105]",4.0,"[-0.09684197923649616,0.17274808371644532]",100.0,"[0.04955750241803817,0.0381390450139943]",4.0,"[0.11724170065994718,-0.09698140619903549]",4.0,"[0.07340597406522953,-0.11854461622825]",100.0,"[-0.023380261153194103,-0.16285048649671868]",4.0,"[-0.04537888288150768,-0.02637241655666097]",100.0,"[0.1200405242993579,0.1591691360399016]",4.0,"[0.16584105182848757,0.04439616820420809]",4.0,"[0.15946476203528662,-0.060267875449602]",4.0,"[-0.13319768960356204,0.07060629663139024]",100.0,"[-0.007873959986552189,0.08038137629342938]",4.0,"[0.034735953249276835,-0.18592454931346328]",4.0,"[-0.06488652673475694,0.12852532039447764]",100.0,"[-0.19158873761347375,0.022337214336104458]",4.0,"[0.13200404245314182,0.08447643316697274]",100.0,"[0.09572697093777925,0.11246088602502081]",4.0,"[0.021001746438204245,-0.1470269308039145]",100.0,"[-0.05072501490641939,0.0421059784430242]",100.0,"[-0.13291953554642608,0.13392539666502737]",4.0,"[-0.0870704931784849,-0.12091919103523242]",100.0,"[-0.1802304714666658,0.07740802531282073]",100.0,"[0.1778884295112443,-0.010002068044165537]",100.0,"[0.02,0.02]",128.8369,0.0,11.0,11.0,174.0,1.0,,,,,,,
,,,,,,,5f0f6811a0ed4a11dbc57b79,68399de980caacdc60371909,2025-05-30_13h01.20.460,shape_ratio,2024.1.5,MacIntel,59.88023952,683853e18dae57a2147b65e0,,,,,,,,,,,128.8375,129.3373,,,129.5881,129.6878,right,0.0834,,,,,,,,,0.5,,,,,,129.3373,129.5881,129.6878,"[0.1370818489030508,-0.014793867364832012]",100.0,"[-0.015924353854752608,0.0404621037393382]",100.0,"[0.12449358961172247,0.07033024756841419]",4.0,"[-0.062286988679524764,-0.15450586931734425]",100.0,"[-0.14629793969169674,-0.04123545227686252]",4.0,"[0.03041773287082847,-0.1740649487929142]",4.0,"[-0.012328365526707841,0.09947687489385361]",4.0,"[0.1298601922538218,-0.10587765887227263]",100.0,"[0.04153245211427706,-0.11730430255997447]",4.0,"[0.11376228955321689,0.11683784854378018]",4.0,"[-0.06910335194202288,0.1515828024568424]",4.0,"[0.021770122697466008,-0.06601453933663344]",100.0,"[0.07078265334165029,-0.06850474928555708]",4.0,"[-0.0678028129369627,0.06439227185575204]",4.0,"[-0.15324103873551334,0.1197456260340691]",100.0,"[0.016893278853756126,0.17194534302550102]",4.0,"[0.06754641755111654,0.02334363883672631]",4.0,"[-0.09855235131890913,-0.019452443254989384]",100.0,"[0.03600285536476592,0.10163455544119948]",100.0,"[-0.012110121181449992,-0.00545037818792636]",100.0,"[0.18015488471533217,0.052420194338854184]",4.0,"[-0.10129643000318658,-0.13406031251052203]",100.0,"[-0.18944408015689515,-0.028177482933915202]",100.0,"[-0.19332889629437486,0.020686098619622225]",100.0,"[-0.024398374136291312,-0.11507732942134093]",4.0,"[0.08098172836170052,0.07985354189806358]",4.0,"[-0.1799401048931769,0.06812484530201653]",100.0,"[-0.06229821364058986,-0.06409335342119915]",100.0,"[-0.13488792898829058,0.027082920613957364]",100.0,"[-0.015228306991123692,-0.19436999343879147]",4.0,"[-0.017124274291150533,-0.04923511123386771]",100.0,"[0.18278470696313823,-0.054503792696953664]",4.0,"[0.02,0.02]",130.7886,0.0,12.0,12.0,102.0,1.0,,,,,,,
,,,,,,,5f0f6811a0ed4a11dbc57b79,68399de980caacdc60371909,2025-05-30_13h01.20.460,shape_ratio,2024.1.5,MacIntel,59.88023952,683853e18dae57a2147b65e0,,,,,,,,,,,130.7892,131.2889,,,131.5395,131.6227,left,0.0664,,,,,,,,,0.6,,,,,,131.289,131.5395,131.6227,"[0.1140141913925982,0.09371773283954286]",100.0,"[0.02800199995770814,-0.17359175298281343]",100.0,"[-0.05454402730253819,-0.13401788014809443]",4.0,"[0.16634396076856053,-0.0715753897707413]",100.0,"[-0.06507138149136797,-0.013430451554333454]",100.0,"[-0.18557694433719935,0.058739568496478545]",100.0,"[-0.13063094643308343,0.03543394246879887]",4.0,"[0.1982240361704693,-0.014915481815207006]",4.0,"[0.07580759901509473,0.019896308250123878]",4.0,"[-0.018803632621951633,-0.0512841244013131]",4.0,"[0.025572917351890576,0.04919463919158428]",4.0,"[0.02391679627880597,-0.12457694939040423]",100.0,"[-0.11443467978579562,-0.012493389764678614]",4.0,"[-0.12706298454930873,-0.10282769889499607]",100.0,"[0.11322042352250333,-0.10953980062857586]",100.0,"[0.06441539174503078,-0.043616670105766184]",100.0,"[-0.03829144268375794,0.08836998081758869]",100.0,"[0.00829771178017012,0.1669735606697784]",100.0,"[0.12649769383984638,0.1322953988842662]",100.0,"[0.052509046877171305,0.0864390760506467]",100.0,"[-0.08071517511919328,0.1529359678273492]",4.0,"[0.18162601573993037,0.04749536961800192]",100.0,"[-0.0901988983356797,-0.06867991162037168]",100.0,"[0.11642474088524823,0.007271451879534185]",4.0,"[-0.053125172895860696,0.18929091702058817]",4.0,"[0.094005279832896,-0.16443245979107163]",100.0,"[0.07339845657733045,-0.08644230092606733]",100.0,"[-0.1919056979817223,-0.009315652316867906]",4.0,"[-0.14755727505945246,0.12209048937880077]",100.0,"[0.027940831935943346,-0.07285998801170547]",4.0,"[-0.15027632441442765,-0.06780639239106978]",4.0,"[-0.012507374519097104,-0.09207000528752023]",100.0,"[0.02,0.02]",132.7236,0.0,13.0,13.0,53.0,1.0,,,,,,,
,,,,,,,5f0f6811a0ed4a11dbc57b79,68399de980caacdc60371909,2025-05-30_13h01.20.460,shape_ratio,2024.1.5,MacIntel,59.88023952,683853e18dae57a2147b65e0,,,,,,,,,,,132.7243,133.2241,,,133.4745,133.6747,left,0.1836,,,,,,,,,0.4,,,,,,133.2241,133.4744,133.6748,"[0.1126875488986537,-0.14967108391053996]",100.0,"[-0.025889256021710737,0.08651477627377664]",100.0,"[0.04216844450872989,0.006931378911842557]",4.0,"[0.14809775334168299,0.12916744012504064]",4.0,"[0.02215809008049273,-0.13992069265743964]",4.0,"[0.02272564349197502,0.045305591136835535]",4.0,"[-0.16494465546456094,0.07192878895732004]",100.0,"[-0.09558306599725183,-0.061029373429096374]",100.0,"[-0.014901745833768626,-0.1891620046895243]",4.0,"[-0.026419694640612206,-0.07231339056875986]",100.0,"[0.02948437318627813,0.13773484663453245]",4.0,"[-0.08191980481716836,0.026832897783559958]",100.0,"[-0.025577967861065476,0.015777282510212494]",4.0,"[0.09964251856095614,0.05218573860644975]",4.0,"[0.08476823493352188,0.09646090418837529]",100.0,"[0.04388098777328438,-0.06312223768343805]",4.0,"[0.07138847928931158,-0.16052065575516541]",100.0,"[-0.12570434306145306,0.05605609769048797]",4.0,"[0.06811783890900164,-0.09619124691971759]",4.0,"[-0.11705065999632733,-0.11475403473720862]",4.0,"[-0.08036876877288986,-0.1803502497630298]",4.0,"[-0.08036170459375337,0.0728435069149698]",100.0,"[0.17519028552366836,-0.03715281601778275]",4.0,"[-0.15814001480182419,-0.025702846127404363]",100.0,"[-0.11477706787084266,0.11933612422425874]",100.0,"[-0.0022502470596030564,0.173961107165935]",4.0,"[-0.018748355203281327,-0.11589713471048949]",4.0,"[0.13310533937849822,-0.044128785527143145]",4.0,"[-0.14163614060386387,-0.08255757613044025]",4.0,"[-0.08280154465735326,0.16309098429353536]",100.0,"[-0.041032556105690524,0.19380472953542077]",4.0,"[0.01646899444761692,-0.03276986116032551]",100.0,"[0.02,0.02]",134.7753,0.0,14.0,14.0,159.0,1.0,,,,,,,
,,,,,,,5f0f6811a0ed4a11dbc57b79,68399de980caacdc60371909,2025-05-30_13h01.20.460,shape_ratio,2024.1.5,MacIntel,59.88023952,683853e18dae57a2147b65e0,,,,,,,,,,,134.7759,135.2757,,,135.5267,135.6262,left,0.0831,,,,,,,,,0.9,,,,,,135.2758,135.5267,135.6262,"[-0.05773570519713595,-0.1384281176846887]",4.0,"[0.10802829825629678,0.1287612830935694]",100.0,"[0.1571487764949454,-0.08601341994436347]",100.0,"[0.09948951554143859,0.0565804872146889]",100.0,"[0.04813821743642724,-0.07924402838438731]",100.0,"[-0.02247638598288873,0.062649106602448]",100.0,"[0.14441213924894694,-0.011985975532031881]",4.0,"[0.19221291216426856,-0.019774243706110924]",100.0,"[-0.12492809245824436,-0.07724345672829605]",100.0,"[-0.1462223086450202,0.09433825802751356]",100.0,"[0.0686015289811539,-0.13106510780987252]",100.0,"[0.004510845537019466,0.16740296210947347]",100.0,"[0.034093723835647884,0.008842648154084662]",100.0,"[0.05420662227980923,0.1166336702225771]",100.0,"[-0.022959875092221273,0.01563913328839764]",100.0,"[-0.06359276726458675,0.1002568353545866]",100.0,"[-0.18047563478856202,0.041417900745462324]",100.0,"[0.1776896719906989,0.07991797645410113]",100.0,"[-0.019420716177078905,-0.17564500371556613]",100.0,"[0.09456056670561676,-0.08038406205865298]",100.0,"[-0.0780191155932723,0.148908458657639]",100.0,"[0.0033068722253092363,-0.09457342448546406]",100.0,"[0.11752530102863651,-0.12054180960656061]",100.0,"[0.031050048621224412,-0.14886225867407188]",100.0,"[-0.07967758435570392,-0.017405262900037355]",100.0,"[-0.08971738366721271,0.0541799745988078]",100.0,"[-0.17492899816779742,-0.07547450296689195]",100.0,"[0.03258555863229331,0.07211237119429798]",100.0,"[0.09627263712950092,-0.16893943242833903]",100.0,"[-0.04866853352066951,-0.0678552545922139]",100.0,"[-0.025455133237542487,-0.032354030335962194]",100.0,"[-0.009622078376390383,0.12770641034619937]",4.0,"[0.02,0.02]",136.7271,0.0,15.0,15.0,17.0,1.0,,,,,,,
,,,,,,,5f0f6811a0ed4a11dbc57b79,68399de980caacdc60371909,2025-05-30_13h01.20.460,shape_ratio,2024.1.5,MacIntel,59.88023952,683853e18dae57a2147b65e0,,,,,,,,,,,136.7278,137.2274,,,137.4781,137.5778,left,0.0894,,,,,,,,,0.55,,,,,,137.2275,137.478,137.5778,"[0.11128094577214663,-0.1434049961834761]",100.0,"[-0.08482554714820907,-0.16758432417924188]",4.0,"[0.07729511859296623,0.10892381329110955]",4.0,"[-0.1346265489617602,0.13914072506415892]",4.0,"[0.14845482768615903,-0.12764873659388207]",4.0,"[-0.13558681314970805,-0.07013672269114209]",100.0,"[-0.17980606162726964,0.029972514355429806]",100.0,"[-0.09517185651158633,-0.017076228821939935]",100.0,"[0.13822867423243348,0.108990134033211]",100.0,"[-0.004231161239408884,-0.13589196497277514]",4.0,"[-0.03574143381772903,-0.05951431862198668]",100.0,"[-0.12829392374213336,0.011446212001787935]",4.0,"[-0.15532322130627246,0.07276452002635111]",100.0,"[0.17987589800193918,-0.08183230771011821]",100.0,"[0.03479174014340047,-0.06626508209990768]",100.0,"[-0.18864857691199288,-0.056119156426980135]",100.0,"[-0.0810097352852731,0.037551787978296405]",4.0,"[-0.019263872620154478,-0.0025995437049258353]",100.0,"[-0.051427082182059915,-0.12568609519411467]",4.0,"[-0.18572091181360706,-0.013822674846111433]",4.0,"[0.14778404089488648,0.046348014976504766]",100.0,"[-0.15190522327830014,-0.1075132838563295]",100.0,"[0.14445443045521647,-0.047782271492772914]",4.0,"[0.04909765970104811,0.1389945667522977]",4.0,"[-0.10296054145386291,-0.11190585424785918]",100.0,"[0.04029604894487925,0.02947202424167976]",4.0,"[-0.0037764634252748404,-0.08466546442638986]",100.0,"[0.08606209544039596,0.010590046190911806]",100.0,"[-0.02071254410539973,0.0900741447151139]",4.0,"[0.04481407452763339,0.08062104697321769]",100.0,"[-0.06615695239861226,0.13335786834032815]",4.0,"[0.07637094283530149,0.1753065135448151]",100.0,"[0.02,0.02]",138.6787,0.0,16.0,16.0,70.0,1.0,,,,,,,
,,,,,,,5f0f6811a0ed4a11dbc57b79,68399de980caacdc60371909,2025-05-30_13h01.20.460,shape_ratio,2024.1.5,MacIntel,59.88023952,683853e18dae57a2147b65e0,,,,,,,,,,,138.6792,139.1792,,,139.4294,140.0634,right,0.618,,,,,,,,,0.45,,,,,,139.1792,139.4294,140.0635,"[0.034948784997934246,-0.034377514558157324]",100.0,"[0.08405853230962197,-0.014973152595058242]",100.0,"[-0.10976943469428996,-0.10100160969284114]",100.0,"[0.10682186363924163,-0.07106893543391017]",4.0,"[0.1427297868555334,0.00465512576786558]",100.0,"[-0.05288357850130229,0.0280320876415856]",100.0,"[-0.11362589363238632,-0.028586355331584715]",100.0,"[0.13445218319350435,0.08658985196293677]",4.0,"[-0.14923277771933788,0.12040681303507035]",4.0,"[0.10486470448830557,-0.14323007512226085]",4.0,"[-0.0036303593177117502,-0.003846664767332468]",4.0,"[0.16778860649606508,-0.027643260491279565]",100.0,"[-0.050914531862789304,-0.1503383691656323]",100.0,"[0.04520736148161492,-0.10015938111679519]",4.0,"[0.0785649963908363,0.14284608289241105]",4.0,"[0.04924822091612205,0.06264487017166603]",100.0,"[0.12037418369222815,0.1595875601980966]",100.0,"[-0.05471114067721503,-0.0627149316212169]",4.0,"[-0.10154407024244165,0.1416578041618202]",4.0,"[-0.10514906692960105,0.037029335324493325]",100.0,"[0.07940115926426687,-0.18024455017368832]",4.0,"[-0.01577247758994803,-0.11209464496557947]",100.0,"[0.028566349333700107,0.09762790380654218]",4.0,"[-0.013848355034335076,0.18504427977196608]",4.0,"[-0.027466787550123967,-0.19198519806417122]",4.0,"[0.08793641684494724,0.027805669119409765]",4.0,"[-0.06615886958490219,0.1723342737474618]",4.0,"[0.04210891879406717,0.18228634012289224]",4.0,"[-0.1803720625227273,0.007263350713161993]",4.0,"[0.013382309056043807,-0.1491361386993937]",100.0,"[-0.11157844829331823,-0.14891266565796685]",100.0,"[-0.06035452352099307,-0.10749247978250565]",4.0,"[0.02,0.02]",141.1641,0.0,17.0,17.0,147.0,1.0,,,,,,,
,,,,,,,5f0f6811a0ed4a11dbc57b79,68399de980caacdc60371909,2025-05-30_13h01.20.460,shape_ratio,2024.1.5,MacIntel,59.88023952,683853e18dae57a2147b65e0,,,,,,,,,,,141.1648,141.6645,,,141.9151,141.9649,right,0.0369,,,,,,,,,0.9,,,,,,141.6645,141.9151,141.965,"[-0.05705118171579494,0.02202862331163743]",100.0,"[0.05917303585734639,-0.08423807519850696]",4.0,"[0.113329600826575,0.09810296435919424]",4.0,"[0.03590131290363558,0.19652218903721275]",100.0,"[0.04705047127461982,0.15802118160735443]",100.0,"[0.04333269129150695,0.07072220306428494]",100.0,"[0.05705235820768646,-0.13373809504268125]",100.0,"[-0.08264537295786732,-0.14328040861798316]",100.0,"[0.09291925691193532,0.15069429366475678]",100.0,"[-0.028135680803429822,-0.05380958709124233]",100.0,"[0.08896197043190936,-0.17287456128747894]",100.0,"[-0.014342633029164975,0.10347080984409147]",4.0,"[-0.13896822477152979,-0.111360302433106]",100.0,"[-0.05665693559360348,0.1359689392478529]",100.0,"[-0.1267475272436631,-0.03332164979317024]",100.0,"[0.17092909069760964,-0.00755192968643943]",100.0,"[0.13840205156794125,-0.09710900077432427]",100.0,"[-0.09443901749355463,-0.09748872898007878]",100.0,"[-0.13785395337910797,0.09444173586827288]",100.0,"[0.04530819575467076,-0.17591728510867968]",100.0,"[-0.17994767120956429,-0.05340262120187915]",100.0,"[-0.033198034470619725,-0.16013024589860905]",100.0,"[0.006856714512531418,0.05284960081225376]",100.0,"[0.16926753220757218,-0.067236433359443]",100.0,"[0.07563829024720668,0.016443220926675946]",100.0,"[-0.06494963919338376,-0.18681116825288527]",100.0,"[0.009804763654575752,-0.09368023383137862]",100.0,"[0.13243748095165028,0.04886784319659664]",100.0,"[-0.008940149081371947,0.17544178310704986]",100.0,"[-0.0775946424195279,0.07073055020416913]",100.0,"[-0.12707257568452718,0.026731317837066084]",100.0,"[-0.033290079121369553,-0.09800897353817557]",100.0,"[0.02,0.02]",143.0657,0.0,18.0,18.0,24.0,1.0,,,,,,,
,,,,,,,5f0f6811a0ed4a11dbc57b79,68399de980caacdc60371909,2025-05-30_13h01.20.460,shape_ratio,2024.1.5,MacIntel,59.88023952,683853e18dae57a2147b65e0,,,,,,,,,,,143.0664,143.5662,,,143.8168,144.3502,right,0.5218,,,,,,,,,0.9,,,,,,143.5663,143.8167,144.3503,"[0.056231323183835,0.044336665590080225]",100.0,"[-0.1525094571563017,0.06180327372971254]",100.0,"[-0.005928218546161095,0.04177077882853283]",100.0,"[-0.05342422446775392,0.08668555593317351]",4.0,"[0.15995277046323564,-0.1034921046613498]",100.0,"[0.12448122419018884,-0.13475142911606036]",100.0,"[-0.04068478924878298,-0.12410923903543622]",4.0,"[0.11722387538191163,-0.07237848335762863]",100.0,"[0.07136603528104195,-0.17070348119772763]",100.0,"[0.016552892747156246,0.08594158701718838]",100.0,"[0.14825607805321836,0.017746294677155234]",100.0,"[-0.04871734068889048,-0.07295484063481746]",100.0,"[0.1556125842311646,-0.05575886044792785]",100.0,"[0.0020559609258289178,-0.1398932469343238]",100.0,"[0.0010902217884138318,0.19642648136532279]",100.0,"[-0.10567656405465947,0.1468897387783952]",100.0,"[0.033934151362187824,-0.017789374586625013]",100.0,"[-0.1514412675965693,-0.09837758159880713]",100.0,"[-0.05491036592852144,0.16513553789152313]",100.0,"[0.17873875271005274,-0.012333940940873075]",100.0,"[-0.014868589196066942,0.15938197466844842]",100.0,"[-0.04795361814057474,-0.004965286556241035]",100.0,"[0.09457353846478887,0.12691273739005454]",100.0,"[0.036091109720482815,-0.0950333322050621]",100.0,"[-0.1059530610081935,0.10575438110158587]",100.0,"[-0.0034102396789158526,-0.03557809485190276]",100.0,"[0.06336951404924637,-0.04582754193002906]",100.0,"[0.06558195256544601,0.1755974046012612]",4.0,"[-0.07983842842249685,0.032868378071241135]",100.0,"[0.17896454557162858,0.08290995472445546]",100.0,"[0.12080215904353703,0.09645262964430447]",100.0,"[-0.19108770261575314,-0.0029572404428614644]",100.0,"[0.02,0.02]",145.4512,0.0,19.0,19.0,10.0,1.0,,,,,,,
,,,,,,,5f0f6811a0ed4a11dbc57b79,68399de980caacdc60371909,2025-05-30_13h01.20.460,shape_ratio,2024.1.5,MacIntel,59.88023952,683853e18dae57a2147b65e0,,,,,,,,,,,145.4517,145.9515,,,146.2023,146.2351,right,0.0281,,,,,,,,,0.55,,,,,,145.9516,146.2022,146.2352,"[-0.05160633192257611,0.03907151399091683]",100.0,"[0.17591079937143414,0.07072924265083119]",100.0,"[0.04459894857344408,0.1591567674786844]",100.0,"[0.029476008921962397,0.034792200369398354]",4.0,"[0.07096716869962218,0.1253153983583853]",4.0,"[-0.08771003290108509,0.07616569247244166]",100.0,"[0.1492602694893773,0.035947508640686444]",100.0,"[0.1746456257980154,-0.0357501340259505]",100.0,"[0.045574686834992446,0.08918678831546083]",100.0,"[0.06820940924865032,-0.03543680019382836]",100.0,"[-0.15397761348567177,-0.03466236659180018]",4.0,"[-0.0001399469120198433,0.18756230728889625]",100.0,"[-0.03680935472168101,0.1137899968765537]",100.0,"[0.13854953280275484,-0.13662886922160167]",4.0,"[0.04474764173496064,-0.17081626315262288]",4.0,"[0.023853648984171423,-0.0335581585100789]",100.0,"[-0.19166942103397022,0.030664196848728547]",100.0,"[-0.0007507961107411182,-0.12219291716931181]",4.0,"[-0.06448341732885926,-0.14430930410051307]",4.0,"[-0.11583940917517363,-0.12270408289418609]",100.0,"[-0.032631809807183096,-0.16857366578858454]",4.0,"[0.002339701370964534,-0.07816310094729864]",4.0,"[0.1901268402231751,0.0027402700531482214]",100.0,"[0.11007261502814936,0.14602365774751408]",100.0,"[-0.054307532599656656,0.19226248189118453]",4.0,"[0.09531366674989264,-0.005704709915448106]",100.0,"[-0.16376060950267873,0.06548237081768661]",4.0,"[-0.12431862632231891,0.10667675517505877]",100.0,"[-0.12440798268565398,0.03050104137173119]",100.0,"[-0.1245033414357238,-0.062583900235586]",4.0,"[0.09560259883541071,-0.15942919834300004]",4.0,"[0.07977114772853933,0.044875822150989064]",4.0,"[0.02,0.02]",147.3362,0.0,20.0,20.0,77.0,1.0,,,,,,,
,,,,,,,5f0f6811a0ed4a11dbc57b79,68399de980caacdc60371909,2025-05-30_13h01.20.460,shape_ratio,2024.1.5,MacIntel,59.88023952,683853e18dae57a2147b65e0,,,,,,,,,,,147.3369,147.8366,,,148.087,148.654,left,0.5507,,,,,,,,,0.4,,,,,,147.8366,148.087,148.6541,"[0.18961371091899898,0.04910203817232374]",4.0,"[0.0693813152759195,-0.1839651037790839]",100.0,"[0.03903437233575615,-0.014068411751153805]",4.0,"[0.10998719450912185,0.11104879590005641]",4.0,"[-0.09340054790170706,-0.17447770394222328]",100.0,"[-0.030997853126826513,-0.05133621411938263]",4.0,"[-0.07084702286690851,0.14228442821690554]",4.0,"[0.13885695090926028,0.022740989698374146]",4.0,"[-0.07807591320507837,-0.049910366258373084]",4.0,"[0.008631011919890639,-0.13590010885091558]",4.0,"[0.09191619199919585,-0.03824331936468013]",100.0,"[-0.01567524603741022,0.025422899265278395]",4.0,"[-0.14292600817556445,-0.05514576409789416]",4.0,"[-0.001731879052503392,0.1295881819480115]",100.0,"[0.062463852336237524,0.11491007213895117]",4.0,"[-0.13292562798067523,0.12249630772919877]",100.0,"[0.11697892915027056,0.06397614186876323]",100.0,"[0.032156166433554664,0.029119084835535367]",4.0,"[0.11582686566354326,-0.13147522778455648]",4.0,"[-0.04247721491552488,0.09793414967246963]",4.0,"[-0.15826717385110464,0.029634635804998394]",100.0,"[0.056602027357008325,-0.11165335628210844]",100.0,"[0.16424756165990903,0.08932917332743963]",100.0,"[-0.0661779110419008,-0.1376319306927655]",100.0,"[-0.06877995096528873,-0.0906050516210502]",100.0,"[-0.08604248589939091,0.013006643935781308]",100.0,"[-0.014239683929517624,-0.1793162379614111]",4.0,"[0.06857205328417883,0.1592771981090088]",100.0,"[0.008319738085455058,0.19687754525940163]",4.0,"[0.13430111979567413,-0.07565637694216726]",4.0,"[0.1672303964247614,-0.01262796010239133]",4.0,"[0.005642230400462101,0.06803649309398853]",4.0,"[0.02,0.02]",149.7548,0.0,21.0,21.0,153.0,1.0,,,,,,,
,,,,,,,5f0f6811a0ed4a11dbc57b79,68399de980caacdc60371909,2025-05-30_13h01.20.460,shape_ratio,2024.1.5,MacIntel,59.88023952,683853e18dae57a2147b65e0,,,,,,,,,,,149.7552,150.2552,,,150.5057,151.0562,right,0.538,,,,,,,,,0.6,,,,,,150.2552,150.5056,151.0562,"[0.10714556048811591,-0.15515958730225052]",100.0,"[0.0750584556927723,0.009392416873041818]",4.0,"[-0.09657294138960351,-0.11272103280210254]",4.0,"[0.007824056779570425,-0.04045575892985811]",100.0,"[0.0037533579047120866,-0.19101188969800226]",4.0,"[-0.11126683557124517,0.12245563424265406]",100.0,"[-0.009183920610000187,0.1807415879018539]",100.0,"[0.10928164680939408,0.13967033747161395]",100.0,"[0.0029870337953171325,-0.13356596837478427]",4.0,"[0.06222602929095756,0.14116079033400827]",4.0,"[-0.16864432135862428,0.03780176856920026]",4.0,"[0.04888740624818016,-0.11956340884699372]",4.0,"[-0.16936703931847524,-0.10483630177805241]",100.0,"[-0.03070544385331571,0.019513334450309925]",100.0,"[0.18202699367427588,0.007739828723996091]",100.0,"[-0.041122056176707666,0.08218599689725983]",100.0,"[-0.12247359063517667,0.04116834177495645]",4.0,"[0.13290163613315137,-0.06430894581057449]",100.0,"[0.12231421413062253,-0.10711810231107936]",100.0,"[0.1433067865137162,-0.013333625582688847]",4.0,"[0.01405799825338174,0.08807762328626619]",4.0,"[0.04939616129105049,-0.15967519977570946]",100.0,"[-0.09438310614904494,-0.000029172169362690906]",100.0,"[-0.0448048235824712,-0.03244629670593]",100.0,"[-0.04999118509360263,0.12286043691249285]",100.0,"[-0.0959714984789542,0.16113855394251372]",4.0,"[-0.13400598845299946,-0.1432287559711255]",100.0,"[0.08787570141169657,0.07287892139023995]",100.0,"[0.06494495945449606,-0.043959087514932466]",100.0,"[0.16535739911599345,0.08236060258753644]",100.0,"[-0.0554804593609029,-0.17921323488096474]",4.0,"[-0.13015272605109632,0.0837656265954576]",4.0,"[0.02,0.02]",152.157,0.0,22.0,22.0,48.0,1.0,,,,,,,
,,,,,,,5f0f6811a0ed4a11dbc57b79,68399de980caacdc60371909,2025-05-30_13h01.20.460,shape_ratio,2024.1.5,MacIntel,59.88023952,683853e18dae57a2147b65e0,,,,,,,,,,,152.1575,152.6574,,,152.9082,153.3913,right,0.4786,,,,,,,,,0.9,,,,,,152.6575,152.9081,153.3913,"[-0.16688473734778986,-0.04279530691868404]",100.0,"[-0.09059661051112479,0.09224586073495739]",100.0,"[-0.023409703590804205,0.06025858608403153]",100.0,"[-0.005152661509665099,0.10261797477071564]",100.0,"[-0.08934793075672962,0.02067497259457275]",100.0,"[0.17393419765436388,-0.07771399698675727]",100.0,"[-0.13107860625434745,-0.08930616705623479]",100.0,"[0.05460808307713295,0.1550157227676669]",4.0,"[-0.17663895132681057,0.03444071906178472]",100.0,"[-0.1396644348038944,0.09420072798101964]",100.0,"[0.15975274986716254,0.029577611151183368]",100.0,"[0.04237229026875339,0.05110253348213043]",100.0,"[-0.03603609336270466,0.15363307606261833]",4.0,"[0.1499237705571553,-0.12312658210689995]",100.0,"[-0.026384013515452494,-0.12267166967191684]",100.0,"[0.08444678058613314,0.10304280456563379]",100.0,"[0.11546694626462012,0.13919149446652485]",100.0,"[0.10394272757610651,-0.09945396752912113]",100.0,"[-0.09747748410979148,-0.12639040791065007]",100.0,"[-0.11265095354679174,0.15157337876527793]",100.0,"[-0.005365563776731111,-0.19159533799324915]",100.0,"[-0.08508669911341775,-0.0409630177919496]",100.0,"[-0.020255854393726087,-0.056996652842341344]",100.0,"[-0.052426238470264015,-0.011247194035588546]",4.0,"[0.022828868740707962,-0.12982535708788914]",100.0,"[0.10471034896849277,0.019207120687172532]",100.0,"[-0.1302263287781881,-0.0010120633360715127]",100.0,"[0.10891014658006806,-0.14875391867759977]",100.0,"[0.09285035402198291,0.1766934973443075]",100.0,"[0.02064034890367022,-0.002737630433504589]",100.0,"[0.06690370292202641,-0.17867322681485986]",100.0,"[0.19961403510351158,-0.006840885185151913]",100.0,"[0.02,0.02]",154.4922,0.0,23.0,23.0,7.0,1.0,,,,,,,
,,,,,,,5f0f6811a0ed4a11dbc57b79,68399de980caacdc60371909,2025-05-30_13h01.20.460,shape_ratio,2024.1.5,MacIntel,59.88023952,683853e18dae57a2147b65e0,,,,,,,,,,,154.4929,154.9927,,,155.2433,155.8102,left,0.5508,,,,,,,,,0.1,,,,,,154.9928,155.2433,155.8103,"[0.031512980539106214,-0.11365658936894768]",4.0,"[0.1814576641616958,0.009234382453207611]",4.0,"[0.11577291904045417,-0.149280236527453]",4.0,"[0.179963796644681,-0.06263342335002255]",4.0,"[0.04078959542239299,-0.16985203596894896]",100.0,"[-0.04990429809347788,-0.03661934665932303]",4.0,"[0.10544300750787208,-0.016537396181375993]",4.0,"[0.03508988799069953,-0.021706727551057885]",4.0,"[-0.1372334072521821,0.08726959517401274]",4.0,"[0.12000094056193705,0.03330503490663119]",4.0,"[0.018772106743774435,0.1917312113810174]",4.0,"[-0.05095684124313835,0.10395176623879475]",4.0,"[0.015719117060949705,0.04312940699192247]",4.0,"[-0.019624992266332443,-0.09859241620922045]",100.0,"[-0.0059250861880970574,0.12205039412214087]",100.0,"[-0.1106982636958346,0.1546532220459512]",4.0,"[-0.0034199002618628994,-0.1959693682719884]",4.0,"[0.10114161035946051,-0.06754173177415823]",4.0,"[-0.1912324692168813,0.021300693235141274]",4.0,"[-0.07134222401096471,0.059024275499190766]",4.0,"[0.08263712330205297,0.0900581823311809]",4.0,"[-0.06084755802845697,0.18310202728434574]",4.0,"[0.15896096761878953,-0.10895678822379652]",4.0,"[0.15704386817214755,0.09550087108307595]",4.0,"[-0.09068027076321895,0.110804514372573]",4.0,"[-0.1288242475882725,-0.07446210417144572]",4.0,"[-0.051689626609570404,-0.14212123124174222]",4.0,"[0.05318317550632818,0.13211426500950543]",4.0,"[0.06779537092834009,0.1831781831591566]",4.0,"[-0.17563778951616885,-0.0537988627614211]",4.0,"[-0.03401930300398126,0.018547430854099684]",4.0,"[0.0787612403863196,0.018611443541643322]",4.0,"[0.02,0.02]",156.911,0.0,24.0,24.0,199.0,1.0,,,,,,,
,,,,,,,5f0f6811a0ed4a11dbc57b79,68399de980caacdc60371909,2025-05-30_13h01.20.460,shape_ratio,2024.1.5,MacIntel,59.88023952,683853e18dae57a2147b65e0,,,,,,,,,,,156.9116,157.4114,,,157.661,158.1955,left,0.5185,,,,,,,,,0.5,,,,,,157.4115,157.6609,158.1955,"[-0.17397007007334125,-0.08037081477246706]",100.0,"[0.030592905197738173,0.08453989965270775]",100.0,"[-0.16312224636025413,-0.025241803390047206]",4.0,"[0.058205238521073066,0.011608499922432187]",100.0,"[0.16530960464944994,-0.10021751154444726]",100.0,"[0.0055831905090805165,-0.11847833020305547]",4.0,"[0.11467322923246985,0.10330131930953744]",100.0,"[-0.07539080241105499,0.011129603511799294]",100.0,"[-0.10032816533515929,-0.0956741101191638]",100.0,"[-0.08621910921774315,-0.03701878343251459]",100.0,"[0.06083455093873934,0.1676489825692987]",100.0,"[-0.17968208917250322,0.074577119145262]",4.0,"[-0.11374052645450196,0.028470663996895705]",100.0,"[-0.10287574588614012,0.11461734091920105]",4.0,"[0.07634341219784331,-0.08638530353969201]",4.0,"[0.11764590981955884,-0.14804955787410665]",4.0,"[-0.12871135228563663,-0.126270221251516]",100.0,"[-0.17336832961628681,0.02309782774335454]",100.0,"[-0.013165792960693999,0.18472852529281422]",100.0,"[0.11619513446344547,-0.10696739956750605]",4.0,"[0.13768931723942435,0.13927162977120847]",4.0,"[0.16211158745746082,-0.05246004264582153]",100.0,"[0.15747704267410223,0.06343916884026944]",4.0,"[-0.08839382737281022,-0.1653685153186163]",4.0,"[0.03147286394611317,-0.16098028541650497]",4.0,"[0.14727304561411567,-0.007619193003366855]",4.0,"[-0.049917059031952024,-0.11414180205005868]",100.0,"[-0.04006138588628891,0.1405107576794165]",4.0,"[0.18483276943513216,0.03407289893980862]",100.0,"[-0.035458473117633074,0.022429855692204435]",4.0,"[-0.05221434119571977,-0.06122964261083624]",4.0,"[0.0182605441293343,-0.060549023957613045]",4.0,"[0.02,0.02]",159.2964,0.0,25.0,25.0,115.0,1.0,,,,,,,
,,,,,,,5f0f6811a0ed4a11dbc57b79,68399de980caacdc60371909,2025-05-30_13h01.20.460,shape_ratio,2024.1.5,MacIntel,59.88023952,683853e18dae57a2147b65e0,,,,,,,,,,,159.297,159.7968,,,160.0476,160.531,right,0.4691,,,,,,,,,0.45,,,,,,159.7969,160.0475,160.531,"[-0.06920990194561402,0.13020882485250285]",100.0,"[-0.004753407136230753,-0.174635543305239]",4.0,"[0.029800379578016057,-0.10594929302097704]",4.0,"[-0.11219248118651684,0.13039875934302156]",4.0,"[0.04998178554235615,-0.1447416085250544]",100.0,"[-0.13712519321858663,-0.04111641972603514]",4.0,"[0.09454028058680905,-0.16321733814627487]",100.0,"[0.1601581035390761,0.03293423251777932]",100.0,"[-0.17543730872901747,-0.022580219229583545]",100.0,"[-0.0717743377114205,-0.07072516001871894]",100.0,"[-0.07918122354746554,-0.01821696657205192]",4.0,"[0.0056818970016560685,0.18783761819676353]",100.0,"[0.11080410962540749,0.06332040980789658]",4.0,"[-0.14924330054035348,-0.12090880806987457]",100.0,"[0.0776869778151409,-0.10690348734215036]",4.0,"[-0.02034589033202448,0.01781129674659948]",100.0,"[0.16455994936759474,-0.04509557580375027]",4.0,"[-0.1696876627173047,-0.06979812760599456]",4.0,"[-0.014802530598574996,0.10361314060811128]",100.0,"[-0.015034007339159378,-0.06313498669944094]",4.0,"[0.06464396567424571,0.18775184166393755]",100.0,"[0.0629984713781912,0.07681325851591557]",4.0,"[0.03938145203873754,0.12210576443143328]",4.0,"[-0.12983877969188964,0.05800336896611494]",4.0,"[-0.19847740585844204,0.016602880070594787]",100.0,"[-0.03758169800052883,-0.11026504572355604]",100.0,"[-0.060457694196570086,-0.1455482879407328]",100.0,"[-0.10528051610111305,-0.15264396845907785]",4.0,"[0.017636990590923596,0.07072802762288095]",4.0,"[0.10182712909433694,0.009765811731893234]",4.0,"[-0.09976246445855183,0.16853350595715103]",4.0,"[0.12816219672295906,-0.11088183115380867]",4.0,"[0.02,0.02]",161.6316,0.0,26.0,26.0,126.0,1.0,,,,,,,
,,,,,,,5f0f6811a0ed4a11dbc57b79,68399de980caacdc60371909,2025-05-30_13h01.20.460,shape_ratio,2024.1.5,MacIntel,59.88023952,683853e18dae57a2147b65e0,,,,,,,,,,,161.6323,162.1321,,,162.3828,162.4658,right,0.0685,,,,,,,,,0.4,,,,,,162.1322,162.3828,162.4659,"[0.15574460139540913,0.07501210637245607]",4.0,"[0.10942970747729908,-0.05813289078711417]",4.0,"[0.15940264504623072,-0.03660943859152244]",4.0,"[-0.129903303036156,-0.1265568148173057]",4.0,"[-0.02719310400864041,0.05283913055344501]",100.0,"[0.008410069254111755,0.007243127857757961]",4.0,"[-0.010495274399988519,0.16059019420708195]",100.0,"[-0.027514784102775185,-0.16867863134876682]",4.0,"[0.04313380829407478,0.08123793875275274]",4.0,"[0.009780305613924872,-0.12622867045357497]",4.0,"[-0.09146321219187518,-0.0007287291913616578]",4.0,"[0.11315892766970108,-0.0006613559376204267]",4.0,"[0.053148321396421463,-0.008196926898805395]",100.0,"[-0.053707440915821573,0.18706082535795196]",4.0,"[-0.09423536482839592,0.0932208637373339]",100.0,"[-0.177548040819832,-0.0248385399788026]",100.0,"[-0.14204415687269967,0.036284556446520275]",100.0,"[0.06339935996386366,0.1251425171270993]",100.0,"[-0.00947617602733235,-0.04699577438794006]",4.0,"[-0.12680501114742526,-0.07158862113757976]",4.0,"[0.10946188739852146,0.10763880449770871]",100.0,"[0.11267667993053183,0.06295115719731731]",4.0,"[0.19435285267078747,0.03151296536620809]",4.0,"[0.024446037513050047,-0.07242702932932227]",4.0,"[0.03563662915318196,-0.16894426448944985]",100.0,"[0.12132256789026671,-0.12101824112611131]",100.0,"[0.04986146887941276,0.03316946434010086]",100.0,"[-0.06933524437025915,-0.06865672246974305]",4.0,"[0.09313386534070461,0.16817881337384982]",4.0,"[-0.03493230988245308,0.10217786142637277]",100.0,"[-0.0833507594374713,0.16012741597915284]",4.0,"[0.05667202801597477,-0.1303439100167951]",100.0,"[0.02,0.02]",163.5668,0.0,27.0,27.0,154.0,1.0,,,,,,,
,,,,,,,5f0f6811a0ed4a11dbc57b79,68399de980caacdc60371909,2025-05-30_13h01.20.460,shape_ratio,2024.1.5,MacIntel,59.88023952,683853e18dae57a2147b65e0,,,,,,,,,,,163.5674,164.0672,,,164.3178,164.7845,right,0.4502,,,,,,,,,0.9,,,,,,164.0673,164.3177,164.7845,"[-0.02477858016648076,-0.16747425868272348]",100.0,"[-0.05193238762440353,-0.05158015908567749]",100.0,"[0.11320400836599386,0.026437144824446947]",100.0,"[-0.025872968325873692,0.03351166208699352]",4.0,"[0.034491544072059545,-0.16004929566886053]",100.0,"[0.1311116219347347,-0.0987336692954523]",100.0,"[0.034356834892648395,-0.071523260660584]",100.0,"[0.1291121954918342,-0.03662638499063445]",100.0,"[-0.09277422619637408,-0.08375286612054224]",100.0,"[0.02191678013695946,0.1078738541154958]",4.0,"[-0.0031918099136209353,0.15688835057044254]",100.0,"[0.06980121371716234,0.15182419136599606]",100.0,"[-0.04597516143852871,0.1311362844078632]",100.0,"[-0.1017353178049989,-0.013323625678452104]",100.0,"[-0.1462779583570765,-0.0799244418697368]",100.0,"[0.07778649647125392,-0.10193849312488955]",100.0,"[-0.18852357352766064,-0.016200391101010035]",100.0,"[0.06998367318660699,0.01802941226502756]",100.0,"[0.023300501208285012,-0.018613886373050822]",100.0,"[-0.07293710283823793,-0.16454509903321723]",100.0,"[-0.1711310064077883,0.04428532083705038]",100.0,"[0.1791015897387196,0.053811127814075974]",100.0,"[-0.1345635746465523,0.10715048517562173]",100.0,"[-0.0036515884433729294,-0.12187202479317151]",100.0,"[0.1250689381605502,0.11627750732168544]",100.0,"[0.11048479127525851,-0.16506099458637932]",100.0,"[-0.096342168348407,0.03525100140155063]",100.0,"[-0.08781344753397552,0.10290752165498765]",100.0,"[-0.050735014154387574,0.17331021853283082]",100.0,"[0.05809915034925767,0.08645687808997536]",100.0,"[0.07064443340082492,-0.029901475663858815]",100.0,"[-0.08777290970009954,0.15303755450909437]",4.0,"[0.02,0.02]",165.8854,0.0,28.0,28.0,22.0,1.0,,,,,,,
,,,,,,,5f0f6811a0ed4a11dbc57b79,68399de980caacdc60371909,2025-05-30_13h01.20.460,shape_ratio,2024.1.5,MacIntel,59.88023952,683853e18dae57a2147b65e0,,,,,,,,,,,165.8859,166.3858,,,166.6356,167.0697,right,0.4292,,,,,,,,,0.6,,,,,,166.3859,166.6355,167.0697,"[0.163789688674761,-0.024801859263048422]",100.0,"[-0.11983113475379527,0.03344891321183692]",100.0,"[-0.05612459417684286,-0.011380286482708933]",100.0,"[-0.002935781413892015,0.06196639146417066]",100.0,"[-0.1790932795420696,0.07896710698846167]",100.0,"[0.05578368221582204,0.17884830642882063]",100.0,"[-0.006404023208514384,-0.11038590701363422]",4.0,"[0.1154967764789705,-0.14094069102585507]",4.0,"[0.09798930937140737,0.06627409328003851]",4.0,"[0.1426422051091594,0.06961698661626405]",4.0,"[-0.08106416808740396,0.07036163823772842]",4.0,"[-0.10636419782285342,0.12186192458234861]",100.0,"[0.05824827791210208,0.112375485172618]",4.0,"[-0.04460584683901707,0.12122551037967837]",4.0,"[0.048214403952416,-0.12539854139361992]",100.0,"[-0.0006917741040504017,-0.05933580860980902]",100.0,"[-0.0581656896493145,-0.0737372316906895]",100.0,"[-0.10924469869721008,-0.09657070281649335]",100.0,"[0.016571698299336603,-0.1714795146698019]",100.0,"[0.1805543863869082,0.055328876059884645]",4.0,"[0.07575161700095247,0.004127469291970292]",100.0,"[0.07957518574677054,-0.17715509052097456]",4.0,"[-0.13639896886854672,-0.06404019502988806]",4.0,"[-0.07871172149194713,0.1516997645109973]",4.0,"[-0.163337949127322,0.03122878168546151]",100.0,"[-0.16345492694781266,-0.020529283559564994]",100.0,"[0.058552522127889486,-0.05334726218008785]",4.0,"[-0.014152003693862138,0.19888271535325694]",100.0,"[-0.16583446152685843,-0.0922312506773662]",100.0,"[-0.04467771957923652,-0.17322980658211248]",4.0,"[0.17028692216906485,-0.09309195754524703]",100.0,"[0.12265248412245232,-0.07893574406603299]",100.0,"[0.02,0.02]",168.1708,0.0,29.0,29.0,45.0,1.0,,,,,,,
,,,,,,,5f0f6811a0ed4a11dbc57b79,68399de980caacdc60371909,2025-05-30_13h01.20.460,shape_ratio,2024.1.5,MacIntel,59.88023952,683853e18dae57a2147b65e0,,,,,,,,,,,168.1713,168.6712,,,168.9218,169.1718,right,0.2348,,,,,,,,,0.5,,,,,,168.6712,168.9217,169.1718,"[-0.1055470109350965,-0.06280597469353981]",4.0,"[-0.02712311347731484,-0.1171645463007749]",4.0,"[-0.15786703939698404,-0.09568741718805467]",100.0,"[0.0970348609441281,0.16216776378464448]",4.0,"[-0.016540058228457083,0.1554716145938905]",100.0,"[-0.020069120572617078,-0.1970553614082108]",100.0,"[0.10482232506002147,0.05950240463813918]",100.0,"[0.1815917565147319,-0.08324853901822102]",4.0,"[0.05931291624332354,0.03005253941498914]",100.0,"[-0.042196317567136495,0.1033910431905076]",4.0,"[0.12353528944065735,-0.0910331756935797]",4.0,"[-0.13810901150328492,0.08025304839565278]",4.0,"[-0.1036394860076701,-0.15986878686429404]",100.0,"[-0.04748537214204796,-0.04193035819130637]",100.0,"[0.03827773495513154,-0.033234347160133376]",100.0,"[0.15119690032744948,0.09443567249616508]",4.0,"[-0.16642412100837642,0.02096533161126924]",100.0,"[-0.012785831317441005,-0.06989340929999226]",100.0,"[-0.17407055541220584,-0.04654424954648514]",100.0,"[-0.037707827964321705,-0.15944975088366511]",4.0,"[0.03830943404355622,-0.11027894059523426]",100.0,"[0.19449359161141005,-0.003937515622382275]",4.0,"[0.1119753115911213,-0.019511396687548407]",100.0,"[0.15101122740309836,0.03945710214353001]",4.0,"[0.06422805104995814,-0.1657861412740039]",4.0,"[0.040250577776331065,0.10913287675891518]",4.0,"[0.05655520683648453,0.0715000174109995]",100.0,"[0.07875054186829925,-0.12367521264479432]",100.0,"[-0.04071766691076731,0.04689153293015076]",4.0,"[-0.06632677680350357,0.006722895252966077]",4.0,"[-0.16942269488819556,0.10585821106330706]",100.0,"[-0.1154180113667486,0.12752453927657892]",4.0,"[0.02,0.02]",170.2724,0.0,30.0,30.0,111.0,1.0,,,,,,,
,,,,,,,5f0f6811a0ed4a11dbc57b79,68399de980caacdc60371909,2025-05-30_13h01.20.460,shape_ratio,2024.1.5,MacIntel,59.88023952,683853e18dae57a2147b65e0,,,,,,,,,,,170.273,170.7721,,,171.0237,171.4735,left,0.4335,,,,,,,,,0.6,,,,,,170.7722,171.0237,171.4735,"[-0.14827638773797272,0.08103951534867807]",4.0,"[0.11414610348736545,-0.03892047773073275]",100.0,"[-0.053711644776998024,0.04471700678375913]",100.0,"[0.018346315847610283,0.09168405475299218]",100.0,"[0.11384051340228078,0.16080277752367514]",4.0,"[0.07240736297025498,-0.058302025350136004]",100.0,"[0.007938384556916608,-0.04086059467924764]",4.0,"[-0.07687093604494362,-0.04979914989160776]",4.0,"[-0.12729255945293824,0.023450864962308495]",100.0,"[0.05541449412496285,0.14289397378846935]",100.0,"[0.06195016612134644,-0.18177062217294976]",100.0,"[-0.0368788209880595,-0.05554518977907615]",4.0,"[0.16308027696614255,-0.036897869133359046]",4.0,"[0.027692492911550567,0.19082612849687466]",100.0,"[-0.16959615106597795,0.03135439522463766]",4.0,"[-0.048710122014262565,-0.0017961445460061218]",100.0,"[-0.009419856324422377,-0.12646612585679892]",100.0,"[-0.0732554393929104,-0.17407341076728264]",4.0,"[0.03929082971732451,-0.12698000281343877]",4.0,"[-0.12268874827528105,-0.06120314860220217]",4.0,"[0.12115122884728297,0.010813117546177663]",100.0,"[-0.06915272435181515,0.18292060446777256]",100.0,"[-0.08018694060801237,0.12263100057026109]",100.0,"[0.09725133187173891,-0.13112582346796184]",100.0,"[-0.08817314453224177,0.014411564951831235]",100.0,"[0.1951018817813363,0.022757916748036792]",4.0,"[-0.04785802050851307,-0.10067653727733561]",100.0,"[-0.13617851841719705,-0.11826951764362997]",4.0,"[0.12943425574295406,-0.10426022542622906]",100.0,"[0.0460728355664292,0.032189365616291175]",4.0,"[0.15370285542639234,0.0525129941327904]",100.0,"[0.015888403397036732,-0.175904189165162]",100.0,"[0.02,0.02]",172.5745,0.0,31.0,31.0,49.0,1.0,,,,,,,
,,,,,,,5f0f6811a0ed4a11dbc57b79,68399de980caacdc60371909,2025-05-30_13h01.20.460,shape_ratio,2024.1.5,MacIntel,59.88023952,683853e18dae57a2147b65e0,,,,,,,,,,,172.5751,173.0749,,,173.3253,173.892,right,0.5573,,,,,,,,,0.9,,,,,,173.0749,173.3253,173.892,"[0.10441865845496083,-0.09292900714120544]",100.0,"[-0.14104846469303722,-0.1183157501828543]",100.0,"[-0.11837317125297189,0.04215302346946769]",100.0,"[-0.17470778435333925,-0.045534031421582064]",100.0,"[0.124514302883963,0.14042942905496023]",4.0,"[0.02192233448273194,-0.1399256545963254]",100.0,"[-0.010413670290432279,-0.03272195820432287]",100.0,"[0.07296095239873253,0.04790685937962163]",100.0,"[0.16222198989490602,0.08870064663771231]",100.0,"[-0.06870213404314437,-0.08119344359796749]",100.0,"[-0.12719163030246994,0.10301863349715007]",100.0,"[0.12427924184096158,0.044457956385907785]",4.0,"[0.1564583490794939,-0.01574516150002152]",100.0,"[-0.051458292715969876,0.16070921516092268]",100.0,"[0.12408143640400236,-0.15081058346848758]",100.0,"[-0.18375717163882277,0.01865382505109477]",100.0,"[-0.0666681045557273,0.026654856421232595]",100.0,"[0.037266863717166976,0.09981002919246562]",100.0,"[-0.0879027704512744,-0.12635809643736864]",100.0,"[0.008141444064194179,0.19026483381138123]",100.0,"[0.05213925899980328,-0.063491159968656]",100.0,"[-0.06335861623402932,-0.022034661598297832]",100.0,"[-0.05083427919904638,-0.14798158855382612]",100.0,"[0.15646059986863092,-0.0648637218918729]",100.0,"[0.08342060728431468,0.002600777632577996]",100.0,"[-0.03618390247024224,0.09127005155242937]",100.0,"[0.07382556898143988,-0.18003080837005778]",100.0,"[-0.11275478971771903,0.1425105207308775]",100.0,"[-0.020404539536629462,-0.09365228709488337]",100.0,"[0.04778208865259236,0.16724933062501599]",4.0,"[-0.12924749181288497,-0.04390257822311787]",100.0,"[0.17751164881711926,0.04200903328913616]",100.0,"[0.02,0.02]",174.9932,0.0,32.0,32.0,15.0,1.0,,,,,,,
,,,,,,,5f0f6811a0ed4a11dbc57b79,68399de980caacdc60371909,2025-05-30_13h01.20.460,shape_ratio,2024.1.5,MacIntel,59.88023952,683853e18dae57a2147b65e0,,,,,,,,,,,174.9937,175.4936,,,175.7444,175.7606,right,0.0037,,,,,,,,,0.6,,,,,,175.4936,175.7444,175.7606,"[-0.0949645023779485,0.06950475415529374]",4.0,"[-0.15779616527248025,0.02727362374380832]",4.0,"[-0.1025809588675674,-0.11074300674469925]",4.0,"[0.04248702176849803,0.07273028261116918]",4.0,"[0.17319303675088973,0.031430356630808766]",100.0,"[-0.021541519339936237,-0.025537916987721846]",100.0,"[-0.028486740640627856,-0.170252523745979]",100.0,"[0.02445046604630285,0.034744800759789696]",100.0,"[0.09651588728261762,0.1329247522060464]",100.0,"[0.11407920290787406,0.05036761396649323]",100.0,"[-0.1092962299920323,-0.024737257825665576]",4.0,"[0.01371936960468787,0.12256753992193087]",100.0,"[-0.03267359877679266,0.15005383145657544]",4.0,"[0.023334379425880906,0.19437526169024102]",4.0,"[-0.062158265142856245,0.11710897492908554]",100.0,"[-0.04140046253635546,0.07854645751538226]",4.0,"[-0.05888415102032734,0.1868067288481952]",100.0,"[0.1186921158831397,-0.1570093191964481]",4.0,"[-0.17992836449568253,-0.0652525568747145]",4.0,"[0.08565588644139442,-0.18062240441072933]",4.0,"[0.013543559517233449,-0.1619352486045549]",100.0,"[-0.036731466871728895,-0.130306564358985]",100.0,"[0.14765878482132327,0.1343380559083195]",100.0,"[0.1445075501546493,-0.07893437452970888]",100.0,"[-0.14935401917614302,0.10684821242069056]",100.0,"[-0.1823652963277543,0.06291193189179466]",100.0,"[-0.16039313964722154,-0.11678840828608515]",100.0,"[0.08577730775205933,-0.023218640831279513]",100.0,"[-0.1817698408867848,-0.021041475236683416]",100.0,"[-0.10960278379630012,0.12181564186088753]",4.0,"[0.0073087632597398245,-0.10470545389259407]",100.0,"[-0.07112048637264987,-0.16538375371400404]",4.0,"[0.02,0.02]",176.8616,0.0,33.0,33.0,40.0,1.0,,,,,,,
,,,,,,,5f0f6811a0ed4a11dbc57b79,68399de980caacdc60371909,2025-05-30_13h01.20.460,shape_ratio,2024.1.5,MacIntel,59.88023952,683853e18dae57a2147b65e0,,,,,,,,,,,176.8621,177.3621,,,177.6125,177.6789,right,0.0495,,,,,,,,,0.45,,,,,,177.3621,177.6124,177.6789,"[0.13937873468497128,0.09718323987009668]",100.0,"[-0.09277122681215699,0.17298397337861598]",100.0,"[-0.005652717453133645,0.11144676662927387]",4.0,"[-0.17152286855272075,-0.05812897009061992]",100.0,"[0.004851532863488261,0.18366886467647328]",4.0,"[-0.198396261572492,0.007467330405205989]",4.0,"[0.09385896392885429,-0.06115275031450599]",100.0,"[0.014154867505426497,0.005591587553762839]",100.0,"[0.07740369006772689,-0.024657475901475174]",100.0,"[-0.09399644601815267,-0.07928870657168545]",100.0,"[-0.009494371279883184,-0.1226716484881956]",4.0,"[0.07013833664485339,-0.16722465859334912]",4.0,"[-0.10063363856150222,0.013195163037851973]",4.0,"[0.17581322387782794,-0.08697015238472698]",100.0,"[0.08349099285938347,0.060282388323975145]",100.0,"[-0.0430270141862107,0.021801760961085284]",100.0,"[-0.05043102953968236,-0.17621661580567852]",4.0,"[-0.06711264496206808,0.06598674156343806]",100.0,"[0.03172575128979092,-0.05993503428178253]",4.0,"[-0.11721125354670446,-0.13875286935274506]",4.0,"[-0.06398471236638743,0.12919812000121028]",4.0,"[0.09726339103544424,-0.12862421642654745]",4.0,"[-0.09150876886605032,-0.17101317500753746]",4.0,"[0.028275267929432635,-0.18498740388878912]",100.0,"[-0.03185378717919254,-0.030359061184973654]",4.0,"[0.13607805100999956,-0.1172451542650633]",4.0,"[0.13658666351881396,0.008641503425210802]",4.0,"[-0.12255435845399786,0.08473964381645163]",4.0,"[-0.16297346978470315,0.0931359088464917]",100.0,"[0.03423331941849601,0.06338939220165553]",100.0,"[0.1804831053262938,-0.03554699067789801]",4.0,"[-0.14227020338057483,-0.007395471112307527]",4.0,"[0.02,0.02]",178.7798,0.0,34.0,34.0,122.0,1.0,,,,,,,
,,,,,,,5f0f6811a0ed4a11dbc57b79,68399de980caacdc60371909,2025-05-30_13h01.20.460,shape_ratio,2024.1.5,MacIntel,59.88023952,683853e18dae57a2147b65e0,,,,,,,,,,,178.7803,179.28,,,179.5309,179.6475,right,0.1117,,,,,,,,,0.6,,,,,,179.2801,179.5309,179.6475,"[-0.12913599755461116,0.09295682108481056]",100.0,"[0.07999995242694703,-0.043854303602259614]",100.0,"[0.01791196423340532,-0.0239687069887054]",100.0,"[0.06225644711940272,-0.13821479281106902]",4.0,"[-0.09329708525615267,-0.1520194152903872]",4.0,"[-0.09788375957088268,0.03601864535603167]",4.0,"[-0.19861075050534366,0.0012839894861427553]",100.0,"[-0.036090981596600256,-0.13278985347243238]",4.0,"[0.10691767369980547,-0.07701706504370648]",100.0,"[0.17028781127421216,0.09584009410942866]",4.0,"[-0.06274065280747247,-0.06812064726215479]",100.0,"[0.13056725097151076,0.08272933529552635]",100.0,"[-0.006458470701634296,0.024246390922472768]",4.0,"[-0.18808611559322044,-0.06769566027119775]",100.0,"[-0.16410371325078377,-0.0273724626751684]",100.0,"[0.07283112944642997,0.1100280148541912]",4.0,"[-0.05460624389118705,0.18260223247896887]",4.0,"[-0.18987046213080538,0.043000232881956084]",100.0,"[0.11371546104131243,-0.11946237006451753]",100.0,"[0.165325161428925,-0.10695655364800244]",100.0,"[-0.03882946314592321,0.06087820777329321]",100.0,"[-0.0323410028158839,0.11987741785226567]",100.0,"[0.016239307379652634,-0.07200016744645121]",100.0,"[0.11131996998560473,-0.016238344955488596]",4.0,"[-0.13827979308291727,0.04100512379800288]",4.0,"[0.10091789188319775,0.04598108840586297]",4.0,"[-0.010817926842757244,0.17845810807907642]",100.0,"[0.030581403095151453,0.09050059207704267]",4.0,"[0.06876482467869607,0.00048612902327131946]",4.0,"[-0.09756538687963306,-0.10254338882801306]",100.0,"[-0.11981675877153405,-0.044066365762364355]",100.0,"[-0.09242412356098854,0.1128087441084345]",100.0,"[0.02,0.02]",180.7483,0.0,35.0,35.0,56.0,1.0,,,,,,,
,,,,,,,5f0f6811a0ed4a11dbc57b79,68399de980caacdc60371909,2025-05-30_13h01.20.460,shape_ratio,2024.1.5,MacIntel,59.88023952,683853e18dae57a2147b65e0,,,,,,,,,,,180.7488,181.2487,,,181.4991,181.9494,left,0.4372,,,,,,,,,0.5,,,,,,181.2488,181.4991,181.9494,"[0.150731435883648,0.08885981879045317]",100.0,"[-0.12549218411225788,-0.07172603605249588]",4.0,"[0.19888139461022822,0.01731835848862552]",100.0,"[0.0665999189761556,0.10377346020315456]",100.0,"[0.02091583038035386,-0.10171177453356359]",100.0,"[0.014439020426584159,-0.04019738066643016]",4.0,"[-0.15340398099019936,0.0166197068524659]",4.0,"[-0.004133032143780153,0.16408006796088828]",4.0,"[0.040874217444060765,-0.17391535730548224]",100.0,"[-0.034298571341876576,-0.009660016873659666]",100.0,"[-0.01988362630553739,-0.1660758246188132]",100.0,"[-0.012050925504001601,0.050493865596659505]",100.0,"[0.09801520247861,0.0010796809482008017]",4.0,"[0.11960782627724653,-0.041588041762093575]",100.0,"[-0.04984245826904589,0.15723349777439163]",100.0,"[-0.07832305545005738,0.02882585363915194]",100.0,"[0.04047325060213238,0.15562771673670045]",100.0,"[0.07405209187715675,-0.05724330140275927]",4.0,"[0.08208022459742463,-0.17699712264987272]",4.0,"[0.15819623547341194,-0.07397686682898862]",4.0,"[-0.08386119251155585,0.07056655409396621]",100.0,"[-0.15444442747914666,0.08286710085729636]",4.0,"[-0.1355799737370917,0.1308722558439247]",100.0,"[0.10147169203977048,-0.12879162388283713]",4.0,"[-0.07436434718151849,-0.17861409240771223]",4.0,"[-0.18871060803380255,-0.05089494982245174]",4.0,"[0.1661441887542195,-0.03285319877952568]",100.0,"[-0.043325478945154455,-0.0813756609936214]",4.0,"[0.09809366228481159,0.04824531597081608]",100.0,"[-0.19636796062509324,0.020662245695207374]",4.0,"[-0.125505943145582,-0.028540497301144507]",4.0,"[0.10271054101819944,0.12337121805046436]",4.0,"[0.02,0.02]",183.0503,0.0,36.0,36.0,91.0,1.0,,,,,,,
,,,,,,,5f0f6811a0ed4a11dbc57b79,68399de980caacdc60371909,2025-05-30_13h01.20.460,shape_ratio,2024.1.5,MacIntel,59.88023952,683853e18dae57a2147b65e0,,,,,,,,,,,183.0508,183.5505,,,183.8013,183.9008,left,0.0941,,,,,,,,,0.9,,,,,,183.5505,183.8011,183.9008,"[-0.12107238393012305,0.0656364182756294]",100.0,"[0.19213855038210556,0.053642366254714344]",100.0,"[0.05687923535217794,-0.1633979450626015]",4.0,"[-0.05137681180334834,-0.14735473104953273]",100.0,"[0.026904029366483596,0.07682054696848435]",100.0,"[0.09513295385087936,-0.08624234020663657]",100.0,"[-0.05026897480925832,0.04682980936923557]",100.0,"[0.10854506922617942,0.04180006666853054]",100.0,"[-0.1725259007398135,-0.08606401832923342]",100.0,"[0.17417431167487546,-0.0974910790334566]",100.0,"[0.061432207257279214,0.027877521383827087]",100.0,"[-0.025939071891769677,0.170491897520771]",100.0,"[0.11364186896360497,0.0004894854882973999]",100.0,"[0.16995174464510923,0.001859200396305373]",4.0,"[-0.04204242585923785,-0.07435512562379984]",100.0,"[0.0629893548193392,0.14606340517634933]",100.0,"[-0.15592897012633322,0.011311882092307287]",100.0,"[-0.0016066491636299674,0.0015203487129375418]",100.0,"[-0.10218840296291012,-0.08346900359286459]",100.0,"[0.08198363020258341,-0.04004278140888289]",100.0,"[0.05393212637128526,-0.11759400505043806]",100.0,"[0.16618893774252771,-0.04412717770153766]",100.0,"[0.019430069660930718,-0.19496169113141165]",100.0,"[0.09898994782195146,0.1033491606679044]",100.0,"[0.12472121344143768,0.1562713430124575]",100.0,"[-0.08098685109602359,0.009007220238264012]",100.0,"[0.005873639678047143,-0.07454458669295377]",100.0,"[-0.1391597461034709,0.12932862765939476]",4.0,"[0.03173447468100577,0.12025940315607438]",100.0,"[0.1329084298327113,-0.07214477355684468]",100.0,"[-0.09405972562756892,-0.12731297361787894]",100.0,"[-0.14298772758290607,-0.05534548918129809]",100.0,"[0.02,0.02]",185.0018,0.0,37.0,37.0,29.0,1.0,,,,,,,
,,,,,,,5f0f6811a0ed4a11dbc57b79,68399de980caacdc60371909,2025-05-30_13h01.20.460,shape_ratio,2024.1.5,MacIntel,59.88023952,683853e18dae57a2147b65e0,,,,,,,,,,,185.0023,185.5022,,,185.7527,186.2695,right,0.5029,,,,,,,,,0.6,,,,,,185.5023,185.7526,186.2697,"[0.061165480259436536,-0.014956822641581833]",4.0,"[-0.11856516328115127,-0.011752631106600677]",4.0,"[-0.12761868165244022,0.06952445673561539]",4.0,"[0.05408052949755874,0.05495163663118282]",100.0,"[-0.015914426421510093,-0.12928339612848272]",4.0,"[-0.1469314205116161,-0.06936798162766923]",100.0,"[0.12568562727554683,0.13469292360554982]",4.0,"[0.06627227174239106,-0.1232302396030019]",100.0,"[-0.009726696066575953,0.16011274330032155]",100.0,"[-0.08533111206073657,-0.10945084485341314]",100.0,"[0.14408745861280653,-0.130967496667595]",100.0,"[0.027387993393874908,-0.16134296030022127]",4.0,"[-0.09100758670398842,-0.043763459554116806]",100.0,"[-0.013674198121325361,0.06479282396108149]",100.0,"[0.07728196835830485,0.10245194062691185]",100.0,"[0.00530325643479659,0.11049834228981509]",4.0,"[-0.07217530106868374,0.03324965618965938]",100.0,"[-0.0026719830140152652,0.01779850535758005]",4.0,"[0.1354512583766681,-0.010746738755091249]",4.0,"[-0.10704857521830209,0.15864044475655847]",4.0,"[-0.18414421525860591,0.050895644548414484]",100.0,"[0.07943526574137241,0.16728987024996272]",100.0,"[-0.19922504777094374,-0.010060203486903972]",4.0,"[0.15213243813898225,-0.07891433931796218]",100.0,"[-0.12428742615808831,-0.12956738565309525]",4.0,"[0.15389087834891083,0.07411138654677336]",100.0,"[-0.14924516039410965,0.017384741316543356]",4.0,"[0.19667417068824108,0.025575584731077634]",100.0,"[-0.06623472771125871,0.17507412595101765]",100.0,"[-0.01626351089676294,-0.19438248769215985]",100.0,"[-0.06176482711182854,0.0883150901334957]",100.0,"[0.10758141571516601,-0.04775275337839464]",100.0,"[0.02,0.02]",187.3705,0.0,38.0,38.0,33.0,1.0,,,,,,,
,,,,,,,5f0f6811a0ed4a11dbc57b79,68399de980caacdc60371909,2025-05-30_13h01.20.460,shape_ratio,2024.1.5,MacIntel,59.88023952,683853e18dae57a2147b65e0,,,,,,,,,,,187.3711,187.8709,,,188.1218,188.2546,right,0.1163,,,,,,,,,0.6,,,,,,187.8709,188.1217,188.2547,"[-0.17835840230379799,0.010924144574960515]",100.0,"[-0.16131943434652513,0.09538469830493909]",100.0,"[0.17186664948949598,0.034786691245193985]",100.0,"[-0.13908243773974316,-0.003114088437418586]",4.0,"[0.05090364343253826,0.16311182946390043]",100.0,"[0.18318461339650974,-0.06512675763515109]",4.0,"[0.024679134396879063,-0.1539490077678836]",100.0,"[-0.030416200629771357,0.11895511250624125]",100.0,"[-0.10709107204069393,-0.08209110304914635]",4.0,"[0.15481859314822854,0.10494460649585417]",4.0,"[-0.04747047373790719,-0.16693121821879756]",4.0,"[-0.13195302019907837,0.14161938109003586]",4.0,"[0.10678138951734692,0.11888231144551466]",100.0,"[-0.024447717827469073,-0.0009543501901241671]",100.0,"[0.10534336101401742,0.03716432036327387]",4.0,"[0.06014146651133306,0.05161723343195302]",100.0,"[-0.011345536602376284,0.17281472714989524]",100.0,"[-0.06083479764171941,-0.10673455939124248]",100.0,"[0.1277173321631584,-0.030470757984694265]",4.0,"[0.11323403158835775,-0.1063095291891706]",100.0,"[-0.06001488723133352,0.15574642699240293]",100.0,"[-0.01215415771047827,0.056844328134851206]",4.0,"[-0.10108694260215413,-0.03229133110221423]",4.0,"[-0.11418702921283426,0.05373130065740187]",4.0,"[0.06737808856641439,-0.0541491823486592]",4.0,"[0.053576647868380525,0.11586128551659743]",100.0,"[0.07331524198982522,-0.18462724888333173]",100.0,"[-0.18318020413749325,-0.033822609125196364]",4.0,"[0.061978281770314794,-0.012205019675483325]",100.0,"[0.18643420610577546,-0.006985996523106367]",100.0,"[-0.07603504695632539,0.10207378096872806]",100.0,"[0.01711703336352664,-0.04774161978664901]",100.0,"[0.02,0.02]",189.3555,0.0,39.0,39.0,43.0,1.0,,,,,,,
,,,,,,,5f0f6811a0ed4a11dbc57b79,68399de980caacdc60371909,2025-05-30_13h01.20.460,shape_ratio,2024.1.5,MacIntel,59.88023952,683853e18dae57a2147b65e0,,,,,,,,,,,189.3561,189.856,,,190.1066,190.5065,right,0.3841,,,,,,,,,0.9,,,,,,189.8561,190.1066,190.5066,"[-0.014814670502863371,0.16731187560404961]",100.0,"[-0.051873687760428853,0.032030769879777855]",100.0,"[-0.08154769197573204,-0.124880090297096]",100.0,"[0.042487845647053685,0.06653052182760771]",100.0,"[0.12080053153176828,-0.12679930674269183]",100.0,"[-0.08667196721401534,0.10311151030056138]",100.0,"[-0.0682128564225806,-0.04849035993890891]",4.0,"[0.12115796894719853,-0.03990514388821216]",100.0,"[-0.006723384199006786,0.09898185059607688]",100.0,"[0.10714780064966326,0.13603030241380226]",100.0,"[0.07780855939368823,0.010981848724476532]",4.0,"[-0.12607049751011756,-0.04444260002011047]",100.0,"[0.016154849858565665,0.007389259037943988]",100.0,"[0.05710148570699545,-0.09164788632129839]",100.0,"[-0.10834434817778855,0.03636851884749487]",4.0,"[0.17873360648361972,-0.06359374851762081]",100.0,"[-0.004578938942878689,-0.13207242336049793]",100.0,"[-0.05653530322749493,0.16507908663624127]",100.0,"[0.012241179644845113,-0.06900129276750597]",100.0,"[-0.14113741616865988,0.0019409471873741218]",100.0,"[-0.12959494636905305,0.14332395654656302]",100.0,"[0.028572435175923176,0.1626034979541477]",100.0,"[0.050328755484933145,-0.01810139479037377]",100.0,"[-0.1947763735891497,-0.02151628498651333]",100.0,"[0.13888187882856,0.0833123241329435]",100.0,"[0.17169015663292256,0.05301788227234523]",100.0,"[-0.019517685589587178,-0.03168699266771299]",100.0,"[-0.04456786468483272,-0.08910392672736035]",100.0,"[-0.018255780438651854,-0.18874960756253242]",100.0,"[-0.1862694251719228,0.024065827155417902]",100.0,"[0.1203719944643679,0.032032409114797517]",100.0,"[-0.1470360503603537,0.09983217590710608]",100.0,"[0.02,0.02]",191.6074,0.0,40.0,40.0,3.0,1.0,,,,,,,
,,,,,,,5f0f6811a0ed4a11dbc57b79,68399de980caacdc60371909,2025-05-30_13h01.20.460,shape_ratio,2024.1.5,MacIntel,59.88023952,683853e18dae57a2147b65e0,,,,,,,,,,,191.6081,192.108,,,192.3585,192.5584,right,0.1834,,,,,,,,,0.1,,,,,,192.108,192.3585,192.5584,"[-0.030558802087426576,0.01634158652136542]",4.0,"[0.16247205036564583,0.029818722539870144]",4.0,"[0.0760688678997578,0.16669198483016576]",4.0,"[-0.031584173806524146,0.07327900482498129]",4.0,"[0.03565019493217224,-0.19172327825983984]",4.0,"[-0.04289425227687814,-0.05365136205125342]",4.0,"[-0.1313107216027711,0.060321006939866625]",4.0,"[0.018390491734275222,0.06889696143227468]",4.0,"[-0.011366346181419067,-0.11367578382038161]",4.0,"[0.040676281520955815,-0.1276103452620154]",100.0,"[-0.1162420892273739,0.12389488781050227]",4.0,"[0.1494869052619874,-0.07166572313990084]",4.0,"[-0.16007617354954776,-0.06874865593327405]",4.0,"[-0.14391667878023914,0.008647247969457926]",4.0,"[0.1358973814844751,0.06964977324971089]",4.0,"[-0.1564621242764684,-0.12430803006707217]",4.0,"[-0.15723388244741418,0.0937456476368511]",100.0,"[0.12179752113702418,-0.015227749297890697]",4.0,"[0.0665338095221827,0.08817306312158335]",4.0,"[-0.01279174512458592,0.12300084418710726]",4.0,"[0.08324192505451578,-0.13220582097631242]",4.0,"[0.07604640199933399,-0.07628060937683341]",4.0,"[-0.0661456650677119,0.12309803061807713]",4.0,"[-0.17965788595596527,-0.030407316948207624]",4.0,"[0.11983467357486031,0.11421009780368861]",4.0,"[-0.09259198800308079,-0.16386688670863336]",4.0,"[0.03226175200329621,-0.03798669236654944]",4.0,"[-0.09939411355468906,-0.04248866506187821]",4.0,"[0.06454167992568072,0.024121654530073935]",4.0,"[-0.019771856340051727,-0.18795981271232612]",4.0,"[0.009462877669470172,0.16911868673288125]",4.0,"[-0.08403910540837126,0.05435045578961123]",100.0,"[0.02,0.02]",193.6593,0.0,41.0,41.0,197.0,1.0,,,,,,,
,,,,,,,5f0f6811a0ed4a11dbc57b79,68399de980caacdc60371909,2025-05-30_13h01.20.460,shape_ratio,2024.1.5,MacIntel,59.88023952,683853e18dae57a2147b65e0,,,,,,,,,,,193.6598,194.1596,,,194.4101,194.5601,left,0.1342,,,,,,,,,0.55,,,,,,194.1598,194.4101,194.5601,"[0.026061550807118364,-0.15596177601391814]",4.0,"[-0.12764466835511123,0.11440587843645199]",4.0,"[-0.10283611142340743,0.04639784892776746]",100.0,"[-0.09817919708008951,-0.014351772080880844]",4.0,"[0.08767880893804131,0.16679919529828546]",100.0,"[0.14397589961346172,-0.060534092894208746]",100.0,"[-0.014779999724565685,-0.10930481526233903]",4.0,"[0.1758498927388401,0.07294873455776583]",4.0,"[0.0028049165187891433,0.15573285719130187]",4.0,"[0.05704607172056638,0.03143675546246286]",100.0,"[-0.17045506050686982,-0.03764865882970819]",100.0,"[-0.11617314605125989,-0.08282604285547285]",4.0,"[0.01348509030585821,0.03332858794741767]",4.0,"[0.1599928650549098,-0.10032741805412364]",100.0,"[-0.07838862807316127,0.16696248826294458]",4.0,"[0.0944035767297046,-0.17306814886402735]",4.0,"[-0.042527523739091015,0.016087771697369226]",100.0,"[-0.04934764088445142,0.09426004328291326]",100.0,"[0.049536167416509055,0.08494419131916232]",4.0,"[0.010185861147178015,-0.04612217325255138]",100.0,"[0.12579014562064547,-0.12435216375645602]",100.0,"[-0.051286579379189554,-0.16482204120557864]",4.0,"[0.164366669905319,-0.022939627941229456]",100.0,"[-0.06184635165746911,-0.07460691993197761]",100.0,"[-0.13364150716183662,-0.12180329860993025]",100.0,"[-0.14513665997950426,0.02523950233212944]",4.0,"[0.06776297924974682,-0.02320903964660346]",100.0,"[-0.02824913019532429,0.19260414516714847]",100.0,"[-0.16831876842337762,0.09573413225041966]",100.0,"[-0.1899093496773866,0.009590263042126162]",100.0,"[0.14396750890882987,0.1073121193618075]",4.0,"[0.0636228370607563,-0.07065178915208949]",100.0,"[0.02,0.02]",195.6609,0.0,42.0,42.0,88.0,1.0,,,,,,,
,,,,,,,5f0f6811a0ed4a11dbc57b79,68399de980caacdc60371909,2025-05-30_13h01.20.460,shape_ratio,2024.1.5,MacIntel,59.88023952,683853e18dae57a2147b65e0,,,,,,,,,,,195.6614,196.1613,,,196.4116,196.5784,left,0.1511,,,,,,,,,0.55,,,,,,196.1614,196.4115,196.5785,"[0.1314086901957288,-0.12722699193893217]",100.0,"[0.01433011522487145,-0.16008920298137774]",100.0,"[-0.00027849930526318846,0.16687099502286903]",100.0,"[0.01567479404850485,-0.10701984143761027]",4.0,"[-0.11549022738966117,0.0813519127936151]",4.0,"[0.0845528883925173,0.05692866673060896]",4.0,"[0.054266018099746224,-0.03100818851071655]",100.0,"[-0.15154315278995004,-0.09146624961926399]",100.0,"[0.04376115484482084,0.1355997762444142]",4.0,"[0.09749483854660226,-0.03255616041769492]",100.0,"[-0.14467153953097234,0.04161326349249182]",100.0,"[-0.09338227773829286,-0.010399573078772036]",100.0,"[0.16802732793023853,0.0436120655922437]",100.0,"[0.14527483479201045,-0.07074250034288566]",4.0,"[0.09314148946341265,0.1360492791745272]",4.0,"[-0.04708486816967154,0.010654629189791301]",4.0,"[-0.08825317504387932,0.1112902608942142]",4.0,"[0.14734950440631392,0.09988161596148054]",4.0,"[-0.10161966152956163,-0.16040443273880722]",4.0,"[-0.08896199902603497,0.17904479816064545]",100.0,"[-0.05808258943975918,-0.06949286428023205]",100.0,"[0.18363953079117737,-0.045545044258252274]",4.0,"[-0.026560936885389335,0.11490718012170678]",4.0,"[0.10284945062337186,-0.1634383125252584]",100.0,"[-0.09681922463211431,-0.08923725638919477]",4.0,"[0.0005405129574679825,0.0037049390457768536]",100.0,"[-0.1518907610490669,-0.017871766820408277]",100.0,"[-0.044797936606621146,0.0663406657412338]",100.0,"[-0.056418644181163116,-0.1784401912707945]",100.0,"[-0.07305499560863753,-0.1259190095519954]",100.0,"[0.17712835281627906,0.003846673409058488]",100.0,"[0.013106425443333026,0.09659495280733438]",4.0,"[0.02,0.02]",197.6793,0.0,43.0,43.0,81.0,1.0,,,,,,,
,,,,,,,5f0f6811a0ed4a11dbc57b79,68399de980caacdc60371909,2025-05-30_13h01.20.460,shape_ratio,2024.1.5,MacIntel,59.88023952,683853e18dae57a2147b65e0,,,,,,,,,,,197.6799,198.1797,,,198.4304,198.8637,left,0.4282,,,,,,,,,0.45,,,,,,198.1798,198.4303,198.8638,"[-0.1323099186154806,-0.08708413020494138]",100.0,"[-0.05703009229142529,-0.12401507383048653]",4.0,"[0.13937153975904032,0.04153824201014598]",100.0,"[-0.12160049381246406,-0.033738173675348496]",4.0,"[0.08245797848318073,-0.08934664482882745]",4.0,"[0.08601913397013937,0.13448608073235802]",100.0,"[0.012511304053100468,0.06917166274928845]",4.0,"[-0.12335708248282638,0.01822424966742421]",4.0,"[-0.12086673766747849,0.158955251525683]",4.0,"[0.13418673282680674,-0.07072088359953929]",4.0,"[0.04850914477947749,-0.19015309794844726]",4.0,"[0.04173936274069703,-0.08828739522068581]",100.0,"[-0.04766643932439281,0.18990312326903397]",4.0,"[-0.04023955104817951,-0.014817924334066323]",4.0,"[-0.151904532314922,-0.1248963297144284]",100.0,"[-0.005230296847021008,-0.04436265838198008]",100.0,"[-0.009924739255460573,0.11764509790770437]",4.0,"[0.011223647311627038,0.008172522806477355]",100.0,"[0.13867446668916475,-0.13047869614390178]",100.0,"[0.12856557674474173,0.09329416890876785]",4.0,"[-0.049092981833599426,0.06322428350668675]",100.0,"[-0.15539848944883564,0.08607669790609788]",100.0,"[0.13088181924515083,-0.02961392304087226]",4.0,"[-0.19807685738925823,0.014731317113699719]",100.0,"[-0.02265097879863058,-0.17379656423359835]",4.0,"[0.195558019974349,-0.01075104093338339]",100.0,"[0.10173017220917922,-0.15958169343909998]",100.0,"[-0.11224872408016905,-0.15579592406895382]",4.0,"[0.09262294713552877,0.04089861958463563]",4.0,"[-0.10415834122051267,0.06188733167681189]",4.0,"[0.01702580834063095,-0.14648184946151666]",4.0,"[-0.08002451873269968,-0.07183660494025808]",100.0,"[0.02,0.02]",199.9646,0.0,44.0,44.0,138.0,1.0,,,,,,,
,,,,,,,5f0f6811a0ed4a11dbc57b79,68399de980caacdc60371909,2025-05-30_13h01.20.460,shape_ratio,2024.1.5,MacIntel,59.88023952,683853e18dae57a2147b65e0,,,,,,,,,,,199.9652,200.4651,,,200.7153,200.9649,right,0.2341,,,,,,,,,0.4,,,,,,200.4651,200.7153,200.9649,"[-0.05651731123813261,0.1359029641896982]",100.0,"[0.09180979648815815,-0.008462177984695176]",4.0,"[0.04955654676682488,-0.06600253290743638]",4.0,"[0.12865255793062688,0.10175767867328742]",100.0,"[-0.025888827363382355,-0.0011304354867681101]",100.0,"[-0.13015279252980017,-0.10305546298122056]",4.0,"[0.030704483608356276,-0.15913121590207877]",4.0,"[-0.18396490624809098,0.06434535075243776]",4.0,"[-0.09750544442665908,0.15129098906843486]",4.0,"[-0.017849694732127566,0.12163159984715917]",4.0,"[0.14923462673870663,-0.0018282111753381586]",100.0,"[0.0015828892630192482,0.1569230571351247]",4.0,"[0.028913814828588808,0.01787281693036636]",100.0,"[0.14302306575280185,-0.047712639917491105]",4.0,"[0.09271505170383912,0.059116660851820824]",100.0,"[-0.08386417133946923,0.06042834462637694]",4.0,"[0.07932070682276116,0.1802878412179527]",4.0,"[0.1870210200564674,-0.05146760959554589]",100.0,"[0.17719916569065244,0.08652232644336841]",100.0,"[-0.11025403881263844,-0.012246910020685087]",100.0,"[0.14014900982110232,-0.11618758068529358]",4.0,"[-0.08964227567604005,-0.07886865638017937]",100.0,"[0.03127891650468403,0.12290412444376606]",100.0,"[-0.14702452016090775,0.12298919807276966]",4.0,"[-0.07294785377437192,-0.16930967236036384]",4.0,"[0.10561610765620064,-0.06432859779898256]",100.0,"[0.010095325158073013,-0.08844211823611153]",4.0,"[-0.05702504818706906,-0.03382870308109581]",4.0,"[-0.029052590168746492,-0.1522688548417751]",4.0,"[-0.026646993023867523,0.18711189924908414]",100.0,"[-0.011142540225596428,-0.042214470744281474]",4.0,"[0.10511578452336728,0.13877659331129652]",4.0,"[0.02,0.02]",202.0664,0.0,45.0,45.0,155.0,1.0,,,,,,,
,,,,,,,5f0f6811a0ed4a11dbc57b79,68399de980caacdc60371909,2025-05-30_13h01.20.460,shape_ratio,2024.1.5,MacIntel,59.88023952,683853e18dae57a2147b65e0,,,,,,,,,,,202.0669,202.5669,,,202.8175,202.9506,right,0.1164,,,,,,,,,0.1,,,,,,202.5669,202.8174,202.9506,"[-0.09387475848330645,-0.004604475030690231]",4.0,"[0.04385671492376181,-0.1035281144979486]",4.0,"[-0.02112541202711805,-0.0772440358877594]",4.0,"[0.17729473662585998,0.0003882284577539106]",4.0,"[-0.026235100664410746,-0.19287606732310364]",4.0,"[0.014057642791298511,-0.007115399865624588]",4.0,"[0.10832319734644781,-0.09132838598802968]",4.0,"[-0.0928076794806825,-0.08737763566776696]",100.0,"[-0.03430854011136931,0.16408237271178278]",4.0,"[0.07159044647898817,0.18555214778055942]",4.0,"[0.029263176938924506,-0.15696409327766306]",100.0,"[0.15191595458875093,0.06890008528299847]",4.0,"[-0.175770473827852,0.09009099588812702]",100.0,"[-0.04549878050124884,0.07180673793816612]",4.0,"[0.04884137269605797,-0.02886217860394229]",4.0,"[-0.13737414686726754,0.12349053051028477]",4.0,"[0.1335996075543377,-0.03843954382848235]",4.0,"[0.07789445721498388,0.07819682149289742]",4.0,"[-0.043291209077728286,-0.005570298064419994]",4.0,"[0.046606838432861425,0.11861295569452353]",4.0,"[-0.1222571344636684,-0.1473030456700022]",4.0,"[0.11070216610309232,0.0372608007985918]",4.0,"[-0.041211960430909245,-0.145037389015077]",4.0,"[0.12216057555741099,0.11325364799127136]",4.0,"[-0.09962876497517532,0.036847653944915244]",4.0,"[-0.1695525314602072,0.04695360882469719]",4.0,"[0.08021483552527234,0.0014893902048332987]",4.0,"[0.15118603686164847,-0.11482556369924866]",4.0,"[-0.10100830842155917,0.14905781909334198]",4.0,"[0.0045772284827269895,0.05263058962415416]",4.0,"[0.014366465673906653,0.15461364002441236]",4.0,"[0.08932006800661325,-0.04701290074809134]",4.0,"[0.02,0.02]",204.0514,0.0,46.0,46.0,193.0,1.0,,,,,,,
,,,,,,,5f0f6811a0ed4a11dbc57b79,68399de980caacdc60371909,2025-05-30_13h01.20.460,shape_ratio,2024.1.5,MacIntel,59.88023952,683853e18dae57a2147b65e0,,,,,,,,,,,204.0519,204.5519,,,204.8025,204.9523,right,0.1329,,,,,,,,,0.55,,,,,,204.5519,204.8025,204.9524,"[-0.12684416813199526,0.0700483238221318]",100.0,"[-0.08540845641558685,0.12127903611267696]",4.0,"[0.039006832712767565,-0.1584068195951071]",4.0,"[0.08357056421364609,-0.04215166502472712]",4.0,"[-0.11996160232183144,-0.10012170330973147]",4.0,"[0.08244160690818027,-0.1405384466262661]",100.0,"[-0.015976142016355138,0.13968037545359316]",100.0,"[0.08433650640300869,0.14516883727040186]",4.0,"[-0.0755548796320602,-0.16460233491962495]",100.0,"[0.11142966010440053,0.08669091822709228]",100.0,"[-0.09104943111663759,0.17186318199832767]",100.0,"[-0.00013060702006915647,0.19952704768037513]",100.0,"[-0.18489595028125516,-0.02173553092009453]",4.0,"[-0.10591317317638445,0.03591558402630514]",4.0,"[0.028722638902908416,0.05584645338877037]",100.0,"[0.15949643035649247,-0.06474356832996338]",4.0,"[0.06856630565770808,0.09865845089446712]",4.0,"[-0.1429736232175735,-0.06561115818058166]",4.0,"[0.11749725200542221,-0.08710266541004315]",4.0,"[-0.048362097137865954,-0.00788593473426597]",4.0,"[-0.08941297843774121,-0.05437637096328048]",100.0,"[-0.016032586533275033,-0.15390898881793183]",100.0,"[0.15299008097900796,-0.008793255095204643]",4.0,"[-0.011922862126156264,-0.07332490487342846]",100.0,"[0.029190553169729704,0.11188881582356178]",100.0,"[-0.12141434433741762,-0.026872698458711777]",100.0,"[0.14467200172537822,0.03731815482496282]",4.0,"[-0.17254825947931146,0.07124789090792966]",100.0,"[0.04397314268308906,-0.027826402699277202]",100.0,"[-0.05603463105836874,-0.12609039205257605]",100.0,"[0.042296668833140115,0.1550366745229834]",100.0,"[-0.0717524048621762,0.060539523800482185]",100.0,"[0.02,0.02]",206.0532,0.0,47.0,47.0,86.0,1.0,,,,,,,
,,,,,,,5f0f6811a0ed4a11dbc57b79,68399de980caacdc60371909,2025-05-30_13h01.20.460,shape_ratio,2024.1.5,MacIntel,59.88023952,683853e18dae57a2147b65e0,,,,,,,,,,,206.0537,206.5536,,,206.8043,207.0041,right,0.1831,,,,,,,,,0.45,,,,,,206.5536,206.8041,207.0041,"[-0.07885227763207549,0.11907079279499148]",4.0,"[0.15786897916021728,-0.020938598118836787]",4.0,"[0.03305078363149787,0.06494174300748598]",4.0,"[-0.08186704727731182,-0.09668879648362669]",100.0,"[0.0716978630766635,0.10310885983410736]",100.0,"[0.1635395286313622,0.07479223461934285]",4.0,"[0.025912551019390235,-0.18075642449299617]",4.0,"[0.09986891851320602,0.06846976491859587]",100.0,"[0.011902956931502928,-0.04098921296165783]",4.0,"[-0.026790140924310608,-0.026649220701531723]",4.0,"[-0.023782802821403534,-0.13656528169380946]",100.0,"[-0.05816520616983454,0.1544702969654962]",4.0,"[-0.16877797202121878,-0.028921452367194844]",100.0,"[-0.18543787810389464,0.040812042023648604]",4.0,"[0.11447966119580806,-0.08259409506677352]",100.0,"[0.10415190078511304,0.1308186265290001]",4.0,"[-0.006939728260754956,-0.0957020368677584]",4.0,"[0.031071745413546625,0.012866007358711035]",100.0,"[0.027890385577721267,0.18413634296947523]",100.0,"[0.19234832222541834,-0.0465070975757967]",4.0,"[-0.03027553237531024,0.09924636411016688]",4.0,"[-0.10702192556693352,-0.13310428651215764]",100.0,"[-0.1173669431108649,-0.055837059468348646]",100.0,"[0.04738042892779081,-0.11043054340767901]",4.0,"[-0.13716098670380794,0.024549347647970194]",4.0,"[-0.06507622386736016,0.009215404243689274]",100.0,"[0.023423788443545653,0.1248383132718046]",4.0,"[0.07545287056316853,-0.14738971291218594]",100.0,"[0.13356800363807017,-0.13906809604006382]",100.0,"[-0.12365060585991294,0.14410988919011178]",4.0,"[-0.021558505575243306,0.04274820875083905]",100.0,"[0.07843111325885367,-0.008555966211585138]",4.0,"[0.02,0.02]",208.1048,0.0,48.0,48.0,143.0,1.0,,,,,,,
,,,,,,,5f0f6811a0ed4a11dbc57b79,68399de980caacdc60371909,2025-05-30_13h01.20.460,shape_ratio,2024.1.5,MacIntel,59.88023952,683853e18dae57a2147b65e0,,,,,,,,,,,208.1054,208.6053,,,208.856,208.9057,right,0.0354,,,,,,,,,0.5,,,,,,208.6054,208.8559,208.9058,"[0.16973607363087587,0.09121870892836988]",4.0,"[-0.022437038875393445,-0.06420272425638586]",4.0,"[-0.18454095778003504,0.032733976323820906]",100.0,"[0.053045703405848375,-0.17998960969569452]",4.0,"[-0.1766478818922248,-0.04825752752315084]",100.0,"[-0.02149160012447746,0.1179050887568684]",100.0,"[-0.13339099165535695,0.14236741916219892]",4.0,"[0.18209511418887175,-0.04284620519610482]",100.0,"[0.0283238558523266,0.04399764301101386]",100.0,"[-0.05233324663114428,-0.003292778569863123]",100.0,"[0.024675179597143892,0.09252852450617646]",100.0,"[-0.06396509388759841,0.14848872772843028]",4.0,"[0.1405173019818247,-0.004206498185184274]",100.0,"[0.10171568451403942,-0.01828951962046401]",100.0,"[0.08181245474787387,-0.06859035587271524]",100.0,"[-0.13082516327043317,-0.10978055875965796]",4.0,"[-0.02066302301490917,0.052674640421357936]",100.0,"[-0.10213750095375738,-0.0707278977868948]",4.0,"[0.040489255654883094,-0.010187441544891164]",100.0,"[0.07572660790958444,0.08057442136519412]",4.0,"[-0.0028724321647823387,-0.1755441854978129]",4.0,"[-0.13234771776307475,0.08853536126917912]",4.0,"[0.06055577116518003,-0.11535130254779964]",4.0,"[-0.11386351587276154,-0.011098768537531289]",100.0,"[0.1181586434475815,0.09841845736395409]",4.0,"[-0.08974969158269794,0.08194288457188624]",100.0,"[-0.07341527799607854,-0.12065190091162006]",100.0,"[0.08654801160062386,-0.15091938425793985]",4.0,"[0.13646197418258943,-0.05888245862563724]",4.0,"[-0.10463380035239335,0.033196480986530705]",4.0,"[0.06602360637143397,0.1471929932319044]",4.0,"[0.10497407047695734,-0.10969122804729144]",100.0,"[0.02,0.02]",210.0068,0.0,49.0,49.0,99.0,1.0,,,,,,,
