right,left,explain.started,explain.stopped,key_resp_3.keys,key_resp_3.rt,key_resp_3.duration,participant,session,date,expName,psychopyVersion,OS,frameRate,study_id,explain_2.started,explain_2.stopped,key_resp_4.keys,key_resp_4.rt,key_resp_4.duration,explain_3.started,explain_3.stopped,key_resp_5.keys,key_resp_5.rt,key_resp_5.duration,fixation.started,fixation.stopped,practice.started,practice.stopped,response.started,response.stopped,key_resp.keys,key_resp.rt,key_resp.duration,feedback.started,feedback.stopped,trials_2.thisRepN,trials_2.thisTrialN,trials_2.thisN,trials_2.thisIndex,trials_2.ran,dot_ratio,explain_4.started,explain_4.stopped,key_resp_6.keys,key_resp_6.rt,key_resp_6.duration,dotDisplay.started,dotDisplay.stopped,ITI.started,polygon_1.pos,polygon_1.edges,polygon_2.pos,polygon_2.edges,polygon_3.pos,polygon_3.edges,polygon_4.pos,polygon_4.edges,polygon_5.pos,polygon_5.edges,polygon_6.pos,polygon_6.edges,polygon_7.pos,polygon_7.edges,polygon_8.pos,polygon_8.edges,polygon_9.pos,polygon_9.edges,polygon_10.pos,polygon_10.edges,polygon_11.pos,polygon_11.edges,polygon_12.pos,polygon_12.edges,polygon_13.pos,polygon_13.edges,polygon_14.pos,polygon_14.edges,polygon_15.pos,polygon_15.edges,polygon_16.pos,polygon_16.edges,polygon_17.pos,polygon_17.edges,polygon_18.pos,polygon_18.edges,polygon_19.pos,polygon_19.edges,polygon_20.pos,polygon_20.edges,polygon_21.pos,polygon_21.edges,polygon_22.pos,polygon_22.edges,polygon_23.pos,polygon_23.edges,polygon_24.pos,polygon_24.edges,polygon_25.pos,polygon_25.edges,polygon_26.pos,polygon_26.edges,polygon_27.pos,polygon_27.edges,polygon_28.pos,polygon_28.edges,polygon_29.pos,polygon_29.edges,polygon_30.pos,polygon_30.edges,polygon_31.pos,polygon_31.edges,polygon_32.pos,polygon_32.edges,dot_size,ITI.stopped,trials.thisRepN,trials.thisTrialN,trials.thisN,trials.thisIndex,trials.ran,break_2.started,break_2.stopped,trials_3.thisRepN,trials_3.thisTrialN,trials_3.thisN,trials_3.thisIndex,trials_3.ran
subject chose dot,subject chose diamond,0.0,1166.65,space,1151.637,,5f70f2daea9a9f7076484982,6842bb028ad3b7fb1f2eb68a,2025-06-06_11h55.24.470,shape_ratio,2024.1.5,Win32,61.34969325,6842b561977af9ba9b0f87ca,,,,,,,,,,,,,,,,,,,,,,,,,,,,,,,,,,,,,,,,,,,,,,,,,,,,,,,,,,,,,,,,,,,,,,,,,,,,,,,,,,,,,,,,,,,,,,,,,,,,,,,,,,,,,,,,,
,,,,,,,5f70f2daea9a9f7076484982,6842bb028ad3b7fb1f2eb68a,2025-06-06_11h55.24.470,shape_ratio,2024.1.5,Win32,61.34969325,6842b561977af9ba9b0f87ca,1166.65,1198.12,space,1.452,,,,,,,,,,,,,,,,,,,,,,,,,,,,,,,,,,,,,,,,,,,,,,,,,,,,,,,,,,,,,,,,,,,,,,,,,,,,,,,,,,,,,,,,,,,,,,,,,,,,,,,,,,,,,
,,,,,,,5f70f2daea9a9f7076484982,6842bb028ad3b7fb1f2eb68a,2025-06-06_11h55.24.470,shape_ratio,2024.1.5,Win32,61.34969325,6842b561977af9ba9b0f87ca,,,,,,1198.12,1202.352,space,1.204,,,,,,,,,,,,,,,,,,,,,,,,,,,,,,,,,,,,,,,,,,,,,,,,,,,,,,,,,,,,,,,,,,,,,,,,,,,,,,,,,,,,,,,,,,,,,,,,,,,,,,,,
,,,,,,,5f70f2daea9a9f7076484982,6842bb028ad3b7fb1f2eb68a,2025-06-06_11h55.24.470,shape_ratio,2024.1.5,Win32,61.34969325,6842b561977af9ba9b0f87ca,,,,,,,,,,,1202.362,1202.852,1202.852,1203.102,1203.102,1204.467,left,1.328,,1204.467,1205.567,0.0,0.0,0.0,0.0,1.0,0.2,,,,,,,,,,,,,,,,,,,,,,,,,,,,,,,,,,,,,,,,,,,,,,,,,,,,,,,,,,,,,,,,,,,,,,,,,,,,,,,,,,,,,,
,,,,,,,5f70f2daea9a9f7076484982,6842bb028ad3b7fb1f2eb68a,2025-06-06_11h55.24.470,shape_ratio,2024.1.5,Win32,61.34969325,6842b561977af9ba9b0f87ca,,,,,,,,,,,1205.568,1206.068,1206.068,1206.318,1206.318,1206.834,right,0.502,,1206.834,1207.933,0.0,1.0,1.0,1.0,1.0,0.8,,,,,,,,,,,,,,,,,,,,,,,,,,,,,,,,,,,,,,,,,,,,,,,,,,,,,,,,,,,,,,,,,,,,,,,,,,,,,,,,,,,,,,
,,,,,,,5f70f2daea9a9f7076484982,6842bb028ad3b7fb1f2eb68a,2025-06-06_11h55.24.470,shape_ratio,2024.1.5,Win32,61.34969325,6842b561977af9ba9b0f87ca,,,,,,,,,,,,,,,,,,,,,,,,,,,,1207.933,1211.815,space,0.863,,,,,,,,,,,,,,,,,,,,,,,,,,,,,,,,,,,,,,,,,,,,,,,,,,,,,,,,,,,,,,,,,,,,,,,,,,,,,,,,,,
,,,,,,,5f70f2daea9a9f7076484982,6842bb028ad3b7fb1f2eb68a,2025-06-06_11h55.24.470,shape_ratio,2024.1.5,Win32,61.34969325,6842b561977af9ba9b0f87ca,,,,,,,,,,,1211.824,1212.315,,,1212.565,1213.432,right,0.85,,,,,,,,,0.9,,,,,,1212.315,1212.565,1213.432,"[0.004894136962091806,-0.08111284059762054]",100.0,"[0.08616582479460769,0.13608065420688154]",100.0,"[-0.17798451535473325,0.07282052637849988]",100.0,"[-0.07439415585223977,0.07670728034579924]",100.0,"[0.017703947961666584,-0.15873087107952114]",100.0,"[-0.11724022448322606,0.0843778205944042]",100.0,"[-0.05745940667286055,0.1738316363600748]",100.0,"[0.010189057272004252,0.16675161369920186]",100.0,"[0.15575807356484278,-0.012006978065933708]",100.0,"[-0.08596810741433034,-0.09784196763370456]",100.0,"[-0.020258427593073582,0.032690939950837376]",100.0,"[0.10423602271605245,-0.054290658412184625]",100.0,"[0.1301446879738771,0.1165069901364449]",4.0,"[0.1409711038725106,-0.07449573683744211]",100.0,"[-0.06545465393223247,-0.18010786357765646]",100.0,"[0.18024977926929706,0.06774430809665438]",100.0,"[-0.14410106158602967,0.03353201137504375]",100.0,"[-0.06938014349828715,-0.03598320170644778]",100.0,"[-0.06575131548452504,0.13386302718834187]",4.0,"[-0.12080456062947645,-0.03681217145458253]",100.0,"[0.016647843953856618,0.0007357937419888425]",100.0,"[0.035546297659828634,-0.05433671823714779]",100.0,"[0.11688163816059657,-0.15656114462096346]",100.0,"[0.17703894596368738,-0.056200414491656386]",100.0,"[0.0342214434403021,0.1136500794210232]",100.0,"[0.11993920267434283,0.0600244958958465]",100.0,"[0.08158440241746115,-0.010059545016651563]",100.0,"[0.19844373196105286,0.02220395794622152]",4.0,"[0.07692948902005467,-0.11079904197325895]",100.0,"[-0.021909075055982385,0.11009100027119026]",100.0,"[-0.16303496601320602,-0.10578256013175212]",100.0,"[0.056136762761152606,0.06282607146585535]",100.0,"[0.02,0.02]",1214.532,0.0,0.0,0.0,5.0,1.0,,,,,,,
,,,,,,,5f70f2daea9a9f7076484982,6842bb028ad3b7fb1f2eb68a,2025-06-06_11h55.24.470,shape_ratio,2024.1.5,Win32,61.34969325,6842b561977af9ba9b0f87ca,,,,,,,,,,,1214.532,1215.031,,,1215.281,1215.748,right,0.45,,,,,,,,,0.9,,,,,,1215.031,1215.281,1215.748,"[-0.08430631457735206,-0.1105355954902699]",100.0,"[-0.18008562579878826,-0.02106717958128729]",100.0,"[0.04863901159139181,-0.02234915092371203]",100.0,"[-0.17707481386826335,0.0651850403965303]",100.0,"[-0.09853142449861059,0.0102663664722538]",100.0,"[0.03403074423679292,0.184592488588548]",100.0,"[0.11925799034981888,0.09738648570359142]",100.0,"[0.015889322539040896,-0.047649337883504936]",100.0,"[-0.1180196340386255,-0.029938380822507184]",100.0,"[-0.05619716019656932,0.1398774866008787]",100.0,"[0.16955130660590018,-0.0020888047148617363]",4.0,"[0.036707766458592486,-0.09095253679855464]",100.0,"[0.005845374594631694,0.1382426624473652]",100.0,"[-0.0815622145684025,0.17519227194239895]",100.0,"[-0.028748361230099495,0.0026069002830149397]",100.0,"[0.06726402260425952,-0.18260635565937008]",100.0,"[0.12928836973668867,-0.12860212161853476]",100.0,"[0.13256388397432842,-0.04295592031676902]",100.0,"[0.19055293055483447,-0.05516785372839701]",100.0,"[-0.012873915671942567,-0.13244076472683122]",100.0,"[0.09272139705497323,-0.07772967391461309]",100.0,"[0.16497491982989076,-0.09965707203386154]",4.0,"[0.16200686442454404,0.11547372532213292]",100.0,"[-0.06273666059806766,-0.07215141889544309]",100.0,"[-0.00833105204184383,0.18044639200082077]",100.0,"[0.04510325876543446,-0.13514633843660445]",100.0,"[-0.09097937305059287,-0.15198242216184366]",4.0,"[-0.15138658803609917,-0.11939798779895572]",100.0,"[-0.03817005078325824,-0.036677618052918075]",100.0,"[0.038240896227990116,0.09741826708092614]",100.0,"[0.06607377887288156,0.14768895789011088]",100.0,"[0.013356192618575123,0.04389133740824859]",100.0,"[0.02,0.02]",1216.847,0.0,1.0,1.0,1.0,1.0,,,,,,,
,,,,,,,5f70f2daea9a9f7076484982,6842bb028ad3b7fb1f2eb68a,2025-06-06_11h55.24.470,shape_ratio,2024.1.5,Win32,61.34969325,6842b561977af9ba9b0f87ca,,,,,,,,,,,1216.849,1217.347,,,1217.597,1218.029,left,0.426,,,,,,,,,0.5,,,,,,1217.347,1217.597,1218.03,"[-0.09741301032434697,-0.12586591496056987]",100.0,"[0.12714502258887392,0.06586799758316923]",4.0,"[-0.024374875732784382,-0.17700523208931235]",100.0,"[-0.14589507876054877,0.12320931386318143]",100.0,"[0.11164464942186564,0.14219130124756052]",100.0,"[0.19572170655380378,-0.0005464652507716012]",100.0,"[-0.008927979433020011,-0.06430116890612383]",100.0,"[-0.15170988413718936,-0.07266470375273192]",100.0,"[0.051751756723346094,-0.14543850586432464]",100.0,"[0.1712305969944516,0.09033422164793198]",100.0,"[-0.14347010567389565,-0.11595100452484285]",100.0,"[0.1077962040093615,-0.09690676785903268]",4.0,"[0.02295085584206479,0.11998363124197416]",4.0,"[-0.09816621124374825,0.10596943553129376]",4.0,"[0.137104446043029,-0.03482850039265094]",4.0,"[-0.03933354318826208,0.10278019804650868]",4.0,"[-0.10183899493611752,-0.06848814038461311]",4.0,"[-0.04195972171323943,-0.12473284430058527]",4.0,"[0.008092191282958612,0.19069748914284956]",100.0,"[0.014867880541991361,-0.030044205904463772]",4.0,"[-0.05755172940890343,0.17831571684658196]",4.0,"[0.05702749102897062,0.14328123864311615]",100.0,"[-0.02327137012191593,-0.0034169485396557692]",4.0,"[-0.06942993584502222,-0.00948775786550291]",4.0,"[0.008272479932320933,-0.14603038214266406]",100.0,"[-0.16953813336409035,0.04183258390419154]",4.0,"[0.07775796813395416,0.022165860313362113]",100.0,"[-0.04847865126700324,-0.05269405215446676]",100.0,"[0.040469187989440984,0.07886007085307897]",100.0,"[0.18390844778229123,0.04327011026438995]",4.0,"[0.08088622023237226,0.1823687254361956]",4.0,"[-0.17146349106160097,-0.013686904229879254]",4.0,"[0.02,0.02]",1219.129,0.0,2.0,2.0,97.0,1.0,,,,,,,
,,,,,,,5f70f2daea9a9f7076484982,6842bb028ad3b7fb1f2eb68a,2025-06-06_11h55.24.470,shape_ratio,2024.1.5,Win32,61.34969325,6842b561977af9ba9b0f87ca,,,,,,,,,,,1219.13,1219.629,,,1219.879,1220.429,left,0.537,,,,,,,,,0.5,,,,,,1219.629,1219.879,1220.429,"[0.14793776069836417,-0.05554249282654928]",100.0,"[-0.035608250544894506,0.15557020225788865]",4.0,"[0.055873762479504784,0.0008238559589113823]",100.0,"[0.09748108507214975,0.10772428955565329]",100.0,"[0.044767340408241,0.06040229823352289]",4.0,"[-0.07296303553014055,-0.038691824597584856]",100.0,"[0.10354668508776613,-0.15364824958009088]",100.0,"[-0.1861133299321169,-0.06577806160632702]",4.0,"[0.13889518745388132,0.051563115391679834]",4.0,"[0.13154979667682418,0.0008404598353315367]",100.0,"[-0.023209744446681804,0.04693000297066565]",100.0,"[0.04352193681712056,-0.10131967296515973]",4.0,"[-0.01865140628057883,-0.12239725146673684]",100.0,"[0.020741487430165767,-0.1395591151509339]",100.0,"[0.18864588902297688,0.057394654229727844]",4.0,"[0.08809291350859605,0.036215747994597994]",4.0,"[-0.06556513370713536,-0.18148302112462505]",4.0,"[0.05373579299098693,0.1653330562021978]",4.0,"[0.03523152065227966,0.12270563788305806]",4.0,"[0.05674504428594943,-0.17502131150275532]",100.0,"[0.15104824337980793,-0.10585343811448501]",100.0,"[-0.07408356078613744,0.05044029397275425]",100.0,"[-0.12321747890014075,0.03655526243706061]",100.0,"[-0.12953917671963225,-0.023901097659360653]",4.0,"[-0.045990674559139764,0.004136063589038145]",4.0,"[-0.13454526875847728,0.09404615681949828]",4.0,"[0.15051251632608584,0.11227502921686934]",100.0,"[-0.061568878254321426,-0.13410614075115354]",100.0,"[0.04879724093558055,-0.05107733952379818]",4.0,"[0.0009971591720404416,-0.011616271611499288]",4.0,"[-0.11886575327729389,-0.11700683351353842]",100.0,"[-0.17605805143496722,0.05447784951448729]",4.0,"[0.02,0.02]",1221.528,0.0,3.0,3.0,105.0,1.0,,,,,,,
,,,,,,,5f70f2daea9a9f7076484982,6842bb028ad3b7fb1f2eb68a,2025-06-06_11h55.24.470,shape_ratio,2024.1.5,Win32,61.34969325,6842b561977af9ba9b0f87ca,,,,,,,,,,,1221.53,1222.029,,,1222.279,1222.762,right,0.475,,,,,,,,,0.6,,,,,,1222.029,1222.279,1222.762,"[-0.1810171315891371,-0.03170216333898176]",100.0,"[-0.159661453892216,0.10220060636274278]",4.0,"[0.04948903017204769,0.07850474569208564]",100.0,"[-0.04058208562961454,-0.11606366207482517]",100.0,"[0.1463219642610406,0.12606681863469016]",4.0,"[0.1479560155936975,-0.08235154358234657]",4.0,"[-0.0589204258302635,0.013831732131637523]",100.0,"[0.009938199721773278,-0.12722035580285188]",100.0,"[-0.09622597399367028,0.03763217921211157]",4.0,"[-0.08040759451232529,-0.0452560693104497]",100.0,"[0.15779769355090315,0.02036204937772487]",100.0,"[-0.11499616530992608,-0.132819077937611]",4.0,"[0.17849154114640245,-0.05006356275075566]",4.0,"[0.053071645057877315,0.11841666304466007]",100.0,"[0.05162388722723405,-0.04727105935007278]",100.0,"[0.10977104839192806,-0.053436575915722456]",4.0,"[0.18141184671859298,0.07864911974666329]",100.0,"[-0.04193073911056344,0.19508831374047353]",4.0,"[-0.018723162858102407,0.0025277104470144886]",100.0,"[0.0053687852827775644,0.16287504713187914]",4.0,"[-0.09998652049458862,0.12118551021993434]",4.0,"[-0.06818731468104677,-0.15031578066158235]",4.0,"[-0.012024576294649965,-0.1846413318154766]",100.0,"[0.08842355016010815,0.005888634137364673]",100.0,"[-0.18848176628921376,0.018581271839868505]",4.0,"[0.009162442007692199,0.09850304847014557]",100.0,"[0.058981544125789556,-0.13340862825349345]",100.0,"[-0.14929968630678273,0.03579658135048324]",100.0,"[0.10749836782552659,-0.1483525566139543]",100.0,"[0.023956307231126645,0.007109647189146292]",4.0,"[0.10363358666484727,0.14108756959144428]",100.0,"[0.04947136446544156,-0.08851059411542941]",100.0,"[0.02,0.02]",1223.861,0.0,4.0,4.0,42.0,1.0,,,,,,,
,,,,,,,5f70f2daea9a9f7076484982,6842bb028ad3b7fb1f2eb68a,2025-06-06_11h55.24.470,shape_ratio,2024.1.5,Win32,61.34969325,6842b561977af9ba9b0f87ca,,,,,,,,,,,1223.862,1224.361,,,1224.611,1225.211,left,0.582,,,,,,,,,0.55,,,,,,1224.361,1224.611,1225.212,"[-0.14800941829023045,0.024294842288412898]",100.0,"[0.09664926452819189,-0.030983325535395]",4.0,"[-0.005617098763776317,-0.1845034188397829]",100.0,"[0.06488439425597574,0.03677568657357644]",4.0,"[-0.11684543855065353,0.07234744955571581]",4.0,"[-0.13567275221200908,-0.11656843523785809]",4.0,"[-0.07743083653572626,0.03295175115866805]",100.0,"[0.005864908579069959,0.14537095721191187]",4.0,"[-0.014096676742570412,-0.1261284962565651]",100.0,"[-0.00028163008635918,-0.08216186118927783]",4.0,"[-0.17740335248237832,-0.09097888067552062]",100.0,"[0.16581530654436444,-0.09691028578974915]",100.0,"[0.10887680941283706,-0.08525819885150103]",100.0,"[0.05871001012009502,0.10464417603693296]",100.0,"[-0.05794447842953015,0.15823486014166094]",100.0,"[0.050159216161849624,-0.19270417022561523]",100.0,"[-0.09411517352120231,-0.10887487195556665]",4.0,"[-0.02594947954969371,0.18878749380199325]",100.0,"[-0.06513621716676152,-0.1368207088526316]",100.0,"[0.14809088133805062,-0.02821521417854403]",4.0,"[-0.13732603493438153,-0.06098799031919702]",4.0,"[0.032617213198667505,-0.023788957777602225]",100.0,"[-0.08351455157303447,-0.037534167073385555]",4.0,"[0.18708358586262905,-0.01727808186365611]",100.0,"[0.0837790335217999,-0.16219452613672666]",100.0,"[-0.03569265962611957,-0.002627614941967258]",4.0,"[0.11912949081397649,0.0268059533092319]",4.0,"[0.15698850715541698,0.05356787979761114]",4.0,"[-0.03791080865423288,0.07313693352346129]",100.0,"[0.1371466971444808,-0.12857450949041446]",4.0,"[0.09513303833683577,0.06525282922055532]",100.0,"[-0.07995156304007917,0.09619868803013071]",100.0,"[0.02,0.02]",1226.311,0.0,5.0,5.0,86.0,1.0,,,,,,,
,,,,,,,5f70f2daea9a9f7076484982,6842bb028ad3b7fb1f2eb68a,2025-06-06_11h55.24.470,shape_ratio,2024.1.5,Win32,61.34969325,6842b561977af9ba9b0f87ca,,,,,,,,,,,1226.313,1226.81,,,1227.061,1227.526,right,0.458,,,,,,,,,0.9,,,,,,1226.81,1227.061,1227.526,"[0.030819806814807043,-0.04824839843772402]",4.0,"[0.15437646236460423,-0.04053365827250767]",100.0,"[-0.012005264910007534,-0.01518810936609985]",100.0,"[0.0830848905624179,-0.02238490764758428]",100.0,"[-0.10897718671327859,0.12641905398124265]",100.0,"[-0.05504361411601271,0.15824612162333154]",100.0,"[-0.10889800255029164,-0.006310552351650399]",100.0,"[0.047267351309596,0.10142266412235809]",100.0,"[0.006885960327294129,-0.0866053657326384]",100.0,"[-0.03299232243557879,-0.17676165145199738]",100.0,"[0.08556401221452335,-0.13238335076483568]",100.0,"[-0.160895046804753,-0.11052985397197594]",100.0,"[-0.04982023351038746,-0.07687643776925936]",100.0,"[0.10462290421331256,0.09183583148692682]",100.0,"[0.08772277017753065,0.16866873435905927]",100.0,"[-0.18589964919684673,0.006143166304269412]",100.0,"[0.12718814629171993,0.13895361741727122]",100.0,"[0.0040021956864637045,0.04835654055001577]",100.0,"[0.1761460274065488,0.08463780247063911]",100.0,"[-0.09338811171644704,-0.11264163288073227]",100.0,"[-0.01214021446348877,0.09118373530986024]",100.0,"[-0.09648832518068849,0.033124508464171504]",100.0,"[-0.19516539244050282,-0.03998287891181818]",100.0,"[0.10607406769399656,-0.09015726683501626]",100.0,"[-0.05689583627053438,-0.013375393499501724]",4.0,"[-0.1750499865603165,0.08146395430312947]",100.0,"[0.19372847071529542,-0.002533884319093637]",100.0,"[-0.12340317864337046,-0.15718128411408352]",100.0,"[0.1483869039632896,-0.11036762201525052]",100.0,"[-0.09572137747845516,0.16943004564105768]",100.0,"[-0.15738614341322676,-0.05563253046490842]",4.0,"[-0.11551486900118643,-0.07311193405924853]",100.0,"[0.02,0.02]",1228.626,0.0,6.0,6.0,2.0,1.0,,,,,,,
,,,,,,,5f70f2daea9a9f7076484982,6842bb028ad3b7fb1f2eb68a,2025-06-06_11h55.24.470,shape_ratio,2024.1.5,Win32,61.34969325,6842b561977af9ba9b0f87ca,,,,,,,,,,,1228.627,1229.126,,,1229.376,1229.86,right,0.468,,,,,,,,,0.9,,,,,,1229.126,1229.376,1229.86,"[-0.04726684838211126,-0.18775665575949696]",100.0,"[-0.09456254653456823,0.06326946035740282]",100.0,"[0.11297874115270856,0.008456070564018299]",4.0,"[-0.0416786480975691,0.03680199199051565]",100.0,"[0.037857733797022106,-0.012385343099713422]",100.0,"[0.18589456794405498,0.011711737077878105]",100.0,"[0.07413715375870643,0.10049518950084087]",4.0,"[0.004411198574233336,0.056453014110694505]",100.0,"[0.07134486079291537,-0.07970555667623591]",100.0,"[-0.06191802222749151,0.11643177098989753]",100.0,"[-0.11935984685476748,-0.12294005592237538]",100.0,"[-0.13943877112143122,0.0335504950041727]",100.0,"[-0.1918395849340737,0.04722443853939207]",100.0,"[-0.0037537990185430364,-0.10353655388536731]",100.0,"[-0.10940465824675638,0.13700940262290576]",100.0,"[-0.09458420244824291,0.004240014491000849]",100.0,"[-0.10136085781320006,-0.16590463915210046]",100.0,"[-0.00845407704125367,-0.15475335475059088]",100.0,"[-0.1482299665136075,-0.021325524559628623]",100.0,"[0.04550823782844084,0.18842834061925998]",100.0,"[-0.15767715675651942,-0.0824981215688519]",4.0,"[0.07396653791350519,0.15235877617046148]",100.0,"[0.11831720561777151,0.07456033420229094]",100.0,"[-0.02706734642407812,-0.04625540304209944]",100.0,"[0.10168259742033,-0.051625084656673724]",100.0,"[0.12309209236474014,-0.12674357593335353]",100.0,"[-0.15571122219633102,0.10443744999858376]",100.0,"[-0.10267220737853988,-0.04042125825743068]",100.0,"[0.15207875110685898,-0.09293828334306509]",100.0,"[0.13191025627007885,0.11296345680409081]",100.0,"[0.17367577670814854,0.0847737256063654]",100.0,"[0.019067531823373018,0.0993393166741376]",100.0,"[0.02,0.02]",1230.959,0.0,7.0,7.0,8.0,1.0,,,,,,,
,,,,,,,5f70f2daea9a9f7076484982,6842bb028ad3b7fb1f2eb68a,2025-06-06_11h55.24.470,shape_ratio,2024.1.5,Win32,61.34969325,6842b561977af9ba9b0f87ca,,,,,,,,,,,1230.96,1231.459,,,1231.708,1232.407,left,0.686,,,,,,,,,0.55,,,,,,1231.459,1231.708,1232.408,"[-0.08818725609951163,-0.10987354127861343]",100.0,"[0.14210880711761423,0.115969048339054]",100.0,"[-0.04823032802442658,-0.021480258571507496]",4.0,"[0.09168872682315825,0.13325553534185697]",100.0,"[-0.08307157411120128,0.14117927670130898]",4.0,"[-0.13392935588897306,-0.0000243056290557406]",100.0,"[0.08909572599586095,0.026114373638949015]",4.0,"[0.1090625800517851,-0.16309413648067048]",4.0,"[-0.05391486603072769,0.18131472473813437]",4.0,"[-0.03420220212536948,0.04818913058925144]",4.0,"[0.0201032515588824,-0.060671162360612575]",100.0,"[0.07671873177431214,-0.07133045643224141]",4.0,"[-0.18282048726890532,-0.022935117345439994]",100.0,"[0.17464150923520969,-0.08505531113187734]",4.0,"[0.030508498617885117,-0.1940182329590665]",100.0,"[0.04538376112939936,0.13328306625811928]",100.0,"[-0.1414679642939535,-0.0395265375088968]",100.0,"[0.009439389192587924,0.03404007540966377]",4.0,"[0.037396963960905215,0.1922192655683102]",100.0,"[0.17219660183572952,-0.03509805401397499]",100.0,"[0.15978605249375574,0.07399458851643569]",100.0,"[-0.03680184478915347,-0.1944919544415577]",100.0,"[-0.12608753537319148,0.14398181160077733]",4.0,"[-0.18010504243283434,0.08268399016452535]",100.0,"[-0.07827658114120342,0.0874811003780661]",4.0,"[0.08488398785113331,0.07330997810416989]",4.0,"[-0.10207028890745694,-0.06981118752282595]",4.0,"[-0.1340680573209274,0.10032735426303498]",100.0,"[0.007416460428931921,0.15485448357619902]",100.0,"[-0.005613544331574415,-0.10123349173214743]",4.0,"[0.1075372171532529,-0.11210327120806245]",100.0,"[-0.0961050783546217,0.03892892036168359]",100.0,"[0.02,0.02]",1233.508,0.0,8.0,8.0,84.0,1.0,,,,,,,
,,,,,,,5f70f2daea9a9f7076484982,6842bb028ad3b7fb1f2eb68a,2025-06-06_11h55.24.470,shape_ratio,2024.1.5,Win32,61.34969325,6842b561977af9ba9b0f87ca,,,,,,,,,,,1233.509,1234.007,,,1234.257,1234.691,right,0.428,,,,,,,,,0.5,,,,,,1234.007,1234.257,1234.691,"[0.07417026253002817,0.16686636094505522]",4.0,"[0.11623433539451314,-0.13618667604315396]",4.0,"[0.1586411302155703,0.07366617978131568]",4.0,"[0.0000062098583817412505,-0.08986777978145874]",4.0,"[0.15816235846630913,-0.1051993485754774]",4.0,"[0.032135314909551085,0.01157853326624029]",100.0,"[-0.17872202176399316,-0.02052673129376159]",4.0,"[-0.016434844185800664,0.12724067557400073]",100.0,"[0.15832589892626606,-0.01486596653063495]",4.0,"[-0.06726517821723757,-0.01500468837588268]",4.0,"[0.024847808874528584,0.09334255694753628]",100.0,"[-0.08295655981145529,0.06259127645154072]",100.0,"[-0.09360675736522345,0.1359016416194001]",4.0,"[0.09669869962088558,0.04540317660293005]",4.0,"[0.1427825812720912,-0.06747218147723438]",100.0,"[-0.1770569632634513,0.08110238287118812]",100.0,"[0.021404937576934818,-0.04962426999515689]",100.0,"[-0.145828750767872,-0.09758511469126835]",4.0,"[0.04177944067489041,-0.17387534312363637]",4.0,"[-0.03641249408161063,-0.15715293089640145]",100.0,"[0.08338426352315689,0.11717710231497966]",4.0,"[-0.0805176653368128,-0.07670839568032072]",100.0,"[0.041169205282290094,-0.1319721156040308]",100.0,"[-0.03841495817504437,-0.10987395962894811]",4.0,"[0.07044725261120827,-0.041105290068124946]",100.0,"[0.12774163292486654,0.11591872665730434]",100.0,"[-0.030718454431140105,-0.04141498192741828]",4.0,"[-0.10081660316371652,-0.13686744716159824]",4.0,"[-0.15433644843213348,-0.05263503406589667]",100.0,"[-0.05123742911298518,0.1635709805984472]",100.0,"[-0.007896901538639013,0.17297181278241847]",100.0,"[0.1870547325215556,0.024611042689835317]",100.0,"[0.02,0.02]",1235.791,0.0,9.0,9.0,113.0,1.0,,,,,,,
,,,,,,,5f70f2daea9a9f7076484982,6842bb028ad3b7fb1f2eb68a,2025-06-06_11h55.24.470,shape_ratio,2024.1.5,Win32,61.34969325,6842b561977af9ba9b0f87ca,,,,,,,,,,,1235.791,1236.29,,,1236.541,1237.557,left,0.998,,,,,,,,,0.1,,,,,,1236.29,1236.541,1237.557,"[-0.144711641251328,0.0822175936848829]",4.0,"[0.16246133096267748,-0.04166169042969857]",4.0,"[0.0924603117754546,0.17346032089704982]",4.0,"[-0.1089742297426793,-0.14839674765648447]",4.0,"[0.07852535357265675,-0.18010528084260552]",4.0,"[-0.16229029325778613,-0.039433636981820924]",4.0,"[0.04179160176850765,-0.03334777032740117]",4.0,"[0.02606498585306375,-0.12549785142417336]",4.0,"[-0.02155520329344628,0.16876598091046233]",4.0,"[0.0037807258427912066,0.05886850669707031]",4.0,"[-0.12324971953944688,0.020046339488782303]",4.0,"[-0.014547267377134165,-0.1263944204062027]",100.0,"[0.05140601175119186,-0.08566333805042103]",4.0,"[-0.01701922600463475,-0.013700646543774555]",4.0,"[-0.11037446325396066,-0.037784804047468125]",4.0,"[0.153811364161651,-0.09474039759238422]",100.0,"[0.07382260836012779,0.06297381674471694]",4.0,"[0.14210045471304247,0.133540044265382]",4.0,"[0.08459622582959601,0.10949646069187619]",4.0,"[-0.12550122717908363,0.15168966499891906]",4.0,"[-0.07323001063625403,0.05594713792663138]",4.0,"[-0.052801944566012504,-0.05509448130694775]",4.0,"[0.12119792035268322,-0.14365369869219588]",4.0,"[0.1292728321350681,0.014733925505619631]",4.0,"[0.12908231138403642,0.07542031322046441]",4.0,"[0.10587517610883286,-0.06870859089752879]",100.0,"[-0.07973057590066761,-0.0060466644026613775]",4.0,"[0.06347320285555266,0.14497483833864785]",4.0,"[-0.09145779396668047,0.1081169318004328]",4.0,"[0.014125637114141429,0.14834723963462806]",4.0,"[0.05238169975139478,0.01869106281422559]",4.0,"[-0.0068046269415689715,-0.18876305984687758]",4.0,"[0.02,0.02]",1238.656,0.0,10.0,10.0,194.0,1.0,,,,,,,
,,,,,,,5f70f2daea9a9f7076484982,6842bb028ad3b7fb1f2eb68a,2025-06-06_11h55.24.470,shape_ratio,2024.1.5,Win32,61.34969325,6842b561977af9ba9b0f87ca,,,,,,,,,,,1238.656,1239.155,,,1239.406,1239.806,right,0.394,,,,,,,,,0.9,,,,,,1239.155,1239.406,1239.806,"[-0.06559254257742089,-0.08560023990353544]",100.0,"[-0.14073406928389226,-0.1320505624473624]",100.0,"[-0.19076298566431144,-0.03818960988527908]",100.0,"[-0.01353476788618718,-0.17939838321978227]",100.0,"[-0.13228604939207322,-0.040107965144479]",100.0,"[-0.04920687560766761,0.003195837768793705]",100.0,"[0.10879110471120808,-0.15349532372739913]",100.0,"[0.13456086681819007,0.009608128259538294]",100.0,"[0.05840673729883342,-0.1420420942850432]",100.0,"[-0.07118075815024791,0.12409644569660847]",100.0,"[0.16731109524757348,0.07283274209062954]",100.0,"[-0.02908111853824691,0.11619760402564992]",100.0,"[-0.1197683839932896,0.09885931929762061]",100.0,"[0.013286626774583825,-0.044521817938018064]",100.0,"[0.021227604698659225,-0.08920334389007484]",4.0,"[-0.06596035388200662,0.04122541672428112]",4.0,"[0.062004816103219285,0.17010472093462353]",100.0,"[-0.14835431115204126,0.028130475525985035]",100.0,"[-0.18579050048417892,0.04586257211483288]",100.0,"[-0.05639755824366074,-0.1479915367350147]",100.0,"[0.17505167979596026,0.006714479552732238]",100.0,"[0.11620052177942476,0.07071101895665753]",100.0,"[0.015433916110096589,0.11149377166821482]",100.0,"[0.031013994229843748,0.039998707240929694]",100.0,"[-0.1796734413412045,-0.08191553800530232]",4.0,"[-0.003356746164692495,0.011245110215784384]",100.0,"[0.06570084090269679,-0.06448445639101004]",100.0,"[0.08944602534641444,-0.11181791162228175]",100.0,"[-0.103829874899389,0.01194090312137225]",100.0,"[-0.04946722167191158,-0.04847617241673431]",100.0,"[0.17064796437743185,-0.05671251602954393]",100.0,"[0.16420753687037665,-0.1050266868356297]",100.0,"[0.02,0.02]",1240.905,0.0,11.0,11.0,11.0,1.0,,,,,,,
,,,,,,,5f70f2daea9a9f7076484982,6842bb028ad3b7fb1f2eb68a,2025-06-06_11h55.24.470,shape_ratio,2024.1.5,Win32,61.34969325,6842b561977af9ba9b0f87ca,,,,,,,,,,,1240.905,1241.404,,,1241.656,1242.088,left,0.429,,,,,,,,,0.45,,,,,,1241.404,1241.656,1242.088,"[0.04011422162321582,0.002773485594944963]",4.0,"[-0.10191724027725825,-0.07671629325656056]",4.0,"[0.024070947103771622,0.13960255138416586]",4.0,"[0.13173686669258372,-0.10785711918143548]",100.0,"[-0.034634537195065575,0.08402206702239703]",100.0,"[0.008381185580442208,-0.1386644698191161]",100.0,"[-0.1619669884762386,-0.03671651992631485]",4.0,"[0.02391963520830881,0.05870702821287501]",100.0,"[0.17644465464044337,0.00655681540950503]",100.0,"[-0.029060527111629056,-0.10716955118213209]",4.0,"[0.06098223409706503,0.1726340890766048]",4.0,"[0.11093940838780837,0.013050088830779606]",4.0,"[0.142819570450867,-0.022533783995755487]",100.0,"[-0.006136100702932275,0.013455273333078178]",100.0,"[-0.07412371686640452,-0.029322476402087988]",100.0,"[-0.1428445400441072,0.06532156564383128]",4.0,"[0.047329031885179076,-0.11726229356915975]",100.0,"[0.1283215490224794,0.11579283066884578]",4.0,"[-0.09416964305725757,0.14920452428135134]",4.0,"[-0.11656396289626406,-0.002217737414654363]",100.0,"[0.0019196035434955318,-0.05589619220422586]",100.0,"[0.0718316714692637,0.1266701188577138]",100.0,"[-0.08628133609322436,0.09010721810643858]",4.0,"[-0.04748231294493525,0.01360771814448269]",4.0,"[-0.030312949921122736,-0.18122617280269457]",4.0,"[-0.09566443584343678,-0.17109906436767802]",4.0,"[-0.03874133272012309,0.16285125944803694]",4.0,"[-0.17560797278375873,0.014509191371761945]",100.0,"[0.007565109895506039,0.1018953797304376]",4.0,"[0.0781879892575847,-0.09170964491845987]",4.0,"[0.044177470149470724,-0.06252706641187893]",4.0,"[0.00750884689663334,0.19121145121528965]",100.0,"[0.02,0.02]",1243.187,0.0,12.0,12.0,146.0,1.0,,,,,,,
,,,,,,,5f70f2daea9a9f7076484982,6842bb028ad3b7fb1f2eb68a,2025-06-06_11h55.24.470,shape_ratio,2024.1.5,Win32,61.34969325,6842b561977af9ba9b0f87ca,,,,,,,,,,,1243.189,1243.688,,,1243.938,1244.337,right,0.384,,,,,,,,,0.45,,,,,,1243.688,1243.938,1244.337,"[0.15250161453760777,0.019508668071512664]",4.0,"[0.17233691795640455,0.08733835329404223]",4.0,"[-0.06206375686037849,-0.10713211346225648]",4.0,"[0.10966605088951956,-0.07750906445836649]",100.0,"[0.050262239662040825,-0.013837104379071546]",100.0,"[-0.11441707798151761,0.10950207675603858]",4.0,"[0.06484615358311734,0.1412672684390975]",100.0,"[0.01008313016241982,-0.043135621570316515]",4.0,"[0.025177638457602142,-0.18681138671333802]",4.0,"[-0.0874318225438705,0.16488255759356826]",4.0,"[0.1521623965324063,-0.11800437283184516]",4.0,"[0.03445107263914938,-0.0780290961129345]",100.0,"[-0.00911599446548408,0.006208775443927903]",100.0,"[0.11010880643105476,0.1625080724730214]",4.0,"[0.0844869930216522,-0.16520299680391765]",4.0,"[-0.08251462174491868,-0.17182298986756228]",4.0,"[-0.1454802547338647,-0.013279632847409623]",100.0,"[0.12877685141155812,0.10675480333997067]",4.0,"[-0.12498440153965934,0.049310043600506226]",100.0,"[0.0805994692908546,0.05039143182568351]",4.0,"[-0.1148074124388531,-0.06467783931869509]",4.0,"[-0.16726179834910676,-0.06969946143398026]",100.0,"[-0.05483087123575419,-0.019024489429641828]",100.0,"[0.021265094273227682,0.042920915661364474]",100.0,"[0.004622533611989865,0.11873917102819304]",4.0,"[-0.15630251777954848,-0.11764051914245705]",100.0,"[0.18176947852053266,-0.03897791484905514]",100.0,"[0.06450763379060141,-0.10532680925361444]",4.0,"[0.0017948209302764949,0.18403626177715357]",4.0,"[-0.06708773013140143,-0.06700339521946848]",100.0,"[-0.05620488332966009,0.09899144526326334]",100.0,"[0.041535207900630776,-0.14866786813435195]",4.0,"[0.02,0.02]",1245.437,0.0,13.0,13.0,122.0,1.0,,,,,,,
,,,,,,,5f70f2daea9a9f7076484982,6842bb028ad3b7fb1f2eb68a,2025-06-06_11h55.24.470,shape_ratio,2024.1.5,Win32,61.34969325,6842b561977af9ba9b0f87ca,,,,,,,,,,,1245.437,1245.937,,,1246.187,1246.486,left,0.285,,,,,,,,,0.45,,,,,,1245.937,1246.187,1246.486,"[-0.05070795367721529,-0.10214504990011475]",4.0,"[-0.06976596340621624,0.027125102251571106]",4.0,"[0.06993259754026243,-0.10795635322156745]",100.0,"[0.04886243020655708,0.10331656184392751]",4.0,"[0.052883831078750734,0.007921997501814696]",4.0,"[-0.17721962131246435,-0.09141707961196678]",100.0,"[0.02814714161237221,0.19569215197440099]",4.0,"[-0.08111282076793955,-0.13900418268770448]",4.0,"[-0.057313232146227966,0.10304569706770485]",100.0,"[-0.11143855464467192,0.1458069179099336]",4.0,"[0.08959200968230832,0.03704986864247704]",100.0,"[-0.08539065602189526,-0.048645644374841535]",100.0,"[0.16369618966298197,0.07775741610583684]",100.0,"[0.11820226144113948,-0.10185432669147672]",4.0,"[0.0764084043987698,0.13676607479920838]",100.0,"[0.16373223950899968,-0.06245616224787542]",4.0,"[-0.0012420873332478,0.004078951723466643]",4.0,"[-0.0006465894567334119,0.04708405823913345]",4.0,"[-0.16872111412881474,0.03472184460640124]",4.0,"[0.024495149200279048,-0.12491193784141096]",4.0,"[0.051560249457459226,-0.03539428660807556]",4.0,"[0.11694308232095973,-0.1608074147739302]",4.0,"[-0.09664780360204107,-0.09301303792670211]",100.0,"[-0.12560687036797993,-0.1554278180450517]",4.0,"[0.13031073767986795,0.02360634267193529]",100.0,"[0.006168666822906837,0.09867916021281947]",4.0,"[0.06547810154395697,-0.18722277944638063]",100.0,"[-0.1462210050480487,-0.009691823120172527]",4.0,"[-0.04712646980886384,-0.17977841368812844]",100.0,"[0.036380284834854996,-0.08086970764613825]",100.0,"[-0.10837452215616569,0.1015999517683188]",100.0,"[-0.021798601002026106,0.18046486652301746]",100.0,"[0.02,0.02]",1247.586,0.0,14.0,14.0,147.0,1.0,,,,,,,
,,,,,,,5f70f2daea9a9f7076484982,6842bb028ad3b7fb1f2eb68a,2025-06-06_11h55.24.470,shape_ratio,2024.1.5,Win32,61.34969325,6842b561977af9ba9b0f87ca,,,,,,,,,,,1247.587,1248.087,,,1248.337,1248.936,left,0.594,,,,,,,,,0.1,,,,,,1248.087,1248.337,1248.936,"[-0.07542064629954937,0.1292551612588375]",4.0,"[0.035085271355597754,-0.05006250036386544]",100.0,"[0.028614042160419316,-0.1665634372724239]",4.0,"[0.08358104649388427,-0.006612097210037894]",4.0,"[0.061401876659395185,-0.11105835237422226]",4.0,"[0.010335923623663899,0.052390985246398146]",4.0,"[-0.02328915957380582,-0.09900299260686811]",4.0,"[-0.07482433073765081,-0.15802368667550087]",4.0,"[0.10521407683525814,0.06785305460995163]",4.0,"[0.10612842231066935,0.15969801574483036]",4.0,"[0.16092881571367554,-0.04297648101837278]",4.0,"[-0.12428283041652119,0.14761891600994156]",4.0,"[0.02185231649981107,0.18985036233090022]",4.0,"[-0.16365591630951534,0.08213057990805456]",4.0,"[0.14920601223809152,-0.12138847927566924]",4.0,"[0.15921473873434078,0.05616354516336474]",4.0,"[-0.03515461685830359,0.1401611153250417]",4.0,"[-0.18067607492067855,-0.0015314614894026608]",4.0,"[-0.11733547349362959,-0.09029307699021585]",4.0,"[0.12419356391356258,-0.08086718067390199]",4.0,"[-0.10394305649580622,-0.031206792422616165]",4.0,"[-0.06784204575966983,0.08000883944387586]",4.0,"[0.0516854570717222,0.08654075631996658]",100.0,"[0.19261421829224923,-0.003234384567815194]",4.0,"[-0.10867850090316132,0.08312545911862732]",4.0,"[-0.022665663209014676,-0.034077725656065906]",100.0,"[-0.10244107296462622,0.019654144124163164]",4.0,"[0.14413762432107963,0.10444028500684208]",4.0,"[0.005238677987375305,-0.13077082726134856]",4.0,"[0.12149712506665239,-0.02277468629145031]",4.0,"[-0.051125568968611736,0.01738225037692746]",4.0,"[-0.03528505187636153,-0.14360470895317182]",4.0,"[0.02,0.02]",1250.036,0.0,15.0,15.0,195.0,1.0,,,,,,,
,,,,,,,5f70f2daea9a9f7076484982,6842bb028ad3b7fb1f2eb68a,2025-06-06_11h55.24.470,shape_ratio,2024.1.5,Win32,61.34969325,6842b561977af9ba9b0f87ca,,,,,,,,,,,1250.036,1250.535,,,1250.786,1251.334,left,0.534,,,,,,,,,0.1,,,,,,1250.535,1250.786,1251.335,"[-0.015139168241846065,-0.1534223510801174]",100.0,"[-0.14459594549844118,0.04547232830736457]",4.0,"[-0.06765866421665995,0.015100498210420213]",4.0,"[-0.18571414354903945,-0.02608890738743303]",4.0,"[-0.13326131914611497,-0.006844919504885621]",4.0,"[0.04122092584460151,-0.1042566987913337]",4.0,"[0.022771638754818448,0.1860162326923713]",4.0,"[0.00394571875981176,-0.022887263858546416]",4.0,"[0.0004977886578709777,-0.11456124100621468]",100.0,"[0.07984477527146058,0.17850247633092]",4.0,"[0.11955821733168868,-0.09408310376643175]",4.0,"[0.16704229653509103,0.09636907091741916]",4.0,"[0.08384678142481869,0.09016807592946341]",4.0,"[0.06700609250723714,-0.046252267630388366]",4.0,"[0.11212449358410878,-0.03132312820078582]",4.0,"[-0.14108972280056323,-0.1350294928431476]",4.0,"[0.19434172644126235,0.03617590369238129]",4.0,"[-0.01968838128923436,0.117626814821602]",4.0,"[0.12571710456254243,0.08566414409830264]",4.0,"[-0.12627352840222228,0.09276747665023469]",4.0,"[-0.004207474197616987,0.04313278338365749]",4.0,"[0.11114939916612393,0.020674727854480247]",4.0,"[-0.0762209081640511,0.18383983817828695]",4.0,"[0.011972939614908742,-0.19655858140835727]",100.0,"[-0.19312714428430194,0.026623329299110095]",4.0,"[0.08895696686912803,-0.14425179918019548]",4.0,"[-0.0657962345778304,-0.09754438514396582]",4.0,"[-0.04453135063003095,-0.18400164788903087]",4.0,"[-0.093535626974261,0.054553251230785464]",4.0,"[-0.024521771236386054,-0.08203865923468191]",4.0,"[0.18952602147249425,-0.03913697417020519]",4.0,"[-0.08326861160758853,0.10464920177022952]",4.0,"[0.02,0.02]",1252.435,0.0,16.0,16.0,198.0,1.0,,,,,,,
,,,,,,,5f70f2daea9a9f7076484982,6842bb028ad3b7fb1f2eb68a,2025-06-06_11h55.24.470,shape_ratio,2024.1.5,Win32,61.34969325,6842b561977af9ba9b0f87ca,,,,,,,,,,,1252.435,1252.935,,,1253.185,1253.518,right,0.324,,,,,,,,,0.9,,,,,,1252.935,1253.185,1253.518,"[-0.15668817418281886,-0.10791884630659858]",100.0,"[0.0054930872920825975,-0.061549856367493064]",100.0,"[0.09130583360846899,-0.14761896386426226]",100.0,"[0.07820557399452123,-0.10515349999403127]",100.0,"[0.06789588986875807,0.14461755038831878]",100.0,"[-0.17387921771445747,0.06209288115110575]",100.0,"[0.14141877751882556,0.08610655147036686]",100.0,"[-0.05621757811892553,0.17866862370328682]",100.0,"[0.12057886640854322,-0.01989757870074993]",100.0,"[-0.12991972898310156,-0.021051151055755273]",100.0,"[-0.10090510890083877,0.1725936496779044]",100.0,"[0.038807666337908796,0.03444786075903484]",100.0,"[0.022943370811211942,-0.14878825523595376]",100.0,"[0.06144349370214888,-0.02012694086619783]",100.0,"[-0.055176522867527375,-0.08178739847209002]",100.0,"[-0.030787472913635542,0.0046018465778483175]",100.0,"[0.1161338906183594,0.14650450712101434]",100.0,"[-0.049087376379237,-0.15007102725866378]",100.0,"[-0.08494101094117681,0.12480371454619311]",100.0,"[0.1664159237523281,-0.029332211609480414]",100.0,"[-0.02101403276138633,0.07811690036324877]",4.0,"[0.1449307943208886,0.019125346725199818]",100.0,"[-0.0034888831716430534,0.19872864477587082]",100.0,"[0.18324922079759146,0.06388589476101536]",100.0,"[0.12814948462037998,-0.07390804487888354]",4.0,"[0.13827493305272073,-0.1372834307399129]",100.0,"[0.08772308063678949,0.07497766548271106]",4.0,"[0.1881600978566206,-0.06667236214279412]",100.0,"[-0.11421351987564979,-0.094813668242731]",100.0,"[-0.1433479208189508,0.11772141423952975]",100.0,"[-0.1928615354474387,0.02453398647063446]",100.0,"[-0.08810926597665199,0.05162232795205237]",100.0,"[0.02,0.02]",1254.618,0.0,17.0,17.0,14.0,1.0,,,,,,,
,,,,,,,5f70f2daea9a9f7076484982,6842bb028ad3b7fb1f2eb68a,2025-06-06_11h55.24.470,shape_ratio,2024.1.5,Win32,61.34969325,6842b561977af9ba9b0f87ca,,,,,,,,,,,1254.618,1255.117,,,1255.367,1255.884,left,0.502,,,,,,,,,0.6,,,,,,1255.117,1255.367,1255.884,"[0.025662886418406583,-0.19023561871028427]",100.0,"[-0.0091250933291686,-0.0655165735980013]",100.0,"[0.08014595136883378,0.01984344869299971]",4.0,"[-0.07985264253222842,0.13687133891595557]",4.0,"[0.05292687769998776,-0.1384116803984697]",100.0,"[-0.03730084031270156,-0.1577102923545143]",4.0,"[-0.1486463526052974,-0.0975012020318513]",100.0,"[-0.006838613411557427,0.05261664455863923]",100.0,"[0.13455667423180226,0.10987387887955831]",4.0,"[-0.11144324825281364,0.0733418323813537]",100.0,"[0.02023335182894428,0.10299703069836738]",100.0,"[-0.0407127596468426,0.02202329007455715]",100.0,"[0.07555200859299477,-0.05063622068056046]",4.0,"[-0.08762486948256275,-0.09790704822890427]",100.0,"[0.13940901942259026,-0.05804029260807278]",4.0,"[-0.09799411735771238,0.03204380871861162]",4.0,"[0.185477562152885,0.01812319353682319]",4.0,"[-0.026562508380904824,0.10955474769412911]",4.0,"[0.053539722914514636,-0.014762435619199559]",100.0,"[0.05872269308390726,-0.09680783341584667]",4.0,"[0.06321951946927609,0.14377890302470925]",100.0,"[0.18537052709132715,-0.03437204046542253]",4.0,"[-0.0702067874617369,0.06437070824704132]",100.0,"[-0.1659007821591978,0.047903184351488194]",100.0,"[-0.03837435695502511,-0.036415965003053004]",100.0,"[0.05429744792139521,0.07593711411292786]",100.0,"[-0.19407614864899092,0.009194736968823284]",100.0,"[-0.016755501868362183,0.1819460836757979]",100.0,"[0.0010284974523139044,-0.11366441222896341]",100.0,"[-0.1310854292100053,-0.0004655650098652111]",100.0,"[0.006943770794612403,-0.010926732359461898]",4.0,"[-0.15156740923505585,0.11981425095220974]",4.0,"[0.02,0.02]",1256.983,0.0,18.0,18.0,49.0,1.0,,,,,,,
,,,,,,,5f70f2daea9a9f7076484982,6842bb028ad3b7fb1f2eb68a,2025-06-06_11h55.24.470,shape_ratio,2024.1.5,Win32,61.34969325,6842b561977af9ba9b0f87ca,,,,,,,,,,,1256.983,1257.483,,,1257.733,1258.099,right,0.351,,,,,,,,,0.6,,,,,,1257.483,1257.733,1258.099,"[-0.09532892962510515,-0.08345735563905315]",100.0,"[0.1591180237352457,0.09520266465450572]",100.0,"[0.09193968741912265,-0.1394742803950742]",100.0,"[-0.15193038974591905,-0.12937844552374383]",100.0,"[0.0916729061139845,-0.0037788345761656634]",4.0,"[-0.011324786864084025,0.027429924399202006]",100.0,"[-0.15192222092391883,0.04908144085983384]",100.0,"[-0.030638351753280706,0.18947768451472363]",100.0,"[0.08842499589907701,0.11409976962482109]",100.0,"[0.18177936784381354,-0.042883420248546515]",4.0,"[-0.10034023326215585,0.10625281957434866]",100.0,"[-0.03292013681500166,0.14134055574230348]",100.0,"[0.026222668011414818,0.07151987974328855]",100.0,"[-0.18774870883741196,-0.02658446121933894]",4.0,"[0.11992030907082006,-0.035523691231133636]",100.0,"[-0.1674474940091241,0.09323742937896073]",4.0,"[-0.10684748435712645,0.05493805015386692]",100.0,"[0.1414337335597649,0.038293820974069304]",4.0,"[-0.0427749095105972,-0.1495521236611561]",4.0,"[0.11944806145299587,0.15560748614725745]",4.0,"[-0.042282685590750206,0.09196584141307396]",4.0,"[-0.0638010939582216,-0.028012738494329184]",4.0,"[-0.14716872835273148,0.13515752583027602]",4.0,"[0.008902102718334,-0.07325306535144184]",4.0,"[-0.008072214263111343,-0.17166375046163773]",100.0,"[0.14688752418795964,-0.10823134329626609]",4.0,"[0.07836583355386076,0.0750764336344311]",100.0,"[-0.023634033582237066,-0.043162610536711166]",100.0,"[0.03569822047600513,0.1847878816407804]",4.0,"[0.09154902913189439,-0.08910942195801878]",100.0,"[-0.11921239895373627,-0.03213219482374279]",100.0,"[0.046684438764043844,-0.16881881247074185]",100.0,"[0.02,0.02]",1259.2,0.0,19.0,19.0,35.0,1.0,,,,,,,
,,,,,,,5f70f2daea9a9f7076484982,6842bb028ad3b7fb1f2eb68a,2025-06-06_11h55.24.470,shape_ratio,2024.1.5,Win32,61.34969325,6842b561977af9ba9b0f87ca,,,,,,,,,,,1259.202,1259.699,,,1259.949,1260.316,right,0.352,,,,,,,,,0.9,,,,,,1259.699,1259.949,1260.316,"[0.017814293709997004,0.18947908185539591]",100.0,"[0.054103255955342,-0.1557143814679973]",100.0,"[-0.17808649559660036,0.07310658631356456]",100.0,"[0.03398812666222952,0.14883679305283237]",4.0,"[-0.17888363548380917,-0.08458001362963435]",4.0,"[-0.02659665030236664,-0.18328578617456753]",100.0,"[0.10211653307027968,0.12155159794439013]",100.0,"[-0.19343132265637872,-0.009647340332664147]",100.0,"[-0.01502940307748403,0.020573894846740194]",100.0,"[-0.041339938381573696,0.18389239058337178]",100.0,"[-0.07526005462134844,0.009316674418863576]",4.0,"[-0.13885658216879426,-0.06573784604619838]",100.0,"[0.020364234119457838,0.049867195782211486]",100.0,"[0.12910053495433502,0.08143778554089989]",100.0,"[-0.07632677552477875,-0.15618024364641034]",100.0,"[-0.10506886733611466,0.04178817205178443]",100.0,"[0.15308086707413146,-0.0829600258640867]",100.0,"[0.07391583497114583,-0.08772502424548545]",100.0,"[0.08458179647529786,0.009661215691778564]",100.0,"[0.18219795147098194,-0.020086989245477506]",100.0,"[0.0308530863952714,-0.08743698513995934]",100.0,"[-0.02525721897619205,-0.09589639524769436]",100.0,"[-0.15332659503485366,0.021899515586246893]",100.0,"[-0.09177168797140928,0.14182991059490324]",100.0,"[0.10114743352616526,-0.037110278814362734]",100.0,"[0.06151167395236765,0.07495469321888962]",100.0,"[0.016127099119083447,0.09499406947195888]",100.0,"[-0.07555917193050149,0.07126923679561487]",100.0,"[-0.09384754398603905,-0.03305583068281388]",100.0,"[-0.12825598902171859,0.11100248216400972]",100.0,"[0.18104507319474933,0.07826921422306994]",100.0,"[-0.0670016907231319,-0.11125599217210888]",100.0,"[0.02,0.02]",1261.415,0.0,20.0,20.0,9.0,1.0,,,,,,,
,,,,,,,5f70f2daea9a9f7076484982,6842bb028ad3b7fb1f2eb68a,2025-06-06_11h55.24.470,shape_ratio,2024.1.5,Win32,61.34969325,6842b561977af9ba9b0f87ca,,,,,,,,,,,1261.415,1261.915,,,1262.165,1262.481,right,0.299,,,,,,,,,0.9,,,,,,1261.915,1262.165,1262.481,"[0.08152795272715856,0.0306059551697527]",100.0,"[-0.003922842577109668,0.17543162769396678]",100.0,"[0.029126761079869813,-0.03440570380477371]",100.0,"[-0.07756940476722038,-0.17338490077298827]",100.0,"[-0.061090949215475365,0.13892585996304108]",100.0,"[-0.1790807774498647,0.010133213671449265]",100.0,"[-0.09264518621651929,-0.039984653845838755]",100.0,"[0.008107461381224073,-0.09536898931291359]",100.0,"[-0.10709511602019149,0.03240658915588925]",100.0,"[0.18223978741445884,-0.016641314644778336]",100.0,"[0.05563053318260436,-0.12075494202263518]",100.0,"[-0.011627715248694782,0.025776428825004923]",100.0,"[-0.10528294153269857,0.09898617830442002]",100.0,"[0.14071550101273173,0.10333753146812616]",4.0,"[0.01581362040288662,0.1041140880520435]",4.0,"[0.07421449050955144,-0.0641454278205259]",4.0,"[0.1701240061062123,0.026616959961450495]",100.0,"[-0.13063606561211458,-0.013176660043608582]",100.0,"[0.12320631971440937,-0.08897459661302129]",100.0,"[-0.020148259117934633,0.12352155762642075]",100.0,"[-0.05372811997893714,-0.009883560875973417]",100.0,"[-0.1381269585046509,-0.13282959002443248]",100.0,"[0.15418521081746153,-0.11523089300812497]",100.0,"[0.11501821735234947,-0.1339372658717939]",100.0,"[0.04069493395351644,0.024844640021432024]",100.0,"[0.10992806940846682,0.06861168943964512]",100.0,"[0.059621235428228135,0.09141021823220673]",100.0,"[-0.014437014662732221,-0.057187474075029006]",100.0,"[-0.10234644444408852,0.15850262479897276]",100.0,"[0.12972224098125998,0.021694707104795072]",100.0,"[0.08048736468925521,0.17143408729684156]",100.0,"[-0.17248486426706994,-0.09849754038581136]",100.0,"[0.02,0.02]",1263.58,0.0,21.0,21.0,15.0,1.0,,,,,,,
,,,,,,,5f70f2daea9a9f7076484982,6842bb028ad3b7fb1f2eb68a,2025-06-06_11h55.24.470,shape_ratio,2024.1.5,Win32,61.34969325,6842b561977af9ba9b0f87ca,,,,,,,,,,,1263.581,1264.08,,,1264.33,1264.731,left,0.396,,,,,,,,,0.45,,,,,,1264.08,1264.33,1264.731,"[-0.02405989656487986,-0.08441645030953676]",100.0,"[-0.15547207060593146,0.046824462565622865]",4.0,"[-0.07708732555730358,0.06362737659072261]",4.0,"[0.016476881677583474,0.04013797558900519]",100.0,"[-0.024562682511904174,-0.12564239425304796]",100.0,"[0.04673108497346471,0.10289023195870335]",4.0,"[-0.02926347158262053,0.08098553349016728]",100.0,"[0.022976206397973434,-0.09634218094777323]",4.0,"[0.04425240320536559,-0.03312965190471749]",100.0,"[-0.18017944804393568,0.0011938517473381466]",4.0,"[0.10360343762031966,0.12438537998668826]",100.0,"[-0.09566017647334045,-0.013196733638386074]",4.0,"[0.08627647525261935,0.006545219166834041]",100.0,"[-0.09244369812254512,0.10636445669847304]",100.0,"[0.11361127201014984,0.06371812150834061]",4.0,"[0.04979513595965696,-0.16966882549322984]",100.0,"[-0.03551327890879105,0.018738956738549136]",100.0,"[0.004817539900002071,-0.18284260866904567]",100.0,"[0.09959972339139841,-0.15777655983537384]",4.0,"[-0.07930421531016286,-0.06021035348816032]",4.0,"[0.0861592117983199,-0.08357007865536926]",4.0,"[0.09263974813319525,0.16329733670007832]",4.0,"[0.16179712172952898,-0.09277403862021824]",4.0,"[-0.17024615804882215,-0.09821430299554529]",4.0,"[0.04980504860237214,0.14755730482278534]",4.0,"[-0.04472824094058429,-0.18539492763624071]",4.0,"[0.11076923218166508,-0.026711605962298532]",4.0,"[0.17505837996706491,0.07484240589204495]",100.0,"[0.16491001806637262,-0.021477563972912575]",100.0,"[-0.1210920240838855,0.15345202307662714]",4.0,"[-0.03306683816333617,-0.031313138861023604]",4.0,"[0.0057258100655033,0.1269357037921916]",100.0,"[0.02,0.02]",1265.83,0.0,22.0,22.0,145.0,1.0,,,,,,,
,,,,,,,5f70f2daea9a9f7076484982,6842bb028ad3b7fb1f2eb68a,2025-06-06_11h55.24.470,shape_ratio,2024.1.5,Win32,61.34969325,6842b561977af9ba9b0f87ca,,,,,,,,,,,1265.831,1266.33,,,1266.58,1266.962,right,0.376,,,,,,,,,0.5,,,,,,1266.33,1266.579,1266.962,"[0.03445175187393001,-0.07913844598362929]",100.0,"[0.011145158449693627,0.12933024370365528]",4.0,"[0.0753859548713425,-0.055109777955149535]",4.0,"[0.08779016770884096,0.17563097828917043]",4.0,"[-0.09242586492308318,-0.07192959244142735]",100.0,"[0.1429373863957018,-0.05896539396622274]",4.0,"[0.08099546774638443,0.06591434551676867]",100.0,"[-0.1526761875791696,0.036967055157759464]",4.0,"[0.13983486316316215,0.09113056613986105]",100.0,"[0.019164786953307943,0.17412802873585756]",4.0,"[-0.08958135875163374,0.0846181408810467]",4.0,"[-0.07015921532204387,-0.12649612001586935]",100.0,"[-0.1854345287942182,0.06905805228015743]",4.0,"[0.017901930558922457,-0.12788337157065555]",4.0,"[0.10401650896726526,-0.008570697012470235]",100.0,"[0.03369076815149027,0.0009999114763266123]",4.0,"[0.18273298271836125,-0.07584235017821868]",4.0,"[-0.06986404592402781,-0.18038788472361386]",4.0,"[0.18985702270540547,0.01282049746226164]",100.0,"[-0.047649756203717586,-0.01648501951738957]",100.0,"[0.000662398249625075,-0.03629106240597419]",100.0,"[0.1143938401855401,-0.14995284656048172]",100.0,"[-0.1342495194106061,-0.06582944884393349]",100.0,"[0.010841181046278799,0.034576421729417085]",100.0,"[-0.1811491243322041,-0.026204558319107514]",100.0,"[-0.0011208809119049629,-0.17359888717017918]",4.0,"[0.06118987030110076,0.11862057080254235]",4.0,"[-0.1935539512157672,0.013827789857848598]",100.0,"[-0.037003237355717325,-0.07648918311197675]",100.0,"[-0.05877718299720679,0.026942385667690933]",4.0,"[-0.1653007522805681,-0.10032877843573687]",4.0,"[0.07442652868435291,-0.17199568928568842]",100.0,"[0.02,0.02]",1268.063,0.0,23.0,23.0,109.0,1.0,,,,,,,
,,,,,,,5f70f2daea9a9f7076484982,6842bb028ad3b7fb1f2eb68a,2025-06-06_11h55.24.470,shape_ratio,2024.1.5,Win32,61.34969325,6842b561977af9ba9b0f87ca,,,,,,,,,,,1268.063,1268.563,,,1268.813,1269.146,left,0.317,,,,,,,,,0.4,,,,,,1268.563,1268.813,1269.146,"[0.003746465028629774,-0.048983464459654645]",100.0,"[0.05486834983802951,-0.1552140113810984]",100.0,"[0.03665209022895961,0.056189167430848924]",4.0,"[-0.09779142230237038,0.16666680173955448]",4.0,"[-0.15932484303720523,0.000013580880957820289]",4.0,"[-0.0715236347075682,-0.09248937082704911]",100.0,"[-0.1381194886212196,0.03504398882156367]",4.0,"[-0.10522528981975213,0.00951936485943931]",4.0,"[0.01191880084853223,0.16009643435889565]",100.0,"[0.09649047351775003,0.14363093206376062]",4.0,"[0.1032981219444494,0.05565593549235598]",100.0,"[0.07307013555841699,-0.10264564921494401]",4.0,"[-0.06641507235888691,0.06336975433884302]",4.0,"[0.14772117295865975,0.07908330297996245]",100.0,"[-0.12421642762233837,0.11032436955433862]",4.0,"[0.045834646247514196,-0.06801441190696875]",100.0,"[-0.12993847551878163,-0.09557667289074603]",4.0,"[0.11121474343575334,-0.06642701044300545]",100.0,"[0.11037413002647058,-0.009648817476895725]",100.0,"[-0.03805686302783006,0.15196931774517095]",4.0,"[0.03470347265522981,-0.1157810847929013]",4.0,"[0.15029230762165668,-0.030302318658197824]",100.0,"[0.06993915354890405,0.09770324769513578]",100.0,"[0.03189040588645043,-0.005902706227741776]",4.0,"[-0.09064949872030113,-0.0389337448375571]",4.0,"[-0.0773695622757093,0.11623727917822994]",100.0,"[-0.036378899422803736,0.01202155363151062]",100.0,"[-0.0146491710061399,-0.16091371584840264]",4.0,"[-0.17270080442474364,0.08804522140453297]",4.0,"[0.07151571428170304,0.18305017549945313]",4.0,"[0.1897184974749228,0.028174077493434795]",4.0,"[0.09429291110902686,-0.17570122294881318]",4.0,"[0.02,0.02]",1270.245,0.0,24.0,24.0,169.0,1.0,,,,,,,
,,,,,,,5f70f2daea9a9f7076484982,6842bb028ad3b7fb1f2eb68a,2025-06-06_11h55.24.470,shape_ratio,2024.1.5,Win32,61.34969325,6842b561977af9ba9b0f87ca,,,,,,,,,,,1270.245,1270.746,,,1270.995,1271.279,right,0.278,,,,,,,,,0.9,,,,,,1270.746,1270.995,1271.279,"[0.0014335636946155267,-0.1643621967310872]",100.0,"[-0.18415254214225352,-0.029901587280828347]",100.0,"[-0.04308765801057817,0.040454666516615376]",100.0,"[0.05066527926885108,0.03394207080973789]",100.0,"[0.05335025137435926,0.17188884434043297]",100.0,"[0.011669142227797876,0.059527012623025684]",100.0,"[-0.0766577196477356,-0.1039943335086859]",100.0,"[-0.04164977919118401,0.10461605355329494]",100.0,"[0.15925205331905232,0.0642443041157278]",100.0,"[-0.059511076625541,-0.17855954923361023]",100.0,"[-0.16332447585948864,0.07349549012247987]",100.0,"[0.0018142155044185888,-0.02352070680869893]",100.0,"[0.10066891459815207,0.047043587319163055]",100.0,"[0.1729994161807835,-0.09260472382045996]",100.0,"[-0.1072227636310838,0.024899688705080084]",100.0,"[-0.1783163095143193,0.026587404815163123]",4.0,"[0.03902862144211448,0.13090806202277228]",100.0,"[0.004855285670944426,-0.10580157633394754]",100.0,"[0.163675471109868,-0.003147032018388952]",100.0,"[-0.12296497174377119,0.06636677627169052]",100.0,"[0.19268517807419513,0.039173576180519656]",100.0,"[0.02870722348456878,-0.06889656931751495]",100.0,"[0.09520236266601723,0.15261685721768636]",100.0,"[-0.06426142223498402,-0.027246195677995126]",100.0,"[-0.12219642375242555,-0.05346111706540621]",100.0,"[0.1306624231047505,0.11472654771606622]",100.0,"[-0.05725609782954984,0.178205344735988]",4.0,"[0.11285698081252023,-0.04474317003854024]",100.0,"[0.11119793731998537,-0.12465958815858799]",100.0,"[0.002208056482952785,0.18922539447465828]",4.0,"[-0.08570615263497663,0.11737750644644021]",100.0,"[-0.1458731211155931,-0.08697606726377764]",100.0,"[0.02,0.02]",1272.377,0.0,25.0,25.0,25.0,1.0,,,,,,,
,,,,,,,5f70f2daea9a9f7076484982,6842bb028ad3b7fb1f2eb68a,2025-06-06_11h55.24.470,shape_ratio,2024.1.5,Win32,61.34969325,6842b561977af9ba9b0f87ca,,,,,,,,,,,1272.378,1272.878,,,1273.127,1273.544,left,0.4,,,,,,,,,0.4,,,,,,1272.878,1273.127,1273.544,"[-0.004528633422582767,-0.11799182381670308]",100.0,"[-0.040622729545892286,-0.0657577374070891]",4.0,"[0.1049521558795552,-0.15602869062479172]",4.0,"[0.1593569672601098,0.061603223735925354]",100.0,"[0.07840544247628205,-0.05728334854298052]",100.0,"[0.09645699035787167,0.027369284654916236]",4.0,"[-0.03254560059265035,0.16473965342203262]",4.0,"[-0.13344136305491516,-0.03383696041888964]",100.0,"[-0.14296938440013576,0.020980815677269195]",100.0,"[-0.012357670450882539,-0.003761701628121948]",4.0,"[0.07629309411632233,-0.015907037606766157]",100.0,"[0.07093646379069667,0.14898918287795576]",100.0,"[-0.17447972112139096,-0.03389650683508847]",4.0,"[0.07856154146878058,-0.109685566233389]",4.0,"[-0.06669331894816286,-0.11752308938189243]",4.0,"[0.11975604285168413,-0.009136885768970362]",4.0,"[0.0694575912547315,0.08764513933053136]",4.0,"[0.006751361488150105,0.10905933667573951]",4.0,"[0.14532835440481232,-0.06873502287363092]",4.0,"[-0.09922483666697418,-0.15855363720835686]",100.0,"[-0.07378768440659933,0.029488362363940566]",4.0,"[0.05756836684728903,0.04636501912752717]",4.0,"[-0.12545160299587835,0.08552152756841437]",4.0,"[-0.07903999058587491,0.14897091267251317]",4.0,"[-0.16550225950718553,0.0700381613635863]",100.0,"[0.1859863782236192,-0.03945334826479208]",4.0,"[0.11236975232900526,0.16027488815193022]",100.0,"[0.16594346171499402,0.017288231397173108]",4.0,"[-0.021405353582016545,0.06238694155257707]",100.0,"[-0.15873793930755922,-0.11471304057444837]",100.0,"[-0.070062142860051,0.09870294637922174]",100.0,"[-0.19781792216755537,0.02306463403221704]",4.0,"[0.02,0.02]",1274.643,0.0,26.0,26.0,163.0,1.0,,,,,,,
,,,,,,,5f70f2daea9a9f7076484982,6842bb028ad3b7fb1f2eb68a,2025-06-06_11h55.24.470,shape_ratio,2024.1.5,Win32,61.34969325,6842b561977af9ba9b0f87ca,,,,,,,,,,,1274.644,1275.144,,,1275.394,1275.843,right,0.433,,,,,,,,,0.5,,,,,,1275.144,1275.394,1275.844,"[-0.1591499020629637,-0.024737193069404608]",100.0,"[0.07184757510846325,0.12974800040894133]",4.0,"[-0.16607590858205468,0.05351336891920907]",4.0,"[0.19564624310172007,0.0252299995231935]",4.0,"[0.15045753968247114,-0.07205950844718641]",4.0,"[-0.1459849983508287,-0.1354384495086684]",4.0,"[0.17068902270049494,0.06169608952820798]",4.0,"[-0.06935989980093174,0.14143386726014712]",100.0,"[-0.057199054681639355,0.0996769645982531]",4.0,"[-0.07496869256888841,-0.05166673217927143]",4.0,"[0.03978475969129508,0.0883448735054932]",100.0,"[0.12521552452950738,0.10272585560314314]",100.0,"[0.0276159985447808,-0.06283652895868914]",100.0,"[-0.07185436122440383,-0.10890899318746007]",100.0,"[0.1002358171478557,-0.12266804258644212]",100.0,"[-0.081474914221799,-0.18129272413074946]",4.0,"[0.0820624955243788,-0.06020346994305767]",4.0,"[-0.03365742283796836,-0.13100999437223518]",4.0,"[-0.13919241685966083,0.13079911033402547]",100.0,"[-0.06243401066970946,-0.005731857790682411]",100.0,"[-0.11670029545274355,-0.07413172132880688]",4.0,"[-0.07063835335696438,0.18685229789972627]",4.0,"[0.059167714774160544,0.03688945607175879]",100.0,"[0.012129316015831164,0.013332359784920537]",4.0,"[-0.07920677997446363,0.04661178105892352]",100.0,"[0.06692204808072746,-0.17025649424695719]",100.0,"[0.010731595785071395,0.05365048154964729]",4.0,"[-0.02034853339630421,-0.19594085330252997]",100.0,"[-0.11965037921091266,0.006377812870238638]",100.0,"[0.029093828050982245,0.1587546790080588]",100.0,"[0.08331065061215027,-0.0015109591119387155]",100.0,"[0.13105565927561202,0.05413819455346517]",4.0,"[0.02,0.02]",1276.943,0.0,27.0,27.0,119.0,1.0,,,,,,,
,,,,,,,5f70f2daea9a9f7076484982,6842bb028ad3b7fb1f2eb68a,2025-06-06_11h55.24.470,shape_ratio,2024.1.5,Win32,61.34969325,6842b561977af9ba9b0f87ca,,,,,,,,,,,1276.944,1277.443,,,1277.693,1278.109,right,0.401,,,,,,,,,0.5,,,,,,1277.443,1277.693,1278.109,"[-0.02922778878223112,-0.12038051247576771]",100.0,"[-0.0019786263214211283,0.13564740983215623]",4.0,"[0.0035744644233000546,-0.008285704184893453]",100.0,"[0.16063478100410067,0.001175631485821725]",100.0,"[-0.11340552373154007,-0.07305001892734914]",4.0,"[0.0962864031971,0.07661966766261713]",100.0,"[-0.17540850311110315,-0.0435169786586562]",4.0,"[0.09306909899215068,-0.005898411930638889]",4.0,"[0.12209270845771258,-0.04908665626060537]",100.0,"[-0.06180890468913359,-0.18962388890663226]",100.0,"[0.07862800766161661,-0.13981909240191087]",100.0,"[-0.046230631571622216,0.1490056374666432]",4.0,"[-0.12952057885458657,-0.02922875430734521]",4.0,"[-0.027732314667788714,0.08179895785772506]",100.0,"[-0.016530415751072218,-0.06336527251483365]",100.0,"[-0.1131008455749413,0.151769791787405]",4.0,"[0.019755139254507004,0.07381960503591034]",4.0,"[0.08474245400258157,0.17318885401490872]",4.0,"[0.14155528879586746,0.10558322821875124]",4.0,"[-0.1691606067249112,-0.0975834181629927]",100.0,"[-0.10008007634025876,0.014782307214592977]",4.0,"[0.16026289618420314,-0.11675971642558243]",100.0,"[0.006848220044301259,-0.16813150637527208]",100.0,"[-0.1432439219934707,0.06463896929023581]",100.0,"[-0.1851583056304772,0.06576961321690454]",100.0,"[-0.14254537049138327,0.12122476150476574]",4.0,"[0.05708173266926048,0.12680654804123193]",4.0,"[0.07654601132872842,-0.09668544244262352]",100.0,"[-0.04477987089196311,0.020645282314090126]",100.0,"[-0.06812719706640774,-0.10654947109621499]",4.0,"[0.12321907400812974,0.04632810997908715]",4.0,"[0.17464229945552381,0.06615992344867593]",4.0,"[0.02,0.02]",1279.209,0.0,28.0,28.0,92.0,1.0,,,,,,,
,,,,,,,5f70f2daea9a9f7076484982,6842bb028ad3b7fb1f2eb68a,2025-06-06_11h55.24.470,shape_ratio,2024.1.5,Win32,61.34969325,6842b561977af9ba9b0f87ca,,,,,,,,,,,1279.209,1279.708,,,1279.959,1280.475,right,0.507,,,,,,,,,0.6,,,,,,1279.708,1279.959,1280.475,"[-0.046655663659625805,-0.06302569437293477]",100.0,"[-0.031124836844292885,-0.0020678390189531534]",100.0,"[0.1392202782443571,-0.0546004579553027]",100.0,"[-0.1206469563751024,-0.02289394805037087]",100.0,"[0.08224131618619937,-0.12235215835428576]",100.0,"[-0.027222113618800323,-0.11106988280959228]",4.0,"[0.02104148384006065,-0.18438189158215126]",4.0,"[-0.16333220962037054,0.0681208051676019]",100.0,"[0.005423504130489642,0.1267863034056832]",100.0,"[0.0956734617022884,0.041714683517090345]",100.0,"[-0.0962935834369735,-0.15102550327934094]",100.0,"[-0.11483677033674428,0.09757435137751817]",100.0,"[-0.151640129209835,-0.09109518222650463]",4.0,"[0.04183799487977636,-0.1411811746915586]",100.0,"[0.0010810241967173888,0.1710457167591622]",100.0,"[-0.12968238505805743,0.017400617554958236]",4.0,"[0.010821209488432909,0.04190773958647232]",4.0,"[-0.0752201343581182,0.07833135120828683]",100.0,"[0.13323466204239684,0.005937423440910065]",4.0,"[-0.08043821471707578,0.1790677161873346]",100.0,"[0.06773111278797679,-0.027788893809979003]",4.0,"[0.06280885177768959,-0.17534755436840874]",100.0,"[-0.08092163730432472,-0.008438130327883687]",4.0,"[0.08919228174444514,0.16291488780475522]",4.0,"[-0.002664864452360432,-0.04833456540606994]",100.0,"[0.0617844327211096,0.12420829473693558]",4.0,"[-0.07477577413058283,-0.11420596900513157]",4.0,"[-0.08290779861123605,0.1223585403745622]",4.0,"[-0.037280334902380495,0.12674918932270904]",100.0,"[0.13957961749687323,0.059341395707058944]",100.0,"[0.12396674098675384,-0.11422119775584193]",100.0,"[0.18283746965197561,-0.0789405338335925]",4.0,"[0.02,0.02]",1281.575,0.0,29.0,29.0,51.0,1.0,,,,,,,
,,,,,,,5f70f2daea9a9f7076484982,6842bb028ad3b7fb1f2eb68a,2025-06-06_11h55.24.470,shape_ratio,2024.1.5,Win32,61.34969325,6842b561977af9ba9b0f87ca,,,,,,,,,,,1281.575,1282.074,,,1282.325,1282.708,left,0.368,,,,,,,,,0.45,,,,,,1282.074,1282.325,1282.708,"[-0.13227182996158116,-0.06721740367113323]",100.0,"[0.0803643922882682,-0.03273564557907284]",100.0,"[-0.001311297058780664,0.1226120703713428]",100.0,"[-0.014262915590952262,-0.09140452381085977]",4.0,"[0.16181780362416037,0.027815798057946997]",4.0,"[-0.08403173135415799,0.09988492142198935]",100.0,"[-0.1648400346862078,-0.022611155844318435]",100.0,"[0.04609002908454742,0.1733827068600941]",4.0,"[-0.1531165340579165,0.045265790944051754]",4.0,"[-0.006216239664476805,0.0720881740705669]",4.0,"[-0.15117132460689592,-0.1090227578320308]",100.0,"[0.03194408380842787,-0.047286071300422845]",100.0,"[-0.06228533337968203,0.13638605781259946]",4.0,"[0.09650684327204619,0.12431714123364886]",4.0,"[0.0013255275177877389,-0.18182867601090127]",100.0,"[-0.144180803377717,0.09679018873424]",4.0,"[-0.08376101836736786,0.03930983225047558]",4.0,"[0.06727529581229148,0.0362224293120017]",4.0,"[0.08151224208382225,-0.11738944738203191]",4.0,"[0.1678908178670113,-0.04406909666768739]",4.0,"[-0.030928604085392688,0.00001098162659612056]",4.0,"[0.13223497080841368,0.08360227387021905]",100.0,"[-0.07732299879461245,-0.06560168742593506]",100.0,"[-0.009850317024587368,0.17541795760243276]",100.0,"[0.025852810944164167,0.04103178111051615]",4.0,"[0.07007733087404437,-0.1869908202399614]",4.0,"[0.18105103435121891,0.06659833714849099]",100.0,"[0.1148850128616342,-0.08821630606566241]",100.0,"[0.11980927952076244,-0.014886547546086698]",4.0,"[-0.03536535404633854,-0.15620645593480692]",4.0,"[0.03365599538676278,-0.1558952601364054]",100.0,"[-0.10459206023482587,-0.11851749072341707]",4.0,"[0.02,0.02]",1283.807,0.0,30.0,30.0,130.0,1.0,,,,,,,
,,,,,,,5f70f2daea9a9f7076484982,6842bb028ad3b7fb1f2eb68a,2025-06-06_11h55.24.470,shape_ratio,2024.1.5,Win32,61.34969325,6842b561977af9ba9b0f87ca,,,,,,,,,,,1283.808,1284.307,,,1284.557,1284.973,right,0.4,,,,,,,,,0.4,,,,,,1284.307,1284.557,1284.973,"[-0.0702790274053921,-0.06409485127957366]",100.0,"[-0.03149915324072003,-0.03870694659155319]",4.0,"[0.13085247255971788,0.017505622882117836]",4.0,"[-0.17203928892971712,0.04652200481326598]",4.0,"[0.048266518682241404,-0.0767791957071045]",4.0,"[-0.04137885973632645,-0.14676276655441114]",4.0,"[-0.17239681550319574,0.09493552958200645]",4.0,"[0.04949104621604537,0.12653339180278184]",4.0,"[0.0453681842864264,0.027418939146387242]",4.0,"[0.09793378108962705,-0.10032626699654808]",4.0,"[-0.1224736877846082,0.10588221453697153]",4.0,"[0.1628304740159979,-0.09139155316976706]",100.0,"[0.10739123936795114,-0.16154743003949412]",100.0,"[-0.016340880983729045,0.1656704312525212]",4.0,"[-0.037697620815466654,0.012108737818262456]",100.0,"[-0.021768173127445063,-0.0799018858350698]",100.0,"[-0.12363019928804862,-0.11462261445847058]",4.0,"[-0.17943977087528257,-0.0020277198231027967]",100.0,"[0.0618074656512586,0.18088254613377136]",4.0,"[0.19407094598426047,-0.04801669002615492]",4.0,"[0.14820522577475814,0.13417740430026326]",100.0,"[-0.06904823893128775,0.07324373205466378]",100.0,"[-0.12893854691458223,-0.009222509832553426]",4.0,"[0.08628031102038435,0.09539366098019599]",100.0,"[-0.08911939927698298,0.15779487893163383]",100.0,"[-0.11725932684758687,0.04864764806476174]",4.0,"[-0.008581170210726111,0.10636575895399404]",4.0,"[0.1424253450031928,0.07220896808241359]",100.0,"[0.12499767796942478,-0.0569156915670968]",100.0,"[0.08430764977673458,-0.03126150717289052]",100.0,"[0.053904442866005584,-0.14571563643270935]",4.0,"[-0.10091517220888115,-0.15674434510206092]",4.0,"[0.02,0.02]",1286.073,0.0,31.0,31.0,159.0,1.0,,,,,,,
,,,,,,,5f70f2daea9a9f7076484982,6842bb028ad3b7fb1f2eb68a,2025-06-06_11h55.24.470,shape_ratio,2024.1.5,Win32,61.34969325,6842b561977af9ba9b0f87ca,,,,,,,,,,,1286.073,1286.573,,,1286.823,1287.139,left,0.311,,,,,,,,,0.1,,,,,,1286.573,1286.823,1287.14,"[0.13174280863994056,0.06231981959104231]",4.0,"[-0.05457340258410389,0.15102844971864787]",4.0,"[0.011062144261506845,0.030489421408374642]",4.0,"[-0.04081042175268156,-0.1474467749110066]",4.0,"[0.0847929767573401,-0.16899275864143792]",4.0,"[-0.14459778117536978,-0.014478656953411823]",4.0,"[0.13195552227872678,-0.023475241330698865]",4.0,"[0.05517633993122973,-0.025991033522558854]",4.0,"[-0.14609191813891156,0.13305017099836833]",4.0,"[-0.012082987079202565,-0.09106410665847386]",4.0,"[-0.09351662399912994,0.1326416034169681]",4.0,"[-0.13389771507704248,-0.08409245165928937]",4.0,"[-0.05557891647495652,0.053442577287599005]",4.0,"[0.0022544139697902696,-0.17863641371321892]",100.0,"[-0.08393541641509886,-0.11288752949732024]",4.0,"[-0.1421172354395994,0.07448302988893915]",4.0,"[-0.005310732751440819,0.09300447557514667]",4.0,"[0.10475621127266313,0.15781750474139375]",4.0,"[0.0340543164033412,0.1778414851915916]",4.0,"[-0.06977607239394201,-0.03561459099500513]",4.0,"[0.06966490956573625,0.11110083468997548]",100.0,"[0.06458234107744043,0.060221032548515324]",4.0,"[0.1512381137822099,-0.0775045384102258]",4.0,"[0.08256160534477826,0.018940503591817957]",4.0,"[-0.002987786173617428,-0.022657198773891836]",4.0,"[0.12005725912760598,0.1158254304768494]",4.0,"[-0.10867199846408221,-0.1551908392873931]",100.0,"[-0.0725647956714486,-0.1744522093954954]",4.0,"[0.19473393110857432,0.030797822276339565]",4.0,"[-0.10592748303764377,0.03679879671051082]",4.0,"[0.029030305905909482,-0.12959133702240397]",4.0,"[-0.17671522180657256,0.036054208112154845]",4.0,"[0.02,0.02]",1288.24,0.0,32.0,32.0,189.0,1.0,,,,,,,
,,,,,,,5f70f2daea9a9f7076484982,6842bb028ad3b7fb1f2eb68a,2025-06-06_11h55.24.470,shape_ratio,2024.1.5,Win32,61.34969325,6842b561977af9ba9b0f87ca,,,,,,,,,,,1288.24,1288.739,,,1288.989,1289.272,right,0.274,,,,,,,,,0.9,,,,,,1288.739,1288.989,1289.272,"[0.05652299733366957,-0.029375271658784514]",100.0,"[-0.17185283444683327,-0.07301842413384915]",100.0,"[-0.11679926485851833,0.03727459692541725]",100.0,"[-0.09952981656022676,-0.10186297768618316]",100.0,"[-0.004242205546341701,0.12167941435051437]",100.0,"[-0.05198078526684049,0.06481806005860363]",4.0,"[-0.11427013877070527,-0.01867774813234119]",100.0,"[0.13292677873500164,-0.07346125798048257]",100.0,"[0.1397429720953926,-0.1421744352272691]",100.0,"[0.046835875426107,-0.07767134816404012]",100.0,"[-0.12258968609823317,0.10039906655232762]",100.0,"[0.1442380199752366,0.10403424410061966]",100.0,"[0.08800404542721861,0.03327884396457756]",100.0,"[-0.06734247148136695,0.004929218816941676]",100.0,"[0.003636929066830345,-0.058905759226162924]",100.0,"[-0.06774781744203691,-0.17267279993965406]",100.0,"[0.03860217548758308,0.10518802732206417]",100.0,"[0.0007713689681142942,-0.16887295247756956]",100.0,"[-0.046692369882316884,0.15498016895255085]",100.0,"[0.0377432067278013,0.1761338075038944]",4.0,"[0.011825228163564266,-0.014197189981033526]",100.0,"[-0.12107870875890388,-0.13591560790550958]",4.0,"[-0.171537507530647,0.04491612922108085]",100.0,"[0.06767782020657849,-0.15408032912359268]",100.0,"[0.09149469406440415,-0.08945019316875337]",100.0,"[-0.001732338992346907,-0.10102047231094426]",100.0,"[-0.034180020137603184,-0.022388921978119633]",100.0,"[-0.06986824184820856,-0.055186651449740776]",100.0,"[0.18099223655226473,0.014398755750252288]",100.0,"[0.17788405257042755,-0.08047977992372808]",100.0,"[0.17831271568534124,-0.03934547079306725]",100.0,"[0.1387196838695492,0.02373191313562783]",100.0,"[0.02,0.02]",1290.372,0.0,33.0,33.0,29.0,1.0,,,,,,,
,,,,,,,5f70f2daea9a9f7076484982,6842bb028ad3b7fb1f2eb68a,2025-06-06_11h55.24.470,shape_ratio,2024.1.5,Win32,61.34969325,6842b561977af9ba9b0f87ca,,,,,,,,,,,1290.373,1290.872,,,1291.121,1291.521,left,0.384,,,,,,,,,0.6,,,,,,1290.872,1291.121,1291.521,"[-0.09289324578140094,0.16070197413749293]",4.0,"[-0.06205369916976564,0.0181975922835941]",4.0,"[-0.039551083747879134,0.12174676316267978]",4.0,"[0.049337165121118805,-0.1529812770421833]",100.0,"[-0.025371326121783624,0.1917698532114463]",100.0,"[0.10346238543771596,0.010968552937773619]",100.0,"[0.0810406499358818,-0.10868603415012999]",4.0,"[0.03283591071748946,0.07706180306735756]",100.0,"[-0.14968525746650732,0.03533631930508674]",4.0,"[0.17042179440562055,0.0823218556434769]",100.0,"[-0.1479508640601439,-0.12231320094016734]",100.0,"[-0.014395963311189829,-0.042176061020347044]",100.0,"[-0.1140127544535011,0.009903837134318435]",100.0,"[-0.005044509249771496,-0.09105766135548347]",100.0,"[-0.049840103475488395,-0.09669758042218002]",100.0,"[-0.1583309152758669,-0.08276221660135281]",4.0,"[0.14792246911232632,-0.07315520519546143]",100.0,"[0.02083080397950404,0.1314512765786416]",100.0,"[-0.03989253629168493,-0.17852853728773477]",100.0,"[0.11653104322808872,-0.13835477404535707]",100.0,"[0.1543058576476186,0.02372604956886032]",4.0,"[0.007904880827405628,0.04124295922973934]",100.0,"[-0.08265609869647268,0.05920721281485757]",100.0,"[0.06154344582142851,-0.03328787485733006]",4.0,"[-0.10427534945342964,-0.03639177326799317]",4.0,"[-0.011377203106697266,0.07998114938298431]",100.0,"[-0.13151055978484266,0.07847705956485883]",4.0,"[0.11529182676907591,0.14396472017559195]",100.0,"[-0.17962753462601055,0.08062488617042622]",4.0,"[-0.16350416793654216,-0.04215548621495227]",4.0,"[0.06247926262154571,0.13439226258544623]",100.0,"[-0.07067443405754857,-0.13272140106768068]",4.0,"[0.02,0.02]",1292.621,0.0,34.0,34.0,56.0,1.0,,,,,,,
,,,,,,,5f70f2daea9a9f7076484982,6842bb028ad3b7fb1f2eb68a,2025-06-06_11h55.24.470,shape_ratio,2024.1.5,Win32,61.34969325,6842b561977af9ba9b0f87ca,,,,,,,,,,,1292.624,1293.12,,,1293.371,1293.937,right,0.56,,,,,,,,,0.1,,,,,,1293.121,1293.371,1293.937,"[0.03303172640007895,-0.11798964716124444]",4.0,"[-0.08358252083517835,-0.015488395342557556]",4.0,"[0.09361982537534014,-0.06424581092270891]",4.0,"[-0.01860616356739641,0.031618665193995525]",100.0,"[0.07923046024531262,-0.15244457002918627]",4.0,"[-0.054876738492572595,-0.0934234840189055]",4.0,"[0.15907572932595496,0.11559287131372827]",4.0,"[0.11432916560152348,-0.12974295358302662]",100.0,"[-0.06832772083917778,0.14923041324149278]",4.0,"[0.13864847392834048,0.0443215339897536]",4.0,"[-0.1295503454291677,0.027917162876220588]",4.0,"[0.05378489724585516,0.08930313859121762]",4.0,"[-0.13270399070700292,0.11279651347645026]",4.0,"[0.009302862357479921,-0.03873181677972097]",100.0,"[-0.009072389267325164,-0.1680863077573925]",4.0,"[0.04504864604352672,-0.06732505580830411]",4.0,"[-0.18496070622159722,-0.06164745410019854]",4.0,"[0.12095631095912002,0.1421203470792675]",4.0,"[0.1773723923873376,0.028246110958969887]",4.0,"[0.1477113940973334,-0.10128207570753371]",4.0,"[0.10232456259881298,0.015341943180850932]",4.0,"[-0.1022466237742243,-0.0959185731856361]",4.0,"[-0.09169942012578837,0.07961865063295606]",4.0,"[0.11995793779058886,0.10052489363653767]",4.0,"[0.028566832814631158,0.19624026492158278]",4.0,"[-0.06408336430752269,-0.1750088050769325]",4.0,"[-0.18552493606461382,-0.007678898618251439]",4.0,"[-0.12887657534196978,-0.14729022582284987]",4.0,"[0.0384511887582827,-0.1931611253667235]",4.0,"[-0.015515764976143561,-0.07618589785391072]",4.0,"[0.03861366566415408,0.14014296359973197]",4.0,"[-0.12479723492205722,-0.013949959476540324]",4.0,"[0.02,0.02]",1295.036,0.0,35.0,35.0,209.0,1.0,,,,,,,
,,,,,,,5f70f2daea9a9f7076484982,6842bb028ad3b7fb1f2eb68a,2025-06-06_11h55.24.470,shape_ratio,2024.1.5,Win32,61.34969325,6842b561977af9ba9b0f87ca,,,,,,,,,,,1295.037,1295.537,,,1295.787,1296.469,left,0.676,,,,,,,,,0.45,,,,,,1295.537,1295.787,1296.469,"[-0.03451887662644486,-0.026820258840499798]",4.0,"[-0.08676793239008737,-0.0212012373592247]",100.0,"[0.15260334633343767,-0.05088919639017729]",100.0,"[0.0624322426617252,0.010181763346987772]",4.0,"[-0.06930085827724483,-0.10028871022012932]",4.0,"[0.031854935912413444,0.0943315161013853]",4.0,"[0.050195852816254126,-0.05495205379334644]",4.0,"[-0.17085316685993002,-0.09085335372199055]",4.0,"[-0.19418649606307387,0.046254056423406804]",4.0,"[-0.09214110950551481,0.029844502145001676]",100.0,"[0.005984209762549144,0.009252740854203618]",100.0,"[-0.04254363039508417,-0.1838704000444376]",4.0,"[0.0559265873803131,-0.189507391768778]",100.0,"[-0.1881740318057703,-0.023036783263318275]",4.0,"[0.12128159627830751,0.1415641920359604]",100.0,"[-0.14014313752233346,-0.00842239080362935]",4.0,"[0.10415990618083282,-0.05885203486424894]",100.0,"[0.10365679264345438,0.060097425449247885]",4.0,"[-0.005944734740137703,-0.08759852300978722]",4.0,"[0.06557311781857018,0.17620566352503514]",100.0,"[-0.09341086308620417,0.14365771300254343]",4.0,"[0.01326849930035089,0.18205299031963926]",100.0,"[0.16165679753739484,-0.008200221111861155]",100.0,"[0.11576761143851398,-0.003022510609759982]",4.0,"[0.018558007992736852,-0.11976022803408425]",4.0,"[-0.16305678419849937,0.0772946823524621]",100.0,"[0.06906383777722665,-0.12956676143960055]",4.0,"[0.14872894285577481,-0.09166054631208048]",100.0,"[-0.0999178066601966,-0.1688341638102511]",4.0,"[0.18436842063471046,0.045373104584141656]",4.0,"[-0.04501760333703294,0.16449521266352538]",100.0,"[-0.020725533589723767,0.04521084323349111]",100.0,"[0.02,0.02]",1297.569,0.0,36.0,36.0,140.0,1.0,,,,,,,
,,,,,,,5f70f2daea9a9f7076484982,6842bb028ad3b7fb1f2eb68a,2025-06-06_11h55.24.470,shape_ratio,2024.1.5,Win32,61.34969325,6842b561977af9ba9b0f87ca,,,,,,,,,,,1297.57,1298.069,,,1298.32,1299.069,right,0.739,,,,,,,,,0.4,,,,,,1298.069,1298.32,1299.069,"[-0.13322041924542313,-0.14898608055962634]",4.0,"[-0.06819593271440663,0.06238244709013273]",100.0,"[0.10385945098296621,0.09118543828659936]",4.0,"[0.023090586167652992,-0.0715741853380738]",100.0,"[-0.03876066680483647,-0.14101196381377457]",4.0,"[-0.09620239702651583,0.11612717967833278]",100.0,"[0.13467653275229435,-0.09276273795268197]",4.0,"[0.06222445110356121,-0.13284565265250767]",4.0,"[-0.0027718471184589883,-0.18704715072241537]",4.0,"[-0.1778508776853798,0.051525139220818424]",100.0,"[0.12602642442737427,0.038963536905729894]",4.0,"[-0.07469851040598373,-0.08046789795163205]",4.0,"[0.050601013971111185,-0.0016454654335655028]",4.0,"[-0.08648265427387264,0.009733016458267919]",100.0,"[-0.03874088398595359,0.011984621541914002]",100.0,"[-0.1793884968320688,-0.05208375306364007]",4.0,"[0.08519946190292152,-0.08908741770943422]",100.0,"[0.004318918115467315,-0.015166601651264213]",100.0,"[0.13309797144450763,-0.026780836610616223]",4.0,"[0.09568859676407138,0.1549326512757272]",4.0,"[-0.0399041301414924,0.1027698034240726]",100.0,"[0.11797001219317764,-0.129344047377069]",100.0,"[-0.05079420410289243,0.1755463115426508]",100.0,"[0.023409819378512796,0.027710900721850732]",4.0,"[-0.11591617396544743,-0.029856484853873516]",4.0,"[0.08659230320978199,-0.04495484088224014]",100.0,"[-0.149334556610045,0.10230658537339168]",4.0,"[0.15261046497149572,0.10537004865389235]",4.0,"[-0.02419031401617493,-0.08425973677809347]",100.0,"[0.18068105871651716,0.004708507084413179]",4.0,"[0.006390188396746075,-0.12240255767573074]",4.0,"[0.005488596420449123,0.08073982316873489]",4.0,"[0.02,0.02]",1300.168,0.0,37.0,37.0,164.0,1.0,,,,,,,
,,,,,,,5f70f2daea9a9f7076484982,6842bb028ad3b7fb1f2eb68a,2025-06-06_11h55.24.470,shape_ratio,2024.1.5,Win32,61.34969325,6842b561977af9ba9b0f87ca,,,,,,,,,,,1300.169,1300.668,,,1300.919,1301.302,right,0.368,,,,,,,,,0.9,,,,,,1300.668,1300.919,1301.302,"[-0.04556098088699344,0.10382447001464214]",100.0,"[0.025706472526474254,0.17197697320263125]",100.0,"[-0.13832376446135908,-0.0789763304040137]",100.0,"[-0.029521593395945286,-0.09384648822063922]",100.0,"[0.1372760042298728,0.0515804562506169]",100.0,"[-0.17107405215573934,0.01600687467471625]",100.0,"[0.016023896950851452,-0.0004979235208066744]",100.0,"[-0.12946863945405912,0.006588219670679648]",100.0,"[0.032220551764054285,0.11030086915688372]",100.0,"[-0.09365497708093508,-0.1505379836241726]",4.0,"[-0.020949076820630182,0.18796454777990115]",100.0,"[-0.14546428875331457,0.1333716914953717]",100.0,"[0.021647315855755574,0.05008196357508316]",100.0,"[0.09121506418661145,-0.06672274876527058]",100.0,"[0.07780696240949217,0.1637900543244298]",100.0,"[0.07465433021314709,0.043918543131681864]",4.0,"[0.04431305135420164,-0.03960973128247981]",100.0,"[-0.1568152511536248,-0.02537195075970376]",100.0,"[-0.16574272586488004,0.06097088614324274]",100.0,"[0.17604612815657866,-0.027127042037037297]",100.0,"[-0.18148304058978532,-0.08078507001568518]",100.0,"[-0.1255287271091492,0.05898725911491618]",100.0,"[0.1646758439074832,-0.06889651604131022]",100.0,"[-0.09524523876474424,0.032793979102629975]",100.0,"[0.0729347189623384,-0.17855722331818985]",100.0,"[0.17166420309576047,0.08786458702601098]",100.0,"[-0.07423459083283585,-0.0044422871786042395]",100.0,"[-0.10551679792062846,0.12475363711515126]",100.0,"[0.1600719991552435,0.016200468453634702]",100.0,"[-0.03372927984253005,0.1475587708825334]",100.0,"[-0.07560997857422086,-0.11311823114213052]",4.0,"[-0.005099030854844567,-0.18494595872405392]",100.0,"[0.02,0.02]",1302.401,0.0,38.0,38.0,26.0,1.0,,,,,,,
,,,,,,,5f70f2daea9a9f7076484982,6842bb028ad3b7fb1f2eb68a,2025-06-06_11h55.24.470,shape_ratio,2024.1.5,Win32,61.34969325,6842b561977af9ba9b0f87ca,,,,,,,,,,,1302.402,1302.9,,,1303.151,1303.517,left,0.355,,,,,,,,,0.5,,,,,,1302.9,1303.151,1303.517,"[-0.07696127687559032,-0.17608613604744178]",4.0,"[-0.14936406962559878,0.13211332932600892]",100.0,"[0.0001224323885602591,-0.1510199978644427]",4.0,"[0.006913961387986452,-0.07095224195979606]",4.0,"[-0.18505133768998847,0.029152443716239772]",4.0,"[0.035139281152322156,0.09240152025447104]",100.0,"[0.16558308401122512,0.05235104078756589]",100.0,"[-0.12900850367243202,0.09655702104349706]",4.0,"[-0.10797832173277815,-0.09009219634756936]",4.0,"[-0.06209551085305849,-0.1276264814897131]",100.0,"[-0.028403452470438573,0.0015238483429753046]",4.0,"[0.13329684021696514,-0.030990946545779715]",4.0,"[0.10647021674785521,0.02339657632387259]",4.0,"[-0.07496972849719238,-0.03326364470586477]",100.0,"[-0.06919788947181263,0.17842409162035222]",100.0,"[-0.03130522969939803,0.08825344249813047]",100.0,"[-0.04561740593170201,0.04723868343900077]",4.0,"[0.08701333030580813,-0.08648096659627881]",4.0,"[0.134555676399474,-0.07581336954271975]",4.0,"[0.12901994857202773,0.11594027566436346]",100.0,"[-0.054547996365172984,0.12240694708939223]",100.0,"[-0.14422753912297598,-0.019953128707920507]",4.0,"[0.0475862806937095,-0.12174047710068855]",100.0,"[-0.1421011244404717,0.047263862568866145]",100.0,"[0.12410076701260951,0.06029059000771801]",4.0,"[-0.08244539993085355,0.09284057480738801]",100.0,"[0.05631990798327629,-0.16161240960445453]",4.0,"[-0.009755981076330777,-0.19249204320153798]",100.0,"[0.18444465765635026,-0.07488533714021148]",100.0,"[-0.0039786880806007546,0.19496556419430344]",100.0,"[-0.18046310313311484,-0.041132186764700665]",4.0,"[0.014236160191221333,-0.02449629992158345]",100.0,"[0.02,0.02]",1304.617,0.0,39.0,39.0,101.0,1.0,,,,,,,
,,,,,,,5f70f2daea9a9f7076484982,6842bb028ad3b7fb1f2eb68a,2025-06-06_11h55.24.470,shape_ratio,2024.1.5,Win32,61.34969325,6842b561977af9ba9b0f87ca,,,,,,,,,,,1304.617,1305.116,,,1305.367,1305.683,right,0.307,,,,,,,,,0.9,,,,,,1305.116,1305.367,1305.683,"[0.01692746801325097,0.08934456725277515]",100.0,"[0.0011244855763291508,-0.1355769454440628]",100.0,"[0.10098662999439748,0.15281520136859264]",100.0,"[-0.1944981507784012,-0.00064257727988166]",4.0,"[0.05527106037815858,-0.10961647742181323]",100.0,"[0.12209006201386625,0.02124585433946926]",100.0,"[-0.08603723688613579,-0.11309838573005943]",4.0,"[-0.10325586436329831,0.16800097198472314]",100.0,"[0.042650654761611,0.1527055929398894]",100.0,"[0.17481162923502103,0.06095221688457425]",100.0,"[-0.04934257726194443,-0.06328929722013282]",100.0,"[-0.06839402385994034,-0.16182493487407731]",100.0,"[-0.19205582443175853,0.04891809208598753]",100.0,"[-0.13534246883242274,0.02486515431455727]",100.0,"[0.10033219658491227,0.06854787469767526]",100.0,"[-0.1607957475779567,-0.06865694125625563]",100.0,"[0.008454934850741277,0.1774462423615603]",100.0,"[0.17292018773276968,-0.05948248969334164]",100.0,"[-0.013791548749195033,-0.1889438775665086]",100.0,"[-0.03059118453412474,0.19231631615335462]",100.0,"[-0.037613110814244996,0.04580430791999855]",100.0,"[0.0038830392985129383,-0.05395132372868586]",100.0,"[0.14966569447542605,-0.014546703985894645]",100.0,"[-0.09642710801529052,0.047194207048090554]",4.0,"[-0.09046730417232421,-0.014362640616707585]",100.0,"[0.1437031548834661,-0.09130055534634815]",100.0,"[0.06040589574629774,-0.031305899929618505]",100.0,"[0.039693596301980355,0.05380159796270244]",100.0,"[-0.023457089325493972,-0.019819920470737277]",100.0,"[0.11928614617449788,-0.05890869937997785]",100.0,"[-0.11747472912470709,-0.15418062316670442]",100.0,"[0.06799720770172858,0.09610504087797672]",100.0,"[0.02,0.02]",1306.783,0.0,40.0,40.0,7.0,1.0,,,,,,,
,,,,,,,5f70f2daea9a9f7076484982,6842bb028ad3b7fb1f2eb68a,2025-06-06_11h55.24.470,shape_ratio,2024.1.5,Win32,61.34969325,6842b561977af9ba9b0f87ca,,,,,,,,,,,1306.783,1307.282,,,1307.532,1307.983,right,0.442,,,,,,,,,0.45,,,,,,1307.282,1307.532,1307.983,"[-0.12233196212612564,-0.11610495654839384]",100.0,"[0.13389947077555567,0.043801253731265526]",4.0,"[-0.08729834140342098,0.052905040976081605]",4.0,"[0.05122766514698069,-0.16659990011996198]",100.0,"[-0.06059880184731392,0.17853422204207176]",100.0,"[0.06187846038870261,-0.09017756397031236]",4.0,"[-0.06603242131026119,-0.09845476417750665]",4.0,"[0.07141669751562846,-0.019808378039331012]",4.0,"[0.1012151644225302,0.13321783642755244]",100.0,"[0.12428043330479491,-0.09601283476270316]",4.0,"[-0.148719849774254,0.08500485339508021]",4.0,"[0.16894028106520412,0.09935670456976489]",100.0,"[-0.11255198647860182,-0.0376490854452353]",4.0,"[0.052846260635256305,0.04234632382236]",100.0,"[0.09356620824040576,0.028365512761702287]",4.0,"[-0.13517577851621776,0.03158080656232524]",100.0,"[0.1664797361832861,-0.10440261849116367]",100.0,"[0.0504846943003244,0.11440035224722883]",100.0,"[0.002167506801799723,0.03264918585849354]",100.0,"[-0.19751740584301578,-0.0036888438739597494]",4.0,"[0.1146358758758522,-0.050795016981509955]",4.0,"[0.005853774507472071,-0.10740716940025505]",100.0,"[-0.07902461138328568,-0.14821606661578646]",4.0,"[-0.04156830355606677,-0.05426825046934731]",100.0,"[0.18179290072640183,-0.014652744270871345]",4.0,"[0.18340309359298743,0.0447620146129406]",100.0,"[0.015634562572687756,0.15982916060247926]",4.0,"[-0.0014764670243430761,-0.15537916817718023]",4.0,"[-0.00044676430326110665,0.09730972883664761]",4.0,"[-0.049462445962320904,0.12564808104213337]",100.0,"[-0.10292613827493853,-0.07926950931662204]",4.0,"[-0.18372597675550462,0.0637979246346917]",4.0,"[0.02,0.02]",1309.082,0.0,41.0,41.0,121.0,1.0,,,,,,,
,,,,,,,5f70f2daea9a9f7076484982,6842bb028ad3b7fb1f2eb68a,2025-06-06_11h55.24.470,shape_ratio,2024.1.5,Win32,61.34969325,6842b561977af9ba9b0f87ca,,,,,,,,,,,1309.082,1309.582,,,1309.832,1310.365,left,0.524,,,,,,,,,0.55,,,,,,1309.582,1309.832,1310.365,"[-0.06217664972268078,0.05738418421707015]",100.0,"[-0.016345608403550024,-0.08163451789596042]",4.0,"[0.13966350867696148,0.01036293931231776]",100.0,"[-0.0975283417061831,-0.14359586997194382]",100.0,"[-0.09347910982836191,0.009743043379716416]",4.0,"[0.044430269163455716,-0.00446397076739882]",100.0,"[-0.17996283847479416,0.04909624014584879]",4.0,"[0.08446180622795482,-0.1628827822749483]",100.0,"[0.12612387134628367,-0.12434137208010997]",4.0,"[0.054626878644145935,0.09946447567056257]",100.0,"[0.09871607819572527,0.0041465381323744525]",4.0,"[-0.09454398863149524,0.15239780504556055]",100.0,"[-0.04763773320732813,0.14993325779398348]",4.0,"[-0.015358344757483197,0.01371649571304022]",4.0,"[-0.19648127741442495,-0.019467026875952344]",100.0,"[0.06050613131157159,0.05568072131585273]",100.0,"[-0.15312003876625083,0.09847836090694022]",100.0,"[0.02937447861059631,0.1426083916665511]",4.0,"[0.03978108181578885,-0.13905167298142215]",100.0,"[0.08173615712101087,-0.04425574624233325]",100.0,"[0.16190437748968184,0.06071328551456369]",4.0,"[-0.01796709714616972,0.09767607127196755]",100.0,"[-0.09198070061119383,0.10901901028401441]",4.0,"[-0.038753869279480754,-0.02886416647473598]",4.0,"[-0.016577784262202917,0.1894737999956596]",4.0,"[0.03992710376852695,-0.1811462883031529]",100.0,"[0.1479665321665877,0.12633593764085296]",100.0,"[-0.03811991376973544,-0.14384126632289423]",4.0,"[-0.14011458007865685,-0.12847441216310992]",100.0,"[-0.14119794590400095,0.03124698043101999]",4.0,"[0.05679601735320241,0.17962639943121853]",100.0,"[-0.1421588385915649,-0.01991820654388786]",100.0,"[0.02,0.02]",1311.464,0.0,42.0,42.0,67.0,1.0,,,,,,,
,,,,,,,5f70f2daea9a9f7076484982,6842bb028ad3b7fb1f2eb68a,2025-06-06_11h55.24.470,shape_ratio,2024.1.5,Win32,61.34969325,6842b561977af9ba9b0f87ca,,,,,,,,,,,1311.465,1311.965,,,1312.214,1312.598,right,0.371,,,,,,,,,0.45,,,,,,1311.965,1312.214,1312.598,"[0.11521327148161545,0.041889966099327616]",4.0,"[-0.08715253536797764,-0.1585919229322596]",4.0,"[0.07521497668847955,0.1572672151060095]",4.0,"[0.14036983051836982,-0.13184437667021726]",4.0,"[0.16832350741247779,-0.08559119081235217]",4.0,"[0.015476714850945905,0.01372317017026088]",4.0,"[-0.14135997319481844,0.06421837037804785]",100.0,"[-0.11442802629272646,-0.11315825618626567]",100.0,"[-0.12732400713749722,0.012092799196892332]",4.0,"[0.01684870640948783,-0.16029831136472478]",100.0,"[-0.03902682610266258,0.09710046429398105]",4.0,"[0.0699145790788578,0.028813547482964916]",4.0,"[0.17336284364401966,-0.019010804214043837]",100.0,"[-0.04083742178144107,0.15541787973543678]",100.0,"[0.08131857267297773,-0.06243834868662381]",4.0,"[0.1266436740410995,0.10992103726433572]",100.0,"[0.051033822042397,-0.11298623064345764]",100.0,"[0.16927241269074547,0.051810794639755776]",4.0,"[-0.14189467823611102,-0.028124536701787058]",100.0,"[0.08843661204109912,-0.16483628810734577]",4.0,"[-0.04921179229899584,-0.029704014442887065]",100.0,"[0.038678505070204684,0.11567440776529511]",4.0,"[-0.009101736290918693,-0.07118763314116915]",4.0,"[0.05464889920219503,-0.016594233480745634]",100.0,"[0.07004999242228502,0.07870373452006528]",100.0,"[-0.18380091720928207,-0.0031249705523209476]",100.0,"[0.12083369315989818,-0.07105495147672126]",4.0,"[-0.08771960559094492,0.07783973517474028]",4.0,"[-0.07069210212573025,-0.12006919895998593]",4.0,"[-0.022836536131516635,-0.1306467044579272]",100.0,"[-0.15701236292862109,-0.0914345356304885]",100.0,"[-0.08505799863984938,-0.0803796205494573]",4.0,"[0.02,0.02]",1313.697,0.0,43.0,43.0,141.0,1.0,,,,,,,
,,,,,,,5f70f2daea9a9f7076484982,6842bb028ad3b7fb1f2eb68a,2025-06-06_11h55.24.470,shape_ratio,2024.1.5,Win32,61.34969325,6842b561977af9ba9b0f87ca,,,,,,,,,,,1313.698,1314.197,,,1314.447,1314.963,left,0.506,,,,,,,,,0.6,,,,,,1314.197,1314.447,1314.963,"[0.018073629852217565,0.1416594205241564]",100.0,"[-0.046392113378569876,0.1285367351693119]",4.0,"[0.025660402140455774,-0.17034307344650026]",100.0,"[-0.14109603602757673,-0.014235662759988296]",100.0,"[0.1717310654839804,0.09521567930278342]",100.0,"[-0.0410969819432109,-0.171909519074504]",4.0,"[0.06733684739726017,0.012915281910990823]",100.0,"[0.017251777062967707,0.05629901726801988]",100.0,"[0.1823440275792007,-0.009954493285711762]",4.0,"[-0.026770126465071716,0.07467411490186951]",100.0,"[0.045448128202597346,-0.07435401377850717]",4.0,"[0.15621854882511768,-0.08007252406170937]",4.0,"[-0.1298817497444919,-0.07898091911913595]",100.0,"[0.0658282213590434,0.1267649144343967]",100.0,"[-0.07797425888130906,0.09228041835764898]",100.0,"[0.10176474504596081,0.15353833605108266]",100.0,"[-0.000717890011515641,0.1937142779937172]",4.0,"[-0.02679018567178913,-0.008325219769652985]",4.0,"[-0.16704938930041427,-0.060649963071148276]",100.0,"[0.1125089896974264,-0.09300564846082661]",100.0,"[-0.08931808393693846,-0.10897221156799478]",100.0,"[0.05338017085638998,0.08668336915490912]",100.0,"[0.006209468776072218,-0.048946903629716106]",4.0,"[0.1631883749985392,0.03541327146708039]",4.0,"[-0.07313742101827245,0.051448507338360344]",100.0,"[-0.015093725381087069,-0.09736977013864043]",100.0,"[0.015480476860002429,0.008936893657544494]",4.0,"[0.11615315468052703,0.08505739936671859]",100.0,"[-0.08632048718467476,-0.026271702371692712]",4.0,"[-0.1302583812653832,0.14719052913024397]",100.0,"[-0.12049925416120366,-0.13831962140149232]",4.0,"[0.03915584260478203,-0.12187605557124358]",4.0,"[0.02,0.02]",1316.063,0.0,44.0,44.0,39.0,1.0,,,,,,,
,,,,,,,5f70f2daea9a9f7076484982,6842bb028ad3b7fb1f2eb68a,2025-06-06_11h55.24.470,shape_ratio,2024.1.5,Win32,61.34969325,6842b561977af9ba9b0f87ca,,,,,,,,,,,1316.064,1316.563,,,1316.813,1317.296,right,0.476,,,,,,,,,0.4,,,,,,1316.563,1316.813,1317.296,"[0.1609769842639111,-0.1080212415607533]",4.0,"[0.07520722217576833,-0.18129210141638794]",4.0,"[-0.0961753880280228,-0.13881557350783416]",4.0,"[0.17485728793529887,-0.02260364772206704]",100.0,"[0.042911488402827574,0.10706412417083655]",100.0,"[0.14198493323321917,0.05347527598902599]",100.0,"[0.010065442919449734,-0.0588025705205506]",4.0,"[0.13098258029969365,0.10735444276043649]",4.0,"[-0.15630175055549725,0.06282840484112648]",4.0,"[0.11149332307295243,-0.026018098939726356]",4.0,"[-0.1523206172813398,-0.03739346948210753]",4.0,"[-0.05733550613672112,0.06843615941954631]",4.0,"[-0.0016856730991743616,0.13374747391280675]",4.0,"[0.06108967061885484,0.030003441182913124]",4.0,"[0.18248576364360392,0.028580494565905643]",100.0,"[-0.029648733356773715,-0.022966083021406618]",100.0,"[-0.09896267243473696,0.10935009517127171]",100.0,"[0.032074064488918384,0.1691621840991594]",100.0,"[-0.05485640602884178,0.12447260767281751]",100.0,"[-0.19082128868835566,-0.0014489722370472835]",4.0,"[-0.011292976301638965,0.08307337390551525]",4.0,"[0.0747756503827143,-0.12835653233345734]",100.0,"[-0.002567011395355926,-0.0974435603553607]",4.0,"[-0.011809593461859244,0.18316545004844398]",100.0,"[-0.0867561122279691,0.1640986718716969]",100.0,"[0.09201001687942238,0.07315752213950429]",4.0,"[-0.01640078803574519,0.02356642651710145]",100.0,"[-0.07069593281567232,-0.07401995491599497]",4.0,"[-0.08933138542929843,0.02878187670163878]",100.0,"[-0.03927717901747148,-0.16845904274302978]",4.0,"[-0.1786443544173466,-0.08540331111722015]",4.0,"[-0.10555325496823438,-0.017056652048950356]",4.0,"[0.02,0.02]",1318.395,0.0,45.0,45.0,156.0,1.0,,,,,,,
,,,,,,,5f70f2daea9a9f7076484982,6842bb028ad3b7fb1f2eb68a,2025-06-06_11h55.24.470,shape_ratio,2024.1.5,Win32,61.34969325,6842b561977af9ba9b0f87ca,,,,,,,,,,,1318.396,1318.896,,,1319.145,1319.612,right,0.451,,,,,,,,,0.6,,,,,,1318.896,1319.145,1319.612,"[0.12895527106904925,-0.07997717299208193]",100.0,"[-0.14758689498588526,-0.13006798479094142]",4.0,"[0.010121718966296387,0.04428817460748091]",4.0,"[0.01219078093979617,-0.09680020432622431]",4.0,"[-0.13866123317702145,-0.058812920497354385]",4.0,"[-0.17860554883975513,0.07800283321351029]",100.0,"[0.06824908468228626,0.14740544856345128]",4.0,"[-0.12312980260139374,0.015069895841728598]",100.0,"[-0.040496839635105676,0.04267861041184294]",100.0,"[0.057438181297499044,0.18786765230504232]",4.0,"[-0.16833665229637398,-0.028537737457031892]",4.0,"[0.13018356038300122,0.10228398949386582]",4.0,"[0.046075443194397984,-0.15569149561719353]",100.0,"[-0.07528288370276394,-0.12958712121361754]",4.0,"[-0.07483193936526451,-0.08602656285638077]",100.0,"[-0.08964543099502392,0.03820709008220004]",100.0,"[-0.07482533614328729,0.14667206347792688]",100.0,"[-0.11869592997924047,0.1418649264129965]",100.0,"[-0.09336039573403986,0.10386549152468809]",100.0,"[0.17577745244566845,0.07997101352586447]",4.0,"[-0.016926220274971822,0.19109178419914616]",100.0,"[-0.020710564364297093,0.11183077547134622]",4.0,"[0.11578926732560638,-0.1476021898447755]",4.0,"[0.022391908065130268,-0.003685204938549229]",100.0,"[-0.024770438616221607,-0.06414756212127684]",100.0,"[0.08297680600773197,-0.07292136513708732]",100.0,"[0.08657825003614723,0.007939608685643702]",100.0,"[0.1822687834145125,-0.0637678395629885]",100.0,"[0.190076862383465,0.03769252827020545]",4.0,"[-0.060522136255133516,-0.006274052208069007]",100.0,"[0.03899015801409456,0.09693434877364922]",100.0,"[-0.18450231444322865,-0.06776021239689843]",100.0,"[0.02,0.02]",1320.711,0.0,46.0,46.0,30.0,1.0,,,,,,,
,,,,,,,5f70f2daea9a9f7076484982,6842bb028ad3b7fb1f2eb68a,2025-06-06_11h55.24.470,shape_ratio,2024.1.5,Win32,61.34969325,6842b561977af9ba9b0f87ca,,,,,,,,,,,1320.711,1321.211,,,1321.462,1321.828,right,0.352,,,,,,,,,0.9,,,,,,1321.211,1321.462,1321.828,"[0.14899060966732308,-0.0916867154304573]",100.0,"[0.06937097056566335,-0.14055117721786864]",100.0,"[0.005709332854546046,-0.06653858753832587]",100.0,"[-0.12596538685192815,-0.1251348620550237]",100.0,"[0.14053408484377825,0.06449956712970834]",100.0,"[-0.1817013518667495,-0.047264531158879144]",100.0,"[0.055490539289494975,0.06658378143499966]",100.0,"[-0.11834371433179365,0.08320738431015184]",100.0,"[0.053687360754128347,0.14969584631453559]",100.0,"[0.011314137262235192,0.10395361372810878]",100.0,"[-0.1286557229440378,0.12247832245054203]",100.0,"[-0.08929624625052476,-0.17427129756318563]",4.0,"[0.1044068737070584,-0.0559627842473419]",100.0,"[0.0429640902738261,0.024182662367510602]",100.0,"[-0.058477218366599054,0.08398482656962554]",4.0,"[0.08714608740257491,0.10476130721902899]",100.0,"[0.1134826972850438,-0.13063702340491526]",100.0,"[-0.156725089460486,-0.0917103697099296]",100.0,"[-0.12591726577983398,-0.04790349377337513]",100.0,"[-0.02157627648372883,-0.14600109355932508]",100.0,"[-0.08969702160720057,0.15687561948920775]",100.0,"[-0.007753584272188411,0.0661510393674699]",4.0,"[0.1260133972640171,0.009602088323549808]",100.0,"[-0.11395709128960414,0.027456149291349673]",100.0,"[0.008440664631984108,0.17058281491125685]",100.0,"[0.03280151340665518,-0.12036202546101873]",100.0,"[-0.030890058168448285,0.11407106522082563]",100.0,"[0.15190389689301065,-0.03299096284729371]",100.0,"[0.10497986888427242,0.15647070378453928]",100.0,"[-0.06496593657028288,0.009739698035773832]",100.0,"[-0.016852601279879618,0.026286264834223156]",100.0,"[-0.024701586863206608,0.19450024773740088]",100.0,"[0.02,0.02]",1322.927,0.0,47.0,47.0,17.0,1.0,,,,,,,
,,,,,,,5f70f2daea9a9f7076484982,6842bb028ad3b7fb1f2eb68a,2025-06-06_11h55.24.470,shape_ratio,2024.1.5,Win32,61.34969325,6842b561977af9ba9b0f87ca,,,,,,,,,,,1322.928,1323.427,,,1323.677,1324.194,right,0.501,,,,,,,,,0.45,,,,,,1323.427,1323.677,1324.194,"[0.08241254248540035,0.10360938513744719]",4.0,"[-0.015517110226023378,0.18281648257814692]",4.0,"[-0.06309063625829289,-0.05404110764121145]",4.0,"[0.10457946518139176,0.0017467752574327278]",4.0,"[0.02394433090619462,0.06267840817656649]",100.0,"[-0.13852518593321386,-0.11654472339213166]",4.0,"[0.08765556948458808,-0.06680159763199454]",100.0,"[-0.11644012270792364,0.05763039661054714]",4.0,"[0.04410185033507417,-0.114603136002959]",4.0,"[0.035626262856208187,-0.05893639508708697]",100.0,"[-0.07210984002289862,0.0011795230203735592]",100.0,"[0.08433415482699282,-0.10742264899766385]",100.0,"[-0.040898352628395425,0.07323095124129371]",4.0,"[-0.007514460516604876,0.12250828644177718]",100.0,"[-0.06139850495982012,0.10784175143428305]",4.0,"[0.11602507832543009,0.05756360672895897]",4.0,"[-0.10948450160700314,0.15673805838522126]",4.0,"[0.1292267956377466,0.11203015452889951]",100.0,"[0.18018084548403507,-0.018184149117459626]",100.0,"[0.041049297857645696,-0.003942200131537546]",4.0,"[-0.012142738213428043,-0.049583725554773715]",100.0,"[-0.0010542304921616066,0.03073532815332891]",4.0,"[-0.16437938747162406,0.06952187009067994]",100.0,"[0.13712848789259494,-0.06413201287607712]",4.0,"[0.1722778147457638,0.06486674892846359]",4.0,"[-0.1912513578410948,-0.024812360514617667]",100.0,"[-0.1512629135754677,-0.07227209732790352]",4.0,"[-0.14506382599668002,0.10598423893573619]",100.0,"[-0.11970790651581792,-0.023540202865910343]",100.0,"[-0.005189673390212843,-0.1960945707728245]",4.0,"[0.07641608007453407,0.16764153805266677]",4.0,"[0.14072396750610233,-0.10673366204512519]",100.0,"[0.02,0.02]",1325.294,0.0,48.0,48.0,149.0,1.0,,,,,,,
,,,,,,,5f70f2daea9a9f7076484982,6842bb028ad3b7fb1f2eb68a,2025-06-06_11h55.24.470,shape_ratio,2024.1.5,Win32,61.34969325,6842b561977af9ba9b0f87ca,,,,,,,,,,,1325.297,1325.793,,,1326.044,1326.392,right,0.343,,,,,,,,,0.9,,,,,,1325.793,1326.044,1326.393,"[0.06448666076775264,0.11251650062576272]",100.0,"[-0.06726788164488433,0.07156325320020683]",100.0,"[-0.16151758066229024,-0.06851900167308114]",4.0,"[-0.11799208410122748,-0.11055916484525993]",100.0,"[0.006988327354225197,0.1299220845843515]",100.0,"[0.07576299675160877,0.012591649480975622]",100.0,"[-0.016690693135402765,-0.17634656180119754]",100.0,"[0.06801484204781923,0.16886382269324704]",100.0,"[0.10870178868603754,-0.14757740532573546]",4.0,"[0.060548414760478286,-0.05946892631980609]",100.0,"[-0.055161711446810806,-0.14868890098638549]",100.0,"[0.18596843202927274,-0.036022998600009196]",100.0,"[0.005089737844447913,-0.003545552577494816]",100.0,"[0.13336678333940002,0.14503048373097507]",100.0,"[-0.004693540224223212,-0.08821244725906484]",100.0,"[-0.178976939893902,-0.01201054161609007]",100.0,"[-0.06925955868780607,-0.0588870290199578]",100.0,"[0.10705649765942896,-0.09033554385052117]",100.0,"[0.17631093323094504,0.006720478341507686]",100.0,"[-0.1132008933459258,0.08405429579377231]",100.0,"[0.12748209937229252,0.04613459280338539]",4.0,"[-0.08066563152963702,-0.01703771628023702]",100.0,"[0.05227503239476351,-0.12352359730392522]",100.0,"[-0.033662364080230135,-0.037478785089218924]",100.0,"[-0.17221744552568058,0.03687167192372683]",100.0,"[-0.0018359780236110697,0.07105085164815905]",100.0,"[0.11386423101951848,0.08376723932210832]",100.0,"[-0.16997558446920666,0.07962459721629776]",100.0,"[-0.01336077480323026,0.19108937882068666]",100.0,"[0.025543152502551004,0.17140796639131448]",100.0,"[0.11017940668194198,-0.025093270348616425]",100.0,"[-0.11193294727933017,-0.15391994150970703]",100.0,"[0.02,0.02]",1327.492,0.0,49.0,49.0,6.0,1.0,,,,,,,
