right,left,explain.started,explain.stopped,key_resp_3.keys,key_resp_3.rt,key_resp_3.duration,participant,session,date,expName,psychopyVersion,OS,frameRate,study_id,explain_2.started,explain_2.stopped,key_resp_4.keys,key_resp_4.rt,key_resp_4.duration,explain_3.started,explain_3.stopped,key_resp_5.keys,key_resp_5.rt,key_resp_5.duration,fixation.started,fixation.stopped,practice.started,practice.stopped,response.started,response.stopped,key_resp.keys,key_resp.rt,key_resp.duration,feedback.started,feedback.stopped,trials_2.thisRepN,trials_2.thisTrialN,trials_2.thisN,trials_2.thisIndex,trials_2.ran,dot_ratio,explain_4.started,explain_4.stopped,key_resp_6.keys,key_resp_6.rt,key_resp_6.duration,dotDisplay.started,dotDisplay.stopped,ITI.started,polygon_1.pos,polygon_1.edges,polygon_2.pos,polygon_2.edges,polygon_3.pos,polygon_3.edges,polygon_4.pos,polygon_4.edges,polygon_5.pos,polygon_5.edges,polygon_6.pos,polygon_6.edges,polygon_7.pos,polygon_7.edges,polygon_8.pos,polygon_8.edges,polygon_9.pos,polygon_9.edges,polygon_10.pos,polygon_10.edges,polygon_11.pos,polygon_11.edges,polygon_12.pos,polygon_12.edges,polygon_13.pos,polygon_13.edges,polygon_14.pos,polygon_14.edges,polygon_15.pos,polygon_15.edges,polygon_16.pos,polygon_16.edges,polygon_17.pos,polygon_17.edges,polygon_18.pos,polygon_18.edges,polygon_19.pos,polygon_19.edges,polygon_20.pos,polygon_20.edges,polygon_21.pos,polygon_21.edges,polygon_22.pos,polygon_22.edges,polygon_23.pos,polygon_23.edges,polygon_24.pos,polygon_24.edges,polygon_25.pos,polygon_25.edges,polygon_26.pos,polygon_26.edges,polygon_27.pos,polygon_27.edges,polygon_28.pos,polygon_28.edges,polygon_29.pos,polygon_29.edges,polygon_30.pos,polygon_30.edges,polygon_31.pos,polygon_31.edges,polygon_32.pos,polygon_32.edges,dot_size,ITI.stopped,trials.thisRepN,trials.thisTrialN,trials.thisN,trials.thisIndex,trials.ran,break_2.started,break_2.stopped,trials_3.thisRepN,trials_3.thisTrialN,trials_3.thisN,trials_3.thisIndex,trials_3.ran
subject chose dot,subject chose diamond,0.001,140.685,space,125.663,,602fb33786b077cdbad2d5bb,6842bb15d7ddfa007138f798,2025-06-06_11h56.00.260,shape_ratio,2024.1.5,Win32,60.0240096,6842b561977af9ba9b0f87ca,,,,,,,,,,,,,,,,,,,,,,,,,,,,,,,,,,,,,,,,,,,,,,,,,,,,,,,,,,,,,,,,,,,,,,,,,,,,,,,,,,,,,,,,,,,,,,,,,,,,,,,,,,,,,,,,,
,,,,,,,602fb33786b077cdbad2d5bb,6842bb15d7ddfa007138f798,2025-06-06_11h56.00.260,shape_ratio,2024.1.5,Win32,60.0240096,6842b561977af9ba9b0f87ca,140.685,179.029,space,8.328,,,,,,,,,,,,,,,,,,,,,,,,,,,,,,,,,,,,,,,,,,,,,,,,,,,,,,,,,,,,,,,,,,,,,,,,,,,,,,,,,,,,,,,,,,,,,,,,,,,,,,,,,,,,,
,,,,,,,602fb33786b077cdbad2d5bb,6842bb15d7ddfa007138f798,2025-06-06_11h56.00.260,shape_ratio,2024.1.5,Win32,60.0240096,6842b561977af9ba9b0f87ca,,,,,,179.03,185.363,space,3.316,,,,,,,,,,,,,,,,,,,,,,,,,,,,,,,,,,,,,,,,,,,,,,,,,,,,,,,,,,,,,,,,,,,,,,,,,,,,,,,,,,,,,,,,,,,,,,,,,,,,,,,,
,,,,,,,602fb33786b077cdbad2d5bb,6842bb15d7ddfa007138f798,2025-06-06_11h56.00.260,shape_ratio,2024.1.5,Win32,60.0240096,6842b561977af9ba9b0f87ca,,,,,,,,,,,185.395,185.878,185.878,186.131,186.131,186.994,left,0.808,,186.994,188.094,0.0,0.0,0.0,0.0,1.0,0.2,,,,,,,,,,,,,,,,,,,,,,,,,,,,,,,,,,,,,,,,,,,,,,,,,,,,,,,,,,,,,,,,,,,,,,,,,,,,,,,,,,,,,,
,,,,,,,602fb33786b077cdbad2d5bb,6842bb15d7ddfa007138f798,2025-06-06_11h56.00.260,shape_ratio,2024.1.5,Win32,60.0240096,6842b561977af9ba9b0f87ca,,,,,,,,,,,188.095,188.594,188.594,188.846,188.846,189.41,right,0.551,,189.411,190.511,0.0,1.0,1.0,1.0,1.0,0.8,,,,,,,,,,,,,,,,,,,,,,,,,,,,,,,,,,,,,,,,,,,,,,,,,,,,,,,,,,,,,,,,,,,,,,,,,,,,,,,,,,,,,,
,,,,,,,602fb33786b077cdbad2d5bb,6842bb15d7ddfa007138f798,2025-06-06_11h56.00.260,shape_ratio,2024.1.5,Win32,60.0240096,6842b561977af9ba9b0f87ca,,,,,,,,,,,,,,,,,,,,,,,,,,,,190.511,202.313,space,8.798,,,,,,,,,,,,,,,,,,,,,,,,,,,,,,,,,,,,,,,,,,,,,,,,,,,,,,,,,,,,,,,,,,,,,,,,,,,,,,,,,,
,,,,,,,602fb33786b077cdbad2d5bb,6842bb15d7ddfa007138f798,2025-06-06_11h56.00.260,shape_ratio,2024.1.5,Win32,60.0240096,6842b561977af9ba9b0f87ca,,,,,,,,,,,202.353,202.827,,,203.079,203.594,left,0.501,,,,,,,,,0.1,,,,,,202.827,203.079,203.594,"[0.10794430343652237,-0.01911639444829576]",100.0,"[-0.11619476161810716,-0.0402095019878469]",4.0,"[0.027144671850984476,-0.042495611873006524]",4.0,"[-0.18238854587301045,-0.00798803730793564]",4.0,"[0.05398937769067519,0.18658060217966096]",4.0,"[-0.14591926339379568,-0.11394275486664027]",4.0,"[-0.07658257585140957,0.1258623275837387]",4.0,"[-0.012274562802876263,-0.0765377192197164]",4.0,"[0.1447894748033991,-0.0682918964330426]",100.0,"[0.012250193339011103,-0.1779344897359647]",100.0,"[-0.02284849779468426,0.0805658488081705]",4.0,"[-0.06434428816970467,-0.05221465356341102]",4.0,"[0.11518521135977981,0.15401749795896136]",4.0,"[0.04940108648136057,0.13063313059714055]",4.0,"[0.074432392564758,-0.08808122923676315]",4.0,"[-0.10315893933798548,0.013025708080275172]",4.0,"[-0.08589069619048276,0.08024795754769588]",4.0,"[0.08855213330193289,-0.14476368147568333]",4.0,"[0.15794382858028044,0.031307634108596896]",4.0,"[0.16740612924620765,0.07459461201741756]",4.0,"[-0.03034835838095821,-0.18219941315872026]",4.0,"[0.0976044882741862,0.07757513019785567]",4.0,"[-0.044923579862531406,-0.0002845697518496321]",4.0,"[0.060083306822395634,-0.1774909667811282]",4.0,"[-0.11225292586893433,-0.14222511167573626]",4.0,"[-0.11851104686137162,0.141977847065622]",4.0,"[-0.04372825827118466,-0.11384981004093774]",4.0,"[0.06238691244091294,0.05065599408888981]",4.0,"[0.1754186384788386,-0.03851285915111128]",4.0,"[-0.15846787776691298,0.0854557098037031]",4.0,"[0.12514339858577553,0.10772274941905595]",4.0,"[-0.024695449041906473,0.03732073888975437]",4.0,"[0.02,0.02]",204.694,0.0,0.0,0.0,192.0,1.0,,,,,,,
,,,,,,,602fb33786b077cdbad2d5bb,6842bb15d7ddfa007138f798,2025-06-06_11h56.00.260,shape_ratio,2024.1.5,Win32,60.0240096,6842b561977af9ba9b0f87ca,,,,,,,,,,,204.695,205.194,,,205.445,205.861,left,0.4,,,,,,,,,0.1,,,,,,205.194,205.445,205.861,"[0.0013569938002457465,0.05170782391791841]",4.0,"[0.03887767782245244,-0.16051503138503997]",4.0,"[0.013505926717173908,-0.03866618706342104]",4.0,"[0.04171411740308728,0.15136207624566506]",4.0,"[0.11717069919876934,0.07121019641111354]",4.0,"[-0.0896692081676006,-0.011933389829505292]",4.0,"[-0.023934278962820625,-0.09371719643671467]",4.0,"[0.10159875380797091,-0.10385330513615523]",4.0,"[-0.11589073428269069,-0.15466708961866069]",4.0,"[-0.02084711344103724,-0.13782310725390925]",4.0,"[0.10271073733022681,0.16458988164221788]",4.0,"[-0.12163552985040091,0.11744417909477088]",4.0,"[0.028556663624237585,0.010783738726877807]",4.0,"[0.07657952926942738,0.07981749522800927]",4.0,"[-0.1077145240975851,-0.08163783031613617]",4.0,"[0.1938819871776352,-0.038094032286082435]",4.0,"[-0.12777695513481085,0.06756993140806192]",4.0,"[-0.0702067825827622,-0.15668200217038247]",4.0,"[0.16593953437192502,0.08304879847943926]",4.0,"[-0.009608748586085276,0.12278842125370419]",4.0,"[0.08621404977919157,-0.04638834726945122]",4.0,"[0.03962916473739728,-0.07657418126233276]",4.0,"[-0.07465618508039987,0.12673772531356786]",100.0,"[-0.06887685409387043,-0.11363008555700173]",4.0,"[0.06880330905807239,0.02468500381026967]",4.0,"[-0.1636972129189217,0.038099528395550156]",4.0,"[-0.03102125892848363,-0.025878239492149333]",4.0,"[0.19958597636159056,0.008854266335775128]",4.0,"[0.15660468767910968,-0.013090174339955612]",4.0,"[-0.1811361727871897,-0.0705012182203257]",100.0,"[-0.09262414336256312,0.0402289807920117]",100.0,"[0.005354991955955944,-0.19762688124356412]",4.0,"[0.02,0.02]",206.961,0.0,1.0,1.0,189.0,1.0,,,,,,,
,,,,,,,602fb33786b077cdbad2d5bb,6842bb15d7ddfa007138f798,2025-06-06_11h56.00.260,shape_ratio,2024.1.5,Win32,60.0240096,6842b561977af9ba9b0f87ca,,,,,,,,,,,206.962,207.461,,,207.718,208.127,left,0.398,,,,,,,,,0.1,,,,,,207.461,207.718,208.127,"[0.01716919356516103,-0.08714399915283597]",4.0,"[-0.06733275773113287,-0.0288502196147497]",4.0,"[0.06455805574281494,0.020746343558825455]",4.0,"[0.05939978816157378,0.14793071696311036]",4.0,"[-0.1250188552804141,0.02301183279615025]",100.0,"[-0.08024586447182133,-0.1686064736253713]",4.0,"[0.12163048115525812,0.007391906795967276]",4.0,"[0.15908859702872313,-0.06263233400089793]",4.0,"[0.014113229001802759,-0.004806683966002334]",4.0,"[0.19663092973059848,-0.03418077321993671]",4.0,"[-0.18105759428065069,-0.05244448585398433]",4.0,"[0.09082156215133026,-0.09669690053870618]",4.0,"[-0.08121174252376955,0.028344568185941832]",100.0,"[-0.11424715871284767,-0.020940443095217497]",4.0,"[0.06471623129551578,-0.053713593755728775]",4.0,"[0.02825028030337644,0.06119076541916039]",4.0,"[0.041798856453735,-0.131958169196637]",4.0,"[-0.007364443184096217,-0.16572202472249167]",4.0,"[-0.024134422002841466,-0.03989738786443516]",4.0,"[-0.10399557081961876,-0.09347813001468123]",4.0,"[-0.15462922638231633,0.05938213476514664]",4.0,"[0.14110574681336668,0.1277551682204436]",4.0,"[-0.04650635129044519,0.09899364746121364]",4.0,"[-0.028016658788952917,-0.1279855053655977]",100.0,"[0.11801108378598203,-0.15773459830852998]",4.0,"[-0.1140147060585249,0.09611369789880636]",4.0,"[-0.13120853037665703,-0.13768201272561884]",4.0,"[-0.07442323577640474,0.13186726845648286]",4.0,"[-0.13708414625013138,-0.06483144919252429]",4.0,"[0.12909858939270621,0.0707188591749541]",4.0,"[0.1499572541093288,-0.12462391519920198]",4.0,"[-0.16266012097452365,-0.10966297687601638]",4.0,"[0.02,0.02]",209.228,0.0,2.0,2.0,188.0,1.0,,,,,,,
,,,,,,,602fb33786b077cdbad2d5bb,6842bb15d7ddfa007138f798,2025-06-06_11h56.00.260,shape_ratio,2024.1.5,Win32,60.0240096,6842b561977af9ba9b0f87ca,,,,,,,,,,,209.228,209.728,,,209.98,210.393,left,0.401,,,,,,,,,0.4,,,,,,209.728,209.98,210.393,"[-0.07400105695384596,0.15744533523378565]",4.0,"[0.12794355580782568,0.14376184407003606]",100.0,"[0.030621072252906018,-0.15960407381760383]",100.0,"[0.006434603820859443,-0.1103304220347795]",100.0,"[-0.06625426369753515,-0.07986733172829304]",4.0,"[0.0869851967920857,0.09306903909673384]",100.0,"[-0.1626811028948164,-0.057854356689847175]",100.0,"[0.032056711189046495,0.04542909071194402]",4.0,"[0.13464182434247512,-0.004464375221782085]",4.0,"[-0.12230913938343088,0.005671061342869224]",4.0,"[-0.1298655570730319,0.11059786277483784]",4.0,"[0.08778623425004527,0.1676715634051392]",100.0,"[-0.029629896118739476,-0.16403287821575707]",4.0,"[-0.008535936359027368,-0.03884913352412641]",4.0,"[-0.0666566608369586,-0.009224800856160634]",100.0,"[0.09843606341148595,0.04627671319644689]",100.0,"[0.1369741964343812,-0.13696445779408395]",4.0,"[-0.1543937121213877,-0.09774420559323435]",4.0,"[-0.10913440901593198,-0.10933722125341531]",4.0,"[-0.04444274227393396,0.04461561497457656]",4.0,"[0.03730772435006051,0.19401374295858181]",100.0,"[-0.08342337162725219,0.05709412286154261]",100.0,"[-0.15983342865534103,0.04850207665315098]",100.0,"[0.03798824512558742,-0.07462872020656797]",4.0,"[0.11125849211843712,-0.09405406120747048]",4.0,"[0.14346250221806237,0.08408911381265066]",100.0,"[0.04832729082168876,-0.11327811326902201]",4.0,"[-0.08013199208950593,-0.17723160363401344]",4.0,"[0.16749815960334538,-0.10669302010300095]",100.0,"[-0.014232169666849509,0.10765377457350067]",4.0,"[0.024244428975320243,0.0017172081724929347]",4.0,"[0.08896647492766875,-0.022257998358595894]",4.0,"[0.02,0.02]",211.494,0.0,3.0,3.0,164.0,1.0,,,,,,,
,,,,,,,602fb33786b077cdbad2d5bb,6842bb15d7ddfa007138f798,2025-06-06_11h56.00.260,shape_ratio,2024.1.5,Win32,60.0240096,6842b561977af9ba9b0f87ca,,,,,,,,,,,211.494,211.994,,,212.244,212.677,right,0.418,,,,,,,,,0.55,,,,,,211.994,212.244,212.677,"[-0.08006308630502175,-0.05754401039239644]",100.0,"[-0.06755967361930872,0.12377856715018809]",100.0,"[-0.08535524873544072,-0.10706950175705611]",100.0,"[0.1584881425807951,-0.0260781077197302]",100.0,"[-0.16828452961161372,-0.004133630320256033]",4.0,"[-0.11211396241791449,0.08821865479040193]",100.0,"[0.06295239777398066,0.14820768248167907]",4.0,"[0.10589498680272837,0.1120527749533519]",4.0,"[0.049366512392357245,-0.046840677120203296]",100.0,"[-0.004113757558161642,-0.07035200165108384]",4.0,"[-0.16741159284793986,-0.06229319481625561]",4.0,"[0.12336237029413244,0.005584352877051478]",100.0,"[-0.02295534421627373,-0.16943678386117006]",4.0,"[0.03550012150428466,0.010978201259062396]",100.0,"[-0.0010473570095749978,0.1369942344504338]",4.0,"[0.0411860270335312,-0.18923148074301907]",4.0,"[0.046898513348206584,-0.10272922792955755]",100.0,"[-0.009991777058003654,-0.012140745272136976]",100.0,"[-0.10423975137414533,0.14153716821187642]",100.0,"[0.010258785361413983,0.19530888970431168]",100.0,"[-0.021427776197158736,-0.10901503826420106]",100.0,"[0.17241554001051074,0.031950265817196656]",100.0,"[-0.057495671692175156,-0.143371045377586]",100.0,"[-0.05596379454505974,0.03272818179570431]",100.0,"[0.06669753183137296,-0.13918455933973053]",4.0,"[0.05191992474932305,0.07337353164538685]",4.0,"[-0.12615715766515626,-0.023833583822920036]",4.0,"[0.16813388934144088,0.08830462029665796]",100.0,"[0.08578481732829614,-0.06541446641526649]",4.0,"[0.11078798456491802,0.16236509282364345]",4.0,"[-0.08732376890423425,0.00405343618290822]",100.0,"[-0.1392598572579705,-0.11877008223977309]",4.0,"[0.02,0.02]",213.778,0.0,4.0,4.0,68.0,1.0,,,,,,,
,,,,,,,602fb33786b077cdbad2d5bb,6842bb15d7ddfa007138f798,2025-06-06_11h56.00.260,shape_ratio,2024.1.5,Win32,60.0240096,6842b561977af9ba9b0f87ca,,,,,,,,,,,213.779,214.278,,,214.528,215.077,left,0.534,,,,,,,,,0.4,,,,,,214.278,214.528,215.077,"[0.01987790457625082,-0.017246054102342447]",100.0,"[0.018686032579887404,-0.14452679790154435]",4.0,"[-0.060690192138218635,0.04086401274486015]",4.0,"[-0.1623432223311215,0.05488435730164852]",4.0,"[0.1685740289234215,0.06229643505291992]",100.0,"[-0.05053798984396218,0.14130362713227848]",4.0,"[-0.04093330901849042,-0.09140831218642895]",4.0,"[0.05321430351199769,0.17030054372745843]",4.0,"[-0.012151100949996082,-0.1891919122205251]",4.0,"[-0.08329771193605805,-0.07611261954157506]",4.0,"[-0.04088121094712177,-0.1597739677723326]",100.0,"[-0.14349878390035709,-0.024663833519731188]",4.0,"[-0.10256987226780329,0.11666260038747564]",100.0,"[0.09480865134867655,0.16088123004745603]",4.0,"[-0.012918733932438649,0.01608949174350452]",4.0,"[0.0126428713114507,-0.08943207031059487]",100.0,"[0.0020759639255664313,0.06136070877375612]",4.0,"[0.10337354083277724,-0.0813658973971473]",100.0,"[0.1729002385208814,-0.020940785574829323]",100.0,"[0.09077902166514863,0.04644309823836621]",4.0,"[0.13654449058569437,0.09106963627976582]",100.0,"[0.14522045405801365,-0.13709525394725244]",4.0,"[-0.19179896522593834,-0.0294828848443584]",4.0,"[-0.05074145642935556,-0.016076291571058533]",4.0,"[0.17740427620897462,0.022474394674763785]",100.0,"[-0.06676058700739648,0.09122161574284232]",100.0,"[-0.10683081908332315,0.0654394788563825]",4.0,"[-0.08502948559529569,-0.13418025504138786]",100.0,"[0.03297353793949275,0.12459236131833466]",100.0,"[-0.12656485173861157,-0.1533747868682266]",100.0,"[-0.08871298734623072,0.17491416721376218]",4.0,"[-0.15646579494860197,-0.0821108674082442]",4.0,"[0.02,0.02]",216.177,0.0,5.0,5.0,178.0,1.0,,,,,,,
,,,,,,,602fb33786b077cdbad2d5bb,6842bb15d7ddfa007138f798,2025-06-06_11h56.00.260,shape_ratio,2024.1.5,Win32,60.0240096,6842b561977af9ba9b0f87ca,,,,,,,,,,,216.178,216.677,,,216.928,217.327,right,0.384,,,,,,,,,0.9,,,,,,216.677,216.928,217.327,"[-0.10597784957041927,-0.038832665865063634]",100.0,"[-0.13953624505183027,0.01908108238153486]",4.0,"[0.05329768091027393,-0.061670874134865473]",100.0,"[-0.18082249479828139,-0.04012441230033413]",100.0,"[-0.050035213143202494,0.0472802498663642]",100.0,"[-0.01939193908770446,0.1341837299383427]",100.0,"[-0.008213348706825059,0.07601919812119066]",100.0,"[-0.1461402648350242,-0.10652635624485651]",100.0,"[0.05228479322030129,0.04012616335782949]",100.0,"[-0.08561335718377647,0.12230682742081457]",100.0,"[0.02776367509529837,-0.1847172574463406]",100.0,"[-0.06739281178186682,-0.06154838288705961]",100.0,"[0.16704065319970493,-0.058095747316217604]",100.0,"[-0.015064458365052033,0.1875803965698138]",100.0,"[-0.13443598124914405,0.10983109875372378]",100.0,"[0.13297015591190162,-0.08766596195758548]",100.0,"[0.1298880851879912,-0.00261746347786951]",100.0,"[0.0916945168005946,0.10367457816663275]",4.0,"[0.11486046415202864,0.14236541000028693]",100.0,"[0.11028257099011922,-0.13980134352252363]",100.0,"[0.03614627753776081,0.18165326567865442]",100.0,"[0.08944058882111042,-0.08377009719765555]",100.0,"[-0.054052521034496454,-0.14379841130836082]",100.0,"[0.10074382222298837,-0.030162837067680342]",100.0,"[-0.03331254449021289,-0.1064590728278305]",100.0,"[0.035383622600998615,-0.10750527053716422]",100.0,"[0.18608936328626854,-0.022898931698359493]",100.0,"[0.16831992109621496,0.023856096856059612]",100.0,"[-0.09347784930571017,-0.09618062334854627]",100.0,"[-0.16373594005554132,0.0612643116606005]",100.0,"[-0.00493461637319573,-0.06517783091830252]",4.0,"[-0.04101242357084729,-0.017121019660354245]",100.0,"[0.02,0.02]",218.428,0.0,6.0,6.0,10.0,1.0,,,,,,,
,,,,,,,602fb33786b077cdbad2d5bb,6842bb15d7ddfa007138f798,2025-06-06_11h56.00.260,shape_ratio,2024.1.5,Win32,60.0240096,6842b561977af9ba9b0f87ca,,,,,,,,,,,218.428,218.927,,,219.179,219.577,right,0.385,,,,,,,,,0.1,,,,,,218.927,219.179,219.577,"[-0.013246467239711136,-0.1188813435205174]",4.0,"[0.022309036616838744,0.11678462710349585]",4.0,"[-0.12429877520870879,0.08730907965776988]",4.0,"[0.14452903830750022,-0.00360420621283966]",4.0,"[-0.027494702716581637,0.10411415772333053]",4.0,"[0.13650069670544115,-0.14473090762172386]",4.0,"[-0.06179047049745253,-0.05729429147037655]",4.0,"[0.09618141462768742,0.07203836668723797]",4.0,"[0.00898966213537894,-0.08457314434059769]",4.0,"[-0.06496803833147093,0.15743339309716128]",4.0,"[-0.019693918317869014,0.15490050332572208]",4.0,"[-0.1700991101627909,0.008057686600305335]",4.0,"[0.018027475548959396,-0.02633234193978008]",4.0,"[0.08880450519940622,0.11790030323284165]",4.0,"[-0.0009938611948270258,-0.17739994644406062]",4.0,"[0.007266429556332516,0.06398701597403672]",4.0,"[-0.08326635417807116,0.05162483918460389]",4.0,"[-0.01959682974288853,-0.046887299405730144]",4.0,"[0.06709211307190927,-0.1859126261445415]",4.0,"[-0.13350338818067742,-0.10162089754576765]",100.0,"[-0.17516298470504682,-0.054445981303236544]",100.0,"[-0.11570018613475794,0.15872260173995942]",4.0,"[0.05708221089112388,-0.03982637871811934]",4.0,"[0.02295524589749098,0.19832095142330064]",4.0,"[0.09092293365494468,-0.13883352162692053]",4.0,"[0.025163361543000383,-0.13107633006663816]",4.0,"[-0.0879584744299282,-0.01379980551578864]",4.0,"[0.14733515892841864,0.09051434604818984]",4.0,"[0.14105928289421524,-0.06349649932334508]",4.0,"[0.18622149043056754,0.0007017291952818716]",4.0,"[-0.16110577913048213,0.06800736529195077]",100.0,"[0.18204928032035764,-0.050970154449643805]",4.0,"[0.02,0.02]",220.677,0.0,7.0,7.0,203.0,1.0,,,,,,,
,,,,,,,602fb33786b077cdbad2d5bb,6842bb15d7ddfa007138f798,2025-06-06_11h56.00.260,shape_ratio,2024.1.5,Win32,60.0240096,6842b561977af9ba9b0f87ca,,,,,,,,,,,220.678,221.181,,,221.431,221.785,left,0.344,,,,,,,,,0.1,,,,,,221.181,221.431,221.785,"[-0.01806968391578452,0.18845564009757088]",4.0,"[0.00944734367089754,0.126569151765883]",100.0,"[0.07423798542052844,0.009581029837532623]",4.0,"[0.03316454473230957,-0.015658338103203048]",4.0,"[0.05880730963950538,0.05669734421771948]",4.0,"[-0.029939128918459457,-0.038465764013019176]",4.0,"[0.08814539902348166,0.1780757155079428]",4.0,"[-0.0741935803010278,-0.033210420555699026]",4.0,"[0.049826849956390265,-0.07163921089549312]",4.0,"[-0.16716928794943356,-0.010460900217270228]",4.0,"[0.005148350121084666,-0.15980308242170596]",4.0,"[0.10480202206433448,0.12346821780370262]",4.0,"[0.04919543800362419,0.10868164951170833]",4.0,"[0.13827988773976957,-0.010575271086456695]",4.0,"[0.16793632739026781,0.10153328536107999]",4.0,"[0.09501830065992697,-0.12685319548569862]",4.0,"[-0.12469238667705283,0.009832153804035682]",4.0,"[0.1482621806229268,-0.051561234061445]",100.0,"[-0.13139432730823716,0.09578707632705455]",4.0,"[-0.0712266063123804,-0.16752755944694064]",4.0,"[0.17009928974293087,0.021697174145737505]",4.0,"[-0.0438249144682097,0.10449623967901782]",4.0,"[0.09985907388000743,-0.08303490666459043]",4.0,"[0.05647207625434234,-0.1137837216105164]",4.0,"[-0.14280981505860982,-0.137651083047203]",4.0,"[-0.01084397721244075,-0.08673704772896351]",100.0,"[-0.09734874556426888,0.04522595965045063]",4.0,"[-0.07749340764519907,0.18152031750134998]",4.0,"[-0.025373659307447546,0.04052037907151157]",4.0,"[0.06151361059428373,-0.18430551779772997]",4.0,"[0.14129531188008468,0.05302728738511614]",4.0,"[-0.17174362623993863,-0.05492915665155155]",4.0,"[0.02,0.02]",222.878,0.0,8.0,8.0,195.0,1.0,,,,,,,
,,,,,,,602fb33786b077cdbad2d5bb,6842bb15d7ddfa007138f798,2025-06-06_11h56.00.260,shape_ratio,2024.1.5,Win32,60.0240096,6842b561977af9ba9b0f87ca,,,,,,,,,,,222.878,223.377,,,223.628,224.027,right,0.384,,,,,,,,,0.6,,,,,,223.377,223.628,224.028,"[-0.04501549083190148,0.09465938105156253]",4.0,"[0.1289437355341041,-0.04400132772376083]",4.0,"[0.06014491292857212,-0.09868005454544437]",100.0,"[-0.11571140541666554,-0.005723558502396194]",100.0,"[-0.029140623423043417,-0.07278549103894748]",4.0,"[0.033338007531338844,0.12216141765870847]",4.0,"[-0.06520394368322097,-0.007805414197002469]",100.0,"[-0.0027762550378223855,0.10011234378681926]",100.0,"[-0.016925707129963035,0.18971237229977045]",4.0,"[-0.06845917862383535,-0.1864198608513646]",4.0,"[0.17507945407190895,0.05648562333393048]",100.0,"[0.1380991710014029,0.07409469831000406]",100.0,"[0.0893026889942516,0.10993005371130124]",100.0,"[-0.17874165415052273,0.019989891536644766]",4.0,"[0.15457197489427207,-0.08369391709960657]",4.0,"[-0.01424241230046206,0.015613500080115358]",100.0,"[0.015477102521589216,-0.040789985173039604]",100.0,"[-0.10446608860659702,0.10360453088017706]",100.0,"[0.10445599164688982,0.14701445917905745]",4.0,"[0.00952802323796846,-0.09778987799807637]",4.0,"[-0.1179864261276482,-0.10561205006864725]",100.0,"[0.026008064019393495,0.06278065982695907]",100.0,"[0.07767953796204476,-0.13901372576638008]",4.0,"[0.1788804193388529,0.008952722783446167]",100.0,"[0.024140893887897148,-0.1425123545768288]",100.0,"[0.05719307556677824,0.006681834123534138]",100.0,"[-0.10694497645314255,-0.1613792037364394]",4.0,"[0.06879346014705041,0.07423401827983106]",100.0,"[0.1297678192652571,-0.12121039405416066]",4.0,"[-0.021758820115447622,-0.1447296910442837]",100.0,"[-0.10901416410262188,0.058788322420318166]",100.0,"[0.12177222488484225,0.026037937933180436]",100.0,"[0.02,0.02]",225.128,0.0,9.0,9.0,36.0,1.0,,,,,,,
,,,,,,,602fb33786b077cdbad2d5bb,6842bb15d7ddfa007138f798,2025-06-06_11h56.00.260,shape_ratio,2024.1.5,Win32,60.0240096,6842b561977af9ba9b0f87ca,,,,,,,,,,,225.128,225.627,,,225.878,226.327,right,0.434,,,,,,,,,0.4,,,,,,225.627,225.878,226.327,"[0.09057783970633848,0.1690927081215662]",4.0,"[-0.09672807389708911,-0.011788303281945686]",4.0,"[-0.049978588012029035,-0.16558744516549104]",100.0,"[0.0657417040584935,-0.11453535348541202]",4.0,"[0.028935220379760627,-0.012506911727792794]",100.0,"[-0.11162690666725225,0.08520020900377691]",4.0,"[0.093517174463179,-0.05220112983979662]",100.0,"[-0.027476827838019108,-0.03333571741266117]",4.0,"[0.03620867719436903,-0.15744028133577795]",4.0,"[-0.18126185933745664,0.030872923270911443]",100.0,"[-0.14513926970681704,-0.06686145901838154]",4.0,"[-0.03546676408653387,0.10918601136462103]",4.0,"[-0.01787464584478985,0.17857763951046268]",4.0,"[0.06890500892094578,0.039029002871490234]",100.0,"[-0.02150183822490397,-0.09200849054913891]",4.0,"[-0.09576090924879298,-0.11031140766267854]",100.0,"[0.1808248889254295,0.00688151656778964]",4.0,"[0.16331146641301322,-0.08885541981891323]",100.0,"[0.011640649598130376,-0.1958696608043031]",100.0,"[0.1124502152125,-0.11715815174872722]",4.0,"[0.11759631700034849,0.04479366407560558]",4.0,"[-0.04820584139623364,0.010966006851642302]",100.0,"[0.032931321211534983,0.15835009671319583]",4.0,"[0.1115466861921408,0.1346769176133593]",100.0,"[-0.08270782136609338,0.16518026571653924]",4.0,"[0.02216854770866576,-0.10385957507943672]",100.0,"[0.17246691557905952,0.07785317717167066]",4.0,"[-0.0486074900131034,0.06296390849302694]",100.0,"[0.08159850414703623,0.09586142294967832]",100.0,"[-0.12349188760538042,-0.15028281812467423]",4.0,"[0.041030354680340685,-0.054731041718226243]",4.0,"[-0.11511492332642698,0.023811257609301483]",4.0,"[0.02,0.02]",227.429,0.0,10.0,10.0,150.0,1.0,,,,,,,
,,,,,,,602fb33786b077cdbad2d5bb,6842bb15d7ddfa007138f798,2025-06-06_11h56.00.260,shape_ratio,2024.1.5,Win32,60.0240096,6842b561977af9ba9b0f87ca,,,,,,,,,,,227.435,227.928,,,228.178,228.727,left,0.534,,,,,,,,,0.5,,,,,,227.928,228.178,228.727,"[0.08529868968741433,0.10682801190714174]",100.0,"[-0.06844126911349885,-0.12715723202378573]",100.0,"[0.15367742985300037,0.09567947341379353]",100.0,"[-0.11868193157534357,0.11995947684788895]",4.0,"[0.022206164536865407,0.06374208584644703]",100.0,"[0.13043301277820923,-0.09909044902789835]",100.0,"[0.07034369034018115,0.060698574907023094]",4.0,"[0.014356794203959829,0.17220833714853537]",100.0,"[0.11356917024313441,-0.15553238126434205]",4.0,"[0.015768716363096555,-0.15156503667310617]",100.0,"[-0.04166736974339983,0.1218083978652133]",4.0,"[-0.09799246497285681,-0.07060183475675978]",4.0,"[0.07316009117772049,-0.12651968831590532]",4.0,"[-0.052348197665581526,-0.00004580412959983918]",100.0,"[0.11341027227931723,0.02252840837262778]",4.0,"[0.08416332747451032,-0.07517244897158974]",4.0,"[-0.12255124413820102,-0.12056005786896558]",100.0,"[-0.11035581484186373,0.05451866830802171]",100.0,"[-0.18251462472154686,-0.007537664260899368]",4.0,"[0.023836256574211775,0.015580001772077738]",4.0,"[-0.13747133253765453,-0.03145500376600308]",4.0,"[-0.09914048080046808,-0.0067497359273169235]",100.0,"[0.002591485938341925,-0.09498713333060081]",100.0,"[0.024825212724029298,-0.05372759816005369]",4.0,"[0.09137503007065145,0.14850691679916925]",100.0,"[-0.17881662514037117,0.045818839220502214]",4.0,"[-0.029028288933838884,-0.17607103270216162]",100.0,"[0.03834654328649705,0.12180301327657059]",4.0,"[0.10799438795613443,-0.03593836296087344]",4.0,"[0.1676511997560233,-0.010057233186541562]",100.0,"[-0.00816909618344395,0.09378245273289872]",100.0,"[0.05834007249232878,-0.17902639265918643]",4.0,"[0.02,0.02]",229.827,0.0,11.0,11.0,112.0,1.0,,,,,,,
,,,,,,,602fb33786b077cdbad2d5bb,6842bb15d7ddfa007138f798,2025-06-06_11h56.00.260,shape_ratio,2024.1.5,Win32,60.0240096,6842b561977af9ba9b0f87ca,,,,,,,,,,,229.828,230.328,,,230.578,231.261,left,0.667,,,,,,,,,0.4,,,,,,230.328,230.578,231.261,"[-0.014100771846250406,-0.04713297223988136]",100.0,"[0.09460689694928968,0.12060131146204342]",4.0,"[0.15019760807785051,-0.09751284829796343]",4.0,"[0.04788099174313044,-0.06872726161553544]",100.0,"[-0.1688121707219314,0.10262156762985251]",4.0,"[-0.030539981916373013,0.17323639782938835]",100.0,"[-0.08654259676366378,0.0709434391476287]",4.0,"[0.08950877823094613,-0.12218957475414496]",100.0,"[0.05473792107003728,0.008964591478770309]",100.0,"[0.033669923933559005,-0.12292872126319565]",4.0,"[0.048998320491924235,0.08057863018249163]",4.0,"[0.1886126478616441,0.017280682292112156]",100.0,"[-0.09353675938919477,-0.11463180793148875]",100.0,"[0.00891274465480639,-0.08317727553452367]",100.0,"[-0.014022801281138244,-0.14556936295117148]",4.0,"[-0.0907391120756903,0.14665353591081673]",4.0,"[0.13593612214727346,0.11182151238103581]",4.0,"[-0.05775251428570365,0.10820003044887928]",4.0,"[0.1652528808395922,-0.04060537142434411]",100.0,"[-0.029267683509071756,-0.0031536637580031634]",100.0,"[0.0056905909071951425,-0.1961979329747896]",100.0,"[-0.19657411195989832,-0.0011877531692576961]",100.0,"[-0.0671664694797043,-0.14732512362513814]",4.0,"[-0.03352010326124271,-0.10441657482675797]",4.0,"[-0.15282116107305327,-0.01862884086259893]",4.0,"[0.039910671210119326,0.12879834546301538]",4.0,"[0.10169131798157893,-0.006104855912461521]",4.0,"[-0.12073518421784628,0.024362712330769396]",4.0,"[-0.07975694432038201,-0.037861270216152355]",4.0,"[-0.13289977883088885,-0.10105123246484242]",4.0,"[0.16324387194572748,0.058181653570515704]",100.0,"[0.022073151041759907,-0.02021685262921172]",4.0,"[0.02,0.02]",232.362,0.0,12.0,12.0,161.0,1.0,,,,,,,
,,,,,,,602fb33786b077cdbad2d5bb,6842bb15d7ddfa007138f798,2025-06-06_11h56.00.260,shape_ratio,2024.1.5,Win32,60.0240096,6842b561977af9ba9b0f87ca,,,,,,,,,,,232.363,232.86,,,233.111,233.577,left,0.451,,,,,,,,,0.55,,,,,,232.86,233.111,233.577,"[-0.0716548757150339,-0.0043083089079292555]",100.0,"[-0.12419951444405537,0.08600680909620431]",4.0,"[0.06183347981595776,0.18666983910191137]",100.0,"[0.10542830639446497,0.08896043582499208]",100.0,"[-0.12452825153666662,0.02823443597944438]",4.0,"[0.01777960270875251,0.09760540803233214]",100.0,"[-0.1593346341538214,-0.11790659388383531]",4.0,"[0.09751085617338888,0.021083005256685796]",100.0,"[0.07101796514070587,-0.17015057366702724]",4.0,"[0.13131800613656516,-0.06571767251442863]",4.0,"[0.1623072226682083,-0.012052639986619103]",100.0,"[0.059011258756223005,-0.11615280793227474]",100.0,"[0.014053983391396059,-0.1111935562627964]",100.0,"[-0.007624216594477351,0.13225477181673062]",100.0,"[-0.0763655423354109,-0.16808894803611857]",100.0,"[0.16866798236764752,-0.08920534646348804]",4.0,"[0.029143007905787655,-0.15980879880218601]",4.0,"[-0.03115838381559414,0.1799898871958721]",100.0,"[-0.01909304546877077,-0.04697680772815388]",4.0,"[-0.11459032759179374,-0.011775016878660038]",100.0,"[0.031676776896703056,0.018803481345840856]",4.0,"[-0.1795998133280142,0.0487340311613654]",100.0,"[-0.03688136934272755,-0.1336516832343343]",100.0,"[-0.08880966547097796,-0.055771975242434574]",4.0,"[0.13241462942980106,0.12191270785844657]",100.0,"[0.14701449782108986,0.031670832568710304]",100.0,"[-0.051233260217668664,0.1451643060825128]",100.0,"[-0.06618136894508826,0.043187471501312344]",4.0,"[0.1115317846738431,-0.13049368363961247]",4.0,"[-0.013332433075052596,0.0024913798527777]",4.0,"[0.18126242520665017,0.07070671000045511]",4.0,"[-0.028661913822450112,0.0687199844288008]",100.0,"[0.02,0.02]",234.677,0.0,13.0,13.0,78.0,1.0,,,,,,,
,,,,,,,602fb33786b077cdbad2d5bb,6842bb15d7ddfa007138f798,2025-06-06_11h56.00.260,shape_ratio,2024.1.5,Win32,60.0240096,6842b561977af9ba9b0f87ca,,,,,,,,,,,234.678,235.178,,,235.429,235.811,right,0.366,,,,,,,,,0.9,,,,,,235.178,235.429,235.811,"[0.10676476678390934,0.1183905532820704]",100.0,"[-0.018564907430105488,0.1859247372719672]",100.0,"[0.12738988952501246,-0.0954568745360276]",4.0,"[-0.03370628327780924,0.0718558017321663]",4.0,"[-0.10984302613898676,-0.12478699099812472]",100.0,"[-0.06610443615730241,-0.12572975748671225]",100.0,"[0.027083754591519463,0.18685120458814344]",100.0,"[0.054453434399976304,-0.1032563662618519]",100.0,"[-0.0018673504779517071,-0.17584687102609944]",100.0,"[-0.08271089629690676,0.013171526115017476]",100.0,"[0.06576660283027097,-0.042876385457524806]",100.0,"[-0.1531961253082621,-0.08489801271232103]",100.0,"[-0.12337004785228105,-0.0318690754729735]",100.0,"[0.063775361001493,-0.1459983822365831]",100.0,"[0.03857417907277793,0.0687835290194542]",4.0,"[0.13302581634398802,-0.1435814609229871]",100.0,"[-0.0480408212845422,-0.01483509608060101]",100.0,"[-0.015876037419644495,0.14436943760172827]",100.0,"[0.17968971956712265,-0.03942575333235398]",100.0,"[0.15811217342676584,0.008005720576648423]",100.0,"[-0.04165308012259573,-0.16937174075559103]",100.0,"[-0.06780232513542311,0.14135059148558804]",100.0,"[-0.1016784605156454,0.056573517645801055]",100.0,"[0.10360209374939293,-0.00500703406931064]",100.0,"[-0.017818304296261803,-0.08048053201592262]",100.0,"[-0.0907561115614438,0.10535766309351464]",100.0,"[0.14692876529943716,0.08613529772604749]",100.0,"[0.018905193901144583,-0.13532400250228013]",100.0,"[0.022842084845907384,0.11509943259938879]",100.0,"[0.03688878624367629,0.022830313821438162]",100.0,"[-0.16334933802728102,-0.039053067985634]",100.0,"[0.05174568083053909,0.15144196566663656]",100.0,"[0.02,0.02]",236.91,0.0,14.0,14.0,9.0,1.0,,,,,,,
,,,,,,,602fb33786b077cdbad2d5bb,6842bb15d7ddfa007138f798,2025-06-06_11h56.00.260,shape_ratio,2024.1.5,Win32,60.0240096,6842b561977af9ba9b0f87ca,,,,,,,,,,,236.912,237.411,,,237.661,238.077,right,0.4,,,,,,,,,0.9,,,,,,237.411,237.661,238.078,"[0.15817837500795323,-0.046578504677399594]",100.0,"[-0.08946518912223307,-0.018710401394379145]",4.0,"[0.047243636321370706,0.1712676974385775]",100.0,"[0.1815191241379067,-0.011263433613839692]",100.0,"[-0.004032052109465308,-0.07921096147771961]",100.0,"[-0.01206430756999587,0.04260179478548765]",100.0,"[0.009041869023763402,0.11845550997879828]",100.0,"[0.15683598484360825,0.03394384281269598]",100.0,"[-0.033303266775808645,0.15438773232456895]",100.0,"[0.04806529273162295,-0.04323864628256699]",100.0,"[-0.03634632100954668,-0.15357414798480135]",100.0,"[-0.17426338354323795,-0.04656054550343186]",100.0,"[-0.15297833254668883,0.10988481336141209]",100.0,"[0.06437952237073281,0.06287982285175515]",100.0,"[0.12012424092749079,0.0567892467102347]",100.0,"[-0.035598291084423236,-0.01585599130938148]",100.0,"[-0.10367149115071168,0.11921493872366837]",100.0,"[-0.10916612841958186,0.04459690659143994]",100.0,"[0.00018556538807286736,0.18844279956191964]",100.0,"[0.09042034112932563,-0.1706330503622918]",100.0,"[-0.07295074446665006,-0.09425675434439819]",100.0,"[-0.1529785279602314,0.027790436223483966]",100.0,"[-0.14408274825421882,-0.08812840998954072]",100.0,"[0.1135299509411258,0.1187516710063827]",100.0,"[-0.07932326084605851,-0.16641792068547576]",100.0,"[0.12110439314946278,-0.09108326911833696]",100.0,"[0.11669928237388784,-0.0011043885636701674]",4.0,"[-0.11249201665300011,0.15832462725804336]",100.0,"[0.06959358295158281,0.02095210459509721]",100.0,"[-0.19480611824965105,0.03148653953618804]",100.0,"[-0.05827998426223468,0.020890146523164326]",4.0,"[0.049886698180602436,-0.13087631460476618]",100.0,"[0.02,0.02]",239.177,0.0,15.0,15.0,8.0,1.0,,,,,,,
,,,,,,,602fb33786b077cdbad2d5bb,6842bb15d7ddfa007138f798,2025-06-06_11h56.00.260,shape_ratio,2024.1.5,Win32,60.0240096,6842b561977af9ba9b0f87ca,,,,,,,,,,,239.177,239.677,,,239.928,240.544,right,0.602,,,,,,,,,0.4,,,,,,239.678,239.928,240.544,"[0.05442620801561474,0.14861872075324725]",100.0,"[-0.0069061040376185556,-0.06709261347518988]",100.0,"[0.06264393490342715,0.08464431849587584]",100.0,"[-0.15012822143336446,0.04962810464707063]",4.0,"[0.1440537273420403,0.07987519119814081]",100.0,"[-0.08001674200240887,0.16268471511512153]",4.0,"[0.07828185763715176,0.010551427916436576]",4.0,"[0.1406973038967041,-0.060965988162155656]",4.0,"[0.1796434386974365,-0.01579818291302981]",100.0,"[0.10026030411400204,0.1673354720337591]",100.0,"[0.0453987832503437,-0.12224919512162764]",100.0,"[-0.0010270775766186265,0.039458135804572005]",4.0,"[-0.07753469174863427,-0.14451196620351303]",4.0,"[-0.07523479812900949,0.011821440428952789]",4.0,"[0.0484154446278295,-0.03197737824210172]",4.0,"[-0.025468636272838747,-0.1528874201103444]",4.0,"[-0.05645763854142467,-0.10561678877849694]",100.0,"[-0.1196415022602132,0.11986867936422503]",100.0,"[-0.12017628910144725,-0.07235861517601913]",4.0,"[-0.17766099969813254,-0.025474504012150102]",4.0,"[-0.007106939843303734,0.1499445201609409]",4.0,"[0.018995103730845436,0.0015443714568032564]",4.0,"[0.15645296781940088,0.02070926802223395]",100.0,"[-0.053543679581498735,0.07249204693218382]",4.0,"[-0.17893740124831964,-0.08677690820136123]",4.0,"[-0.017018540788218885,-0.1978710282839326]",4.0,"[-0.009461317465523554,-0.11119683358320126]",4.0,"[-0.12425373231651704,0.006895634551628576]",4.0,"[0.08915673820023307,-0.07224321454735683]",100.0,"[0.04240662278710964,0.04810773394847977]",4.0,"[0.12033644020554754,-0.14340010360749167]",100.0,"[0.0015478799539006896,0.08275239976262451]",100.0,"[0.02,0.02]",241.645,0.0,16.0,16.0,168.0,1.0,,,,,,,
,,,,,,,602fb33786b077cdbad2d5bb,6842bb15d7ddfa007138f798,2025-06-06_11h56.00.260,shape_ratio,2024.1.5,Win32,60.0240096,6842b561977af9ba9b0f87ca,,,,,,,,,,,241.645,242.144,,,242.395,242.861,left,0.45,,,,,,,,,0.1,,,,,,242.144,242.395,242.861,"[-0.05170714374499069,-0.07966271371237403]",4.0,"[0.09524908324847409,0.13987574900695607]",100.0,"[0.13641735062189034,-0.08562438545674214]",4.0,"[0.005874752948123904,-0.1004868229154836]",4.0,"[-0.13340798623196376,-0.08696076473075304]",4.0,"[-0.043300601892307486,0.0010670630814817645]",4.0,"[0.04254937417871393,0.1930056298955312]",4.0,"[-0.05711988911574699,-0.17867095088650034]",4.0,"[0.011243460703242399,-0.17015436984258317]",4.0,"[-0.10246916720856454,0.08109792158973118]",4.0,"[-0.06444152326075757,0.16111646173711372]",4.0,"[0.0983071250029259,-0.1308724466745652]",4.0,"[-0.0000029609819965171518,0.011223648499269889]",4.0,"[-0.17720457452066146,0.054922413091842405]",4.0,"[0.04749755105122565,-0.05532885127217589]",4.0,"[-0.14336082422489266,0.02057958052873376]",100.0,"[0.03417405827788909,-0.13501887867059995]",4.0,"[-0.19170092793184615,-0.004476823836423212]",4.0,"[-0.11918675555811978,-0.012659945725428806]",4.0,"[0.11848433890167612,0.060144144018379204]",4.0,"[-0.05589599063369386,0.09500075747132199]",4.0,"[0.08251298440983934,-0.013383616381289069]",4.0,"[-0.09918463358011348,-0.05329851335217657]",4.0,"[0.16812413275648264,-0.028294668148439117]",4.0,"[0.1297236033313391,-0.005022033107533801]",4.0,"[-0.14130258919786684,0.11494407995927759]",4.0,"[-0.010226794465119517,0.18558465446878253]",4.0,"[-0.023619239222316103,-0.04643902151713627]",4.0,"[0.06212456958918782,0.09060948232124295]",4.0,"[0.04181141424620063,0.032578101647807875]",4.0,"[-0.09927574320164533,0.1414126551085205]",100.0,"[-0.05258597843685181,0.051319470198306745]",4.0,"[0.02,0.02]",243.963,0.0,17.0,17.0,202.0,1.0,,,,,,,
,,,,,,,602fb33786b077cdbad2d5bb,6842bb15d7ddfa007138f798,2025-06-06_11h56.00.260,shape_ratio,2024.1.5,Win32,60.0240096,6842b561977af9ba9b0f87ca,,,,,,,,,,,243.964,244.461,,,244.711,245.177,left,0.45,,,,,,,,,0.5,,,,,,244.461,244.711,245.177,"[-0.1521001314931417,0.08946900306505594]",4.0,"[0.08024026163755683,0.088501167899735]",100.0,"[-0.016424154366347594,-0.11459608039351385]",100.0,"[0.14291930062038816,-0.043492679828723395]",4.0,"[0.16272820238360533,0.11165329204148178]",4.0,"[0.1850861437983145,0.05492524417647024]",100.0,"[-0.19097430730744885,0.052437916130091564]",100.0,"[0.026345105708531914,0.07702269246475707]",4.0,"[-0.014440917699037938,0.08151647480910851]",100.0,"[-0.1359335383287575,0.04817722071355615]",4.0,"[-0.1349039169369144,-0.02283894493821206]",4.0,"[0.04394206175906903,0.040409346333266476]",100.0,"[-0.02799211954703505,0.17650638469737362]",100.0,"[-0.06179063998911983,0.14177943588181238]",100.0,"[-0.05549724431213426,-0.04644065130123088]",4.0,"[0.1184651480998004,0.01989770720427059]",4.0,"[0.12124372922374839,0.08413100511447041]",100.0,"[0.10293436905704642,-0.0807344817547693]",100.0,"[0.004088274346672281,0.015943398029501454]",4.0,"[0.08082027204295751,0.152582054537104]",4.0,"[-0.09198335765952488,-0.1727776679356636]",100.0,"[0.05481761365950614,-0.10608590292202101]",100.0,"[0.0332482630115741,0.13464520825850412]",4.0,"[-0.08807281147315554,0.056022255132879124]",4.0,"[0.10604321389049602,-0.1581211885672018]",100.0,"[0.1574236226374359,-0.09141532403888844]",100.0,"[-0.1853261209900836,-0.032112932885518655]",4.0,"[-0.044291800169347514,-0.19197500405328805]",4.0,"[0.03820280796381349,0.18454645131586236]",100.0,"[-0.07820237759985116,-0.13424548990520624]",100.0,"[-0.11701300176397204,-0.12317506830312584]",4.0,"[0.006346033011125092,-0.16846103615068617]",4.0,"[0.02,0.02]",246.278,0.0,18.0,18.0,97.0,1.0,,,,,,,
,,,,,,,602fb33786b077cdbad2d5bb,6842bb15d7ddfa007138f798,2025-06-06_11h56.00.260,shape_ratio,2024.1.5,Win32,60.0240096,6842b561977af9ba9b0f87ca,,,,,,,,,,,246.278,246.777,,,247.028,247.478,right,0.434,,,,,,,,,0.4,,,,,,246.777,247.028,247.478,"[0.19362674340319685,0.02853633593933155]",100.0,"[0.12250729487850592,0.07595520572460965]",100.0,"[-0.05543697330427298,0.14957450260749008]",100.0,"[-0.08950438644425145,-0.07253439090780955]",100.0,"[0.15334524429061097,0.11883828096148083]",4.0,"[0.06677587034012583,0.09131240615261244]",100.0,"[0.014952063756761017,0.10245252543458888]",4.0,"[0.1287792427291848,-0.1357397959608071]",100.0,"[0.017854310048450117,-0.08801593806460244]",4.0,"[0.05582194624968125,0.15085562130922725]",100.0,"[-0.09119616265557769,-0.11410110502690846]",4.0,"[0.07559761317452442,-0.100040498086112]",4.0,"[0.14729526687839692,0.0015083666121643406]",4.0,"[-0.06565077179298305,0.07164330421522612]",4.0,"[-0.10654490059029965,0.10969588502739486]",4.0,"[0.10118741792106514,0.010322194177933104]",4.0,"[-0.11649993245269902,0.16026886114835096]",4.0,"[0.035187145503932614,-0.19657715240703655]",4.0,"[-0.10894034404528448,0.006122204024824215]",100.0,"[-0.034887620916289455,0.02496066889491807]",4.0,"[-0.15510396248272734,-0.03396774527031342]",4.0,"[0.05896767771949285,-0.03521796228717528]",4.0,"[-0.019480066990925634,-0.11295982112041185]",4.0,"[-0.04796840415868767,-0.1603158176229687]",100.0,"[-0.19179281562323294,0.010095864657987423]",4.0,"[-0.1323092461695596,-0.06707780486671576]",4.0,"[0.10064742202273214,-0.032370954691296375]",100.0,"[-0.16418461165243492,0.11231520540932173]",100.0,"[0.023554078942142898,-0.00091434606624043]",100.0,"[0.08803481811590959,-0.15127529305850193]",4.0,"[-0.12611907529246952,0.04790380580616946]",4.0,"[-0.012915904281627828,0.1973768196228701]",100.0,"[0.02,0.02]",248.578,0.0,19.0,19.0,167.0,1.0,,,,,,,
,,,,,,,602fb33786b077cdbad2d5bb,6842bb15d7ddfa007138f798,2025-06-06_11h56.00.260,shape_ratio,2024.1.5,Win32,60.0240096,6842b561977af9ba9b0f87ca,,,,,,,,,,,248.578,249.077,,,249.328,249.811,left,0.47,,,,,,,,,0.5,,,,,,249.077,249.328,249.811,"[-0.014791435596635361,-0.13949988025624788]",4.0,"[-0.15212887897751703,-0.006011532280518969]",4.0,"[-0.05041393903285724,-0.06354926580910931]",4.0,"[0.025316970205655757,-0.0601948727876427]",4.0,"[0.1444108027614422,0.09938325248916062]",100.0,"[0.1335922202188839,-0.042045538719146236]",100.0,"[0.085025783353438,0.16783192476924827]",4.0,"[-0.10377978008016406,0.04064159156859445]",100.0,"[0.0959505270155429,-0.10435974246237698]",4.0,"[-0.12321529033972996,0.09928391825387692]",4.0,"[-0.0035319710814918494,0.0541116984808175]",4.0,"[-0.09426154591074307,-0.15345212924752505]",4.0,"[0.15103435515874858,-0.12204151243848128]",100.0,"[0.0544311214931335,-0.005287372294720046]",4.0,"[0.04226058447474173,-0.11052117138986259]",100.0,"[0.0651738163186565,-0.186897631883332]",100.0,"[-0.17645021231948096,0.04332677108871732]",100.0,"[0.1867864768610996,-0.001358103021950934]",100.0,"[-0.049104847692137917,0.09534646687743273]",100.0,"[0.013057222536513985,0.1489446856403015]",100.0,"[-0.006524138071556744,-0.19690536504407036]",100.0,"[0.10570511040726599,0.022315251524971297]",4.0,"[0.03791644003378056,0.09971613341228788]",4.0,"[-0.1946097872571118,-0.018978688025337264]",4.0,"[-0.05251170445420933,-0.18987513905975212]",100.0,"[0.1873995806689617,0.057047350564012125]",4.0,"[-0.07848502732841836,-0.019185046153180445]",4.0,"[-0.17812852445750038,-0.06018910055103951]",100.0,"[0.07360984373254842,0.05893516870775841]",100.0,"[-0.0738358721541104,0.16122681439737976]",100.0,"[-0.14106772799307016,-0.08698698523037697]",100.0,"[-0.13388556684500394,0.14198280840412394]",4.0,"[0.02,0.02]",250.911,0.0,20.0,20.0,104.0,1.0,,,,,,,
,,,,,,,602fb33786b077cdbad2d5bb,6842bb15d7ddfa007138f798,2025-06-06_11h56.00.260,shape_ratio,2024.1.5,Win32,60.0240096,6842b561977af9ba9b0f87ca,,,,,,,,,,,250.912,251.411,,,251.661,252.21,right,0.534,,,,,,,,,0.45,,,,,,251.411,251.661,252.21,"[0.149748831606857,-0.04719259090029107]",4.0,"[0.01460449709074979,-0.02978826806006665]",100.0,"[0.025634017072804757,0.061198632152651034]",100.0,"[-0.15006317551263432,-0.03507195736876816]",4.0,"[0.1532618134587149,0.08157538999683944]",100.0,"[0.08298195605041454,0.04198427151494615]",100.0,"[-0.06162074167461584,0.0998375886959359]",4.0,"[-0.0570751193214434,-0.08561852077507291]",100.0,"[-0.07798993706829414,0.14625312277477873]",100.0,"[0.11355045326405695,-0.0018547849422881223]",4.0,"[-0.11610849437561867,0.0910242656419055]",4.0,"[0.19822795226747397,0.004329796016319907]",4.0,"[-0.07120038140600755,0.006911883378331004]",4.0,"[-0.010547229241536279,0.042309914168116705]",100.0,"[0.09473773333656778,-0.12426657454675365]",4.0,"[-0.07923312743432462,-0.1772078629683274]",4.0,"[0.09373854732230423,-0.07861367985168834]",100.0,"[0.06203337880338263,-0.18444633833678115]",4.0,"[0.04979588958872739,-0.0795718360160105]",4.0,"[0.06727674247372654,0.1614947142035781]",100.0,"[0.09996040191733528,0.07970979256197668]",4.0,"[-0.0407121562162241,-0.025465096815192028]",100.0,"[0.10646956311725103,0.13273246594146568]",100.0,"[-0.1169752050709635,-0.13256210584344238]",4.0,"[-0.009449786767431027,0.11451639131044332]",100.0,"[-0.016607003414059202,0.17966834661075967]",4.0,"[0.0054504444824170365,-0.14659071108798516]",100.0,"[-0.15005543813995356,0.06421913786091828]",4.0,"[-0.10421592284594129,0.031044463445184318]",4.0,"[0.04944773037823434,0.00701073870489588]",4.0,"[0.03346983557479563,0.1104016837050528]",100.0,"[-0.11105830999815636,-0.014276567434678507]",4.0,"[0.02,0.02]",253.311,0.0,21.0,21.0,121.0,1.0,,,,,,,
,,,,,,,602fb33786b077cdbad2d5bb,6842bb15d7ddfa007138f798,2025-06-06_11h56.00.260,shape_ratio,2024.1.5,Win32,60.0240096,6842b561977af9ba9b0f87ca,,,,,,,,,,,253.311,253.81,,,254.051,254.477,left,0.416,,,,,,,,,0.1,,,,,,253.811,254.05,254.477,"[0.0667831781853786,-0.15155929064670312]",4.0,"[-0.08859245541847284,0.0814877857535047]",4.0,"[0.18025422407237984,-0.060527850458730416]",4.0,"[0.023727215602628915,0.07148741084211291]",4.0,"[0.11177399208195223,-0.11623379294975086]",4.0,"[0.13193494031798714,0.09315983105192933]",100.0,"[0.05723477334708673,-0.04933952374315785]",4.0,"[-0.06198314858699202,0.041389323313078874]",4.0,"[-0.04248612124391252,-0.08141844159898048]",4.0,"[-0.16632027831705237,0.052798463485743796]",4.0,"[-0.08628821130344326,-0.04117322893865947]",4.0,"[-0.17496825352237125,0.09427917145203538]",4.0,"[-0.01947359587287793,0.03476044656425145]",4.0,"[-0.12313376121710524,0.11931896626648647]",4.0,"[-0.02178963371553667,0.1450459749927198]",4.0,"[-0.11693270897970058,-0.005541620334661382]",4.0,"[-0.09152658620998229,-0.14971914568381917]",4.0,"[0.10988296250037202,-0.030523817819982178]",4.0,"[0.00632599496461457,-0.028042865248310938]",4.0,"[0.1617464990602218,0.06080864378337154]",4.0,"[-0.0727200087886701,0.1690492997588167]",4.0,"[-0.039786182156339354,0.07625609209477097]",4.0,"[0.046126905516640476,0.17712858255757236]",100.0,"[-0.03653322244134961,-0.15273684662295903]",4.0,"[0.03574660350498783,0.11174814406739848]",4.0,"[-0.1663345804104429,-0.06354699057441875]",4.0,"[0.004762753451571861,-0.16459049661765976]",100.0,"[-0.11368083319719768,-0.09041404285264398]",4.0,"[0.08185859738609237,0.0812771768363081]",4.0,"[0.061597781795548666,0.04221208663716538]",4.0,"[0.08730840297972531,0.12466373341381286]",4.0,"[0.018755161417230028,-0.10661000154493255]",4.0,"[0.02,0.02]",255.578,0.0,22.0,22.0,199.0,1.0,,,,,,,
,,,,,,,602fb33786b077cdbad2d5bb,6842bb15d7ddfa007138f798,2025-06-06_11h56.00.260,shape_ratio,2024.1.5,Win32,60.0240096,6842b561977af9ba9b0f87ca,,,,,,,,,,,255.578,256.077,,,256.328,256.728,right,0.384,,,,,,,,,0.5,,,,,,256.078,256.328,256.728,"[-0.14050108405096348,0.09568080962742118]",100.0,"[-0.13278845091051025,0.03883215082080074]",4.0,"[0.028522367142495755,-0.12158856372144795]",4.0,"[0.1135542071903412,-0.10853402332713054]",100.0,"[0.1671065809382757,-0.08393224558385763]",100.0,"[0.1259377523843228,0.04321818238869218]",4.0,"[-0.10573589192857162,-0.12221430534160313]",4.0,"[-0.025386018121013668,-0.16825763117035955]",4.0,"[-0.1366470631558421,-0.05167092983108826]",4.0,"[0.057808366927916056,-0.08137405893177922]",100.0,"[0.18151510842568583,-0.009934216508508053]",4.0,"[-0.1862394745417748,0.06264699460813686]",100.0,"[-0.02433188840213637,0.06221871757890837]",100.0,"[0.1769932096201914,0.042708613120991994]",4.0,"[-0.0024574810662858024,-0.010019769258287096]",100.0,"[0.018730210039831288,0.18751737841899535]",4.0,"[-0.13149192297408227,0.14174453838794893]",4.0,"[0.04648359094243008,-0.029675100053460846]",100.0,"[0.0663014332559592,-0.16548560892544245]",100.0,"[0.07377832857003062,0.07558249412854302]",4.0,"[-0.05497377473925164,0.13910633668417538]",100.0,"[-0.19782082404667017,-0.027526814238784596]",4.0,"[-0.09660771109731597,0.09815451904051221]",100.0,"[-0.08956786590421913,0.018927798723623063]",4.0,"[-0.048101789249596245,-0.1310875340625514]",100.0,"[0.12464097493993681,0.09941608263658609]",4.0,"[0.120059364662936,-0.030854461724901812]",100.0,"[-0.14928806993182026,-0.010911266902713863]",4.0,"[-0.002341671282844458,0.1532989829615547]",100.0,"[-0.02881758031353492,-0.07879589269572172]",100.0,"[-0.08230573673507463,0.1696594307230813]",4.0,"[-0.15183458916212972,-0.10647716361899368]",100.0,"[0.02,0.02]",257.829,0.0,23.0,23.0,91.0,1.0,,,,,,,
,,,,,,,602fb33786b077cdbad2d5bb,6842bb15d7ddfa007138f798,2025-06-06_11h56.00.260,shape_ratio,2024.1.5,Win32,60.0240096,6842b561977af9ba9b0f87ca,,,,,,,,,,,257.831,258.327,,,258.579,259.077,right,0.485,,,,,,,,,0.55,,,,,,258.328,258.579,259.077,"[0.1453245701874384,-0.013968358698224138]",4.0,"[-0.039998146850855704,-0.052621303265174724]",100.0,"[0.08306678147025083,0.1326093449052742]",100.0,"[-0.07242390139496023,0.06568917523607046]",100.0,"[-0.10777932480721807,-0.08389727165596432]",4.0,"[0.08594719477755289,0.08445903740061977]",100.0,"[-0.13458332655903524,-0.1139130663943946]",4.0,"[0.016731638146190657,-0.0700437749029185]",100.0,"[-0.027331555384529815,0.08342228658964225]",100.0,"[0.1134595653386753,-0.12345458307510933]",100.0,"[0.016662385921649505,-0.15265757853768788]",100.0,"[0.02936646981623103,-0.020784932209045988]",4.0,"[-0.04752360513346916,-0.10387953612593429]",100.0,"[-0.08498166533991851,0.13430350038086425]",4.0,"[-0.13412286604775775,0.09180056542512062]",100.0,"[0.005977396186813424,0.159092062556318]",100.0,"[0.19603330205808728,-0.006975941743754377]",4.0,"[-0.04781536282262335,-0.163213266135636]",100.0,"[-0.0318393848686879,-0.00044514639065102395]",4.0,"[-0.13841609789409173,0.007166799625353258]",4.0,"[0.10981557815275661,0.01730290918762254]",4.0,"[0.16481718357368802,-0.09673659003853109]",4.0,"[0.05479026852560175,-0.08584793024939195]",100.0,"[0.011413331853305661,-0.1985383361952815]",4.0,"[0.18212297449294634,0.055035505431959654]",100.0,"[0.026807166548445716,0.11141790451616722]",100.0,"[0.04286416115309916,0.05039728588609783]",100.0,"[0.15202229640986725,0.11145358695366869]",100.0,"[-0.19101493913556133,0.056033761414265415]",100.0,"[-0.17418309184966257,-0.0760836413594784]",4.0,"[-0.09836503191376651,-0.1357193674207867]",4.0,"[0.014829258416184179,0.02119116983576815]",4.0,"[0.02,0.02]",260.177,0.0,24.0,24.0,62.0,1.0,,,,,,,
,,,,,,,602fb33786b077cdbad2d5bb,6842bb15d7ddfa007138f798,2025-06-06_11h56.00.260,shape_ratio,2024.1.5,Win32,60.0240096,6842b561977af9ba9b0f87ca,,,,,,,,,,,260.178,260.677,,,260.928,261.394,right,0.45,,,,,,,,,0.9,,,,,,260.677,260.927,261.394,"[0.15072802751037812,-0.1032917080509201]",100.0,"[0.048268457975082134,-0.1725998879842376]",4.0,"[0.1671423041790578,0.009706628205331134]",100.0,"[0.03316601166656163,-0.005216931114706338]",100.0,"[-0.17496824866411673,0.0237411631104904]",100.0,"[-0.0033578537434269095,-0.13146663316987975]",100.0,"[0.0824478677518333,0.14352974911509725]",100.0,"[-0.004847512045697434,-0.03211867047132456]",100.0,"[0.08436755059611392,0.00466060919634207]",100.0,"[0.06511080682780225,0.05031718754702807]",100.0,"[0.12154689996092645,0.10533664560404797]",100.0,"[-0.10101601860485213,-0.1668077785084603]",100.0,"[0.055155330527105986,-0.11525510369428812]",100.0,"[0.04009960985609693,-0.0723878281173234]",100.0,"[-0.181532105416662,-0.05372374828617538]",100.0,"[0.1051436931686732,-0.06519092428936797]",100.0,"[0.15158813967614193,0.05088852694359495]",100.0,"[-0.09793499665045977,0.04187486244626355]",100.0,"[-0.16260328618984704,-0.09169680922445027]",4.0,"[-0.07326380938204352,-0.030505617296072252]",100.0,"[-0.0023067763538611465,0.191728790736664]",100.0,"[-0.19776905973337153,-0.016459491198073887]",100.0,"[-0.05360133604012952,-0.06693349563887616]",100.0,"[-0.021242695332222068,0.05671306526740803]",100.0,"[-0.06301504959372545,0.16072674665263864]",4.0,"[-0.05182383296818924,-0.17412524556153683]",100.0,"[0.0628361043024881,0.18442744329737187]",100.0,"[-0.1637223803556675,0.0855363587097318]",100.0,"[-0.1429470021205146,-0.03413688866582889]",100.0,"[-0.04807223734062822,-0.130677313950568]",100.0,"[0.1797968345563225,0.08656879072767597]",100.0,"[0.18659701242674798,-0.059469830283906705]",100.0,"[0.02,0.02]",262.494,0.0,25.0,25.0,12.0,1.0,,,,,,,
,,,,,,,602fb33786b077cdbad2d5bb,6842bb15d7ddfa007138f798,2025-06-06_11h56.00.260,shape_ratio,2024.1.5,Win32,60.0240096,6842b561977af9ba9b0f87ca,,,,,,,,,,,262.494,262.994,,,263.244,263.81,left,0.551,,,,,,,,,0.5,,,,,,262.994,263.244,263.811,"[0.11741200920500784,-0.0714799563482715]",4.0,"[0.05838795150821352,0.09330475008412135]",4.0,"[-0.08233783969327294,-0.17470196883043101]",100.0,"[-0.12469707223821948,-0.13255231599150677]",100.0,"[-0.047411726615190275,-0.11968813453857637]",100.0,"[-0.1238991622473652,0.04687984756038612]",100.0,"[0.03134022400030089,-0.06744636764743839]",100.0,"[-0.1686435801498053,-0.020444980004549734]",4.0,"[0.09896506916328034,0.029897737012443457]",4.0,"[0.05083454993478611,0.03092413850121076]",100.0,"[0.047645659032715566,-0.12904458181642917]",4.0,"[-0.18689639759593996,0.03062209661172256]",100.0,"[0.047905300893887184,-0.17384956359582807]",100.0,"[0.011788561932460766,0.006335836538111818]",100.0,"[0.0880260711275209,-0.033464878398358315]",4.0,"[-0.07923949090064496,-0.06271274245632229]",100.0,"[0.1619863792551611,-0.09304413417127289]",4.0,"[-0.04250478394561978,-0.18445474857694102]",4.0,"[-0.10631204648478595,0.13809434409065122]",100.0,"[0.02171173915234712,0.12695800132290663]",100.0,"[0.16097816515164673,-0.042888359463781174]",100.0,"[-0.09159033970460168,-0.10954567516557638]",4.0,"[-0.02234750537564971,0.08074583162648054]",4.0,"[-0.024185738341790088,0.02710061811848958]",4.0,"[0.12821049962433478,0.11417280963948719]",4.0,"[-0.1251274830053438,-0.050771878289307126]",4.0,"[0.12210832176320838,0.07091383187793904]",4.0,"[0.08478604575078451,0.1769054261638959]",4.0,"[-0.1514134034512477,-0.097464744556481]",100.0,"[0.09411940895678075,0.1378853972490515]",4.0,"[-0.0444833980734522,0.11706650065609304]",100.0,"[-0.02112639270088007,-0.024307392239738487]",100.0,"[0.02,0.02]",264.912,0.0,26.0,26.0,103.0,1.0,,,,,,,
,,,,,,,602fb33786b077cdbad2d5bb,6842bb15d7ddfa007138f798,2025-06-06_11h56.00.260,shape_ratio,2024.1.5,Win32,60.0240096,6842b561977af9ba9b0f87ca,,,,,,,,,,,264.916,265.41,,,265.664,266.127,right,0.452,,,,,,,,,0.6,,,,,,265.411,265.663,266.127,"[0.05978633316415769,-0.12399782007669419]",4.0,"[-0.14255446804927888,-0.14004902330015792]",100.0,"[-0.0672821146055458,0.006740746308385094]",100.0,"[0.090078756693677,-0.0016633273387581988]",4.0,"[0.0025339352563735714,-0.0877473057112434]",100.0,"[-0.003033493931728282,-0.03766772753283375]",100.0,"[-0.11813561552961124,0.023838702085723612]",4.0,"[0.05263737982974947,0.16921160081044082]",100.0,"[-0.1274231750852543,-0.06375275724952272]",100.0,"[0.04161086267436636,-0.04710343324719279]",100.0,"[0.047681512132734596,-0.1853801814268256]",100.0,"[-0.07041941256467193,0.1286788906243815]",4.0,"[0.07852392040818934,0.04423396715973009]",100.0,"[-0.1610073381747234,-0.017176355659419187]",100.0,"[-0.01405139904282446,0.19133152127580794]",100.0,"[0.1391824399278316,-0.00012943038629069977]",100.0,"[-0.07652778411331572,-0.06026740131160908]",4.0,"[0.09707502299123452,0.08812570989254402]",4.0,"[-0.06302076007258224,-0.16432093175059798]",100.0,"[0.10132594395851796,0.13164157135600338]",4.0,"[-0.1444338307258544,0.12420580494308472]",100.0,"[0.13781746980249923,-0.12099887789811918]",4.0,"[-0.010001512781707638,0.1384952109381203]",4.0,"[-0.12713943373179262,0.08647141994956606]",4.0,"[-0.03809517181045636,-0.1229664871609343]",100.0,"[0.0037850718860505212,-0.1978787546877815]",100.0,"[0.021989112672865182,0.0055667400148733375]",4.0,"[0.11668938808179347,-0.08541045168557702]",100.0,"[0.018754931000414577,0.07886512274784052]",100.0,"[0.08537226552076181,-0.15513358346530212]",4.0,"[0.15252046780961204,0.11153377024928418]",100.0,"[-0.1844118826047561,0.07503892219265053]",4.0,"[0.02,0.02]",267.227,0.0,27.0,27.0,47.0,1.0,,,,,,,
,,,,,,,602fb33786b077cdbad2d5bb,6842bb15d7ddfa007138f798,2025-06-06_11h56.00.260,shape_ratio,2024.1.5,Win32,60.0240096,6842b561977af9ba9b0f87ca,,,,,,,,,,,267.227,267.727,,,267.978,268.511,left,0.517,,,,,,,,,0.1,,,,,,267.727,267.978,268.511,"[0.0058764074516247326,-0.007099296345620144]",4.0,"[-0.017443744664749627,-0.1470942492974786]",4.0,"[0.17755803341520754,-0.08183560705000144]",4.0,"[-0.15399293742587988,-0.09386715508337595]",4.0,"[-0.18368455756433275,0.03115058837534473]",4.0,"[0.09623218501957183,-0.04431471055479676]",4.0,"[0.15025484759523158,-0.023729008244703434]",100.0,"[-0.08755709865067653,0.14082712794283053]",4.0,"[-0.12427940310332826,-0.054008336517014796]",4.0,"[0.14231692364409096,0.12471675469504973]",4.0,"[-0.011724184664917668,-0.06557748094613944]",4.0,"[-0.0656453612978157,0.00018359999608947151]",100.0,"[-0.05046904396085517,0.1674229651915894]",4.0,"[0.026528938422902066,0.10800637913293926]",4.0,"[0.061568405197593434,0.1756008959951811]",4.0,"[0.131695715227285,-0.12233456533484559]",100.0,"[0.09163072346398597,-0.14670121202759373]",4.0,"[-0.005950318297774278,0.17410944460303238]",4.0,"[-0.10310837311091421,-0.15869093059532316]",4.0,"[0.1594253761620885,0.06234265654222837]",4.0,"[0.09658501734370357,0.012948638375139845]",4.0,"[-0.020929146040054313,0.07767630558140043]",4.0,"[-0.10617090064386929,0.07054144683401395]",4.0,"[-0.02608809404216897,0.029918251396530746]",4.0,"[0.0602260270777683,-0.09408109939739759]",4.0,"[-0.12969022912200165,0.009575497185332783]",4.0,"[0.10514188995367475,0.08362787041390667]",4.0,"[0.04426884956177922,0.04876041714241152]",4.0,"[0.18958708645053735,-0.001574750361997259]",4.0,"[-0.07620498555001405,-0.09585783597911665]",4.0,"[0.047975839681134544,-0.04615737804288682]",4.0,"[-0.1623906537020469,0.11095792710255685]",4.0,"[0.02,0.02]",269.611,0.0,28.0,28.0,191.0,1.0,,,,,,,
,,,,,,,602fb33786b077cdbad2d5bb,6842bb15d7ddfa007138f798,2025-06-06_11h56.00.260,shape_ratio,2024.1.5,Win32,60.0240096,6842b561977af9ba9b0f87ca,,,,,,,,,,,269.611,270.111,,,270.361,270.827,right,0.452,,,,,,,,,0.6,,,,,,270.111,270.361,270.827,"[-0.10448689096392684,0.16600734807924183]",100.0,"[-0.1756443339013641,-0.04545832760456134]",100.0,"[0.12643201872502802,-0.07417873872841295]",100.0,"[-0.011964635991404009,-0.14191540993476734]",4.0,"[-0.12900213677146802,-0.12185584680317757]",100.0,"[-0.025534251350669616,0.05474188098252797]",100.0,"[-0.003681809000831652,-0.04189617835554558]",100.0,"[-0.06801513927118823,-0.11853328784752286]",4.0,"[0.08373760180847875,0.016689696684734842]",4.0,"[-0.11566515086522115,-0.06078404462136745]",100.0,"[-0.11215292953801598,0.01698421640159584]",4.0,"[0.16605855560580132,0.089963240101888]",100.0,"[0.1665603054196219,-0.010330092979921822]",100.0,"[-0.1578610116006502,0.10868744009646114]",100.0,"[0.11782081216169754,0.1230857260110239]",4.0,"[0.08083318763951937,-0.08215634397814088]",4.0,"[0.09616756983412031,-0.15007798794235894]",100.0,"[0.075914320631854,0.16291418335034075]",100.0,"[0.06471613049805058,0.10361601581960835]",4.0,"[-0.06691589200691662,-0.17352323850604215]",100.0,"[-0.010775013593389199,0.18169434562674383]",100.0,"[-0.052748622049410415,0.1313372782262854]",4.0,"[-0.09724146264603668,-0.020574088459375355]",100.0,"[0.06010991919650653,-0.11934679827751063]",4.0,"[-0.04140691915480569,-0.07828117805729948]",4.0,"[-0.16814456804639555,0.040955472354266685]",100.0,"[-0.005030004800346517,-0.19273032783119015]",4.0,"[-0.0638983063472218,0.16975556889870339]",100.0,"[0.03560856149749264,-0.019318529518625588]",100.0,"[0.035384346528634605,0.17238872077902664]",4.0,"[-0.017094143169705915,0.11283398346178741]",100.0,"[-0.05059771443819495,0.01812996286544854]",4.0,"[0.02,0.02]",271.928,0.0,29.0,29.0,33.0,1.0,,,,,,,
,,,,,,,602fb33786b077cdbad2d5bb,6842bb15d7ddfa007138f798,2025-06-06_11h56.00.260,shape_ratio,2024.1.5,Win32,60.0240096,6842b561977af9ba9b0f87ca,,,,,,,,,,,271.928,272.428,,,272.678,273.127,left,0.435,,,,,,,,,0.1,,,,,,272.428,272.678,273.127,"[0.17078161853093873,-0.02496973317363604]",4.0,"[-0.05288067103921291,0.09898319291148958]",100.0,"[0.08000097810093298,0.023409701717731206]",4.0,"[-0.10715392248394955,-0.1214300368391407]",4.0,"[0.0017597280798126375,0.03225590361917795]",4.0,"[-0.09533715076115883,0.12862084975618787]",4.0,"[-0.03939107759437806,-0.1497578421740784]",4.0,"[0.0040703538175609,0.13580358739538828]",4.0,"[0.1688344834718838,0.08425484081312322]",4.0,"[0.12135422438243397,-0.0038970982947905334]",4.0,"[-0.04588547427154396,0.16930540343928907]",4.0,"[-0.1324350958559493,0.06391746079787644]",4.0,"[0.06280495284753428,-0.11429811840312686]",4.0,"[-0.0072889445061264865,-0.0712739459508652]",4.0,"[0.15023860370650444,0.12633002864808163]",4.0,"[0.016805635583645378,-0.14553919583977173]",4.0,"[-0.12227993251527786,0.013963857595853509]",4.0,"[-0.05926896380075502,-0.01980914625508302]",100.0,"[0.13624413647281486,-0.12220446106577795]",4.0,"[-0.12786425780978936,-0.07393200924989084]",4.0,"[-0.17161368974423516,0.03379686628097625]",4.0,"[-0.15906408167882455,-0.10215752200908643]",4.0,"[0.09380404141605705,0.10921798354851649]",4.0,"[0.10745082979859913,-0.0920585748374338]",4.0,"[0.15468218756940033,-0.06624607507628456]",4.0,"[0.03789570992281534,-0.08175102467236262]",4.0,"[-0.0657059575229591,0.05845451422990434]",4.0,"[0.06042449059244669,0.07046504325043425]",100.0,"[0.07523497761345993,-0.040473601321708096]",4.0,"[0.052647456057645356,0.1270615611431505]",4.0,"[0.025423048039650196,-0.02595317326414233]",4.0,"[-0.18210939636372772,-0.03987337718735757]",4.0,"[0.02,0.02]",274.227,0.0,30.0,30.0,180.0,1.0,,,,,,,
,,,,,,,602fb33786b077cdbad2d5bb,6842bb15d7ddfa007138f798,2025-06-06_11h56.00.260,shape_ratio,2024.1.5,Win32,60.0240096,6842b561977af9ba9b0f87ca,,,,,,,,,,,274.228,274.727,,,274.979,275.41,right,0.42,,,,,,,,,0.55,,,,,,274.727,274.979,275.41,"[0.03935961821345631,-0.042984733180790484]",100.0,"[-0.012639592827596025,-0.13191702879776654]",4.0,"[0.15287164222003097,-0.111974982816357]",4.0,"[0.07099050754820377,-0.002647207355840831]",4.0,"[0.0043204179769909075,0.15162002545437794]",100.0,"[0.11442948201310463,-0.1365498442567757]",4.0,"[0.04416074541843352,0.11701027569267945]",4.0,"[-0.021651306278683183,-0.03811651614970103]",100.0,"[-0.09068621221096106,-0.046555637631499086]",100.0,"[-0.003450725374569941,-0.08329338315482336]",4.0,"[-0.018032470849814363,0.11272411702018713]",100.0,"[0.048192859365442785,0.16312757527067703]",100.0,"[0.1899063194078404,0.04183617369089898]",4.0,"[-0.12991137312438503,0.1290487830503045]",4.0,"[-0.0008495944175177891,0.017610978768975345]",100.0,"[0.10748861198377517,0.075230215372566]",100.0,"[-0.17546351835016827,0.009592105162737213]",100.0,"[-0.08582255693399267,-0.1713719810662616]",100.0,"[-0.14049053864758754,-0.11714338559979635]",4.0,"[-0.17280948432426832,0.09986066928520276]",4.0,"[-0.107361681048178,-0.0017256977860592236]",100.0,"[0.01791210206759472,0.07833774751220894]",100.0,"[0.11573111684586562,-0.017486564244474524]",4.0,"[0.1607072535016648,0.007757729878115234]",100.0,"[-0.02626805214387282,-0.17266816418384887]",100.0,"[-0.06924229441058591,0.03430509991209927]",100.0,"[-0.14505273446696995,-0.018036299650707775]",4.0,"[0.14632777727612503,0.12049159002440829]",100.0,"[-0.08730508764457952,-0.12595610613428693]",100.0,"[0.06281319280255006,0.041565466574955544]",4.0,"[0.08148793575213381,-0.10945768070452239]",4.0,"[0.11246611387322376,-0.07719504403644549]",100.0,"[0.02,0.02]",276.511,0.0,31.0,31.0,72.0,1.0,,,,,,,
,,,,,,,602fb33786b077cdbad2d5bb,6842bb15d7ddfa007138f798,2025-06-06_11h56.00.260,shape_ratio,2024.1.5,Win32,60.0240096,6842b561977af9ba9b0f87ca,,,,,,,,,,,276.511,277.011,,,277.262,277.644,right,0.369,,,,,,,,,0.9,,,,,,277.011,277.262,277.644,"[0.006525288827157484,-0.1499116225933265]",100.0,"[0.08791035103088651,-0.03054721597581295]",100.0,"[-0.10892439062664033,0.0999887246588945]",100.0,"[0.13320052273751623,0.10043652935427744]",100.0,"[0.021642337047569266,0.10247428175934684]",4.0,"[-0.001633136997643011,-0.07677083211696643]",100.0,"[0.05353062296374202,0.019498163910365428]",100.0,"[-0.062322462758854454,-0.015339111422072093]",100.0,"[-0.02869085728733092,0.028949701110286306]",100.0,"[0.0970872381611408,-0.15644891196320973]",100.0,"[-0.0019028916257496336,0.16277367989648403]",100.0,"[-0.020498540447600702,-0.0311774484696162]",100.0,"[-0.03597828394412684,0.1074782778268007]",100.0,"[-0.08744259228060787,-0.12589056986524375]",100.0,"[0.12163003073176458,-0.06562603375102516]",100.0,"[-0.13375159879577006,-0.08199932431630168]",100.0,"[0.17342528813911343,0.009596340287846755]",100.0,"[-0.1096887800744297,0.1611116649549579]",100.0,"[0.0396628038818759,-0.1896450394437448]",100.0,"[-0.12787261574190023,-0.030308142898137068]",4.0,"[0.08812405682417813,0.1724861960931962]",100.0,"[-0.05095303122679172,0.18876576636336645]",100.0,"[-0.0770136949528899,-0.08692805160579004]",100.0,"[-0.10394097121934429,0.03983301366260773]",100.0,"[-0.15142582704544483,0.00678560579827284]",100.0,"[-0.16835246498063966,0.043859646064918295]",100.0,"[-0.18559495358010342,-0.016654237708412914]",100.0,"[0.11819260912960174,0.02444285172764484]",100.0,"[0.17094110533228934,-0.03696241232287321]",100.0,"[-0.05577285250124212,-0.16996604567119347]",100.0,"[0.025702025996498807,0.056396052644274434]",100.0,"[0.16274885228714098,0.05397966576010577]",4.0,"[0.02,0.02]",278.746,0.0,32.0,32.0,24.0,1.0,,,,,,,
,,,,,,,602fb33786b077cdbad2d5bb,6842bb15d7ddfa007138f798,2025-06-06_11h56.00.260,shape_ratio,2024.1.5,Win32,60.0240096,6842b561977af9ba9b0f87ca,,,,,,,,,,,278.747,279.244,,,279.494,279.961,right,0.451,,,,,,,,,0.6,,,,,,279.244,279.494,279.961,"[-0.04582736832229149,0.08409544216749296]",4.0,"[-0.11685151952882894,0.15808230570324863]",100.0,"[0.0004967618974872906,-0.030693309549699208]",4.0,"[0.16034392918032161,-0.0009672110221850187]",100.0,"[0.003814163513195266,-0.14947505653746984]",100.0,"[-0.060066919767463006,-0.006497735710642554]",4.0,"[-0.10823033027351169,-0.04395510056525467]",100.0,"[0.08773046590302337,-0.015131839365216228]",4.0,"[-0.0956510520827947,0.11826533509719696]",100.0,"[-0.137268858011169,0.038539363840587475]",4.0,"[-0.0941558729444761,-0.1475924348431058]",4.0,"[-0.11589439858426412,-0.1133959702137042]",100.0,"[0.09313383561069688,-0.1120679425515427]",100.0,"[0.029475833416026227,0.16342320885030723]",100.0,"[0.033389414350402075,-0.18202418709803236]",4.0,"[-0.17899272722803547,0.0536064124845954]",100.0,"[0.14059297719252203,-0.03785012519201782]",100.0,"[0.0817241201250603,0.15765548889555267]",100.0,"[0.15477298388892086,-0.11973405885274302]",4.0,"[0.15068700785551928,0.08205905982433276]",4.0,"[-0.09189571333178988,0.06645554511564267]",100.0,"[0.06270541568066418,0.05953124934320522]",4.0,"[0.0010132051916196597,0.019566583747185805]",4.0,"[0.10730186439132494,0.0465818640254664]",100.0,"[0.012573699511042292,-0.09049058739097032]",100.0,"[-0.04019933664366675,0.19047577762416668]",4.0,"[-0.04079219276083436,-0.14121315856821295]",4.0,"[0.12128204290780607,-0.07335403444018156]",100.0,"[-0.028361799642859342,-0.19118338377584226]",100.0,"[0.007827864172058994,0.06803487005342336]",100.0,"[0.0656291182619789,-0.054344989538970136]",100.0,"[0.15628425664896764,0.040444969329034915]",100.0,"[0.02,0.02]",281.062,0.0,33.0,33.0,55.0,1.0,,,,,,,
,,,,,,,602fb33786b077cdbad2d5bb,6842bb15d7ddfa007138f798,2025-06-06_11h56.00.260,shape_ratio,2024.1.5,Win32,60.0240096,6842b561977af9ba9b0f87ca,,,,,,,,,,,281.062,281.56,,,281.811,282.411,left,0.584,,,,,,,,,0.5,,,,,,281.56,281.811,282.411,"[-0.024288442005076235,0.06742400557914595]",4.0,"[-0.1447945089138285,-0.06993306974038503]",4.0,"[0.009261038731098237,0.09039222058686541]",100.0,"[0.08713222938054827,-0.04143841731429904]",100.0,"[-0.16024059283074132,0.03933104145285829]",4.0,"[-0.0027376460925739093,-0.18639454559990307]",100.0,"[0.01281933487863383,0.13237670201267257]",4.0,"[0.05979646165487288,-0.16113619325408066]",100.0,"[0.06389934096318285,0.16190149742092427]",100.0,"[-0.12578409535745075,0.12376575571769557]",100.0,"[-0.08038706349986845,0.027040318430127046]",100.0,"[0.12693405936148658,0.0470884619402073]",4.0,"[0.18201511005161494,0.029188915449507476]",100.0,"[0.10790741464511748,0.08928235809966989]",4.0,"[-0.04158729022869664,-0.12733008634095588]",4.0,"[-0.14065625617466662,-0.010653932242079998]",4.0,"[0.031032007245050102,-0.09152631319580261]",100.0,"[-0.1227005070974285,-0.1516865644506309]",4.0,"[-0.08028860087947323,-0.02748554383778085]",100.0,"[-0.06746903035888642,0.11288148089825344]",4.0,"[-0.14077099245847177,0.07543677866357201]",100.0,"[-0.02656404550344681,0.18712805168573413]",100.0,"[0.07801981575793498,-0.10084515909218021]",100.0,"[-0.010148218512267734,-0.0457516576195832]",4.0,"[0.15273513095711677,0.11978306305614803]",100.0,"[0.05841470678738623,0.06395271143158951]",4.0,"[0.18680110884473103,-0.044351951743289104]",100.0,"[-0.045921836453828385,-0.079720474053209]",4.0,"[0.15254236022350331,-0.1119422484267642]",4.0,"[0.11172602301431596,-0.07482948563223904]",100.0,"[0.04368924408258105,-0.032184135603391874]",4.0,"[-0.08146150243272193,-0.13952480396340639]",4.0,"[0.02,0.02]",283.511,0.0,34.0,34.0,90.0,1.0,,,,,,,
,,,,,,,602fb33786b077cdbad2d5bb,6842bb15d7ddfa007138f798,2025-06-06_11h56.00.260,shape_ratio,2024.1.5,Win32,60.0240096,6842b561977af9ba9b0f87ca,,,,,,,,,,,283.511,284.01,,,284.261,284.828,left,0.551,,,,,,,,,0.4,,,,,,284.01,284.261,284.828,"[0.11035363310991,0.06343938791889972]",100.0,"[-0.02448793576128996,0.10867048597590377]",4.0,"[0.049405853834298054,-0.190116237438665]",100.0,"[0.11648752343747569,-0.01611838420117209]",4.0,"[0.15163708036871235,-0.0389792184980877]",4.0,"[0.07802242529988523,-0.038916853240850036]",4.0,"[0.1468570466797302,-0.13069637089184913]",100.0,"[-0.12590404058655566,-0.15363765614375477]",4.0,"[0.06457812231248011,0.11270339228049304]",100.0,"[0.018451945717114258,0.013419511129944354]",100.0,"[0.07017749527550485,0.040037243421188654]",4.0,"[-0.09693566725019945,-0.019140584775789737]",100.0,"[0.16696273835513115,0.06227262839193263]",4.0,"[0.19318398926894068,0.030415337360386468]",4.0,"[-0.1381196986951613,-0.06939814142322408]",100.0,"[0.10923877657064303,0.12540604398995364]",4.0,"[-0.007669285313405244,-0.038259638468786265]",4.0,"[-0.04673402303076188,-0.14144834107433588]",4.0,"[0.05931545729992894,-0.11211169265167083]",4.0,"[-0.09308489978790481,0.062453893789324824]",4.0,"[-0.19558836378670286,-0.02966927141282667]",100.0,"[-0.02597228453937502,-0.18326275646214696]",4.0,"[-0.1330817562326292,0.017976217803343044]",100.0,"[0.021823525858403536,0.11093265279025252]",100.0,"[-0.07405310389957195,0.1454119710304535]",100.0,"[-0.15615061005355327,0.09893548527019197]",4.0,"[-0.012653803894900912,0.1679758781799653]",4.0,"[-0.17890344357952284,0.0506185333385324]",4.0,"[0.1393293112950641,0.03308142685153348]",4.0,"[-0.04139819510431539,-0.01227090206150083]",100.0,"[-0.05753670299434038,-0.10095504751225125]",100.0,"[0.15538801327719828,0.10576066590889197]",4.0,"[0.02,0.02]",285.929,0.0,35.0,35.0,177.0,1.0,,,,,,,
,,,,,,,602fb33786b077cdbad2d5bb,6842bb15d7ddfa007138f798,2025-06-06_11h56.00.260,shape_ratio,2024.1.5,Win32,60.0240096,6842b561977af9ba9b0f87ca,,,,,,,,,,,285.93,286.428,,,286.678,287.345,right,0.652,,,,,,,,,0.45,,,,,,286.428,286.678,287.345,"[0.030035658418261967,0.10199284303502237]",100.0,"[-0.11430380102437578,0.0039074079865307944]",100.0,"[0.17894294706733593,-0.06656731046451503]",100.0,"[-0.14119036521073755,-0.07292245100312057]",4.0,"[0.028305300396621918,-0.013943462397349862]",4.0,"[0.08128696226766306,0.07884735563318644]",100.0,"[0.04970814157186047,-0.09564190077720941]",100.0,"[-0.024490895163129276,-0.15592453143747453]",4.0,"[-0.04519525249368224,-0.06089474714393332]",4.0,"[-0.022862450473896987,-0.19642518196211758]",4.0,"[0.10924444178462865,-0.05383593256752813]",100.0,"[-0.09317614453302175,0.06509812501850958]",4.0,"[-0.1042293988969346,-0.12100305847517939]",4.0,"[-0.07660727182366404,0.13312964043313685]",4.0,"[0.15376162396404766,0.1152967436213256]",100.0,"[0.17511042008028302,0.0426266231038626]",4.0,"[-0.19282899606604756,-0.035143448715388804]",4.0,"[0.12781085526930017,-0.11127692498711332]",4.0,"[-0.15728952751742264,0.013156995770777568]",100.0,"[0.051121491790995115,-0.16068386832927953]",4.0,"[-0.0818236108148776,-0.15685203966014447]",4.0,"[-0.03726031405471797,0.05309972960566854]",100.0,"[-0.014594356874742514,-0.0051087945693566224]",4.0,"[-0.1770140347107204,0.06143113331477394]",4.0,"[0.019551527858142476,0.18184900500490103]",100.0,"[0.09679381846952101,0.029108245469202727]",100.0,"[-0.10501175344968464,0.16431401098003895]",100.0,"[-0.1429921908511435,-0.1363364963052824]",4.0,"[0.07302509140161394,0.17123726759727606]",100.0,"[-0.026579937678144,0.12881962320400953]",100.0,"[-0.023223422253723286,0.1904128124692901]",4.0,"[0.05047759301129449,0.024341148228451032]",4.0,"[0.02,0.02]",288.445,0.0,36.0,36.0,128.0,1.0,,,,,,,
,,,,,,,602fb33786b077cdbad2d5bb,6842bb15d7ddfa007138f798,2025-06-06_11h56.00.260,shape_ratio,2024.1.5,Win32,60.0240096,6842b561977af9ba9b0f87ca,,,,,,,,,,,288.445,288.944,,,289.195,289.629,right,0.42,,,,,,,,,0.9,,,,,,288.944,289.194,289.629,"[0.07246099836817776,-0.1730084613324163]",4.0,"[-0.08693809728307356,0.16689296994841163]",100.0,"[0.014443216294320046,-0.13066198574310578]",100.0,"[0.017291939738117684,0.16148958035153016]",100.0,"[-0.06073696691003745,-0.11015981896299691]",100.0,"[0.0994711313074451,-0.014052735244896522]",100.0,"[0.06070229979439125,0.09110267953052174]",100.0,"[0.12700495021919864,0.1089421916428443]",100.0,"[-0.0013365077352685928,-0.07342507089617935]",100.0,"[0.09088048044135243,-0.06696244498499461]",100.0,"[-0.022808595115861283,0.11311820448008324]",100.0,"[0.0927037898645751,0.04513168661024601]",100.0,"[-0.04801255185721416,0.1497133458433931]",100.0,"[-0.1980945072791266,-0.02564034495974418]",100.0,"[0.19080105428156321,-0.00623420683760828]",100.0,"[-0.015626578216540808,-0.16777030676924323]",100.0,"[-0.000647717559652921,0.012307055469344639]",100.0,"[-0.13306149662704156,-0.08258721213083832]",100.0,"[-0.17297596282619837,-0.09995602957839614]",100.0,"[-0.0673925821700076,-0.02028132145819016]",100.0,"[-0.0627447707440894,0.05904397270115477]",100.0,"[0.135995609592569,0.026452201573713773]",4.0,"[-0.15846638389540346,0.11286268884661368]",100.0,"[0.07435515438963566,0.18022075561102302]",100.0,"[-0.19125436965064735,0.03286737293852702]",100.0,"[-0.08193531436073041,-0.14585847375497993]",100.0,"[0.04538121593080653,0.017612711151125348]",100.0,"[0.17393919238839473,0.05953687367188047]",100.0,"[0.12716542355589017,-0.10708054076617966]",100.0,"[-0.11624389917505029,0.07713729094502489]",4.0,"[0.007340645374227119,-0.03012589844556814]",100.0,"[-0.0342947660781871,0.1910512053531104]",100.0,"[0.02,0.02]",290.729,0.0,37.0,37.0,4.0,1.0,,,,,,,
,,,,,,,602fb33786b077cdbad2d5bb,6842bb15d7ddfa007138f798,2025-06-06_11h56.00.260,shape_ratio,2024.1.5,Win32,60.0240096,6842b561977af9ba9b0f87ca,,,,,,,,,,,290.731,291.228,,,291.479,292.061,left,0.57,,,,,,,,,0.55,,,,,,291.228,291.479,292.061,"[-0.048626672242084605,-0.17416263449603345]",100.0,"[-0.10474490582079916,-0.14508814267232834]",100.0,"[0.16897604999089227,0.017591275734939366]",100.0,"[-0.044746978466127844,0.008069897810642313]",4.0,"[-0.175870989015027,-0.05072482103611987]",4.0,"[-0.14847550116870536,0.07925402632314833]",100.0,"[0.04459575112813719,-0.0733595556295597]",4.0,"[-0.07341842358829873,0.15438037315423683]",4.0,"[0.13621764549723053,0.12233879570300579]",100.0,"[-0.0011936283948490057,0.0016153080860218287]",100.0,"[0.08392731417032236,0.10207445414018543]",100.0,"[0.1804522514870575,-0.05860762797811379]",100.0,"[-0.13172247123307082,0.010704151061218924]",4.0,"[-0.02875629412091173,-0.1359471854793107]",100.0,"[-0.11608162549514905,-0.048744630054231006]",100.0,"[0.09202393115321411,0.01380752121176849]",4.0,"[-0.004552591309522045,0.06506837874351437]",4.0,"[0.029089791383367473,0.14545592880190833]",4.0,"[0.05368025219486136,-0.13701705976653789]",100.0,"[-0.016317367189546437,-0.08710548135249496]",4.0,"[-0.024649392072793697,0.1746871736372354]",100.0,"[0.0729337443212485,-0.021793646019939467]",4.0,"[-0.039349874322074645,0.12630034854116778]",4.0,"[-0.1837828229173313,0.006739076832226968]",100.0,"[0.10978591725014959,-0.0576134274930509]",100.0,"[0.04913464162765856,-0.1802069065716218]",100.0,"[0.00006678731042197364,-0.17010000696096123]",100.0,"[0.16710318620852962,0.08941871381514961]",4.0,"[0.11957417966304647,-0.12171266728781088]",100.0,"[0.04389035096299155,0.19033164078235143]",100.0,"[0.12567593139938021,-0.012645656176114342]",4.0,"[0.1258618028857677,0.07116478419115503]",4.0,"[0.02,0.02]",293.161,0.0,38.0,38.0,74.0,1.0,,,,,,,
,,,,,,,602fb33786b077cdbad2d5bb,6842bb15d7ddfa007138f798,2025-06-06_11h56.00.260,shape_ratio,2024.1.5,Win32,60.0240096,6842b561977af9ba9b0f87ca,,,,,,,,,,,293.161,293.661,,,293.912,294.627,right,0.702,,,,,,,,,0.45,,,,,,293.661,293.912,294.627,"[-0.06282725873372114,0.09228727808775498]",100.0,"[0.15086308812419674,0.050933256167033175]",4.0,"[-0.1633505323469417,0.09797257364983372]",100.0,"[-0.1874673474590089,-0.03278052226631206]",4.0,"[-0.0858589484303059,0.008230129192296608]",4.0,"[0.06021165679611507,0.10057033273717142]",4.0,"[-0.106131834417407,-0.028962047032608986]",100.0,"[0.021462680657164404,-0.09030218869391743]",4.0,"[-0.18619441259853795,0.05221026736317748]",100.0,"[0.13013249697560092,-0.045110767755552596]",100.0,"[0.04247094430904307,0.19376007940822168]",100.0,"[0.1782155319401353,0.009230338440874234]",4.0,"[-0.0731895978541841,-0.05599412645546004]",4.0,"[0.08327683730499512,-0.035388451232884664]",4.0,"[-0.11711932584953515,-0.1534323511187102]",4.0,"[-0.024701825978751635,0.03808773269498738]",4.0,"[-0.1149161544070087,0.08146038603814111]",100.0,"[-0.12616186900905751,-0.09628489778945797]",100.0,"[0.08664262125060003,0.132318146190133]",4.0,"[-0.010171927200944569,-0.18505340811800586]",100.0,"[0.15496247480422368,-0.1227946237638136]",4.0,"[0.05318489899129707,-0.1723195245962106]",4.0,"[-0.016628786209578594,0.12657296278623692]",100.0,"[0.008728084638691694,0.07497396489195769]",100.0,"[0.17344783880796502,0.08873387663437278]",100.0,"[0.10238866518142993,0.06815719877638517]",4.0,"[-0.08279537400446138,-0.17624672045751769]",4.0,"[-0.013540797455564213,-0.04057426292224071]",100.0,"[-0.04294601593127423,0.18930800962962005]",4.0,"[-0.022146044844500713,-0.08450014574741278]",4.0,"[-0.07150961014145817,-0.11131759392186075]",100.0,"[-0.016335371950296454,-0.1401567886730509]",4.0,"[0.02,0.02]",295.728,0.0,39.0,39.0,139.0,1.0,,,,,,,
,,,,,,,602fb33786b077cdbad2d5bb,6842bb15d7ddfa007138f798,2025-06-06_11h56.00.260,shape_ratio,2024.1.5,Win32,60.0240096,6842b561977af9ba9b0f87ca,,,,,,,,,,,295.729,296.227,,,296.478,296.927,right,0.437,,,,,,,,,0.55,,,,,,296.227,296.477,296.927,"[-0.001275749788250439,0.05691837092948293]",4.0,"[0.03811247233120093,0.10518095323733492]",4.0,"[0.06046393526828157,-0.06709031326411125]",100.0,"[0.19836392411010795,-0.006294889208372011]",4.0,"[0.14699990956635936,-0.02455084682314897]",4.0,"[0.13618626369819561,0.09188802313763063]",4.0,"[-0.030507555345268417,0.09254123926595464]",100.0,"[-0.08941570792807027,0.06969416883663031]",100.0,"[0.11410490043008042,0.15753769014178087]",100.0,"[0.06456376379967613,0.16185931710963444]",100.0,"[-0.15313152944697184,-0.08851443965292807]",4.0,"[-0.1389659236199827,0.07942711354001819]",4.0,"[-0.10895999745850667,-0.1574798106926776]",100.0,"[-0.1815785424119186,0.05479448956182207]",4.0,"[0.03724404849163441,-0.009361303126402676]",4.0,"[0.07819822183106193,0.021163374087619046]",100.0,"[-0.09920580647317088,-0.05394018438484739]",100.0,"[-0.11139053082338157,0.1632765155794607]",100.0,"[-0.03950697700349484,0.1698682931424854]",4.0,"[-0.08213819056922719,-0.10700625758093477]",4.0,"[-0.03596042674772717,0.019383046310631733]",4.0,"[-0.14610757022063067,-0.03232478139956959]",100.0,"[-0.14136995084732962,-0.1269538200996077]",4.0,"[-0.09585135458463653,-0.00044898592071061826]",100.0,"[-0.07229351711132752,-0.17611001316477512]",100.0,"[0.02282475905080968,0.1788100918381048]",100.0,"[-0.05643089861656733,-0.01885735483646517]",100.0,"[0.17866118206505074,0.08628062765223525]",100.0,"[-0.14182815743315186,0.02587583362662663]",100.0,"[0.11618664262099584,-0.11258285375478162]",100.0,"[0.08527130363330668,-0.018527555601657163]",4.0,"[0.009294170758748757,-0.06826845280467758]",100.0,"[0.02,0.02]",298.027,0.0,40.0,40.0,65.0,1.0,,,,,,,
,,,,,,,602fb33786b077cdbad2d5bb,6842bb15d7ddfa007138f798,2025-06-06_11h56.00.260,shape_ratio,2024.1.5,Win32,60.0240096,6842b561977af9ba9b0f87ca,,,,,,,,,,,298.028,298.529,,,298.779,299.327,left,0.534,,,,,,,,,0.4,,,,,,298.53,298.779,299.327,"[0.03806021449394228,0.05547730999728565]",4.0,"[0.12680210969021363,-0.08365517263255856]",100.0,"[0.08061783064650192,-0.05554973501989853]",4.0,"[-0.03979890415616439,0.02386724420363651]",4.0,"[0.06900545748808272,-0.14213483096665586]",4.0,"[0.11402281918861858,0.1360652262872651]",4.0,"[-0.06347137114848468,-0.06931066683172411]",4.0,"[-0.1233373024289986,0.020839131588145605]",4.0,"[-0.19388185459831173,0.01402022774191696]",100.0,"[0.161924955598527,0.055962864640260346]",100.0,"[0.19559080890266972,-0.008900326463154026]",100.0,"[-0.018235902520169812,0.06573896644643255]",4.0,"[-0.1512358748372197,-0.12876528875816576]",100.0,"[-0.07469471702016456,0.14207216404070855]",100.0,"[0.035492428540020104,0.10090364192225519]",100.0,"[-0.00043114702865997315,-0.17274865890838284]",4.0,"[-0.14546072287145193,-0.08842168172353149]",4.0,"[0.019399958474133804,-0.13423458881735217]",4.0,"[0.12341474741916804,-0.1325753745083789]",100.0,"[-0.04320172463317759,0.0979360397854524]",4.0,"[0.08063436660273887,0.05248234589349057]",100.0,"[0.022743382553585895,-0.03038525410632218]",100.0,"[-0.03663966955151407,-0.019457148751817803]",100.0,"[-0.055309381966341005,-0.17575930202743906]",100.0,"[-0.1408837785008462,0.06678273616446005]",100.0,"[-0.1743346970019519,-0.03484719928424041]",4.0,"[0.12151987350231609,0.06640272508851112]",4.0,"[-0.04143928062199739,0.18045627076635273]",4.0,"[-0.08745419944310164,-0.03718395591848133]",4.0,"[-0.14648014361898273,0.1258061693620226]",4.0,"[0.16944027694277802,-0.09075496008223913]",4.0,"[-0.08574361568330353,-0.12549332227517035]",4.0,"[0.02,0.02]",300.428,0.0,41.0,41.0,156.0,1.0,,,,,,,
,,,,,,,602fb33786b077cdbad2d5bb,6842bb15d7ddfa007138f798,2025-06-06_11h56.00.260,shape_ratio,2024.1.5,Win32,60.0240096,6842b561977af9ba9b0f87ca,,,,,,,,,,,300.428,300.928,,,301.178,301.661,right,0.467,,,,,,,,,0.9,,,,,,300.929,301.178,301.661,"[-0.16350820246396308,0.09571811721492413]",100.0,"[0.018502951913155544,0.0023872917995435305]",100.0,"[-0.18817440759953075,-0.03408303910189407]",100.0,"[-0.04290376417677407,-0.08719977000191731]",100.0,"[-0.05055755630600066,0.1754191897092011]",4.0,"[0.004463743113555949,-0.1965240531184268]",100.0,"[-0.14118088073411683,-0.02567730713087942]",100.0,"[0.09960810928154192,0.13990370569555843]",100.0,"[-0.018983802160488745,-0.04026695183314817]",100.0,"[0.10295100697860535,0.008284179728514269]",100.0,"[0.16812376715130864,0.1050612606560388]",100.0,"[-0.06745105745297691,0.01923212350083863]",100.0,"[0.046033992356729,0.11843866695233982]",100.0,"[-0.16542642497547574,-0.075911230166571]",100.0,"[-0.08110304718334851,-0.0650352652249513]",100.0,"[0.024807664419086727,-0.08653865525819116]",100.0,"[0.10536190666828606,0.06363365534594101]",100.0,"[0.13961259429503886,-0.11135189136483663]",100.0,"[-0.10679240904105679,0.07602300493508649]",100.0,"[-0.11582865060438867,-0.11355442783420205]",100.0,"[0.09004326512938453,-0.060714352147535434]",4.0,"[0.055907921081201,0.06173721282821725]",100.0,"[0.13896219643023117,0.02693580510922629]",4.0,"[0.015230068609346665,0.17975111141051292]",100.0,"[0.19163179405977857,-0.02038169640258897]",100.0,"[0.17112282205150692,0.05732194608961562]",100.0,"[-0.08049726137580285,-0.1591473633199301]",100.0,"[0.0008798833862361125,0.1339021676856845]",100.0,"[0.035056753612428125,-0.14828502407790328]",100.0,"[-0.047008897969108364,0.08788959709035127]",100.0,"[0.09360845268648009,-0.156481800099537]",100.0,"[-0.09084191515326269,0.13256333238376686]",100.0,"[0.02,0.02]",302.76,0.0,42.0,42.0,28.0,1.0,,,,,,,
,,,,,,,602fb33786b077cdbad2d5bb,6842bb15d7ddfa007138f798,2025-06-06_11h56.00.260,shape_ratio,2024.1.5,Win32,60.0240096,6842b561977af9ba9b0f87ca,,,,,,,,,,,302.762,303.26,,,303.511,303.861,right,0.335,,,,,,,,,0.9,,,,,,303.26,303.511,303.861,"[0.05231434019682533,0.08151271086853366]",100.0,"[-0.16089559356074132,0.022923991538293418]",100.0,"[-0.09626412649736854,-0.16720862942604253]",100.0,"[-0.13452373968270823,0.11868529184342706]",100.0,"[-0.07684588063207948,0.010845736131750472]",100.0,"[-0.0012424860818573836,0.15337947561916923]",100.0,"[0.14320390134826674,-0.06095801772069628]",100.0,"[0.12471718906735217,0.009393506631759647]",100.0,"[0.0398566892055322,0.1919598958885066]",100.0,"[-0.11273263379871919,-0.11404120651827344]",100.0,"[-0.047783052904592394,-0.07456761408341513]",100.0,"[0.07954924774726292,-0.17965116381321686]",100.0,"[-0.049493045796299345,0.15410374627623674]",100.0,"[0.04213588720668527,0.03758648492099087]",100.0,"[-0.0187026578310984,0.07012649081138815]",4.0,"[-0.08887912284893776,0.055349964782485675]",100.0,"[0.18642251841202667,-0.07200813077084461]",100.0,"[0.02479123943493081,-0.1728250131796129]",4.0,"[0.07722781331862495,-0.05917958591039097]",100.0,"[0.1524896001167202,0.11864828261919087]",100.0,"[-0.03660617741692543,-0.19467942925612397]",100.0,"[0.021239648843582756,0.11673594532620178]",100.0,"[0.0907710213619036,0.09788808505279929]",4.0,"[0.07022709152685772,-0.1238289322036323]",100.0,"[-0.01812093936262054,-0.040179293241453015]",100.0,"[0.08418035407653468,0.004485646273593893]",100.0,"[-0.03268636632712295,-0.12124519255748901]",100.0,"[-0.12224560713022842,-0.0034764547145573295]",100.0,"[0.039155856349863336,-0.006970388194531999]",100.0,"[-0.006930362638774718,0.006587560399023182]",100.0,"[0.17234431723294485,-0.010321276478356302]",100.0,"[0.010516921037325534,-0.11175624839744686]",100.0,"[0.02,0.02]",304.961,0.0,43.0,43.0,5.0,1.0,,,,,,,
,,,,,,,602fb33786b077cdbad2d5bb,6842bb15d7ddfa007138f798,2025-06-06_11h56.00.260,shape_ratio,2024.1.5,Win32,60.0240096,6842b561977af9ba9b0f87ca,,,,,,,,,,,304.962,305.46,,,305.711,306.044,right,0.318,,,,,,,,,0.9,,,,,,305.46,305.711,306.044,"[0.01580733116710543,0.11821596630338985]",100.0,"[0.014718420366896436,-0.13457708379613587]",100.0,"[0.02141268290462375,0.013584134106585873]",100.0,"[-0.051613359761282375,-0.1411027850071355]",4.0,"[-0.16589976050612834,-0.08553996702617835]",100.0,"[-0.11740582840283376,0.13186814386890497]",100.0,"[0.1641952890416996,-0.02578916527362245]",100.0,"[-0.10290656620966121,0.08153007102857068]",100.0,"[0.18859823765831404,0.031443758729057456]",100.0,"[-0.050000230406917374,0.01995252491965899]",4.0,"[0.04981351994346243,0.08279695788575687]",100.0,"[0.10996940811743011,0.12176017920760787]",100.0,"[-0.1181790547913833,-0.04757741876169326]",100.0,"[0.08247692722407868,-0.14653882198822585]",100.0,"[-0.14310678530374996,-0.008032517111169814]",100.0,"[0.027099232073528247,-0.040666863599475224]",100.0,"[-0.11809334727293294,0.03548057332989608]",100.0,"[-0.07348742598850704,-0.09895311852056693]",100.0,"[-0.11604620729000384,-0.1362251160312264]",4.0,"[0.04848586143317393,-0.10438092720256105]",100.0,"[0.14795073094290498,0.04996718911575596]",100.0,"[-0.1433993348782126,0.0831247457843714]",100.0,"[0.07493202159768983,0.16248471609252005]",100.0,"[-0.18968020009028355,0.01457500124774272]",100.0,"[-0.09035480119172162,0.16707356235190712]",100.0,"[-0.03302462171463582,0.09598021548652277]",100.0,"[0.05176842307540542,0.041498081490637516]",100.0,"[0.04516547626352426,-0.1834157592589984]",100.0,"[-0.04466918682284449,0.1587394660046881]",100.0,"[0.17507368880289645,-0.08856666715817108]",100.0,"[-0.0041151543180095685,-0.08961921824960567]",100.0,"[0.003155011141935795,-0.18272214683448412]",100.0,"[0.02,0.02]",307.144,0.0,44.0,44.0,19.0,1.0,,,,,,,
,,,,,,,602fb33786b077cdbad2d5bb,6842bb15d7ddfa007138f798,2025-06-06_11h56.00.260,shape_ratio,2024.1.5,Win32,60.0240096,6842b561977af9ba9b0f87ca,,,,,,,,,,,307.144,307.644,,,307.894,308.461,right,0.551,,,,,,,,,0.5,,,,,,307.644,307.894,308.461,"[0.11246109334056571,0.01963662510559687]",100.0,"[0.007744595552890112,-0.13922099840136243]",4.0,"[-0.1023064067866523,-0.14582474161107167]",4.0,"[-0.09862631123084936,-0.10231380963505869]",100.0,"[0.0018538900619568983,-0.06665408625330452]",100.0,"[0.07162310933323028,0.07696511759122182]",4.0,"[0.048617446696967596,0.01944302167045195]",100.0,"[-0.13123734397811876,0.05676845250420859]",100.0,"[0.04863932645201675,0.11744100878974968]",4.0,"[0.13597706924087305,0.06729498152422457]",4.0,"[-0.17414054973738435,0.030223167088833235]",4.0,"[-0.06563873274615618,0.0021185005400973646]",4.0,"[0.06542800820008315,-0.044923936646844784]",100.0,"[0.14150569004616678,-0.011300923235977868]",100.0,"[0.04402350055453052,-0.16798833823850076]",100.0,"[-0.14694275407819693,-0.030690721883959063]",100.0,"[-0.005515996808187161,0.005832765520328775]",4.0,"[-0.0952059322974501,0.07686874973194961]",100.0,"[-0.016665999056874974,0.17816786011178617]",100.0,"[-0.042768275883790396,0.12130797475910046]",4.0,"[-0.018680954598149512,-0.10682149433338417]",100.0,"[0.00038973627104773727,0.10807441612419132]",4.0,"[-0.13667093365000163,0.13485121776992787]",4.0,"[0.099159032212236,-0.14881542026358685]",100.0,"[0.1418395475766549,0.12858310204347137]",4.0,"[-0.05765879838218942,-0.11665908914877055]",4.0,"[0.05323107366081017,-0.09913481588161067]",4.0,"[0.11787765388506741,-0.06929346980178981]",4.0,"[0.0888136535107549,0.1208726914620048]",100.0,"[-0.06426464783046991,-0.07305975192416328]",100.0,"[-0.14103309874647538,-0.07573663081982429]",4.0,"[-0.034333630395814725,-0.039772641658841416]",100.0,"[0.02,0.02]",309.562,0.0,45.0,45.0,99.0,1.0,,,,,,,
,,,,,,,602fb33786b077cdbad2d5bb,6842bb15d7ddfa007138f798,2025-06-06_11h56.00.260,shape_ratio,2024.1.5,Win32,60.0240096,6842b561977af9ba9b0f87ca,,,,,,,,,,,309.563,310.061,,,310.313,310.664,right,0.336,,,,,,,,,0.9,,,,,,310.061,310.312,310.664,"[-0.19021615903107625,-0.05512612798105872]",100.0,"[0.11254021441514889,-0.11600633326956557]",100.0,"[0.001843330326152335,0.18245168657332422]",100.0,"[0.03825035576344698,-0.07462342075086147]",100.0,"[0.0037408145737352254,-0.05196101085539603]",4.0,"[-0.16314104657916548,-0.011478660467243195]",100.0,"[0.144161690676638,-0.060626283028495966]",100.0,"[-0.11447846308171779,-0.04608606825178578]",100.0,"[-0.026499960755526897,0.07862304310202807]",100.0,"[-0.043524942176219966,-0.02485815128250899]",100.0,"[0.03543054019922903,0.0650551936087073]",100.0,"[0.05668020421911912,0.12367153706421767]",4.0,"[-0.08178168281890615,0.11203009919210564]",100.0,"[-0.10159342477141194,0.15848810023490678]",100.0,"[-0.16840831974568468,0.03641264211785926]",100.0,"[0.06481593002306885,-0.17432178113350247]",100.0,"[-0.02565968710578413,-0.12254459368185841]",100.0,"[0.12134859484296458,-0.023334461471593352]",100.0,"[0.19342115048319025,0.0419065656175748]",100.0,"[-0.04179824015159208,-0.17083831192446602]",4.0,"[-0.17978938687672086,0.07627865092633683]",100.0,"[-0.15468768391772955,-0.11254370567669601]",100.0,"[0.000008477096619699118,0.10991526000864367]",100.0,"[-0.13979419781753183,0.09147789522327528]",100.0,"[0.15789547197159914,-0.006077347310225254]",100.0,"[0.14265471612690436,0.05730286870970626]",100.0,"[-0.0912135866802146,-0.12293055169562672]",100.0,"[0.09011071296018003,0.03619641404548975]",100.0,"[-0.1465804139059886,0.13349980875843964]",100.0,"[0.057715581745363335,0.1815856648553431]",100.0,"[0.03772125569295692,-0.006175271581069471]",100.0,"[0.18098510642213428,-0.03987022375429715]",100.0,"[0.02,0.02]",311.761,0.0,46.0,46.0,23.0,1.0,,,,,,,
,,,,,,,602fb33786b077cdbad2d5bb,6842bb15d7ddfa007138f798,2025-06-06_11h56.00.260,shape_ratio,2024.1.5,Win32,60.0240096,6842b561977af9ba9b0f87ca,,,,,,,,,,,311.761,312.261,,,312.514,312.978,right,0.45,,,,,,,,,0.6,,,,,,312.261,312.513,312.978,"[-0.08012225168762463,0.00798463452170415]",4.0,"[-0.0977226940543724,0.11937622817391207]",100.0,"[-0.029314014087155043,-0.09607539044128627]",100.0,"[0.09409326707694664,0.0008758478397314144]",100.0,"[-0.05607275518092075,0.10843510209997965]",100.0,"[0.1518257938344558,0.013386736813188548]",4.0,"[-0.11935034108034641,-0.013901742391809207]",100.0,"[0.06948637682262718,0.10351424230792891]",4.0,"[-0.02818422974534627,0.01157676985557232]",4.0,"[0.16077068750021767,-0.05903122223014902]",100.0,"[-0.021447134598383308,0.05225891717163965]",100.0,"[-0.021976504739788218,0.13686889102646668]",4.0,"[-0.12535406887639278,0.02665556589833292]",100.0,"[0.0026818753551638122,-0.13143459083058698]",100.0,"[-0.10640563794304661,-0.11403683848003263]",100.0,"[-0.1360202073069241,0.07906726017816018]",100.0,"[-0.17724791653964853,-0.02710820081705285]",4.0,"[0.11169118729018347,0.05813922623545831]",4.0,"[0.06269690674728512,0.15315831474074348]",100.0,"[-0.06068063933230089,-0.13744816768607976]",4.0,"[0.09202051288611184,-0.1409084681313757]",100.0,"[0.08061605009568254,-0.05685855455027052]",4.0,"[0.15193296960265415,0.1276581245424327]",100.0,"[-0.13437508327663084,-0.06034071083914995]",100.0,"[0.03728238206253382,-0.05837936595089628]",4.0,"[0.16800525642358893,0.06588602509657208]",100.0,"[0.07400629108904631,-0.10141857468875926]",4.0,"[0.062449512854572835,0.038684022281317704]",4.0,"[-0.18171989509697287,0.015761145683762027]",100.0,"[0.11010576147163387,0.15516234950467808]",100.0,"[-0.0006004527450132616,0.09600536122202287]",4.0,"[-0.07453840136222686,0.051417026622729026]",100.0,"[0.02,0.02]",314.077,0.0,47.0,47.0,34.0,1.0,,,,,,,
,,,,,,,602fb33786b077cdbad2d5bb,6842bb15d7ddfa007138f798,2025-06-06_11h56.00.260,shape_ratio,2024.1.5,Win32,60.0240096,6842b561977af9ba9b0f87ca,,,,,,,,,,,314.077,314.577,,,314.828,315.178,right,0.336,,,,,,,,,0.9,,,,,,314.577,314.828,315.178,"[-0.01563343674726663,-0.03551867594142018]",100.0,"[0.1208079008371724,0.10085748894149703]",100.0,"[-0.10163772597546855,0.13100840159088187]",100.0,"[-0.030078496784357953,0.021158609918804888]",4.0,"[-0.14998855278288148,0.01869758562962709]",100.0,"[0.06976349677713972,-0.16220682368254322]",100.0,"[0.13956011832308757,-0.11981359024091981]",100.0,"[0.049563360593492256,-0.1145115246110388]",100.0,"[0.15162528128244304,0.03912801459952631]",100.0,"[-0.037459047813290146,0.14225758470822103]",100.0,"[0.16717440203364178,-0.02744597766877483]",100.0,"[0.055788628084505965,0.0053552566197605156]",4.0,"[0.050090951977063196,0.18736869054731256]",4.0,"[0.04701793500562768,0.12092636391004502]",100.0,"[-0.05539905052045834,-0.10707862447880555]",100.0,"[-0.08102636785621721,-0.1797823364607625]",100.0,"[0.00807408371934974,-0.1372808449372845]",100.0,"[-0.08247387969371635,-0.0733480833589326]",100.0,"[0.14267175231729304,-0.0667270592681746]",100.0,"[0.06867803239961187,0.07524167435200728]",100.0,"[0.08796269041812418,0.15388300701303131]",100.0,"[-0.10431568969215388,0.011827383763504912]",100.0,"[0.06096914249257635,-0.064015201926593]",100.0,"[-0.024806465876315745,-0.19058331438332662]",100.0,"[-0.19211408510839034,-0.04001851784397778]",100.0,"[-0.03069260384427773,0.18175162677728166]",100.0,"[-0.11797778618879073,0.06963832824775847]",100.0,"[0.03654402358577198,0.04258963693548236]",100.0,"[0.17818826028634904,0.08953931535531272]",100.0,"[-0.168874463538185,0.08252981725051954]",100.0,"[-0.1402609968306833,-0.053294997126914316]",100.0,"[-0.04838326079099842,-0.1481510980775817]",100.0,"[0.02,0.02]",316.278,0.0,48.0,48.0,26.0,1.0,,,,,,,
,,,,,,,602fb33786b077cdbad2d5bb,6842bb15d7ddfa007138f798,2025-06-06_11h56.00.260,shape_ratio,2024.1.5,Win32,60.0240096,6842b561977af9ba9b0f87ca,,,,,,,,,,,316.278,316.777,,,317.028,317.444,right,0.4,,,,,,,,,0.45,,,,,,316.777,317.028,317.444,"[0.04285672243155795,-0.12102514773134367]",4.0,"[0.024659992084173285,0.09520017925686473]",4.0,"[0.12183177769003137,0.010408236138972368]",4.0,"[0.1181603511924304,-0.15690264038892565]",4.0,"[-0.18664514049581457,0.02349365398609611]",100.0,"[0.008779294036880514,-0.06737777840684996]",100.0,"[0.0576231412438796,0.18278339809270908]",100.0,"[-0.1344710485086921,-0.06452813031091575]",4.0,"[-0.06324019998151345,0.06931017908973837]",4.0,"[0.17558558244033665,-0.006224579158728002]",100.0,"[0.022849498282185455,-0.18625502776340264]",100.0,"[-0.0600321945500553,-0.08444252599781689]",100.0,"[-0.030204360645684745,-0.11127381936438656]",4.0,"[0.02535373924609105,-0.02212220816408543]",100.0,"[0.08313522784767154,0.10000735944859207]",4.0,"[0.17035677666191576,-0.0817173717945551]",100.0,"[0.12903753801430848,0.06354758397638703]",4.0,"[0.006868068843512377,-0.14305525230570643]",100.0,"[0.08990193832088374,0.140221356421525]",4.0,"[-0.17605841290173382,0.09475011332545492]",4.0,"[-0.17734113457324846,-0.08141039858260114]",4.0,"[0.19262082684356177,0.04780752421583429]",4.0,"[-0.12752896992952356,0.10808584224977034]",100.0,"[-0.041087028669477575,0.19049304975429518]",100.0,"[-0.09020590918684732,0.032996465909240304]",4.0,"[-0.12933025777709595,0.06321639670579537]",4.0,"[0.03747424883932607,0.029182677321258465]",100.0,"[-0.07040251436630242,0.14552501388823075]",100.0,"[-0.07857907036136011,-0.03210537963196563]",4.0,"[0.11793709100025887,-0.11592054110251136]",4.0,"[0.07554318955949747,-0.032836066797349496]",4.0,"[-0.1706088899122643,-0.01781929708810186]",100.0,"[0.02,0.02]",318.544,0.0,49.0,49.0,125.0,1.0,,,,,,,
