right,left,explain.started,explain.stopped,key_resp_3.keys,key_resp_3.rt,key_resp_3.duration,participant,session,date,expName,psychopyVersion,OS,frameRate,study_id,explain_2.started,explain_2.stopped,key_resp_4.keys,key_resp_4.rt,key_resp_4.duration,explain_3.started,explain_3.stopped,key_resp_5.keys,key_resp_5.rt,key_resp_5.duration,fixation.started,fixation.stopped,practice.started,practice.stopped,response.started,response.stopped,key_resp.keys,key_resp.rt,key_resp.duration,feedback.started,feedback.stopped,trials_2.thisRepN,trials_2.thisTrialN,trials_2.thisN,trials_2.thisIndex,trials_2.ran,dot_ratio,explain_4.started,explain_4.stopped,key_resp_6.keys,key_resp_6.rt,key_resp_6.duration,dotDisplay.started,dotDisplay.stopped,ITI.started,polygon_1.pos,polygon_1.edges,polygon_2.pos,polygon_2.edges,polygon_3.pos,polygon_3.edges,polygon_4.pos,polygon_4.edges,polygon_5.pos,polygon_5.edges,polygon_6.pos,polygon_6.edges,polygon_7.pos,polygon_7.edges,polygon_8.pos,polygon_8.edges,polygon_9.pos,polygon_9.edges,polygon_10.pos,polygon_10.edges,polygon_11.pos,polygon_11.edges,polygon_12.pos,polygon_12.edges,polygon_13.pos,polygon_13.edges,polygon_14.pos,polygon_14.edges,polygon_15.pos,polygon_15.edges,polygon_16.pos,polygon_16.edges,polygon_17.pos,polygon_17.edges,polygon_18.pos,polygon_18.edges,polygon_19.pos,polygon_19.edges,polygon_20.pos,polygon_20.edges,polygon_21.pos,polygon_21.edges,polygon_22.pos,polygon_22.edges,polygon_23.pos,polygon_23.edges,polygon_24.pos,polygon_24.edges,polygon_25.pos,polygon_25.edges,polygon_26.pos,polygon_26.edges,polygon_27.pos,polygon_27.edges,polygon_28.pos,polygon_28.edges,polygon_29.pos,polygon_29.edges,polygon_30.pos,polygon_30.edges,polygon_31.pos,polygon_31.edges,polygon_32.pos,polygon_32.edges,dot_size,ITI.stopped,trials.thisRepN,trials.thisTrialN,trials.thisN,trials.thisIndex,trials.ran,break_2.started,break_2.stopped,trials_3.thisRepN,trials_3.thisTrialN,trials_3.thisN,trials_3.thisIndex,trials_3.ran
subject chose dot,subject chose diamond,0.0003,39.9035,space,24.8829,,603d0e0e5b0386b034e93bf5,6842bb2b278f6138edc6f7e9,2025-06-06_11h58.18.094,shape_ratio,2024.1.5,Win32,61.34969325,6842b561977af9ba9b0f87ca,,,,,,,,,,,,,,,,,,,,,,,,,,,,,,,,,,,,,,,,,,,,,,,,,,,,,,,,,,,,,,,,,,,,,,,,,,,,,,,,,,,,,,,,,,,,,,,,,,,,,,,,,,,,,,,,,
,,,,,,,603d0e0e5b0386b034e93bf5,6842bb2b278f6138edc6f7e9,2025-06-06_11h58.18.094,shape_ratio,2024.1.5,Win32,61.34969325,6842b561977af9ba9b0f87ca,39.9037,77.6343,space,7.7125,,,,,,,,,,,,,,,,,,,,,,,,,,,,,,,,,,,,,,,,,,,,,,,,,,,,,,,,,,,,,,,,,,,,,,,,,,,,,,,,,,,,,,,,,,,,,,,,,,,,,,,,,,,,,
,,,,,,,603d0e0e5b0386b034e93bf5,6842bb2b278f6138edc6f7e9,2025-06-06_11h58.18.094,shape_ratio,2024.1.5,Win32,61.34969325,6842b561977af9ba9b0f87ca,,,,,,77.6345,83.5068,space,2.8533,,,,,,,,,,,,,,,,,,,,,,,,,,,,,,,,,,,,,,,,,,,,,,,,,,,,,,,,,,,,,,,,,,,,,,,,,,,,,,,,,,,,,,,,,,,,,,,,,,,,,,,,
,,,,,,,603d0e0e5b0386b034e93bf5,6842bb2b278f6138edc6f7e9,2025-06-06_11h58.18.094,shape_ratio,2024.1.5,Win32,61.34969325,6842b561977af9ba9b0f87ca,,,,,,,,,,,83.5232,84.0227,84.0229,84.2722,84.2723,85.4198,right,1.1309,,85.42,86.5178,0.0,0.0,0.0,1.0,1.0,0.8,,,,,,,,,,,,,,,,,,,,,,,,,,,,,,,,,,,,,,,,,,,,,,,,,,,,,,,,,,,,,,,,,,,,,,,,,,,,,,,,,,,,,,
,,,,,,,603d0e0e5b0386b034e93bf5,6842bb2b278f6138edc6f7e9,2025-06-06_11h58.18.094,shape_ratio,2024.1.5,Win32,61.34969325,6842b561977af9ba9b0f87ca,,,,,,,,,,,86.5183,87.0167,87.0168,87.2672,87.2672,87.6661,left,0.395,,87.6661,88.7639,0.0,1.0,1.0,0.0,1.0,0.2,,,,,,,,,,,,,,,,,,,,,,,,,,,,,,,,,,,,,,,,,,,,,,,,,,,,,,,,,,,,,,,,,,,,,,,,,,,,,,,,,,,,,,
,,,,,,,603d0e0e5b0386b034e93bf5,6842bb2b278f6138edc6f7e9,2025-06-06_11h58.18.094,shape_ratio,2024.1.5,Win32,61.34969325,6842b561977af9ba9b0f87ca,,,,,,,,,,,,,,,,,,,,,,,,,,,,88.7645,94.3707,space,2.5848,,,,,,,,,,,,,,,,,,,,,,,,,,,,,,,,,,,,,,,,,,,,,,,,,,,,,,,,,,,,,,,,,,,,,,,,,,,,,,,,,,
,,,,,,,603d0e0e5b0386b034e93bf5,6842bb2b278f6138edc6f7e9,2025-06-06_11h58.18.094,shape_ratio,2024.1.5,Win32,61.34969325,6842b561977af9ba9b0f87ca,,,,,,,,,,,94.3809,94.8694,,,95.1196,95.6344,right,0.5098,,,,,,,,,0.9,,,,,,94.87,95.1195,95.6347,"[0.09296786430881017,0.09374282363824038]",4.0,"[-0.025300404007146813,0.08604271009560481]",100.0,"[-0.04857675928815654,0.04408528635757693]",100.0,"[0.16133706737953152,0.05936181444283465]",4.0,"[-0.054850163962612865,-0.006057425658750736]",100.0,"[0.021703798422305732,0.13050239790609877]",100.0,"[0.027886530200993142,-0.14096218765210186]",100.0,"[0.09298596071777737,-0.10428398300950457]",100.0,"[0.03690083449699858,-0.0030567680911328774]",100.0,"[-0.1659345930349604,0.10555904178334813]",4.0,"[-0.10957769567406815,-0.007636100831934215]",100.0,"[-0.02788619546119788,-0.05151813338077856]",100.0,"[0.1444521156795018,-0.004722182833052017]",100.0,"[0.15405708771830082,-0.08065303353905703]",100.0,"[-0.09942489118893061,0.046111997906775865]",100.0,"[-0.049526026883083045,0.16983516657017744]",100.0,"[-0.036473210487842446,-0.19240709422889257]",100.0,"[-0.1558318359831459,-0.009634181408508526]",100.0,"[0.07211033482087852,-0.1486523414792998]",100.0,"[0.03181435191975027,-0.07416860288114263]",100.0,"[0.13394888119417572,-0.13641039185056694]",100.0,"[-0.11620620911999502,-0.15172459271881295]",100.0,"[0.09429344425581014,-0.019737971077069594]",100.0,"[-0.06057442345263005,-0.08270648778924213]",100.0,"[0.030139107990707275,0.07249422034138182]",100.0,"[-0.13069653638511608,-0.08944538935920016]",100.0,"[0.060705685188151955,0.17122871840938284]",100.0,"[0.07123298309909709,0.03355518593585728]",100.0,"[-0.07360042388607585,0.08516939939218493]",100.0,"[0.1406200513884339,0.10003486675771037]",100.0,"[0.06445085165533704,-0.04682438213701587]",100.0,"[0.12092286374823609,0.15510207059709208]",100.0,"[0.02,0.02]",96.7325,0.0,0.0,0.0,25.0,1.0,,,,,,,
,,,,,,,603d0e0e5b0386b034e93bf5,6842bb2b278f6138edc6f7e9,2025-06-06_11h58.18.094,shape_ratio,2024.1.5,Win32,61.34969325,6842b561977af9ba9b0f87ca,,,,,,,,,,,96.733,97.2315,,,97.4818,97.9137,right,0.4162,,,,,,,,,0.9,,,,,,97.2316,97.4818,97.9138,"[0.17368711202591003,-0.046302039208470536]",100.0,"[-0.11506612358590365,0.11762107930973023]",100.0,"[-0.14976687146636683,-0.048460245251142134]",100.0,"[0.044507345010868865,0.19441362122050518]",100.0,"[-0.03675329504692126,-0.10043583850905856]",100.0,"[0.18750442282868715,0.05466396238759972]",100.0,"[-0.028865028293534944,0.03462973588962816]",100.0,"[0.08366337190697587,-0.17706933731955385]",100.0,"[0.112492494603142,-0.010436340905318524]",100.0,"[0.10142230639522465,0.059302510821308385]",100.0,"[-0.09437344873084466,0.0667513000888696]",100.0,"[-0.010316998798365552,0.12242180147659036]",100.0,"[0.01881430247367802,-0.07792306299079604]",100.0,"[0.1349628293479361,0.1341210015988699]",4.0,"[0.06135771712621121,0.04300177835979983]",100.0,"[-0.023800196143422367,0.18708426875910106]",100.0,"[0.09941427574563165,-0.11550541833665785]",100.0,"[-0.0692557281417445,-0.01711962757967304]",100.0,"[-0.08547780831243178,-0.17990107801981092]",100.0,"[0.16138181391812212,-0.08896175031055126]",100.0,"[0.16545903009008847,0.0918814144888623]",100.0,"[-0.1563618100063083,0.11868796135312705]",100.0,"[-0.033079812635237675,-0.1606555929610837]",100.0,"[0.059732138328372465,0.13737135953088964]",100.0,"[0.022671251769076833,-0.19093091269252777]",100.0,"[-0.04266358236798335,-0.05603512727949289]",100.0,"[-0.1441680331951233,0.021792777684320398]",100.0,"[-0.14685228131737033,-0.10555823168632265]",4.0,"[0.10353132194221924,0.16159254811948257]",100.0,"[-0.12062305341921792,-0.14129759226228988]",100.0,"[-0.05239725453601371,0.07383041867741352]",4.0,"[0.049959681989727,-0.12289658141861955]",100.0,"[0.02,0.02]",99.0117,0.0,1.0,1.0,2.0,1.0,,,,,,,
,,,,,,,603d0e0e5b0386b034e93bf5,6842bb2b278f6138edc6f7e9,2025-06-06_11h58.18.094,shape_ratio,2024.1.5,Win32,61.34969325,6842b561977af9ba9b0f87ca,,,,,,,,,,,99.0122,99.5107,,,99.761,99.9766,left,0.2112,,,,,,,,,0.1,,,,,,99.5107,99.761,99.9766,"[-0.11603827478827573,-0.12099054033785246]",4.0,"[-0.14843578108722794,0.027346411735686364]",4.0,"[0.06035316941711164,0.1042805700886499]",4.0,"[-0.08537028528636023,0.04028441517008385]",100.0,"[0.004775803806162701,0.185762676456178]",4.0,"[-0.06289996021092538,-0.10954457355635798]",100.0,"[0.07003751633895407,-0.08227132679007566]",4.0,"[-0.056872270980318024,-0.17261427771462348]",100.0,"[0.16789690492410558,-0.010365216881399651]",4.0,"[-0.025474070590340465,0.15748436303763721]",4.0,"[-0.13712315692208282,-0.07041528088576754]",4.0,"[-0.046690762546532906,-0.04831177173424485]",4.0,"[0.07117240026019059,0.005607821430494354]",4.0,"[-0.16872005186616504,0.08594021021048559]",4.0,"[-0.06396082400735616,0.07423255232721673]",4.0,"[0.0033146999062075378,0.03813514089138347]",4.0,"[0.08723471458654486,0.15111953667095468]",4.0,"[-0.09685497129250231,0.17323108685226674]",4.0,"[0.11600721937341575,0.06485485382606193]",4.0,"[-0.18767804978062244,-0.03162120551018885]",4.0,"[0.0297943004864279,0.07716397179026872]",4.0,"[-0.08494263551989972,0.11423434697708082]",4.0,"[0.11872352332887146,-0.003961067969045017]",4.0,"[0.12653416645600604,-0.06681175324232012]",4.0,"[0.020595248480806568,-0.02452316638756493]",4.0,"[0.06979372225455675,0.06338413187035949]",4.0,"[0.18391006556457676,0.06913583015210809]",4.0,"[-0.017953693055140194,-0.11319880380246024]",4.0,"[0.06785626242300462,-0.1262960311634046]",4.0,"[0.053464642897725664,-0.19160216736683805]",4.0,"[0.13643291140224728,0.12400369519750044]",4.0,"[-0.035280630466269884,0.10978430893682688]",4.0,"[0.02,0.02]",101.0744,0.0,2.0,2.0,187.0,1.0,,,,,,,
,,,,,,,603d0e0e5b0386b034e93bf5,6842bb2b278f6138edc6f7e9,2025-06-06_11h58.18.094,shape_ratio,2024.1.5,Win32,61.34969325,6842b561977af9ba9b0f87ca,,,,,,,,,,,101.0748,101.5736,,,101.8237,102.2563,left,0.4174,,,,,,,,,0.1,,,,,,101.5736,101.8236,102.2563,"[0.052010727106328286,-0.09757569013847857]",4.0,"[0.14027097887591822,-0.09256359625955224]",4.0,"[-0.12001907309081147,-0.14546961031246022]",4.0,"[0.05376964724734661,0.006155438241121043]",4.0,"[0.1559422716933022,-0.011228762536731057]",4.0,"[0.0696971530619299,0.09988980968237991]",4.0,"[0.0894138108059193,-0.0648274132509487]",4.0,"[-0.09742808324805136,0.11409201071106939]",100.0,"[-0.12327214583734218,-0.02746229199810236]",4.0,"[0.024577702306948418,0.13436015402270812]",4.0,"[0.12705328413532369,0.10105216655007732]",4.0,"[-0.16520705777745337,-0.09871881068735812]",4.0,"[-0.08329302821837142,-0.10098503748355939]",100.0,"[-0.016951816374152693,0.18060477900207966]",4.0,"[0.1662520784499002,0.09203875776538335]",4.0,"[-0.15565377241965067,0.059085706597545085]",4.0,"[-0.0695879853527594,0.07010376531606916]",4.0,"[0.004303956318305059,-0.14775242706657754]",4.0,"[-0.015143636763755533,-0.041660586302028485]",4.0,"[-0.10538779153767455,0.16318206487574194]",4.0,"[-0.15630536164043365,0.10060401321248069]",4.0,"[-0.0304854678903823,0.12846786671640908]",4.0,"[0.0977175140183128,0.06471195555630713]",4.0,"[0.112036454462281,0.004753574733097009]",4.0,"[-0.03788193292418559,-0.10776412637801773]",4.0,"[0.03646994413033654,-0.04591359429305769]",4.0,"[0.032552368853967145,0.048607019971295906]",4.0,"[0.08084197866082707,0.13854636772791332]",4.0,"[0.10726570673495368,-0.12835634222559456]",4.0,"[0.007743387283185968,0.012831748542026532]",4.0,"[-0.08051648930820748,-0.028739421623520996]",100.0,"[0.02786172977595039,0.18210195850037436]",4.0,"[0.02,0.02]",103.3537,0.0,3.0,3.0,190.0,1.0,,,,,,,
,,,,,,,603d0e0e5b0386b034e93bf5,6842bb2b278f6138edc6f7e9,2025-06-06_11h58.18.094,shape_ratio,2024.1.5,Win32,61.34969325,6842b561977af9ba9b0f87ca,,,,,,,,,,,103.3542,103.8528,,,104.1026,104.801,right,0.6897,,,,,,,,,0.6,,,,,,103.8528,104.1025,104.8011,"[-0.16532753409447135,0.10009046991511246]",4.0,"[0.11517214662215366,0.017619535785616803]",100.0,"[-0.05378559435139368,0.1493834844334612]",100.0,"[0.021125666354812472,-0.12455760772852663]",4.0,"[-0.09999133650734525,0.1635163239123016]",4.0,"[-0.1313167465100596,-0.05536661083416767]",100.0,"[0.12093271551565576,-0.047328638133290114]",100.0,"[-0.11319372980815784,0.08185908674865883]",4.0,"[0.17415347707505738,-0.055870922272497514]",4.0,"[-0.029907027116090067,0.03242310083309449]",4.0,"[-0.17292983082429467,0.05127828560251412]",100.0,"[-0.003164043586026709,-0.07762217136518787]",100.0,"[0.17889276399921242,-0.005895986698073789]",100.0,"[-0.19753264571818205,-0.009395768479766479]",100.0,"[-0.04160726642165272,-0.14062877075218727]",100.0,"[0.12628420413075842,0.09983336591853965]",4.0,"[0.06777182655542319,0.08503067155966286]",100.0,"[0.05274369995272602,-0.06501776063633179]",4.0,"[-0.02983049724011616,0.1888455904717957]",100.0,"[-0.12134136313696545,0.12299809215719168]",4.0,"[0.007905484093119962,0.09919657712335461]",100.0,"[-0.002728329158854192,-0.0014663737917908334]",100.0,"[0.04629873519144843,-0.015422276451630393]",100.0,"[-0.07735591509068512,-0.10272911192613671]",100.0,"[0.157945040109871,0.05361184697877339]",100.0,"[0.14796560085013574,-0.11443458653233221]",100.0,"[0.041571976956269414,0.18205601894593582]",4.0,"[0.07511291207123307,-0.14731298521562589]",4.0,"[0.1141429076849547,0.15976239760855104]",100.0,"[-0.14057350218486808,-0.1051517949637612]",4.0,"[-0.06872853768367668,-0.005180255550420732]",4.0,"[-0.10601879959116335,-0.13558676232317432]",100.0,"[0.02,0.02]",105.899,0.0,4.0,4.0,39.0,1.0,,,,,,,
,,,,,,,603d0e0e5b0386b034e93bf5,6842bb2b278f6138edc6f7e9,2025-06-06_11h58.18.094,shape_ratio,2024.1.5,Win32,61.34969325,6842b561977af9ba9b0f87ca,,,,,,,,,,,105.8994,106.3981,,,106.6488,106.9807,right,0.3199,,,,,,,,,0.9,,,,,,106.3982,106.6488,106.9807,"[0.1717383668101833,-0.03864920562834618]",100.0,"[0.06039849985861041,0.16766614592877246]",100.0,"[-0.08305237136674427,-0.021869149382955665]",100.0,"[0.12286980960954669,-0.1563438140576132]",100.0,"[0.06483730681464188,-0.1650206651872845]",100.0,"[0.08677690042211712,0.021473757717209385]",100.0,"[-0.00030122648725944794,0.1026700578424502]",4.0,"[-0.020251977070557127,-0.11840323921818806]",100.0,"[0.021914263383765124,-0.030572395218679882]",100.0,"[-0.03543363003952493,0.1862579525973889]",100.0,"[0.029002414358590498,0.06432563490080187]",100.0,"[0.1311609934279045,0.11700274596599985]",100.0,"[0.16741061031702406,0.0384196883079989]",100.0,"[0.011910030994667984,0.022185045300767096]",100.0,"[-0.14451644825673804,-0.08205411666263503]",100.0,"[0.038902433718744106,0.1335412910836884]",100.0,"[-0.08382246455863786,0.17451995021856723]",100.0,"[0.0857884053951392,-0.04418494494562789]",100.0,"[-0.058381901979845184,-0.18261000936754784]",100.0,"[-0.12074394501832136,0.15549869712399056]",100.0,"[-0.11480956118188232,-0.11930344055210135]",4.0,"[-0.0904359923193648,0.11754110996880715]",100.0,"[-0.17458644158944972,0.06847441613980917]",100.0,"[-0.12897691607185124,0.09217551557337512]",100.0,"[-0.0775096875552354,-0.14207589164370876]",100.0,"[-0.14501758345235383,-0.024028796063887012]",100.0,"[-0.026604384444809157,-0.015673564999886116]",100.0,"[0.06949960811914421,-0.09647933309989827]",100.0,"[-0.0938557225242405,-0.06146125864214645]",4.0,"[-0.18626292670998099,-0.03477344474802939]",100.0,"[0.13285997048038153,-0.09972906074547246]",100.0,"[0.06648594281668804,0.09376120047525176]",100.0,"[0.02,0.02]",108.0785,0.0,5.0,5.0,20.0,1.0,,,,,,,
,,,,,,,603d0e0e5b0386b034e93bf5,6842bb2b278f6138edc6f7e9,2025-06-06_11h58.18.094,shape_ratio,2024.1.5,Win32,61.34969325,6842b561977af9ba9b0f87ca,,,,,,,,,,,108.079,108.5774,,,108.8273,109.4594,left,0.6141,,,,,,,,,0.4,,,,,,108.5774,108.8272,109.4595,"[0.06920458397082331,0.04686445523012994]",4.0,"[-0.07264594112853531,0.018650068244636064]",4.0,"[-0.11958184252691823,0.012385618769164946]",4.0,"[0.04431852055154066,-0.054139670201211104]",4.0,"[0.05740592185536457,-0.1066772346368749]",100.0,"[-0.018427660681584294,0.011784137400827633]",4.0,"[0.0011123658894796836,-0.1272900718546504]",100.0,"[0.1405287405723253,0.03125140888561945]",4.0,"[-0.028090571944552712,0.10876282168187376]",4.0,"[0.07884762736290193,0.1817887332632496]",4.0,"[-0.06274607228412339,0.170539783991061]",100.0,"[0.03596640664181477,-0.18993014096468888]",4.0,"[-0.1415310623718513,-0.12414188057513019]",4.0,"[0.03815413099755422,0.16264001584704665]",4.0,"[0.12286227635187055,-0.11873020531978552]",100.0,"[-0.008450188064936724,-0.04828184885515226]",100.0,"[-0.03407660281191344,-0.09431538695025103]",4.0,"[0.17928874411475335,0.001813499798349881]",100.0,"[0.0712089877437161,0.12285295161310124]",4.0,"[-0.1691141984729917,0.04729865597576213]",4.0,"[-0.07125189486291819,-0.11778667889764223]",100.0,"[0.02070526758909861,0.12605986249272735]",4.0,"[-0.08909283354616247,-0.03737888473830727]",100.0,"[0.08173258813847266,-0.14618162508373525]",100.0,"[0.14614930353055267,0.07648514446634518]",100.0,"[0.12846983407702398,0.11632160326729636]",4.0,"[-0.16822769668899443,0.09602684955671599]",4.0,"[0.020467272900189806,0.07972337973875664]",4.0,"[0.18865623065610518,0.05234837741514005]",100.0,"[-0.0448552706932418,-0.18112308568495927]",100.0,"[0.07424229761365836,-0.001370514131589158]",100.0,"[-0.16531528436849915,0.006799115618298153]",4.0,"[0.02,0.02]",110.5575,0.0,6.0,6.0,176.0,1.0,,,,,,,
,,,,,,,603d0e0e5b0386b034e93bf5,6842bb2b278f6138edc6f7e9,2025-06-06_11h58.18.094,shape_ratio,2024.1.5,Win32,61.34969325,6842b561977af9ba9b0f87ca,,,,,,,,,,,110.558,111.0564,,,111.3062,111.7216,right,0.4102,,,,,,,,,0.55,,,,,,111.0564,111.3062,111.7217,"[-0.049813117903438835,0.025269714750234002]",100.0,"[-0.12798361659193982,-0.03219116103975944]",4.0,"[0.18847260871798616,-0.006873356361884147]",4.0,"[0.06117749717182845,-0.06171853842519363]",100.0,"[-0.0749106942290292,-0.13765861885311007]",4.0,"[0.1859798411043766,0.04847530675560089]",100.0,"[-0.11543504724997408,-0.09695561579790613]",100.0,"[0.04305822433788652,-0.1275728610569449]",100.0,"[-0.038913448272492435,-0.030740872083282834]",4.0,"[-0.17147005050546615,0.04583728997340596]",100.0,"[-0.10935128407270288,-0.16550957758932447]",4.0,"[0.07506348116514265,-0.023201290267733213]",100.0,"[-0.06014504555462097,0.09107181692054271]",4.0,"[-0.0008189515723594073,-0.05281819273511241]",100.0,"[-0.012952489466187978,0.19044889881626137]",100.0,"[-0.08152223705774148,0.14213386559409433]",4.0,"[0.02013779249608448,0.153849379190552]",4.0,"[0.1418889420549192,-0.12128132111280869]",4.0,"[0.14736877298613393,-0.03712432061656409]",100.0,"[-0.15927373536214107,-0.1002656393784492]",100.0,"[-0.0038670162629470604,-0.18100298237807455]",4.0,"[-0.12981872070984932,0.08800214294188578]",100.0,"[-0.022952226586638317,0.14570031243520645]",100.0,"[0.09953458788013027,-0.12230014205660192]",4.0,"[-0.010110416145404224,0.03210676708216654]",100.0,"[-0.19730152285372743,-0.02259917189201724]",4.0,"[0.09773523134673523,0.07470661086224456]",100.0,"[0.07264371203058297,0.16044403212211628]",4.0,"[0.10905368708703611,0.12447851677132186]",4.0,"[0.03629155388448654,0.1075035516664159]",100.0,"[0.08245188630119513,-0.16103652833561774]",100.0,"[-0.08768929589552141,-0.049672549952942416]",100.0,"[0.02,0.02]",112.8205,0.0,7.0,7.0,81.0,1.0,,,,,,,
,,,,,,,603d0e0e5b0386b034e93bf5,6842bb2b278f6138edc6f7e9,2025-06-06_11h58.18.094,shape_ratio,2024.1.5,Win32,61.34969325,6842b561977af9ba9b0f87ca,,,,,,,,,,,112.8209,113.3193,,,113.5687,114.2837,left,0.6987,,,,,,,,,0.4,,,,,,113.3194,113.5687,114.2838,"[0.011056942381840282,0.07339538955135791]",4.0,"[-0.18871510054105817,0.0661548068305988]",100.0,"[-0.023368110200002068,-0.0985845506987597]",4.0,"[0.159219445398488,-0.07820325316297552]",4.0,"[-0.062017769345975006,0.17172847278843065]",4.0,"[0.05260679531030786,0.06951091740505798]",4.0,"[0.15425824551487438,0.02331768919806772]",4.0,"[0.18999466916351948,-0.052428333481054516]",4.0,"[0.07918603177176682,0.1087811179791383]",4.0,"[0.13528782654740173,-0.04138501515499599]",100.0,"[-0.07507579471303241,0.03460035801514612]",4.0,"[-0.1693934492030951,-0.037002382300924966]",4.0,"[0.10003160079602955,-0.09369468448247148]",100.0,"[0.12454967454029918,-0.14338174161822628]",4.0,"[0.06563961058565307,0.016774153602747494]",4.0,"[-0.15871730206954665,-0.07836657169826958]",4.0,"[-0.009510407282949539,0.013047078642398048]",100.0,"[-0.04413922682132087,-0.03634467198878248]",100.0,"[-0.0917556754827139,0.07503965413793351]",4.0,"[0.026199133821293123,-0.11128388179305537]",4.0,"[0.10104794590115572,0.14972659124641374]",4.0,"[-0.06556533376470415,-0.13225970052185676]",100.0,"[-0.15019433400057658,0.03667453046306825]",4.0,"[-0.05131268863461516,-0.18027285555891642]",100.0,"[-0.02100542732976169,0.15131547663319317]",100.0,"[-0.09269246820080523,0.13087059327182543]",4.0,"[-0.10688704381403302,-0.04208722220905282]",100.0,"[0.058039282611599734,-0.02854160533338716]",100.0,"[-0.009106988949203369,-0.14692840230399207]",100.0,"[0.12365274570427831,0.0756080080759023]",100.0,"[-0.14515626766125775,0.12313724113537412]",4.0,"[-0.05179702075475828,0.10336686037481992]",100.0,"[0.02,0.02]",115.3817,0.0,8.0,8.0,169.0,1.0,,,,,,,
,,,,,,,603d0e0e5b0386b034e93bf5,6842bb2b278f6138edc6f7e9,2025-06-06_11h58.18.094,shape_ratio,2024.1.5,Win32,61.34969325,6842b561977af9ba9b0f87ca,,,,,,,,,,,115.3823,115.8811,,,116.1311,116.9787,left,0.8404,,,,,,,,,0.5,,,,,,115.8811,116.131,116.9788,"[0.008958699867531474,-0.09974807486947652]",100.0,"[0.11348169333957339,-0.1501407307874512]",4.0,"[0.1518893821241516,-0.0663250444660286]",100.0,"[-0.12918868312213339,-0.032378908399343646]",4.0,"[-0.0259723641173973,0.10940386012091517]",100.0,"[0.05828603462247809,-0.06857547179406327]",100.0,"[0.06144149010536462,0.1698685131477553]",4.0,"[-0.10083811082547749,0.1266500304950221]",100.0,"[-0.13911226589172357,0.0511976906826607]",100.0,"[-0.05330575052980304,-0.06582233841700703]",4.0,"[0.14773335953239047,0.057771834644913]",100.0,"[0.07600541898632236,-0.012099882353046635]",100.0,"[-0.06301354616784875,0.07677782520123541]",4.0,"[0.0189603549644737,-0.05301110514724987]",4.0,"[0.17249762226606102,0.01714544709961026]",4.0,"[0.06722638554294212,-0.17384436234761358]",100.0,"[0.19621087593247596,-0.0333584881859208]",4.0,"[-0.002700918361367106,0.07647696849744326]",100.0,"[0.004150408355000015,-0.14408853469935]",4.0,"[-0.1043309026316213,-0.14739958611382148]",100.0,"[0.03632223352917465,0.033475035342723065]",4.0,"[-0.09829280868138832,0.03951223365137486]",4.0,"[0.06794081730869406,0.12334026694048068]",4.0,"[0.0009320610791428984,-0.1951317945974847]",4.0,"[-0.19338050789700648,0.03031026227047586]",100.0,"[0.05416606156301638,0.07592675329560294]",100.0,"[0.06764955031494567,-0.1253160362058063]",4.0,"[-0.06718300929926874,-0.12990774197440452]",4.0,"[-0.15121473991129236,-0.12595278162760506]",100.0,"[-0.0554046588633362,0.16696292236500596]",100.0,"[-0.03046181553661325,-0.019889547288591852]",4.0,"[0.09399147447102178,0.06020222372128283]",100.0,"[0.02,0.02]",118.0768,0.0,9.0,9.0,118.0,1.0,,,,,,,
,,,,,,,603d0e0e5b0386b034e93bf5,6842bb2b278f6138edc6f7e9,2025-06-06_11h58.18.094,shape_ratio,2024.1.5,Win32,61.34969325,6842b561977af9ba9b0f87ca,,,,,,,,,,,118.0772,118.5761,,,118.8259,119.541,left,0.7067,,,,,,,,,0.5,,,,,,118.5762,118.8259,119.541,"[0.09077690535347861,-0.007431547814629463]",4.0,"[-0.10046106386030183,0.13594191088466895]",100.0,"[0.02379550135849468,0.07832270510331724]",4.0,"[0.015144472543190726,0.009441613576703133]",4.0,"[-0.04110263989764573,-0.06816156902349142]",4.0,"[0.13355680146406032,0.05559274653066199]",4.0,"[-0.043122207422527654,0.06873214279476772]",4.0,"[-0.08985156251152342,0.07883467617689395]",100.0,"[0.10705497384965282,-0.07893533338291915]",100.0,"[-0.06335004122988311,-0.03268238701331973]",4.0,"[0.09176129385705964,0.13581854845306354]",100.0,"[-0.01972737936982473,0.11562483648527173]",4.0,"[-0.051877785850860954,-0.13400792495832872]",100.0,"[0.1350475292427773,-0.046055947852828426]",100.0,"[0.09049477699336776,-0.1552725688048122]",4.0,"[-0.018547846348043736,-0.17956831098301887]",100.0,"[-0.1815032412068374,-0.000930991612180649]",4.0,"[-0.1570865825047676,-0.08289829520413873]",4.0,"[-0.0072670108704863835,-0.12020842708886302]",100.0,"[-0.008027233018288603,0.18513324992989197]",4.0,"[-0.14482137763820965,-0.1362604434487727]",4.0,"[0.17635716898016496,0.08531445388720257]",100.0,"[-0.09713578438908316,0.0037619061688778967]",100.0,"[-0.1322102377014984,0.07878714605853224]",100.0,"[0.0783859304073001,0.04770037757773557]",100.0,"[0.13622017027481448,0.13678451657903792]",4.0,"[0.06958625817968458,-0.056284613232165895]",4.0,"[0.05280251162524523,-0.09293255553879912]",100.0,"[0.05078137448327748,-0.18334285605835643]",100.0,"[-0.058504005410222396,-0.18217820317938166]",100.0,"[0.1732854061617235,-0.03267791646941709]",100.0,"[-0.0723863381683698,0.18553985920374236]",4.0,"[0.02,0.02]",120.6387,0.0,10.0,10.0,113.0,1.0,,,,,,,
,,,,,,,603d0e0e5b0386b034e93bf5,6842bb2b278f6138edc6f7e9,2025-06-06_11h58.18.094,shape_ratio,2024.1.5,Win32,61.34969325,6842b561977af9ba9b0f87ca,,,,,,,,,,,120.639,121.1377,,,121.388,122.1032,left,0.7026,,,,,,,,,0.5,,,,,,121.1377,121.3879,122.1032,"[0.0468325611173286,0.09793950152899249]",4.0,"[0.02379980470710957,0.15459770677178825]",100.0,"[-0.11785895961919898,0.14407951628496576]",4.0,"[0.01617698400721429,0.19522004736076154]",4.0,"[0.0036098280125563278,-0.019923433913518144]",100.0,"[-0.14389606657789628,-0.0981055034156502]",100.0,"[0.19117036435276405,0.05654120827070241]",4.0,"[-0.12929637182372955,-0.04140998035384047]",4.0,"[0.14232244324997245,-0.12721390980964603]",100.0,"[-0.1783495732556607,0.029236118870271416]",100.0,"[-0.001854807714255249,0.04600147725427837]",100.0,"[-0.09253064745894678,-0.15715847166465255]",100.0,"[0.09985190362541006,-0.01535116623176336]",4.0,"[0.17673736203378623,-0.035989704834096976]",4.0,"[-0.055216286673700266,-0.03477517880032667]",4.0,"[0.03335806629919529,-0.06466152328848479]",4.0,"[-0.12134299361257059,0.011741406192613858]",4.0,"[0.0838097165710616,0.1533241522552657]",100.0,"[-0.0055075936688401194,-0.12449656089165911]",100.0,"[0.17702618187235872,0.014616439925737088]",4.0,"[0.04188962138472949,-0.0028058358104225338]",100.0,"[0.06360101505234673,0.03593099129672703]",4.0,"[-0.06301972426672349,0.15053764984675114]",4.0,"[-0.10105459957875285,-0.08234707765230173]",4.0,"[0.1351950988685314,0.027262185750889796]",4.0,"[0.12810244894302023,-0.05711999164590177]",100.0,"[-0.044989055851618255,0.1892938594908857]",100.0,"[0.006659876551095279,0.10783967927905463]",100.0,"[0.10175055679862084,-0.13505496824916158]",100.0,"[0.12134834612329788,0.12792648660919606]",4.0,"[0.039470541342873124,-0.14133938856201264]",100.0,"[-0.04671252652305085,-0.11478089451881271]",100.0,"[0.02,0.02]",123.2007,0.0,11.0,11.0,109.0,1.0,,,,,,,
,,,,,,,603d0e0e5b0386b034e93bf5,6842bb2b278f6138edc6f7e9,2025-06-06_11h58.18.094,shape_ratio,2024.1.5,Win32,61.34969325,6842b561977af9ba9b0f87ca,,,,,,,,,,,123.201,123.7,,,123.9497,124.7652,left,0.8046,,,,,,,,,0.4,,,,,,123.7,123.9497,124.7652,"[-0.06435518141783476,0.10870980922757363]",4.0,"[0.11784874032826999,-0.021889755327142334]",100.0,"[-0.16174522989307982,0.04784531223364882]",100.0,"[-0.032703917213659284,-0.11437265740611656]",100.0,"[-0.13939256082074894,0.13857782803298435]",100.0,"[0.1521297958769647,0.12639791795118932]",100.0,"[0.0481862117649023,-0.15366716329744898]",4.0,"[-0.1183725564255094,0.008847945417010636]",4.0,"[0.15720598970333483,0.005133575098628434]",4.0,"[0.08714276104217761,-0.0650781962625836]",100.0,"[0.09358459369519907,0.043119200775421765]",100.0,"[0.10184098036209889,0.16775410351175618]",100.0,"[-0.0937191610954766,-0.08773652261027517]",100.0,"[0.1528195203420464,-0.1093600764324074]",4.0,"[-0.17827226502918878,-0.0038428324847197444]",4.0,"[-0.08208159557674394,0.16323125888309034]",100.0,"[0.035111546396744374,0.1440616630308279]",4.0,"[0.07208519102948849,-0.01014033258487098]",4.0,"[-0.025424750939444834,0.08040524846862025]",4.0,"[-0.1382365011449425,-0.07808265263376374]",4.0,"[0.049706234789927264,0.08248527694508562]",4.0,"[-0.05350927781599618,0.030036468231136235]",100.0,"[0.10583766661074566,-0.10856360400189391]",4.0,"[0.01667670998853414,-0.09172747217202093]",4.0,"[0.02254433295920354,-0.011502489868244495]",4.0,"[-0.027295644950129243,0.14886315120572904]",4.0,"[0.039157276836025545,0.18685318379307772]",4.0,"[0.1224566669275567,0.09361691938305002]",4.0,"[0.1539030946695397,-0.04109403058567202]",100.0,"[0.03901924908288916,0.04051473952744647]",4.0,"[0.16342194977117724,0.0650223854033401]",4.0,"[-0.18621393713744827,-0.0564901665788283]",100.0,"[0.02,0.02]",125.8626,0.0,12.0,12.0,156.0,1.0,,,,,,,
,,,,,,,603d0e0e5b0386b034e93bf5,6842bb2b278f6138edc6f7e9,2025-06-06_11h58.18.094,shape_ratio,2024.1.5,Win32,61.34969325,6842b561977af9ba9b0f87ca,,,,,,,,,,,125.8629,126.3618,,,126.6114,126.9771,right,0.3611,,,,,,,,,0.9,,,,,,126.3618,126.6114,126.9771,"[-0.052740358569729064,0.03931549834142434]",100.0,"[0.04975297986705921,0.03185435485440718]",100.0,"[-0.055734196055068776,-0.018583914835861547]",4.0,"[-0.09769667714303583,-0.06033827045017346]",100.0,"[0.07184266042117227,-0.0792690360968598]",100.0,"[0.06823141705305871,0.08935859684931347]",100.0,"[-0.10606384187871191,-0.003198158565277542]",100.0,"[0.0013785739619061228,0.01389179034019305]",100.0,"[-0.02599704348560749,-0.1565710412390919]",100.0,"[0.054363197524649756,-0.13074885029657718]",100.0,"[-0.02181820139521509,0.12748901777296234]",100.0,"[-0.09431456736720956,-0.17001014011400187]",100.0,"[-0.11688980254709394,-0.10379434363780528]",4.0,"[-0.15231181009778855,0.12661963502152368]",100.0,"[-0.16507184303446068,-0.09560544545811452]",100.0,"[0.17071562854718197,0.06856847144173443]",100.0,"[0.0966302296027108,-0.13019969374637877]",100.0,"[0.1255726365535089,0.08855032582340118]",100.0,"[-0.10339217074529453,0.04590834574080298]",100.0,"[-0.1384950451957268,0.08762033715188569]",100.0,"[0.05387585566223963,-0.18347412366104765]",100.0,"[-0.057805088737060265,0.19000071331611393]",100.0,"[0.03662260674982156,0.14119214660288515]",100.0,"[-0.08401174651133915,0.09221350177007581]",100.0,"[0.09346741839137646,0.04587881998372131]",100.0,"[0.1311098287971149,-0.047026623002769274]",100.0,"[-0.00896504864496171,0.05737684496106483]",4.0,"[-0.15250621946136916,-0.03599908125393161]",100.0,"[-0.01874946509480845,-0.19787389197133]",100.0,"[-0.09874921310483398,0.13297491500327255]",100.0,"[-0.16232811295744204,0.03980767885870475]",100.0,"[0.0918834299364489,-0.02602646322767429]",100.0,"[0.02,0.02]",128.0754,0.0,13.0,13.0,17.0,1.0,,,,,,,
,,,,,,,603d0e0e5b0386b034e93bf5,6842bb2b278f6138edc6f7e9,2025-06-06_11h58.18.094,shape_ratio,2024.1.5,Win32,61.34969325,6842b561977af9ba9b0f87ca,,,,,,,,,,,128.0759,128.5754,,,128.8239,129.3563,left,0.5213,,,,,,,,,0.4,,,,,,128.5754,128.8239,129.3564,"[-0.008061657487063932,0.07772586081918406]",100.0,"[0.13175521150361308,-0.09014640473883094]",4.0,"[-0.03910364006125186,0.14495140967790843]",4.0,"[0.10959881370661509,0.05963854156385106]",4.0,"[0.020720288461508043,0.18584224993472895]",100.0,"[0.08250001790763489,0.1340037210327308]",4.0,"[-0.15293341994410833,0.06427957140229017]",4.0,"[0.1350308787926325,-0.026864476290138828]",4.0,"[-0.10387785445257008,-0.123881110541607]",4.0,"[-0.15656577156830018,0.007086737358684515]",100.0,"[-0.06676657075304816,-0.04226375891823838]",100.0,"[-0.0552951178458114,0.08254162615068089]",100.0,"[-0.18890118005758164,-0.024086329652960578]",100.0,"[0.0026280876050670627,-0.05831562425440647]",4.0,"[0.009133460440299354,0.014902000220296462]",4.0,"[-0.005742903446581048,-0.10882766642209327]",100.0,"[0.14625271973482518,0.1018287080284646]",100.0,"[-0.046923734011539764,-0.11560044853010745]",4.0,"[-0.1551256767551933,-0.10944909477711673]",4.0,"[-0.10811112556017935,0.1624242408885889]",100.0,"[0.15577904007746793,0.06208735262672091]",4.0,"[-0.11360683407184173,-0.0035428486853742187]",4.0,"[0.06744707097481079,0.09195762133273772]",100.0,"[0.06050897270011009,-0.15890396084975048]",4.0,"[0.027974833270504675,0.13750067187415968]",4.0,"[0.09424855036085386,-0.03058530751086042]",4.0,"[0.07040236274354514,-0.08036823596711037]",100.0,"[0.1048730828517004,0.009812344960081758]",4.0,"[-0.07984701441276756,-0.08091771145549143]",4.0,"[0.01568373316640533,-0.15796453049742157]",100.0,"[0.06832615920133757,0.04625350549520848]",4.0,"[-0.06605067309490875,0.0240644852240422]",100.0,"[0.02,0.02]",130.4541,0.0,14.0,14.0,152.0,1.0,,,,,,,
,,,,,,,603d0e0e5b0386b034e93bf5,6842bb2b278f6138edc6f7e9,2025-06-06_11h58.18.094,shape_ratio,2024.1.5,Win32,61.34969325,6842b561977af9ba9b0f87ca,,,,,,,,,,,130.4546,130.9536,,,131.2032,131.736,right,0.5169,,,,,,,,,0.55,,,,,,130.9536,131.2032,131.736,"[0.10064500126438683,0.172711978305351]",4.0,"[0.03596439953272445,-0.04585842962284312]",100.0,"[0.19406118836701536,0.011716578585250478]",100.0,"[-0.14398245056988318,0.062393285363458444]",100.0,"[-0.17768703718797207,0.013852850781444194]",100.0,"[-0.0984905184019323,-0.11713476471294708]",100.0,"[0.06038489565418835,0.1121408305887137]",4.0,"[0.1653716220734535,-0.0894735631899397]",4.0,"[-0.054624380842738955,0.0888824425383876]",100.0,"[-0.04875682339773888,-0.014292752664877546]",100.0,"[-0.12436566644299926,-0.08167528359405467]",4.0,"[-0.06970966888101016,0.03542232215784937]",100.0,"[0.18456515647351476,-0.04663900717696629]",100.0,"[-0.014348155478135314,0.06754421452172761]",100.0,"[0.08671240460874861,-0.027892715529865757]",4.0,"[-0.017000888414502716,0.016841631070707182]",100.0,"[-0.005044815551893367,-0.07618413858819362]",100.0,"[-0.11978426914029887,0.09611790071091546]",4.0,"[0.09438600899135789,-0.15575765710874562]",100.0,"[0.12469455469862525,0.07072791719204898]",4.0,"[0.005501628378431416,-0.16196635143312224]",4.0,"[0.03443035206836327,-0.12038170638921328]",4.0,"[-0.038693099947888734,0.18514820665466242]",100.0,"[0.053376476804672814,0.18598725440932123]",100.0,"[0.16705733645337317,0.10533586377871472]",4.0,"[-0.14348148427627716,0.13469315928566145]",4.0,"[0.05071997756279005,-0.1663213140924656]",4.0,"[-0.01738796654269027,0.14169502873929707]",4.0,"[0.09303944475394788,0.03019721669458412]",100.0,"[0.12661516434599487,-0.040741000986107195]",100.0,"[0.06894139542395979,-0.08835223472258921]",4.0,"[-0.03846665791033508,-0.13547240276401057]",100.0,"[0.02,0.02]",132.833,0.0,15.0,15.0,88.0,1.0,,,,,,,
,,,,,,,603d0e0e5b0386b034e93bf5,6842bb2b278f6138edc6f7e9,2025-06-06_11h58.18.094,shape_ratio,2024.1.5,Win32,61.34969325,6842b561977af9ba9b0f87ca,,,,,,,,,,,132.8334,133.3322,,,133.5822,133.9979,right,0.4027,,,,,,,,,0.1,,,,,,133.3322,133.5822,133.9979,"[-0.17408692959114405,-0.043521429373450986]",4.0,"[0.0004312234765540343,-0.05660665942451156]",4.0,"[0.17396055741856448,-0.033113025771375544]",4.0,"[-0.19907571067299887,0.015095182888327419]",4.0,"[0.07328954479941507,-0.08915000906359413]",100.0,"[-0.03371752568571372,-0.1871759181034337]",4.0,"[-0.019516059053829287,-0.12806087101369]",4.0,"[-0.08391608982053338,0.04304283408672868]",4.0,"[0.12980552828634365,0.13601760851435793]",4.0,"[0.11981274454698261,-0.004967652702008915]",4.0,"[0.08971810200676754,0.12771273214563694]",4.0,"[-0.017411933092022026,0.13554941315747512]",4.0,"[-0.09570737876878288,-0.12057043178186784]",4.0,"[0.1684802369156539,0.09514489414395849]",4.0,"[-0.03893326214234081,-0.067273496666932]",4.0,"[-0.1050459658745281,0.15905372614261815]",4.0,"[0.11518139356367194,-0.14654467397825222]",4.0,"[-0.09259763985327499,0.10949444779761447]",4.0,"[-0.14846137476946078,-0.10670726215207053]",100.0,"[0.03340297931585508,-0.133119825803332]",4.0,"[0.030434521436990963,-0.18543863122386914]",100.0,"[-0.013408077050328933,0.0207003909340061]",4.0,"[0.13070338228191664,0.07351724499374436]",4.0,"[0.15588277527517524,-0.10686592498218392]",4.0,"[-0.06034799173620757,-0.02229628041014984]",4.0,"[-0.045061519684167724,0.09239365641414996]",4.0,"[-0.12844950062536684,0.0543526490065914]",4.0,"[-0.08283822540394739,-0.17819025859462176]",4.0,"[0.008811106196198296,0.056098457278500935]",4.0,"[0.05540912560893665,-0.005021953878518342]",4.0,"[-0.019564782856763743,0.18503850241457617]",4.0,"[-0.09227590617400233,-0.04967213902385349]",4.0,"[0.02,0.02]",135.0958,0.0,16.0,16.0,209.0,1.0,,,,,,,
,,,,,,,603d0e0e5b0386b034e93bf5,6842bb2b278f6138edc6f7e9,2025-06-06_11h58.18.094,shape_ratio,2024.1.5,Win32,61.34969325,6842b561977af9ba9b0f87ca,,,,,,,,,,,135.0963,135.5948,,,135.8447,136.4772,right,0.6146,,,,,,,,,0.5,,,,,,135.5948,135.8446,136.4772,"[0.11494427033137461,0.03356774926870467]",4.0,"[0.035023270995259294,0.07850787051840516]",100.0,"[0.06904800019863981,0.1544286825641264]",4.0,"[-0.056890313292088455,-0.046097637379088716]",100.0,"[-0.07894928813933254,0.13703326575602892]",100.0,"[-0.06333864831181991,0.00241070939154676]",4.0,"[0.03220896126542055,-0.13303134454249022]",4.0,"[-0.02443498594025827,0.12047566876562836]",100.0,"[0.1704997754116519,0.07396736080118886]",4.0,"[0.11270463692517106,-0.15012026696874853]",4.0,"[0.06208011974852955,0.010817181451802434]",100.0,"[0.07429557688954666,0.06044418477592195]",100.0,"[-0.11554806318993438,0.03681934834166091]",4.0,"[-0.17229772202378316,-0.05677413208912669]",4.0,"[-0.05023394498948545,-0.147898643168297]",4.0,"[-0.010483091264240062,0.07527846662128491]",100.0,"[-0.16475400608490523,0.024407057876667474]",100.0,"[-0.11981144583209592,0.08811324831489799]",100.0,"[0.1483865941250025,0.1142078726525052]",100.0,"[-0.11108853712784689,-0.04458785509290292]",100.0,"[-0.13519902574218975,-0.14698292254314166]",100.0,"[-0.1767015288606144,0.07264298385491204]",100.0,"[0.16171054532810403,-0.07415255546910647]",4.0,"[-0.02661817676134661,0.03148735993814253]",100.0,"[-0.0022321597874482104,-0.09394402030380611]",4.0,"[0.00966365449527053,0.005053189150878119]",100.0,"[-0.1978155955889913,-0.02056074896032146]",4.0,"[0.05668222903201846,-0.1789031694309201]",4.0,"[-0.03731734742356971,0.17101950484879103]",4.0,"[0.12498243705849378,-0.051761078813399405]",4.0,"[-0.07266162236309846,-0.09421635550269894]",4.0,"[-0.15405283221954813,0.1140808353715465]",100.0,"[0.02,0.02]",137.5747,0.0,17.0,17.0,112.0,1.0,,,,,,,
,,,,,,,603d0e0e5b0386b034e93bf5,6842bb2b278f6138edc6f7e9,2025-06-06_11h58.18.094,shape_ratio,2024.1.5,Win32,61.34969325,6842b561977af9ba9b0f87ca,,,,,,,,,,,137.5754,138.0739,,,138.3236,139.0552,left,0.724,,,,,,,,,0.1,,,,,,138.074,138.3236,139.0552,"[-0.027605337224929888,-0.05015018942987755]",4.0,"[0.11313268848069451,-0.05988187388487262]",4.0,"[-0.09017611748827786,-0.11078539212503256]",4.0,"[0.006081741279250324,-0.09036847908488982]",4.0,"[0.11504374958582479,-0.017888224508932606]",4.0,"[-0.14072967340534345,0.008464049205622284]",4.0,"[-0.10366447846841627,0.04968941688611954]",4.0,"[-0.09938428858715764,0.14820886375206632]",100.0,"[-0.003294778244552537,0.15401175084231392]",4.0,"[-0.19820673359792113,-0.004517747832680279]",4.0,"[0.05132082477510384,0.182070618015232]",4.0,"[0.0712248275555397,-0.08269594527839112]",4.0,"[-0.1624931866429557,-0.07683203569812491]",4.0,"[-0.04151378799143538,0.11383351308091734]",4.0,"[0.08474094777466859,-0.13792195052094924]",4.0,"[-0.08047287272340174,0.10279592891456317]",4.0,"[-0.12368146086404064,0.09862942068439973]",4.0,"[0.18085898049573745,0.07031189406617819]",4.0,"[0.12943992583252686,-0.13191264998585595]",4.0,"[0.05173469889363615,0.0929200619437887]",4.0,"[-0.002923062173534969,-0.15793052950120548]",4.0,"[0.12218574472456545,0.03406391018467134]",4.0,"[0.1650411000553983,-0.07487320367441173]",4.0,"[0.17280860953192226,-0.033057245754801005]",4.0,"[-0.007826581665917038,-0.005180112178778479]",100.0,"[-0.07639700184764897,-0.1565183924365499]",4.0,"[0.10202785040186338,0.13300710836421223]",4.0,"[0.06604991018440545,-0.028525538550137695]",4.0,"[0.1351805885221613,0.10197854805810448]",100.0,"[-0.05228675306528619,0.011499911718427439]",4.0,"[0.164133036599441,0.02728406696824187]",4.0,"[0.03292910227274834,-0.12974050314724045]",4.0,"[0.02,0.02]",140.1536,0.0,18.0,18.0,198.0,1.0,,,,,,,
,,,,,,,603d0e0e5b0386b034e93bf5,6842bb2b278f6138edc6f7e9,2025-06-06_11h58.18.094,shape_ratio,2024.1.5,Win32,61.34969325,6842b561977af9ba9b0f87ca,,,,,,,,,,,140.154,140.6524,,,140.9028,141.434,right,0.5268,,,,,,,,,0.55,,,,,,140.6525,140.9028,141.434,"[0.16682006990345905,-0.01486623293743222]",4.0,"[0.09374583648666081,-0.14952557952731224]",100.0,"[0.10073478169741527,-0.030723961315856602]",100.0,"[-0.14802217853261376,-0.026570178134581745]",100.0,"[0.19585254788684966,0.030723565388825973]",4.0,"[0.013430538239881324,-0.023524180662710226]",100.0,"[-0.04594484017193664,-0.1546454124790883]",4.0,"[0.04842058579066383,0.02330125755066531]",4.0,"[-0.07229444732895983,-0.034167992488275366]",4.0,"[-0.09287406731127659,0.0005929123464379544]",100.0,"[0.09852746687638424,0.04205038269578712]",4.0,"[-0.024391610816751494,0.0005876859974892092]",100.0,"[-0.061034359949226936,0.07353102751334471]",4.0,"[-0.08632270122439212,0.18010231208561728]",4.0,"[0.009794564038508856,-0.16188919461957813]",100.0,"[-0.1222995033964346,0.1548590815876121]",4.0,"[-0.18960749413925326,-0.053709730713477975]",100.0,"[0.17179351656957065,-0.09365315059405188]",4.0,"[-0.026243523983575857,0.19744014823389552]",4.0,"[0.00882885728021396,-0.0790285951747379]",100.0,"[-0.028501401460247273,0.15485270930634207]",100.0,"[-0.013412162428321136,0.05534229403286254]",100.0,"[-0.11455011928813559,-0.12417735676781391]",100.0,"[-0.06965020419461758,-0.08830037382595554]",100.0,"[0.1541180528994897,-0.05735903819448548]",4.0,"[0.15870901715022165,0.06844270754659705]",100.0,"[0.11975962166841476,-0.08247308233310587]",4.0,"[0.037369453772114605,0.09433328054693323]",100.0,"[0.043741397774262517,-0.19186809152566317]",100.0,"[0.04719944267592516,-0.13539999548199205]",4.0,"[-0.18613074811453878,0.007549190800510121]",100.0,"[-0.02053994023134663,0.11154248317912997]",100.0,"[0.02,0.02]",142.532,0.0,19.0,19.0,61.0,1.0,,,,,,,
,,,,,,,603d0e0e5b0386b034e93bf5,6842bb2b278f6138edc6f7e9,2025-06-06_11h58.18.094,shape_ratio,2024.1.5,Win32,61.34969325,6842b561977af9ba9b0f87ca,,,,,,,,,,,142.5324,143.0314,,,143.2811,143.6635,right,0.3649,,,,,,,,,0.1,,,,,,143.0314,143.281,143.6635,"[-0.08465066961695006,0.03478415014795549]",100.0,"[0.1707894789857011,-0.03622106925310438]",4.0,"[-0.17123019016849278,-0.08015661950075123]",4.0,"[0.07171648973761269,0.15829668178349632]",4.0,"[-0.030378324954621054,0.06603110514182588]",4.0,"[-0.07094760338251752,-0.055876091712126034]",100.0,"[0.09339934374434945,-0.016591243136661164]",4.0,"[-0.008156222245954282,0.0031109831146178507]",4.0,"[-0.0006803628478651092,-0.11214615800512415]",4.0,"[0.040125335760239154,-0.17249822854572555]",4.0,"[0.06379352948303185,-0.07550139829277656]",4.0,"[-0.06987171793600175,-0.1469272559759476]",4.0,"[-0.11351474646401177,-0.1453104190834704]",4.0,"[0.10895686779606077,-0.14167772945935353]",4.0,"[0.14360886951729263,0.10124927863610507]",4.0,"[0.11444119122316412,0.1581400433216946]",4.0,"[-0.1465450214503488,0.09965604334024415]",4.0,"[-0.07194258443686767,0.07746829444169764]",4.0,"[-0.06367611821155847,0.15400446875941734]",4.0,"[0.05528767700667636,0.11488865448062678]",4.0,"[-0.011111926500029541,-0.051500972359958166]",4.0,"[0.007537886210994621,0.15591890184736726]",4.0,"[0.09971287375573,0.09446483259096684]",4.0,"[0.17681805787559496,0.057266994095889305]",4.0,"[0.15260898890567057,-0.11441308036272832]",100.0,"[-0.14705546630699928,-0.044279881821715564]",4.0,"[-0.07215220986099485,-0.10011209991892778]",4.0,"[-0.023626389465578882,-0.15611083337046613]",4.0,"[0.04944542086665697,-0.038107359589309]",4.0,"[0.11810432959055694,0.020758023269527817]",4.0,"[-0.11761707039438705,0.15569087455357217]",4.0,"[0.04192995378364503,0.06341083017542533]",4.0,"[0.02,0.02]",144.7613,0.0,20.0,20.0,205.0,1.0,,,,,,,
,,,,,,,603d0e0e5b0386b034e93bf5,6842bb2b278f6138edc6f7e9,2025-06-06_11h58.18.094,shape_ratio,2024.1.5,Win32,61.34969325,6842b561977af9ba9b0f87ca,,,,,,,,,,,144.7617,145.2606,,,145.5104,146.2589,right,0.7397,,,,,,,,,0.4,,,,,,145.2607,145.5104,146.259,"[0.07341460350097377,-0.03844734547983086]",100.0,"[0.02508963613342751,-0.05250866011776032]",4.0,"[-0.12032537792359016,0.09736148092587066]",4.0,"[-0.13984551883215154,0.13290917544833736]",4.0,"[0.10933215207660041,0.05063742165078868]",4.0,"[0.09049195341969339,-0.082664549978691]",4.0,"[0.13897772395691832,-0.13561581960095567]",4.0,"[-0.14047797646285895,-0.053559390866407375]",100.0,"[0.18609578590185932,0.052056566539989205]",100.0,"[0.06431412478951452,-0.1790675063541827]",4.0,"[-0.02810203229952035,-0.04264800891347121]",100.0,"[0.048785366633242705,0.043563168475932605]",4.0,"[-0.11788884343017789,-0.09910307572135252]",4.0,"[-0.16850632428560147,0.008462741625762066]",4.0,"[-0.02670385447463862,0.03410543994460594]",4.0,"[-0.1022859134615156,-0.1377914965270493]",4.0,"[-0.06672338953502734,0.17377270087440788]",100.0,"[0.11929082410660913,-0.024468742536200346]",4.0,"[0.005787713919121296,-0.11117889031379377]",100.0,"[0.007638498354561429,-0.0076825158068546786]",100.0,"[0.012708477839757404,0.1866021682664229]",100.0,"[0.18078423914842193,0.010388271615545374]",4.0,"[0.08528319754579534,0.11526595859016374]",4.0,"[-0.027793055262221415,0.07543441509414488]",100.0,"[0.06165266555773704,0.1901867076255963]",100.0,"[0.14577637046712086,0.11374775653324061]",100.0,"[-0.11440993170710283,0.04215486348413494]",100.0,"[0.05733848834924898,0.1438873508592326]",4.0,"[-0.09081530995962009,-0.031111620557855327]",4.0,"[-0.014740231120000854,0.11477753808982347]",4.0,"[0.1400947493979543,0.02144314709805673]",4.0,"[0.17365830725211648,-0.043489780624967285]",100.0,"[0.02,0.02]",147.3572,0.0,21.0,21.0,164.0,1.0,,,,,,,
,,,,,,,603d0e0e5b0386b034e93bf5,6842bb2b278f6138edc6f7e9,2025-06-06_11h58.18.094,shape_ratio,2024.1.5,Win32,61.34969325,6842b561977af9ba9b0f87ca,,,,,,,,,,,147.3576,147.8558,,,148.1055,148.5546,right,0.4329,,,,,,,,,0.45,,,,,,147.8559,148.1055,148.5547,"[0.024919687988054717,0.08850084543170947]",100.0,"[-0.17915447695197412,0.06423548497502363]",100.0,"[0.06811068400750363,-0.017195271333850286]",4.0,"[0.08246765532011648,-0.12872883786723]",4.0,"[-0.04182762665147271,0.19474328158993673]",100.0,"[0.16718002446471336,-0.08274880951008103]",4.0,"[-0.07160563363986208,0.09326191489908407]",4.0,"[0.06599260904004813,-0.1882636498141985]",100.0,"[-0.14825460286218065,0.10817385737052682]",4.0,"[-0.12113552649706605,0.14412143839388414]",100.0,"[0.16000069297774572,0.014235635711391987]",100.0,"[-0.09339937896045623,0.007216267742421397]",4.0,"[0.017045217367610915,-0.1417329206205061]",100.0,"[0.11794497461150742,-0.02989292493540426]",4.0,"[0.029185304860681587,-0.08963699938235023]",4.0,"[-0.019670349913258767,-0.05345447979685332]",4.0,"[-0.0964030328675629,-0.08554969578671827]",100.0,"[0.06368374029162147,0.038577304557057275]",4.0,"[0.10221936721448066,0.14150677024827396]",4.0,"[-0.04094066036577145,-0.1457627425968076]",4.0,"[0.06058285024304896,0.12612118224313945]",4.0,"[-0.12939141458658637,-0.12056251887815086]",100.0,"[-0.012043716019301157,0.10625702342612896]",4.0,"[0.0857595076055141,-0.06821689045747126]",100.0,"[-0.09017670089336062,-0.13309495664174445]",4.0,"[-0.10029689955954392,0.06156190656877038]",4.0,"[-0.007963592142604942,-0.1963128347397237]",100.0,"[-0.19153746814217865,0.022544917769596544]",4.0,"[-0.0025235947024573493,0.033128496534838396]",100.0,"[0.12370437452463112,0.04489798901771285]",4.0,"[0.15831107337265177,-0.030192128454986256]",100.0,"[-0.08360115320428242,0.17238739841283782]",100.0,"[0.02,0.02]",149.6531,0.0,22.0,22.0,147.0,1.0,,,,,,,
,,,,,,,603d0e0e5b0386b034e93bf5,6842bb2b278f6138edc6f7e9,2025-06-06_11h58.18.094,shape_ratio,2024.1.5,Win32,61.34969325,6842b561977af9ba9b0f87ca,,,,,,,,,,,149.6535,150.1521,,,150.4018,151.0832,right,0.6668,,,,,,,,,0.55,,,,,,150.1521,150.4018,151.0833,"[-0.0758415355659464,-0.034879574089351315]",100.0,"[-0.040696424911460506,0.029761739347917458]",4.0,"[0.11568090878113753,0.04617845102469224]",100.0,"[-0.08280589446991574,0.17993318454486276]",4.0,"[0.12187513343240476,0.14485339565594318]",4.0,"[0.010756779448683432,-0.06030511145974571]",4.0,"[-0.10922687580240607,-0.08715100213189832]",4.0,"[0.03938365887008457,-0.1201342961614385]",100.0,"[0.05114472989494527,-0.03452249691323469]",100.0,"[0.06896164750376393,0.011459629224141133]",100.0,"[0.063572794350329,0.1494739794007184]",4.0,"[-0.05023206592051082,-0.0865530189133237]",100.0,"[-0.11963240603026512,0.01911146894902084]",100.0,"[0.07527920872534487,0.10848088878600645]",4.0,"[-0.06560761103546754,-0.16349638316223578]",4.0,"[0.16276568365212565,0.04470325118292874]",100.0,"[0.0295622639654908,0.02296812453019031]",4.0,"[0.05871850238129172,0.0643872087080914]",100.0,"[-0.1931796857962581,-0.044173025544222116]",4.0,"[0.14731671519337763,-0.052166003410403894]",100.0,"[0.006686586166819616,-0.17258541043342415]",100.0,"[-0.1659095538818879,-0.0074080952561374185]",100.0,"[0.13462035486942112,0.10343259482917777]",4.0,"[-0.005126264450133622,-0.12141004935144846]",4.0,"[0.07885840473210962,-0.14373600587162882]",100.0,"[-0.038536988277195226,0.10680250768628205]",4.0,"[-0.07380196333374134,0.08755664551512161]",100.0,"[0.11752242103366851,-0.09617992183605337]",4.0,"[0.007096238964455185,0.16950511694022063]",100.0,"[0.1954787435560493,0.020901346307415903]",100.0,"[-0.11588376875607666,0.14300960296657717]",100.0,"[0.1825888256086128,-0.02626471032520617]",100.0,"[0.02,0.02]",152.1816,0.0,23.0,23.0,87.0,1.0,,,,,,,
,,,,,,,603d0e0e5b0386b034e93bf5,6842bb2b278f6138edc6f7e9,2025-06-06_11h58.18.094,shape_ratio,2024.1.5,Win32,61.34969325,6842b561977af9ba9b0f87ca,,,,,,,,,,,152.1818,152.6808,,,152.9302,153.5289,right,0.5816,,,,,,,,,0.55,,,,,,152.6808,152.9302,153.529,"[-0.08984876903439627,0.17400031518483414]",100.0,"[0.1358075667770469,-0.10954709639071904]",4.0,"[-0.043352833942158255,-0.07980729675201385]",100.0,"[0.10223032267942748,-0.005232659070235329]",4.0,"[-0.10812202948457898,-0.12476773806246524]",100.0,"[-0.05327754747486077,-0.15897843285645646]",4.0,"[-0.003185402318299074,-0.16868385507251557]",100.0,"[0.09993780720965595,0.10086643316063375]",4.0,"[0.07158702972407478,-0.08801241759352414]",4.0,"[-0.022262592515571097,0.054700444137711454]",100.0,"[-0.06499533071771456,0.036909545205092195]",100.0,"[0.14745401870578959,0.009836092466481733]",4.0,"[0.09756232262061672,0.15534414208061822]",100.0,"[-0.10501140923811074,0.00880783898066527]",100.0,"[-0.015272249274127802,-0.004346079781797323]",4.0,"[0.04000806015861553,0.046907846345981545]",100.0,"[0.013158512075295952,0.08880700644074624]",100.0,"[0.09367146195675805,0.04072526714234152]",4.0,"[-0.15425327893497737,-0.017218818952322884]",100.0,"[-0.1814898854241332,-0.07713617317244378]",4.0,"[-0.10711429923462094,0.12291180423226662]",100.0,"[0.04973657848813967,-0.03774646880642327]",100.0,"[-0.1381144605318956,0.03271012257880645]",100.0,"[0.13815316268115696,0.08264575254152474]",4.0,"[-0.15700357810273743,0.11395473186486567]",100.0,"[0.0027237498363979493,0.14734421194654862]",4.0,"[0.05244167736853068,-0.15965075168696954]",4.0,"[-0.0855106988726902,-0.09100991076499737]",100.0,"[-0.04304799694732,-0.034844010004358335]",100.0,"[-0.08590087445517734,-0.029433057376801516]",4.0,"[0.1790761804846046,-0.04573712329233157]",4.0,"[-0.039671909963710845,0.16625176327903038]",100.0,"[0.02,0.02]",154.6265,0.0,24.0,24.0,67.0,1.0,,,,,,,
,,,,,,,603d0e0e5b0386b034e93bf5,6842bb2b278f6138edc6f7e9,2025-06-06_11h58.18.094,shape_ratio,2024.1.5,Win32,61.34969325,6842b561977af9ba9b0f87ca,,,,,,,,,,,154.627,155.1257,,,155.3758,155.808,right,0.4175,,,,,,,,,0.5,,,,,,155.1258,155.3757,155.808,"[-0.11374439150298894,0.058734584218104846]",4.0,"[0.05619451509729808,0.04630484933878843]",4.0,"[0.12268859559394933,0.027602534435116975]",100.0,"[0.09064238818564889,-0.005186534508611573]",4.0,"[0.19220639637916884,-0.036024564886985466]",4.0,"[0.13459273878439068,0.09816097733484042]",100.0,"[0.04571992069324516,-0.06110794612695265]",4.0,"[0.14056286017393846,-0.028019161801852297]",4.0,"[-0.06212249910654101,-0.03300206907230169]",100.0,"[-0.12912072883606227,0.1370551545392285]",100.0,"[0.023252444709429707,0.1573143695093555]",4.0,"[-0.07929886010357991,0.16990465037887947]",100.0,"[0.0002795023089889787,0.0175444973712102]",100.0,"[0.13355134228868393,-0.07369988924951068]",100.0,"[0.17387720078692837,0.0694246675314464]",4.0,"[0.011574074795283709,-0.12582626458259985]",4.0,"[-0.07935266992218944,0.12503548564312184]",100.0,"[-0.09900615033331517,-0.09229715873411662]",4.0,"[0.08664488851305621,0.1481048811295722]",100.0,"[-0.17829921157859024,0.08189529268257269]",4.0,"[-0.08557837382671594,-0.14821120631411291]",4.0,"[-0.1263301861571352,-0.04450865585931797]",100.0,"[-0.1817311608204643,-0.01810241906014411]",100.0,"[-0.03563928933831659,0.15033268786438453]",4.0,"[0.07303521124369493,-0.10843122797974852]",100.0,"[0.09981429145479251,-0.14929068750640498]",100.0,"[-0.0015964608719857898,0.07944360678393844]",4.0,"[-0.023364429086521168,-0.054236729672290145]",100.0,"[-0.15432583618396764,-0.12077689818559656]",4.0,"[-0.10277406227836185,-0.0007649833260408202]",4.0,"[-0.16028168001456658,-0.06620326818881077]",100.0,"[-0.07306690429546349,0.03661948328889293]",100.0,"[0.02,0.02]",156.906,0.0,25.0,25.0,115.0,1.0,,,,,,,
,,,,,,,603d0e0e5b0386b034e93bf5,6842bb2b278f6138edc6f7e9,2025-06-06_11h58.18.094,shape_ratio,2024.1.5,Win32,61.34969325,6842b561977af9ba9b0f87ca,,,,,,,,,,,156.9065,157.4051,,,157.6548,157.9705,left,0.3082,,,,,,,,,0.5,,,,,,157.4051,157.6548,157.9705,"[-0.020758614867370708,0.027384121041279245]",4.0,"[0.15231956281747236,-0.11419774452364437]",4.0,"[-0.18823048974066162,0.02804247640021549]",4.0,"[0.07143054863585642,-0.17173526308006715]",100.0,"[0.12633885151195448,0.09525894297896403]",100.0,"[-0.07830791270527057,-0.10182470157130429]",4.0,"[0.03501444650933552,-0.008890347463417391]",100.0,"[0.06889552447529931,-0.06813868281103416]",4.0,"[-0.07711417927444857,0.011224156579862738]",4.0,"[-0.09880754940715758,0.16672999684420614]",100.0,"[0.08251713891244793,-0.11842088452729771]",100.0,"[0.008597047191933183,0.15622764225619004]",4.0,"[-0.11036420239429048,-0.02658985130595335]",4.0,"[0.14910531871705948,-0.03377367091173723]",100.0,"[0.0008532893568712718,-0.13454870211748698]",100.0,"[0.07159236762087402,0.02588074010515791]",4.0,"[-0.07138746614083565,0.07122294786588497]",4.0,"[0.08703313568679753,0.07786341815030975]",4.0,"[-0.1501024657240071,0.08389426808151584]",100.0,"[-0.18571528405884305,-0.019969070104339418]",100.0,"[-0.1510997944545913,-0.10223294710210525]",4.0,"[0.009363876874781789,-0.19527933513263324]",100.0,"[-0.030638439650876623,0.08856445961785285]",100.0,"[-0.0635925679754935,-0.055747085840007364]",4.0,"[-0.0649931302737864,0.18814598132027613]",100.0,"[0.16516635308189728,-0.07458566864303388]",4.0,"[-0.1156216288792771,-0.1384369297784394]",4.0,"[-0.05958513328818005,-0.14709161185256903]",100.0,"[0.026138558170009225,-0.1020977721061107]",100.0,"[-0.12198085864666533,0.023746003942297512]",4.0,"[-0.06269769611607752,0.11892401804097988]",100.0,"[0.06230271909120977,0.11962547370837727]",100.0,"[0.02,0.02]",159.0686,0.0,26.0,26.0,110.0,1.0,,,,,,,
,,,,,,,603d0e0e5b0386b034e93bf5,6842bb2b278f6138edc6f7e9,2025-06-06_11h58.18.094,shape_ratio,2024.1.5,Win32,61.34969325,6842b561977af9ba9b0f87ca,,,,,,,,,,,159.0689,159.5677,,,159.818,160.5824,left,0.7499,,,,,,,,,0.45,,,,,,159.5678,159.8179,160.5825,"[0.10289002914821758,0.04191431492988429]",4.0,"[-0.06309430532280688,-0.0720244819972055]",100.0,"[0.009660475950972889,0.10199538633944553]",4.0,"[0.09365458542808146,-0.11941520429166595]",4.0,"[0.05933368550096794,0.07597496127264239]",100.0,"[-0.16734594786861665,-0.008072305155046956]",100.0,"[-0.08666569949748176,0.012103073175785213]",100.0,"[-0.013293024728738797,-0.010945708553446867]",4.0,"[-0.15731496108680484,0.09829585757777337]",100.0,"[-0.12684380504982562,0.056447282589741216]",100.0,"[0.02045173035962994,-0.08833149157042568]",4.0,"[-0.09338433198340022,-0.14295402222766151]",100.0,"[-0.01277827149905941,0.06392353339502149]",4.0,"[-0.016280666576603195,-0.16104575392345996]",4.0,"[0.07339053598396017,0.11728954980170576]",4.0,"[-0.11517631892979203,-0.05829752099745176]",4.0,"[0.17670154360942222,0.009763844732471256]",100.0,"[-0.11669059649470846,0.11738982157757719]",4.0,"[-0.10397551060081045,-0.09803163663148429]",100.0,"[0.1657922235640752,0.09222236045434723]",4.0,"[-0.14440348932890618,-0.0971701864748445]",4.0,"[0.029248953351069067,0.04367187404696314]",4.0,"[0.15927285443262212,-0.10381394049301763]",100.0,"[0.07875003129032995,-0.08172962659726953]",4.0,"[0.12410377495985815,0.09615829686047594]",4.0,"[0.0506177174934953,-0.18306439054342996]",100.0,"[0.029597412396425448,0.15045877815164174]",4.0,"[0.045497106101106057,-0.1241124350561363]",100.0,"[0.13836568903696303,-0.04507622743766303]",100.0,"[-0.05708397933105698,0.18746200943339578]",100.0,"[-0.08156124255072256,0.14911413104777613]",4.0,"[-0.17889248676175992,0.03883496020345067]",4.0,"[0.02,0.02]",161.6804,0.0,27.0,27.0,129.0,1.0,,,,,,,
,,,,,,,603d0e0e5b0386b034e93bf5,6842bb2b278f6138edc6f7e9,2025-06-06_11h58.18.094,shape_ratio,2024.1.5,Win32,61.34969325,6842b561977af9ba9b0f87ca,,,,,,,,,,,161.6808,162.1795,,,162.4295,162.9449,right,0.5019,,,,,,,,,0.5,,,,,,162.1796,162.4295,162.9449,"[-0.0263300478138097,-0.05963551525236236]",4.0,"[-0.049662477934095235,0.10858760979538924]",4.0,"[0.05355125186215024,0.030483310516355656]",100.0,"[-0.10042212071877613,0.1590659123502226]",4.0,"[0.03381980988280035,-0.11031983968125372]",100.0,"[-0.13625817425328404,0.1022591952649557]",4.0,"[0.17116642136051272,-0.032867891591063514]",100.0,"[0.1093730147907746,0.0209325812913479]",4.0,"[0.06767632795935183,-0.14793414029392257]",4.0,"[-0.07012531957637794,-0.07551127915706217]",100.0,"[0.050637486697727926,0.1737671687476348]",100.0,"[-0.14028268954749615,-0.09782322368679663]",4.0,"[-0.03745893041876579,0.16156414500264005]",4.0,"[0.015214781055849036,0.19273638662201667]",4.0,"[-0.09986147862694378,-0.029617674860306923]",100.0,"[-0.10922004439363632,0.03595256898650994]",4.0,"[-0.0007241050995477575,0.0012678239165711015]",100.0,"[0.06473914310561427,0.10601947693150965]",100.0,"[0.15845217146555482,-0.07711443954248737]",4.0,"[0.17391105239057675,0.08268098358629086]",100.0,"[0.09970416171431634,-0.08645659302794072]",4.0,"[0.011227762164886908,-0.18226598047305065]",100.0,"[0.002734067284560201,0.06124234506490458]",4.0,"[-0.0950862156899059,-0.17019950770354506]",100.0,"[-0.10783863414140582,-0.13200340059908755]",100.0,"[-0.1916748528715596,0.014261314453931858]",100.0,"[0.13844341776353944,0.10552172116397812]",4.0,"[0.07665286424078088,-0.00707938691526853]",100.0,"[-0.18376328953605855,-0.07083738318591869]",4.0,"[-0.13371907024503243,-0.00561868064067533]",4.0,"[-0.029676944071844156,-0.1310031038575795]",100.0,"[0.051919758657489996,-0.05855437839447915]",100.0,"[0.02,0.02]",164.0427,0.0,28.0,28.0,107.0,1.0,,,,,,,
,,,,,,,603d0e0e5b0386b034e93bf5,6842bb2b278f6138edc6f7e9,2025-06-06_11h58.18.094,shape_ratio,2024.1.5,Win32,61.34969325,6842b561977af9ba9b0f87ca,,,,,,,,,,,164.043,164.5419,,,164.7919,165.2405,right,0.4322,,,,,,,,,0.55,,,,,,164.5419,164.7919,165.2406,"[0.18051677548419565,0.0009201000204164634]",100.0,"[0.014863646547960676,-0.03743031050732171]",4.0,"[-0.14426573577335905,-0.0580100020927638]",4.0,"[-0.11593078823614292,-0.14369566341510054]",4.0,"[-0.1266644737893902,0.05531727238446238]",4.0,"[-0.09439405010200258,-0.050680032139795]",100.0,"[0.029700860467523484,0.19694530778385871]",4.0,"[0.15969906351250854,0.05654144423166261]",4.0,"[-0.027144033111942432,-0.011431601198889807]",100.0,"[-0.13666519196745217,0.0951251386103302]",100.0,"[0.06488034695736355,-0.1487182671267343]",100.0,"[0.07811110723106984,0.040930161272851984]",4.0,"[-0.022209285068898285,0.033348833196043155]",100.0,"[0.09064667984610059,-0.10353057118596323]",100.0,"[0.06445864667639253,0.11867523929187992]",100.0,"[0.15654285193412348,-0.07470499494409125]",100.0,"[0.0029731943882048786,-0.09985189734736466]",100.0,"[-0.05881201120881792,-0.10167691574658713]",100.0,"[-0.030939555989285644,0.15826454263358172]",4.0,"[0.05060555876601938,0.077676158382479]",100.0,"[-0.09691054595917024,-0.008430574141736744]",4.0,"[-0.13460415449679003,-0.10455680062517245]",100.0,"[0.0060417150985185965,0.13316450600599544]",4.0,"[0.014927529908534942,-0.19920829660578152]",4.0,"[0.1364820460774565,-0.011529449894359963]",100.0,"[-0.1885389937701983,-0.021117396475499674]",4.0,"[-0.07032772946047315,0.1032067799978515]",100.0,"[0.1060842096571045,0.10846717191232455]",4.0,"[0.07305061811020665,0.16656883554092772]",4.0,"[-0.18254081468954084,0.07603796932113581]",100.0,"[0.10708136512607425,-0.045494239172025865]",100.0,"[0.038477758345353094,0.016387886589311066]",100.0,"[0.02,0.02]",166.3386,0.0,29.0,29.0,66.0,1.0,,,,,,,
,,,,,,,603d0e0e5b0386b034e93bf5,6842bb2b278f6138edc6f7e9,2025-06-06_11h58.18.094,shape_ratio,2024.1.5,Win32,61.34969325,6842b561977af9ba9b0f87ca,,,,,,,,,,,166.3389,166.8383,,,167.0877,167.6196,right,0.5288,,,,,,,,,0.45,,,,,,166.8383,167.0877,167.6196,"[-0.0645647927039814,-0.1441442181212183]",100.0,"[-0.009843365737906755,0.043580054729558476]",100.0,"[-0.0260396235586677,-0.003627341170459266]",4.0,"[0.1356027683758525,-0.05572398176654697]",100.0,"[-0.15272128052044878,-0.11464226896605212]",4.0,"[-0.14338046143234232,0.13059531846584738]",100.0,"[-0.11756118795773009,-0.021634881432366606]",4.0,"[-0.06383344505038666,0.041229251549164826]",4.0,"[0.1287407921829992,0.0204460658220587]",4.0,"[0.14133742623162793,0.11467766607086932]",4.0,"[-0.1723816432544705,-0.06178489755093148]",100.0,"[-0.08880098712967202,0.1379552511615035]",4.0,"[0.009678723681369687,0.18242606181567883]",100.0,"[0.08325044546873159,-0.042121554187726465]",100.0,"[0.18253814086557008,-0.03378710882073734]",4.0,"[0.014782418623443178,-0.049483532779445706]",100.0,"[0.05403172969588975,0.15866682486347722]",4.0,"[0.0647216317837486,-0.15187128382775095]",4.0,"[0.08362751347445133,0.06386230361059499]",100.0,"[-0.045758908437083155,0.1724626539509607]",100.0,"[-0.08820226685844626,0.0807857039642711]",4.0,"[0.08534535256268183,0.114059783374964]",4.0,"[-0.1806292847822572,-0.0035268099422744973]",100.0,"[-0.03742915978184334,-0.09908152331050155]",100.0,"[-0.09039951931111789,-0.0794859666378287]",4.0,"[0.008131624668605533,0.1334944373368665]",4.0,"[0.09342907419522868,-0.08898323326745444]",100.0,"[0.1353757006247242,-0.09912717071522968]",4.0,"[-0.16673024009064064,0.03626465422835251]",4.0,"[-0.023757843607909144,-0.15069749246066041]",4.0,"[0.008348105612334712,-0.09822160498279073]",4.0,"[0.024166955422432086,-0.1565877887518486]",100.0,"[0.02,0.02]",168.7179,0.0,30.0,30.0,144.0,1.0,,,,,,,
,,,,,,,603d0e0e5b0386b034e93bf5,6842bb2b278f6138edc6f7e9,2025-06-06_11h58.18.094,shape_ratio,2024.1.5,Win32,61.34969325,6842b561977af9ba9b0f87ca,,,,,,,,,,,168.7186,169.2169,,,169.4668,169.8657,right,0.3818,,,,,,,,,0.4,,,,,,169.2169,169.4667,169.8657,"[-0.12086761634247133,0.10285216516708619]",100.0,"[0.08005139271105705,0.1832336003959493]",4.0,"[0.01501743383308196,0.06359001006551487]",100.0,"[-0.1573015030548354,-0.09268130687580903]",4.0,"[0.01234273716505732,0.18661062959193894]",4.0,"[-0.10720943277067098,-0.16828129198014288]",100.0,"[0.04861603729579321,0.09784055424901823]",4.0,"[0.11485542079724137,0.0017221989777902924]",4.0,"[0.12244884899058756,-0.12242346961229646]",100.0,"[-0.17391813602113315,-0.0031389486698098113]",4.0,"[-0.024973190721906794,0.032721056797077125]",100.0,"[0.05602638152429621,-0.013230819297524022]",4.0,"[-0.08326419612247989,0.12903791551006855]",4.0,"[-0.03307644596176265,0.15635139607420334]",4.0,"[-0.07809769746075922,0.07497418653687524]",4.0,"[-0.11723926460386334,0.045082953265593695]",4.0,"[-0.010334957747003992,-0.04227644128418992]",100.0,"[0.05933995421412133,0.14732162452213785]",4.0,"[0.09542767732297681,0.10654860456724413]",100.0,"[0.15693807195371898,-0.015459422718061788]",4.0,"[-0.06164303243754456,-0.14753451665797176]",4.0,"[0.11460170682673446,0.14826399154133885]",100.0,"[-0.15477148971167198,0.06977174367658734]",100.0,"[-0.07120460049157898,0.013321928996928268]",4.0,"[-0.11518556319586941,0.0044327558155224794]",4.0,"[0.01251259979460398,-0.10342940513884528]",4.0,"[-0.11846891664419905,-0.0416520397208491]",100.0,"[0.12331581712879519,0.06161650485292068]",100.0,"[-0.057244078110196536,-0.071249282682336]",100.0,"[0.13865093825197777,-0.0758984700085578]",4.0,"[0.15769677065579596,0.024866900248043746]",4.0,"[0.07156204655998799,-0.12038179827996015]",100.0,"[0.02,0.02]",170.9635,0.0,31.0,31.0,153.0,1.0,,,,,,,
,,,,,,,603d0e0e5b0386b034e93bf5,6842bb2b278f6138edc6f7e9,2025-06-06_11h58.18.094,shape_ratio,2024.1.5,Win32,61.34969325,6842b561977af9ba9b0f87ca,,,,,,,,,,,170.9638,171.4627,,,171.7124,172.4777,left,0.7482,,,,,,,,,0.55,,,,,,171.4627,171.7124,172.4777,"[-0.1262921022826897,-0.02423688203989391]",100.0,"[0.03628323682089421,-0.1679375888939903]",4.0,"[-0.1259128743195624,0.15282970508470886]",100.0,"[-0.10318504102636117,-0.16627710296187667]",4.0,"[0.05112406634114103,0.060445948763855895]",100.0,"[0.16843553822593635,-0.08815964786649698]",4.0,"[-0.15779196499193954,0.0945029218619954]",100.0,"[-0.13411853670739218,0.029144911295623792]",100.0,"[0.18642523626590102,-0.027915580577948525]",100.0,"[-0.0031071038547378915,0.18037207786434425]",100.0,"[-0.008902210984791369,0.06450296038764544]",100.0,"[-0.10818669015710125,-0.08649405736698]",4.0,"[-0.05477880366918585,0.06807132244225579]",100.0,"[0.04570781025383906,-0.07239043983440273]",4.0,"[0.04247956226431773,0.1683048504911689]",100.0,"[0.11677188903178148,0.01713987666705442]",4.0,"[-0.09816735378996753,0.06057472748265728]",4.0,"[0.035851950781692524,-0.11298318245555872]",4.0,"[-0.07862628884636445,0.12056033189190606]",4.0,"[0.1104933845164297,-0.045567085988385575]",4.0,"[-0.04975988225472354,-0.11792048850685903]",100.0,"[0.17242496992920772,0.06531919150667768]",100.0,"[0.0036043746196768862,0.02183427291425896]",4.0,"[-0.14542608040931584,-0.10127880479683743]",100.0,"[0.018523302165852688,-0.023524008294692592]",100.0,"[-0.002013946526318443,-0.18177089471378371]",4.0,"[0.0778281176169213,-0.14308776118267372]",100.0,"[-0.035215877789738136,0.11129614372093309]",100.0,"[0.08420417766206005,-0.009596830452576106]",4.0,"[-0.03777487050048033,-0.0001893646520660518]",4.0,"[0.08097733715759116,0.08757540416762387]",100.0,"[0.16442494958973583,0.006764129970682909]",100.0,"[0.02,0.02]",173.5754,0.0,32.0,32.0,76.0,1.0,,,,,,,
,,,,,,,603d0e0e5b0386b034e93bf5,6842bb2b278f6138edc6f7e9,2025-06-06_11h58.18.094,shape_ratio,2024.1.5,Win32,61.34969325,6842b561977af9ba9b0f87ca,,,,,,,,,,,173.5757,174.0747,,,174.3243,174.8567,right,0.5215,,,,,,,,,0.45,,,,,,174.0747,174.3243,174.8567,"[0.015092840746819366,-0.04395987014581104]",100.0,"[-0.016317303997338942,0.16295647435215085]",4.0,"[-0.1070768424454124,0.12001393139235743]",4.0,"[-0.15456242037188794,-0.08173729528598161]",100.0,"[0.12479684492988802,0.12586800858068933]",100.0,"[0.06691597119403925,0.07744208402598639]",100.0,"[-0.03414083244530528,-0.12422003126167339]",4.0,"[0.0842292901199575,-0.09451712167326079]",4.0,"[0.10957033727540057,0.041164519209281714]",4.0,"[0.0825682303252116,0.12080138877583659]",100.0,"[-0.1258133156260138,0.045421809163655145]",4.0,"[0.1523507289900739,-0.04781231825335466]",100.0,"[0.08268553436292964,-0.020100843542865968]",4.0,"[0.16405447628041972,0.07639646073384161]",100.0,"[-0.15253030762040573,-0.026707731530574468]",100.0,"[0.03510138857794445,0.15274312844273868]",4.0,"[-0.008378482310071355,0.0990097785374196]",100.0,"[0.07235838025613152,0.17619477596759806]",4.0,"[-0.05801319550368067,0.06550234902779303]",4.0,"[0.12238492532758781,-0.08063783625646372]",100.0,"[0.028103729854241824,-0.0952550458046748]",4.0,"[-0.005822742666149168,0.003635763947738129]",100.0,"[0.03235514659237621,0.10072855350099787]",100.0,"[-0.10349790234192038,-0.003992251124492081]",4.0,"[0.04731543082981251,-0.14617274992271656]",4.0,"[0.00971698254573059,-0.1650423374369922]",4.0,"[0.19292929055273153,-0.0008515803226355773]",4.0,"[-0.05508489772307677,-0.044169094029475914]",100.0,"[-0.09103573962982166,-0.15012272977702357]",100.0,"[-0.019660001289445492,-0.06596511184079705]",4.0,"[-0.08574473902343276,-0.08608348598729018]",4.0,"[-0.05863722136061023,0.18032770077829363]",4.0,"[0.02,0.02]",175.9547,0.0,33.0,33.0,146.0,1.0,,,,,,,
,,,,,,,603d0e0e5b0386b034e93bf5,6842bb2b278f6138edc6f7e9,2025-06-06_11h58.18.094,shape_ratio,2024.1.5,Win32,61.34969325,6842b561977af9ba9b0f87ca,,,,,,,,,,,175.9552,176.4536,,,176.7033,177.352,left,0.6309,,,,,,,,,0.1,,,,,,176.4536,176.7033,177.352,"[0.08561231167478238,0.08216042891691148]",4.0,"[-0.033664730459079056,-0.08319783154937047]",4.0,"[-0.018067874492385182,0.058804977450001704]",4.0,"[0.08720761924655988,-0.17223758559567084]",4.0,"[0.15639706768261671,-0.034856225559768424]",100.0,"[0.17568252978952217,-0.08925257883701225]",100.0,"[0.0646906254571305,-0.11009221292587149]",4.0,"[0.09296941601863651,-0.007377271914618939]",4.0,"[0.17840595961646102,0.0057281039609436025]",4.0,"[-0.12517453515403842,0.1459048773726542]",4.0,"[-0.034595784175010726,-0.19636809514911985]",4.0,"[-0.0759229786507308,0.09288937173367719]",4.0,"[-0.18816748170705155,0.020557065383340192]",4.0,"[-0.10239109361807422,-0.0036533886828060405]",4.0,"[0.15662147735789367,0.08146234612458943]",4.0,"[-0.15668458280603628,0.10931908609486388]",4.0,"[-0.07757352530838334,-0.13404877609476334]",4.0,"[0.0359212512398247,0.1097604463136089]",4.0,"[-0.1359971720147983,-0.07967815903340793]",4.0,"[-0.11979384627167851,0.07821394081768569]",4.0,"[0.01440573112619905,-0.0829239150103487]",4.0,"[0.12432057083485966,-0.13230357000441872]",4.0,"[-0.0705881362759327,-0.17666609628185168]",4.0,"[0.14016330255174442,0.04202171175082724]",4.0,"[-0.06217009811698025,0.16369999584411182]",4.0,"[-0.01591909283260669,-0.015452390274517228]",4.0,"[0.03609215222240413,-0.016429973844223546]",4.0,"[-0.14744666316081506,-0.0002463190571166412]",4.0,"[0.0739000757480642,-0.04954080145355544]",100.0,"[-0.08250708852720086,-0.048667463682618144]",4.0,"[0.002783703579816787,0.15739182757582768]",4.0,"[0.11439131397766202,-0.09337367285349026]",4.0,"[0.02,0.02]",178.4501,0.0,34.0,34.0,202.0,1.0,,,,,,,
,,,,,,,603d0e0e5b0386b034e93bf5,6842bb2b278f6138edc6f7e9,2025-06-06_11h58.18.094,shape_ratio,2024.1.5,Win32,61.34969325,6842b561977af9ba9b0f87ca,,,,,,,,,,,178.4504,178.9491,,,179.1991,179.6812,right,0.4704,,,,,,,,,0.9,,,,,,178.9491,179.1989,179.6813,"[0.11297686195240712,-0.12334279316443894]",100.0,"[0.1369358170174531,0.1265705497821769]",100.0,"[-0.15386484524732555,0.11946157054503478]",100.0,"[0.0009354613661295902,0.0222610077769023]",100.0,"[-0.0052978358790847615,-0.03078861219917499]",100.0,"[0.05801746104275461,-0.0062533930189821625]",4.0,"[-0.10754878796579292,-0.07255717930772179]",100.0,"[-0.06171950123560314,-0.15970445627675858]",100.0,"[0.03641890551153588,-0.15581852562098836]",100.0,"[0.198012912006359,0.026904446128187806]",100.0,"[0.07345447257549907,-0.05910155577026064]",100.0,"[0.14415583837340373,0.022388845687203406]",4.0,"[-0.01738940049645209,0.1834890292426913]",100.0,"[0.14209164778508132,0.07242080787088223]",100.0,"[-0.07715217386649653,0.14018348327286267]",100.0,"[-0.043438657298223333,0.035128279815616024]",100.0,"[-0.1258810164880739,0.010410965340070077]",4.0,"[0.01617582843539018,-0.19926168512393697]",100.0,"[0.12834411538175233,-0.07336007738827909]",100.0,"[-0.040567806392688664,-0.0738414338213737]",100.0,"[0.16204426799818253,-0.11245197676494775]",100.0,"[-0.15773123206297404,-0.083686240603809]",100.0,"[-0.08273499322011917,0.006849719437128092]",100.0,"[-0.11340707379558324,-0.12174847259619384]",100.0,"[-0.16862092649419008,0.07787539385919129]",100.0,"[-0.02790873112521438,-0.19724586352236897]",100.0,"[0.1834538810192395,-0.0429140678218289]",100.0,"[0.09178121941009551,0.0999127508628948]",100.0,"[-0.047525172053366274,-0.02444760585297885]",100.0,"[0.06477810713447517,-0.12373215297370674]",100.0,"[0.08313224040703338,0.05837816781017196]",100.0,"[-0.07375872507498807,0.0838042068707467]",100.0,"[0.02,0.02]",180.7791,0.0,35.0,35.0,28.0,1.0,,,,,,,
,,,,,,,603d0e0e5b0386b034e93bf5,6842bb2b278f6138edc6f7e9,2025-06-06_11h58.18.094,shape_ratio,2024.1.5,Win32,61.34969325,6842b561977af9ba9b0f87ca,,,,,,,,,,,180.7796,181.2782,,,181.5278,182.0267,left,0.4907,,,,,,,,,0.1,,,,,,181.2783,181.5278,182.0268,"[-0.08979338802270133,0.019463670910882355]",4.0,"[0.16318269501669336,0.09157964820649472]",100.0,"[0.10432257098410692,-0.16640713532329401]",4.0,"[0.15306019027352105,0.013819007614365757]",4.0,"[-0.06375991706688788,-0.13521052224622926]",4.0,"[0.06847098875340198,0.15594770247902096]",4.0,"[-0.17481498369937082,-0.03161495343608674]",4.0,"[-0.16415284881671632,0.09947253303986861]",100.0,"[0.07559210893552093,-0.0266335832888439]",4.0,"[-0.06773943520234177,0.15012154071810235]",4.0,"[-0.032346838344149205,0.09781137504795934]",4.0,"[0.04543008205768486,-0.18843563918941286]",4.0,"[0.03624662191030253,-0.017990719989034745]",4.0,"[-0.12241380873144257,-0.05759363553748484]",4.0,"[-0.0337535678628124,-0.012138038420322786]",4.0,"[0.15353818447477566,-0.11843920090559393]",4.0,"[-0.12571704250474017,-0.0079426220071962]",4.0,"[0.1268674575083291,0.05909902083557497]",4.0,"[-0.07449322050078072,0.08579351961512427]",4.0,"[0.06171602268101575,0.031032420959106858]",4.0,"[0.009468327395383582,0.0519111351419598]",4.0,"[-0.12605358275388298,-0.12619092062171297]",4.0,"[0.15210446640503372,-0.027284341472008897]",4.0,"[0.14858779590559384,-0.07562317334029657]",4.0,"[0.0525910642174417,-0.13821824519544149]",4.0,"[-0.0038204083516140018,-0.08710609283267472]",100.0,"[0.10853569190202884,0.10982748508707005]",4.0,"[0.018027100958054303,0.17512860697874935]",4.0,"[-0.006815767292896375,-0.13853276701374076]",4.0,"[-0.0741759576211669,-0.07334717895700374]",4.0,"[-0.0035575669383566236,-0.1920840100711614]",4.0,"[-0.07186441076042399,-0.024895656002075717]",4.0,"[0.02,0.02]",183.1245,0.0,36.0,36.0,200.0,1.0,,,,,,,
,,,,,,,603d0e0e5b0386b034e93bf5,6842bb2b278f6138edc6f7e9,2025-06-06_11h58.18.094,shape_ratio,2024.1.5,Win32,61.34969325,6842b561977af9ba9b0f87ca,,,,,,,,,,,183.1248,183.6237,,,183.8739,184.6884,right,0.8074,,,,,,,,,0.9,,,,,,183.6237,183.8738,184.6884,"[-0.12806960059391376,0.042788346036998604]",100.0,"[-0.04756311137028765,0.09395145724926285]",100.0,"[0.003878719332640683,-0.0863936694070314]",4.0,"[0.019492506683625253,0.05390289079669979]",4.0,"[0.046326497630776974,-0.06300153363815357]",100.0,"[-0.14104762166468954,-0.09860915863586574]",100.0,"[-0.01081157171361871,0.11734350096826715]",100.0,"[0.012968495309992806,0.1776370478419626]",100.0,"[0.04568025003108023,0.1105443961455044]",100.0,"[-0.07044710519047787,-0.06586336151904883]",100.0,"[-0.11217578525037783,-0.16219243056062102]",100.0,"[-0.17167189723782145,0.0637490201983807]",100.0,"[0.14931253066470757,0.047375935125675714]",100.0,"[0.0708359051082441,0.020989666071891004]",100.0,"[0.08694528965074803,0.10108553526069453]",100.0,"[0.10793461028649852,-0.13361453951577293]",100.0,"[0.16095445729321978,0.10200033860728627]",100.0,"[0.15451283916041256,0.007112201432313349]",100.0,"[-0.14861800148649454,-0.0007352601178788131]",100.0,"[-0.19623944926396444,0.02970725294903083]",100.0,"[0.04670395623136943,-0.18225860315317424]",100.0,"[-0.11838084859892127,0.1215733897248002]",100.0,"[0.010979694869877705,-0.03874016466084948]",100.0,"[-0.061319218650185574,-0.14415847519955208]",100.0,"[0.11493556044357112,0.026779104128274455]",100.0,"[-0.12019917427879379,-0.06071820508033919]",4.0,"[-0.08158076539911922,0.17359563921007162]",100.0,"[0.07390092920700499,0.14047272909189598]",100.0,"[0.1425696964299373,-0.06373791693960872]",100.0,"[-0.03178011632633136,-0.11283626020731483]",100.0,"[-0.01069758725705008,-0.004324763129479744]",100.0,"[-0.1651016845229731,-0.04414538857502566]",100.0,"[0.02,0.02]",185.787,0.0,37.0,37.0,14.0,1.0,,,,,,,
,,,,,,,603d0e0e5b0386b034e93bf5,6842bb2b278f6138edc6f7e9,2025-06-06_11h58.18.094,shape_ratio,2024.1.5,Win32,61.34969325,6842b561977af9ba9b0f87ca,,,,,,,,,,,185.7875,186.2855,,,186.5354,187.3837,right,0.8324,,,,,,,,,0.55,,,,,,186.2855,186.5354,187.3838,"[-0.03032852910294786,0.15176666564538205]",100.0,"[-0.11012769931566566,0.14050577928973923]",100.0,"[0.1147400818594671,-0.055097916691329796]",100.0,"[0.09018287512506232,0.12536629670901364]",100.0,"[0.022785331004341238,0.012154891259690829]",100.0,"[-0.15120882942212358,0.0393129861712309]",100.0,"[-0.05381549666223565,-0.07352015755756941]",100.0,"[0.02877829757007448,-0.12348503900700283]",4.0,"[-0.09167013837563759,-0.018505394354585567]",100.0,"[0.019044561886369292,-0.060500677161168]",4.0,"[0.08536381106856233,-0.08673950565277314]",100.0,"[-0.04999698750837156,0.11116082815049246]",100.0,"[0.13079604894907976,0.10649920281676793]",100.0,"[-0.1698411817864839,-0.09674782608883917]",100.0,"[0.04739922942462563,0.09510394584727039]",100.0,"[0.05414742465379405,0.1888996328661808]",100.0,"[0.11004930226828923,-0.01325374856105136]",4.0,"[-0.19499692216688821,0.01130987285988667]",4.0,"[0.03513194679964293,0.14024526179375763]",100.0,"[0.16800952230851107,0.08774949412833576]",4.0,"[-0.014405537184082207,-0.152927355638943]",100.0,"[-0.016245078427783395,0.04856814838232385]",4.0,"[-0.08622244964844142,-0.17861209588873478]",4.0,"[-0.01890533290026729,-0.09828021828347658]",4.0,"[0.15924076631072145,-0.10507693384406079]",4.0,"[-0.12865810035269148,-0.05577035161521478]",4.0,"[0.06706389217930443,0.05819812705743966]",4.0,"[-0.08268707646889073,0.06140480237509141]",100.0,"[-0.06602643569989242,0.17828343325839466]",100.0,"[0.06966391838386185,-0.01649546797499682]",4.0,"[-0.12772772694293685,-0.1369947963722274]",4.0,"[0.15985375467466817,0.006226247637674414]",4.0,"[0.02,0.02]",188.4814,0.0,38.0,38.0,83.0,1.0,,,,,,,
,,,,,,,603d0e0e5b0386b034e93bf5,6842bb2b278f6138edc6f7e9,2025-06-06_11h58.18.094,shape_ratio,2024.1.5,Win32,61.34969325,6842b561977af9ba9b0f87ca,,,,,,,,,,,188.4818,188.9805,,,189.2308,190.029,right,0.7844,,,,,,,,,0.4,,,,,,188.9805,189.2308,190.0291,"[-0.15071656366481925,0.03239299115837839]",4.0,"[0.16323692722278274,0.04349927666204986]",100.0,"[0.11813026997081506,-0.1418593587330712]",4.0,"[-0.10167599477197459,-0.003927613177293894]",4.0,"[0.02904963714636174,-0.12901933576157962]",4.0,"[0.16073354070577103,-0.08202972165149722]",4.0,"[0.09014074976709265,-0.09708524225476865]",4.0,"[0.08288284081377681,0.1371545399113081]",4.0,"[-0.13998805451887822,0.09058323201139992]",100.0,"[-0.044193646390136065,-0.19157566537662005]",100.0,"[0.06483702284156732,0.0446206437300174]",4.0,"[0.03411914243206184,0.1127948417638994]",100.0,"[0.0607458657208938,0.17441757234564756]",100.0,"[0.1319016943455576,0.005914015774291294]",100.0,"[0.014444000709601196,0.16767739012908364]",4.0,"[-0.06820939635645142,0.08851194361170947]",4.0,"[0.05309275829227765,0.0009868291267637905]",4.0,"[-0.07017017337019953,0.18388544851397132]",100.0,"[-0.16296702050810594,-0.07818066693467253]",100.0,"[-0.062233300439164606,0.04316301880990711]",100.0,"[-0.02136548720413999,0.14117178031419478]",4.0,"[0.11582461556243293,0.08700876241877635]",100.0,"[0.08748102553667797,-0.029294778582428776]",4.0,"[-0.05730791375209001,-0.02350026524831765]",4.0,"[-0.1643251204525007,-0.035263575314658]",4.0,"[-0.02787744069873847,0.008857038468653053]",100.0,"[0.08110322503402538,-0.171182686100471]",4.0,"[0.019911076901904058,-0.06506583059856992]",100.0,"[-0.18698475404494,0.054429469863827164]",100.0,"[-0.09897841168003439,0.11522831103272717]",4.0,"[0.1758718978651107,0.09295742097101503]",4.0,"[0.02587036443669059,-0.18551362179867403]",4.0,"[0.02,0.02]",191.1268,0.0,39.0,39.0,157.0,1.0,,,,,,,
,,,,,,,603d0e0e5b0386b034e93bf5,6842bb2b278f6138edc6f7e9,2025-06-06_11h58.18.094,shape_ratio,2024.1.5,Win32,61.34969325,6842b561977af9ba9b0f87ca,,,,,,,,,,,191.1272,191.6257,,,191.8761,192.4743,right,0.5881,,,,,,,,,0.55,,,,,,191.6257,191.876,192.4743,"[0.16968671269067795,0.08057133427484023]",4.0,"[0.10361250410287612,-0.07094682419636106]",4.0,"[-0.14250762290844635,0.08347025581818122]",4.0,"[-0.18763723838788454,0.055834886351284446]",100.0,"[0.11158887728918787,-0.12076282677757845]",100.0,"[0.0633744032177608,0.10473408894718864]",100.0,"[-0.10926266033410137,-0.0067531915553190516]",100.0,"[-0.05507834155826709,-0.005824629510094946]",100.0,"[-0.13147621892742803,-0.11605423691050515]",4.0,"[0.04933309633086987,-0.16202792954743497]",4.0,"[0.18297450224334055,-0.047051428597337304]",4.0,"[0.12098548730392661,0.07536977607728892]",4.0,"[-0.03112374250954139,0.03478802278325805]",4.0,"[-0.02148597398361939,-0.10134965566829598]",4.0,"[-0.05298170310350619,0.07723456383657938]",100.0,"[-0.16359513255700392,-0.012121153424973084]",100.0,"[0.08738475044110379,-0.1775548775700113]",100.0,"[-0.12533953168456924,0.14735418437849224]",4.0,"[0.008842113866924243,-0.016178775070749066]",100.0,"[0.03304893151447308,-0.060476746567156445]",100.0,"[0.15958035619099448,0.01758139423823936]",100.0,"[0.10559529363765417,0.11280913629831694]",100.0,"[0.002138994664539244,0.1157445067654641]",100.0,"[0.10939486141300986,0.019447109779472848]",4.0,"[0.047745172769730275,0.18072835498035003]",4.0,"[-0.0882692627997099,-0.16484071576425152]",4.0,"[-0.008174489630615171,-0.18764767264615193]",100.0,"[0.027171872458794422,0.046069295327082725]",100.0,"[0.13620296641817486,-0.029009538282403043]",4.0,"[-0.08217571379671329,-0.10581751918976903]",100.0,"[-0.057409214772629856,0.13807614232735635]",100.0,"[-0.0959381666024163,-0.04921779098678342]",100.0,"[0.02,0.02]",193.5726,0.0,40.0,40.0,89.0,1.0,,,,,,,
,,,,,,,603d0e0e5b0386b034e93bf5,6842bb2b278f6138edc6f7e9,2025-06-06_11h58.18.094,shape_ratio,2024.1.5,Win32,61.34969325,6842b561977af9ba9b0f87ca,,,,,,,,,,,193.573,194.0716,,,194.3215,195.0529,left,0.7273,,,,,,,,,0.45,,,,,,194.0717,194.3215,195.053,"[0.1620731536256622,0.10606081491114056]",4.0,"[-0.1085885844343618,-0.10207532519502778]",100.0,"[0.14585399114460076,-0.010867155176972594]",4.0,"[-0.18404212394772876,0.048833080928159356]",4.0,"[-0.011862102401391171,0.12270128081178686]",100.0,"[-0.026877597783353073,-0.0873357246839999]",100.0,"[-0.0585672381276521,0.10796704054886055]",4.0,"[-0.08418539997503331,-0.005934736266853222]",4.0,"[-0.058736977120084716,-0.15880269299023153]",4.0,"[0.09340101641897133,-0.0457908540088538]",100.0,"[-0.09316550619168011,0.13808373460109058]",4.0,"[0.16520667680583676,0.02554189740191376]",4.0,"[-0.0374525251985117,0.03850498707603773]",4.0,"[0.03588187824441885,-0.009052588565506824]",4.0,"[-0.12932611919149525,0.01945965234579398]",100.0,"[0.02042165805495218,0.04138600863600523]",4.0,"[0.17941676366763856,-0.05403263757125514]",100.0,"[-0.15514875482691198,-0.018399984352328737]",4.0,"[-0.10612947324493531,-0.04488791278238964]",100.0,"[0.060964840876150304,0.14485162528596088]",100.0,"[0.12845792575911114,0.047660821914485854]",4.0,"[-0.1583336584364901,-0.10117304485591531]",100.0,"[0.10500653496551768,0.09719311521618719]",100.0,"[-0.12460815768120186,-0.14445681301771068]",100.0,"[0.09659095447148235,-0.1660380346530109]",100.0,"[0.0599689035977206,0.06363035877877939]",4.0,"[0.03686064861564655,-0.07806704847064345]",4.0,"[-0.15112318743945502,0.09135904815007309]",4.0,"[0.12605088538873094,0.14930223451965813]",4.0,"[0.09770360464577124,-0.10520399581643695]",100.0,"[0.02369599130451412,-0.1343244421264395]",100.0,"[-0.017956674696884712,-0.16056640283635767]",4.0,"[0.02,0.02]",196.151,0.0,41.0,41.0,141.0,1.0,,,,,,,
,,,,,,,603d0e0e5b0386b034e93bf5,6842bb2b278f6138edc6f7e9,2025-06-06_11h58.18.094,shape_ratio,2024.1.5,Win32,61.34969325,6842b561977af9ba9b0f87ca,,,,,,,,,,,196.1514,196.6503,,,196.9011,197.3823,left,0.4644,,,,,,,,,0.1,,,,,,196.6503,196.9011,197.3824,"[0.07071098908996092,0.03978538683738737]",4.0,"[-0.05486253005972277,0.0559178999112497]",100.0,"[0.004065481825904292,-0.14424811245907926]",4.0,"[-0.1521496310325845,-0.1005678599425231]",4.0,"[-0.10908546096978669,0.11512294685948328]",4.0,"[0.07440746851866428,0.12428253779937269]",4.0,"[0.09318199583492298,-0.009007767633027918]",4.0,"[-0.07896820498328955,-0.05035857076613392]",4.0,"[0.1152708824165807,-0.07125889199011784]",4.0,"[0.04516663056947072,0.15165179405110052]",4.0,"[0.048710653382437845,-0.10119884689511456]",4.0,"[0.15866883975141102,-0.09257274889468356]",4.0,"[0.09307271879264072,0.16362704880190662]",4.0,"[0.1495813584713419,0.06946714139289793]",4.0,"[-0.00523203650104729,0.042599739136803025]",4.0,"[-0.01409649971332166,-0.03140792505124427]",4.0,"[0.16764226754316694,-0.046879126616505354]",4.0,"[-0.06626404298791091,0.18826480501453077]",100.0,"[-0.050349154628403316,-0.000495510288898979]",4.0,"[-0.1717564105834907,0.02648381159600827]",4.0,"[0.02595113115761704,-0.05551616703863859]",4.0,"[0.019344293951605054,-0.1827080647677848]",4.0,"[-0.07898246765253614,0.14607837582955407]",4.0,"[-0.007671714799421159,0.1594488552243033]",4.0,"[-0.07885768624058205,-0.12994106327288787]",4.0,"[-0.14242555663284942,-0.05247951892218656]",4.0,"[-0.1634990681183727,0.07953274399188426]",4.0,"[0.08653419147379963,-0.16211880366299727]",4.0,"[0.13433394797807316,-0.0034198228634164714]",4.0,"[-0.08993213332678977,0.0769360319467986]",4.0,"[0.10716391780183668,-0.11946008566067713]",4.0,"[0.06499526581635853,-0.03855356755899714]",100.0,"[0.02,0.02]",198.4798,0.0,42.0,42.0,196.0,1.0,,,,,,,
,,,,,,,603d0e0e5b0386b034e93bf5,6842bb2b278f6138edc6f7e9,2025-06-06_11h58.18.094,shape_ratio,2024.1.5,Win32,61.34969325,6842b561977af9ba9b0f87ca,,,,,,,,,,,198.4801,198.9789,,,199.2289,199.7113,left,0.468,,,,,,,,,0.1,,,,,,198.979,199.2289,199.7113,"[-0.17107122597165425,-0.033501132747556304]",4.0,"[0.07462773540604732,-0.061740141197166455]",4.0,"[0.022321021621428266,-0.19707719810251145]",100.0,"[-0.05544611658135305,0.15545611355304206]",4.0,"[-0.12792231345946442,0.09180822814657316]",4.0,"[0.06112984103380433,0.12587945003148068]",4.0,"[-0.10117823115012754,-0.16684030735813674]",4.0,"[-0.176914816192868,0.01896110205675794]",4.0,"[0.060978945131893135,0.05966788746607705]",4.0,"[-0.005225299330759278,0.199654146538826]",4.0,"[-0.055588311064006815,-0.182171913359478]",4.0,"[0.1294697305032204,0.04403714114020138]",4.0,"[0.11516161727257437,0.14213673701047566]",4.0,"[0.016809678127230866,0.14760152402172563]",100.0,"[-0.08131007480737225,-0.12781774595409956]",4.0,"[-0.09273592808181837,0.0018782691508979906]",4.0,"[0.017977134975551975,0.011817835300196968]",4.0,"[0.026139694175605094,-0.03069150409950366]",4.0,"[-0.03111103206907859,0.10228763947574701]",4.0,"[0.09193845312237002,0.01839519227178399]",4.0,"[0.11597059721569561,-0.05512251848842291]",4.0,"[-0.07651712888477995,0.04696168102696877]",4.0,"[0.1007901609327704,-0.16020289397723148]",4.0,"[-0.07457052669633396,-0.07277297113184714]",100.0,"[-0.031114801452126077,-0.12788224311148344]",4.0,"[0.19791591888049934,-0.028122332531174903]",4.0,"[-0.10341796625925914,0.15620377363137927]",4.0,"[-0.016503946480426697,-0.02829111971964746]",4.0,"[0.044782846327882236,-0.11716238815741682]",4.0,"[-0.12605770463272417,-0.09743714119671865]",4.0,"[0.08613029413527669,0.09459421459905669]",4.0,"[-0.11005026734999268,-0.044530985134400305]",4.0,"[0.02,0.02]",200.809,0.0,43.0,43.0,182.0,1.0,,,,,,,
,,,,,,,603d0e0e5b0386b034e93bf5,6842bb2b278f6138edc6f7e9,2025-06-06_11h58.18.094,shape_ratio,2024.1.5,Win32,61.34969325,6842b561977af9ba9b0f87ca,,,,,,,,,,,200.8094,201.3085,,,201.5583,201.9737,left,0.3991,,,,,,,,,0.1,,,,,,201.3085,201.5583,201.9738,"[0.14011623486948524,0.023168098407857544]",4.0,"[-0.11162155044720005,-0.0791709029379346]",4.0,"[-0.16860206750887674,0.06182562482229911]",4.0,"[-0.17501787313572206,-0.03249331011192788]",4.0,"[-0.020189581132260274,0.14589743805019564]",4.0,"[0.16900375588509364,0.07730385138704017]",4.0,"[0.022797205477026326,-0.10371555560568098]",4.0,"[0.015348007637712938,-0.17358002818403478]",4.0,"[-0.02538263337834741,-0.030184402073548496]",4.0,"[0.03120588323142587,0.03368945955153687]",4.0,"[-0.05915946628900144,-0.0771167097734688]",4.0,"[0.18033209325031294,-0.06852030636822913]",100.0,"[0.1055485042904555,-0.050205802540440374]",4.0,"[-0.11624187647419564,0.10325461559626367]",4.0,"[0.04239042263135925,0.1595126026371419]",4.0,"[-0.003468455565338618,0.18641685894722473]",4.0,"[-0.013685536671310245,0.05864114117989161]",4.0,"[-0.05502929822390195,0.007251043066413086]",4.0,"[-0.10350758925941596,0.04304326499312137]",4.0,"[-0.03726161652077919,-0.18537201859638547]",4.0,"[0.04670443938017256,0.07212040486307583]",4.0,"[-0.11941453623913088,-0.034106676880482883]",4.0,"[0.171593442662371,-0.01476238710757359]",4.0,"[-0.07664017015622084,0.07415247034954606]",4.0,"[-0.1092295424551621,0.1428617291205033]",4.0,"[0.09131219209013253,0.05961516905651817]",4.0,"[0.046234982961658365,-0.0067452412435267325]",4.0,"[0.03546100720998216,-0.048520445320912355]",100.0,"[-0.11659414341893633,-0.13507839626913662]",100.0,"[0.06966157225739107,0.10941160884459963]",4.0,"[0.14399833701610554,0.1266240997155866]",4.0,"[-0.010898403186502861,-0.13264418363581254]",4.0,"[0.02,0.02]",203.0715,0.0,44.0,44.0,203.0,1.0,,,,,,,
,,,,,,,603d0e0e5b0386b034e93bf5,6842bb2b278f6138edc6f7e9,2025-06-06_11h58.18.094,shape_ratio,2024.1.5,Win32,61.34969325,6842b561977af9ba9b0f87ca,,,,,,,,,,,203.0718,203.5706,,,203.8211,204.4523,right,0.6151,,,,,,,,,0.6,,,,,,203.5706,203.821,204.4524,"[-0.03595772927288605,-0.0016286163770829426]",4.0,"[-0.06900851626374235,-0.08228804445281786]",100.0,"[0.010358384995755676,-0.003132649708430863]",100.0,"[0.02053849892689811,-0.06980274901372725]",100.0,"[0.08370635997731432,0.14397252970444552]",100.0,"[0.11571756376318035,-0.0023150701186758077]",4.0,"[-0.02365359639664572,-0.07922376138582772]",4.0,"[0.09249976959161613,0.10138120816223606]",4.0,"[0.04881197935099274,0.035554254880789254]",4.0,"[-0.1285876043752086,0.07899610800583176]",4.0,"[0.06820323083764057,-0.1814011947342599]",100.0,"[-0.0013403396798352422,0.1405014257549555]",100.0,"[-0.1375148029482067,-0.1377208136804648]",100.0,"[0.16406334804937742,0.11007198738765173]",4.0,"[-0.01088252533975602,-0.038655810397518565]",4.0,"[-0.13812860834248838,-0.04085151669033038]",100.0,"[0.023690272960348032,-0.18138576014092092]",100.0,"[-0.055928240935685575,0.06812413042872931]",100.0,"[-0.182211677991333,-0.03649337716358877]",100.0,"[0.05851404820730485,0.1875957623019616]",100.0,"[0.12775713425187404,0.06883682154582867]",100.0,"[-0.07235550294352425,0.16557304405226408]",100.0,"[-0.1561087679774405,-0.09774780460266935]",4.0,"[0.10871631909924782,-0.10981507937388002]",100.0,"[-0.08506286512736827,0.10493037532270327]",100.0,"[-0.11305784037669951,-0.08138742698747668]",100.0,"[-0.0426424492200708,-0.16148168520223266]",100.0,"[0.06942848853915183,-0.014485703468980511]",4.0,"[-0.15858432052913493,0.005251857020256833]",4.0,"[0.029846283228334956,-0.11391623153156263]",4.0,"[0.014328120923619044,0.08224066525530155]",100.0,"[0.09994896425440539,-0.06767424715590638]",4.0,"[0.02,0.02]",205.5503,0.0,45.0,45.0,53.0,1.0,,,,,,,
,,,,,,,603d0e0e5b0386b034e93bf5,6842bb2b278f6138edc6f7e9,2025-06-06_11h58.18.094,shape_ratio,2024.1.5,Win32,61.34969325,6842b561977af9ba9b0f87ca,,,,,,,,,,,205.5508,206.0496,,,206.2997,206.7317,right,0.4205,,,,,,,,,0.4,,,,,,206.0496,206.2996,206.7317,"[-0.13826950267566318,-0.11447724319126339]",4.0,"[0.047085055075726114,-0.06087770177263793]",4.0,"[-0.19095079736888176,-0.0030703926520759548]",100.0,"[-0.11609819907967,0.15046944328159836]",4.0,"[-0.07429108575076761,-0.18454125066120425]",100.0,"[0.1478882529113206,0.1304142623356023]",4.0,"[0.012802944861315507,-0.14434093980827253]",4.0,"[0.17214819401638087,-0.06975854302624558]",4.0,"[-0.12664728753350157,-0.06224891690026675]",100.0,"[-0.14129753629331376,0.007787670773596582]",4.0,"[-0.0005467572725255521,0.06951191472846338]",4.0,"[-0.07922754491290157,0.1184193827232559]",100.0,"[0.008002514821117766,-0.09184728193027736]",4.0,"[0.07625497142651451,-0.17157559483037435]",100.0,"[0.09109573238161217,0.09443962630625025]",100.0,"[0.04311601667986998,0.03578538875268015]",4.0,"[-0.19457866217766076,0.037662535932259295]",100.0,"[0.03928458858402651,0.10865919582595501]",4.0,"[0.07497360163369055,-0.030951450948118648]",100.0,"[0.09812859741241987,0.13577633254730248]",100.0,"[-0.07239382936359985,0.045074488146098816]",4.0,"[0.0428957074613248,0.19446846447080954]",4.0,"[-0.014186578542068078,-0.02711956403962228]",100.0,"[0.12630129798376258,0.06442686944086783]",4.0,"[-0.025322695390526482,0.1551091700054963]",4.0,"[-0.09383341372085807,-0.03362762795688325]",4.0,"[0.007480116383143861,0.01397780620591831]",4.0,"[-0.1455475745549033,0.1185150639853138]",4.0,"[0.09133409238215119,-0.1328439351435194]",100.0,"[-0.041728104411904214,-0.14621685905930173]",100.0,"[-0.18629550628978953,-0.05030954715335372]",100.0,"[0.13824586772171138,-0.11883913628753094]",4.0,"[0.02,0.02]",207.8296,0.0,46.0,46.0,163.0,1.0,,,,,,,
,,,,,,,603d0e0e5b0386b034e93bf5,6842bb2b278f6138edc6f7e9,2025-06-06_11h58.18.094,shape_ratio,2024.1.5,Win32,61.34969325,6842b561977af9ba9b0f87ca,,,,,,,,,,,207.8301,208.3293,,,208.5785,209.4266,left,0.8419,,,,,,,,,0.4,,,,,,208.3293,208.5784,209.4266,"[0.07852613906721997,0.11192621457865132]",4.0,"[-0.06226889156832745,0.07944584234339536]",4.0,"[0.07762109455325075,0.021321842060947907]",4.0,"[-0.1666730220312051,0.0028829843545111126]",100.0,"[0.14294731602908065,0.13062467425884836]",4.0,"[-0.03988995118153858,-0.04169712297837177]",100.0,"[-0.012251911614187599,-0.12780914262110576]",4.0,"[0.04404238994740153,0.15513317209158708]",4.0,"[-0.10171817074215435,0.1040372808818036]",4.0,"[-0.011728811619977826,0.1644183846606724]",4.0,"[0.03725580082647288,-0.14410267235925572]",4.0,"[-0.06810295418440268,0.1645973114626078]",4.0,"[-0.07179084500580502,0.009201515925062168]",100.0,"[0.024646104802875577,0.08162272294932554]",100.0,"[-0.13140294519453008,-0.04230061135829128]",4.0,"[-0.010903259740805867,0.009846778450086453]",4.0,"[0.16100876711837953,0.027517494322891887]",100.0,"[-0.11431147302080272,-0.08663543975955523]",4.0,"[0.16845327477879077,-0.04750679372401482]",100.0,"[0.02358185926076062,0.03607539946014392]",4.0,"[-0.16004722171288183,0.11497088648619122]",100.0,"[-0.00045554794536619493,-0.07177662016273686]",100.0,"[0.09944427070876541,0.15712020764664303]",100.0,"[-0.16444590537023276,-0.09816745357244652]",100.0,"[-0.11442050023442087,-0.14809818323721874]",100.0,"[-0.03466062424457366,0.04704539034459289]",4.0,"[-0.08779776475642674,-0.048555215969059706]",4.0,"[0.09946354899232154,-0.0902313500337858]",100.0,"[0.13356763668085367,-0.020700588115262895]",100.0,"[0.1135803769092449,0.08415070848110245]",4.0,"[-0.18972623294168034,-0.039975775376723116]",4.0,"[0.058087761951410105,-0.08954193258540565]",4.0,"[0.02,0.02]",210.5245,0.0,47.0,47.0,162.0,1.0,,,,,,,
,,,,,,,603d0e0e5b0386b034e93bf5,6842bb2b278f6138edc6f7e9,2025-06-06_11h58.18.094,shape_ratio,2024.1.5,Win32,61.34969325,6842b561977af9ba9b0f87ca,,,,,,,,,,,210.5249,211.0236,,,211.2736,212.2048,left,0.9238,,,,,,,,,0.5,,,,,,211.0236,211.2735,212.2049,"[-0.0749854005538291,-0.17298883345552973]",100.0,"[-0.10394174568460028,0.09652673398152335]",100.0,"[-0.05129246491979038,0.14226020670604858]",100.0,"[-0.0636689434540476,-0.10849350091790165]",100.0,"[-0.11246307768716081,-0.06823835131726924]",100.0,"[0.04923659701696634,-0.025602464859814395]",100.0,"[0.005616874121914581,-0.020196392212685016]",100.0,"[-0.14746737512813257,0.005199260738438854]",4.0,"[0.11478105247451381,0.10911403768242417]",100.0,"[0.0017843890205359184,-0.07574020885691737]",4.0,"[-0.11049533562266443,0.024069627380506324]",4.0,"[-0.1574626677764853,0.05738045533074665]",100.0,"[0.05882509406100845,0.05243068305399074]",100.0,"[-0.03625690137319288,0.06382152638309514]",4.0,"[-0.006037341609901581,-0.1997012830419183]",100.0,"[0.14734114824959046,-0.06759512169371641]",4.0,"[-0.009778034705997467,0.1763886619840773]",100.0,"[-0.18747476750104555,-0.02017501444812551]",100.0,"[0.035583277602462805,0.15958748936171385]",4.0,"[0.1698762637484256,0.03851859269996279]",100.0,"[-0.14458111120780295,-0.03984956113975206]",4.0,"[-0.1644149618498547,-0.08624376441586828]",4.0,"[0.1100860470497373,-0.1455456665261534]",4.0,"[0.11380018737243829,-0.030738992478208955]",4.0,"[0.03721821051959881,-0.12803190237018028]",4.0,"[-0.13617905553220003,0.12047640189511043]",100.0,"[0.00589079821107106,0.0872056578895625]",4.0,"[-0.03069054726650557,-0.0016939190409624857]",4.0,"[0.11297239276494796,0.02424221297631263]",100.0,"[0.0669589924726219,0.12547862460122586]",4.0,"[0.1813506963566463,-0.01498672772733067]",4.0,"[0.06957622045674491,-0.15522563812046314]",4.0,"[0.02,0.02]",213.3032,0.0,48.0,48.0,108.0,1.0,,,,,,,
,,,,,,,603d0e0e5b0386b034e93bf5,6842bb2b278f6138edc6f7e9,2025-06-06_11h58.18.094,shape_ratio,2024.1.5,Win32,61.34969325,6842b561977af9ba9b0f87ca,,,,,,,,,,,213.3036,213.802,,,214.0517,214.6837,left,0.6137,,,,,,,,,0.4,,,,,,213.802,214.0517,214.6838,"[-0.10398565332072295,0.024641031796179387]",100.0,"[-0.15880132410161318,0.032885872819798614]",4.0,"[0.06793788148748438,-0.05706839936078238]",100.0,"[-0.1302020865826413,-0.030296915640125845]",100.0,"[0.17013932754784492,-0.09323188536207376]",4.0,"[-0.14723888498406001,-0.1068765745593274]",4.0,"[0.006138911058176235,0.195793443187612]",100.0,"[-0.008216737461694637,-0.15798968263891233]",4.0,"[0.11062191783032321,0.08997914480145876]",4.0,"[-0.036779389563762505,0.10914072554054964]",4.0,"[0.18733278782123702,-0.002897126810282608]",4.0,"[-0.027862338531338036,-0.02855156272898056]",4.0,"[0.12751341294513258,0.026450159626127463]",100.0,"[0.049681949999878294,0.11861256537279277]",100.0,"[-0.01985148351036884,0.02966576637648652]",4.0,"[-0.05982975133312041,0.16250941240673686]",4.0,"[0.036206339842529474,0.01758480073911158]",100.0,"[0.10589622021695867,0.1359323656783733]",100.0,"[-0.06734675736121996,-0.06563932611625722]",4.0,"[0.009741634792035929,0.062208406712525116]",4.0,"[-0.046964457014308965,0.05986771455924828]",4.0,"[-0.18480442569603645,-0.025391899787655544]",100.0,"[-0.151454608271207,0.09037890589486756]",100.0,"[0.0628660743070184,0.05019844704049896]",100.0,"[-0.07547213207534229,-0.0139480578943739]",4.0,"[0.15742888973983757,0.1126119995913636]",4.0,"[0.04295453718045105,-0.19123220971473642]",4.0,"[0.0726388627595392,-0.14781208783420088]",4.0,"[-0.04516351834592103,-0.12821494709551906]",100.0,"[-0.08359178705570885,0.08757360757024045]",4.0,"[-0.1871963506073468,-0.0689291478591926]",4.0,"[0.03725115549723713,-0.12374195339717148]",100.0,"[0.02,0.02]",215.7817,0.0,49.0,49.0,150.0,1.0,,,,,,,
