right,left,explain.started,explain.stopped,key_resp_3.keys,key_resp_3.rt,key_resp_3.duration,participant,session,date,expName,psychopyVersion,OS,frameRate,study_id,explain_2.started,explain_2.stopped,key_resp_4.keys,key_resp_4.rt,key_resp_4.duration,explain_3.started,explain_3.stopped,key_resp_5.keys,key_resp_5.rt,key_resp_5.duration,fixation.started,fixation.stopped,practice.started,practice.stopped,response.started,response.stopped,key_resp.keys,key_resp.rt,key_resp.duration,feedback.started,feedback.stopped,trials_2.thisRepN,trials_2.thisTrialN,trials_2.thisN,trials_2.thisIndex,trials_2.ran,dot_ratio,explain_4.started,explain_4.stopped,key_resp_6.keys,key_resp_6.rt,key_resp_6.duration,dotDisplay.started,dotDisplay.stopped,ITI.started,polygon_1.pos,polygon_1.edges,polygon_2.pos,polygon_2.edges,polygon_3.pos,polygon_3.edges,polygon_4.pos,polygon_4.edges,polygon_5.pos,polygon_5.edges,polygon_6.pos,polygon_6.edges,polygon_7.pos,polygon_7.edges,polygon_8.pos,polygon_8.edges,polygon_9.pos,polygon_9.edges,polygon_10.pos,polygon_10.edges,polygon_11.pos,polygon_11.edges,polygon_12.pos,polygon_12.edges,polygon_13.pos,polygon_13.edges,polygon_14.pos,polygon_14.edges,polygon_15.pos,polygon_15.edges,polygon_16.pos,polygon_16.edges,polygon_17.pos,polygon_17.edges,polygon_18.pos,polygon_18.edges,polygon_19.pos,polygon_19.edges,polygon_20.pos,polygon_20.edges,polygon_21.pos,polygon_21.edges,polygon_22.pos,polygon_22.edges,polygon_23.pos,polygon_23.edges,polygon_24.pos,polygon_24.edges,polygon_25.pos,polygon_25.edges,polygon_26.pos,polygon_26.edges,polygon_27.pos,polygon_27.edges,polygon_28.pos,polygon_28.edges,polygon_29.pos,polygon_29.edges,polygon_30.pos,polygon_30.edges,polygon_31.pos,polygon_31.edges,polygon_32.pos,polygon_32.edges,dot_size,ITI.stopped,trials.thisRepN,trials.thisTrialN,trials.thisN,trials.thisIndex,trials.ran,break_2.started,break_2.stopped,trials_3.thisRepN,trials_3.thisTrialN,trials_3.thisN,trials_3.thisIndex,trials_3.ran
subject chose dot,subject chose diamond,0.0003,31.5452,space,16.5315,,6060b2cead1daacd69adb31f,68399d387ba2871b7f95274d,2025-05-30_12h58.05.130,shape_ratio,2024.1.5,Win32,60.24096386,683853e18dae57a2147b65e0,,,,,,,,,,,,,,,,,,,,,,,,,,,,,,,,,,,,,,,,,,,,,,,,,,,,,,,,,,,,,,,,,,,,,,,,,,,,,,,,,,,,,,,,,,,,,,,,,,,,,,,,,,,,,,,,,
,,,,,,,6060b2cead1daacd69adb31f,68399d387ba2871b7f95274d,2025-05-30_12h58.05.130,shape_ratio,2024.1.5,Win32,60.24096386,683853e18dae57a2147b65e0,31.5462,70.2441,space,8.6826,,,,,,,,,,,,,,,,,,,,,,,,,,,,,,,,,,,,,,,,,,,,,,,,,,,,,,,,,,,,,,,,,,,,,,,,,,,,,,,,,,,,,,,,,,,,,,,,,,,,,,,,,,,,,
,,,,,,,6060b2cead1daacd69adb31f,68399d387ba2871b7f95274d,2025-05-30_12h58.05.130,shape_ratio,2024.1.5,Win32,60.24096386,683853e18dae57a2147b65e0,,,,,,70.2444,77.2047,space,3.9445,,,,,,,,,,,,,,,,,,,,,,,,,,,,,,,,,,,,,,,,,,,,,,,,,,,,,,,,,,,,,,,,,,,,,,,,,,,,,,,,,,,,,,,,,,,,,,,,,,,,,,,,
,,,,,,,6060b2cead1daacd69adb31f,68399d387ba2871b7f95274d,2025-05-30_12h58.05.130,shape_ratio,2024.1.5,Win32,60.24096386,683853e18dae57a2147b65e0,,,,,,,,,,,77.2286,77.7219,77.723,77.9616,77.962,78.9871,left,0.973,,78.9875,80.0857,0.0,0.0,0.0,1.0,1.0,0.8,,,,,,,,,,,,,,,,,,,,,,,,,,,,,,,,,,,,,,,,,,,,,,,,,,,,,,,,,,,,,,,,,,,,,,,,,,,,,,,,,,,,,,
,,,,,,,6060b2cead1daacd69adb31f,68399d387ba2871b7f95274d,2025-05-30_12h58.05.130,shape_ratio,2024.1.5,Win32,60.24096386,683853e18dae57a2147b65e0,,,,,,,,,,,80.0866,80.5852,80.5854,80.8357,80.8358,81.4184,right,0.5663,,81.4185,82.5161,0.0,1.0,1.0,0.0,1.0,0.2,,,,,,,,,,,,,,,,,,,,,,,,,,,,,,,,,,,,,,,,,,,,,,,,,,,,,,,,,,,,,,,,,,,,,,,,,,,,,,,,,,,,,,
,,,,,,,6060b2cead1daacd69adb31f,68399d387ba2871b7f95274d,2025-05-30_12h58.05.130,shape_ratio,2024.1.5,Win32,60.24096386,683853e18dae57a2147b65e0,,,,,,,,,,,,,,,,,,,,,,,,,,,,82.5166,87.547,space,2.005,,,,,,,,,,,,,,,,,,,,,,,,,,,,,,,,,,,,,,,,,,,,,,,,,,,,,,,,,,,,,,,,,,,,,,,,,,,,,,,,,,
,,,,,,,6060b2cead1daacd69adb31f,68399d387ba2871b7f95274d,2025-05-30_12h58.05.130,shape_ratio,2024.1.5,Win32,60.24096386,683853e18dae57a2147b65e0,,,,,,,,,,,87.585,88.063,,,88.314,88.729,left,0.4003,,,,,,,,,0.45,,,,,,88.0649,88.3138,88.73,"[-0.0366941117745359,0.047206286312576166]",4.0,"[0.18900763536534237,0.026313757007074043]",4.0,"[0.028164485081237565,-0.1721468640124684]",100.0,"[-0.07135438249100719,-0.15136103628668474]",100.0,"[-0.11389248372757678,0.016085887816257662]",100.0,"[0.1253716664508278,-0.1231496990219362]",4.0,"[-0.1777917761601453,0.03489781187360333]",4.0,"[-0.07629629640960212,-0.07085856255485598]",4.0,"[0.007887205500855537,-0.057867624344492934]",100.0,"[-0.11157578431597778,-0.026858695646983618]",100.0,"[0.042307096138963385,0.13946212817330247]",4.0,"[0.06217337540555465,-0.06932938351103148]",4.0,"[0.16536300843465718,-0.046803280616647236]",4.0,"[0.11908767429739138,0.06502891580414112]",100.0,"[0.08516483679892145,0.03651695025944137]",100.0,"[0.053919247634368145,0.17903152880609882]",100.0,"[0.053246718647571384,-0.1276333432962093]",100.0,"[-0.1176754764898316,0.06379423653895559]",4.0,"[-0.07709199723171657,0.07486986804131435]",100.0,"[0.05318978033744233,-0.003366829949167857]",100.0,"[0.08760771075988932,0.10946035447896502]",4.0,"[0.07084733557766233,-0.17446418916732157]",100.0,"[-0.15299884417946644,0.10928809460200481]",4.0,"[0.019689571211343862,0.04252992176688893]",4.0,"[-0.04047424732830027,0.1624075017278955]",100.0,"[0.09369247916101874,0.15474488373793893]",4.0,"[0.0494845896626043,0.07242384676362187]",4.0,"[-0.026105684595855976,0.10503013173600875]",100.0,"[-0.037484772580144904,-0.19443603717481883]",4.0,"[-0.045788922042445064,-0.03645774087997585]",4.0,"[0.17888366686698207,0.06537750342931704]",4.0,"[-0.1670761610437705,-0.004939712714277315]",4.0,"[0.02,0.02]",89.828,0.0,0.0,0.0,142.0,1.0,,,,,,,
,,,,,,,6060b2cead1daacd69adb31f,68399d387ba2871b7f95274d,2025-05-30_12h58.05.130,shape_ratio,2024.1.5,Win32,60.24096386,683853e18dae57a2147b65e0,,,,,,,,,,,89.8289,90.3275,,,90.5774,90.9766,right,0.3846,,,,,,,,,0.4,,,,,,90.3276,90.5773,90.9766,"[0.08145250389822012,0.17795817654804155]",100.0,"[-0.1120438953449352,-0.058160213917221884]",100.0,"[-0.025764566970153023,-0.09951375650002461]",4.0,"[0.0633310344573099,0.08306373919594022]",100.0,"[0.031001545607675738,-0.17054057431631528]",4.0,"[-0.006187330619880461,0.09290399041490767]",4.0,"[0.15859655109192872,0.1068802200644692]",4.0,"[-0.06942971256155174,-0.0010425744494248189]",100.0,"[0.09049922663532664,-0.15437608852717327]",4.0,"[0.18915610371798128,0.027034065173821387]",4.0,"[-0.12113281345227986,-0.10677623430171056]",100.0,"[-0.06263563881407042,-0.13012288095042515]",4.0,"[0.11306788219902583,-0.09960026134228576]",4.0,"[0.08391019779698862,-0.05756410377016232]",100.0,"[0.018340246269506182,-0.1179654196879543]",4.0,"[-0.17326391566109423,-0.09158428788048631]",4.0,"[0.11669697221718008,0.15115741126959165]",4.0,"[-0.0522729058199714,0.10521075236969431]",4.0,"[-0.165655585113614,0.09307110118433258]",4.0,"[-0.195197915231736,-0.039122574325247274]",100.0,"[0.01701289877477203,-0.04496595583884976]",100.0,"[-0.027208996272346655,-0.19604387874574644]",100.0,"[-0.016500943768689626,0.03708243027830568]",100.0,"[-0.1046861991818879,0.07093790523102522]",4.0,"[-0.1483976026733465,0.03236182942103037]",4.0,"[-0.07067061071623006,-0.06685887783361884]",4.0,"[-0.09861560423577911,-0.16267070765556443]",100.0,"[-0.1406838095275422,0.12612899854788723]",4.0,"[-0.10136525858097642,0.17200279257608045]",100.0,"[0.08049404833817456,-0.014909381802599318]",4.0,"[0.006704347650699346,0.19634653711239347]",4.0,"[-0.13066690773509307,-0.022212581928088337]",100.0,"[0.02,0.02]",92.0759,0.0,1.0,1.0,176.0,1.0,,,,,,,
,,,,,,,6060b2cead1daacd69adb31f,68399d387ba2871b7f95274d,2025-05-30_12h58.05.130,shape_ratio,2024.1.5,Win32,60.24096386,683853e18dae57a2147b65e0,,,,,,,,,,,92.0766,92.5754,,,92.8247,93.2577,left,0.4015,,,,,,,,,0.4,,,,,,92.5755,92.8246,93.258,"[0.017097110576243045,-0.0006409481026472794]",4.0,"[0.08845158668061748,-0.17735650420137974]",4.0,"[-0.17421178415814118,-0.018014326811363682]",100.0,"[-0.12397982605222004,-0.14598146600391015]",4.0,"[0.06883373787821924,-0.0702086748272835]",4.0,"[-0.009370378684303167,0.18496474513812333]",100.0,"[0.08397456616755734,0.033443393405930257]",100.0,"[0.05963904707353302,0.1168493692985879]",100.0,"[0.04605749244970029,-0.03271455471336608]",100.0,"[-0.1351112482936759,0.11772848574345286]",4.0,"[-0.009767709680084462,0.09684024616336029]",4.0,"[-0.06704169372607306,0.168325853291344]",4.0,"[0.08479603905538337,0.07937593772423952]",100.0,"[-0.07268830078732397,0.014858596964120303]",4.0,"[-0.06036583044997157,-0.08205527913163269]",4.0,"[0.03437086011226206,0.19092124901521637]",100.0,"[-0.0768121883233398,-0.03248517713307655]",4.0,"[-0.09456627413747892,-0.11219044589821622]",4.0,"[-0.10609980443530877,0.08544852199304825]",4.0,"[-0.1659793964145483,0.027830552658078923]",4.0,"[0.1030855698732144,-0.11330219162707413]",4.0,"[0.11731676683554644,-0.00908823554136234]",4.0,"[0.1431677919089864,-0.07662505855056348]",100.0,"[-0.02427459091111874,0.002730913461708743]",4.0,"[-0.048368371636005575,0.11202356494302067]",4.0,"[-0.12834119741343053,0.05123338551859985]",100.0,"[-0.03956135034927626,-0.15114309079065796]",100.0,"[0.0019396453904938777,-0.180395437050572]",100.0,"[0.04377308440531229,-0.1583813194012277]",4.0,"[-0.043363940602215365,0.06245734820190346]",100.0,"[0.06084462259325214,-0.11967336359856429]",100.0,"[0.1566662862888999,0.11439758904577904]",4.0,"[0.02,0.02]",94.3566,0.0,2.0,2.0,167.0,1.0,,,,,,,
,,,,,,,6060b2cead1daacd69adb31f,68399d387ba2871b7f95274d,2025-05-30_12h58.05.130,shape_ratio,2024.1.5,Win32,60.24096386,683853e18dae57a2147b65e0,,,,,,,,,,,94.357,94.8562,,,95.1136,95.541,right,0.4096,,,,,,,,,0.5,,,,,,94.8563,95.1136,95.5412,"[-0.09906952320175275,-0.10681095769587821]",100.0,"[0.08461608842493049,0.004804981118033696]",100.0,"[0.13562775350803452,0.07146226586383685]",4.0,"[-0.04602638799514373,-0.19184547138926475]",100.0,"[-0.07987498498197522,0.09392156621172455]",100.0,"[0.013339082288586015,-0.1497196268432604]",4.0,"[-0.049319953672658096,-0.10171562109408146]",100.0,"[0.03384222633071513,-0.0447528275717624]",100.0,"[-0.12211622163151017,0.006075749504720143]",100.0,"[0.16682386270267544,-0.07444184598326586]",4.0,"[-0.03433466065788095,0.014433212733632014]",4.0,"[0.10263600185475957,-0.12401762367296595]",4.0,"[0.0710490632079141,-0.1521989479543529]",4.0,"[0.09727548621350829,-0.05600872813564382]",100.0,"[0.0660549158513629,-0.09253937533652729]",4.0,"[-0.1631585986360809,0.007559933725338713]",4.0,"[-0.14292651041699025,0.05683745008980847]",4.0,"[-0.05856527378755714,0.1699873198594304]",100.0,"[-0.11866363565481992,0.15373148341591547]",4.0,"[-0.04179791439804131,0.11538179078232587]",100.0,"[0.024146020725969417,0.07539666980557092]",100.0,"[-0.16362596303394855,-0.11176641835397301]",4.0,"[0.12496009248734684,-0.019607848572563924]",4.0,"[-0.019728434958659138,0.058651201521523685]",100.0,"[0.12444101601189984,0.12543609657113913]",4.0,"[-0.03908607156543447,-0.030572891963160112]",4.0,"[-0.1838016349364925,0.04690744883264957]",100.0,"[0.19678610380706638,0.015829630354250786]",100.0,"[0.016551695453419987,0.03169348594553422]",4.0,"[-0.13525436964328305,-0.05458980779634641]",100.0,"[0.07547878526918565,0.10301839930786846]",100.0,"[-0.1645838340777745,0.1113491511918434]",4.0,"[0.02,0.02]",96.6381,0.0,3.0,3.0,116.0,1.0,,,,,,,
,,,,,,,6060b2cead1daacd69adb31f,68399d387ba2871b7f95274d,2025-05-30_12h58.05.130,shape_ratio,2024.1.5,Win32,60.24096386,683853e18dae57a2147b65e0,,,,,,,,,,,96.6391,97.1378,,,97.3887,98.5367,right,1.1198,,,,,,,,,0.6,,,,,,97.1378,97.3885,98.5368,"[0.15517373516773522,-0.11899194118251935]",100.0,"[0.1253675728391098,-0.05211887866878179]",100.0,"[-0.18350499886684124,0.07067243346647126]",100.0,"[-0.11620350426004691,0.0052098114741041986]",100.0,"[0.15714992392516336,0.08550270751067147]",4.0,"[-0.1032400649091464,-0.06866491302125446]",4.0,"[-0.1509440731799385,-0.019077557620107537]",100.0,"[0.09864077660499548,0.08407808958371514]",4.0,"[-0.07573946400628802,0.1741426395722553]",4.0,"[0.1350425216709137,-0.01295430608861024]",100.0,"[-0.029036919298181404,-0.16220303879359224]",100.0,"[-0.033765988774202414,0.19568830793862627]",100.0,"[0.07114098957162329,-0.08576446119023257]",100.0,"[-0.015791560300863067,-0.015116571794755037]",100.0,"[-0.08175055363582968,-0.15167811282231972]",4.0,"[-0.06189377708822536,0.04369203439687382]",4.0,"[-0.13116685727498706,0.09357526635354249]",4.0,"[-0.1263803323180143,0.14193746917293285]",100.0,"[0.18565846865218918,0.021147271238375277]",4.0,"[-0.19059486361953568,0.016849202316950487]",100.0,"[0.07854323225142466,-0.16559646556357152]",100.0,"[0.11779749408514677,0.02749295648251763]",100.0,"[-0.0038241386397749565,0.09285187876005892]",100.0,"[0.051390325469039086,0.13305726486405495]",100.0,"[-0.12131197422377099,-0.10699574013569778]",4.0,"[0.050876747554584344,0.18281180783721912]",100.0,"[-0.021166250401226765,0.03555511116586166]",100.0,"[-0.04331752804555609,-0.11001614970041511]",4.0,"[0.05903460228749667,-0.03548705438029773]",4.0,"[-0.03207610897073725,0.15544665281994632]",4.0,"[0.056480702367130445,0.043897918064729785]",4.0,"[-0.059274954414273294,-0.012035591335240518]",100.0,"[0.02,0.02]",99.6356,0.0,4.0,4.0,43.0,1.0,,,,,,,
,,,,,,,6060b2cead1daacd69adb31f,68399d387ba2871b7f95274d,2025-05-30_12h58.05.130,shape_ratio,2024.1.5,Win32,60.24096386,683853e18dae57a2147b65e0,,,,,,,,,,,99.6358,100.1353,,,100.3905,101.3015,left,0.8839,,,,,,,,,0.4,,,,,,100.1353,100.3904,101.3017,"[0.13791237548479254,-0.1281986590071031]",4.0,"[0.1169671303648773,0.1201412441238496]",4.0,"[-0.03496225032554787,-0.04300548034551453]",100.0,"[0.06267682364264267,0.0911140425378897]",100.0,"[-0.028145565598161275,0.1591203654767418]",4.0,"[-0.19659762736179565,0.017801733938120803]",100.0,"[-0.10470475589255807,-0.08389471070605803]",4.0,"[0.009612450961609677,-0.020964135933328628]",4.0,"[0.051178558063791464,0.016341352319060382]",4.0,"[-0.07253156946459177,0.061949476831727]",4.0,"[0.030601329733638986,-0.060608204379855535]",4.0,"[0.0658852501166273,-0.183273121370622]",100.0,"[0.11983949725605293,-0.08797795085036542]",4.0,"[-0.1261525342368935,0.10845064508556641]",4.0,"[0.10529097230281621,-0.040299990685771565]",4.0,"[0.1711713684003862,0.06958240012132157]",4.0,"[-0.0537913497000381,0.11918909982507675]",100.0,"[0.10057325912183669,-0.15234330610031505]",100.0,"[0.1619322612737884,-0.06842549158962968]",4.0,"[0.1014889478154555,0.0021907357373630535]",4.0,"[-0.07204757562183989,0.15855885973390976]",100.0,"[0.013659601762665096,-0.11793149150742226]",4.0,"[0.013877443758332862,0.06902223798017733]",4.0,"[-0.11925768152473407,-0.1298064931638269]",100.0,"[0.04097546389074208,-0.15196524584178764]",4.0,"[0.11710337467494278,0.06589005147456643]",100.0,"[-0.019426886864692017,-0.15388499403707828]",100.0,"[-0.15713002915253643,0.0251866524698675]",100.0,"[-0.1578642052782352,-0.045348657450823296]",4.0,"[0.026312652365706218,0.11520940412839858]",100.0,"[0.010421353335909914,-0.18157789494061075]",4.0,"[-0.06252097942088035,-0.15756996467856954]",100.0,"[0.02,0.02]",102.4003,0.0,5.0,5.0,161.0,1.0,,,,,,,
,,,,,,,6060b2cead1daacd69adb31f,68399d387ba2871b7f95274d,2025-05-30_12h58.05.130,shape_ratio,2024.1.5,Win32,60.24096386,683853e18dae57a2147b65e0,,,,,,,,,,,102.4015,102.9,,,103.1498,103.9495,left,0.7853,,,,,,,,,0.1,,,,,,102.9,103.1498,103.9497,"[-0.02339771117462293,-0.020926433158285702]",4.0,"[0.10120174244818961,0.006852050323966088]",4.0,"[0.13310179331783326,-0.12039981482636983]",4.0,"[0.07806476921270908,0.07867119456012943]",4.0,"[0.12224165312348499,-0.03797592964145538]",4.0,"[-0.05201390352976688,-0.08033380990413597]",4.0,"[-0.17752987431451647,-0.025086409655985156]",4.0,"[-0.08312256700438525,-0.05424845055782642]",4.0,"[0.06178015206585578,-0.1345768650733337]",4.0,"[-0.12058371567612879,-0.028147755470874624]",100.0,"[0.04440183490287626,0.026616806125828247]",4.0,"[0.04480535089571562,0.10698541860970723]",4.0,"[-0.1276797583929846,-0.08189009245792188]",4.0,"[0.11659699742300358,0.14756740186379996]",4.0,"[-0.004531741732813128,-0.17175587945932352]",4.0,"[0.019263446722022737,-0.08550079333249576]",4.0,"[-0.07888033279233107,-0.12312122711416307]",4.0,"[-0.008449200050088063,0.1092184985590013]",4.0,"[0.14825219636922238,0.04482970984171315]",4.0,"[-0.03176923989074481,0.17569079171093774]",4.0,"[-0.0993808872355576,0.08607276722155267]",4.0,"[-0.13992320178460474,0.10625907045630412]",4.0,"[0.014857763537704103,0.19648953267871236]",4.0,"[0.040545294283655726,-0.17458598127885044]",4.0,"[0.08176172896602787,-0.08564997008066637]",4.0,"[-0.07888034567611547,0.01867825577426044]",4.0,"[-0.12698776629660438,-0.14436275837425347]",4.0,"[0.0759739419536562,0.165686615497323]",4.0,"[0.12852479789407517,-0.07831093189332697]",4.0,"[-0.017493176102753798,0.032947071544656883]",100.0,"[0.0579653687473132,-0.04786885823199767]",4.0,"[-0.17985008069683028,0.0722763648241304]",100.0,"[0.02,0.02]",105.0485,0.0,6.0,6.0,186.0,1.0,,,,,,,
,,,,,,,6060b2cead1daacd69adb31f,68399d387ba2871b7f95274d,2025-05-30_12h58.05.130,shape_ratio,2024.1.5,Win32,60.24096386,683853e18dae57a2147b65e0,,,,,,,,,,,105.0497,105.5476,,,105.7974,106.2151,right,0.3943,,,,,,,,,0.55,,,,,,105.5477,105.7974,106.2153,"[-0.0604090195533766,0.10958207042725149]",4.0,"[0.06077309448508073,-0.11351292003192738]",4.0,"[-0.01238469353449524,-0.08327295479543671]",4.0,"[-0.024648658500362283,0.196823786457561]",100.0,"[0.17929921634905605,-0.01871428148579797]",100.0,"[-0.09411434009918589,-0.00013416678539931965]",100.0,"[-0.025476693737173324,-0.17825491085792605]",4.0,"[-0.04113477745125985,-0.05317069526052653]",100.0,"[-0.07155385717494574,0.03436177027587789]",100.0,"[0.06276850238776911,0.043164870566035476]",100.0,"[0.13587058032430685,-0.08429053119214268]",100.0,"[0.18183643897123472,-0.07274933468187841]",100.0,"[0.06390511715296042,0.12285595519033114]",4.0,"[-0.1400059511317843,0.045071293468586474]",100.0,"[-0.02184711850158079,0.133714109913851]",100.0,"[-0.1606099647386056,0.09398346745695092]",100.0,"[0.0441297091794472,0.005862141891330567]",100.0,"[-0.18388187364484682,-0.020945561886121605]",100.0,"[-0.07440316409251067,0.15052642528608096]",4.0,"[0.12300891524738418,0.1413730950701313]",100.0,"[-0.1207688987527335,0.1407914683166657]",4.0,"[0.1288558610186178,-0.039429115480680434]",4.0,"[-0.13941554243530682,-0.12117877048550808]",4.0,"[0.16106849755454422,0.10309340751242235]",100.0,"[0.14311984400318015,-0.13391534707420677]",4.0,"[0.012557370230788461,0.10476799564430367]",100.0,"[0.1118095476673261,-0.1649682777595453]",4.0,"[-0.011768713083296689,-0.13951566038024393]",4.0,"[-0.10919703013092197,-0.05623901174684158]",100.0,"[-0.08626002289532547,-0.15609828896418634]",100.0,"[0.022760902273003748,-0.05299198053142436]",4.0,"[-0.19473968736378192,0.04500517950707227]",4.0,"[0.02,0.02]",107.313,0.0,7.0,7.0,80.0,1.0,,,,,,,
,,,,,,,6060b2cead1daacd69adb31f,68399d387ba2871b7f95274d,2025-05-30_12h58.05.130,shape_ratio,2024.1.5,Win32,60.24096386,683853e18dae57a2147b65e0,,,,,,,,,,,107.3132,107.8128,,,108.0632,108.6957,right,0.6024,,,,,,,,,0.5,,,,,,107.8128,108.0631,108.6959,"[0.1839747988207683,0.011949968623763886]",4.0,"[0.1595538276091626,-0.09921986698181999]",100.0,"[0.1169618404513139,0.023639395869501523]",4.0,"[-0.07551857148118654,0.025273660002945716]",4.0,"[0.025990576338464227,0.05408170920823324]",100.0,"[-0.1370159618405559,0.09988799187084443]",100.0,"[-0.1918745195741199,0.0021236524283833155]",4.0,"[-0.013400284735706203,-0.17273147483512302]",4.0,"[0.02914014104570503,-0.01063877454411797]",100.0,"[0.08517773204777367,-0.168574767844761]",100.0,"[-0.15354477732321212,-0.08243913332366982]",4.0,"[0.12974817701452665,0.10989020165698075]",100.0,"[-0.09307283539339954,-0.08754036747746076]",100.0,"[0.06712751965385101,0.10907344421579802]",100.0,"[0.06616333807836236,0.16547716766129092]",100.0,"[-0.07504783305959327,-0.18529278298541824]",100.0,"[-0.1591159053992045,-0.03219203922452022]",100.0,"[-0.011320398562693908,0.09478014875310264]",100.0,"[-0.07214039365028511,-0.04733215392961662]",4.0,"[0.018562272096692412,-0.09297074881811575]",100.0,"[0.07674071009995721,-0.019843479423168848]",4.0,"[0.14101525129112585,-0.008621047311861012]",4.0,"[-0.12338845387757284,-0.1573286388561959]",4.0,"[-0.018330233891006596,-0.015214380525299062]",100.0,"[0.09643635758124561,-0.08333267337625178]",4.0,"[-0.053130486919921165,0.1506584954998582]",4.0,"[0.025244446146621944,-0.1387985954553382]",100.0,"[-0.05970710282429788,-0.1138237578465891]",4.0,"[-0.1269766369370364,0.14942121820330695]",4.0,"[0.1582295995996022,0.07103237624807618]",4.0,"[0.11900746389006013,-0.048104545074307045]",100.0,"[-0.16804379031727004,0.061254210965258196]",4.0,"[0.02,0.02]",109.7946,0.0,8.0,8.0,96.0,1.0,,,,,,,
,,,,,,,6060b2cead1daacd69adb31f,68399d387ba2871b7f95274d,2025-05-30_12h58.05.130,shape_ratio,2024.1.5,Win32,60.24096386,683853e18dae57a2147b65e0,,,,,,,,,,,109.7959,110.2941,,,110.5454,111.0097,right,0.4336,,,,,,,,,0.6,,,,,,110.2941,110.5453,111.0097,"[-0.05854648989324574,-0.09875996116677871]",4.0,"[0.14848280388210708,-0.08256638898235363]",100.0,"[-0.032121500226331444,-0.15900626476962015]",4.0,"[-0.07443197338158933,0.1793320942740673]",100.0,"[0.0898429928997759,-0.10601197417688178]",100.0,"[0.17260998303905334,-0.020569855726094193]",100.0,"[0.03769725377978978,0.08079195287233695]",4.0,"[-0.004111486123275937,0.04787661665651237]",100.0,"[-0.11987412867755204,0.03758543248937759]",100.0,"[-0.17707684045482047,0.09193130314935664]",100.0,"[-0.06292425941446093,0.028235298718950797]",100.0,"[-0.0824245065304307,-0.06227449677573923]",4.0,"[0.10883681496021531,0.14993635457742077]",100.0,"[0.0021695430603776485,-0.11402423313226692]",4.0,"[0.1229914501887602,0.03867284804248334]",4.0,"[-0.10603580525280211,-0.12513936181121757]",4.0,"[-0.031162197282340653,0.1807982305959619]",100.0,"[-0.12891594851244384,-0.04315083238730331]",100.0,"[0.07637845411246494,0.001805932687059478]",100.0,"[0.07734137516698786,-0.17055278678146182]",100.0,"[-0.0163306370285615,-0.014016362711508933]",100.0,"[0.09285750833060977,-0.04998731462672246]",100.0,"[-0.07407539411584921,-0.012563439593084452]",100.0,"[0.09442657859460145,0.07436043170965757]",4.0,"[-0.028874515780111885,0.08964593743313014]",4.0,"[0.17848251556768296,0.04282437364094986]",100.0,"[0.16032102599039064,0.1184734880421103]",4.0,"[-0.07626683665185995,0.11254909199918506]",100.0,"[0.0224483381670099,-0.18039637234339764]",100.0,"[-0.12845929829076455,-0.0914322300576763]",4.0,"[0.036762551544253015,-0.01725735670636256]",4.0,"[-0.13525832888008343,0.10340624101257218]",4.0,"[0.02,0.02]",112.1092,0.0,9.0,9.0,57.0,1.0,,,,,,,
,,,,,,,6060b2cead1daacd69adb31f,68399d387ba2871b7f95274d,2025-05-30_12h58.05.130,shape_ratio,2024.1.5,Win32,60.24096386,683853e18dae57a2147b65e0,,,,,,,,,,,112.1102,112.6087,,,112.859,113.3589,right,0.4691,,,,,,,,,0.6,,,,,,112.6087,112.8588,113.3591,"[0.009915833978329744,0.14476044873073804]",4.0,"[-0.058407334790530695,-0.19047684867664672]",4.0,"[-0.051760319906497564,0.15335875564542675]",4.0,"[0.14661528767183005,-0.11056486855842605]",4.0,"[0.04441344560469911,-0.05246661374142802]",4.0,"[-0.08861327379583864,-0.08513139526120302]",4.0,"[0.10214311637924028,0.03793456232781812]",4.0,"[-0.017876526718832626,0.07449708312531081]",4.0,"[-0.08454454103431185,-0.03781922618545239]",4.0,"[-0.014498594371055275,0.0008804735630260266]",100.0,"[0.07067592557119211,-0.004373761383136163]",100.0,"[0.07473387985144403,0.10611339712889217]",100.0,"[0.1924713032469893,-0.0261632587144489]",100.0,"[-0.11659435875256016,0.029892675435340396]",100.0,"[-0.09771451584823199,-0.1435333050211779]",4.0,"[-0.11846524545717943,0.0930491836739594]",100.0,"[0.07078517623723342,0.17562078206286272]",4.0,"[-0.07413518415094252,0.05612533009660543]",100.0,"[-0.14193882849916875,-0.041146675568286835]",100.0,"[0.17419557859035364,-0.07980266547836225]",100.0,"[0.028377729506394292,0.028210264357496018]",100.0,"[-0.14827529585842353,0.1199978997280244]",100.0,"[-0.03065372270220016,-0.08609444480839798]",100.0,"[0.015886747784611997,-0.1565620283471153]",100.0,"[0.12204952707685,0.10874962261813106]",100.0,"[-0.16863230405230137,0.04136592548199947]",4.0,"[-0.03175442696457125,-0.045658736786590756]",100.0,"[-0.1919374788539859,0.0006397018628682004]",100.0,"[0.07140347970924894,-0.1736357039265085]",100.0,"[0.11199619840476427,-0.07121740576243825]",100.0,"[-0.022969559584599047,-0.12677968731340475]",100.0,"[0.16924352680398547,0.056991443447259656]",4.0,"[0.02,0.02]",114.4577,0.0,10.0,10.0,38.0,1.0,,,,,,,
,,,,,,,6060b2cead1daacd69adb31f,68399d387ba2871b7f95274d,2025-05-30_12h58.05.130,shape_ratio,2024.1.5,Win32,60.24096386,683853e18dae57a2147b65e0,,,,,,,,,,,114.4591,114.9564,,,115.2064,115.5732,right,0.3338,,,,,,,,,0.9,,,,,,114.9564,115.2063,115.5733,"[-0.022478091469689095,-0.11129329635633077]",100.0,"[-0.03463427156498387,-0.03797884740227912]",100.0,"[-0.07857116532110942,-0.052423255760857344]",100.0,"[0.11197738868917823,0.1037841274518095]",100.0,"[0.12579677249696974,-0.11735533328422335]",100.0,"[0.035844498089842095,0.05189344612589119]",100.0,"[-0.02676492664522873,0.049379567358410245]",100.0,"[-0.12098947688275691,-0.04391518918502463]",100.0,"[-0.08321213186153832,0.08791699876452581]",100.0,"[-0.1141847553781878,-0.1485187938509224]",4.0,"[-0.03707653380655034,0.13633236567487153]",100.0,"[-0.1848433015932359,0.04487062438311641]",100.0,"[-0.027634692182524328,0.09679996432653673]",100.0,"[-0.15197016727252494,0.12675315423254138]",100.0,"[-0.06574648218691348,-0.09800097466870152]",100.0,"[0.03646235057250266,-0.06829883851652772]",100.0,"[0.1153833648648112,-0.050116843498999857]",4.0,"[-0.013645471172929241,-0.17824112355482843]",100.0,"[0.04810359422916373,-0.12118618591679899]",100.0,"[0.014487852839419271,-0.008868149673487773]",100.0,"[-0.1573480625674308,-0.07119166906713444]",100.0,"[0.06325867581994381,0.08866978984574003]",100.0,"[0.13930858630727946,0.01184238118418168]",100.0,"[-0.05625605573920372,-0.17894513042262253]",100.0,"[0.12247853023966032,-0.15738379587176843]",4.0,"[-0.12215477173026029,0.006654881139499137]",100.0,"[0.160838861940342,0.08744075799782983]",100.0,"[-0.1085147357779692,0.04523360084255166]",100.0,"[-0.17276190504839262,0.09072197738927368]",100.0,"[0.011587836292634246,0.16969460241923345]",100.0,"[0.18698057396217496,-0.06718402997370258]",100.0,"[0.03311749058214606,-0.17728812927312543]",100.0,"[0.02,0.02]",116.6716,0.0,11.0,11.0,9.0,1.0,,,,,,,
,,,,,,,6060b2cead1daacd69adb31f,68399d387ba2871b7f95274d,2025-05-30_12h58.05.130,shape_ratio,2024.1.5,Win32,60.24096386,683853e18dae57a2147b65e0,,,,,,,,,,,116.6718,117.1715,,,117.4218,118.337,left,0.8904,,,,,,,,,0.1,,,,,,117.1715,117.4217,118.337,"[0.07774782093391644,-0.07512318103867364]",4.0,"[0.10502552419871101,0.01984253834245949]",4.0,"[-0.09741981280232337,0.08731661737685047]",4.0,"[-0.09311413937423513,-0.0248794104287631]",4.0,"[-0.04447636493337926,0.06005870309333828]",4.0,"[0.12751672241881065,-0.05638927487038852]",4.0,"[0.1695074463313446,0.08885606160335378]",4.0,"[0.07091958163154703,-0.03515319565836327]",100.0,"[0.11526528728378922,-0.15604909465774386]",4.0,"[0.1307753658158771,0.07049533802006677]",4.0,"[0.1327731572819317,-0.11151911570725866]",4.0,"[-0.05286363966595484,-0.18451377170147637]",4.0,"[-0.1634816090157404,-0.020759582457158123]",4.0,"[0.10567938070615682,0.12021487003087603]",4.0,"[0.18372022874606533,-0.050241961860577444]",4.0,"[0.05279212010095141,0.014153731612371325]",4.0,"[0.017256853349828325,0.15393623062045755]",4.0,"[-0.05507364186058672,-0.048293314566686694]",4.0,"[-0.006288246327453276,-0.04669377467257708]",4.0,"[-0.040815775200683954,0.18653924585095086]",4.0,"[0.05530614079418618,-0.18325605924085353]",100.0,"[-0.0739197833486339,0.1372100691640949]",4.0,"[-0.13595394314686748,0.13445374717059436]",4.0,"[0.011817600301725377,0.09135346350755619]",100.0,"[-0.11864371644419278,-0.1273460479057241]",4.0,"[-0.08501494297676315,-0.08339385459320876]",4.0,"[0.1459424772145573,-0.015369448799855882]",4.0,"[-0.16867991056110554,-0.07335825703326299]",4.0,"[0.07586154847328455,0.18286313172490365]",4.0,"[0.18179069694653593,0.030320911928641104]",4.0,"[-0.04753909414678126,-0.003262191036051022]",4.0,"[0.005087690316802577,-0.10008050557137922]",4.0,"[0.02,0.02]",119.4361,0.0,12.0,12.0,190.0,1.0,,,,,,,
,,,,,,,6060b2cead1daacd69adb31f,68399d387ba2871b7f95274d,2025-05-30_12h58.05.130,shape_ratio,2024.1.5,Win32,60.24096386,683853e18dae57a2147b65e0,,,,,,,,,,,119.4371,119.9355,,,120.186,121.218,left,1.0058,,,,,,,,,0.5,,,,,,119.9356,120.1858,121.218,"[0.04680105680165894,-0.06716089909724002]",4.0,"[0.014026204534706687,0.09795230032558998]",100.0,"[-0.06742958656352627,-0.0544461750935455]",100.0,"[-0.007322793544697665,-0.0882993968672041]",4.0,"[-0.010720310138080402,0.053601054392615505]",100.0,"[0.1673198343600258,-0.0023289357102895675]",4.0,"[-0.07855325015128865,0.05552546238416854]",100.0,"[0.129543261445131,-0.13818283795966668]",100.0,"[0.06905091374257367,0.04286998026071096]",100.0,"[-0.11496887450164808,0.08795219784910073]",4.0,"[-0.07108463203632694,-0.13915488557399128]",100.0,"[0.042988680813405185,-0.15023826733877452]",4.0,"[-0.04227558567770643,0.09926433323073992]",100.0,"[0.04834842115819166,0.15511882674886024]",4.0,"[-0.01809778162603337,-0.01913177493032531]",4.0,"[-0.09002098164048698,-0.02074733802778467]",4.0,"[0.17039947865908361,-0.10199363190020513]",4.0,"[-0.16645292271728201,-0.06935635142152193]",100.0,"[-0.048263509836214316,0.15529813156787362]",4.0,"[-0.17008400088059178,0.013068163084516131]",100.0,"[0.11056271304443417,0.0728332050145838]",100.0,"[0.11430566066060797,0.13082801801576865]",4.0,"[-0.0005705847830235871,0.15040383279176484]",4.0,"[-0.1742636858125368,0.07049168778644434]",4.0,"[0.005341384492994465,-0.18852974967816624]",100.0,"[-0.13055660220902632,-0.011009241189457312]",100.0,"[0.08129177127469982,-0.030383157953221704]",4.0,"[0.16027355813470942,0.11151524966045995]",4.0,"[0.1123294060146392,0.031893857903650194]",100.0,"[-0.1170042968171185,-0.10090894946289267]",4.0,"[0.11937048989472605,-0.05590364902409969]",100.0,"[-0.14170513820185274,0.11822825867604944]",100.0,"[0.02,0.02]",122.317,0.0,13.0,13.0,107.0,1.0,,,,,,,
,,,,,,,6060b2cead1daacd69adb31f,68399d387ba2871b7f95274d,2025-05-30_12h58.05.130,shape_ratio,2024.1.5,Win32,60.24096386,683853e18dae57a2147b65e0,,,,,,,,,,,122.3181,122.8166,,,123.0733,124.0323,left,0.9339,,,,,,,,,0.4,,,,,,122.8166,123.0733,124.0323,"[-0.012380573341403295,-0.012052200157144415]",100.0,"[0.1130253236142018,0.12444005315566392]",100.0,"[-0.17682002648978148,-0.07396557756695747]",4.0,"[0.08532155299941155,-0.11362851496961739]",4.0,"[0.0687352394930167,0.032889291100361054]",100.0,"[0.13160490872088268,-0.046810567199691774]",100.0,"[0.17918542324160464,0.043733168183495603]",100.0,"[-0.10343965390549499,-0.07860124035854041]",4.0,"[0.06550558266475888,-0.01272942756024378]",4.0,"[-0.14596551772559155,0.014462122768137216]",100.0,"[-0.0953680123191467,0.12246697982229525]",100.0,"[-0.03713071559123479,-0.08677181093100214]",100.0,"[-0.13905500256578768,-0.03801852850152033]",4.0,"[0.0455579122812623,0.09346686507827998]",100.0,"[-0.07423914650077611,-0.1818551398952155]",4.0,"[-0.04890553818762256,0.10895311869880553]",4.0,"[0.11200409431062493,0.006731749114160227]",4.0,"[-0.09053101539580921,-0.006637754360990301]",100.0,"[-0.04204183267559617,-0.13516151207024085]",4.0,"[-0.06749201230099862,0.050008431270159165]",4.0,"[0.008556116290882643,-0.1146417510304889]",4.0,"[-0.16507706430034963,-0.11272514973118974]",100.0,"[0.07077193627773097,0.14035325800556242]",4.0,"[-0.008145885978323096,-0.1940126363680655]",4.0,"[0.16969636621844808,0.09573402505028401]",4.0,"[-0.06401933871596681,0.1647649598385119]",4.0,"[-0.08107788639907088,-0.11600641609406187]",4.0,"[-0.10737897750180661,0.07333369099316529]",100.0,"[0.1791799353387297,-0.04182875610040667]",4.0,"[-0.018174120806880405,0.05908724665029779]",4.0,"[0.09278672762435546,-0.16733071485408607]",100.0,"[0.14059993834731088,-0.10053950621514139]",4.0,"[0.02,0.02]",125.1324,0.0,14.0,14.0,159.0,1.0,,,,,,,
,,,,,,,6060b2cead1daacd69adb31f,68399d387ba2871b7f95274d,2025-05-30_12h58.05.130,shape_ratio,2024.1.5,Win32,60.24096386,683853e18dae57a2147b65e0,,,,,,,,,,,125.1346,125.6312,,,125.8813,126.547,right,0.6344,,,,,,,,,0.55,,,,,,125.6312,125.8813,126.547,"[0.1607547695560943,-0.11009845661036645]",100.0,"[-0.17069278473118227,0.06826881286845261]",100.0,"[-0.14553677432146547,-0.11108104965837952]",4.0,"[-0.015144059182277186,0.02454201551260504]",4.0,"[0.1193864756702328,0.058556384894343755]",100.0,"[-0.060783261242962176,-0.10108592820842079]",100.0,"[0.1078854023169027,-0.11774563096282112]",4.0,"[0.07253244259747349,0.1050168860558686]",100.0,"[0.06976505936934864,0.16043456650835813]",100.0,"[0.10515715981168523,-0.018394149460557216]",4.0,"[-0.09644613123121655,0.12504636946069214]",4.0,"[0.049422446238267685,-0.07112481812888027]",4.0,"[0.06860892506924225,-0.16555810672568883]",4.0,"[-0.15403107893779497,-0.008588804063386765]",4.0,"[-0.034214174476637396,-0.021777607597439633]",4.0,"[-0.0075004551577965,0.19500110066975115]",100.0,"[0.04102904993439889,-0.01437302174589959]",4.0,"[0.015354166985789234,-0.1748418806530166]",100.0,"[-0.09913361615887492,-0.03869755446306661]",100.0,"[0.18879647467645197,0.054595335821480614]",100.0,"[0.13889599389717114,0.13616013196538113]",100.0,"[-0.10059340907058607,0.030104306390272645]",100.0,"[0.01424391956979098,0.1548750185730706]",100.0,"[-0.012160443784642778,0.09097366812953182]",100.0,"[-0.07769070054536913,-0.142482572661871]",4.0,"[0.06490967378243309,-0.11769364088893086]",100.0,"[0.18015240795710466,-0.023199518974969625]",4.0,"[-0.04973342422276892,0.059291669050700636]",4.0,"[-0.05601471549043645,-0.05535826790059672]",100.0,"[-0.1404506244816973,0.03434785617433488]",4.0,"[0.05667278856241911,0.06377746343618126]",100.0,"[-0.08406959129381672,0.18082710751249698]",100.0,"[0.02,0.02]",127.6465,0.0,15.0,15.0,63.0,1.0,,,,,,,
,,,,,,,6060b2cead1daacd69adb31f,68399d387ba2871b7f95274d,2025-05-30_12h58.05.130,shape_ratio,2024.1.5,Win32,60.24096386,683853e18dae57a2147b65e0,,,,,,,,,,,127.6478,128.1462,,,128.3966,129.4452,left,1.0387,,,,,,,,,0.45,,,,,,128.1462,128.3966,129.4453,"[0.19860971064192676,-0.004603092664105017]",4.0,"[-0.07148769602906133,-0.08833877556921263]",4.0,"[0.03799364739808167,0.17283050908282396]",4.0,"[-0.06683825127442689,0.16499105986908066]",100.0,"[-0.007698062018991477,-0.004317778043217062]",4.0,"[-0.04730744737369779,-0.16974064903045985]",4.0,"[0.03138923225111893,-0.0843675281927426]",4.0,"[-0.012815844093164984,0.11734120350280997]",100.0,"[-0.06016744302125328,0.054923926295340236]",4.0,"[-0.051493653313805454,0.006989507025526364]",4.0,"[-0.01912124426706234,-0.11905278541389355]",4.0,"[0.15726880131381568,-0.08505493067972837]",4.0,"[-0.131441839123801,-0.03482386325791288]",4.0,"[0.059395339677759625,0.05928366612849509]",4.0,"[0.1262924458683976,0.14637301297901817]",100.0,"[-0.13115247098459062,-0.12384214338294704]",100.0,"[0.13253393593581175,0.08502195204357492]",100.0,"[0.047805434768111305,-0.12268507347706846]",4.0,"[-0.022911483816917034,0.16167678609150576]",4.0,"[-0.1473373285178008,0.044970505360919365]",100.0,"[0.11574184770126424,0.03640640380441804]",100.0,"[-0.012724172964762392,0.07275179592937027]",100.0,"[0.1937388318991185,-0.04454381470958229]",4.0,"[0.15327391246252128,-0.04503582447853858]",100.0,"[0.04649082231823862,0.020199239830702122]",4.0,"[-0.10947098245670561,0.08554149337013893]",4.0,"[0.10379756466791566,-0.11481918197043647]",100.0,"[-0.09158182361800984,-0.13961244253853286]",100.0,"[0.024146403079964223,-0.044490062031626726]",4.0,"[-0.16275048153449934,-0.006173656123849077]",100.0,"[-0.14651230160117668,0.12068928437333147]",100.0,"[0.08455500935388711,-0.01375276870295408]",100.0,"[0.02,0.02]",130.5439,0.0,16.0,16.0,141.0,1.0,,,,,,,
,,,,,,,6060b2cead1daacd69adb31f,68399d387ba2871b7f95274d,2025-05-30_12h58.05.130,shape_ratio,2024.1.5,Win32,60.24096386,683853e18dae57a2147b65e0,,,,,,,,,,,130.5441,131.0436,,,131.295,132.2598,right,0.947,,,,,,,,,0.5,,,,,,131.0436,131.295,132.2598,"[-0.03258944781988217,0.09706830833690268]",100.0,"[-0.15140174511179522,-0.04904008820246984]",4.0,"[-0.01405540186031276,-0.03966886325010485]",100.0,"[0.08846575155724196,0.01715941589232411]",4.0,"[0.09497516496504761,-0.03492226446285053]",4.0,"[0.08219927172827866,-0.17000317101038306]",4.0,"[-0.06556152230918165,-0.02201732108194648]",100.0,"[0.16411968729975693,0.07045639482017597]",4.0,"[0.024346660154687984,-0.17883679633434418]",100.0,"[-0.06854228297857436,-0.10350568402779103]",100.0,"[0.12582694398836403,-0.06331750704433774]",100.0,"[-0.15195851675942226,0.1090410125925038]",100.0,"[-0.05383555337969345,-0.1764429653113383]",4.0,"[-0.16973738987453663,-0.005690875351228816]",4.0,"[0.02363948120828485,0.17770758466270836]",4.0,"[0.08900071795353974,-0.12531408522664453]",100.0,"[0.11906934554551923,0.11712615998289638]",4.0,"[0.013636096052415156,0.058598698888502394]",4.0,"[0.1584038716637968,0.011528498658296164]",4.0,"[-0.14371067743330826,-0.13459999938277356]",100.0,"[-0.11856408172162053,-0.004996282467396902]",4.0,"[0.17525835161190154,-0.03426976157955922]",100.0,"[-0.09721518096080424,-0.07536689649349664]",4.0,"[0.03060453099913643,0.12375352195728911]",4.0,"[0.021190046814755677,-0.06807545597756881]",100.0,"[0.04736597891772197,-0.02698843210250777]",100.0,"[-0.09362210997110053,0.11680518025288533]",4.0,"[-0.02022973747675869,0.16407503727339642]",100.0,"[0.007384599472056754,-0.14199121640170273]",100.0,"[-0.02300216286122482,0.009619905580117256]",4.0,"[0.15316145440519766,-0.10586503681555012]",100.0,"[-0.031188979640487842,0.049802589138513056]",100.0,"[0.02,0.02]",133.3588,0.0,17.0,17.0,98.0,1.0,,,,,,,
,,,,,,,6060b2cead1daacd69adb31f,68399d387ba2871b7f95274d,2025-05-30_12h58.05.130,shape_ratio,2024.1.5,Win32,60.24096386,683853e18dae57a2147b65e0,,,,,,,,,,,133.3596,133.8584,,,134.108,134.5909,right,0.4551,,,,,,,,,0.45,,,,,,133.8584,134.1079,134.591,"[-0.1417494774848382,-0.09361828007075462]",4.0,"[0.07877805861895473,-0.12965727064803487]",4.0,"[0.18223667230764498,0.02005354439961258]",100.0,"[-0.13998262029901673,-0.049781652772521015]",100.0,"[0.1747249185529048,-0.0473754119147325]",100.0,"[-0.09305834019782926,-0.15304581717847848]",4.0,"[-0.1370177375910317,0.1319414718761828]",4.0,"[0.13960498875317937,0.06595456838331086]",100.0,"[0.016286391516567664,0.06310518382005516]",4.0,"[-0.02306479401290185,-0.11188436556813679]",4.0,"[-0.04704346150489541,0.09406013945462159]",100.0,"[-0.011206896044409883,-0.035624005353632804]",4.0,"[0.04285988942317853,-0.10942264473206366]",100.0,"[-0.15617681742472145,-0.008615691667692634]",100.0,"[-0.17033523097347295,0.040798456178740304]",100.0,"[-0.06919415833389925,-0.105382023725201]",4.0,"[0.043138027739636334,-0.06641657427127645]",100.0,"[-0.10998067115401303,0.094788087569988]",100.0,"[0.11569865916975391,0.09929231697288199]",100.0,"[-0.09399556468831075,-0.05284679117807867]",100.0,"[0.04745648337984027,-0.003037154659462195]",4.0,"[-0.08248585284808888,0.16248350157702326]",100.0,"[-0.008952528458313107,0.025064987548865915]",4.0,"[0.06298111598504363,0.10774446540533036]",4.0,"[0.1371343171770081,-0.12318579992719102]",4.0,"[0.1215123078876479,-0.006630089169906322]",4.0,"[-0.019413852179847216,0.12455048150805725]",100.0,"[-0.19260780232229158,-0.027357632453945884]",4.0,"[-0.14987715735491977,0.09117791566112018]",4.0,"[0.04137156958028244,0.19387474338553834]",4.0,"[-0.04725489343386714,0.18150017551484443]",4.0,"[-0.0029184746380043532,-0.15152450978676502]",4.0,"[0.02,0.02]",135.6899,0.0,18.0,18.0,138.0,1.0,,,,,,,
,,,,,,,6060b2cead1daacd69adb31f,68399d387ba2871b7f95274d,2025-05-30_12h58.05.130,shape_ratio,2024.1.5,Win32,60.24096386,683853e18dae57a2147b65e0,,,,,,,,,,,135.691,136.19,,,136.4403,137.0551,right,0.6051,,,,,,,,,0.6,,,,,,136.1902,136.4401,137.0551,"[0.020888860164441813,-0.059882165349782294]",4.0,"[-0.1339045633088845,-0.09668277817073112]",4.0,"[-0.09242109604407063,0.08398972902695635]",4.0,"[-0.0329747500876197,0.0027789361204713257]",4.0,"[-0.08997637779298613,0.04254937506101253]",100.0,"[0.11701164673630454,-0.09278155620300575]",4.0,"[0.07845030678795362,-0.02116274314984998]",100.0,"[-0.13826037093394142,0.021217790111363613]",100.0,"[0.1616782565420858,-0.0920063934029288]",100.0,"[0.19099954011646544,-0.0024213020102756447]",100.0,"[0.13117099334752164,0.03889300985394734]",100.0,"[-0.11341611543026694,-0.16056739591524785]",100.0,"[-0.018853495521952555,0.19198285603474893]",100.0,"[-0.11595326307671128,0.15248532014620564]",4.0,"[0.0014415908249757337,-0.1768727052938481]",4.0,"[0.12610318445526736,0.11973418766486262]",100.0,"[-0.0376819299065918,-0.13890340740299503]",4.0,"[0.16673842191171673,-0.03587961513773059]",100.0,"[0.10001269594706218,0.16186068776162274]",4.0,"[0.06468986080752209,-0.08538417786152493]",4.0,"[-0.07169120156205704,-0.021620716329013752]",4.0,"[-0.13243883222154906,0.09852930892426935]",100.0,"[0.0907967248919082,0.0475709158165054]",4.0,"[-0.014679313801161496,0.046130494138078]",100.0,"[-0.052493488709952074,0.16283796559437205]",100.0,"[0.17329948276165086,0.06450079766247817]",100.0,"[0.03469734789648845,0.018145075803723477]",100.0,"[-0.02455956929194295,-0.08851922949798081]",100.0,"[-0.16711805628379733,0.07110870359418378]",100.0,"[0.038222250474533266,-0.11755438681591394]",100.0,"[0.01168571770690509,0.1372329859188857]",4.0,"[-0.057519404283149035,0.12252355803072743]",100.0,"[0.02,0.02]",138.1547,0.0,19.0,19.0,46.0,1.0,,,,,,,
,,,,,,,6060b2cead1daacd69adb31f,68399d387ba2871b7f95274d,2025-05-30_12h58.05.130,shape_ratio,2024.1.5,Win32,60.24096386,683853e18dae57a2147b65e0,,,,,,,,,,,138.1562,138.6542,,,138.9053,139.271,right,0.3404,,,,,,,,,0.55,,,,,,138.6544,138.9052,139.2711,"[0.040570773083008556,0.18525850212743206]",100.0,"[0.038839986653964015,-0.001752544330649297]",4.0,"[0.17910133367442088,0.07673989467930144]",100.0,"[0.03899010452017426,0.059925132255129715]",100.0,"[0.09026950524766837,-0.041666408793798446]",4.0,"[0.08428884029720936,0.16250160826175006]",4.0,"[0.05191234028171657,-0.10461139187772574]",4.0,"[-0.014853482848920933,-0.012589120732343044]",4.0,"[0.11380372732892127,0.04637458550562304]",100.0,"[0.11120911924390901,-0.09224383298367654]",100.0,"[-0.021312792272290944,-0.1053011293304648]",100.0,"[-0.13703285323086242,0.1111421786367982]",100.0,"[0.18569643498747984,0.008051592046862333]",4.0,"[-0.010024810238860128,0.13800325956357326]",100.0,"[0.034218688944216716,-0.14429962070741115]",4.0,"[-0.19441056289826097,-0.040787580415552895]",100.0,"[0.12643143725656059,0.08895099102291737]",100.0,"[-0.173568300324759,0.08434059794650169]",100.0,"[-0.0336562121402404,-0.06328805114738385]",100.0,"[0.1371600309881288,0.0029371303754130136]",4.0,"[-0.0646193753598588,-0.025337257832877456]",4.0,"[-0.0879443935356432,-0.07342200943429711]",100.0,"[0.12512565814025078,0.13933618150176935]",100.0,"[-0.1433045956155665,-0.11257281541378167]",4.0,"[0.17827910865662475,-0.06893088280491384]",4.0,"[0.07884347711860835,0.012675066011043828]",100.0,"[-0.04641592164979625,-0.1474591829488568]",100.0,"[-0.18883922629915653,0.008260402576894341]",100.0,"[-0.08795733843732144,-0.14948736267264176]",100.0,"[0.0830419954910302,-0.15913572539366758]",4.0,"[-0.04788730354242086,0.17512312184495069]",4.0,"[-0.06582842571045218,-0.11119365836194543]",4.0,"[0.02,0.02]",140.3696,0.0,20.0,20.0,72.0,1.0,,,,,,,
,,,,,,,6060b2cead1daacd69adb31f,68399d387ba2871b7f95274d,2025-05-30_12h58.05.130,shape_ratio,2024.1.5,Win32,60.24096386,683853e18dae57a2147b65e0,,,,,,,,,,,140.3714,140.8698,,,141.1193,141.5854,right,0.4532,,,,,,,,,0.4,,,,,,140.8699,141.1193,141.5854,"[-0.02653058207506394,0.05169236892912706]",100.0,"[0.16813386006816586,-0.05453328149336524]",4.0,"[0.08308303981426537,-0.015430274448561926]",100.0,"[-0.0016424482733042069,-0.06959876923118033]",100.0,"[-0.05670824737517454,-0.0790165547158869]",4.0,"[0.12977473565732636,0.002551404959588384]",4.0,"[0.013099266541812175,-0.12693871644416083]",100.0,"[-0.14021716369705534,0.11704511144081717]",4.0,"[0.10640553104671169,-0.15324890692450627]",100.0,"[0.016684583581417143,0.00004844907405915128]",100.0,"[-0.06681069130311684,-0.13160471287482506]",4.0,"[0.024630400921289864,0.10767079407834114]",4.0,"[0.021003016319546885,0.05393571819238046]",4.0,"[0.039181870372416695,-0.16790709732203885]",100.0,"[-0.17280752729865198,0.018487597477382645]",100.0,"[0.05850779600300581,-0.09363649009245921]",4.0,"[-0.08172873233498613,0.0561903666886858]",100.0,"[-0.053729040868905495,0.15143313970565184]",100.0,"[-0.18134421887819113,-0.06978399876651517]",4.0,"[-0.11449557089486134,-0.11816517427625672]",4.0,"[0.019259347870634855,0.19444922195526357]",4.0,"[-0.031060862853562885,-0.15755815687885677]",100.0,"[0.08976995334798454,0.13018108410719562]",4.0,"[0.11758544336339177,-0.09913909436222823]",100.0,"[0.06654161398613363,0.18025435869108708]",4.0,"[0.10911694130642881,0.06254414787397532]",4.0,"[0.18019399000780012,0.07693467010459301]",4.0,"[-0.0509720664525321,-0.030288639582487852]",4.0,"[0.11103685076294147,-0.05113977646623436]",4.0,"[-0.09513516746221347,0.1538899988973922]",4.0,"[-0.10246020022063884,-0.07577559554542276]",100.0,"[-0.13062636156579083,0.011927896887850035]",4.0,"[0.02,0.02]",142.6837,0.0,21.0,21.0,178.0,1.0,,,,,,,
,,,,,,,6060b2cead1daacd69adb31f,68399d387ba2871b7f95274d,2025-05-30_12h58.05.130,shape_ratio,2024.1.5,Win32,60.24096386,683853e18dae57a2147b65e0,,,,,,,,,,,142.6847,143.1832,,,143.4332,143.6995,right,0.2474,,,,,,,,,0.9,,,,,,143.1833,143.4332,143.6996,"[-0.15569452552213164,-0.05260465184583307]",100.0,"[-0.14185202835925978,0.073723926255495]",100.0,"[0.07167452057095075,0.06028389078951762]",100.0,"[-0.05434151543353777,0.15600935898090917]",100.0,"[-0.05269366764626514,-0.07292773806444719]",100.0,"[0.11822397568471057,-0.10761770329293437]",100.0,"[-0.035423846039810976,-0.18619943261155295]",100.0,"[0.05022774993150944,-0.031193621670008612]",100.0,"[0.10093433141066507,-0.012216543660844926]",100.0,"[-0.0025816874438161913,0.07368424003212494]",100.0,"[-0.0917701072495007,-0.033753964359410644]",100.0,"[0.14202525567882668,-0.041674031780963114]",100.0,"[-0.1986634684822838,0.017843811415039244]",100.0,"[-0.12813041906608824,-0.09611157891963086]",100.0,"[-0.010786144729728248,-0.0726074925472257]",100.0,"[0.03335240482046407,-0.08730028761798721]",4.0,"[-0.06384867087018084,0.06581344943047734]",100.0,"[0.036698643727851275,0.016413656515666068]",100.0,"[-0.030779022584747556,-0.11077974820292259]",4.0,"[0.032066894821962066,0.14736845533630097]",100.0,"[0.168932733077324,0.02831144056126379]",100.0,"[0.04674305616351452,-0.17377738183576555]",100.0,"[-0.010800911883171645,0.12839767119018725]",4.0,"[-0.12839342045277427,0.13205732469432163]",100.0,"[-0.09257166944285788,0.16946135554881284]",100.0,"[0.16133052019041325,0.10041271247117259]",100.0,"[0.013058450263312992,0.18503505280478189]",100.0,"[-0.10328407726790814,-0.15401083394087697]",100.0,"[0.08462411892859614,-0.14852201828760067]",100.0,"[0.18919090801250016,-0.059765679214419686]",100.0,"[-0.002688758020694545,0.02669999164885804]",100.0,"[-0.08085134473074541,-0.10156895781725353]",100.0,"[0.02,0.02]",144.7992,0.0,22.0,22.0,0.0,1.0,,,,,,,
,,,,,,,6060b2cead1daacd69adb31f,68399d387ba2871b7f95274d,2025-05-30_12h58.05.130,shape_ratio,2024.1.5,Win32,60.24096386,683853e18dae57a2147b65e0,,,,,,,,,,,144.7997,145.2981,,,145.5482,145.8311,right,0.2684,,,,,,,,,0.9,,,,,,145.2982,145.5482,145.8312,"[-0.1345161953320906,-0.05615016813932564]",100.0,"[0.023668201063741647,-0.01909036383648499]",100.0,"[0.03336415554230115,0.10004575724361339]",100.0,"[-0.01798369832385688,-0.042053576816637774]",100.0,"[0.11721474740542055,-0.052083813358813145]",4.0,"[0.0187148861939187,-0.10323846862061282]",100.0,"[0.14577812417601227,0.10729070830537049]",100.0,"[-0.07537195987141747,0.10868446992459585]",4.0,"[0.1165377448250934,-0.00839187911548955]",100.0,"[-0.16557506182503248,0.05708539853967265]",100.0,"[-0.08470764945326814,-0.025772281049693646]",100.0,"[-0.060299859251850066,-0.15984085270427256]",100.0,"[0.06447883472781639,-0.01357332269698259]",100.0,"[0.0077900126339502515,-0.19632613048890338]",100.0,"[0.008771132118304109,-0.15129680624176592]",100.0,"[0.07935793960272829,-0.0702738449521026]",100.0,"[0.1760420026613879,0.0020522382325548114]",100.0,"[0.117462849013839,-0.09826998207731537]",100.0,"[-0.03088771595097871,0.08815680352487916]",100.0,"[0.0780579154149398,-0.13169737763288902]",100.0,"[-0.04682413446429934,0.17504529482768208]",100.0,"[0.059895227196885524,0.04159542863992758]",100.0,"[0.010911020044186414,0.1570584245565926]",100.0,"[0.19300000248563742,-0.03445625346894333]",100.0,"[-0.09643733195540988,-0.11339609308412409]",100.0,"[0.14850450281995814,0.05544856399395179]",100.0,"[0.060782465419472624,0.13632518575288127]",100.0,"[-0.004019511649651679,0.04824947835538689]",100.0,"[-0.13517814501515169,0.09927579206258741]",100.0,"[0.08165881678847846,0.09341047873622514]",100.0,"[-0.137842962847217,-0.12093585526255105]",100.0,"[-0.16490611766182742,-0.08707790306959094]",4.0,"[0.02,0.02]",146.9302,0.0,23.0,23.0,13.0,1.0,,,,,,,
,,,,,,,6060b2cead1daacd69adb31f,68399d387ba2871b7f95274d,2025-05-30_12h58.05.130,shape_ratio,2024.1.5,Win32,60.24096386,683853e18dae57a2147b65e0,,,,,,,,,,,146.9307,147.4296,,,147.6796,147.9128,right,0.2205,,,,,,,,,0.9,,,,,,147.4297,147.6796,147.9128,"[0.08983924141137974,0.15440797362892483]",100.0,"[-0.17935411471105495,-0.024066961852873305]",100.0,"[0.16750582731577784,0.012498930654321441]",4.0,"[-0.0665921767204081,0.12007645039361278]",100.0,"[0.11534282062644353,-0.024157786721752603]",100.0,"[0.043861946513974806,0.03356221568145157]",100.0,"[0.017015788438273918,0.07360210578816982]",100.0,"[-0.07651340939847362,-0.16457681134785085]",100.0,"[-0.10266444565688829,0.010152362989034937]",4.0,"[-0.0028892921539579765,0.006555971172616058]",100.0,"[0.015400650192310688,0.14242148078366448]",100.0,"[0.17890633050724128,0.058336402303935074]",100.0,"[0.06761203641157691,0.09533114950439313]",100.0,"[-0.06639623207225222,-0.06403434485672192]",100.0,"[0.1229365277226432,-0.0893610092433489]",100.0,"[-0.10421003151042933,0.07817681721160723]",100.0,"[0.07591990699912246,-0.12787952719039025]",100.0,"[-0.019797426376537305,-0.13929524653314934]",100.0,"[0.0201045947762093,-0.09738286558194714]",100.0,"[0.023674647903320342,-0.19462276827231542]",4.0,"[-0.15567043671866695,0.12098170868852821]",100.0,"[0.13290955406413518,0.04678093466739106]",100.0,"[-0.10833396156753658,-0.04035836312569309]",100.0,"[-0.15051722934093667,-0.09970424586211998]",100.0,"[-0.04871275878044387,0.15787722677215552]",100.0,"[-0.10443693947040583,0.16301905345760723]",100.0,"[0.04362145813317858,-0.04759418307968144]",100.0,"[-0.045160761366549014,0.04909971890511713]",100.0,"[-0.1202809454481396,-0.12995911357635948]",100.0,"[0.09274766255300057,0.05753920991025413]",100.0,"[0.13715928492140217,-0.13852268481995458]",100.0,"[0.12978666725335702,0.10812595506180744]",100.0,"[0.02,0.02]",149.0119,0.0,24.0,24.0,24.0,1.0,,,,,,,
,,,,,,,6060b2cead1daacd69adb31f,68399d387ba2871b7f95274d,2025-05-30_12h58.05.130,shape_ratio,2024.1.5,Win32,60.24096386,683853e18dae57a2147b65e0,,,,,,,,,,,149.0121,149.5119,,,149.7624,150.3273,left,0.5499,,,,,,,,,0.4,,,,,,149.512,149.7623,150.3274,"[0.09053900060197863,0.025595126062848066]",100.0,"[-0.0008181097261607594,-0.006746357591829666]",100.0,"[-0.12050798810084119,0.06590827075136539]",4.0,"[0.055732669286471796,-0.10913138778064961]",4.0,"[-0.04939445940729489,0.002326335839669988]",4.0,"[-0.11752469730726428,-0.10029066626290399]",4.0,"[-0.04106807757825924,-0.11558273084122787]",4.0,"[-0.007699051765368099,0.14145131051102702]",100.0,"[0.16054426622657222,0.01753394232046431]",100.0,"[-0.06456046591506075,-0.18922505774604775]",100.0,"[-0.001554483772259541,-0.13783233732915795]",4.0,"[-0.16071204402334513,-0.0030195078253489557]",4.0,"[-0.07355818664227115,0.1387657374925958]",100.0,"[-0.002752740862288528,-0.09533423719849768]",4.0,"[0.023559430542998624,0.1043045092370571]",100.0,"[0.029370606995020775,0.05301903140894875]",100.0,"[-0.11878313121294948,-0.03687257183886007]",100.0,"[0.032112322858381274,-0.0377580219534788]",4.0,"[-0.03504913112124824,-0.04415623564975084]",4.0,"[0.10444277087461543,-0.10457638450619193]",4.0,"[0.16630851522667967,-0.07206746753163647]",4.0,"[-0.04764211238949228,0.08410114071310622]",4.0,"[0.12370503266124092,0.10070403217203705]",100.0,"[0.055174971496557555,0.16124057923966925]",4.0,"[-0.09042521098299706,0.030460335140990193]",4.0,"[-0.1483511030328256,0.0360296560080431]",4.0,"[0.13935635793451537,-0.02362228699093913]",4.0,"[-0.017229606555586717,0.1926244153910475]",4.0,"[-0.1567984384334973,-0.0525695244480286]",100.0,"[-0.07350088331840213,-0.1410878108449267]",100.0,"[0.18738640442517634,-0.02358534360997979]",100.0,"[0.0802380418327867,0.10650321188318444]",4.0,"[0.02,0.02]",151.4269,0.0,25.0,25.0,152.0,1.0,,,,,,,
,,,,,,,6060b2cead1daacd69adb31f,68399d387ba2871b7f95274d,2025-05-30_12h58.05.130,shape_ratio,2024.1.5,Win32,60.24096386,683853e18dae57a2147b65e0,,,,,,,,,,,151.4274,151.9262,,,152.176,153.1091,left,0.9223,,,,,,,,,0.5,,,,,,151.9262,152.176,153.1093,"[0.07256489239421558,0.017977113817653663]",100.0,"[0.08907881217034389,-0.08580825493539994]",100.0,"[0.05721448824167176,-0.1641536688543177]",4.0,"[-0.101307781827481,0.10936616026311541]",100.0,"[-0.09475454996229817,-0.12532141640608252]",4.0,"[0.08491066575269293,0.09350274306557006]",100.0,"[0.06279349952617434,-0.05086772661542059]",100.0,"[-0.06324226039312232,-0.04340490495426783]",100.0,"[-0.1913706135416882,-0.05325932930972564]",100.0,"[-0.015623260267918517,-0.016596384482926285]",4.0,"[-0.14826789155906495,-0.03631853327008]",100.0,"[0.050508927430679175,0.17434007097090923]",4.0,"[0.13000929480305415,-0.06606897217500662]",4.0,"[0.13345013494435454,0.03340105507875609]",4.0,"[-0.11189687821508647,-0.011691212346224254]",4.0,"[-0.028523237376143512,0.04204976304427872]",100.0,"[-0.1505100083139494,-0.11686518031792381]",4.0,"[-0.015538032040489657,0.12741578249599245]",100.0,"[0.003123539876020501,-0.14360503015653148]",4.0,"[0.13720940906889145,-0.012401069791988871]",100.0,"[0.01708536422678801,-0.07004302135446297]",4.0,"[0.11647032315222026,-0.1337766934847404]",4.0,"[0.19248080051272695,0.0136112394307371]",100.0,"[-0.16449055160189432,0.05820902133983828]",4.0,"[0.18127848720567089,-0.03178100864678379]",100.0,"[0.008635277526530706,-0.1891112087155192]",4.0,"[-0.05469391141167043,0.15542761404672237]",100.0,"[-0.03852026405404041,-0.09493292525138285]",4.0,"[0.1402376192631952,0.07712234370729573]",100.0,"[-0.16373253883664343,0.10524158614372273]",4.0,"[0.05342623347594455,0.12778286712092513]",100.0,"[0.057940187295926926,0.06233964032993745]",4.0,"[0.02,0.02]",154.2076,0.0,26.0,26.0,119.0,1.0,,,,,,,
,,,,,,,6060b2cead1daacd69adb31f,68399d387ba2871b7f95274d,2025-05-30_12h58.05.130,shape_ratio,2024.1.5,Win32,60.24096386,683853e18dae57a2147b65e0,,,,,,,,,,,154.2079,154.7079,,,154.958,155.8569,left,0.8737,,,,,,,,,0.4,,,,,,154.7079,154.9578,155.857,"[-0.13333192270467423,0.11597552850474774]",100.0,"[-0.12588306798635218,-0.045503993566150924]",4.0,"[-0.040857303705722596,0.18015792340552267]",4.0,"[-0.07434590290969337,0.03254965833625454]",100.0,"[-0.11170125174914322,-0.11717427005704839]",100.0,"[-0.1682800262268259,-0.014289480645394672]",100.0,"[0.1161837925099883,0.14117412305813304]",100.0,"[0.07856573974875361,0.0529526512309776]",4.0,"[0.016324066663318874,-0.14136371690446842]",4.0,"[-0.04160312216491838,-0.05936773869548146]",100.0,"[0.11246771205596333,-0.15957086197951634]",4.0,"[0.15381268350100394,-0.11331746785003328]",4.0,"[0.03196127979503466,0.11225116253015639]",4.0,"[0.02375626945537698,-0.0706762208743873]",4.0,"[-0.07906043688345042,0.09947644180237837]",4.0,"[0.15879711841884434,0.07284979796604053]",4.0,"[0.0628560399444273,-0.13923313090522396]",4.0,"[0.12356413942189456,-0.010411941116419828]",100.0,"[0.019677880504603583,0.17825445837391807]",4.0,"[-0.08140354116623412,-0.16709635163335246]",4.0,"[-0.14374014953207717,0.05598683322815805]",4.0,"[0.1425747634853256,-0.063404553006176]",4.0,"[0.09300370265961155,-0.10392350344590988]",4.0,"[-0.18378036466877593,0.05550869907254508]",100.0,"[0.07252666045207645,0.13173575984594124]",100.0,"[0.027749626268113,-0.18836141631509967]",100.0,"[0.18848044463562247,-0.050628688924389584]",100.0,"[-0.04134820282679582,0.06688418592796536]",100.0,"[-0.0040917142659570825,0.04260953718330109]",100.0,"[-0.14794365923160957,-0.08299247977459215]",4.0,"[0.07574315730197799,0.1802448545702177]",4.0,"[0.033012610168064095,0.07194156496125732]",4.0,"[0.02,0.02]",156.9557,0.0,27.0,27.0,179.0,1.0,,,,,,,
,,,,,,,6060b2cead1daacd69adb31f,68399d387ba2871b7f95274d,2025-05-30_12h58.05.130,shape_ratio,2024.1.5,Win32,60.24096386,683853e18dae57a2147b65e0,,,,,,,,,,,156.9572,157.4553,,,157.6935,158.4543,left,0.7424,,,,,,,,,0.45,,,,,,157.4553,157.6935,158.4543,"[-0.08288629828390881,-0.17029080726507098]",4.0,"[-0.18349000139353544,-0.0323052181389425]",100.0,"[0.15822672082912406,-0.09559169441132398]",4.0,"[-0.037356833640316375,-0.11831625645752389]",4.0,"[0.1260713029714264,-0.015092218828255196]",4.0,"[-0.04035393299150776,0.113128021116971]",4.0,"[-0.08120383448108597,-0.07427059679305606]",4.0,"[0.0038187061166732534,0.1905105880121949]",100.0,"[-0.01842067861994237,0.012888030641632783]",4.0,"[-0.044207627556895356,0.19074697058081827]",4.0,"[0.03723961291113837,-0.13145785391462894]",4.0,"[-0.009709093685097087,-0.15801534162885306]",100.0,"[0.18527168879638364,0.03839550042120552]",100.0,"[0.006170995962053106,0.06653654855879519]",4.0,"[0.043933620011691044,0.12963246241556334]",4.0,"[0.16551766307300594,-0.046387029843121284]",4.0,"[0.13677628245123083,0.10554716973780273]",100.0,"[0.12203891879107821,-0.15113246481431145]",100.0,"[0.08683647189734392,-0.11404172504306648]",4.0,"[0.12459924611513278,0.06651292249144573]",4.0,"[-0.11989317367157011,0.028314656821406017]",4.0,"[-0.14441223537428355,0.13107113034427237]",100.0,"[0.07395150463540526,-0.16558355881089948]",100.0,"[0.048005100097528314,-0.04014120916658293]",100.0,"[-0.07137491528391716,0.0038918024498919047]",100.0,"[-0.18358525522730892,0.0723118242455733]",4.0,"[-0.027131250503614902,-0.06744881388749135]",4.0,"[0.0775206122494914,0.08249187695610384]",100.0,"[-0.08871781141496667,0.1358754674122823]",100.0,"[0.02793837936837701,-0.17350489926391738]",100.0,"[-0.18049814905641623,0.015669233888228225]",4.0,"[-0.1211331040553957,-0.14524835780781378]",100.0,"[0.02,0.02]",159.5537,0.0,28.0,28.0,139.0,1.0,,,,,,,
,,,,,,,6060b2cead1daacd69adb31f,68399d387ba2871b7f95274d,2025-05-30_12h58.05.130,shape_ratio,2024.1.5,Win32,60.24096386,683853e18dae57a2147b65e0,,,,,,,,,,,159.5549,160.0534,,,160.305,161.1863,left,0.857,,,,,,,,,0.4,,,,,,160.0534,160.3048,161.1865,"[0.15497165078657135,-0.08041798730624022]",4.0,"[-0.11454281266152835,0.12753867782308048]",4.0,"[-0.07268150533059868,-0.0256466220346253]",4.0,"[-0.025667263607555824,-0.13770555731856826]",100.0,"[-0.0001711315456953194,-0.01899800267570386]",100.0,"[0.09883947437337537,-0.10932810320735419]",4.0,"[-0.12333975495849293,-0.06825839210047194]",4.0,"[-0.14822822533580823,-0.12308291341849341]",4.0,"[-0.17131857526851207,-0.08577742870736403]",4.0,"[0.11608011010292295,0.14187068538795505]",4.0,"[0.036522104363763956,-0.16187114274832493]",4.0,"[0.15199497325633862,-0.009034235853965223]",100.0,"[-0.09472425626337856,0.07542799051022586]",4.0,"[-0.02603084883473969,0.04273381301748685]",100.0,"[0.021147500775411568,0.148917643214288]",100.0,"[0.043600673887174826,-0.09009307009396018]",4.0,"[-0.1918361882524857,0.036294536892774926]",100.0,"[0.083434154062228,0.1045827163764187]",100.0,"[-0.028700867055071404,0.19557532171275674]",4.0,"[-0.15067134384899328,0.02409868030758929]",100.0,"[0.16910820259241213,0.04858781289999927]",4.0,"[-0.0272188407188938,-0.19656725224202873]",100.0,"[0.06238025089442724,0.047425283760970195]",4.0,"[-0.09783128029754928,-0.16801956371547774]",100.0,"[-0.021026395160901826,0.11002085392835823]",4.0,"[0.08732656083753713,-0.1640409724612427]",4.0,"[-0.08166388466767098,0.03277040950294059]",4.0,"[0.059378603482876935,-0.03597682995921954]",4.0,"[0.0770953000711931,0.15697006150466647]",100.0,"[-0.03821950904228336,0.15450564396772462]",100.0,"[-0.02178658687158636,-0.054348391456246786]",4.0,"[0.03193875162602384,0.19031237881181973]",100.0,"[0.02,0.02]",162.2846,0.0,29.0,29.0,172.0,1.0,,,,,,,
,,,,,,,6060b2cead1daacd69adb31f,68399d387ba2871b7f95274d,2025-05-30_12h58.05.130,shape_ratio,2024.1.5,Win32,60.24096386,683853e18dae57a2147b65e0,,,,,,,,,,,162.2862,162.784,,,163.0354,164.2507,left,1.1848,,,,,,,,,0.1,,,,,,162.784,163.0352,164.251,"[-0.1260018013736058,0.1552837603380236]",4.0,"[0.01318430039581485,0.09504325766778686]",4.0,"[-0.026115280592409702,-0.019906188972726172]",4.0,"[-0.1649124563376354,-0.07353320831188076]",4.0,"[0.13448418104986395,0.0410887553823392]",4.0,"[-0.15028599005865695,-0.12053955312943337]",100.0,"[-0.14220944565741933,0.02743959928166382]",4.0,"[0.17032821708969273,-0.09591601925910985]",4.0,"[-0.08321524333571488,-0.008187523825380114]",4.0,"[-0.07902929095370177,0.1322941963655366]",4.0,"[-0.16286603925287532,-0.021290186314498864]",4.0,"[0.12390748111052521,-0.06260286556482055]",4.0,"[-0.05923913121018808,-0.12320535189788334]",4.0,"[0.17718968168166008,0.018920288029989896]",4.0,"[0.04017595144801544,-0.19031426103475244]",4.0,"[-0.029880904196815033,0.030155869695264553]",4.0,"[0.01755304003357237,-0.005429334669546221]",4.0,"[0.09644262225352594,-0.12250998358861685]",4.0,"[-0.18312934694791336,0.03622450355336091]",4.0,"[-0.06946820588859015,0.06506767730930851]",4.0,"[-0.05825227155700939,-0.05222449646641919]",4.0,"[0.07616161004835571,0.04433080171928091]",4.0,"[-0.08248198188259477,-0.16172874964937814]",4.0,"[0.04323607454962649,-0.07694633628747122]",4.0,"[0.1085088802321373,0.12705430206866722]",4.0,"[0.032894523496537494,0.16860940160036766]",4.0,"[0.1881363113785752,-0.053268698931319095]",4.0,"[0.0665062775646836,-0.041359468747328355]",100.0,"[-0.15843977254900649,0.07025505314511642]",100.0,"[0.03063112612478103,-0.11702703098385857]",4.0,"[0.06053841872683511,0.08365704484299427]",4.0,"[-0.03214130763296758,0.18968983326700747]",4.0,"[0.02,0.02]",165.3483,0.0,30.0,30.0,192.0,1.0,,,,,,,
,,,,,,,6060b2cead1daacd69adb31f,68399d387ba2871b7f95274d,2025-05-30_12h58.05.130,shape_ratio,2024.1.5,Win32,60.24096386,683853e18dae57a2147b65e0,,,,,,,,,,,165.349,165.8479,,,166.0981,166.8972,left,0.7838,,,,,,,,,0.45,,,,,,165.848,166.0981,166.8972,"[0.038838047019430964,-0.17641263099602394]",100.0,"[-0.082173283531812,0.15474531488928148]",100.0,"[-0.14147930620320126,-0.05361216889656064]",100.0,"[-0.13563482740733002,0.044384130846366165]",4.0,"[-0.138830063373588,-0.14148766381913605]",4.0,"[-0.08961814651273642,-0.06491925985765754]",4.0,"[0.1703415606950594,-0.041458773024265975]",4.0,"[0.011278697952193552,0.02060900057447018]",4.0,"[-0.020215340312753217,-0.03433418787981294]",4.0,"[-0.11261581238563066,-0.11075875295382957]",100.0,"[-0.008215622497402573,0.10453466902410927]",100.0,"[0.10334439075742094,-0.15466674164465555]",100.0,"[-0.15799305940670108,0.09448871970432507]",4.0,"[0.10633091064275306,0.15455371408103183]",100.0,"[0.09897288688433084,0.020251881100735454]",4.0,"[-0.10834959069286926,-0.007200155623191269]",4.0,"[0.045726652112521284,0.10373494633261683]",4.0,"[0.08788611736378597,-0.05380311736029703]",100.0,"[0.09133261213425861,-0.10310363217009258]",4.0,"[0.13907527614128143,-0.08916242412049516]",100.0,"[-0.0804752286172495,0.10601231515604062]",4.0,"[0.14700965944311833,0.10146899244060052]",100.0,"[-0.051536850249477115,0.002926465257971779]",100.0,"[0.1934554570770006,0.050254048696344936]",4.0,"[0.1301995592207167,-0.04829616253654677]",100.0,"[-0.18255789934654598,-0.026349044948989073]",4.0,"[-0.1703567023666262,-0.09302614393561852]",4.0,"[0.0212090736975447,0.13757823658795296]",4.0,"[0.01082434961755714,0.19097902399502445]",100.0,"[0.06639375107610002,0.05713353838019923]",4.0,"[0.06513309478505411,0.1524833158429871]",4.0,"[-0.007128630358229137,-0.1711797029502606]",100.0,"[0.02,0.02]",167.9962,0.0,31.0,31.0,136.0,1.0,,,,,,,
,,,,,,,6060b2cead1daacd69adb31f,68399d387ba2871b7f95274d,2025-05-30_12h58.05.130,shape_ratio,2024.1.5,Win32,60.24096386,683853e18dae57a2147b65e0,,,,,,,,,,,167.9968,168.496,,,168.7502,169.545,left,0.7682,,,,,,,,,0.55,,,,,,168.4961,168.7501,169.5451,"[0.08684836941565655,-0.11018857989974033]",100.0,"[-0.14653840757319123,0.133422438188902]",100.0,"[-0.08879583496901201,0.05382349586676968]",100.0,"[-0.06573157035427614,-0.044127458630854766]",4.0,"[0.09828637346900128,-0.15116922932518786]",4.0,"[-0.01655979354467967,-0.07994614035176108]",100.0,"[-0.021604041700864357,-0.19863636584443736]",4.0,"[-0.15915617369019466,0.05410613309107124]",4.0,"[0.15774424374718446,0.06465686324887784]",4.0,"[-0.060572299870426324,-0.16352418572027022]",100.0,"[-0.1156393179900901,0.09537035503476465]",4.0,"[0.1412392398229583,-0.09588096558337639]",4.0,"[0.14266276399900546,-0.05476690717693234]",100.0,"[0.05346872956975763,-0.13571311725663995]",100.0,"[0.11825747810598201,0.11644313782593606]",4.0,"[0.05429673182256109,-0.052323103555010964]",100.0,"[-0.11245071697405787,-0.013411219296714957]",100.0,"[0.001194882274452571,-0.019572394574116442]",100.0,"[-0.16896067953070434,-0.09148405429573292]",100.0,"[0.17258268293308687,-0.012821747988271777]",4.0,"[0.14036930353679267,0.018738689003414008]",4.0,"[0.06405338851705575,0.0030985117876045276]",4.0,"[0.04862446944947118,0.09080057181874071]",100.0,"[-0.07299181302043797,-0.08784984944397557]",100.0,"[0.006198577622762619,0.04965463206179895]",100.0,"[0.08211680382610817,0.16071605075766313]",100.0,"[-0.06931985238633018,0.10466609997770505]",100.0,"[0.024218675014761194,0.19431260804534128]",4.0,"[-0.032115970838787866,0.1760598329235906]",100.0,"[0.18303450100296406,-0.06834821599231866]",100.0,"[-0.18367032909611414,-0.03470994008465021]",4.0,"[-0.017694805237580786,0.09133072061060436]",4.0,"[0.02,0.02]",170.6442,0.0,32.0,32.0,88.0,1.0,,,,,,,
,,,,,,,6060b2cead1daacd69adb31f,68399d387ba2871b7f95274d,2025-05-30_12h58.05.130,shape_ratio,2024.1.5,Win32,60.24096386,683853e18dae57a2147b65e0,,,,,,,,,,,170.6445,171.144,,,171.3946,171.9939,right,0.5677,,,,,,,,,0.55,,,,,,171.144,171.3945,171.994,"[0.15942126402507042,-0.02063572161088285]",100.0,"[0.007558445428147599,-0.07496138005681798]",4.0,"[0.05844392309639774,-0.11635183792372417]",100.0,"[0.04467863451836299,-0.05595188624465755]",100.0,"[-0.07981114388406761,0.12229182347469743]",100.0,"[-0.11799784845184433,0.07124490098080581]",100.0,"[0.04927413123173116,0.13997656093753086]",4.0,"[0.05700532330183419,0.010996568863499088]",4.0,"[0.10973230016482509,-0.06137986554567629]",100.0,"[-0.007412982311538043,0.16130380997361843]",4.0,"[0.09859650399577545,-0.16367517114380975]",4.0,"[0.051341818402855885,0.07589330685041688]",4.0,"[-0.04354803696297019,-0.10512999743968329]",100.0,"[-0.09358967933842109,-0.04518798780958739]",4.0,"[-0.10347525243047756,-0.15651949755361724]",100.0,"[-0.1787713735744186,-0.03488589305277356]",4.0,"[0.1913534283389848,0.048197608715741136]",4.0,"[-0.012702800855674549,0.008153876047048477]",100.0,"[0.11507516471173304,-0.0000027785426630625708]",100.0,"[-0.08033750076288852,-0.12161197862755403]",100.0,"[-0.15468122205567106,0.05043471174943627]",4.0,"[-0.16378051459631715,0.0953133007723923]",4.0,"[-0.08419061523922644,0.03167533424157203]",100.0,"[0.10881582037333878,-0.12092240517966575]",100.0,"[-0.02281329944622718,-0.16431454433332984]",100.0,"[-0.1388998595900557,0.008283355690497944]",4.0,"[0.02395526328885111,-0.1822213499039388]",4.0,"[-0.04026463628616529,0.04620591578482786]",100.0,"[0.13532283925045024,0.14056195579992728]",100.0,"[0.014549674710867199,0.0999249323546154]",100.0,"[0.1612022627636039,-0.07475651602703673]",100.0,"[-0.1591471205859122,-0.07379304498540235]",4.0,"[0.02,0.02]",173.0929,0.0,33.0,33.0,67.0,1.0,,,,,,,
,,,,,,,6060b2cead1daacd69adb31f,68399d387ba2871b7f95274d,2025-05-30_12h58.05.130,shape_ratio,2024.1.5,Win32,60.24096386,683853e18dae57a2147b65e0,,,,,,,,,,,173.0941,173.5918,,,173.842,174.5584,left,0.6919,,,,,,,,,0.1,,,,,,173.5918,173.8419,174.5587,"[0.10059719255390763,0.01126734430344442]",4.0,"[-0.03981581813420698,-0.02778967394259061]",4.0,"[0.1580057447147636,0.11290871105214502]",4.0,"[-0.11513788406834286,-0.12888592304189522]",4.0,"[0.011623135479417943,0.10965434478018547]",4.0,"[-0.1724680272785855,0.005982962912786858]",4.0,"[0.09844818455005631,0.14108158714956423]",4.0,"[-0.10959577137683886,0.06264040434766292]",4.0,"[0.03736574792463815,0.1803801699340098]",4.0,"[-0.06373991671470328,0.1689469234727313]",4.0,"[-0.08700015643728547,-0.04787196490361015]",4.0,"[0.001984082717452468,0.15305235077194346]",4.0,"[-0.1010507490675097,-0.006810531154805815]",100.0,"[-0.005152424370651819,-0.1601944444421965]",4.0,"[0.10707375278203062,-0.05304689100992338]",4.0,"[-0.03307296577826107,-0.08901354216813166]",4.0,"[-0.01290281683027588,0.023578737093376066]",4.0,"[-0.047511427877104113,0.08893837415518215]",4.0,"[0.06634380643843059,0.03465130242115729]",4.0,"[0.10837547875017989,0.06906054581943905]",4.0,"[-0.14663810459097829,0.10000931012336331]",4.0,"[0.030835962485315734,-0.1176099940429992]",4.0,"[-0.16199554563194601,-0.06841925931496803]",4.0,"[0.04920943976781618,0.13988091373381267]",4.0,"[0.1723211266515342,-0.020751375991737656]",4.0,"[0.11838393236261095,-0.11682942388186462]",4.0,"[0.015421160371222133,-0.02121394726999534]",4.0,"[0.18740499334322505,0.058485047753502474]",100.0,"[-0.062178678776089805,-0.1872932956029189]",100.0,"[0.06652088944845258,-0.18591840897603612]",4.0,"[-0.07390614331405107,-0.1489586737820874]",4.0,"[-0.10147082982743108,0.14947088077296702]",4.0,"[0.02,0.02]",175.6572,0.0,34.0,34.0,191.0,1.0,,,,,,,
,,,,,,,6060b2cead1daacd69adb31f,68399d387ba2871b7f95274d,2025-05-30_12h58.05.130,shape_ratio,2024.1.5,Win32,60.24096386,683853e18dae57a2147b65e0,,,,,,,,,,,175.659,176.1568,,,176.4077,177.206,left,0.768,,,,,,,,,0.1,,,,,,176.1569,176.4076,177.2061,"[-0.027280808294737665,-0.15001717598469025]",4.0,"[0.06849320805562714,-0.07594540823275765]",4.0,"[-0.02814119598530653,0.15327536392768845]",100.0,"[0.12412331369099719,0.11700155796521879]",100.0,"[-0.18378200724038285,-0.008346994042162098]",4.0,"[-0.13746134095485923,-0.02834735477440361]",4.0,"[0.13978851072515447,0.013037603663798478]",4.0,"[-0.0914720095510131,0.06553869992661467]",4.0,"[0.08814222638905125,-0.021159509325972853]",4.0,"[-0.07534044926118215,-0.13005375798451052]",4.0,"[-0.07628579474357981,0.1431009192493435]",4.0,"[0.1274564140478269,-0.04896763733144196]",4.0,"[0.14792064000014826,0.08454577519828313]",4.0,"[0.08058045141915987,0.14103405539482608]",4.0,"[-0.04840015415604814,-0.07053679855399919]",4.0,"[-0.00669477896997767,0.05719673134916273]",4.0,"[0.04842590626598175,0.10894589980298991]",4.0,"[0.03938409733762101,-0.10726354166610959]",4.0,"[0.16595961673350398,-0.0665577741876495]",4.0,"[0.011210240121690073,0.18988482568834475]",4.0,"[-0.035214864275977836,-0.19518454389804107]",4.0,"[-0.03132463180321093,-0.03368447034265883]",4.0,"[0.028231189393883638,0.15058001917056632]",4.0,"[0.1967123180593509,-0.005060907880603773]",4.0,"[0.024569927360791777,-0.0055636443822914125]",4.0,"[0.12037372948978059,-0.15262861726979143]",4.0,"[-0.1234767962920073,-0.14837036123921693]",4.0,"[0.012618323231357795,-0.04955306932810701]",4.0,"[0.02983289960888477,-0.14709125571491233]",4.0,"[-0.09344936499217948,-0.08209970009965833]",100.0,"[0.05841384498704377,-0.17553424087541206]",4.0,"[-0.16942013396528705,-0.09132071740691006]",4.0,"[0.02,0.02]",178.3045,0.0,35.0,35.0,207.0,1.0,,,,,,,
,,,,,,,6060b2cead1daacd69adb31f,68399d387ba2871b7f95274d,2025-05-30_12h58.05.130,shape_ratio,2024.1.5,Win32,60.24096386,683853e18dae57a2147b65e0,,,,,,,,,,,178.3048,178.8041,,,179.0541,180.0036,left,0.9341,,,,,,,,,0.55,,,,,,178.8041,179.0541,180.0038,"[0.058296832451965284,0.13338078623044836]",100.0,"[-0.02538488047364819,-0.10501380195381]",100.0,"[-0.17470962623576108,0.06322184356860713]",4.0,"[0.07615805341865889,0.08015934779402036]",100.0,"[0.040004620587391716,0.016745347956077527]",4.0,"[-0.05075943731877161,0.05983881138480826]",4.0,"[-0.08169087111833624,-0.057911850336648606]",4.0,"[0.1250732352888206,-0.05644586966781432]",4.0,"[0.14073877294009107,0.061702743140217495]",100.0,"[0.08416447860036004,0.17140733900790697]",4.0,"[-0.127501200725718,0.08767512184997193]",100.0,"[0.16833495326398598,0.09510652103995942]",4.0,"[0.15568673728211765,0.023504020008618367]",4.0,"[-0.008694024586451608,0.03123413224064391]",100.0,"[0.06889403776752964,-0.0935285446961142]",100.0,"[-0.09094394587153305,0.020437702459259195]",100.0,"[-0.024361998026006394,0.17165902284594692]",4.0,"[-0.17306647971675482,0.003015789097385582]",100.0,"[-0.029146325470871783,-0.0604168310984444]",100.0,"[-0.15864973324334147,-0.0791369658485801]",100.0,"[-0.0705282787912091,-0.10318231732918066]",4.0,"[0.033245147260985625,-0.135361156904517]",100.0,"[-0.14368229453236386,-0.03302683953720296]",100.0,"[0.014464372522479436,0.19504863108742249]",4.0,"[-0.1098871815931745,0.14110430498030177]",4.0,"[-0.06408313653648139,0.10113709115502387]",100.0,"[0.1132969731846311,0.13559178340163322]",100.0,"[0.1625666770232357,-0.09749787858708614]",4.0,"[0.02697218961634614,0.09159781473173603]",100.0,"[0.06961666015079812,-0.1581952740273797]",4.0,"[-0.07732101561474158,-0.1552518485499009]",100.0,"[0.08541605259286676,-0.05080901445189103]",100.0,"[0.02,0.02]",181.1028,0.0,36.0,36.0,84.0,1.0,,,,,,,
,,,,,,,6060b2cead1daacd69adb31f,68399d387ba2871b7f95274d,2025-05-30_12h58.05.130,shape_ratio,2024.1.5,Win32,60.24096386,683853e18dae57a2147b65e0,,,,,,,,,,,181.1047,181.6023,,,181.8531,182.6689,left,0.7864,,,,,,,,,0.6,,,,,,181.6023,181.853,182.6691,"[0.040598339642055434,-0.1390114836932269]",100.0,"[0.01605077724809899,0.18733857256504588]",100.0,"[-0.09643613476721748,-0.07431548297834019]",100.0,"[0.04964883608521763,-0.05146792311809437]",100.0,"[-0.13642544607929594,-0.05670543811268299]",100.0,"[0.010209482368244786,0.10499836343219789]",4.0,"[0.1246090562095781,0.150322218970886]",100.0,"[0.0655378371671065,-0.09485373465948542]",4.0,"[-0.11051518505045602,0.12029350036757876]",100.0,"[0.01841960341201222,0.1453698236342562]",100.0,"[-0.11918911539684066,0.04518109508007399]",100.0,"[0.10523556038208204,0.007078449994534277]",4.0,"[-0.035880141506700915,0.08752314065886185]",4.0,"[-0.038471684413005275,-0.08740592214914675]",4.0,"[-0.18193607227756559,-0.02082425405523304]",4.0,"[0.013560331075092285,-0.1040395139201459]",4.0,"[-0.05845891390244569,-0.1371113220250176]",100.0,"[-0.03910303290663086,0.02461169211106696]",100.0,"[0.10873015922255212,-0.09240685947232485]",4.0,"[-0.07061632425603058,0.052548156546673566]",4.0,"[-0.18385682554677552,-0.06582869026316518]",100.0,"[-0.13990331451785454,0.09264126861694136]",100.0,"[0.046192709980652134,-0.009440736382550436]",4.0,"[-0.151285986417656,-0.09747966111944734]",100.0,"[0.022828056564110584,-0.1957626485940974]",4.0,"[-0.006618767319533851,-0.04682043999284225]",100.0,"[-0.1015764760955959,0.0004933566056641688]",4.0,"[-0.02168785303947512,0.15770224421007878]",100.0,"[-0.10966176618347317,-0.11243713759348925]",4.0,"[0.0007992217555568879,-0.1528913108650919]",100.0,"[-0.1558399068961573,0.012372720512260689]",100.0,"[0.08855622971364167,-0.15202354930165704]",100.0,"[0.02,0.02]",183.767,0.0,37.0,37.0,58.0,1.0,,,,,,,
,,,,,,,6060b2cead1daacd69adb31f,68399d387ba2871b7f95274d,2025-05-30_12h58.05.130,shape_ratio,2024.1.5,Win32,60.24096386,683853e18dae57a2147b65e0,,,,,,,,,,,183.7688,184.2665,,,184.5074,185.6824,left,1.1557,,,,,,,,,0.55,,,,,,184.2666,184.5073,185.6826,"[0.028319251624587774,-0.12640032177454646]",4.0,"[0.03759756336574102,0.025236833907315518]",100.0,"[-0.09103397277355164,-0.06605623984016808]",4.0,"[-0.06403072420242772,0.17238578031883162]",4.0,"[0.05949718112275503,0.15732454073857327]",4.0,"[-0.004671720656477323,0.16235229154742603]",100.0,"[0.15174572819458315,-0.07852326108451026]",100.0,"[-0.014223955510213314,0.12116052698918425]",100.0,"[-0.0886755335509486,0.05617074310636302]",100.0,"[-0.1737889438259653,0.04363634972787637]",4.0,"[-0.021672817182148977,-0.04702268226985711]",100.0,"[-0.15515146074254968,-0.06288398410103066]",100.0,"[0.11571462780519928,0.1402536456430024]",100.0,"[-0.17117814750244814,0.09156969366001798]",100.0,"[0.007420631471360399,-0.18821548448880177]",100.0,"[0.11746361930646647,0.0297991364350916]",4.0,"[0.10354609097839436,0.07205589557645642]",4.0,"[0.05750488402623595,-0.15850679030658404]",100.0,"[0.0727832625052974,-0.05913179819840299]",4.0,"[-0.038459214402991805,0.014611842018519132]",4.0,"[0.01882819639244152,0.07392530157184987]",4.0,"[0.18592720393979212,-0.047558824545580594]",100.0,"[-0.06751775484242131,-0.11349082707258276]",100.0,"[-0.08456501695526628,0.10150390104851076]",100.0,"[-0.08599642783655585,-0.17870879558785036]",100.0,"[-0.1317369603112798,0.11777487363951812]",100.0,"[-0.01721596940323976,-0.14849564486157726]",100.0,"[0.10376024354510334,-0.031749330094149486]",4.0,"[-0.1756991377901912,-0.009875116347803845]",4.0,"[0.1258404414044508,-0.1325128942097411]",4.0,"[0.04998269169767659,0.10326420596937583]",100.0,"[0.08145766023358446,-0.11687202178919337]",4.0,"[0.02,0.02]",186.7807,0.0,38.0,38.0,66.0,1.0,,,,,,,
,,,,,,,6060b2cead1daacd69adb31f,68399d387ba2871b7f95274d,2025-05-30_12h58.05.130,shape_ratio,2024.1.5,Win32,60.24096386,683853e18dae57a2147b65e0,,,,,,,,,,,186.7815,187.2803,,,187.5193,188.1301,right,0.6057,,,,,,,,,0.9,,,,,,187.2803,187.5192,188.1302,"[0.052719444877435136,-0.13965479616665716]",100.0,"[0.020895520614056688,0.15790285527447812]",100.0,"[-0.021421956026587648,0.13328038234181455]",100.0,"[0.18002206700575976,0.07139313679195622]",100.0,"[-0.13734564304942554,0.055724956449460766]",100.0,"[-0.06517497611129562,-0.13887652539283646]",100.0,"[0.01895073045395749,-0.03384603706356777]",100.0,"[-0.10443720016293219,0.08035118635921913]",100.0,"[0.08831944582981682,0.07893678317799226]",100.0,"[-0.07884951312992047,-0.037587949629249655]",100.0,"[-0.1620288646039644,0.10031372269011186]",100.0,"[0.1826605081341081,0.0008626123135854134]",100.0,"[0.06509966470158922,-0.18479354736842726]",100.0,"[0.016257070094725098,0.10752769854063055]",100.0,"[-0.01715729997753243,0.18191271677206416]",100.0,"[0.011690854262831214,-0.16028825806819408]",100.0,"[-0.022137518888615208,0.0368170117146619]",100.0,"[-0.06792112512428189,-0.07848502090954211]",100.0,"[-0.027457119153032925,-0.059168886236253874]",100.0,"[-0.18572695375034837,-0.03494745713622487]",100.0,"[0.16418485235508198,-0.08883131151497017]",100.0,"[0.1381597256271543,0.11568774732429928]",4.0,"[-0.09321487454821051,0.03103355727379552]",4.0,"[0.03420672531186944,-0.07286702852291568]",100.0,"[0.08855442352764764,-0.0467667321682571]",100.0,"[0.09195043566480543,0.1593303452343719]",100.0,"[0.155442255465632,0.035108687789290785]",100.0,"[-0.055808263675949515,0.15825344502467378]",4.0,"[0.11435490404534941,-0.12533576172921926]",100.0,"[-0.1405299323428814,-0.10028093927167572]",100.0,"[-0.12010533471510933,-0.012909092266871203]",100.0,"[-0.046052047230493186,-0.004622819420152734]",100.0,"[0.02,0.02]",189.2287,0.0,39.0,39.0,22.0,1.0,,,,,,,
,,,,,,,6060b2cead1daacd69adb31f,68399d387ba2871b7f95274d,2025-05-30_12h58.05.130,shape_ratio,2024.1.5,Win32,60.24096386,683853e18dae57a2147b65e0,,,,,,,,,,,189.2291,189.7284,,,189.9787,190.6612,left,0.6573,,,,,,,,,0.1,,,,,,189.7284,189.9784,190.6613,"[-0.11747361522580616,0.11670497253247943]",4.0,"[0.024781741776198414,0.1628561957732399]",4.0,"[-0.104589098024603,-0.1395161813093058]",4.0,"[0.14253124665563036,-0.04339368277174593]",4.0,"[0.09724631752544333,-0.11936409010159885]",4.0,"[-0.05006122095095579,-0.004494139140689589]",100.0,"[0.0747040560142731,-0.0786704613141553]",4.0,"[-0.0027738399075105955,0.014687520119968973]",4.0,"[-0.04428754274685441,-0.17668177564720056]",4.0,"[-0.1234760856770618,-0.04388475480015062]",4.0,"[0.0822228332674705,0.033571630541991575]",4.0,"[0.15115603376579634,0.11721439755010939]",4.0,"[0.13578369398834159,0.06743112377502286]",4.0,"[-0.19073385718880173,-0.00628399767689083]",4.0,"[0.012479309089314586,-0.062132051192664926]",4.0,"[-0.14823221265423014,-0.1099133614261038]",4.0,"[0.050497097847754954,0.13123603755016036]",4.0,"[0.14612243106466966,-0.11397026076594845]",4.0,"[-0.06353617203792557,0.06745549333680328]",4.0,"[-0.0020671245068716385,-0.13527790895129935]",4.0,"[-0.032890331719608853,0.14435789248547728]",4.0,"[0.1821483720507768,-0.007186527872202087]",4.0,"[-0.08198166248235104,-0.0512907325262037]",4.0,"[0.009815437706549779,0.08007250617651689]",4.0,"[-0.16189202426331667,0.05311069167605864]",4.0,"[-0.1090371312537923,-0.005620700944937836]",4.0,"[0.08477169481793154,-0.031104962937417102]",100.0,"[0.03557604534033122,-0.11992555229237273]",100.0,"[0.150283484602959,0.01804308345694474]",4.0,"[0.11783438154825578,0.14975493285944666]",4.0,"[-0.07686258192563855,0.11145530302225863]",4.0,"[-0.10688094830807833,0.16465613349977593]",4.0,"[0.02,0.02]",191.7601,0.0,40.0,40.0,208.0,1.0,,,,,,,
,,,,,,,6060b2cead1daacd69adb31f,68399d387ba2871b7f95274d,2025-05-30_12h58.05.130,shape_ratio,2024.1.5,Win32,60.24096386,683853e18dae57a2147b65e0,,,,,,,,,,,191.7606,192.2596,,,192.5157,193.1766,right,0.6555,,,,,,,,,0.55,,,,,,192.2596,192.5157,193.1769,"[0.011151735896641654,-0.1236156062114869]",4.0,"[-0.011936451942211527,-0.05668618168767896]",100.0,"[0.09594221158223708,-0.07150864684271539]",100.0,"[0.029029533135636512,0.06688229244625031]",4.0,"[-0.13188786516275372,0.11874065987693591]",4.0,"[0.01571666040257342,0.12926647020923926]",4.0,"[-0.04653240877065087,-0.10165237204030214]",100.0,"[-0.0699960550585108,-0.0020685306060959337]",100.0,"[0.13324347951217155,-0.015821367690708018]",100.0,"[-0.11234672481852205,-0.16143549787057804]",100.0,"[0.1085469505568951,0.08221698962947402]",4.0,"[0.17080420724835327,-0.05500483750591254]",100.0,"[0.08090219612031917,-0.17126806490398813]",100.0,"[0.05647295403121219,0.12051477050922653]",4.0,"[-0.07900604941175195,-0.06260257318510327]",100.0,"[-0.04968014440040264,0.17423055203757343]",4.0,"[-0.0037159585410514563,0.02276755424434968]",100.0,"[0.05983243253961802,0.17674218811142078]",100.0,"[-0.042990651206947804,0.05288238637123529]",100.0,"[0.1833393925610709,-0.001138114876589618]",100.0,"[0.014575848683532296,0.1753180725673998]",100.0,"[-0.18607117784768326,0.024862589995068397]",100.0,"[0.09625753450707518,0.02865552102999874]",100.0,"[0.04217089212579662,-0.07985093987172862]",4.0,"[0.14642536423995567,0.04115779387928129]",4.0,"[0.14592292507507795,-0.11804891170899591]",4.0,"[0.09610285236952382,0.15860550504244578]",4.0,"[-0.11346451873535113,-0.09826416883852379]",4.0,"[0.07377402641753628,-0.035369351741257944]",4.0,"[-0.04443893040314606,0.13274878056943826]",4.0,"[-0.123985422309162,-0.05842044156054654]",100.0,"[0.15436966602736282,0.09548612894831211]",100.0,"[0.02,0.02]",194.2751,0.0,41.0,41.0,62.0,1.0,,,,,,,
,,,,,,,6060b2cead1daacd69adb31f,68399d387ba2871b7f95274d,2025-05-30_12h58.05.130,shape_ratio,2024.1.5,Win32,60.24096386,683853e18dae57a2147b65e0,,,,,,,,,,,194.2759,194.7744,,,195.0258,195.5742,right,0.518,,,,,,,,,0.1,,,,,,194.7744,195.0255,195.5742,"[0.09739558628268029,-0.09583234045060736]",4.0,"[0.030607216432521157,-0.06487889681589026]",4.0,"[-0.043652497693206484,0.06420963504627346]",4.0,"[0.0792582825555905,0.017409480924160104]",4.0,"[-0.06517945300198408,-0.022014645254396253]",4.0,"[0.09571690260064511,0.1330052516567686]",4.0,"[-0.10657188263330367,-0.15356356458367637]",4.0,"[-0.027761354067342838,0.1247517232203643]",4.0,"[-0.16625782507250458,-0.10991593119964577]",4.0,"[-0.036304777408685276,0.17803640156779613]",100.0,"[0.18062353836919912,0.0039803143473534155]",4.0,"[-0.05780618672436288,-0.17328267713932677]",4.0,"[0.14062596087913673,0.12674733231877675]",4.0,"[-0.14223966864111934,0.1083898023240587]",4.0,"[0.039981709235496966,-0.10475850615654941]",4.0,"[0.12826374950119543,-0.05256903281800699]",4.0,"[-0.08570847711385597,0.13813789913237146]",4.0,"[0.1477078097900216,0.03985216727145232]",4.0,"[0.015195772392028786,0.060460098748378564]",4.0,"[0.1553959390094605,-0.12404349428379131]",4.0,"[0.0870842793139818,0.17978727372345593]",4.0,"[-0.10470604088656672,-0.11292817088250438]",4.0,"[-0.0016488113681484549,-0.02461407694066885]",4.0,"[-0.13618949571687958,-0.020736348767197675]",4.0,"[-0.16845233255828265,0.0516904168392494]",4.0,"[-0.09822770587417697,0.08328226778724927]",4.0,"[0.005002873712410345,-0.12639951979007152]",100.0,"[0.04369382390981107,0.17793584575305219]",4.0,"[0.03113397130538863,0.10782946800155405]",4.0,"[-0.15077204160609814,-0.06703990005259466]",4.0,"[-0.10748567094266046,-0.05088485582563397]",100.0,"[0.07182214351869995,0.07580789510547252]",4.0,"[0.02,0.02]",196.6733,0.0,42.0,42.0,195.0,1.0,,,,,,,
,,,,,,,6060b2cead1daacd69adb31f,68399d387ba2871b7f95274d,2025-05-30_12h58.05.130,shape_ratio,2024.1.5,Win32,60.24096386,683853e18dae57a2147b65e0,,,,,,,,,,,196.6746,197.1726,,,197.4238,197.9226,right,0.4684,,,,,,,,,0.6,,,,,,197.1728,197.4236,197.9228,"[-0.007328750185969421,-0.17230440283960605]",4.0,"[-0.012443791833668208,0.09603530880405756]",4.0,"[0.013834025112309356,-0.11815865077364932]",4.0,"[0.1110663419605434,-0.08285706451127126]",100.0,"[0.03351408306381416,0.1120734494955558]",100.0,"[0.033898685361577446,-0.07404360293788416]",4.0,"[0.14243208852599587,0.02610476246674096]",100.0,"[-0.10984473536341445,-0.06549420488138931]",100.0,"[0.055439544165189265,-0.17430957390774438]",100.0,"[0.03581217958759946,0.01790824483753117]",100.0,"[-0.11577224842311266,-0.1468118908981374]",100.0,"[-0.165352069204986,0.06877084207739514]",4.0,"[-0.11308380964540449,0.15240336804751609]",100.0,"[-0.06945252993453328,0.15377463499762337]",4.0,"[-0.15075713109737074,0.01146653830615064]",4.0,"[0.165060498228217,-0.06035645746343259]",100.0,"[-0.15686125918714927,-0.106972257641644]",4.0,"[0.12362768089843382,0.1483161766156261]",100.0,"[-0.01861296180015445,0.13675124108514136]",100.0,"[0.09625031061446504,-0.0005474767211467012]",100.0,"[0.1591299165219301,0.11611925394229178]",4.0,"[-0.12972359027772418,-0.02705909751912547]",100.0,"[-0.06935445265193625,0.006261878829644961]",4.0,"[0.023052561762252108,0.15370755194573038]",100.0,"[0.11328992718711273,0.0960124660318283]",100.0,"[-0.029710510929177432,0.0004905942156015362]",4.0,"[0.12712798942425127,-0.03665944928185788]",100.0,"[-0.17796170199492833,-0.06701310921118496]",100.0,"[-0.109630348928624,-0.10615611989359339]",100.0,"[-0.08469658698106083,0.07116231906944132]",100.0,"[0.06591332550985349,0.15088047363634563]",4.0,"[-0.13148580425926334,0.10999544315717369]",4.0,"[0.02,0.02]",199.0214,0.0,43.0,43.0,44.0,1.0,,,,,,,
,,,,,,,6060b2cead1daacd69adb31f,68399d387ba2871b7f95274d,2025-05-30_12h58.05.130,shape_ratio,2024.1.5,Win32,60.24096386,683853e18dae57a2147b65e0,,,,,,,,,,,199.0225,199.5205,,,199.7742,200.1203,right,0.3393,,,,,,,,,0.9,,,,,,199.5205,199.7742,200.1203,"[0.029922567726236367,0.1951385963968247]",100.0,"[-0.08320841136111158,0.02426413450860855]",100.0,"[0.06587634109217207,0.11727880914368236]",100.0,"[0.13191391897833887,-0.09599389842384892]",100.0,"[-0.1481324836349885,0.0770216191498582]",100.0,"[0.18352346116011103,0.009285709002782213]",100.0,"[0.034770596060692494,-0.02088603544099364]",4.0,"[-0.17076918023002852,-0.004667625369490033]",100.0,"[0.012945360826002877,-0.10377438828861882]",100.0,"[0.16102355306340635,0.0723168752345507]",100.0,"[-0.016004206718752766,0.11123490991577846]",100.0,"[0.1000482137649349,-0.1539966687392729]",100.0,"[-0.11698137410643689,-0.005265261980873854]",100.0,"[-0.039861807468855086,-0.13725182481393633]",100.0,"[0.05668747016831424,-0.10072620541942873]",100.0,"[-0.12850223967769414,0.141356922338549]",100.0,"[-0.141989441796543,0.03410963599101483]",100.0,"[0.1829546849035351,-0.06593881609456026]",4.0,"[-0.03313301195820961,-0.18933060389805062]",100.0,"[0.10870931283619789,0.1606435849682869]",100.0,"[-0.09197167360971027,-0.07650284215685611]",100.0,"[-0.0986727182527573,0.09014400302482277]",100.0,"[0.04816252333008892,0.04145293222823865]",100.0,"[0.11902477046054358,-0.01736859082549931]",100.0,"[0.00016057259572435664,-0.16483132030450762]",100.0,"[0.16148106887102362,0.11792554422887466]",100.0,"[0.0959801695206318,0.042153708689196684]",100.0,"[-0.0719754610742978,0.17781276530004608]",100.0,"[0.009636941604948898,0.1516727179266961]",100.0,"[-0.06945532073661485,0.12946194973611547]",100.0,"[-0.08004155096123014,-0.02701280667506226]",4.0,"[-0.004688088835205247,-0.06229970798763395]",100.0,"[0.02,0.02]",201.2199,0.0,44.0,44.0,27.0,1.0,,,,,,,
,,,,,,,6060b2cead1daacd69adb31f,68399d387ba2871b7f95274d,2025-05-30_12h58.05.130,shape_ratio,2024.1.5,Win32,60.24096386,683853e18dae57a2147b65e0,,,,,,,,,,,201.221,201.7189,,,201.9696,202.369,right,0.3845,,,,,,,,,0.45,,,,,,201.7189,201.9696,202.3691,"[-0.004707756603470498,0.15072720015163743]",4.0,"[0.015483441844762363,-0.08340348334713572]",4.0,"[-0.12533216955548265,0.13132926441014206]",100.0,"[0.09750953001212213,0.11705402627366844]",4.0,"[-0.13718933162169772,-0.09925816342243415]",100.0,"[-0.08463602376996107,-0.1451196983881411]",100.0,"[-0.1325795375559534,0.010483471986395907]",100.0,"[0.179665911383245,0.009471476479086461]",4.0,"[0.05551398630294157,0.07033640576218728]",100.0,"[-0.035404469709878136,0.06955849170042898]",4.0,"[-0.1796136562728704,-0.04156658098063908]",4.0,"[-0.04197429821321547,-0.14916613533188966]",4.0,"[0.06760160986315107,-0.060495044708467324]",100.0,"[-0.05034691259124236,-0.05520174359782664]",100.0,"[-0.025150039902849756,-0.01325139741978083]",4.0,"[0.057948318058498975,-0.011168364765332641]",4.0,"[0.14095771959606246,-0.08462998600703213]",100.0,"[-0.06917638499514824,0.16434530761417382]",100.0,"[0.02868362611120845,-0.12914633839367437]",4.0,"[0.045263064531028366,0.11202272107494807]",4.0,"[-0.11321029031488634,0.09172795983474351]",4.0,"[0.1009785984762298,-0.11990808336814682]",4.0,"[0.02750985958081502,0.18677234285116145]",100.0,"[0.14774206718914,0.05108553715885693]",4.0,"[0.1772344640531413,-0.055138557950164535]",4.0,"[0.09571581611304887,-0.16582992852016562]",100.0,"[-0.11533967830328863,0.04736214522779044]",100.0,"[0.10394769316699445,-0.00188330275766106]",4.0,"[0.14564986355106538,-0.12626430731968247]",100.0,"[-0.19411895936443788,0.036032249174207]",4.0,"[-0.09153369658374193,0.008330082026454803]",100.0,"[-0.16036906228318637,0.07174499880488831]",4.0,"[0.02,0.02]",203.4681,0.0,45.0,45.0,137.0,1.0,,,,,,,
,,,,,,,6060b2cead1daacd69adb31f,68399d387ba2871b7f95274d,2025-05-30_12h58.05.130,shape_ratio,2024.1.5,Win32,60.24096386,683853e18dae57a2147b65e0,,,,,,,,,,,203.4687,203.9674,,,204.2178,204.5663,right,0.3358,,,,,,,,,0.5,,,,,,203.9674,204.2177,204.5663,"[0.07287045418381534,-0.18438387083176566]",4.0,"[0.10358176911230385,-0.03922352926802928]",4.0,"[-0.043105530837488464,0.1522836432517194]",100.0,"[-0.05296101091214492,-0.10318451855715327]",100.0,"[-0.11227651486261263,-0.10935133066449476]",100.0,"[0.10929264321625624,0.07967173633859403]",4.0,"[0.09296091150508361,-0.0006366408526165257]",100.0,"[0.022197443330486687,0.15519315443975812]",100.0,"[0.05575918143259808,0.1267351302099753]",100.0,"[0.059941848123045004,-0.10371555968462405]",100.0,"[-0.1692952592273355,0.07795199170452491]",100.0,"[-0.0022945097545837997,-0.11059437461809929]",4.0,"[0.16412436732952887,0.026042487691380897]",4.0,"[0.12104349969000225,-0.10860856488236115]",4.0,"[0.014224342672941094,-0.15610853645549327]",4.0,"[0.05783473324676505,0.07843072136265652]",4.0,"[-0.058734319505808257,-0.1823969922323737]",4.0,"[0.07145669730207757,-0.14332076435779156]",4.0,"[-0.10810840897216234,0.11278377516249664]",100.0,"[-0.028564536524953936,-0.015013962225200751]",4.0,"[0.004507289810804502,0.015035933788257239]",100.0,"[-0.05762039972579803,0.10075242589763377]",4.0,"[0.02939843567638411,-0.05895243642970734]",4.0,"[0.07215894190018884,0.17927593525411323]",4.0,"[-0.08391489148899843,-0.05566761279436349]",100.0,"[0.01777046303063681,0.09667527207524551]",100.0,"[0.1473168784483954,-0.05089880137361153]",4.0,"[-0.14873862914809402,-0.016581419179900067]",4.0,"[-0.08504761552882875,0.017124954797296452]",100.0,"[0.16304051202797706,-0.09679484094620036]",100.0,"[-0.09012167494905451,0.0753310164272042]",100.0,"[0.14420370890326287,0.12110089981129629]",100.0,"[0.02,0.02]",205.666,0.0,46.0,46.0,115.0,1.0,,,,,,,
,,,,,,,6060b2cead1daacd69adb31f,68399d387ba2871b7f95274d,2025-05-30_12h58.05.130,shape_ratio,2024.1.5,Win32,60.24096386,683853e18dae57a2147b65e0,,,,,,,,,,,205.6667,206.1655,,,206.4161,206.8818,right,0.4473,,,,,,,,,0.55,,,,,,206.1656,206.4159,206.8818,"[-0.16493078003773098,-0.10603786512239712]",4.0,"[0.05012518084094408,-0.16978388154437743]",100.0,"[0.16423751357681216,-0.06619574709097295]",100.0,"[-0.168128466256904,0.10386008055527059]",100.0,"[-0.025336156716346595,-0.14524868704339589]",100.0,"[-0.17445968116533472,0.042659651569372486]",4.0,"[0.1874461716837836,0.03268969112218198]",100.0,"[-0.05694350140348397,0.18503868069634782]",4.0,"[-0.06021386365223031,-0.11618962840945068]",4.0,"[-0.004846047382674788,0.004862147027348011]",100.0,"[0.08308817492501805,-0.08414692322571451]",4.0,"[-0.10168938864498682,-0.12988899662418812]",100.0,"[-0.028960578398282574,0.04239674966681894]",4.0,"[0.04113451539129944,-0.0508691610668628]",100.0,"[-0.10253090496785515,0.06789067630877396]",4.0,"[0.11536606939719031,-0.14892876093602048]",100.0,"[0.0002013434467124719,0.19359911539963956]",100.0,"[-0.009622297631852156,0.15388776860370526]",100.0,"[0.036915637055498586,0.14698628050380444]",100.0,"[0.043676030436845883,-0.09986954880636674]",4.0,"[-0.011212816171319324,-0.06468042653654998]",100.0,"[0.0939403164028644,0.13507559107773054]",100.0,"[0.10559036554630649,0.08824370176517737]",100.0,"[0.08240745557367916,-0.019805366203291385]",4.0,"[-0.09718463940629876,0.16431076811801307]",4.0,"[-0.10401698164037311,0.026443235966938414]",4.0,"[0.15512145612837763,0.06670527232074674]",4.0,"[-0.06920593900862979,-0.02092349673845492]",100.0,"[0.03152200702388226,0.08972331701195219]",4.0,"[-0.12733349534886054,0.13256859282415545]",4.0,"[-0.022973907939757475,0.09914685132343928]",100.0,"[0.0767368536919321,0.04721566709819171]",100.0,"[0.02,0.02]",207.9807,0.0,47.0,47.0,75.0,1.0,,,,,,,
,,,,,,,6060b2cead1daacd69adb31f,68399d387ba2871b7f95274d,2025-05-30_12h58.05.130,shape_ratio,2024.1.5,Win32,60.24096386,683853e18dae57a2147b65e0,,,,,,,,,,,207.9813,208.4797,,,208.7295,209.4955,right,0.7583,,,,,,,,,0.6,,,,,,208.4797,208.7295,209.4956,"[-0.0977147106540555,0.12014581655959003]",4.0,"[0.10501541627361603,0.003699645007756832]",4.0,"[-0.0013441227177475273,0.16086939878716136]",100.0,"[0.12074871278725736,-0.07835896338610904]",100.0,"[-0.08055955283483046,0.1775338412408351]",100.0,"[0.1302021053015086,0.05118732805523558]",100.0,"[-0.14251200248549523,0.06983720031413758]",100.0,"[0.053185811092204265,-0.10465859078005109]",100.0,"[-0.13996980010813545,-0.13305913363691282]",100.0,"[0.05943292705513039,0.0005822683241385719]",100.0,"[-0.029241408505834704,-0.009555390948769477]",100.0,"[0.1824126642048179,-0.0074832593371150285]",100.0,"[0.007695044578733462,0.11733884336128289]",4.0,"[-0.07777309678949153,-0.17265607844077877]",4.0,"[0.03510603550027247,0.059965758387935476]",100.0,"[0.06978966405980092,-0.16004066873101552]",4.0,"[-0.022555628662111984,-0.15857854566915291]",100.0,"[-0.05467441230303662,0.10634277304839163]",4.0,"[0.09243603888551312,-0.12356182600805861]",4.0,"[0.16041865350999812,-0.0718821079568386]",4.0,"[0.08985217316716805,0.11988792661258636]",100.0,"[-0.03633058617194466,-0.11416453026982906]",4.0,"[-0.09793566111884142,0.01670329837509405]",100.0,"[-0.13584421020718337,-0.060100275679632144]",100.0,"[-0.19141506899700358,0.008343476344430707]",100.0,"[0.06444237525259491,0.18906261729928306]",4.0,"[-0.07532210623817832,-0.016541063770564413]",100.0,"[0.06014996077225012,-0.06515085647524035]",4.0,"[0.14100687943534684,0.09531847270275083]",100.0,"[0.012419747808223448,-0.19504078105709013]",4.0,"[-0.18527256907515113,0.06408201958742335]",4.0,"[0.08997633576147407,0.07146824237342335]",100.0,"[0.02,0.02]",210.5945,0.0,48.0,48.0,55.0,1.0,,,,,,,
,,,,,,,6060b2cead1daacd69adb31f,68399d387ba2871b7f95274d,2025-05-30_12h58.05.130,shape_ratio,2024.1.5,Win32,60.24096386,683853e18dae57a2147b65e0,,,,,,,,,,,210.5948,211.094,,,211.3441,211.7771,right,0.4172,,,,,,,,,0.6,,,,,,211.0941,211.3441,211.7772,"[0.052456985081465006,-0.07448999776188141]",100.0,"[-0.06501827454413352,0.03910604125527642]",100.0,"[-0.12459833301680233,-0.02795709545410875]",4.0,"[0.02327388683017204,-0.03301436220573488]",100.0,"[0.025147058899311247,0.16280723191047888]",100.0,"[0.011735818662019327,-0.08453015150892713]",4.0,"[-0.08979904685418814,-0.10047997223487949]",4.0,"[0.18992400363532302,-0.040333775501401]",4.0,"[-0.18739650607022879,0.05557961518391338]",100.0,"[-0.15647906829295632,0.09712006432997139]",4.0,"[-0.10813525933965648,0.14223857957697128]",100.0,"[-0.11158778437203257,-0.15044131028078694]",100.0,"[-0.17732360211993078,-0.07967256920154199]",100.0,"[0.052063272242328304,0.03944543448293794]",4.0,"[0.10616861975412277,-0.024689132148342712]",100.0,"[0.13538618913118708,0.00399722380462197]",4.0,"[-0.0035547824583623457,-0.1504068869158315]",4.0,"[0.17029659273478925,0.04722864110165934]",100.0,"[-0.06255070789643248,0.11685231746793973]",4.0,"[0.14365563830669634,-0.07022010748230738]",100.0,"[-0.08852991609167847,0.00596226723041024]",4.0,"[-0.04329298860046606,-0.046730619421917106]",100.0,"[0.14394569614599356,0.0934207220958819]",100.0,"[0.09233592733243183,0.08902324348673964]",100.0,"[-0.029245795106024524,0.14825806083920726]",100.0,"[0.005383191069390985,0.015000735296241555]",100.0,"[0.025724569801683736,0.08574563535100127]",4.0,"[0.12776801327157442,0.1362476558847185]",100.0,"[0.039537361187925266,-0.14528129711522644]",100.0,"[0.1392111601373373,-0.11297344714549569]",4.0,"[-0.0415536864188082,-0.18080531949512357]",4.0,"[0.09628750344763139,0.028776156603677806]",100.0,"[0.02,0.02]",212.8761,0.0,49.0,49.0,53.0,1.0,,,,,,,
