right,left,explain.started,explain.stopped,key_resp_3.keys,key_resp_3.rt,key_resp_3.duration,participant,session,date,expName,psychopyVersion,OS,frameRate,study_id,explain_2.started,explain_2.stopped,key_resp_4.keys,key_resp_4.rt,key_resp_4.duration,explain_3.started,explain_3.stopped,key_resp_5.keys,key_resp_5.rt,key_resp_5.duration,fixation.started,fixation.stopped,practice.started,practice.stopped,response.started,response.stopped,key_resp.keys,key_resp.rt,key_resp.duration,feedback.started,feedback.stopped,trials_2.thisRepN,trials_2.thisTrialN,trials_2.thisN,trials_2.thisIndex,trials_2.ran,dot_ratio,explain_4.started,explain_4.stopped,key_resp_6.keys,key_resp_6.rt,key_resp_6.duration,dotDisplay.started,dotDisplay.stopped,ITI.started,polygon_1.pos,polygon_1.edges,polygon_2.pos,polygon_2.edges,polygon_3.pos,polygon_3.edges,polygon_4.pos,polygon_4.edges,polygon_5.pos,polygon_5.edges,polygon_6.pos,polygon_6.edges,polygon_7.pos,polygon_7.edges,polygon_8.pos,polygon_8.edges,polygon_9.pos,polygon_9.edges,polygon_10.pos,polygon_10.edges,polygon_11.pos,polygon_11.edges,polygon_12.pos,polygon_12.edges,polygon_13.pos,polygon_13.edges,polygon_14.pos,polygon_14.edges,polygon_15.pos,polygon_15.edges,polygon_16.pos,polygon_16.edges,polygon_17.pos,polygon_17.edges,polygon_18.pos,polygon_18.edges,polygon_19.pos,polygon_19.edges,polygon_20.pos,polygon_20.edges,polygon_21.pos,polygon_21.edges,polygon_22.pos,polygon_22.edges,polygon_23.pos,polygon_23.edges,polygon_24.pos,polygon_24.edges,polygon_25.pos,polygon_25.edges,polygon_26.pos,polygon_26.edges,polygon_27.pos,polygon_27.edges,polygon_28.pos,polygon_28.edges,polygon_29.pos,polygon_29.edges,polygon_30.pos,polygon_30.edges,polygon_31.pos,polygon_31.edges,polygon_32.pos,polygon_32.edges,dot_size,ITI.stopped,trials.thisRepN,trials.thisTrialN,trials.thisN,trials.thisIndex,trials.ran,break_2.started,break_2.stopped,trials_3.thisRepN,trials_3.thisTrialN,trials_3.thisN,trials_3.thisIndex,trials_3.ran
subject chose dot,subject chose diamond,0.0,17.971,space,2.924,,60984a1b0cce76d16c4ca781,6842baf6a96369826b317af1,2025-06-06_11h55.21.117,shape_ratio,2024.1.5,Win32,60.0240096,6842b561977af9ba9b0f87ca,,,,,,,,,,,,,,,,,,,,,,,,,,,,,,,,,,,,,,,,,,,,,,,,,,,,,,,,,,,,,,,,,,,,,,,,,,,,,,,,,,,,,,,,,,,,,,,,,,,,,,,,,,,,,,,,,
,,,,,,,60984a1b0cce76d16c4ca781,6842baf6a96369826b317af1,2025-06-06_11h55.21.117,shape_ratio,2024.1.5,Win32,60.0240096,6842b561977af9ba9b0f87ca,17.971,50.268,space,2.275,,,,,,,,,,,,,,,,,,,,,,,,,,,,,,,,,,,,,,,,,,,,,,,,,,,,,,,,,,,,,,,,,,,,,,,,,,,,,,,,,,,,,,,,,,,,,,,,,,,,,,,,,,,,,
,,,,,,,60984a1b0cce76d16c4ca781,6842baf6a96369826b317af1,2025-06-06_11h55.21.117,shape_ratio,2024.1.5,Win32,60.0240096,6842b561977af9ba9b0f87ca,,,,,,50.269,60.085,space,6.794,,,,,,,,,,,,,,,,,,,,,,,,,,,,,,,,,,,,,,,,,,,,,,,,,,,,,,,,,,,,,,,,,,,,,,,,,,,,,,,,,,,,,,,,,,,,,,,,,,,,,,,,
,,,,,,,60984a1b0cce76d16c4ca781,6842baf6a96369826b317af1,2025-06-06_11h55.21.117,shape_ratio,2024.1.5,Win32,60.0240096,6842b561977af9ba9b0f87ca,,,,,,,,,,,60.125,60.602,60.602,60.852,60.852,61.552,left,0.634,,61.552,62.652,0.0,0.0,0.0,0.0,1.0,0.2,,,,,,,,,,,,,,,,,,,,,,,,,,,,,,,,,,,,,,,,,,,,,,,,,,,,,,,,,,,,,,,,,,,,,,,,,,,,,,,,,,,,,,
,,,,,,,60984a1b0cce76d16c4ca781,6842baf6a96369826b317af1,2025-06-06_11h55.21.117,shape_ratio,2024.1.5,Win32,60.0240096,6842b561977af9ba9b0f87ca,,,,,,,,,,,62.652,63.152,63.152,63.402,63.402,63.985,left,0.572,,63.986,65.085,0.0,1.0,1.0,1.0,1.0,0.8,,,,,,,,,,,,,,,,,,,,,,,,,,,,,,,,,,,,,,,,,,,,,,,,,,,,,,,,,,,,,,,,,,,,,,,,,,,,,,,,,,,,,,
,,,,,,,60984a1b0cce76d16c4ca781,6842baf6a96369826b317af1,2025-06-06_11h55.21.117,shape_ratio,2024.1.5,Win32,60.0240096,6842b561977af9ba9b0f87ca,,,,,,,,,,,,,,,,,,,,,,,,,,,,65.085,71.019,space,2.641,,,,,,,,,,,,,,,,,,,,,,,,,,,,,,,,,,,,,,,,,,,,,,,,,,,,,,,,,,,,,,,,,,,,,,,,,,,,,,,,,,
,,,,,,,60984a1b0cce76d16c4ca781,6842baf6a96369826b317af1,2025-06-06_11h55.21.117,shape_ratio,2024.1.5,Win32,60.0240096,6842b561977af9ba9b0f87ca,,,,,,,,,,,71.031,71.519,,,71.77,72.452,left,0.667,,,,,,,,,0.55,,,,,,71.519,71.77,72.452,"[0.049527024148223874,-0.07290848063155463]",100.0,"[-0.07277328540977177,-0.1128394438897125]",100.0,"[0.1473293337243653,-0.10314981248389542]",100.0,"[0.120058552220864,-0.053680999602345514]",100.0,"[0.0030742990559124174,0.07361299147030272]",4.0,"[0.06843484747798899,0.017342216722122356]",100.0,"[-0.11219942074351005,-0.07008373785677796]",4.0,"[-0.06688733907996203,0.18112712790576277]",4.0,"[-0.004063298698078809,-0.046974893331698964]",4.0,"[-0.05977500764970406,-0.18984778789137566]",100.0,"[-0.07109507222129606,0.11243858871470204]",100.0,"[-0.09322083060176965,0.07433417048358328]",100.0,"[0.00041061687387595157,-0.00029744058158898693]",4.0,"[-0.07964205578702302,-0.03115966287262082]",4.0,"[0.051593174940428956,-0.022544328868909475]",100.0,"[0.06935199534650405,0.1863281286583587]",100.0,"[-0.01067461191523395,-0.1601857298942837]",4.0,"[0.16633336049633132,-0.028506241397514467]",4.0,"[-0.15963044224730777,-0.08015890934009269]",100.0,"[-0.15684268034278387,-0.03242668619832257]",100.0,"[-0.16809549689889025,0.08926410579078455]",100.0,"[0.09609488931840342,0.12272557403002138]",4.0,"[0.09317430763454644,-0.09817470669866418]",4.0,"[-0.08111401723786535,0.032531346753887413]",100.0,"[0.11454960166053642,-0.1423766343229511]",4.0,"[0.007461713372247209,0.17310838330192913]",100.0,"[0.18808371816718616,0.05971103964535996]",100.0,"[0.1454082425080553,0.09512664323142106]",4.0,"[-0.12839354756883203,-0.13315465590574396]",100.0,"[-0.1307790493740843,0.00677258888043362]",100.0,"[-0.014152505439972162,0.12921004062770167]",4.0,"[0.02127017127234976,-0.11034944079361807]",4.0,"[0.02,0.02]",73.553,0.0,0.0,0.0,60.0,1.0,,,,,,,
,,,,,,,60984a1b0cce76d16c4ca781,6842baf6a96369826b317af1,2025-06-06_11h55.21.117,shape_ratio,2024.1.5,Win32,60.0240096,6842b561977af9ba9b0f87ca,,,,,,,,,,,73.554,74.052,,,74.303,74.652,left,0.336,,,,,,,,,0.6,,,,,,74.052,74.303,74.652,"[0.029441352165113486,0.055384634626720566]",4.0,"[-0.1659377131212407,0.03980036963539422]",4.0,"[0.07676528859379249,-0.07388848541882141]",100.0,"[-0.06579499380932717,0.08096646035946782]",4.0,"[-0.0654160495486031,-0.054576761515869834]",100.0,"[0.15215396521438013,-0.06770515476122232]",100.0,"[-0.10492480119308321,-0.10170087078955768]",4.0,"[-0.033824839747694714,-0.19119790124125866]",100.0,"[-0.15073387985313122,0.10916574472649439]",100.0,"[-0.028138911793486508,0.17805657053291998]",100.0,"[0.01611203888899504,0.10809628716334975]",4.0,"[-0.06785459190774008,-0.13417141503665728]",100.0,"[0.0018611282867580577,-0.16850549223068798]",100.0,"[0.05342312976601468,-0.010533986391809315]",100.0,"[-0.06436174437956349,0.13322700382156732]",100.0,"[-0.12148112598675495,0.039258882646972595]",100.0,"[0.02918200937900925,0.17977108313210122]",4.0,"[0.07421926841836583,0.12689493366263202]",100.0,"[0.12355120519999531,0.03651761764641694]",4.0,"[0.14213799143824513,0.08983012558232628]",100.0,"[-0.053297579461265086,0.004319191083430719]",4.0,"[-0.12934053842074972,-0.025072865281805603]",4.0,"[0.008804729737055964,-0.022719510476636038]",100.0,"[-0.10915505631382325,0.09085143909687643]",4.0,"[-0.0265366687724102,0.07209702952250767]",4.0,"[0.1558725152350915,-0.027851313481353137]",100.0,"[-0.11179085580960435,-0.15402217573312538]",100.0,"[-0.19257136874005984,-0.013050632242280995]",4.0,"[0.14760162353572043,-0.11121316856065956]",100.0,"[-0.014896748135186143,-0.11268311291987057]",100.0,"[0.1790977525939228,0.019476424774194444]",100.0,"[-0.1007025202697551,0.15568256708572006]",4.0,"[0.02,0.02]",75.752,0.0,1.0,1.0,38.0,1.0,,,,,,,
,,,,,,,60984a1b0cce76d16c4ca781,6842baf6a96369826b317af1,2025-06-06_11h55.21.117,shape_ratio,2024.1.5,Win32,60.0240096,6842b561977af9ba9b0f87ca,,,,,,,,,,,75.752,76.252,,,76.503,76.903,left,0.384,,,,,,,,,0.45,,,,,,76.252,76.503,76.903,"[0.0735067082425978,-0.17453833576619193]",100.0,"[0.14756853592892474,0.09407448698243037]",100.0,"[0.06565493671671327,0.005286921802549275]",4.0,"[-0.1431527518367023,0.1156802272798646]",4.0,"[0.17700959398009852,0.058908650465926755]",100.0,"[-0.09381961738150164,0.130115325382686]",100.0,"[-0.027651763152210598,-0.11191919025489985]",4.0,"[0.14385868281915545,-0.04844429654781666]",4.0,"[-0.10117647711831088,-0.013426033298454244]",4.0,"[-0.05148311661299016,0.02659983039144253]",4.0,"[0.07632179298298168,0.13142884659489368]",100.0,"[-0.1619864361665772,-0.057662687317142754]",4.0,"[-0.1799787749272523,0.07727659303198926]",100.0,"[0.03236480897580484,0.16897252977844274]",100.0,"[0.14394513694210276,-0.120062575219409]",4.0,"[0.06765688525348998,-0.08336543503205135]",100.0,"[-0.05784592645766893,0.172083402380279]",4.0,"[0.00832799843162174,0.0012067356929111562]",4.0,"[-0.12427227897874481,-0.12916319375288376]",100.0,"[-0.07066428146146912,-0.14142200557908477]",4.0,"[-0.10174291173753622,-0.07453828826812332]",4.0,"[-0.02578065496332509,0.1304681767758191]",100.0,"[-0.05591707958827352,-0.051445968375268956]",100.0,"[0.05783118073602472,-0.041299071435158846]",100.0,"[-0.028918445375059162,0.07009592818424865]",4.0,"[0.11563707408991783,-0.14964317661933207]",4.0,"[0.12486145937617302,0.058248702558741865]",4.0,"[-0.08253191955436803,0.06369444730197449]",4.0,"[0.028897939228071254,-0.1217702355889821]",100.0,"[0.12112263006810373,0.012157411752840658]",4.0,"[0.04274142875288459,0.05495949888990694]",4.0,"[0.17139913608204604,-0.08233932261061372]",100.0,"[0.02,0.02]",78.002,0.0,2.0,2.0,139.0,1.0,,,,,,,
,,,,,,,60984a1b0cce76d16c4ca781,6842baf6a96369826b317af1,2025-06-06_11h55.21.117,shape_ratio,2024.1.5,Win32,60.0240096,6842b561977af9ba9b0f87ca,,,,,,,,,,,78.003,78.503,,,78.752,79.186,left,0.422,,,,,,,,,0.55,,,,,,78.503,78.752,79.186,"[-0.07501014923431289,-0.0461254559732034]",100.0,"[0.15715210166431393,0.09746136754259667]",4.0,"[-0.06390542198642936,0.016541661386709854]",4.0,"[0.07126959425487682,-0.15050327137353836]",4.0,"[-0.052074478320195156,0.1415921595390542]",4.0,"[0.10258192855646667,0.11615377348744685]",100.0,"[0.1817750199369452,-0.06825439645408171]",4.0,"[0.034851962012028524,-0.17202584873538007]",100.0,"[-0.02399398881296179,0.09950488334224743]",4.0,"[-0.013896470638902302,0.17982304590363685]",100.0,"[0.11866306760220842,-0.04834453158673495]",100.0,"[-0.05341196279910129,-0.1678051512731689]",4.0,"[0.09997424043742796,0.023224597824212302]",4.0,"[0.12273888798767328,0.05923345820447514]",100.0,"[-0.00876017192522544,-0.14852716653834636]",100.0,"[-0.00017025405777776283,-0.09646782311019939]",4.0,"[-0.1747957087524627,-0.05849658584994271]",100.0,"[-0.1608200956906609,-0.11720482408606317]",100.0,"[0.052292669437906475,0.09624318579629393]",100.0,"[0.11805217831810741,-0.13121937494151723]",100.0,"[-0.17651344865699584,0.04480959023515251]",4.0,"[-0.11845628959743708,-0.10529564514195211]",4.0,"[0.15752436543855727,-0.10706938937586581]",4.0,"[0.05097576258274609,0.012983996799497672]",4.0,"[-0.12523641401315924,0.07022067976256019]",100.0,"[-0.07682958037324537,-0.10255964735619935]",100.0,"[-0.08194224805682976,0.05663926596800172]",100.0,"[-0.007724781920743979,-0.19090073627566692]",100.0,"[0.06194348634976719,0.1853746338219228]",100.0,"[-0.11876693961770803,-0.03573320668320367]",100.0,"[0.009445081090238451,0.07171723396053908]",4.0,"[-0.1914759752871475,-0.010630183327478655]",100.0,"[0.02,0.02]",80.286,0.0,3.0,3.0,78.0,1.0,,,,,,,
,,,,,,,60984a1b0cce76d16c4ca781,6842baf6a96369826b317af1,2025-06-06_11h55.21.117,shape_ratio,2024.1.5,Win32,60.0240096,6842b561977af9ba9b0f87ca,,,,,,,,,,,80.287,80.785,,,81.036,82.536,,,,,,,,,,,0.55,,,,,,80.786,81.036,82.536,"[-0.04679478598110078,0.03545915789633717]",4.0,"[0.11135372847572092,-0.09151121708862307]",100.0,"[0.06896116705490214,0.13696461453406233]",100.0,"[-0.08166397669615263,-0.10469511289795161]",4.0,"[-0.02576447807999527,-0.07658713127739408]",4.0,"[-0.14273316568186084,0.11947706580352228]",100.0,"[0.02138604581356571,0.19481594408182087]",4.0,"[-0.1950255568984229,-0.02047615203926982]",4.0,"[-0.05996825323727421,-0.17252280869014183]",100.0,"[0.09640010403238176,-0.13834008143377632]",4.0,"[-0.08346601760078072,-0.05089068363749865]",4.0,"[-0.03726948580606238,0.1399918086747585]",100.0,"[0.024264075000568718,0.007057057587963576]",100.0,"[0.16043670920616285,-0.0609190993979928]",100.0,"[-0.011796862289066418,0.0713642530097135]",100.0,"[0.03921580906418191,-0.10080474029972467]",4.0,"[0.08022163165697399,0.03737161457160458]",100.0,"[-0.09884189146995849,0.11338333180843038]",100.0,"[-0.12495544928340942,-0.0782565161527764]",4.0,"[0.18016524222507427,0.009918769110724352]",4.0,"[-0.12501817141691557,0.011275823867977774]",4.0,"[0.032677892009151596,0.10811995768758118]",100.0,"[0.00007606080388340849,-0.19348721119984946]",100.0,"[0.0791262419432965,0.08468324165578286]",4.0,"[0.08498930844872035,-0.008200481904290471]",100.0,"[-0.05411239503929255,0.1901055804231164]",4.0,"[0.008503848622434673,-0.05136081191167433]",100.0,"[-0.037630010598583355,-0.03230054341263123]",100.0,"[0.00011105939880067007,-0.11826566931489846]",100.0,"[-0.08452425309478272,0.16225870175993362]",4.0,"[-0.18063243519089223,0.020412321496106913]",100.0,"[0.13993466215850184,0.011216993755752976]",100.0,"[0.02,0.02]",83.636,0.0,4.0,4.0,83.0,1.0,,,,,,,
,,,,,,,60984a1b0cce76d16c4ca781,6842baf6a96369826b317af1,2025-06-06_11h55.21.117,shape_ratio,2024.1.5,Win32,60.0240096,6842b561977af9ba9b0f87ca,,,,,,,,,,,83.636,84.136,,,84.386,85.12,right,0.719,,,,,,,,,0.5,,,,,,84.136,84.386,85.12,"[-0.11637285223045979,-0.015062205930124896]",4.0,"[0.13182669686513304,0.057924206987080784]",100.0,"[-0.12814862995950807,-0.14112453947689485]",4.0,"[-0.14243669757616362,0.10788217569004699]",4.0,"[-0.07813387916402025,-0.17876019367888885]",4.0,"[0.09482663437089683,-0.053016357218979925]",100.0,"[-0.05168139729066946,0.08100981586814357]",4.0,"[0.12504359347241198,-0.01638276966102341]",100.0,"[0.048708643753352744,-0.007953622597718495]",4.0,"[0.017407266837753527,0.10530227836050185]",100.0,"[0.0994906651764638,0.15761385802905317]",4.0,"[-0.12668531591945897,0.042453446744477256]",4.0,"[-0.049339096802790756,0.12519171567023316]",100.0,"[0.14644552298756808,-0.11309590020469738]",100.0,"[-0.17512581119436027,0.05850408672603182]",4.0,"[-0.024169425416327526,0.021150985663965095]",4.0,"[-0.11737626744808126,0.14849971868822542]",100.0,"[0.1551653525489988,-0.06831295962776]",100.0,"[0.0586363576305198,0.06633057138226066]",4.0,"[-0.021483232154928745,-0.024511308899443977]",100.0,"[0.0002763691384758465,0.06456858781982218]",100.0,"[-0.0712900962375143,-0.11317531427081165]",4.0,"[0.1584153253147184,0.09097809746844294]",100.0,"[0.06532668735873068,-0.11631489328149709]",4.0,"[-0.046244024883388246,-0.15435644024704076]",100.0,"[-0.15763287094108194,0.010533810326137939]",100.0,"[-0.16469638743053502,-0.05640143919694045]",4.0,"[0.1811660066725932,0.015375071124465995]",100.0,"[-0.0002501261674534196,0.19962569174842482]",4.0,"[-0.09156807363714718,-0.06870922382550412]",4.0,"[-0.058833451868903645,0.1803230662872808]",100.0,"[0.03705884395344912,-0.14979769133809046]",100.0,"[0.02,0.02]",86.219,0.0,5.0,5.0,91.0,1.0,,,,,,,
,,,,,,,60984a1b0cce76d16c4ca781,6842baf6a96369826b317af1,2025-06-06_11h55.21.117,shape_ratio,2024.1.5,Win32,60.0240096,6842b561977af9ba9b0f87ca,,,,,,,,,,,86.22,86.72,,,86.97,87.486,right,0.501,,,,,,,,,0.9,,,,,,86.72,86.969,87.486,"[-0.0394081672535341,0.03729509462005497]",100.0,"[0.10938256333972608,-0.1208414951147673]",100.0,"[-0.164196506624297,0.06981493103877112]",100.0,"[-0.052068153755673544,-0.09804449824136462]",100.0,"[-0.09090423446868795,0.015522716575655451]",100.0,"[0.034459830839455134,0.012378684489986705]",100.0,"[-0.08260662004036039,0.13649012412504702]",100.0,"[-0.037808253522320395,-0.020451394555681065]",100.0,"[0.055608348228501234,0.08227447072723873]",4.0,"[0.0844800022317372,0.015461530082030087]",100.0,"[0.11755212131842381,0.04690830267039515]",100.0,"[0.13896936892673165,0.11278335074632456]",100.0,"[-0.0017060467967374771,-0.1447120945198699]",100.0,"[0.028163187395219082,0.13279638379698636]",100.0,"[0.1814957168200125,-0.04756368371751873]",100.0,"[0.19729191264877663,0.007580957470887107]",100.0,"[-0.1390883576906392,-0.04343155998278708]",100.0,"[0.04683011432232563,0.1782807516736212]",4.0,"[0.027057995986167985,-0.188687699851696]",100.0,"[0.12942357240699875,-0.0785671392330982]",100.0,"[-0.013390172688135025,0.18904218698234632]",100.0,"[0.08558357555450727,0.15533493774431767]",100.0,"[-0.03861625370055906,0.13472842935233204]",100.0,"[0.045737629006467787,-0.07319469980013522]",4.0,"[-0.15974283517565419,-0.10105162292651872]",100.0,"[0.16464133286714863,-0.10345391951418817]",100.0,"[0.17870228642696057,0.06689353839342711]",100.0,"[-0.0021554461166750413,-0.09500231335733857]",100.0,"[-0.11683109335320678,0.10658428846003663]",100.0,"[0.13598816792515356,-0.02237435430451372]",100.0,"[-0.10970178132279332,-0.0921573218635612]",100.0,"[-0.06472843706877392,-0.16965623048584338]",100.0,"[0.02,0.02]",88.586,0.0,6.0,6.0,13.0,1.0,,,,,,,
,,,,,,,60984a1b0cce76d16c4ca781,6842baf6a96369826b317af1,2025-06-06_11h55.21.117,shape_ratio,2024.1.5,Win32,60.0240096,6842b561977af9ba9b0f87ca,,,,,,,,,,,88.587,89.086,,,89.337,89.953,left,0.6,,,,,,,,,0.45,,,,,,89.086,89.337,89.953,"[0.18027573665035304,0.022669492036671065]",100.0,"[0.0639308129443161,0.13085528394771756]",4.0,"[-0.16815879093364788,0.01230647366003397]",4.0,"[0.08968970651947233,-0.020265133002909465]",4.0,"[-0.17784097991750333,0.07363201873977124]",4.0,"[0.14734197761583304,-0.013128737192729223]",100.0,"[0.1111139893128599,-0.1352109360722178]",4.0,"[-0.10857556565315205,-0.07001334899980483]",100.0,"[-0.07544943832687394,0.10345028199424762]",4.0,"[0.007797565234897644,0.16832682792304274]",4.0,"[-0.06959302198353667,-0.12436366568483966]",4.0,"[-0.04266848060047753,0.05015788885485739]",4.0,"[-0.02940144711452935,-0.1374402932652159]",4.0,"[-0.0223645089069019,-0.02268186845449174]",100.0,"[-0.03994767697169335,0.16497558233666698]",4.0,"[-0.13393772425832612,0.09757737212628403]",100.0,"[0.010591612368890075,-0.06664958233100904]",4.0,"[0.16985088698361306,0.07921639116785133]",4.0,"[0.07019576349757332,-0.09447490740323845]",100.0,"[-0.12050627071666102,0.02189662982532481]",100.0,"[-0.013467789525789321,0.09376652668556903]",100.0,"[-0.08667088269960123,0.05837130261263613]",4.0,"[-0.09492461576384094,0.17180553819204492]",4.0,"[-0.04013330965850057,-0.08576108604319344]",100.0,"[0.04701399298280034,-0.12851105984291958]",100.0,"[0.03491882290020321,-0.014680317760810494]",100.0,"[-0.1281023051165368,-0.03401854116022407]",100.0,"[-0.009765528929009098,0.01848127799572214]",4.0,"[0.04038452912354624,0.09199533023881111]",100.0,"[-0.028796803986830464,-0.18627386340124757]",4.0,"[-0.16496051542105894,-0.05762698111856337]",4.0,"[0.136039854389377,-0.05360275929059092]",100.0,"[0.02,0.02]",91.053,0.0,7.0,7.0,143.0,1.0,,,,,,,
,,,,,,,60984a1b0cce76d16c4ca781,6842baf6a96369826b317af1,2025-06-06_11h55.21.117,shape_ratio,2024.1.5,Win32,60.0240096,6842b561977af9ba9b0f87ca,,,,,,,,,,,91.054,91.553,,,91.803,92.303,left,0.491,,,,,,,,,0.1,,,,,,91.553,91.803,92.303,"[-0.06634480706681853,-0.006825108026576752]",4.0,"[0.021241307212697718,0.0014525388862097902]",4.0,"[-0.12697529795269394,0.054060051856678906]",4.0,"[-0.006409277736969778,0.19080206331497615]",100.0,"[-0.03782065370470664,-0.14297641638346814]",4.0,"[0.13472244028709704,-0.13490318020885425]",4.0,"[-0.0008713140314026659,0.06180738330048682]",4.0,"[0.11694667515569517,0.03994291458975782]",4.0,"[0.06525514751784615,-0.03793862589600839]",4.0,"[-0.12082055705064092,-0.11855565148200835]",4.0,"[0.0684708092932885,-0.17496151449542063]",4.0,"[0.15623027331170197,0.11471315150697242]",4.0,"[0.02913120365564518,0.09008422028979372]",100.0,"[0.04716660835902271,0.17019812707124066]",4.0,"[-0.08557913652546979,-0.16248980233124136]",4.0,"[-0.16229801898989604,0.1083832493568117]",4.0,"[-0.019191016568908457,-0.019902307838293155]",4.0,"[0.16001571568497028,-0.015172805661184511]",4.0,"[0.052347895021807256,-0.07848629216213125]",4.0,"[0.0901552593451129,0.09465050638523342]",4.0,"[-0.053748657192299376,0.17834965594134428]",4.0,"[-0.032515449989448664,-0.07509516634038903]",4.0,"[0.14216610909810568,-0.05613991810558367]",4.0,"[-0.15451393470228061,-0.08751680235069599]",4.0,"[-0.18108311298407573,0.059392628944342274]",4.0,"[0.11318536595347357,-0.09921895523515738]",4.0,"[-0.04927523053368726,0.10243992080784152]",100.0,"[-0.03355528313742358,-0.19068332690231757]",4.0,"[-0.08345111744307131,0.07474962585475353]",4.0,"[0.16127691667712138,0.04320204177723658]",4.0,"[0.1843296221043866,0.0761666965012247]",4.0,"[-0.03476747255777439,0.03092039491935444]",4.0,"[0.02,0.02]",94.058,0.0,8.0,8.0,185.0,1.0,,,,,,,
,,,,,,,60984a1b0cce76d16c4ca781,6842baf6a96369826b317af1,2025-06-06_11h55.21.117,shape_ratio,2024.1.5,Win32,60.0240096,6842b561977af9ba9b0f87ca,,,,,,,,,,,94.059,94.059,,,94.549,95.42,left,0.853,,,,,,,,,0.5,,,,,,94.059,94.549,95.42,"[0.03007330532612354,0.06875098692805032]",4.0,"[-0.07738173320905767,0.065049613059999]",4.0,"[-0.0479415559330792,0.02529280596024918]",100.0,"[-0.12487510011023535,-0.07311512651229347]",100.0,"[0.0032861525990931927,-0.053940431776698584]",4.0,"[-0.11121256647688628,-0.14774088796115367]",4.0,"[-0.09926283242969793,0.16502276580318986]",100.0,"[0.11456927257959267,0.09292803240430296]",100.0,"[-0.06452694965168025,-0.060182110022153096]",100.0,"[-0.13090882150538788,0.13983113513407508]",100.0,"[-0.19054788138958478,0.023353903843357764]",100.0,"[0.011716284814224528,0.1486189957434565]",100.0,"[-0.013343269773930865,0.07233284302251192]",4.0,"[-0.1672169649645195,-0.10592113673380599]",4.0,"[0.10031702398125747,0.04364644541605188]",100.0,"[-0.17233985189069825,0.06691802174578906]",4.0,"[-0.017071090058515374,-0.12310049306251121]",100.0,"[0.061103691926272116,-0.16375748487589148]",4.0,"[-0.013622894046124802,-0.18400121958551413]",100.0,"[0.014642224167689033,-0.15477241982934736]",4.0,"[0.13161531882910665,-0.1231567021512502]",4.0,"[0.1370933465689232,-0.031347271594802543]",4.0,"[0.1040228346020256,-0.0083918045417846]",4.0,"[0.03711152850121126,-0.1061043470475292]",100.0,"[0.17561132272495247,0.011329495278522918]",100.0,"[0.1642525130349176,-0.08799803987550416]",4.0,"[-0.032414291208700326,0.131449792666233]",100.0,"[0.09030114229923708,-0.05846111991279972]",100.0,"[0.08227925575606163,0.1732066292279425]",4.0,"[-0.10818416799609291,0.10276796769242565]",100.0,"[0.05226713564936941,0.027480367646774695]",4.0,"[0.04336211069137843,0.12260726867706102]",4.0,"[0.02,0.02]",96.52,0.0,9.0,9.0,100.0,1.0,,,,,,,
,,,,,,,60984a1b0cce76d16c4ca781,6842baf6a96369826b317af1,2025-06-06_11h55.21.117,shape_ratio,2024.1.5,Win32,60.0240096,6842b561977af9ba9b0f87ca,,,,,,,,,,,96.521,97.02,,,97.27,98.054,left,0.768,,,,,,,,,0.9,,,,,,97.02,97.27,98.054,"[0.14257384646738824,0.09016557283487209]",100.0,"[0.07385159272738771,-0.08403003240010341]",100.0,"[0.11696845502460962,0.002881875004578238]",100.0,"[0.11323620763736318,-0.04169363350196477]",100.0,"[-0.08992714286963328,0.0037002238856569435]",100.0,"[-0.06965702204062858,-0.18388905317307921]",100.0,"[0.12210511789988517,-0.12545993434577318]",4.0,"[0.03851405658888541,0.10463773736724541]",4.0,"[0.03570424032504916,-0.17152628128340552]",100.0,"[0.07012974196309801,-0.038522112383166884]",100.0,"[0.05496075757178927,0.03406650532137146]",100.0,"[-0.16703189346973846,0.018940730070606974]",100.0,"[-0.051736639737745664,0.16667787236664205]",100.0,"[-0.1473137680535878,-0.1153478012307678]",100.0,"[-0.0861166771056492,-0.05600303257386274]",100.0,"[-0.1217050329947224,-0.03057328499567545]",100.0,"[-0.012469953134417665,0.1452575453088319]",100.0,"[0.19212596866442175,0.0009592025902908184]",100.0,"[-0.01236325479763617,-0.1127590321838412]",100.0,"[-0.14235997030434666,0.05812164963034595]",100.0,"[-0.10889199864483208,0.08107140685160447]",100.0,"[-0.1100613398884475,-0.1384540080877481]",100.0,"[-0.16431897547164662,-0.04322684388902218]",4.0,"[0.08045541565959076,0.18199870331342827]",100.0,"[-0.11807190059914326,-0.08429763866622945]",100.0,"[0.01291847336759276,0.17700276483500882]",100.0,"[-0.11090826058801567,0.12469767744809365]",100.0,"[0.1787026157785014,-0.08912218054240807]",100.0,"[-0.044639203794837955,0.06528489606930916]",100.0,"[0.09662381699569618,0.14040721052051336]",100.0,"[0.14111941380142237,0.13964310260430013]",100.0,"[-0.02803208824195017,-0.037030403579832685]",100.0,"[0.02,0.02]",99.154,0.0,10.0,10.0,29.0,1.0,,,,,,,
,,,,,,,60984a1b0cce76d16c4ca781,6842baf6a96369826b317af1,2025-06-06_11h55.21.117,shape_ratio,2024.1.5,Win32,60.0240096,6842b561977af9ba9b0f87ca,,,,,,,,,,,99.154,99.654,,,99.903,100.637,left,0.718,,,,,,,,,0.1,,,,,,99.654,99.903,100.637,"[-0.1311326723228519,0.07747813363525154]",4.0,"[-0.0017891748540992474,-0.07219461151833091]",4.0,"[0.08973988637312949,-0.13837937813938148]",4.0,"[0.1912240816594871,0.006538346426737159]",4.0,"[-0.0010825252098932685,0.15557576069999632]",4.0,"[-0.11859230661351994,-0.07510242581084227]",4.0,"[0.060771783667813176,0.08533833267221348]",4.0,"[0.01084592460390216,-0.0023740910000715435]",4.0,"[-0.00005781242700822841,0.10560053933743742]",4.0,"[0.06866305365285519,-0.05372158582845852]",4.0,"[-0.04801080462718191,0.04342281193781377]",4.0,"[-0.11180362491477883,-0.006882444068489489]",4.0,"[-0.17843364514341575,-0.04013994712449308]",4.0,"[-0.06705462755925165,-0.06767172996388061]",4.0,"[-0.06176385972754129,0.1441745794006243]",4.0,"[-0.18307293974324332,0.04173587174267699]",100.0,"[0.03718146169974545,0.17112927652462814]",4.0,"[-0.10711343208679718,-0.13584123892059918]",4.0,"[0.13243689356974578,0.08673146296213115]",4.0,"[0.06983352566455577,-0.010053488710144535]",4.0,"[0.07293066109461646,0.1295322050338867]",4.0,"[0.11701960539296893,-0.05650256597685965]",4.0,"[-0.09599145520803105,0.16564283814076683]",4.0,"[0.04216782991778483,0.04622109464371183]",4.0,"[-0.016552255331258287,0.19756786639504895]",4.0,"[-0.05279300542635323,-0.15611499061908585]",4.0,"[-0.007313467000203594,-0.12793192795965752]",4.0,"[0.04773580711021406,-0.17656108478007027]",4.0,"[0.13783653555798098,-0.018263887106322856]",4.0,"[0.039742555048815575,-0.1208272262362056]",100.0,"[0.16634482974759637,-0.07751731693759596]",4.0,"[-0.08955741023422435,0.052994970127151195]",100.0,"[0.02,0.02]",101.737,0.0,11.0,11.0,188.0,1.0,,,,,,,
,,,,,,,60984a1b0cce76d16c4ca781,6842baf6a96369826b317af1,2025-06-06_11h55.21.117,shape_ratio,2024.1.5,Win32,60.0240096,6842b561977af9ba9b0f87ca,,,,,,,,,,,101.737,102.237,,,102.487,103.453,left,0.95,,,,,,,,,0.9,,,,,,102.237,102.487,103.453,"[-0.07389508468913455,0.1366277410998033]",100.0,"[-0.02807900680362769,-0.10561365134072613]",100.0,"[0.026269455765976803,-0.16253423315293206]",100.0,"[0.032088119657702946,0.13825563256853787]",100.0,"[-0.08988881681253146,-0.14518878013512296]",100.0,"[0.08978140888863739,-0.048864514839803135]",100.0,"[-0.12193238353405995,0.08568775817345331]",100.0,"[0.15868152576134067,0.04291437899874141]",100.0,"[-0.08527196687280672,-0.021208866042485158]",4.0,"[0.11273573102797961,0.0492068334217357]",4.0,"[-0.14504805761661835,-0.1161914660576039]",100.0,"[-0.14293452865635553,-0.047279340771332654]",100.0,"[0.08546023211812352,-0.1667702056063124]",100.0,"[0.1551080676413102,-0.12405034663088473]",100.0,"[0.13469158448664578,0.0033095201579601695]",100.0,"[-0.1496228653349332,0.01530923917249618]",100.0,"[-0.1415911557330804,0.12586448176172066]",100.0,"[0.17210378046389516,-0.036067109463571397]",100.0,"[-0.07784671111308852,0.09399459298776307]",100.0,"[0.07745202149371357,0.0924198639978201]",100.0,"[0.12138044888915497,-0.07367921606014066]",100.0,"[-0.0696983965460944,0.04949093483297115]",100.0,"[0.03467840120245336,0.033832940699018176]",100.0,"[-0.020874736291426856,0.10386495662788545]",100.0,"[-0.09873223425309983,0.01794016053788374]",100.0,"[0.0439660072298605,-0.1264306097770331]",100.0,"[0.11286417756472002,0.1136038149465998]",100.0,"[0.012929745054776938,0.1970680380240469]",100.0,"[0.15595342811541896,0.09657629474790484]",4.0,"[-0.034933531900547383,-0.052952596605197744]",100.0,"[0.018176087243808176,-0.05930207230769546]",100.0,"[0.09781522217419504,-0.11386676961325595]",100.0,"[0.02,0.02]",104.554,0.0,12.0,12.0,14.0,1.0,,,,,,,
,,,,,,,60984a1b0cce76d16c4ca781,6842baf6a96369826b317af1,2025-06-06_11h55.21.117,shape_ratio,2024.1.5,Win32,60.0240096,6842b561977af9ba9b0f87ca,,,,,,,,,,,104.554,105.054,,,105.304,105.921,left,0.601,,,,,,,,,0.4,,,,,,105.054,105.304,105.922,"[-0.1288060291340116,-0.09584537689935473]",4.0,"[-0.1664327330111581,-0.006467030635204826]",4.0,"[0.10702939162423343,-0.08061705676845614]",4.0,"[0.18391741326279282,-0.030132000406356618]",100.0,"[0.04078696745225759,0.1932870610096996]",4.0,"[-0.034301846223225026,0.1933193627561794]",100.0,"[0.07535346160884634,0.03255008193471112]",100.0,"[0.019756751593580642,0.06616330689178081]",4.0,"[0.12090650518128819,0.15013307811682008]",4.0,"[0.034194028231713115,0.1491049890919407]",100.0,"[-0.02668422315474067,-0.022996126691602545]",100.0,"[-0.02476436393246293,0.13694759069030504]",4.0,"[-0.06804226784126814,-0.15371322974181717]",100.0,"[-0.049212927865001053,0.07682035489587118]",4.0,"[0.051216095520849096,-0.09535637272162982]",4.0,"[0.1157151990693046,0.027250577846064255]",4.0,"[-0.06723915835628773,-0.06663583144431247]",4.0,"[0.19005865019638155,0.04977560038131751]",4.0,"[0.004908523268782826,0.008238819045214875]",100.0,"[-0.1230614072673754,-0.03586865430555575]",100.0,"[0.011440408366942299,-0.17743834051708124]",4.0,"[0.13579190728565438,-0.14096252223626424]",100.0,"[0.04335281581210398,-0.05265680254314632]",4.0,"[-0.10175380642041267,0.08648462966708319]",100.0,"[-0.08670498307107612,-0.11375234097788144]",4.0,"[-0.10430380618937449,0.16629441479247298]",100.0,"[0.011946368460754857,0.10849698829632504]",4.0,"[-0.1098918065676416,0.011004589637023743]",100.0,"[0.08529429823544692,-0.14321503745139222]",4.0,"[0.1410939591034106,-0.01732392473792387]",100.0,"[0.11518651098913485,0.08414997714479482]",4.0,"[0.007220498307081469,-0.12493776655840336]",4.0,"[0.02,0.02]",107.02,0.0,13.0,13.0,177.0,1.0,,,,,,,
,,,,,,,60984a1b0cce76d16c4ca781,6842baf6a96369826b317af1,2025-06-06_11h55.21.117,shape_ratio,2024.1.5,Win32,60.0240096,6842b561977af9ba9b0f87ca,,,,,,,,,,,107.023,107.521,,,107.771,108.871,left,1.091,,,,,,,,,0.5,,,,,,107.521,107.771,108.871,"[-0.17110969013446625,0.08914542498880035]",4.0,"[-0.06937404568520006,0.03731890363029012]",100.0,"[0.09701691881149987,-0.05036545974514157]",4.0,"[-0.05712371652806742,-0.15913916462660094]",100.0,"[0.14027037405750578,0.13608370042675694]",4.0,"[0.04368130919639892,-0.1938511144771242]",100.0,"[-0.08700872969599273,0.0005177428348556021]",100.0,"[0.05725250580292569,0.05751337565920159]",4.0,"[0.11774456614181471,-0.011528270532331231]",4.0,"[0.011599796729709063,0.007172031633509547]",100.0,"[0.14455305941760915,0.08513853210340762]",4.0,"[-0.09891742414292534,-0.16831180405173543]",100.0,"[0.15014452305540887,0.030026583141507843]",100.0,"[0.03176811465494819,-0.09916774164200079]",100.0,"[0.09322167678533282,0.07737026407449105]",4.0,"[0.012472706758997386,-0.14647448441534547]",100.0,"[0.18888966359860646,0.007177959728520611]",100.0,"[-0.08890738868267074,0.07711433755371412]",4.0,"[-0.13274210920687043,-0.016248944059163023]",100.0,"[-0.03391101396490729,-0.07761222787192311]",4.0,"[-0.057654120954151525,-0.04174155424122991]",100.0,"[-0.14517648773154315,0.12269443982476176]",4.0,"[0.09657713250338266,-0.11415517809286609]",100.0,"[0.005190033646834702,0.06919566773918245]",100.0,"[0.043267324410759665,0.18514493218686884]",4.0,"[0.18451862324465185,-0.03843574686343767]",100.0,"[-0.032625921964774277,0.19385176065887585]",4.0,"[0.013631695190591963,-0.0521815541271927]",100.0,"[-0.03500203901416984,0.07648167956530486]",4.0,"[0.14366159405537698,-0.13306303682365025]",4.0,"[-0.10977712817411436,0.15490506894369796]",4.0,"[-0.032029222314306174,0.01588551374575373]",4.0,"[0.02,0.02]",110.395,0.0,14.0,14.0,114.0,1.0,,,,,,,
,,,,,,,60984a1b0cce76d16c4ca781,6842baf6a96369826b317af1,2025-06-06_11h55.21.117,shape_ratio,2024.1.5,Win32,60.0240096,6842b561977af9ba9b0f87ca,,,,,,,,,,,110.395,110.59,,,110.599,111.17,left,0.562,,,,,,,,,0.9,,,,,,110.59,110.599,111.171,"[0.18490590668445359,-0.03366593072864836]",100.0,"[0.1314961086525769,0.010816561876860309]",100.0,"[-0.035407917922633245,-0.09507301049860027]",100.0,"[0.0873772184680381,-0.14037933505785777]",4.0,"[-0.1841338842875537,0.005350745746870104]",100.0,"[-0.07650377497910937,-0.07607693707983086]",100.0,"[0.026766699890845683,-0.1627783507403985]",100.0,"[0.10369020560723223,0.1598508711819264]",100.0,"[-0.1012544172572414,0.07437981324702737]",100.0,"[0.05634380135814479,0.09556827480083606]",4.0,"[0.10062521393979079,0.11599575158086067]",100.0,"[-0.07072386895156856,-0.14201913483523837]",100.0,"[0.12724834256929948,-0.11856016342232759]",100.0,"[-0.1823086293587104,-0.06954736884596796]",100.0,"[-0.013932106586843039,-0.17806342355312577]",4.0,"[-0.06559272844352719,0.00911701870604352]",100.0,"[0.013318201392748166,0.18381407878050487]",100.0,"[-0.005248095307507738,0.09918757689605706]",100.0,"[0.013356513464961374,-0.002066758268046184]",100.0,"[0.16671549959459217,-0.0897110191384377]",100.0,"[-0.13646789647141686,0.11587425063990836]",100.0,"[-0.05411774146061101,0.16172014842695775]",100.0,"[-0.10844599615759565,0.1566535818531082]",100.0,"[-0.17703410369255246,0.06335375123864512]",100.0,"[-0.09677747887504223,-0.027798841257055687]",100.0,"[0.14231766571976356,-0.033481868482481754]",100.0,"[0.07178451583912751,-0.02855185144039938]",100.0,"[0.10851672917401153,-0.06362228024309344]",100.0,"[0.1701980696595706,0.05263657617232249]",100.0,"[-0.019587332614701247,0.028468364718130613]",100.0,"[0.05228799334861202,0.161053450220923]",100.0,"[0.10822609036901375,0.05995081219494511]",100.0,"[0.02,0.02]",112.271,0.0,15.0,15.0,0.0,1.0,,,,,,,
,,,,,,,60984a1b0cce76d16c4ca781,6842baf6a96369826b317af1,2025-06-06_11h55.21.117,shape_ratio,2024.1.5,Win32,60.0240096,6842b561977af9ba9b0f87ca,,,,,,,,,,,112.271,112.771,,,113.021,113.904,right,0.867,,,,,,,,,0.9,,,,,,112.771,113.021,113.904,"[0.062169592097206246,-0.16110623088909387]",100.0,"[-0.006495760089746472,-0.064302109387861]",100.0,"[0.17246010790413674,-0.07503658108900473]",100.0,"[-0.04560842013323147,-0.00919801304142434]",100.0,"[-0.011753418610364413,-0.11435917888823395]",100.0,"[-0.16387057852038353,0.05898910415455414]",100.0,"[-0.14969637915336972,-0.10176145116239378]",100.0,"[-0.12216451610726618,-0.057243744083600584]",100.0,"[0.14727441450559206,-0.02803514149779633]",4.0,"[-0.09537971360541588,-0.16168095422692833]",100.0,"[0.046566166987016724,-0.11347236610332083]",100.0,"[0.04565811796772546,0.008650623083566455]",100.0,"[0.1242585804726642,0.07859331176078821]",100.0,"[-0.11385861922668361,0.10687818825924705]",100.0,"[0.13530769183531577,-0.1189533853464438]",100.0,"[-0.05690229550723358,-0.05713292452645913]",100.0,"[0.11033423796831467,0.004035078936938925]",4.0,"[0.0031829060320452476,-0.1966027410487853]",100.0,"[-0.050980567153009276,-0.19289124325129461]",100.0,"[-0.1846914062183731,-0.02625097867895227]",100.0,"[-0.06745028134253295,0.045449461108109664]",100.0,"[0.06508005823458973,0.13556358805218427]",100.0,"[0.01134963528891039,-0.0140881459702368]",100.0,"[-0.12397860395256154,0.03966935474602109]",4.0,"[0.12653102164491586,0.13799278550093597]",100.0,"[0.04699072045761487,-0.03889260709407389]",100.0,"[0.027762303421342394,0.07487984067245945]",100.0,"[-0.0361594533271686,0.19459192880206916]",100.0,"[-0.015209967250858308,-0.15895164628761027]",100.0,"[0.14906006733429872,0.028018679516676394]",100.0,"[-0.06140405857073093,-0.13208134905225383]",100.0,"[-0.10686761314380552,0.15907079664837045]",100.0,"[0.02,0.02]",115.004,0.0,16.0,16.0,15.0,1.0,,,,,,,
,,,,,,,60984a1b0cce76d16c4ca781,6842baf6a96369826b317af1,2025-06-06_11h55.21.117,shape_ratio,2024.1.5,Win32,60.0240096,6842b561977af9ba9b0f87ca,,,,,,,,,,,115.004,115.505,,,115.755,116.638,left,0.868,,,,,,,,,0.5,,,,,,115.505,115.755,116.638,"[-0.10015116321878634,0.01579969378428988]",4.0,"[-0.08447094551787022,0.1702150642818232]",4.0,"[0.13252489629623004,0.06317009373381835]",100.0,"[0.00921090094774685,-0.050805516281164836]",4.0,"[0.1258984630910689,0.13383380778549533]",100.0,"[0.03729988140784777,0.10272877397204917]",100.0,"[0.12030195243484565,-0.08159293047449627]",100.0,"[-0.10180163459297148,-0.06765026155952227]",4.0,"[0.07647164952055276,-0.15249612594635906]",4.0,"[-0.028298204091848675,0.13613042198424544]",100.0,"[-0.14924648574339602,-0.1220481185719734]",4.0,"[0.1874768632082413,-0.01888591468700955]",4.0,"[0.03490093289301748,-0.1742929436931309]",100.0,"[-0.10647634117532397,0.09460672107902163]",4.0,"[-0.08629231536409099,-0.17697482867959638]",4.0,"[-0.06831785101611013,-0.1287448931000512]",100.0,"[0.062270648211387426,0.007330105355819335]",100.0,"[-0.020982686509574775,0.05860454299861638]",100.0,"[0.1647448750186393,0.10539706826947622]",4.0,"[-0.17874366571551625,0.08850430971657228]",4.0,"[-0.11004574345677601,-0.13580011665535038]",100.0,"[-0.013542613175470994,0.1957261545073577]",100.0,"[0.09943574330806457,0.1698472025665553]",100.0,"[-0.14253869742960515,0.05642110407975642]",4.0,"[0.022350730684329218,-0.11008888486653826]",4.0,"[0.16976824938437265,-0.09769358392799728]",4.0,"[-0.15934333948966292,-0.020800428430899846]",4.0,"[0.038895542896020034,0.1518492031219678]",100.0,"[-0.16276914370921433,-0.06621631030436921]",100.0,"[0.018731669214722305,-0.004536130217146467]",100.0,"[0.1426679047458885,-0.029482279544386224]",4.0,"[-0.02486898858112429,-0.02562512582628104]",100.0,"[0.02,0.02]",119.108,0.0,17.0,17.0,98.0,1.0,,,,,,,
,,,,,,,60984a1b0cce76d16c4ca781,6842baf6a96369826b317af1,2025-06-06_11h55.21.117,shape_ratio,2024.1.5,Win32,60.0240096,6842b561977af9ba9b0f87ca,,,,,,,,,,,119.108,119.108,,,119.116,119.471,left,0.35,,,,,,,,,0.9,,,,,,119.108,119.116,119.471,"[0.04558094386974703,-0.16711722979127128]",100.0,"[-0.13995509202254877,-0.0065303469182497464]",100.0,"[0.010975923664068021,0.10687873441629661]",100.0,"[-0.1673841896944726,0.0538398839215718]",100.0,"[-0.10116542161321705,-0.08333694766996874]",4.0,"[0.037607785006291056,0.0703368855288649]",100.0,"[0.19505264947439424,-0.032947625618364604]",4.0,"[-0.03159480179567927,0.19746697860940932]",100.0,"[-0.022307199337171336,0.030623462429016764]",4.0,"[-0.024117956268336974,-0.059894879288974065]",100.0,"[-0.152487347830686,-0.07593857663207315]",100.0,"[-0.03639864898459935,-0.011257857782851727]",100.0,"[-0.15055445472105267,0.11152838440349262]",100.0,"[0.11742586474097003,0.10394485770532129]",100.0,"[0.15812441963479434,-0.08304106467424069]",100.0,"[0.039959311616164575,-0.10027545572001997]",100.0,"[-0.07347142176729884,0.1079403178241804]",100.0,"[0.10263996282187302,-0.12419281223566637]",100.0,"[0.17824851760800914,0.02981755335752282]",100.0,"[-0.08913038972875241,-0.018210666086848522]",100.0,"[0.0926391400352435,0.025385996639927327]",100.0,"[0.03426626294453197,-0.005024518668990929]",100.0,"[-0.08886349140247846,-0.12142973792967204]",100.0,"[0.01592859706354856,-0.13412255987525368]",100.0,"[0.07162368595283677,0.16049532418875312]",100.0,"[-0.13499097653279749,-0.13080405726132835]",100.0,"[0.15748356715275863,0.09601444726042946]",100.0,"[-0.024169812196413152,0.15008824883078514]",100.0,"[-0.028339675780489865,-0.11086939243578471]",100.0,"[0.11215963333993538,-0.03394530827621656]",100.0,"[-0.07019246328727458,0.035533450017545314]",100.0,"[0.05004897625755057,-0.0584369104963203]",100.0,"[0.02,0.02]",120.571,0.0,18.0,18.0,5.0,1.0,,,,,,,
,,,,,,,60984a1b0cce76d16c4ca781,6842baf6a96369826b317af1,2025-06-06_11h55.21.117,shape_ratio,2024.1.5,Win32,60.0240096,6842b561977af9ba9b0f87ca,,,,,,,,,,,120.572,121.071,,,121.322,121.921,left,0.584,,,,,,,,,0.6,,,,,,121.071,121.322,121.921,"[-0.001982505475541934,-0.005065894741307187]",100.0,"[0.00975664661062758,-0.14865683490100493]",100.0,"[0.1445598643089675,-0.08885001534288317]",100.0,"[-0.04644450612967656,0.12984034075851705]",100.0,"[0.02576248846379277,-0.0732180652171797]",4.0,"[-0.1867139622422386,-0.02126234023315465]",4.0,"[-0.03258932878028495,0.022963353021676448]",4.0,"[0.11495115187277131,0.07786241063268295]",100.0,"[0.11654200937225531,-0.04576844816212317]",4.0,"[0.07537612612055014,0.0017593539209096567]",4.0,"[-0.06743067883805794,-0.037366397924196944]",4.0,"[-0.09995620553213398,0.1478553806032667]",100.0,"[-0.1549054020480754,0.03034481654266287]",100.0,"[0.1332852955740316,-0.12853947640651428]",100.0,"[0.164786176721195,0.019337410361244693]",100.0,"[-0.10699475717687597,-0.1356209257405463]",100.0,"[-0.019622654911953082,-0.045018369214065594]",100.0,"[0.03984601640458521,0.16721682428731857]",4.0,"[0.050738947653542615,0.0399181901480466]",100.0,"[0.06592076033585992,0.13201553185076492]",100.0,"[0.04452198101550796,-0.12385748770640041]",100.0,"[-0.08490633278763073,0.08393012414834244]",4.0,"[-0.029624518513903735,-0.18780324787275043]",4.0,"[-0.12515222486813138,0.06658011217174047]",4.0,"[-0.018117408152363283,-0.08673573286774096]",100.0,"[-0.11026711409218122,0.01437329318440138]",4.0,"[0.11403251395919241,0.14809541579326296]",100.0,"[-0.10598258988732798,-0.02661175368769174]",4.0,"[-0.05013118325376464,0.1860652981125328]",100.0,"[0.18111242953810142,0.07920896011980806]",100.0,"[0.038812047633050184,0.08318227146248636]",100.0,"[-0.17394109290785448,-0.09596509419918998]",4.0,"[0.02,0.02]",123.021,0.0,19.0,19.0,55.0,1.0,,,,,,,
,,,,,,,60984a1b0cce76d16c4ca781,6842baf6a96369826b317af1,2025-06-06_11h55.21.117,shape_ratio,2024.1.5,Win32,60.0240096,6842b561977af9ba9b0f87ca,,,,,,,,,,,123.021,123.522,,,123.772,124.338,left,0.556,,,,,,,,,0.45,,,,,,123.522,123.772,124.338,"[-0.06323124105868703,-0.12860871054714842]",100.0,"[0.16977523731129018,0.05207811954666855]",4.0,"[-0.16929018779508145,0.009178068975683996]",100.0,"[-0.14876741708494964,0.12084287692155787]",100.0,"[0.005639988776958425,-0.008896058940930535]",4.0,"[0.15093157677151525,-0.052864396358005813]",100.0,"[-0.009405818327046886,-0.10351172405764968]",100.0,"[-0.033290901837736364,0.13592996893316128]",100.0,"[0.09740312222591982,-0.13682373344149865]",4.0,"[-0.16269125649709645,-0.1076699246961844]",100.0,"[-0.05906832627357246,0.18010814599921582]",4.0,"[0.045541051367545674,0.13645125160565033]",4.0,"[0.029016872245202198,-0.11870758996013579]",4.0,"[-0.09615640192166865,0.1408068128170311]",4.0,"[0.08791831945747383,0.017223797609732645]",4.0,"[-0.07186628277209357,0.053520312520927024]",4.0,"[0.009819099371129996,-0.15681750441153045]",4.0,"[0.12391991547576733,0.03727722571708766]",100.0,"[-0.08161848887355454,-0.03363507863349506]",100.0,"[0.007040701925979496,0.07785832469902451]",100.0,"[0.05238204927685588,0.07876144903763889]",100.0,"[-0.16335507644779385,0.05315532899607773]",4.0,"[-0.016954297475900604,0.19148205435571725]",100.0,"[0.15690597944529044,-0.009731011790403442]",4.0,"[0.10756881153540072,0.16772640513468834]",4.0,"[-0.10631308605209953,-0.1562701820949578]",4.0,"[-0.12606903028924796,-0.05445854282162084]",4.0,"[0.10176709797886564,-0.04788998150682786]",100.0,"[-0.10722461770175072,0.08530755066846943]",100.0,"[-0.12279281735613831,-0.0006524386743468307]",4.0,"[0.06310567352963621,-0.03346737151575721]",4.0,"[0.12340151604073858,0.10425628465759855]",4.0,"[0.02,0.02]",126.254,0.0,20.0,20.0,127.0,1.0,,,,,,,
,,,,,,,60984a1b0cce76d16c4ca781,6842baf6a96369826b317af1,2025-06-06_11h55.21.117,shape_ratio,2024.1.5,Win32,60.0240096,6842b561977af9ba9b0f87ca,,,,,,,,,,,126.255,126.255,,,126.263,126.888,left,0.612,,,,,,,,,0.9,,,,,,126.255,126.263,126.888,"[-0.12201888446001134,0.07775470257929212]",4.0,"[0.15221759333234508,0.0514138483587709]",100.0,"[-0.021008741410791117,0.12530612408133512]",100.0,"[0.028771385598771085,-0.16264219254578569]",100.0,"[0.15628784100534696,-0.023245590854210827]",100.0,"[0.06617554193508272,0.17815329833028165]",100.0,"[-0.12902077201433085,-0.07763707845750356]",100.0,"[0.05724102215975004,0.10563302991232926]",100.0,"[-0.09945006661645386,0.14740169468687062]",100.0,"[-0.06178695963852978,-0.14136427813098457]",100.0,"[-0.03545069712010893,-0.19627455975731686]",100.0,"[-0.17027066905919436,0.030108948931489635]",100.0,"[0.14885164388752967,-0.08308233264165778]",100.0,"[0.04466750380053387,-0.11320397161841603]",4.0,"[0.10564555068029571,-0.13079324018676805]",100.0,"[-0.18442488218137953,-0.05783895531761521]",100.0,"[0.0163839878100467,0.042326097093451184]",100.0,"[0.06287305079401403,0.05735233828476536]",100.0,"[0.09819023561465638,-0.010873725084595661]",100.0,"[-0.02291621539888539,-0.10838133300882585]",100.0,"[0.16172030254903383,0.09909151528830551]",100.0,"[-0.05168067062118881,0.1687006204115578]",100.0,"[-0.004451143978000022,-0.03383979308004742]",100.0,"[-0.06532457073203582,0.022674838192719694]",100.0,"[-0.06693943724279935,0.0953352928478814]",100.0,"[0.10712049272363382,0.11420894034604238]",100.0,"[0.03462669301130834,-0.05092940692458858]",100.0,"[-0.14980665794070136,-0.02059713702309687]",100.0,"[0.09384612109929198,-0.17601123310967112]",4.0,"[-0.13894385004394055,0.11818834740119358]",100.0,"[-0.13949017255573581,-0.12502523116407935]",100.0,"[-0.057358957247050896,-0.021767601073022478]",100.0,"[0.02,0.02]",127.988,0.0,21.0,21.0,12.0,1.0,,,,,,,
,,,,,,,60984a1b0cce76d16c4ca781,6842baf6a96369826b317af1,2025-06-06_11h55.21.117,shape_ratio,2024.1.5,Win32,60.0240096,6842b561977af9ba9b0f87ca,,,,,,,,,,,127.988,128.488,,,128.739,129.388,left,0.637,,,,,,,,,0.4,,,,,,128.488,128.739,129.388,"[0.04755256056239355,0.05558974785431064]",100.0,"[0.0742240934041263,-0.054839175010310985]",4.0,"[0.13219766777367473,0.02169391312058776]",4.0,"[-0.01729698993014545,0.140992717679328]",100.0,"[-0.08827251855866024,-0.152690342305803]",100.0,"[0.0025814423699317772,-0.0870706593216277]",100.0,"[-0.12912658625936627,0.0800699313639736]",4.0,"[-0.17090734725649112,-0.0693624918569005]",100.0,"[-0.12289768746940936,-0.07448871331263267]",100.0,"[0.05803681007404498,0.10383307357293371]",100.0,"[-0.0794689605805364,0.043936234134911316]",4.0,"[-0.15254379067809484,0.028769687132818595]",100.0,"[0.035896376366537,-0.043140897166875546]",4.0,"[-0.0736904169481379,0.13468908690941764]",100.0,"[-0.019243765474936676,0.07421466075872026]",4.0,"[-0.004494967525199947,-0.025873532730031058]",4.0,"[0.051164900599913465,0.1799762252251851]",4.0,"[0.012049213957427581,-0.1450271019440398]",4.0,"[-0.0025247513379975848,0.035301419055189284]",4.0,"[-0.1350303089132479,-0.12870964789927167]",4.0,"[0.09671324780574951,0.14051192914251226]",4.0,"[0.18312246020766854,0.0564859368322184]",4.0,"[0.044467836178998216,-0.18120410078769156]",100.0,"[0.12207593659120453,-0.0988323355423879]",4.0,"[0.17329646202822852,-0.03667737813595909]",4.0,"[-0.08260637308726927,-0.10838902037150291]",4.0,"[0.1367575600532151,0.1190926358400725]",100.0,"[0.09554446214608302,-0.15913411216461465]",4.0,"[-0.03216276788426925,-0.18633428532100088]",4.0,"[-0.11662490405812848,0.14063656156605778]",100.0,"[-0.06389736246427194,-0.020527299365952673]",100.0,"[-0.06763894692530437,-0.06456245034900317]",4.0,"[0.02,0.02]",130.488,0.0,22.0,22.0,152.0,1.0,,,,,,,
,,,,,,,60984a1b0cce76d16c4ca781,6842baf6a96369826b317af1,2025-06-06_11h55.21.117,shape_ratio,2024.1.5,Win32,60.0240096,6842b561977af9ba9b0f87ca,,,,,,,,,,,130.489,130.988,,,131.239,131.889,left,0.641,,,,,,,,,0.55,,,,,,130.988,131.239,131.889,"[-0.18123020014837116,0.014231366152575833]",100.0,"[0.0349851204981184,0.18538502115090866]",100.0,"[0.10173264954282261,-0.13561734897733574]",100.0,"[0.1685790442010178,-0.08527454447436524]",100.0,"[0.09059290523451947,-0.17605277803937563]",4.0,"[0.17613907886388414,-0.018640914981866426]",4.0,"[-0.05379447926053425,-0.10237655711225686]",4.0,"[0.11068155157458771,-0.03266599722911388]",100.0,"[-0.07809628457475526,-0.02829464081348166]",100.0,"[0.05847894326718596,-0.016922155965444052]",4.0,"[-0.13472749823897995,0.09531013348242169]",4.0,"[-0.10631145160043418,0.0323744872765596]",100.0,"[0.14841996750266606,0.016869452582099292]",4.0,"[-0.03782350024632846,0.11678481255223665]",4.0,"[-0.029949306641154708,0.04983217825304704]",4.0,"[0.005157924871274385,0.08966807214667438]",100.0,"[-0.02161031632244673,-0.19386109618130748]",4.0,"[-0.1048505942388457,0.1406062382360567]",100.0,"[0.10716912778714578,0.019293707342953596]",100.0,"[0.025247182509199145,-0.07417731338706346]",100.0,"[-0.06837179130271034,0.17495593192389036]",100.0,"[-0.1598259576086042,0.06003123124316709]",100.0,"[0.1611169755482017,0.0959206312406537]",4.0,"[-0.011484960746082788,-0.03298441452692157]",4.0,"[-0.15639578353175992,-0.08967768231430019]",100.0,"[0.19069441817673222,0.058258884770264016]",100.0,"[0.030977959040960453,-0.14865754705982087]",4.0,"[0.0645901141269004,0.038825380672675144]",4.0,"[-0.0710087574889961,-0.16444513865689966]",100.0,"[0.06931531452691499,0.14988290816116714]",100.0,"[0.06489727556837106,-0.06037331845888376]",4.0,"[-0.10752844216445696,-0.1362864214089281]",100.0,"[0.02,0.02]",132.989,0.0,23.0,23.0,87.0,1.0,,,,,,,
,,,,,,,60984a1b0cce76d16c4ca781,6842baf6a96369826b317af1,2025-06-06_11h55.21.117,shape_ratio,2024.1.5,Win32,60.0240096,6842b561977af9ba9b0f87ca,,,,,,,,,,,132.989,133.488,,,133.739,134.238,left,0.491,,,,,,,,,0.45,,,,,,133.488,133.739,134.238,"[0.10500269974669531,0.060632758567987256]",4.0,"[-0.04132833540206287,-0.09304129599279386]",4.0,"[0.15851210498586163,-0.11676413256268045]",4.0,"[-0.12100232148784722,-0.005438635991882179]",100.0,"[0.0752261438957066,0.17885590348210814]",100.0,"[-0.02372493040759732,0.12908816351689303]",4.0,"[-0.10526627413651482,-0.050759925824558995]",100.0,"[-0.1634467644421232,-0.08260559620878492]",100.0,"[0.15174736859473156,-0.041722633846166875]",100.0,"[0.17185807164545663,0.05502364513239325]",4.0,"[0.07850055647654636,-0.11847081480828266]",4.0,"[-0.04015665943707261,-0.00024964158756025104]",100.0,"[-0.1274281776863593,0.09082084467814087]",4.0,"[0.02648580389165022,-0.006593666996989678]",4.0,"[-0.1922315525073407,-0.045835743472846545]",4.0,"[0.006471574929281914,0.17487287211853383]",4.0,"[-0.08096270027252842,0.031000167225086115]",4.0,"[0.01362686008093326,0.10373846149676827]",100.0,"[-0.0283558681808554,-0.19007842721317597]",4.0,"[0.1064619764060916,0.1063818690273376]",4.0,"[-0.16948195572825864,0.09669063442723096]",100.0,"[-0.08308305159721423,0.08693034864593156]",100.0,"[0.0577649901382921,0.12584419720910864]",4.0,"[-0.035352880041920554,-0.04280981856663962]",100.0,"[0.12440020801746378,0.02165817482937758]",4.0,"[0.0186200617734276,-0.05550844579764414]",4.0,"[0.03969141060207214,-0.14698354514581108]",100.0,"[0.06997956093562581,-0.18419924308369992]",100.0,"[0.060963697916113814,-0.07019106328868424]",4.0,"[0.18815925632068944,-0.006451313445421816]",4.0,"[-0.06744169218261041,0.17974607579129692]",100.0,"[0.10472079855121656,-0.1620199401609927]",100.0,"[0.02,0.02]",135.954,0.0,24.0,24.0,146.0,1.0,,,,,,,
,,,,,,,60984a1b0cce76d16c4ca781,6842baf6a96369826b317af1,2025-06-06_11h55.21.117,shape_ratio,2024.1.5,Win32,60.0240096,6842b561977af9ba9b0f87ca,,,,,,,,,,,135.954,135.954,,,136.179,136.505,left,0.311,,,,,,,,,0.6,,,,,,135.954,136.179,136.505,"[0.11447316341648318,0.14362883167186077]",100.0,"[0.01732406719974372,-0.17829273286468844]",100.0,"[0.09673719905530218,-0.1269567474151684]",4.0,"[0.16161590662724715,-0.10014326069730091]",100.0,"[0.14523541789832375,-0.014714601480772438]",100.0,"[-0.12091321228280884,0.12816946516822053]",100.0,"[-0.08971612097879736,0.08021925207081236]",100.0,"[0.05840186406123084,0.1581520855941248]",100.0,"[0.03290051217219291,0.08898395373675606]",4.0,"[-0.17959194810753915,0.026128404382712325]",100.0,"[0.0879648405027582,0.06489611271727552]",100.0,"[-0.04655430551940573,-0.0037873379161339235]",4.0,"[-0.08708203668861769,-0.1645929694061117]",100.0,"[-0.040310324328810994,-0.19485136394036234]",100.0,"[0.012113033260151857,0.0415892758254202]",4.0,"[-0.02086069663336317,-0.09577798859113358]",100.0,"[0.06274633664727644,-0.17443885414291804]",4.0,"[0.13967908690796577,0.07175033242916336]",100.0,"[-0.01671897456619091,0.18305383896352412]",100.0,"[-0.01275978516039678,-0.05381876400667766]",4.0,"[-0.14774877511837242,-0.10930120776815792]",100.0,"[-0.03473535788253898,0.11270892038740143]",4.0,"[0.010224395348174424,0.1470863868395961]",4.0,"[0.08601321745892108,0.002796915236653864]",4.0,"[-0.05281268353810913,-0.058682262855375276]",4.0,"[0.017246066912959178,-0.000028760281377223654]",100.0,"[-0.07271136077464241,0.17333706993895248]",4.0,"[0.19519475257285007,0.0032664946478704023]",100.0,"[-0.08657432616755696,-0.11234450000563943]",100.0,"[-0.06100846428588334,0.035778324959811654]",4.0,"[-0.19301907959903902,-0.030431782949824186]",4.0,"[0.06796983573307501,-0.08749186083727943]",100.0,"[0.02,0.02]",137.606,0.0,25.0,25.0,47.0,1.0,,,,,,,
,,,,,,,60984a1b0cce76d16c4ca781,6842baf6a96369826b317af1,2025-06-06_11h55.21.117,shape_ratio,2024.1.5,Win32,60.0240096,6842b561977af9ba9b0f87ca,,,,,,,,,,,137.606,138.106,,,138.356,139.306,right,0.939,,,,,,,,,0.6,,,,,,138.106,138.356,139.306,"[0.027145634403757956,-0.023995180958687603]",4.0,"[0.04192542903379754,0.1180385875292998]",4.0,"[0.07217513872336746,0.06609067732924115]",100.0,"[-0.08872621431549513,0.030238796856860938]",100.0,"[-0.19260069441703773,-0.021429004797031182]",100.0,"[-0.16844644016797808,-0.07081869942007853]",100.0,"[-0.16925935414921234,0.07799502470935143]",100.0,"[0.10048920995044122,-0.008045198132986113]",4.0,"[0.12138818063208599,-0.12496384116064439]",100.0,"[0.1497989806365812,0.050181524640816245]",100.0,"[0.19438651629376819,-0.01566159241057828]",100.0,"[-0.02688480982692844,-0.11899479783664674]",4.0,"[-0.07714157434723566,0.09105423845778869]",4.0,"[-0.037204627356068824,0.12430398283598941]",4.0,"[-0.07988740072181248,-0.16255263440501652]",4.0,"[0.057131117462945566,0.017264756481519025]",100.0,"[-0.03536000807734999,0.0409908617996225]",100.0,"[-0.014703728643361488,-0.07254052465813354]",100.0,"[-0.10438110462532652,-0.04771622458867985]",4.0,"[-0.14079729742790092,0.1201785582855339]",100.0,"[0.05556924967948917,-0.1911149937865179]",100.0,"[0.14823322697713584,-0.04303247316297721]",4.0,"[-0.0318411465625404,-0.18540357048548517]",4.0,"[0.07416278721101449,-0.0940738237726634]",100.0,"[0.09037588501399324,0.10683247678121453]",100.0,"[0.011844880958185283,-0.15120719085833742]",100.0,"[0.1209862866518859,0.1417284801941213]",4.0,"[0.0015362908566737693,0.06449349916048465]",4.0,"[-0.14652092388790952,-0.12199232442958857]",100.0,"[-0.012674073256529427,-0.03127446389161724]",100.0,"[-0.03916948323955525,0.16605656890205941]",4.0,"[0.012031845881638886,0.025690302199165647]",100.0,"[0.02,0.02]",140.406,0.0,26.0,26.0,49.0,1.0,,,,,,,
,,,,,,,60984a1b0cce76d16c4ca781,6842baf6a96369826b317af1,2025-06-06_11h55.21.117,shape_ratio,2024.1.5,Win32,60.0240096,6842b561977af9ba9b0f87ca,,,,,,,,,,,140.408,140.905,,,141.157,141.622,left,0.459,,,,,,,,,0.5,,,,,,140.905,141.157,141.622,"[0.11950731024190928,0.15038439901541306]",4.0,"[0.15770765572067794,0.01087808537492485]",100.0,"[-0.15833911335369194,0.045117317869117934]",4.0,"[0.007206439445963737,-0.18989095681684404]",100.0,"[-0.0672451131211147,0.1831114675744514]",100.0,"[0.08203219893207546,0.08014099804011354]",100.0,"[-0.10404255057805324,0.0927281672585142]",100.0,"[-0.09747320138533837,-0.03445126519534087]",100.0,"[-0.012379931120940125,-0.004644156926396648]",100.0,"[-0.1635801111329981,-0.0438678990393261]",100.0,"[0.008386583547960371,-0.13554828901359464]",100.0,"[0.06401193422566437,0.18587047183048785]",4.0,"[0.04278567941728921,0.1106015356037074]",4.0,"[0.11804326703398847,0.05783854770824183]",4.0,"[0.057357943612155765,-0.03307277811160523]",4.0,"[-0.004775060317386623,-0.09368477950356852]",100.0,"[0.08877145969186069,-0.10528500786407555]",4.0,"[0.04364159983258359,0.04070635082740826]",4.0,"[0.11246331618165781,-0.06707881824074072]",100.0,"[-0.033721536315775597,0.05817413260938786]",4.0,"[-0.07420571624187706,-0.06709586682674783]",100.0,"[0.023215926733756994,0.1507311392188394]",4.0,"[-0.05048008903749082,-0.10436347182750011]",100.0,"[-0.005661200663385338,-0.05090217157536384]",4.0,"[0.19486848041020988,-0.04055944944973936]",100.0,"[0.09370576237934292,-0.004161291840488772]",4.0,"[0.15241821015297055,0.09105762742562908]",100.0,"[-0.05356669819756202,0.09423386003955372]",4.0,"[0.17208671310087895,-0.08900881239588003]",4.0,"[-0.11931324115822756,-0.073240470675497]",100.0,"[-0.03623378029401322,0.134744451872565]",4.0,"[-0.1280434992704459,-0.008330074275477068]",4.0,"[0.02,0.02]",142.722,0.0,27.0,27.0,105.0,1.0,,,,,,,
,,,,,,,60984a1b0cce76d16c4ca781,6842baf6a96369826b317af1,2025-06-06_11h55.21.117,shape_ratio,2024.1.5,Win32,60.0240096,6842b561977af9ba9b0f87ca,,,,,,,,,,,142.723,143.222,,,143.473,143.989,left,0.502,,,,,,,,,0.55,,,,,,143.222,143.472,143.989,"[0.0768352919766521,-0.10831526965316755]",100.0,"[0.11963463690370449,0.0005497503649370617]",100.0,"[0.02638896818180291,-0.16539881181748065]",100.0,"[-0.057297152661010285,-0.15589170291577215]",100.0,"[0.1473609153956772,-0.12357691474018931]",4.0,"[-0.09800056310143254,0.13344208518837256]",100.0,"[0.06590838905477138,0.05314292305978331]",100.0,"[-0.14465146819465946,0.009220777785080455]",4.0,"[-0.06802512233091396,0.02190298166874368]",4.0,"[0.10185957284611356,0.13341154884228462]",100.0,"[-0.03259130816107627,0.1010715449988011]",100.0,"[0.04395414851824638,0.18195404139344898]",100.0,"[0.15360032784632582,-0.0371236518607022]",4.0,"[-0.1282984231176797,-0.10876025406842585]",4.0,"[0.07818719698114843,-0.1532331633294676]",4.0,"[-0.03287245095701272,-0.09078477325778517]",4.0,"[0.03310473482156655,-0.04953960782698757]",100.0,"[0.1834279402590267,-0.07938723897582689]",100.0,"[0.005689485002319903,0.13957530027516796]",100.0,"[-0.12738041840268718,-0.15304902801384693]",4.0,"[-0.10379026042085762,-0.045693342513376665]",4.0,"[0.1176988308172259,0.06580100979222622]",4.0,"[-0.1839549951422873,-0.017905841921620563]",4.0,"[-0.06256709302897336,-0.027816659422764206]",4.0,"[-0.1848414146059259,-0.0658843878800134]",100.0,"[0.19781508964237587,-0.0093995642835708]",100.0,"[-0.15146610312756031,0.0961298639552061]",100.0,"[-0.12336089444504231,0.05361190421420417]",100.0,"[-0.04121000203284634,0.16142342403920923]",4.0,"[-0.07460658344917499,0.07090593000318975]",100.0,"[0.16677359339886527,0.08563582880565838]",4.0,"[-0.006738486004198553,-0.007393560755981804]",100.0,"[0.02,0.02]",145.089,0.0,28.0,28.0,61.0,1.0,,,,,,,
,,,,,,,60984a1b0cce76d16c4ca781,6842baf6a96369826b317af1,2025-06-06_11h55.21.117,shape_ratio,2024.1.5,Win32,60.0240096,6842b561977af9ba9b0f87ca,,,,,,,,,,,145.089,146.151,,,146.157,147.173,left,1.003,,,,,,,,,0.5,,,,,,146.151,146.157,147.173,"[-0.0005169903288317519,-0.012220381134560712]",4.0,"[0.14754823621742919,0.10114271687004203]",4.0,"[0.05650415955379575,0.04172391558589656]",4.0,"[0.191036034229857,-0.05197325791507796]",100.0,"[-0.10500326754285998,-0.16833445148744633]",4.0,"[-0.0958112713748316,-0.03459514315053185]",100.0,"[-0.16148272353635734,-0.03208599303920495]",4.0,"[-0.16840749519821718,0.04979782799220173]",100.0,"[0.0019454638068173433,0.042127478759777605]",100.0,"[-0.01156628597215981,0.1259866263008016]",100.0,"[0.022640623828828414,-0.06609202886796012]",4.0,"[0.137644087383222,0.030222433608262794]",100.0,"[0.03033008753985402,0.14828758837561612]",4.0,"[0.013753673728492904,-0.17333020571390986]",4.0,"[0.07146298418463105,-0.15604166158531896]",4.0,"[0.06519150382475172,-0.03459086281023753]",4.0,"[-0.078850490475951,0.03805288933956437]",4.0,"[0.1461886903541587,-0.040903601227552884]",100.0,"[0.051912185427566655,0.10014586999590228]",100.0,"[-0.12435594635143886,-0.12899518622105488]",100.0,"[-0.0862696418110277,0.16242059484766008]",4.0,"[0.1802067859621686,0.04612809927267402]",4.0,"[0.13441753831141678,-0.1222663682426645]",100.0,"[-0.038978970821112985,0.03150867114203731]",100.0,"[-0.12913451558797365,0.13356123017158697]",4.0,"[0.017138152971643898,-0.127319677345936]",100.0,"[0.09405370547477278,0.013807341250354878]",100.0,"[0.114918835857158,0.1368234406173108]",100.0,"[-0.17499007118294896,-0.0787876832885638]",100.0,"[0.014688578251155302,0.1901499027680172]",100.0,"[0.08590518816416781,-0.10202181960043114]",4.0,"[-0.07415426168035336,0.11869616123979726]",4.0,"[0.02,0.02]",148.273,0.0,29.0,29.0,94.0,1.0,,,,,,,
,,,,,,,60984a1b0cce76d16c4ca781,6842baf6a96369826b317af1,2025-06-06_11h55.21.117,shape_ratio,2024.1.5,Win32,60.0240096,6842b561977af9ba9b0f87ca,,,,,,,,,,,148.274,148.772,,,149.023,149.489,left,0.451,,,,,,,,,0.4,,,,,,148.772,149.023,149.489,"[0.16822870779527588,-0.03830603713586926]",100.0,"[0.18332531744427402,0.0033362808632977285]",100.0,"[-0.06765843657229713,-0.09920536152011926]",4.0,"[0.1581314742709332,-0.104224963880669]",4.0,"[-0.006419876267336262,0.026722918845059025]",4.0,"[-0.16600027483316165,0.013883112691133152]",4.0,"[0.05201492564794426,-0.12999909792998937]",4.0,"[-0.04466811509171138,-0.13661924989159568]",4.0,"[-0.018836506026169743,-0.059086405363233306]",4.0,"[-0.08518885210192027,0.021972118100414766]",100.0,"[0.05381459642322621,0.08484616424534772]",100.0,"[0.1406394995440654,0.08509132237703575]",4.0,"[-0.0872681717455058,-0.058037540782956]",100.0,"[-0.02360140928813532,0.13242368663107876]",100.0,"[-0.1287554830814922,-0.010266171325361943]",100.0,"[-0.04498279393872663,0.0967734833207282]",100.0,"[-0.17767310241626613,-0.07731555762635181]",4.0,"[-0.18961875692651906,0.05582729639046155]",100.0,"[-0.004108237704374302,-0.12277465646020319]",4.0,"[-0.13437453065695049,-0.10979575610408344]",100.0,"[0.00028363891237822203,-0.16372072851993985]",4.0,"[0.06397562779257093,0.18657775244282937]",4.0,"[0.10100150565475535,0.1678923738108093]",4.0,"[-0.17231521876739697,-0.03163153823645914]",4.0,"[0.1304417612143754,0.025747739728752012]",100.0,"[0.07777871727296057,-0.04616979959185203]",4.0,"[-0.08527796924943415,-0.16573463859261217]",4.0,"[0.04088563934866679,0.008496273377865094]",4.0,"[0.04112335310170363,0.12652039781022695]",100.0,"[-0.14482513448813394,0.13774399946406687]",4.0,"[0.10897027385346529,0.059919487659978704]",100.0,"[-0.14772172845151643,0.08370586436107258]",4.0,"[0.02,0.02]",150.589,0.0,30.0,30.0,175.0,1.0,,,,,,,
,,,,,,,60984a1b0cce76d16c4ca781,6842baf6a96369826b317af1,2025-06-06_11h55.21.117,shape_ratio,2024.1.5,Win32,60.0240096,6842b561977af9ba9b0f87ca,,,,,,,,,,,150.59,151.09,,,151.34,152.022,left,0.667,,,,,,,,,0.1,,,,,,151.09,151.34,152.022,"[0.08644423474207275,-0.07565861166904793]",4.0,"[0.080185113430791,0.15769030223597436]",4.0,"[-0.05627602039993457,-0.0966639810369143]",4.0,"[-0.08877634455196887,0.1172737211291433]",4.0,"[0.12165772446352151,0.018266303342616627]",4.0,"[0.015087163705040669,-0.04009431851294692]",4.0,"[-0.17655516532201374,-0.07042721590536019]",4.0,"[-0.05299801832707133,0.0012806515572497232]",4.0,"[0.038710660015266296,0.1782773311449064]",4.0,"[0.10244524412133203,0.08881888537140194]",4.0,"[0.08692237642886476,-0.01980066220278978]",4.0,"[-0.11533980085477767,-0.09044876178884237]",100.0,"[0.1707523057101737,0.09435331262882406]",4.0,"[-0.13242460838596287,0.137149863970322]",100.0,"[-0.015895012872731987,-0.08670816543506213]",100.0,"[-0.15763931044096768,0.03338292740581239]",4.0,"[-0.10622139261802586,0.0697520810951372]",4.0,"[0.13215834709906962,0.0616509248046412]",4.0,"[0.0643918683556823,-0.13600139271492626]",4.0,"[-0.08488449049930341,-0.1253579732923132]",4.0,"[0.1709102224321958,-0.02609116687483985]",4.0,"[0.02840853480704127,0.030759530206445576]",4.0,"[-0.0414726537497082,-0.13750224776838743]",4.0,"[-0.16655474725684077,0.10453710044727407]",4.0,"[0.03345082392445394,-0.09110374882177626]",4.0,"[-0.03422472020129427,0.15689075020599796]",4.0,"[0.1344673121350439,-0.12344979052379357]",4.0,"[0.1842226104831671,0.04752081941508573]",4.0,"[-0.09093492747131277,-0.028092505640664435]",4.0,"[0.00017668887892390226,-0.18254268873115673]",4.0,"[-0.11110124970674842,0.012027474834275175]",4.0,"[-0.04871598009226706,0.042184682061475534]",4.0,"[0.02,0.02]",153.123,0.0,31.0,31.0,195.0,1.0,,,,,,,
,,,,,,,60984a1b0cce76d16c4ca781,6842baf6a96369826b317af1,2025-06-06_11h55.21.117,shape_ratio,2024.1.5,Win32,60.0240096,6842b561977af9ba9b0f87ca,,,,,,,,,,,153.123,153.622,,,153.873,154.522,left,0.634,,,,,,,,,0.4,,,,,,153.622,153.873,154.522,"[0.1298068433236097,-0.06527185776286167]",100.0,"[-0.18799253273916605,-0.03725501110006439]",100.0,"[-0.0346856376212732,-0.04565487985138122]",100.0,"[-0.0071058604994771535,-0.1693133298739336]",4.0,"[0.17842543433869876,-0.05857890554474973]",4.0,"[-0.08745619752867653,-0.0465455333997646]",4.0,"[-0.08139662159239347,0.00010817731540408674]",100.0,"[-0.13784056764526184,0.09306448185593061]",100.0,"[-0.06785287151935121,0.04366086753099462]",4.0,"[0.026756015138723895,0.15686362225177788]",4.0,"[0.06275533625779885,0.09524054690412387]",4.0,"[-0.009105078032440475,-0.09124684953284586]",100.0,"[0.05882595490927572,-0.18629582895916882]",100.0,"[-0.08138690863353835,-0.1639317616198954]",100.0,"[-0.16309914934540554,-0.08142972112935955]",4.0,"[0.008503211339383736,-0.008317245982596679]",4.0,"[0.14898349951254336,0.1006250266512498]",4.0,"[0.11996619383579994,-0.12689901363041556]",4.0,"[0.12900230834462875,0.15251324461343793]",4.0,"[-0.009336846704161274,0.030095772562410136]",4.0,"[0.14596648338723694,0.029381824666627948]",100.0,"[-0.12094245602552464,0.1310289423180374]",100.0,"[0.09335690936434232,0.03206803754243721]",4.0,"[-0.1572178915881911,0.005659469167625665]",4.0,"[0.06389107546629512,-0.09566264733738002]",4.0,"[0.03692618475518885,0.0500074306112146]",100.0,"[-0.024612403801081886,0.13785921588896125]",100.0,"[-0.03706346932096815,-0.12894043052770954]",4.0,"[-0.11638582809316206,-0.08882731089673408]",100.0,"[0.011586895043311845,0.11719138283261543]",4.0,"[0.02802825133469671,-0.12686143557932344]",4.0,"[-0.10054845195491222,-0.12814175566251212]",4.0,"[0.02,0.02]",155.623,0.0,32.0,32.0,174.0,1.0,,,,,,,
,,,,,,,60984a1b0cce76d16c4ca781,6842baf6a96369826b317af1,2025-06-06_11h55.21.117,shape_ratio,2024.1.5,Win32,60.0240096,6842b561977af9ba9b0f87ca,,,,,,,,,,,155.624,156.122,,,156.373,157.323,left,0.935,,,,,,,,,0.45,,,,,,156.122,156.373,157.323,"[0.12658868474009918,-0.0038928795645559715]",4.0,"[0.06238776394295587,0.09101258129927786]",100.0,"[-0.06308344549038022,-0.008247495798196697]",4.0,"[0.0841812080561764,-0.07984315192967768]",100.0,"[0.04107148122501841,-0.11330872704013246]",100.0,"[-0.13808464559749437,-0.09503719497808083]",100.0,"[-0.039748423606132614,0.035842507458428985]",100.0,"[0.18893923125209353,-0.05294189919477064]",100.0,"[0.161074041275944,0.07467684352591943]",4.0,"[0.041638929337769026,0.1549589093457427]",100.0,"[-0.08394749039570913,0.11914395675446186]",4.0,"[0.18071904356260454,0.02308999773911983]",4.0,"[-0.015922147207693953,-0.00014044660630433445]",100.0,"[-0.07484936606203788,-0.1098487920952431]",4.0,"[-0.021558056443065136,-0.043690964467001374]",4.0,"[-0.10127613332516314,0.053152918137174855]",100.0,"[-0.12510417326061293,0.10049263361151745]",4.0,"[-0.016351048703258847,0.11734313534986546]",4.0,"[-0.025743112966533515,-0.17949810826153825]",100.0,"[0.08348897428965986,-0.1356808691261886]",100.0,"[-0.12521648757378837,-0.04359013642930359]",4.0,"[0.08494275499459063,0.04871814416651291]",4.0,"[-0.15336316339112324,0.039872982778497816]",4.0,"[-0.08384976085313561,-0.0605279815118747]",100.0,"[0.15159981042875353,-0.0806533877044508]",4.0,"[0.11888360926790267,0.08754604915886724]",4.0,"[0.06933775914594854,-0.028901078905549576]",100.0,"[-0.11097051900286432,-0.131027393965373]",4.0,"[-0.010380684507623377,-0.10131415012775838]",4.0,"[-0.16138875454615248,-0.014338863036317392]",4.0,"[-0.07442314629071263,0.16192980891961276]",4.0,"[0.010974548553444785,-0.15655005233953725]",100.0,"[0.02,0.02]",158.423,0.0,33.0,33.0,142.0,1.0,,,,,,,
,,,,,,,60984a1b0cce76d16c4ca781,6842baf6a96369826b317af1,2025-06-06_11h55.21.117,shape_ratio,2024.1.5,Win32,60.0240096,6842b561977af9ba9b0f87ca,,,,,,,,,,,158.423,158.923,,,159.173,159.589,right,0.4,,,,,,,,,0.45,,,,,,158.923,159.173,159.589,"[0.01766988325973778,-0.15604734576262283]",100.0,"[0.1780949850573405,0.06708486873968106]",4.0,"[-0.03298099714520772,-0.12398972052590874]",100.0,"[-0.0005076616622560235,-0.01997348797553881]",100.0,"[-0.10179576284428826,-0.1550550311348079]",100.0,"[-0.13785129473108626,0.12193487641340084]",4.0,"[0.07283169476927168,0.00014336102897634183]",100.0,"[-0.14514744952163927,0.03401308262458178]",4.0,"[0.06773690858211383,-0.09611078900126559]",4.0,"[0.0195111056589167,0.19099380276597983]",4.0,"[0.08318568910241184,0.07467765257746908]",100.0,"[0.009661648377234646,-0.19792468598036334]",4.0,"[-0.042413253362977264,0.11832044642080314]",4.0,"[-0.11835914027621393,-0.09211359907593145]",100.0,"[-0.04547012948461375,-0.018305881467767723]",4.0,"[0.014330742728257054,0.10777032592507399]",100.0,"[-0.1345735336789759,-0.020438390424784007]",100.0,"[0.1224591391666257,-0.012515434574421355]",4.0,"[0.11692167104907805,-0.1517468934050374]",100.0,"[-0.16034725209419315,-0.09235294539098737]",4.0,"[-0.0281292008421534,-0.16495817100061333]",4.0,"[0.046911817026884364,0.1436249998022051]",4.0,"[-0.09799985613127336,0.07284442135607641]",4.0,"[0.024066594315600254,0.034880119593942605]",4.0,"[-0.0006949778650410987,-0.07189926090827649]",4.0,"[-0.0407928113589319,0.02251375876169674]",100.0,"[0.18434418598753485,0.01752644712520024]",4.0,"[0.10890846901591403,-0.051428975256938264]",4.0,"[-0.10560569243862923,0.01569696324198126]",4.0,"[-0.04895566036945538,0.07155182511456779]",100.0,"[0.16212951020926503,-0.11489227995809065]",100.0,"[-0.0857564377789262,0.14218583389692396]",100.0,"[0.02,0.02]",160.69,0.0,34.0,34.0,144.0,1.0,,,,,,,
,,,,,,,60984a1b0cce76d16c4ca781,6842baf6a96369826b317af1,2025-06-06_11h55.21.117,shape_ratio,2024.1.5,Win32,60.0240096,6842b561977af9ba9b0f87ca,,,,,,,,,,,160.69,161.19,,,161.44,162.123,left,0.667,,,,,,,,,0.55,,,,,,161.19,161.44,162.123,"[0.10669522488677864,0.13395533192736453]",100.0,"[0.004074030731593331,0.1844003847705946]",4.0,"[0.11031810296595103,-0.0586914603734193]",100.0,"[-0.031785348430259784,0.13876357299598366]",100.0,"[-0.046220193878399256,-0.0727835909024509]",100.0,"[0.16712238238453783,0.10276798238706478]",100.0,"[-0.177589241250735,-0.005644383389305735]",4.0,"[0.05962943091939278,-0.08905803011405439]",100.0,"[0.0013681277275906527,-0.18798284205801624]",100.0,"[-0.11433347861728274,0.04363992338881097]",4.0,"[0.05815065341009281,0.002696366349318214]",100.0,"[-0.14578110326842464,-0.04342519692767952]",4.0,"[0.03644142746248402,-0.033253965749453905]",100.0,"[0.0743115035810709,0.17478450248206173]",4.0,"[0.14269721543894814,0.05134684354854674]",4.0,"[0.17819362380539888,-0.0873686428190617]",4.0,"[-0.014303578704317284,0.09251293114063419]",4.0,"[-0.0525849450187846,-0.14513784434446075]",100.0,"[0.0036608545593733873,0.038434681913847135]",4.0,"[0.08166852132113993,0.08307751501663788]",4.0,"[-0.05899544333127216,-0.014621474497168547]",100.0,"[-0.07707794375136791,0.10941284388959074]",100.0,"[0.11058950050503724,-0.1598303366770852]",100.0,"[0.19250960849644913,-0.01571489567887714]",4.0,"[0.08943873789780823,-0.11671534939230062]",100.0,"[0.09995327780043228,0.016647465034194592]",4.0,"[-0.10904221666303338,-0.1157076751641288]",100.0,"[0.024930924135783142,-0.13196232005516467]",100.0,"[0.05732879039939925,-0.17264380305140006]",4.0,"[-0.09508362270700066,-0.055530399436306395]",100.0,"[-0.08880660249174956,-0.16558309226173965]",100.0,"[-0.12686904121240605,0.15262257543285665]",4.0,"[0.02,0.02]",163.223,0.0,35.0,35.0,86.0,1.0,,,,,,,
,,,,,,,60984a1b0cce76d16c4ca781,6842baf6a96369826b317af1,2025-06-06_11h55.21.117,shape_ratio,2024.1.5,Win32,60.0240096,6842b561977af9ba9b0f87ca,,,,,,,,,,,163.224,163.723,,,163.974,164.59,left,0.6,,,,,,,,,0.6,,,,,,163.723,163.974,164.59,"[-0.03713164962949702,-0.17514510624594307]",100.0,"[0.04288491105429259,-0.17970919441306887]",4.0,"[0.04822324003056274,0.00394493590700089]",100.0,"[0.023074976381440238,0.1490403604486735]",4.0,"[-0.04127854824620441,0.13155491973782069]",100.0,"[-0.10987601787876473,-0.039453794994119676]",100.0,"[-0.05003889886366935,-0.0700233222818959]",4.0,"[0.14717828500665026,-0.12040204638002723]",4.0,"[0.006525990711481786,-0.09836838837178496]",100.0,"[-0.028276046971457237,0.05583044992514508]",100.0,"[0.03377728568677505,-0.13797414530401347]",100.0,"[0.07832265725833121,-0.12698808740374753]",4.0,"[-0.12621658414107392,0.06553926755349479]",100.0,"[-0.06922540534073046,0.06352971262781722]",4.0,"[-0.031131716762288885,-0.12565979908023983]",100.0,"[-0.12025468545539945,-0.10527933189308351]",4.0,"[0.06654413472089037,0.11889163753873888]",4.0,"[0.19110183817253157,0.04558765873161138]",4.0,"[0.06073199962339657,-0.05464102200449818]",100.0,"[0.14082814407306418,0.023230732622508746]",100.0,"[-0.005168539976614778,0.09989476794435975]",4.0,"[0.07349882677093324,0.07206057275792971]",100.0,"[0.09385144111313283,-0.024470156833555006]",100.0,"[-0.1588613212282861,-0.04567281036905382]",100.0,"[-0.07832906115834819,-0.11629688705586685]",100.0,"[0.13422722805588577,-0.04479253023658873]",100.0,"[0.1766123740726567,0.0915672122036225]",100.0,"[-0.12881010384727778,0.00865576790132659]",4.0,"[-0.061300391280151655,0.1829310862237855]",4.0,"[0.04080259776684625,0.19035673636728412]",100.0,"[-0.06016338921749892,-0.01474581339134323]",100.0,"[0.16298228327847122,-0.08325652136084091]",4.0,"[0.02,0.02]",165.689,0.0,36.0,36.0,54.0,1.0,,,,,,,
,,,,,,,60984a1b0cce76d16c4ca781,6842baf6a96369826b317af1,2025-06-06_11h55.21.117,shape_ratio,2024.1.5,Win32,60.0240096,6842b561977af9ba9b0f87ca,,,,,,,,,,,165.69,166.19,,,166.44,166.89,left,0.437,,,,,,,,,0.1,,,,,,166.19,166.44,166.89,"[0.11779375886375436,-0.14472505555554416]",100.0,"[0.02118516192996106,-0.10611288153162401]",4.0,"[-0.09898290021068339,0.061762862506665406]",4.0,"[0.02321226307888088,-0.045192044730289885]",4.0,"[0.13936994437494146,0.09643256730345438]",4.0,"[0.01876215230725088,0.05444240958895718]",4.0,"[0.06902588063323481,0.03180491559105059]",4.0,"[-0.04556800372658728,0.04300389077282596]",4.0,"[-0.08890971955930975,-0.1374512897176931]",4.0,"[-0.14926807202019826,-0.0009791725260391729]",4.0,"[-0.02767724296599126,0.13457365062463356]",4.0,"[-0.06150275193807132,-0.09256452079478615]",4.0,"[-0.01887634007513031,-0.13331451311246142]",4.0,"[0.13710750002960628,0.028678288358667904]",4.0,"[-0.12319333015061781,0.12261580333587038]",4.0,"[-0.02183694357708873,-0.06642953731491945]",4.0,"[-0.0722788568919168,-0.03563782093495404]",4.0,"[-0.06830397271643565,0.12244427404980139]",4.0,"[-0.019455135861616218,0.08792215746868322]",4.0,"[-0.12289218220172966,-0.04190427804935367]",100.0,"[0.174826650970373,0.055912972721375145]",100.0,"[0.1629955265381696,-0.058386292661992044]",4.0,"[-0.10840079084537388,0.007682732305117131]",4.0,"[-0.06807539302632008,-0.18630863669740425]",4.0,"[-0.18355885016475457,-0.03705240508637798]",4.0,"[-0.07491146009438275,0.16589769875881388]",4.0,"[0.00842081779145323,0.1757132580493345]",4.0,"[0.1320593754750457,-0.03210878527276922]",4.0,"[-0.16016059758274023,-0.08511158761858363]",4.0,"[-0.17601185217984355,0.037836466922416455]",4.0,"[-0.00989974842063278,-0.18785901186681447]",4.0,"[0.18321342996584758,-0.01824054845488399]",4.0,"[0.02,0.02]",167.99,0.0,37.0,37.0,205.0,1.0,,,,,,,
,,,,,,,60984a1b0cce76d16c4ca781,6842baf6a96369826b317af1,2025-06-06_11h55.21.117,shape_ratio,2024.1.5,Win32,60.0240096,6842b561977af9ba9b0f87ca,,,,,,,,,,,167.99,168.49,,,168.741,169.591,left,0.843,,,,,,,,,0.45,,,,,,168.49,168.741,169.591,"[0.07073947826419157,0.1153473320747698]",4.0,"[-0.013757494649200841,-0.09338858484464647]",100.0,"[-0.006642823422115638,-0.00564200498510707]",100.0,"[0.13140401892704323,-0.058436088474564024]",100.0,"[-0.10602832495878534,-0.11020491683800722]",4.0,"[-0.015802646521321306,-0.14868775405806975]",100.0,"[-0.026347209274689334,-0.0437656304107965]",100.0,"[0.002698784424496759,0.18905862906956086]",100.0,"[0.1182958509358714,0.022047521440405334]",4.0,"[0.031128994666575226,0.05762249081092221]",4.0,"[0.027588890042286745,-0.1000438181779905]",100.0,"[-0.1500537193275168,-0.04902082360321772]",4.0,"[-0.06693633834995243,0.13646309855824773]",4.0,"[0.07067376042659154,0.15999482644261764]",4.0,"[0.16880704231778687,-0.03290063388472456]",4.0,"[-0.01924549662357354,0.05525301740356492]",100.0,"[-0.06430497253927714,-0.019134152147499802]",100.0,"[0.0025883417400941805,-0.19774871550596557]",4.0,"[0.08921104424822601,-0.03693026268705875]",100.0,"[-0.0611125186326407,-0.14521707910832]",100.0,"[0.03219538318265141,-0.024784954133775166]",4.0,"[0.02677325450517033,0.12251477324210872]",4.0,"[0.09840988774722745,-0.14293226980246512]",4.0,"[0.13033265112763115,0.0818150268270131]",4.0,"[-0.13028947557135015,0.06668380977663799]",100.0,"[-0.05575180429908738,-0.08734965616737753]",100.0,"[-0.153034721412437,-0.007076008710687919]",4.0,"[-0.10288774854233194,0.03071358450128028]",100.0,"[0.185523653989972,0.06252434575372347]",4.0,"[0.05214389275560472,-0.16615899798272465]",4.0,"[-0.06727912509852353,0.08538363228056517]",4.0,"[0.11028584844823343,0.12669925576107813]",4.0,"[0.02,0.02]",170.691,0.0,38.0,38.0,120.0,1.0,,,,,,,
,,,,,,,60984a1b0cce76d16c4ca781,6842baf6a96369826b317af1,2025-06-06_11h55.21.117,shape_ratio,2024.1.5,Win32,60.0240096,6842b561977af9ba9b0f87ca,,,,,,,,,,,170.691,171.19,,,171.441,172.14,left,0.685,,,,,,,,,0.1,,,,,,171.19,171.441,172.14,"[0.1426015926335413,-0.04125126981167888]",4.0,"[-0.07677201640183198,-0.10107282305977855]",4.0,"[-0.0747546192104478,0.10026927984196489]",4.0,"[-0.11769698930029814,0.15412129380693573]",4.0,"[0.07802975961109393,-0.03433579333482338]",4.0,"[-0.135102086330618,-0.047257969227208894]",4.0,"[0.027552231115892424,-0.1891458767691354]",4.0,"[0.019155804516562767,-0.06160737242582421]",100.0,"[-0.0005136195658431059,0.011861050104300755]",4.0,"[0.03429545196240746,0.0939682351220237]",4.0,"[-0.021146525837559233,-0.08124948659038309]",100.0,"[0.0867659607944645,0.1195197804455882]",4.0,"[0.14754624342565478,0.034046677404932946]",4.0,"[-0.09973052209208394,-0.1586721003543814]",4.0,"[-0.10944591398704615,0.052836401411219945]",4.0,"[0.08408762671831076,-0.13757052683375662]",4.0,"[0.1831699534293966,-0.06932058076919863]",4.0,"[0.08566307671043075,-0.09016173175624512]",4.0,"[0.02812343639654901,-0.14139812057186454]",4.0,"[-0.06235945425669759,0.04755365660622069]",100.0,"[0.01524085033572885,0.16536452860024808]",4.0,"[-0.1807075264635986,0.011879027767992125]",4.0,"[-0.04417556294317895,-0.16984586817384087]",4.0,"[-0.11152021232484287,0.010845693330388415]",4.0,"[0.16083493995065629,0.08144307186887807]",4.0,"[-0.1180556753360567,-0.12232949725576635]",4.0,"[0.08405164890762776,0.1735554242058765]",4.0,"[0.13014033438705908,-0.10967484449444842]",4.0,"[-0.01598497565776382,0.11957990610364408]",4.0,"[-0.1893684994139221,-0.043858855157000894]",4.0,"[0.038628746529424045,0.038939955498671436]",4.0,"[0.08663691951963962,0.07724565083394118]",4.0,"[0.02,0.02]",173.242,0.0,39.0,39.0,193.0,1.0,,,,,,,
,,,,,,,60984a1b0cce76d16c4ca781,6842baf6a96369826b317af1,2025-06-06_11h55.21.117,shape_ratio,2024.1.5,Win32,60.0240096,6842b561977af9ba9b0f87ca,,,,,,,,,,,173.243,173.74,,,173.991,174.357,right,0.352,,,,,,,,,0.9,,,,,,173.74,173.991,174.357,"[0.1642667627982993,0.04819138963035166]",100.0,"[-0.10861917704841685,0.1447748667820966]",4.0,"[0.1312045494913362,-0.07061001667454567]",100.0,"[-0.12495660500683899,-0.030274770288055326]",100.0,"[-0.015152439276767299,-0.056925860271464346]",100.0,"[-0.031515613326855756,0.11203877692615152]",100.0,"[-0.056499817997126056,0.1727525371417995]",100.0,"[0.10351047885922286,-0.008632499094198286]",100.0,"[-0.05399669521906082,0.057187300681778123]",100.0,"[0.11897150617989398,0.03219116568930633]",100.0,"[-0.13176640755549993,-0.13704651173172996]",100.0,"[0.08488706330427992,-0.14905707865534576]",100.0,"[-0.13378518847024287,-0.08545209945289962]",100.0,"[0.1248550829035741,0.10669932178176124]",100.0,"[-0.032855488118269105,-0.1647808078113313]",100.0,"[-0.024111316047805816,0.011700293217117613]",100.0,"[-0.06342256700984873,-0.07189687131553596]",100.0,"[-0.1841793706452981,0.06592494972833327]",100.0,"[0.025964365072481777,0.043953579536866245]",100.0,"[-0.17028500100483052,0.02514638071058066]",100.0,"[0.03992808497137918,-0.17709778512339908]",100.0,"[0.1503799741458189,-0.006458448916499453]",100.0,"[0.19232957928692496,-0.053443956316535535]",100.0,"[-0.12236217891175642,0.06646396286278361]",4.0,"[0.0749320412060407,0.08965943844742451]",100.0,"[0.01429747311690438,0.14291476346313955]",100.0,"[0.15611479293799235,-0.11320359631510496]",100.0,"[0.07615348540252581,0.1430355678257851]",100.0,"[-0.005584511070750444,-0.09941026461230144]",100.0,"[0.06162199754155394,-0.022606631233572826]",4.0,"[-0.10652189490363632,0.007898226161742343]",100.0,"[-0.18857902145346403,-0.042374713728127934]",100.0,"[0.02,0.02]",175.457,0.0,40.0,40.0,26.0,1.0,,,,,,,
,,,,,,,60984a1b0cce76d16c4ca781,6842baf6a96369826b317af1,2025-06-06_11h55.21.117,shape_ratio,2024.1.5,Win32,60.0240096,6842b561977af9ba9b0f87ca,,,,,,,,,,,175.458,175.957,,,176.208,176.574,left,0.359,,,,,,,,,0.1,,,,,,175.957,176.207,176.574,"[-0.099968219490193,0.11549611182855357]",4.0,"[-0.05539307826297067,-0.18408914915852395]",4.0,"[0.1299535941863321,-0.06402566798992926]",4.0,"[-0.023485012517247824,-0.01482305038427434]",100.0,"[-0.18229099042622154,0.0013113029669021264]",4.0,"[0.14661843606428085,0.11489187811055392]",4.0,"[0.024209993847667918,0.13656845936983947]",4.0,"[-0.09862048866788327,-0.020218386811195886]",4.0,"[0.025995471844760955,0.03198988313249102]",100.0,"[-0.011258911458032702,-0.1514634220457508]",4.0,"[0.07944679812551286,-0.06388817490126192]",4.0,"[0.09124111902746367,0.013118474167883075]",4.0,"[0.06118641524280787,0.06419869775205066]",4.0,"[0.11990772397095824,-0.10805074176644813]",4.0,"[0.08902986679666046,0.11388204946715104]",4.0,"[0.022186880165628094,-0.1231402573291677]",4.0,"[0.17732304474571256,0.0119865341126438]",4.0,"[-0.04755808465237747,-0.0741348960678361]",4.0,"[-0.17225951263866146,0.07772375744500157]",4.0,"[-0.10403727334599222,-0.07253347068672776]",4.0,"[0.16740355778898805,0.05900937000641474]",4.0,"[-0.04050811642935084,0.09946633569852567]",4.0,"[-0.13688464784426313,0.14487038443836722]",4.0,"[0.04675128096996493,-0.18589603805304306]",4.0,"[0.1404444518930781,-0.006693926549461559]",4.0,"[-0.019607768041532737,0.1702049992953119]",4.0,"[0.12011614628392937,0.14887554713477222]",4.0,"[-0.13957676980969036,-0.11294901540365035]",100.0,"[0.02220470521947772,0.19415338286200523]",4.0,"[-0.09578232332143408,-0.14924200538553728]",4.0,"[-0.0012039760821375874,-0.05640714568460934]",4.0,"[0.0180269949040704,0.09116566135751729]",4.0,"[0.02,0.02]",177.674,0.0,41.0,41.0,200.0,1.0,,,,,,,
,,,,,,,60984a1b0cce76d16c4ca781,6842baf6a96369826b317af1,2025-06-06_11h55.21.117,shape_ratio,2024.1.5,Win32,60.0240096,6842b561977af9ba9b0f87ca,,,,,,,,,,,177.675,178.174,,,178.424,178.84,left,0.406,,,,,,,,,0.55,,,,,,178.174,178.424,178.84,"[0.19516800481843294,-0.03199685320213986]",100.0,"[-0.06972350359915831,-0.11555348537291855]",4.0,"[0.10431709427582217,0.054191248097099715]",100.0,"[-0.1419687236640325,-0.045116391509549506]",100.0,"[-0.04351599591366559,0.09365895163787459]",100.0,"[0.06661420078159809,-0.015637490395029565]",4.0,"[-0.1936622358801916,0.009896270134660115]",4.0,"[-0.011800402194583542,0.1213843196689335]",100.0,"[0.12150948047630639,0.12882437033635188]",4.0,"[0.03982944969729118,-0.14744557383491513]",4.0,"[-0.038201293391191014,0.04552853221789021]",4.0,"[-0.026770607285262052,-0.0818893470986931]",100.0,"[0.008246038509797405,0.014642781745429953]",100.0,"[-0.10859446625835036,0.006169931248509787]",4.0,"[0.11209691407301194,-0.020327891225146905]",100.0,"[-0.10883381444444501,-0.09830233649652392]",100.0,"[-0.08215088346125575,0.14128086689752462]",4.0,"[-0.009626700456410836,-0.15852694134082493]",100.0,"[0.028225742227283968,0.10747795270912805]",100.0,"[-0.017024696145738573,-0.040617884476308694]",4.0,"[0.03735601957282878,0.1511542057129691]",4.0,"[-0.19458888852042946,-0.04297960631977973]",100.0,"[0.15999693289308003,0.049826203669601596]",100.0,"[0.07565484805756324,0.1131267152461571]",4.0,"[-0.14529418637829672,-0.1333646807270973]",100.0,"[0.15140764647939978,-0.09376877489494415]",100.0,"[-0.08882992445481845,-0.1718328829167217]",100.0,"[-0.13936559031446252,0.05941036267590462]",4.0,"[0.006099667531681557,0.05957517586477724]",100.0,"[0.08208774506241892,-0.10334905323801873]",4.0,"[0.023498485891349508,-0.04005736481588938]",4.0,"[-0.023819120891349792,0.16038959507844647]",100.0,"[0.02,0.02]",179.94,0.0,42.0,42.0,64.0,1.0,,,,,,,
,,,,,,,60984a1b0cce76d16c4ca781,6842baf6a96369826b317af1,2025-06-06_11h55.21.117,shape_ratio,2024.1.5,Win32,60.0240096,6842b561977af9ba9b0f87ca,,,,,,,,,,,179.941,180.441,,,180.691,181.09,left,0.384,,,,,,,,,0.4,,,,,,180.441,180.691,181.09,"[-0.07744388693515372,0.17528958828825394]",100.0,"[-0.10361277970265623,0.06864082171450735]",4.0,"[-0.005136415261015989,0.14037585639814937]",100.0,"[-0.12817877064726993,0.030931187940138008]",100.0,"[-0.07024373001831329,-0.09421691458934973]",100.0,"[0.18297556137253904,-0.03929495207933567]",4.0,"[0.03787890797235392,0.16014326595630402]",4.0,"[0.07469924422617855,0.044117381397696456]",100.0,"[-0.0960294890304434,-0.13650926481200473]",4.0,"[-0.14814570683464373,-0.01950140522696164]",100.0,"[-0.08447769117004451,-0.026842485630166956]",100.0,"[0.11236532265899489,0.1326052088064324]",4.0,"[-0.07132366597081173,0.041623671124040806]",4.0,"[-0.06696572764084494,0.1317821420336258]",4.0,"[0.09455294042399827,-0.07218999168591182]",100.0,"[-0.03787283666390112,-0.01600659949577694]",4.0,"[0.05080901376152522,-0.044960847598378935]",100.0,"[0.08397406250472053,-0.16038293925249636]",4.0,"[-0.11570763938287318,0.13020032781680888]",4.0,"[0.05437299515358914,0.09831867096297021]",100.0,"[0.09758094451196457,-0.11308484374157945]",4.0,"[0.18812452465337115,0.005232203127336625]",4.0,"[0.14301290366229139,0.04238845583621381]",4.0,"[0.02246734458024339,0.0468505913615454]",4.0,"[0.12860777798958525,0.08997430087801757]",100.0,"[-0.1488390910425009,-0.06955119438589091]",100.0,"[-0.015203519739797902,-0.1654929592533267]",4.0,"[0.004718403976943069,-0.058722816882415006]",4.0,"[0.15180242080268536,-0.09517389590346988]",4.0,"[-0.006143593266553202,-0.109135669877381]",4.0,"[-0.19912866172671792,0.010307640977131998]",4.0,"[0.04266541829450272,-0.17460514516958794]",100.0,"[0.02,0.02]",182.19,0.0,43.0,43.0,176.0,1.0,,,,,,,
,,,,,,,60984a1b0cce76d16c4ca781,6842baf6a96369826b317af1,2025-06-06_11h55.21.117,shape_ratio,2024.1.5,Win32,60.0240096,6842b561977af9ba9b0f87ca,,,,,,,,,,,182.192,182.691,,,182.941,183.458,left,0.502,,,,,,,,,0.9,,,,,,182.691,182.941,183.458,"[0.003868620038158979,0.09509665078884022]",100.0,"[0.12231691369782181,0.09252306473229303]",100.0,"[-0.09067959345513357,-0.08464148175414475]",100.0,"[-0.05453717308775159,0.060776285302289894]",4.0,"[0.18509501793581723,-0.009943377014558451]",100.0,"[-0.16528249115170093,-0.10217996560043575]",100.0,"[-0.09384802457793284,0.03417049996462926]",100.0,"[-0.010097464010736941,0.1395976857145272]",100.0,"[0.11362286141172818,-0.05942084079431644]",100.0,"[-0.16121483206051526,-0.02606027664295199]",100.0,"[0.022935941663985628,-0.03293786971070952]",100.0,"[-0.09561719503750928,0.12481551761859294]",100.0,"[-0.0521131118205012,0.13910521265157064]",100.0,"[0.08724299045798829,0.17706927825337346]",100.0,"[0.03875286953021706,-0.12467741723408501]",100.0,"[-0.0709510139622908,-0.12808307167672422]",4.0,"[0.052191282387483016,0.08876160984574652]",100.0,"[0.12757053967969914,0.02984415744545591]",100.0,"[-0.03549876393572265,-0.07737810189862608]",100.0,"[0.176875681207603,0.06761920137933448]",100.0,"[0.08984020527010951,-0.1780426547104512]",100.0,"[0.023028741311147016,0.05002099059829057]",100.0,"[0.144510146786602,-0.022500004021443663]",100.0,"[0.08345931425300207,-0.011122038457501102]",100.0,"[-0.10742474697821504,-0.02413895978748998]",100.0,"[0.037114058010314546,0.15241854731025242]",100.0,"[-0.03332708962579152,-0.03663185286784847]",100.0,"[0.14995050285889577,-0.12158104027660013]",100.0,"[-0.009750083967558621,-0.1227732235514342]",4.0,"[-0.15152210744743078,0.085440896111213]",100.0,"[0.03153865292493169,-0.08513829135535736]",100.0,"[0.10474459945856318,0.13293519647801386]",100.0,"[0.02,0.02]",185.275,0.0,44.0,44.0,8.0,1.0,,,,,,,
,,,,,,,60984a1b0cce76d16c4ca781,6842baf6a96369826b317af1,2025-06-06_11h55.21.117,shape_ratio,2024.1.5,Win32,60.0240096,6842b561977af9ba9b0f87ca,,,,,,,,,,,185.275,185.275,,,185.687,186.04,left,0.347,,,,,,,,,0.5,,,,,,185.275,185.687,186.04,"[-0.06654632848197825,0.062450451993679476]",100.0,"[0.10874657885533803,-0.10550101174550416]",100.0,"[-0.048210932081630624,-0.010882220754125869]",4.0,"[-0.14590600147546198,0.06591142701046628]",100.0,"[-0.1876847481473897,0.008718025853632742]",4.0,"[0.04631504755329002,0.06781951038708288]",100.0,"[0.09450155026039508,0.020702191468599643]",100.0,"[-0.08887910765876689,-0.05423393504554054]",4.0,"[0.062035669481404696,0.1549550323803899]",4.0,"[-0.025068518189248115,-0.1712919952393297]",100.0,"[-0.03361427603643685,0.11954219011074144]",4.0,"[-0.08413337139978726,0.09910559675805126]",4.0,"[0.17176945302755214,-0.04619962273752471]",4.0,"[-0.07227336631402884,0.13834548983243355]",100.0,"[0.1460320232449794,0.12289603717408065]",100.0,"[-0.16272411418053628,-0.03935589106901877]",100.0,"[0.08935584047398538,0.09112754586681412]",4.0,"[0.04028951526981179,-0.05381496000046413]",100.0,"[0.12430602070926945,-0.010001320410069807]",100.0,"[-0.026965507791335278,0.041274958161925196]",4.0,"[0.18946380681583555,0.008944321000411173]",4.0,"[0.04361473952539804,-0.15926642733824264]",100.0,"[-0.14751425628153628,0.10679763561861266]",4.0,"[0.011563452576701768,-0.016941496697437844]",4.0,"[0.08181002259383242,-0.05258128702120237]",100.0,"[-0.05971825912253613,0.18751000770344048]",100.0,"[-0.1433344531466943,0.013295164488392196]",100.0,"[0.10287500752634547,-0.14535684099666196]",4.0,"[-0.1679921522274567,-0.10244353530862418]",4.0,"[0.016591127272594496,0.1300916803742411]",100.0,"[-0.10286472022474376,0.03292508364174649]",4.0,"[0.17765959454661728,0.06418158128148259]",4.0,"[0.02,0.02]",187.141,0.0,45.0,45.0,104.0,1.0,,,,,,,
,,,,,,,60984a1b0cce76d16c4ca781,6842baf6a96369826b317af1,2025-06-06_11h55.21.117,shape_ratio,2024.1.5,Win32,60.0240096,6842b561977af9ba9b0f87ca,,,,,,,,,,,187.141,187.641,,,187.892,188.091,right,0.185,,,,,,,,,0.9,,,,,,187.641,187.892,188.091,"[-0.1172095819287907,-0.04638082804916193]",100.0,"[-0.0654435982804278,-0.09056090387205896]",4.0,"[-0.16923214314291435,0.043517540010668945]",100.0,"[0.1423003584095052,0.07724470129603368]",100.0,"[0.18864710508034244,0.0511171902434453]",100.0,"[-0.02522021670435712,0.10651189460599138]",100.0,"[-0.0056289912917834055,0.05981480363917747]",100.0,"[-0.1528384934262018,-0.07732260138686949]",4.0,"[0.05439825265903333,-0.14537741738993412]",100.0,"[0.004264123453776695,-0.14778478692755306]",100.0,"[-0.11914756939359701,0.08759493994493324]",100.0,"[0.07631785903257614,0.10139232296646782]",100.0,"[-0.12237981020678612,-0.1156746387863292]",100.0,"[0.08268839803722014,0.1506002694431284]",100.0,"[0.030131663257477986,0.11631216269329404]",100.0,"[0.15316346549704604,0.12426034890021058]",100.0,"[-0.008589003753076502,0.16438028073449115]",100.0,"[0.05465869912779722,-0.02554938092397959]",100.0,"[-0.07475975744687559,0.03872434800049594]",100.0,"[-0.024198658960565573,-0.03044514496199152]",100.0,"[-0.03793317036449454,0.022056371847227273]",100.0,"[-0.11129736959392987,0.1426616062566726]",4.0,"[-0.039093838574367996,-0.1905176383871789]",100.0,"[0.03819308797071002,0.1683663112512066]",100.0,"[-0.08189426286149491,-0.1295403765567773]",100.0,"[0.03531748569225905,0.03788862207450484]",100.0,"[0.041641156238294494,-0.18939940909359076]",100.0,"[0.024261990342022255,-0.0978538084703713]",100.0,"[0.1032731014040902,-0.10876862244483919]",100.0,"[-0.11737319641825414,0.005811367172190398]",100.0,"[0.1864310893418145,0.00019319008824059483]",100.0,"[-0.07321383626714495,-0.01971490351948796]",100.0,"[0.02,0.02]",189.192,0.0,46.0,46.0,23.0,1.0,,,,,,,
,,,,,,,60984a1b0cce76d16c4ca781,6842baf6a96369826b317af1,2025-06-06_11h55.21.117,shape_ratio,2024.1.5,Win32,60.0240096,6842b561977af9ba9b0f87ca,,,,,,,,,,,189.192,189.691,,,189.941,190.324,right,0.367,,,,,,,,,0.9,,,,,,189.691,189.941,190.324,"[-0.07410397733528867,0.08833181538548218]",100.0,"[0.17574041098909093,0.04986418399152333]",4.0,"[0.08611865717195737,-0.00410356081955812]",100.0,"[-0.007146001387953004,-0.1680453083207699]",100.0,"[-0.001850585382439286,-0.02020679072597371]",100.0,"[-0.14721236722351091,0.09933966541936941]",100.0,"[-0.1500980654396511,-0.048689471882720506]",100.0,"[0.14357165951065187,0.137660051297127]",100.0,"[-0.0073680951077995755,0.12127190752450218]",100.0,"[-0.14554722128272224,0.05883160893029528]",100.0,"[0.018344832462977235,0.08194679235604342]",100.0,"[0.09722774733414132,-0.15850258063706826]",4.0,"[0.11690577863994084,0.041515038696634636]",100.0,"[-0.13619376081716453,0.002873861731665633]",4.0,"[-0.002746258413830289,-0.08045969443678692]",100.0,"[-0.18847350747149927,0.03477877664305962]",100.0,"[0.08793034899418373,-0.045266246472337776]",100.0,"[0.10120854345509962,0.10834766556484719]",100.0,"[-0.09165783033396682,-0.16326351462786537]",100.0,"[-0.0550096021926944,-0.07545017932428091]",100.0,"[-0.13593004683427345,-0.11930976173972799]",100.0,"[0.11164318312742702,-0.08907684442471611]",100.0,"[-0.07851190315001265,0.12924354326167334]",100.0,"[0.18648160599273245,-0.02955095562315932]",100.0,"[-0.06843907665710601,-0.0011339064035731188]",100.0,"[0.07704763861922931,0.07471418510227086]",100.0,"[0.05658710358300656,0.1865784845671446]",100.0,"[0.05073161769094494,0.14318851579324177]",100.0,"[-0.05478731266706398,-0.1395040020716897]",100.0,"[0.045460958080347114,0.049420374104060596]",100.0,"[-0.030277575164344882,0.1878403813053891]",100.0,"[0.14937843926201247,-0.10616400723975333]",100.0,"[0.02,0.02]",191.424,0.0,47.0,47.0,2.0,1.0,,,,,,,
,,,,,,,60984a1b0cce76d16c4ca781,6842baf6a96369826b317af1,2025-06-06_11h55.21.117,shape_ratio,2024.1.5,Win32,60.0240096,6842b561977af9ba9b0f87ca,,,,,,,,,,,191.424,191.925,,,192.175,192.658,left,0.47,,,,,,,,,0.4,,,,,,191.925,192.175,192.658,"[0.10738893140879861,0.0362163090403227]",4.0,"[-0.1669822306627242,-0.08698782166919372]",4.0,"[0.11071990985183246,-0.02426207758500074]",4.0,"[0.027277956800586756,-0.1676523501299708]",100.0,"[-0.06152136537589847,0.10935262337018388]",100.0,"[0.1369456587738928,-0.062097355489577656]",4.0,"[0.04746877300596294,0.15594072730234565]",4.0,"[-0.11505473900129479,0.01188513951961677]",4.0,"[-0.04225108811236953,-0.03212314770867881]",4.0,"[0.04753860498422583,-0.06944982871101515]",100.0,"[-0.008528933483725899,0.030570602038704472]",4.0,"[-0.04624996623419608,-0.10148540839779223]",4.0,"[0.0656345819900454,0.11899930895374855]",100.0,"[0.1769150211249639,-0.07430502668897573]",4.0,"[0.1554295134002356,0.07473200483400542]",100.0,"[0.08068684912830709,0.08020932654334338]",100.0,"[0.04866504981782453,-0.008958229013593505]",4.0,"[0.08357387584417286,-0.1695596265045031]",4.0,"[-0.056798034254396966,0.043081243648125246]",4.0,"[0.10641140356855411,-0.10714035163732594]",4.0,"[0.057867823647803206,-0.11896229775100393]",100.0,"[-0.1807943814189147,0.06677971734496403]",4.0,"[-0.10058266103333584,0.08281880576336516]",100.0,"[0.03319550341557689,0.03882545103740073]",4.0,"[0.00684924252317006,0.06973332915688586]",4.0,"[0.10955292008171157,0.14995276875099117]",100.0,"[-0.1089596277574632,-0.1322649963542885]",4.0,"[-0.0031110286347011524,0.19485818412346656]",100.0,"[-0.009049342712034756,-0.11850283857927751]",100.0,"[-0.1690703688147394,-0.03386044414844854]",4.0,"[-0.09034561704592506,0.17827541571827207]",100.0,"[0.151525054157725,-0.10935239284479148]",100.0,"[0.02,0.02]",193.758,0.0,48.0,48.0,154.0,1.0,,,,,,,
,,,,,,,60984a1b0cce76d16c4ca781,6842baf6a96369826b317af1,2025-06-06_11h55.21.117,shape_ratio,2024.1.5,Win32,60.0240096,6842b561977af9ba9b0f87ca,,,,,,,,,,,193.758,194.258,,,194.509,195.358,left,0.834,,,,,,,,,0.55,,,,,,194.258,194.509,195.358,"[-0.029690586848474743,0.008521345706792933]",100.0,"[0.057192615834055834,-0.16003075696350244]",100.0,"[-0.12523321568043613,0.00990622652313158]",100.0,"[0.10149253152693276,-0.0789116201053103]",100.0,"[-0.10522523422858314,0.12267760654751109]",4.0,"[-0.027525944943742043,-0.18587705379658612]",100.0,"[0.04898334901123066,-0.046398239320232536]",100.0,"[0.025476064140333918,-0.09451772027737088]",100.0,"[-0.14534560606632066,-0.06483062589005358]",100.0,"[-0.19005729787260806,0.05044181420047435]",100.0,"[0.13708634002856437,-0.04752804353822358]",100.0,"[0.053364687017120556,0.05023850315944818]",100.0,"[0.12813776297240248,0.11022179714187537]",4.0,"[-0.10562940175149718,0.05388266832275817]",100.0,"[0.0074403816216960465,0.05959365469331798]",4.0,"[-0.03703020927541682,-0.06270552736368364]",100.0,"[-0.12346701912402144,-0.1338252497365281]",4.0,"[-0.0440369629069084,-0.11333364670164225]",4.0,"[0.14983757438621734,-0.0022949371832897032]",100.0,"[0.1765921637895629,-0.03273383648688746]",100.0,"[0.006094814305665147,0.14221164564414504]",4.0,"[-0.0539468890954834,0.14469219360479843]",4.0,"[-0.0615285805603415,-0.15283991905722513]",4.0,"[-0.17104163387324672,-0.020432311110056313]",100.0,"[0.08779433800268317,-0.12321839601738996]",4.0,"[-0.07151303220664783,-0.003681569263888016]",4.0,"[-0.15894459266533437,0.10697412513091006]",100.0,"[0.014304578754225977,0.018690870184115665]",4.0,"[0.02995451189765179,0.19047309506981858]",100.0,"[0.158096029026573,-0.08258806003976014]",4.0,"[-0.04089408200334255,0.08069864454195168]",4.0,"[0.10645451044766713,0.07658432744703307]",4.0,"[0.02,0.02]",196.458,0.0,49.0,49.0,74.0,1.0,,,,,,,
