right,left,explain.started,explain.stopped,key_resp_3.keys,key_resp_3.rt,key_resp_3.duration,participant,session,date,expName,psychopyVersion,OS,frameRate,study_id,explain_2.started,explain_2.stopped,key_resp_4.keys,key_resp_4.rt,key_resp_4.duration,explain_3.started,explain_3.stopped,key_resp_5.keys,key_resp_5.rt,key_resp_5.duration,fixation.started,fixation.stopped,practice.started,practice.stopped,response.started,response.stopped,key_resp.keys,key_resp.rt,key_resp.duration,feedback.started,feedback.stopped,trials_2.thisRepN,trials_2.thisTrialN,trials_2.thisN,trials_2.thisIndex,trials_2.ran,dot_ratio,explain_4.started,explain_4.stopped,key_resp_6.keys,key_resp_6.rt,key_resp_6.duration,dotDisplay.started,dotDisplay.stopped,ITI.started,polygon_1.pos,polygon_1.edges,polygon_2.pos,polygon_2.edges,polygon_3.pos,polygon_3.edges,polygon_4.pos,polygon_4.edges,polygon_5.pos,polygon_5.edges,polygon_6.pos,polygon_6.edges,polygon_7.pos,polygon_7.edges,polygon_8.pos,polygon_8.edges,polygon_9.pos,polygon_9.edges,polygon_10.pos,polygon_10.edges,polygon_11.pos,polygon_11.edges,polygon_12.pos,polygon_12.edges,polygon_13.pos,polygon_13.edges,polygon_14.pos,polygon_14.edges,polygon_15.pos,polygon_15.edges,polygon_16.pos,polygon_16.edges,polygon_17.pos,polygon_17.edges,polygon_18.pos,polygon_18.edges,polygon_19.pos,polygon_19.edges,polygon_20.pos,polygon_20.edges,polygon_21.pos,polygon_21.edges,polygon_22.pos,polygon_22.edges,polygon_23.pos,polygon_23.edges,polygon_24.pos,polygon_24.edges,polygon_25.pos,polygon_25.edges,polygon_26.pos,polygon_26.edges,polygon_27.pos,polygon_27.edges,polygon_28.pos,polygon_28.edges,polygon_29.pos,polygon_29.edges,polygon_30.pos,polygon_30.edges,polygon_31.pos,polygon_31.edges,polygon_32.pos,polygon_32.edges,dot_size,ITI.stopped,trials.thisRepN,trials.thisTrialN,trials.thisN,trials.thisIndex,trials.ran,break_2.started,break_2.stopped,trials_3.thisRepN,trials_3.thisTrialN,trials_3.thisN,trials_3.thisIndex,trials_3.ran
subject chose dot,subject chose diamond,0.0004,35.2253,space,20.2113,,60b9f19d122c7adf0c37899c,6842badfb3c8fb436149524d,2025-06-06_10h54.55.325,shape_ratio,2024.1.5,Win32,59.88023952,6842b561977af9ba9b0f87ca,,,,,,,,,,,,,,,,,,,,,,,,,,,,,,,,,,,,,,,,,,,,,,,,,,,,,,,,,,,,,,,,,,,,,,,,,,,,,,,,,,,,,,,,,,,,,,,,,,,,,,,,,,,,,,,,,
,,,,,,,60b9f19d122c7adf0c37899c,6842badfb3c8fb436149524d,2025-06-06_10h54.55.325,shape_ratio,2024.1.5,Win32,59.88023952,6842b561977af9ba9b0f87ca,35.2255,67.8112,space,2.5713,,,,,,,,,,,,,,,,,,,,,,,,,,,,,,,,,,,,,,,,,,,,,,,,,,,,,,,,,,,,,,,,,,,,,,,,,,,,,,,,,,,,,,,,,,,,,,,,,,,,,,,,,,,,,
,,,,,,,60b9f19d122c7adf0c37899c,6842badfb3c8fb436149524d,2025-06-06_10h54.55.325,shape_ratio,2024.1.5,Win32,59.88023952,6842b561977af9ba9b0f87ca,,,,,,67.8113,71.7953,space,0.9533,,,,,,,,,,,,,,,,,,,,,,,,,,,,,,,,,,,,,,,,,,,,,,,,,,,,,,,,,,,,,,,,,,,,,,,,,,,,,,,,,,,,,,,,,,,,,,,,,,,,,,,,
,,,,,,,60b9f19d122c7adf0c37899c,6842badfb3c8fb436149524d,2025-06-06_10h54.55.325,shape_ratio,2024.1.5,Win32,59.88023952,6842b561977af9ba9b0f87ca,,,,,,,,,,,71.8061,72.2955,72.2957,72.5478,72.5479,73.5969,right,1.0157,,73.597,74.6977,0.0,0.0,0.0,0.0,1.0,0.2,,,,,,,,,,,,,,,,,,,,,,,,,,,,,,,,,,,,,,,,,,,,,,,,,,,,,,,,,,,,,,,,,,,,,,,,,,,,,,,,,,,,,,
,,,,,,,60b9f19d122c7adf0c37899c,6842badfb3c8fb436149524d,2025-06-06_10h54.55.325,shape_ratio,2024.1.5,Win32,59.88023952,6842b561977af9ba9b0f87ca,,,,,,,,,,,74.6981,75.1985,75.1985,75.4505,75.4506,76.4494,right,0.978,,76.4495,77.5508,0.0,1.0,1.0,1.0,1.0,0.8,,,,,,,,,,,,,,,,,,,,,,,,,,,,,,,,,,,,,,,,,,,,,,,,,,,,,,,,,,,,,,,,,,,,,,,,,,,,,,,,,,,,,,
,,,,,,,60b9f19d122c7adf0c37899c,6842badfb3c8fb436149524d,2025-06-06_10h54.55.325,shape_ratio,2024.1.5,Win32,59.88023952,6842b561977af9ba9b0f87ca,,,,,,,,,,,,,,,,,,,,,,,,,,,,77.551,86.2598,space,5.6882,,,,,,,,,,,,,,,,,,,,,,,,,,,,,,,,,,,,,,,,,,,,,,,,,,,,,,,,,,,,,,,,,,,,,,,,,,,,,,,,,,
,,,,,,,60b9f19d122c7adf0c37899c,6842badfb3c8fb436149524d,2025-06-06_10h54.55.325,shape_ratio,2024.1.5,Win32,59.88023952,6842b561977af9ba9b0f87ca,,,,,,,,,,,86.2687,86.7598,,,87.0107,87.8132,left,0.7852,,,,,,,,,0.1,,,,,,86.76,87.0107,87.8135,"[-0.023748736193238616,-0.03596840302577817]",4.0,"[0.10036145634022081,0.11101055043777963]",4.0,"[0.08330628472912198,-0.027322756244130192]",4.0,"[0.086617755645255,0.017432834410996963]",4.0,"[0.030923056588766044,0.18969421437627293]",100.0,"[-0.06276993051817024,0.026954136721835827]",4.0,"[-0.15287547330003437,0.0283095995326988]",100.0,"[-0.08351582800591392,-0.13235881381759657]",4.0,"[0.14657391108431314,0.04448679747572018]",4.0,"[-0.05129875127939997,0.06627543719525096]",4.0,"[0.11152278610824029,0.15510398350814286]",4.0,"[-0.03147837513270262,0.12522926955312266]",4.0,"[0.015311898223344854,0.15258724369785204]",4.0,"[0.02021551905741484,-0.041632537435762736]",4.0,"[0.05592104254000422,0.05924009882101838]",4.0,"[-0.05981431115523875,-0.013161334724575459]",4.0,"[0.01989650525662663,-0.09671179998130951]",4.0,"[0.0606965434208305,-0.18269559337611438]",4.0,"[-0.14448794776206578,-0.07880159583658466]",4.0,"[-0.10912516863672159,-0.020356871310274572]",4.0,"[0.14907402234408781,-0.05657291964493518]",4.0,"[-0.14039646169523531,0.1319803181035397]",4.0,"[-0.17423947582039662,-0.03924060182370746]",100.0,"[0.1439062024096362,-0.1107629082168047]",4.0,"[-0.07450078302348256,-0.1811808027639486]",4.0,"[-0.0137338874413677,-0.1306442207240075]",4.0,"[0.06873223412236491,-0.14199101556711377]",4.0,"[-0.18718657374579162,0.06228244195591685]",4.0,"[0.002653017536682509,0.01315114831875431]",4.0,"[-0.09010003141306351,0.08033301971945998]",4.0,"[-0.09372655705967008,0.14754391385796903]",4.0,"[-0.012999320886251692,0.053870465940410575]",4.0,"[0.02,0.02]",88.9139,0.0,0.0,0.0,208.0,1.0,,,,,,,
,,,,,,,60b9f19d122c7adf0c37899c,6842badfb3c8fb436149524d,2025-06-06_10h54.55.325,shape_ratio,2024.1.5,Win32,59.88023952,6842b561977af9ba9b0f87ca,,,,,,,,,,,88.9142,89.4126,,,89.6638,90.3472,right,0.6662,,,,,,,,,0.4,,,,,,89.4126,89.6638,90.3472,"[-0.14208784985809658,0.10275045715290902]",4.0,"[0.12628535665030863,0.1357046529435544]",100.0,"[0.043754959696834954,-0.12384059260023135]",4.0,"[-0.04511501635138851,0.05860154520495767]",4.0,"[0.1305918803577274,-0.048636922288794966]",100.0,"[0.03064453056258986,0.06731572260875444]",4.0,"[0.04349194545286443,-0.1879865722107076]",100.0,"[-0.0009320970235753741,-0.18026527339755674]",4.0,"[0.14281516039626463,0.020658865186419993]",4.0,"[0.07380579319633328,-0.09532717405061383]",4.0,"[0.08199147050320454,0.09892834237973319]",100.0,"[0.024825921876829006,0.004215873603957722]",100.0,"[-0.09413601289369708,0.12984317042442292]",100.0,"[-0.1224307169764747,-0.06119726882718349]",100.0,"[-0.1451703764236851,0.05535778144274405]",100.0,"[0.043681179154027736,0.13796888936012727]",4.0,"[0.00979221587437979,0.10716262383245881]",100.0,"[-0.10116792607859688,0.04216911745276487]",4.0,"[-0.09523846950485798,-0.09328314532849295]",100.0,"[0.08188252575228537,-0.03338535501490105]",100.0,"[-0.034013038788541845,0.16988100156350006]",4.0,"[0.07967301756093313,0.16286112133621894]",100.0,"[-0.1766115377333952,-0.026703727118689687]",4.0,"[-0.04056361943366348,-0.02950756161033173]",4.0,"[0.17305394026542625,-0.0773558207113578]",4.0,"[-0.08016575250247468,-0.011836705771276679]",4.0,"[-0.008881931259391799,0.03241183567481955]",4.0,"[0.12103228047819675,-0.12245901411323615]",100.0,"[-0.03511836264953806,-0.07575097811003541]",4.0,"[-0.13552423934348212,-0.12349305870795067]",4.0,"[0.01567057331823819,0.17538800760395953]",4.0,"[-0.09458402839717424,-0.14469428066762255]",4.0,"[0.02,0.02]",91.4479,0.0,1.0,1.0,161.0,1.0,,,,,,,
,,,,,,,60b9f19d122c7adf0c37899c,6842badfb3c8fb436149524d,2025-06-06_10h54.55.325,shape_ratio,2024.1.5,Win32,59.88023952,6842b561977af9ba9b0f87ca,,,,,,,,,,,91.4481,91.9497,,,92.199,92.9014,left,0.6843,,,,,,,,,0.45,,,,,,91.9497,92.1989,92.9014,"[-0.053874970589594645,-0.06962066507429045]",4.0,"[0.07898776506450565,0.182063208381308]",100.0,"[0.14299819099881217,-0.009078303661256427]",4.0,"[0.07463887174476493,0.133483049963475]",4.0,"[-0.10096969702660101,-0.029510579934671554]",4.0,"[-0.06390729992552494,-0.1772361841700869]",100.0,"[-0.0787146117390031,0.16714554348840166]",100.0,"[0.14259722908445127,-0.13508713074313014]",4.0,"[-0.0482390328501746,0.06272873334363385]",100.0,"[-0.15437708754648513,0.017862273941938383]",4.0,"[0.0409813925885254,0.00030813862858339444]",4.0,"[-0.12885359110170164,-0.11396587345085575]",100.0,"[-0.0321451734199803,0.18893211145485003]",4.0,"[-0.11881233579259401,0.1606634784908929]",100.0,"[-0.009164363396738576,0.12480603923823741]",4.0,"[0.16323053598645712,-0.09933150748659593]",4.0,"[0.041692215488209554,-0.09257498660059535]",100.0,"[-0.15291618393512388,0.10220828482701787]",100.0,"[0.10181912428990925,0.07256867252297329]",4.0,"[0.027502906412220054,0.1011426886237023]",4.0,"[-0.0022056412502629063,-0.09101099095886922]",4.0,"[0.08133323182734929,-0.027804552973926724]",4.0,"[0.021968171252722057,-0.18221002887369003]",100.0,"[0.05855137438924172,-0.13422050731033544]",100.0,"[-0.07503205887931788,-0.12398220858877947]",4.0,"[-0.11242357148201915,-0.1519365743432]",100.0,"[0.11459474960631368,0.11050110881799341]",4.0,"[0.02196149620793288,0.15005823377849015]",100.0,"[-0.11524753775911474,0.07107633043621929]",100.0,"[-0.08503893857393129,0.019820199991153253]",4.0,"[0.1744710207267044,-0.03957248316320677]",4.0,"[-0.12173463182672009,-0.06525115069703796]",100.0,"[0.02,0.02]",94.0002,0.0,2.0,2.0,137.0,1.0,,,,,,,
,,,,,,,60b9f19d122c7adf0c37899c,6842badfb3c8fb436149524d,2025-06-06_10h54.55.325,shape_ratio,2024.1.5,Win32,59.88023952,6842b561977af9ba9b0f87ca,,,,,,,,,,,94.0006,94.5008,,,94.7517,95.2349,right,0.4679,,,,,,,,,0.9,,,,,,94.5008,94.7516,95.235,"[-0.16963079093489322,-0.016528295604731014]",100.0,"[-0.14675253058609175,-0.10291255471600912]",100.0,"[0.08993614299588736,-0.07315455563283142]",100.0,"[0.052992219580334315,0.0020020576276341163]",100.0,"[-0.08067219051449064,0.044524992936901]",100.0,"[-0.1716702080566629,0.056964035006086315]",100.0,"[0.08294622839905533,0.17269469791759867]",100.0,"[0.1472440712922419,0.06109163877216247]",100.0,"[-0.06884823532456236,0.18125384802600183]",100.0,"[0.0957609527413672,0.13173589482161444]",100.0,"[-0.0378513991356729,0.10286353137725529]",100.0,"[0.036919704819756385,-0.14662449490887347]",100.0,"[-0.1132507602416846,0.14420125115146534]",4.0,"[-0.01998366525902292,-0.020818130508398428]",100.0,"[-0.015110557087272629,0.1705236225066416]",4.0,"[-0.03739954944953023,0.023565668038353627]",100.0,"[-0.13122217175805018,-0.0357088291148959]",100.0,"[-0.15751847934274593,0.11391566086801956]",100.0,"[0.051533918148426144,-0.18985297211403768]",100.0,"[-0.09382083152091589,-0.16978458925493262]",100.0,"[-0.07978639466321094,-0.036549342134261205]",100.0,"[0.01468238629146839,0.13891191167986647]",4.0,"[0.16990572634748285,-0.03300967879694514]",100.0,"[0.04300392970179152,0.08496315469452104]",100.0,"[-0.10867472371224836,-0.12717116515167529]",100.0,"[-0.023075682594453528,-0.1757091983488518]",100.0,"[0.13238273845691306,-0.053705266885356456]",100.0,"[-0.11782532520834917,0.07240065364552431]",100.0,"[0.02472426047923213,0.1978092409316872]",100.0,"[0.010528007770958164,-0.09480916259857765]",100.0,"[-0.10266883081974695,-0.07057206467692735]",100.0,"[-0.05011811374579842,0.14249114734719545]",100.0,"[0.02,0.02]",96.3359,0.0,3.0,3.0,8.0,1.0,,,,,,,
,,,,,,,60b9f19d122c7adf0c37899c,6842badfb3c8fb436149524d,2025-06-06_10h54.55.325,shape_ratio,2024.1.5,Win32,59.88023952,6842b561977af9ba9b0f87ca,,,,,,,,,,,96.3361,96.8384,,,97.0872,97.957,left,0.8516,,,,,,,,,0.4,,,,,,96.8384,97.0871,97.9571,"[-0.0007303576667021428,0.16410946455917247]",100.0,"[-0.057971867597704695,0.06925439892010961]",100.0,"[-0.10746400493733195,-0.04086424927913091]",4.0,"[0.08567398047220343,0.04526279459104552]",100.0,"[0.04175984513675707,0.11216408771538675]",4.0,"[0.0032258887384406386,-0.011633200811964952]",4.0,"[0.04865027499492734,0.015032179316578659]",100.0,"[-0.08014071737820463,-0.18242377198873982]",4.0,"[-0.18788928976358096,-0.038493224506267514]",4.0,"[0.07725604018850132,-0.08477836372112957]",4.0,"[0.09547046981688538,0.15626070915558327]",4.0,"[-0.17809162768550782,0.015293923933795034]",100.0,"[-0.10836045010548458,0.12023312629450152]",4.0,"[0.07709995348147614,-0.1500865634224646]",4.0,"[0.17409491392435886,0.07087597795706961]",100.0,"[-0.06346803778754315,-0.06984530993805392]",100.0,"[0.05404140583824876,-0.03156470789780762]",100.0,"[0.1215533172621595,-0.11368515984665076]",100.0,"[-0.05386898584924706,0.16576167992077498]",4.0,"[-0.11232731899226428,-0.000507254781058403]",4.0,"[-0.13529240602351042,0.06003194972024475]",4.0,"[-0.06236878189579946,-0.11135809745397403]",100.0,"[-0.014971120538646571,-0.1918994612172122]",100.0,"[0.000332182729099451,0.05415367600136279]",4.0,"[0.13027298876999857,0.11142788976882788]",4.0,"[-0.006209480136632438,-0.11170685840378337]",4.0,"[0.18666722203394376,-0.06028369399850733]",4.0,"[0.002575565198451767,0.10080848931564423]",100.0,"[-0.13948217049548423,-0.09158405350761877]",100.0,"[0.05407496621178464,-0.186698629428691]",4.0,"[-0.04502198476709026,0.002494240787556056]",4.0,"[0.16368174423314633,0.024223956585867137]",4.0,"[0.02,0.02]",99.0571,0.0,4.0,4.0,179.0,1.0,,,,,,,
,,,,,,,60b9f19d122c7adf0c37899c,6842badfb3c8fb436149524d,2025-06-06_10h54.55.325,shape_ratio,2024.1.5,Win32,59.88023952,6842b561977af9ba9b0f87ca,,,,,,,,,,,99.0573,99.5558,,,99.8081,100.4906,left,0.6381,,,,,,,,,0.4,,,,,,99.5558,99.808,100.4906,"[0.08561102534640078,-0.1594817083993721]",4.0,"[0.012466697900560708,-0.0004049314528238285]",100.0,"[0.06394962264594846,0.09212261427143889]",100.0,"[-0.0798466703402847,0.0633069355919158]",4.0,"[0.10277747441411282,0.16959951863355316]",100.0,"[0.161148482104126,-0.05930884306645829]",4.0,"[-0.04137930463451153,-0.019409417389617954]",4.0,"[-0.12221161310392209,0.15628180562891217]",100.0,"[0.04261494413864824,-0.02735777301884525]",4.0,"[-0.17757241279310246,-0.04647234688965972]",4.0,"[0.05666149148849895,-0.1051506209461523]",100.0,"[0.004252139435804278,0.11883572018008164]",4.0,"[0.13795179346857192,0.027544685607355148]",4.0,"[0.1119505409336029,-0.026882492796975264]",4.0,"[-0.16203848966769516,0.06702396434968926]",100.0,"[-0.16268237118167514,0.021144345066146743]",4.0,"[0.018151600421286124,0.05451643624857303]",100.0,"[-0.07751601569763979,0.10460369611723137]",4.0,"[-0.08478422403923432,-0.03359786204717332]",4.0,"[0.17744193015528215,0.053185217413029146]",4.0,"[0.06586112640244655,0.03777249642101679]",100.0,"[-0.10988705885999427,-0.06859364723884584]",4.0,"[0.12179007036160114,-0.09625962576304087]",100.0,"[-0.038342620160766304,0.12373318407015262]",4.0,"[0.1555021402009994,-0.016780672704289713]",4.0,"[0.06276739772045482,0.15490148627787148]",100.0,"[-0.07725387132458662,-0.13440546330332828]",100.0,"[-0.015422775869179742,-0.15971019594723393]",4.0,"[0.10351075239044522,0.08056775739344248]",4.0,"[-0.04747815675587733,-0.09687476388432209]",4.0,"[0.14236439436598405,0.0978289605628837]",100.0,"[0.025532350455802807,-0.06486689584710659]",100.0,"[0.02,0.02]",101.5916,0.0,5.0,5.0,170.0,1.0,,,,,,,
,,,,,,,60b9f19d122c7adf0c37899c,6842badfb3c8fb436149524d,2025-06-06_10h54.55.325,shape_ratio,2024.1.5,Win32,59.88023952,6842b561977af9ba9b0f87ca,,,,,,,,,,,101.5919,102.0932,,,102.3425,103.179,right,0.8182,,,,,,,,,0.45,,,,,,102.0932,102.3424,103.179,"[0.09325504838021886,0.004329034574652734]",4.0,"[-0.1347034291938273,0.1457341724515603]",4.0,"[-0.05010215630362141,0.1115537570577433]",100.0,"[0.07476670843252847,-0.10429817136552702]",4.0,"[-0.009226724973716436,-0.1397094463427678]",4.0,"[-0.1491980499868096,0.025447257172474074]",4.0,"[-0.08920994241685658,0.17687435079617536]",4.0,"[-0.032790960091170426,0.010187695234887615]",100.0,"[-0.04944457983307992,-0.14635269527017222]",100.0,"[-0.054280713886279676,0.06663656404008977]",4.0,"[0.12417077448805358,-0.05302689844973854]",100.0,"[0.07604776078721519,0.1318146885712474]",4.0,"[0.13547016713902235,0.1090885293549292]",4.0,"[-0.15079308568848568,-0.10664926473322082]",100.0,"[0.03276145645370026,0.1650310897482565]",100.0,"[0.03214757152094074,0.11005326985237879]",4.0,"[-0.09267613303334363,0.03705103729523015]",100.0,"[-0.15476238598150494,-0.061671291411099755]",4.0,"[0.17183380164424955,-0.0666515003250606]",4.0,"[0.00971938445651716,0.05706022142537842]",100.0,"[0.10406874864840002,0.057193665523248526]",4.0,"[-0.029353782128810114,-0.10067916734003808]",100.0,"[0.053490573667725375,0.009300713458070164]",100.0,"[0.04200178875082264,-0.06070635111240976]",100.0,"[0.168256236798716,0.048938142691753284]",100.0,"[-0.07934253574956117,-0.09699130060615284]",4.0,"[0.1380747222079821,-0.1119030185128039]",100.0,"[-0.07536847833251097,-0.05534439675437563]",4.0,"[0.005346544253934281,-0.18544166360873873]",4.0,"[0.16908460799740072,-0.014804742882011461]",4.0,"[-0.16163508365028556,-0.013774799136281147]",100.0,"[0.08249428722975378,0.17734255137470048]",4.0,"[0.02,0.02]",104.2776,0.0,6.0,6.0,122.0,1.0,,,,,,,
,,,,,,,60b9f19d122c7adf0c37899c,6842badfb3c8fb436149524d,2025-06-06_10h54.55.325,shape_ratio,2024.1.5,Win32,59.88023952,6842b561977af9ba9b0f87ca,,,,,,,,,,,104.2779,104.7793,,,105.0279,105.5622,right,0.5011,,,,,,,,,0.9,,,,,,104.7793,105.0279,105.5622,"[0.08601717634126461,-0.12647336540082313]",100.0,"[0.190444480519548,-0.05288467461458133]",100.0,"[-0.06986612322383363,-0.08510963953102114]",100.0,"[-0.013747804709077624,0.06903786903367896]",100.0,"[-0.03818448144529374,-0.12567150961360246]",100.0,"[0.14292492408112992,-0.08595312007395453]",100.0,"[-0.12529588314772264,0.0012957219856046226]",4.0,"[0.02412292373974953,-0.05168694221883981]",100.0,"[0.17916396365350637,0.031048365052887168]",100.0,"[-0.06393466840725845,-0.17223249438923824]",100.0,"[-0.07437979891004898,-0.044928429552948214]",100.0,"[-0.05668710157906057,0.19019259536051733]",100.0,"[0.0842148122183422,-0.005218272175405574]",100.0,"[-0.18955951283633957,0.028145424734040903]",100.0,"[-0.12060544392560624,0.1443575037679881]",4.0,"[0.10098951634301641,-0.07315385953961734]",100.0,"[-0.1666037450512069,-0.0764609402509616]",100.0,"[-0.017680060531495012,0.11220150292387016]",100.0,"[0.07126723338238676,0.06303324121251865]",100.0,"[-0.11383853314598742,-0.03826833249544373]",100.0,"[-0.06322443028585802,0.04053548457161084]",100.0,"[-0.10223085853329636,0.09005062116274952]",100.0,"[0.004748040079324379,0.005583633440158528]",100.0,"[0.10261776785194465,-0.16326522455651085]",100.0,"[0.00032471259453740824,0.18564118905571844]",100.0,"[-0.14686572352839578,-0.11806930828801679]",100.0,"[-0.0347617156891015,-0.017504790108830375]",100.0,"[-0.0029039424391771288,-0.15125462880972476]",100.0,"[0.144283458475091,0.12158227336303161]",100.0,"[0.04301425867063379,-0.18410542244985298]",100.0,"[0.13555652176099364,0.0192156396527247]",100.0,"[0.050097990516323194,0.16765947246927557]",4.0,"[0.02,0.02]",106.6632,0.0,7.0,7.0,29.0,1.0,,,,,,,
,,,,,,,60b9f19d122c7adf0c37899c,6842badfb3c8fb436149524d,2025-06-06_10h54.55.325,shape_ratio,2024.1.5,Win32,59.88023952,6842b561977af9ba9b0f87ca,,,,,,,,,,,106.6635,107.1666,,,107.4156,107.917,right,0.4849,,,,,,,,,0.45,,,,,,107.1666,107.4156,107.9171,"[0.12530834273447333,-0.1446362980083609]",4.0,"[0.11900945022265927,-0.027671008422198634]",4.0,"[0.006252378417120857,-0.10311704635247958]",4.0,"[0.060109261964775736,-0.15152606772483543]",100.0,"[-0.06941814468078959,-0.013800491754942454]",4.0,"[-0.06361983952452586,0.16562130789491541]",4.0,"[-0.11482156161627129,-0.01064860808987844]",100.0,"[0.08498774279381024,-0.08687639550719307]",4.0,"[0.19936857328881943,0.004993757303498152]",100.0,"[0.15506955252145938,-0.10269727657493205]",100.0,"[-0.11905021184517785,-0.1567652043789902]",4.0,"[-0.15078239806170327,0.04594361745032951]",4.0,"[-0.14230652837301885,-0.1009220732154957]",4.0,"[-0.0840945276564419,-0.13687514486387684]",4.0,"[0.07362439961159412,0.13705495779765978]",100.0,"[0.08188177596605728,0.17971686740715617]",4.0,"[0.012981778656644216,-0.008695532987125042]",100.0,"[0.11420745422541652,0.07442978544024213]",100.0,"[-0.004017718863732875,0.11534196647043901]",4.0,"[-0.1088629922177818,0.08434273252094282]",4.0,"[-0.020874375856434087,-0.1543375795135267]",100.0,"[-0.1872581950926017,-0.002933596492693105]",100.0,"[0.19400821902407145,-0.03722705300687201]",100.0,"[0.06003504355793931,0.002140110623265296]",100.0,"[-0.015308684406782833,-0.19629252787592444]",100.0,"[0.02285158519270569,0.17930924910519133]",4.0,"[-0.11961099457227371,0.15573766887189816]",4.0,"[0.01833456429412994,-0.06238095087615208]",4.0,"[-0.03133751665649777,0.011353360796457337]",4.0,"[0.09107715966574764,0.03384049162494834]",100.0,"[-0.05783361958685174,0.06878388789320249]",100.0,"[-0.10094486254782557,-0.06757190623895408]",4.0,"[0.02,0.02]",109.0152,0.0,8.0,8.0,128.0,1.0,,,,,,,
,,,,,,,60b9f19d122c7adf0c37899c,6842badfb3c8fb436149524d,2025-06-06_10h54.55.325,shape_ratio,2024.1.5,Win32,59.88023952,6842b561977af9ba9b0f87ca,,,,,,,,,,,109.0154,109.5159,,,109.7662,110.8198,left,1.0182,,,,,,,,,0.5,,,,,,109.5159,109.7662,110.8198,"[-0.16265016987290137,-0.08905954829526404]",4.0,"[-0.11510601159691088,-0.02993883105193294]",4.0,"[-0.08541813901267435,-0.13063236396770087]",4.0,"[0.12210172216805733,-0.10123816974970846]",4.0,"[0.055736403603589946,0.09466087351191695]",4.0,"[-0.08793208110094196,0.10150989003439537]",100.0,"[-0.07814845829343789,0.0279479675428685]",100.0,"[0.0059509063376619225,-0.0657677168157735]",100.0,"[0.018738901581102013,-0.02051526839550766]",4.0,"[0.12324858397708009,0.08345590066316584]",4.0,"[-0.1172674615310394,0.047240414394855296]",4.0,"[0.17404668224586853,-0.033833705625769296]",100.0,"[-0.03264681316096543,0.08926557106868052]",4.0,"[0.12236946987616094,0.03163952806623794]",100.0,"[-0.05545880678797944,-0.17753733004607436]",4.0,"[0.047845214311592235,0.1866958401824142]",100.0,"[-0.03951033964841901,-0.08217113263999985]",100.0,"[0.19210427214245734,0.017554735207204155]",100.0,"[-0.0726319742703734,0.15574950321479994]",4.0,"[-0.0014571187853942796,0.1698291051882632]",4.0,"[-0.03593838595458186,0.034017304850439516]",100.0,"[-0.06977697048998464,-0.0262615037475118]",100.0,"[0.07602565968318889,-0.06706587213143224]",100.0,"[0.02231361185269509,-0.19355465243219844]",4.0,"[0.04187329953089388,-0.13580753110312316]",4.0,"[0.10810255788373363,-0.04202872701974413]",4.0,"[-0.16222942927889397,-0.04256718969718822]",100.0,"[-0.13708703946256573,0.14544397426548467]",100.0,"[0.066759615662739,-0.0009910705006056211]",100.0,"[0.08283293793733391,0.05564513000457282]",100.0,"[0.17432695256086123,0.06862942647220664]",4.0,"[-0.14515860883462242,0.007095005597964661]",100.0,"[0.02,0.02]",111.9205,0.0,9.0,9.0,102.0,1.0,,,,,,,
,,,,,,,60b9f19d122c7adf0c37899c,6842badfb3c8fb436149524d,2025-06-06_10h54.55.325,shape_ratio,2024.1.5,Win32,59.88023952,6842b561977af9ba9b0f87ca,,,,,,,,,,,111.9207,112.419,,,112.6691,113.1892,left,0.5019,,,,,,,,,0.5,,,,,,112.419,112.6691,113.1893,"[0.06930865036584595,-0.08025737853694867]",100.0,"[0.019837909021907008,-0.16772773379312764]",100.0,"[-0.06999898548608113,-0.011989592092864773]",4.0,"[-0.06004357359835867,0.18089426086261068]",4.0,"[0.049463901783440886,0.1345210620356468]",4.0,"[0.15626800137204025,0.05736621916978785]",100.0,"[0.16334125460168925,0.11123950938038911]",100.0,"[0.0072702460385799614,-0.024569145156390963]",100.0,"[-0.04307665994818003,0.121381407516615]",100.0,"[-0.023787849515960347,0.03982805249907878]",100.0,"[0.02736129230354579,-0.0952233235671869]",4.0,"[-0.04270998676854855,-0.14429674890091967]",4.0,"[-0.10711658576943374,0.14778089791089594]",100.0,"[-0.18124664375960023,-0.07612794683154932]",4.0,"[0.07967058850135861,0.09490502476676232]",4.0,"[-0.10004352176513091,-0.14352287260904303]",4.0,"[-0.03695714769460294,-0.0849102651689221]",4.0,"[0.03696037940681385,0.035252416114767496]",4.0,"[0.11733442808879412,-0.05205558019669794]",100.0,"[-0.14230661035218653,-0.10656581065491152]",100.0,"[-0.10697903248200434,0.023800362572265255]",100.0,"[0.10895965568745508,-0.1463309378375671]",100.0,"[0.03979781747776688,0.08066507045696973]",100.0,"[-0.10079506636103348,0.0679801556945618]",100.0,"[0.14485950072941858,-0.0040493157438518095]",100.0,"[-0.03389655176471652,-0.03426939152166868]",4.0,"[-0.19055407167366084,0.03386491377805498]",4.0,"[0.0672154425814801,-0.1604843029463167]",4.0,"[-0.11191668312691269,-0.04611340504068447]",4.0,"[0.1505609019476091,-0.11255885843554268]",100.0,"[0.18298875450416688,-0.05768894850804635]",4.0,"[0.019864572173882888,0.171654768588053]",4.0,"[0.02,0.02]",114.287,0.0,10.0,10.0,106.0,1.0,,,,,,,
,,,,,,,60b9f19d122c7adf0c37899c,6842badfb3c8fb436149524d,2025-06-06_10h54.55.325,shape_ratio,2024.1.5,Win32,59.88023952,6842b561977af9ba9b0f87ca,,,,,,,,,,,114.2874,114.7879,,,115.0402,115.4549,left,0.3979,,,,,,,,,0.45,,,,,,114.788,115.0402,115.4549,"[0.17786117528872958,0.00490509182218829]",4.0,"[0.05593401395238984,0.1558526212314993]",100.0,"[0.153228906204481,0.06434277928401043]",4.0,"[-0.027663675784108735,0.11192983318907389]",100.0,"[-0.046832571600632825,-0.17775334943507576]",4.0,"[-0.10900337978823109,-0.027704049619098614]",100.0,"[0.14061890522035303,-0.12579091099525636]",100.0,"[-0.03637942538032242,0.01736920453306784]",4.0,"[0.13711900146441797,-0.041746280089674875]",100.0,"[-0.013178014638101436,0.17895773798902648]",100.0,"[-0.008260419885997763,-0.05363319117895834]",100.0,"[0.08772423639236224,-0.08142850440115976]",4.0,"[-0.16787291703072468,-0.08532655729601296]",4.0,"[-0.11932771331621221,0.10387231836596977]",100.0,"[0.07733045008022621,0.0043691266294991725]",4.0,"[0.1104048920849109,0.14572050737786096]",4.0,"[0.12390274207633475,0.031057852512222695]",100.0,"[0.06146300312475751,-0.18079073729874978]",100.0,"[0.009547476292606171,-0.10272764309807943]",100.0,"[0.027899563397095213,0.028829297161347998]",4.0,"[0.037383123047268776,-0.07302379642249626]",100.0,"[-0.07179717636403281,0.16112306135756707]",100.0,"[-0.12123660801020256,-0.07369055450295159]",4.0,"[-0.07458276427054228,0.04659073249937643]",100.0,"[-0.06372647850062767,-0.014020964331143543]",4.0,"[-0.14038278631938927,0.04064445383491541]",4.0,"[-0.12859964972384527,-0.14797383200159028]",4.0,"[-0.050559996231315206,-0.12034199873798876]",4.0,"[0.07414328853486862,0.11939641966032571]",4.0,"[0.15444248869754715,0.11757004888152482]",4.0,"[-0.06576411904585679,-0.06959382218032985]",4.0,"[-0.18042373169483736,0.08536115971661565]",4.0,"[0.02,0.02]",116.5563,0.0,11.0,11.0,129.0,1.0,,,,,,,
,,,,,,,60b9f19d122c7adf0c37899c,6842badfb3c8fb436149524d,2025-06-06_10h54.55.325,shape_ratio,2024.1.5,Win32,59.88023952,6842b561977af9ba9b0f87ca,,,,,,,,,,,116.5566,117.0585,,,117.3072,117.8932,left,0.5681,,,,,,,,,0.1,,,,,,117.0585,117.3072,117.8933,"[0.021164071541681213,0.19633167657523554]",4.0,"[-0.0700531224637054,0.013035029964282399]",4.0,"[0.14101452209607543,0.008027256421394955]",4.0,"[0.12313715875924276,0.10924672035397821]",4.0,"[-0.033653533306110706,-0.039348411757087594]",4.0,"[0.08702165037070789,-0.1777905158670382]",4.0,"[-0.038561755470961454,-0.17520782542489882]",4.0,"[0.007223688267422465,0.08969416883774749]",4.0,"[-0.1061170029051226,-0.11583247380241149]",4.0,"[-0.02304077814791543,0.15881658869455034]",4.0,"[0.06361654338668361,-0.12290843323606374]",100.0,"[0.04247608788828168,-0.051175404765442745]",4.0,"[0.1600340243136227,-0.043365848632067105]",4.0,"[0.12542918885149393,-0.08840095201661746]",4.0,"[-0.0909791009790563,-0.07756191067495334]",4.0,"[-0.17377375271002293,-0.08351907018687205]",100.0,"[-0.08351350210872457,0.14108564623668615]",4.0,"[0.011499611048010339,0.008480648843053258]",4.0,"[-0.08831716849306319,0.10051122109433848]",4.0,"[0.0915995790909799,0.025738887274241437]",100.0,"[0.07512299675295517,0.14610838455275116]",4.0,"[-0.19302376912099925,-0.02220208577706892]",4.0,"[0.1580393005470585,-0.11395780623849103]",4.0,"[0.19639171305979644,-0.00891695840334475]",4.0,"[-0.10420230108677958,0.061577970554898394]",4.0,"[0.01487941748094191,-0.11879912305866638]",4.0,"[0.041348045891084435,-0.18477142655860326]",4.0,"[-0.03800827499653954,-0.11626278619166407]",4.0,"[0.07289223047363612,0.09250920857789655]",4.0,"[-0.026762771622482102,0.02576661543323193]",4.0,"[-0.19202564122484747,0.02167701111752432]",4.0,"[-0.15298990086914357,-0.11839958346205477]",4.0,"[0.02,0.02]",118.9939,0.0,12.0,12.0,187.0,1.0,,,,,,,
,,,,,,,60b9f19d122c7adf0c37899c,6842badfb3c8fb436149524d,2025-06-06_10h54.55.325,shape_ratio,2024.1.5,Win32,59.88023952,6842b561977af9ba9b0f87ca,,,,,,,,,,,118.9941,119.4925,,,119.7442,120.0622,right,0.3014,,,,,,,,,0.6,,,,,,119.4925,119.7442,120.0622,"[-0.10829720411871252,0.14600264145036446]",4.0,"[0.1184509669280002,-0.10802616499272709]",100.0,"[0.02250394820375927,-0.08831802159953198]",4.0,"[0.03382207988999764,0.0976333121338702]",100.0,"[0.03830850192526707,-0.005462545913386879]",100.0,"[-0.13631397689737473,-0.03676089828513303]",100.0,"[-0.020083271152802076,0.008303910939003241]",100.0,"[-0.15038821453219917,0.13136599900412105]",100.0,"[-0.13739914463543232,-0.13237935644872015]",100.0,"[0.07182336155190239,-0.17686691588331077]",4.0,"[-0.06944743231157866,0.01900624655953596]",4.0,"[0.1415049405352458,0.0036588150500008283]",100.0,"[-0.05298927919099165,-0.05409614276092622]",4.0,"[-0.020883780034924526,0.11917238032646905]",4.0,"[-0.11728526382311194,0.07488687529792434]",100.0,"[0.17281963533012182,0.03343049693637836]",100.0,"[-0.17872649988859463,0.038625887712216506]",4.0,"[0.13104736859139013,0.0675325891265019]",4.0,"[0.08323303457085414,0.15859349989735108]",100.0,"[-0.06173511656390402,0.1055096133005446]",100.0,"[0.007587146922392777,0.05919354276343141]",4.0,"[0.04915813422567357,-0.1185437236476742]",100.0,"[-0.04418853846854122,-0.12017753248612204]",4.0,"[0.059245027010538444,-0.06318778869322471]",100.0,"[-0.1348913532436982,-0.07932618749159576]",4.0,"[-0.19283647341015947,-0.04130170255606737]",100.0,"[0.12386233423571481,-0.1507206222337802]",4.0,"[0.17303792463830034,-0.079020423752911]",4.0,"[0.08759197650532384,-0.005393637651583392]",100.0,"[0.01805777852871519,0.13892157647004297]",100.0,"[-0.023336314068617955,0.17432074690864383]",100.0,"[-0.09403367120161571,-0.13543566265517681]",100.0,"[0.02,0.02]",121.1803,0.0,13.0,13.0,51.0,1.0,,,,,,,
,,,,,,,60b9f19d122c7adf0c37899c,6842badfb3c8fb436149524d,2025-06-06_10h54.55.325,shape_ratio,2024.1.5,Win32,59.88023952,6842b561977af9ba9b0f87ca,,,,,,,,,,,121.1807,121.678,,,121.9498,122.5954,right,0.633,,,,,,,,,0.4,,,,,,121.678,121.9497,122.5955,"[0.056836625076581694,0.0975205260462882]",100.0,"[-0.17624527614058852,-0.04070882456479317]",4.0,"[-0.06012069001847542,0.05396428651010708]",4.0,"[0.007926805468659145,-0.07305154602322324]",4.0,"[0.17499134319236437,0.07772273281570964]",4.0,"[-0.14891268811680197,-0.08409172183324813]",4.0,"[-0.10334966610953555,-0.09773676960856378]",4.0,"[0.10483667513218699,-0.08086296096317598]",100.0,"[0.07813113944541315,0.1450483162125056]",100.0,"[0.1748701701674979,-0.08617414247528021]",100.0,"[0.030853361815917114,-0.11344275379710386]",100.0,"[-0.07586905459823096,-0.008495037401135984]",4.0,"[-0.07960006372583708,-0.14602492850337406]",100.0,"[-0.004468790765505389,0.16742355362858663]",4.0,"[0.1441056231284811,0.00034406181256572656]",100.0,"[0.008440746947277993,0.023097108555950503]",4.0,"[-0.16199068692527868,0.0837372584109137]",100.0,"[0.011505765023810153,-0.16883095933988787]",100.0,"[0.125030424843423,0.07254540799804246]",100.0,"[-0.03780720189447381,0.14480995452892173]",4.0,"[0.06929772099999096,0.03840862688815503]",4.0,"[-0.039165500466393,-0.06523593624451203]",4.0,"[-0.020273761529897738,0.08585901911356085]",100.0,"[0.19420691814065036,0.00532081376580999]",4.0,"[0.1905643035134201,-0.0461664491347816]",4.0,"[0.12298706644864016,0.13275376337685174]",4.0,"[-0.1338532367712616,-0.018587617729705533]",4.0,"[-0.09489992296144459,0.09925754549792005]",4.0,"[0.09397521023417386,-0.12582388142178746]",100.0,"[-0.03189935557996628,0.008968396439117454]",100.0,"[-0.026433409795336153,-0.12746489842671593]",4.0,"[0.030297453936618396,-0.02578307828723293]",4.0,"[0.02,0.02]",123.6965,0.0,14.0,14.0,169.0,1.0,,,,,,,
,,,,,,,60b9f19d122c7adf0c37899c,6842badfb3c8fb436149524d,2025-06-06_10h54.55.325,shape_ratio,2024.1.5,Win32,59.88023952,6842b561977af9ba9b0f87ca,,,,,,,,,,,123.6967,124.1986,,,124.4478,124.7988,right,0.3326,,,,,,,,,0.9,,,,,,124.1986,124.4478,124.7989,"[-0.05845825039913371,0.03277596829477351]",100.0,"[-0.009989311451959576,-0.03545982914868001]",100.0,"[-0.08659606715851559,0.07693837708644327]",100.0,"[-0.06827415240224471,-0.1797363723625219]",100.0,"[-0.01941455442072449,-0.10115526530059739]",100.0,"[0.05677520222138359,0.16296159330196736]",100.0,"[0.1708285469740384,-0.034562062589986044]",100.0,"[0.0972913447427264,-0.13900394102404004]",100.0,"[0.034724832189124165,-0.06721165243430557]",100.0,"[0.13139231748557306,-0.09105875544482314]",100.0,"[0.0042657052331824125,-0.14573158881964915]",100.0,"[-0.13645332598857296,-0.1284757393669457]",100.0,"[0.03548210268292576,0.009570387918625595]",100.0,"[-0.09690530597890835,-0.1211874519147503]",4.0,"[-0.11555508323888689,-0.04121678448834941]",100.0,"[0.067614613457727,0.11671962837027436]",100.0,"[-0.11195200046579652,0.11733567796048565]",4.0,"[0.060283914701922764,0.06845335585952392]",100.0,"[-0.16697462717872502,0.05223485453286438]",100.0,"[0.08123840957332804,-0.08419935211999587]",100.0,"[0.09988815997223384,0.04741540626877773]",100.0,"[0.06122525080221717,-0.021778725018141744]",100.0,"[0.10796435485444673,-0.053392099082255576]",100.0,"[0.052439476616345515,-0.14822746481026008]",4.0,"[0.10552646299469193,0.08810997634230805]",100.0,"[0.1293388483907786,0.1401079789581785]",100.0,"[0.017538384996671107,0.19652789385657582]",100.0,"[-0.17481791123601653,-0.011260029099210816]",100.0,"[0.011930774162911011,0.1501468954227798]",100.0,"[-0.037432316220356046,0.19248492723611388]",100.0,"[-0.07064308395406307,0.1281130730291651]",100.0,"[0.09484836088222401,0.006768690000702044]",100.0,"[0.02,0.02]",125.9176,0.0,15.0,15.0,9.0,1.0,,,,,,,
,,,,,,,60b9f19d122c7adf0c37899c,6842badfb3c8fb436149524d,2025-06-06_10h54.55.325,shape_ratio,2024.1.5,Win32,59.88023952,6842b561977af9ba9b0f87ca,,,,,,,,,,,125.9179,126.3995,,,126.6503,127.0027,right,0.3346,,,,,,,,,0.6,,,,,,126.3995,126.6501,127.0027,"[0.10063808143668343,-0.11339514754598146]",100.0,"[0.07747029172878486,0.01617633680815858]",100.0,"[0.14647816118112153,-0.1300187186318356]",100.0,"[0.14627083886675246,-0.04630685984134623]",100.0,"[0.1054793048993481,-0.061522673659610394]",100.0,"[0.04201631493182255,0.15204817975223944]",100.0,"[0.10876179929376638,0.08218519638287218]",100.0,"[-0.1628346202369285,0.0982459054869585]",4.0,"[-0.1955620162504937,0.005239975642603223]",4.0,"[-0.07942879222688388,0.13726279941111869]",4.0,"[0.0066778111619909975,-0.1804905114026326]",100.0,"[-0.0034141236014463574,0.16065969156413892]",4.0,"[-0.12608066496949333,0.15110778539390124]",4.0,"[-0.0761669205945347,-0.07032447600779984]",100.0,"[-0.03098953364609393,-0.034016883293554706]",100.0,"[0.053633490454838936,0.10790358101536808]",100.0,"[0.05859417295871317,-0.08815822483517521]",4.0,"[-0.03644616865282318,0.018263047490375724]",100.0,"[-0.1418907388664365,-0.015074018789020538]",4.0,"[-0.0037444036059665372,-0.09295870041852232]",4.0,"[0.1122851364136563,-0.01959951867707434]",4.0,"[-0.14561616915633566,-0.10692480809181348]",4.0,"[0.1529980810251152,0.03438046899791554]",100.0,"[-0.1170065730812751,0.019781270552031188]",100.0,"[-0.04381592520252663,-0.17438699831258656]",100.0,"[0.04274871098248362,-0.008338592378958978]",4.0,"[-0.09771019234757661,-0.030060968877488957]",100.0,"[-0.02755854269040893,0.07580310415926969]",4.0,"[0.04737036981764811,-0.049286143618970574]",100.0,"[0.055655509721022976,-0.1665484280323033]",100.0,"[0.02111001858957826,0.04095006676814731]",100.0,"[0.13774996648845353,0.12992484028165355]",4.0,"[0.02,0.02]",128.1027,0.0,16.0,16.0,47.0,1.0,,,,,,,
,,,,,,,60b9f19d122c7adf0c37899c,6842badfb3c8fb436149524d,2025-06-06_10h54.55.325,shape_ratio,2024.1.5,Win32,59.88023952,6842b561977af9ba9b0f87ca,,,,,,,,,,,128.103,128.6018,,,128.8354,129.4188,left,0.5604,,,,,,,,,0.4,,,,,,128.6018,128.8354,129.4189,"[-0.04986783596182903,-0.1500704147022273]",4.0,"[-0.06994973542867612,0.10984889789160297]",100.0,"[0.040468631090061866,0.039475326210023]",4.0,"[-0.12829270184473265,0.06224053584268153]",100.0,"[-0.0692363103495556,0.003112904500690487]",4.0,"[0.07787310778134723,0.06542887975976154]",4.0,"[0.01703926051678335,0.17098510539133346]",4.0,"[-0.08649088508421997,0.050030500901098895]",100.0,"[0.1087643527446485,-0.07181634883611272]",100.0,"[0.09614501554514954,0.13415897440375654]",100.0,"[-0.15913362206085954,-0.04576449764085486]",4.0,"[0.19347266202414357,-0.03964732235080967]",100.0,"[0.025054687167223345,-0.17584106399464117]",4.0,"[0.16228441333430743,-0.013821850438919949]",100.0,"[0.014458303695619642,-0.1058936867685583]",4.0,"[0.07352897358002171,0.007078011805627207]",4.0,"[0.14655284162200793,0.04048172770278674]",100.0,"[0.12480480640574629,-0.02975865741405251]",100.0,"[-0.03610345745940172,0.14335126377715735]",4.0,"[0.02322537341234012,-0.05977235484152288]",4.0,"[0.07139894616587715,-0.05128933567109682]",100.0,"[0.022381781685033648,0.11725627422641578]",4.0,"[-0.12294129402629837,0.021780042990414042]",100.0,"[-0.018089542011827445,-0.04161241003333815]",100.0,"[-0.12764463371390258,0.14242328828789255]",4.0,"[-0.15896407332858362,-0.10749169045524354]",4.0,"[-0.08889424441882356,-0.1599335238572775]",4.0,"[0.12595894159404306,-0.11122763468976096]",4.0,"[-0.1516294164522538,0.10908021059052614]",100.0,"[-0.043026037184392935,-0.09626298103741696]",4.0,"[0.03687900660496816,-0.02189029747853821]",4.0,"[-0.029603870932198,0.07439517150015357]",4.0,"[0.02,0.02]",130.5203,0.0,17.0,17.0,172.0,1.0,,,,,,,
,,,,,,,60b9f19d122c7adf0c37899c,6842badfb3c8fb436149524d,2025-06-06_10h54.55.325,shape_ratio,2024.1.5,Win32,59.88023952,6842b561977af9ba9b0f87ca,,,,,,,,,,,130.5206,131.0228,,,131.2707,131.621,left,0.3301,,,,,,,,,0.45,,,,,,131.0229,131.2707,131.6211,"[0.19884485945505878,-0.01876248954165792]",4.0,"[0.11871898512889788,-0.03921734270839389]",4.0,"[-0.11707713350145375,0.09613629654411172]",4.0,"[-0.07645285044892784,0.05553058443448708]",4.0,"[0.03341638269542905,0.10923004572820331]",4.0,"[0.013625594354902827,-0.01897719785065859]",4.0,"[-0.18539673989471556,-0.0002834083804417989]",100.0,"[-0.10210528923515966,-0.0032413383209135335]",4.0,"[0.08953334388945501,0.03503688370123274]",100.0,"[0.1848495891438923,0.020591639667533447]",100.0,"[0.11645131208461211,-0.10629362656138973]",100.0,"[0.0028495389030282737,0.14173241117754998]",4.0,"[-0.07053711604406807,-0.12926095758016762]",100.0,"[0.09884164805629504,-0.16916376378619108]",4.0,"[-0.08018629471011454,-0.05378973871803264]",100.0,"[0.17872357165459846,0.08434728389057791]",100.0,"[-0.1482498586675393,-0.021776813085027064]",100.0,"[-0.0705396073428255,0.1598874109600164]",4.0,"[0.14081767484130137,0.028850734509220377]",100.0,"[-0.00426786036858272,-0.07159878377510756]",4.0,"[-0.17891016078338545,-0.0515232403958347]",4.0,"[0.0632082874531121,-0.14161565917486146]",4.0,"[-0.125493644617244,0.15374287851323368]",4.0,"[0.07686414595720958,-0.05085023162497535]",4.0,"[-0.17575015568096963,0.057022901940217564]",4.0,"[0.03972485930315542,-0.10230425102396942]",100.0,"[-0.05748738164561783,0.09166270229134293]",4.0,"[-0.048779653047006835,-0.08449251180773693]",100.0,"[-0.046835623544260414,-0.19015117898623435]",100.0,"[-0.022363633049565578,-0.12601395117415407]",4.0,"[0.000012190838299410803,0.18644979239300166]",100.0,"[0.03335633811288687,0.04623686174716125]",100.0,"[0.02,0.02]",132.7224,0.0,18.0,18.0,142.0,1.0,,,,,,,
,,,,,,,60b9f19d122c7adf0c37899c,6842badfb3c8fb436149524d,2025-06-06_10h54.55.325,shape_ratio,2024.1.5,Win32,59.88023952,6842b561977af9ba9b0f87ca,,,,,,,,,,,132.7226,133.2231,,,133.4733,134.1437,left,0.652,,,,,,,,,0.5,,,,,,133.2231,133.4732,134.1438,"[-0.03707521503456389,-0.12841976402134195]",4.0,"[-0.015288380115954302,-0.19385552166274803]",100.0,"[-0.06807735975865821,0.15073573784917893]",4.0,"[0.05894800160705181,-0.004963926684405174]",100.0,"[0.15699018162278622,-0.02710175107077824]",100.0,"[0.024906941096524197,-0.1051913091310315]",100.0,"[-0.14875593922448632,0.11288288075712198]",100.0,"[-0.007318283698956192,0.040779869904869065]",4.0,"[0.08021845920279404,0.16588016613512876]",4.0,"[0.027548764659304725,0.14477081084983837]",100.0,"[0.09988872621887157,-0.08557745141914033]",100.0,"[0.09859200064277066,0.11574989254055944]",100.0,"[-0.12885178692011479,-0.015738464007294655]",4.0,"[0.10699135583490015,-0.0031125572880227378]",4.0,"[-0.07396148594925163,0.07631698013196571]",4.0,"[-0.08513372323257183,0.005678298182758157]",100.0,"[-0.02424967614954477,0.12990931436168815]",100.0,"[-0.1460993954590135,-0.1120736201714532]",100.0,"[0.1959603289361494,-0.03698946678823477]",100.0,"[-0.10700839590467798,-0.1510691011206872]",4.0,"[0.06444004541763985,0.05538579518621365]",4.0,"[-0.12054257191618332,0.07300959758571894]",4.0,"[-0.16447212774376196,-0.04687781843419742]",4.0,"[-0.027296465728367216,-0.05464436510789836]",4.0,"[0.13987684326876698,0.13996360865766463]",100.0,"[0.1569150111087617,-0.08423949396661153]",4.0,"[-0.07216984350988924,-0.04788369233544056]",4.0,"[-0.18439662797857262,0.0037384734469105207]",100.0,"[-0.1698747541220908,0.05155872099111297]",4.0,"[0.07131306785400343,-0.14325370033164175]",100.0,"[0.12784232407030924,-0.15010785285624753]",100.0,"[0.017280080981199344,0.0732624692177081]",4.0,"[0.02,0.02]",135.2416,0.0,19.0,19.0,91.0,1.0,,,,,,,
,,,,,,,60b9f19d122c7adf0c37899c,6842badfb3c8fb436149524d,2025-06-06_10h54.55.325,shape_ratio,2024.1.5,Win32,59.88023952,6842b561977af9ba9b0f87ca,,,,,,,,,,,135.2419,135.7421,,,135.9924,136.879,left,0.8674,,,,,,,,,0.4,,,,,,135.7421,135.9924,136.879,"[-0.019646761937569805,0.0859932943306917]",100.0,"[-0.043587707066984845,-0.13691769352563946]",4.0,"[0.17903732883649084,0.05408002258760488]",4.0,"[0.02904994904306918,-0.08449321074351117]",100.0,"[-0.04956343368930317,0.1699227407707453]",4.0,"[-0.10225652093744876,0.11091473582962212]",4.0,"[-0.10323849764386268,-0.09800933251793598]",100.0,"[-0.039982716770347704,0.022275865070722177]",4.0,"[-0.14021173645508758,0.12594160164103665]",4.0,"[0.06784415131114815,-0.12888998865182463]",4.0,"[-0.17167117163621637,-0.07688821767270651]",4.0,"[-0.19694377555817585,0.01527990867544759]",100.0,"[0.0755809646876759,0.11070848085678281]",4.0,"[0.03935000785811395,0.18758696617287013]",100.0,"[0.12062498530870798,-0.009263499071746192]",4.0,"[0.03229304487043003,-0.014139587218437145]",100.0,"[0.15405124778173251,-0.0951557252801726]",4.0,"[0.1305045657719863,0.14029260340344912]",100.0,"[-0.09118692616521515,0.07147857445099251]",4.0,"[-0.12987941491722022,0.0470252981497232]",4.0,"[-0.007378946470568768,-0.06790975861141399]",4.0,"[0.047129107921620395,0.14724232194761178]",100.0,"[-0.055509318009487704,-0.06850769797484048]",4.0,"[0.0903867912546954,-0.07041585903524562]",4.0,"[-0.10892197972746266,-0.0346588374702788]",100.0,"[0.17855403409670773,-0.0011717274906978567]",100.0,"[0.1080767635472176,-0.1489971543658615]",4.0,"[0.06361878855214635,0.03868034533079165]",100.0,"[-0.028729588164604268,-0.18458241988014099]",100.0,"[0.1345263552101871,-0.047262101956114716]",4.0,"[0.041146993843753886,-0.1608424834573944]",4.0,"[0.18416015478682257,-0.0657779315207355]",100.0,"[0.02,0.02]",137.9804,0.0,20.0,20.0,156.0,1.0,,,,,,,
,,,,,,,60b9f19d122c7adf0c37899c,6842badfb3c8fb436149524d,2025-06-06_10h54.55.325,shape_ratio,2024.1.5,Win32,59.88023952,6842b561977af9ba9b0f87ca,,,,,,,,,,,137.9807,138.4782,,,138.7307,139.212,right,0.4639,,,,,,,,,0.9,,,,,,138.4782,138.7306,139.212,"[-0.012157562766587516,-0.040273545865157793]",100.0,"[0.028968671582621477,-0.11311182971858798]",100.0,"[-0.11562736144919203,-0.11679388792275677]",100.0,"[-0.16044726360563163,0.11539303027201706]",100.0,"[0.11000663337753662,0.1516755541483182]",100.0,"[-0.008861252435831104,0.17056206114853886]",100.0,"[-0.06293735333797233,-0.10066506401919337]",100.0,"[-0.006074275764851342,0.09558052570040636]",100.0,"[0.0797357198305352,0.11140756152684703]",100.0,"[0.029484388302880374,-0.027853372474784283]",4.0,"[-0.18536632215874668,0.010613514427676773]",100.0,"[-0.057137832608622076,0.031335775577706504]",4.0,"[0.1947108688645968,0.022731436470228034]",100.0,"[0.15925304785722105,-0.03716269156413146]",100.0,"[-0.16769856221770965,0.058711280881054755]",100.0,"[-0.018777075154884127,-0.14755687157870231]",100.0,"[0.02735753263090046,0.18960819523923353]",100.0,"[-0.15521755181101138,-0.10022962005786074]",100.0,"[-0.11277399840042816,-0.03136198903052951]",100.0,"[-0.06449785632841389,0.169272933131331]",100.0,"[-0.01961707259039977,-0.08409156213811313]",100.0,"[0.07334505754789553,-0.010898291317883137]",100.0,"[0.14656288773018072,0.1285292665176145]",4.0,"[0.16611921269888136,0.0832568611538133]",100.0,"[0.028552693760873715,0.01768052089399716]",100.0,"[-0.04746491064919765,-0.17865852226935103]",100.0,"[0.027592211172972437,-0.18531818854892948]",100.0,"[0.1870659425785892,-0.06689124267811926]",100.0,"[0.11794990569994548,0.020168591450686498]",100.0,"[-0.11387075449243068,0.13249406623604104]",100.0,"[-0.09717593667677338,-0.1737890447087218]",100.0,"[-0.10479235173989686,0.08652450759663181]",100.0,"[0.02,0.02]",140.3132,0.0,21.0,21.0,21.0,1.0,,,,,,,
,,,,,,,60b9f19d122c7adf0c37899c,6842badfb3c8fb436149524d,2025-06-06_10h54.55.325,shape_ratio,2024.1.5,Win32,59.88023952,6842b561977af9ba9b0f87ca,,,,,,,,,,,140.3134,140.8324,,,141.0657,141.6644,right,0.5746,,,,,,,,,0.6,,,,,,140.8324,141.0656,141.6645,"[0.06490138657915613,0.018624767032546233]",100.0,"[-0.04429267528940012,-0.1339090566486346]",4.0,"[-0.07486158487302311,-0.08198315352153916]",100.0,"[-0.006139202423976799,0.029342401481146238]",100.0,"[0.0034426165159945556,0.1959284048402643]",4.0,"[0.08936752719334477,-0.16021279661023483]",100.0,"[0.10029974748815841,-0.11782182093604546]",100.0,"[0.11824734201726397,0.14647880414137904]",100.0,"[-0.0347580988038816,0.08077735468512268]",100.0,"[-0.09009061381275979,-0.04163256421214828]",100.0,"[-0.10553965804985592,-0.1613429244330044]",100.0,"[0.16030756903098659,0.038583509873555535]",4.0,"[0.05306864454765202,-0.05185840775634042]",4.0,"[0.13243126707038175,0.07025549863607108]",100.0,"[0.14213705546076136,-0.012556935632762046]",100.0,"[-0.13888336467929815,-0.014745105538867077]",100.0,"[-0.04048151286067212,0.18012209866402812]",4.0,"[-0.1732147809524927,-0.08947670678013024]",100.0,"[0.1316345861454439,-0.0895389909143499]",4.0,"[0.06959737652234764,0.0808513442835165]",100.0,"[-0.10453269526009236,0.03188658809308702]",4.0,"[0.18636841199788715,-0.01653176914158538]",100.0,"[-0.19670446778054074,0.011623731976058916]",4.0,"[-0.07393075052194147,0.13939900659403637]",100.0,"[-0.14230262707167005,0.08213602216045447]",100.0,"[0.04532803523623722,-0.14959742322006583]",4.0,"[0.01971527884669527,-0.1828725166215077]",4.0,"[-0.05804889335526016,0.042079379480291786]",100.0,"[-0.017776051674875205,0.12169080197902106]",4.0,"[-0.022386330525060245,-0.026662575653276767]",4.0,"[0.10070370738401307,-0.030294225494359183]",100.0,"[-0.11286450809366912,-0.09938655380010172]",4.0,"[0.02,0.02]",142.7656,0.0,22.0,22.0,31.0,1.0,,,,,,,
,,,,,,,60b9f19d122c7adf0c37899c,6842badfb3c8fb436149524d,2025-06-06_10h54.55.325,shape_ratio,2024.1.5,Win32,59.88023952,6842b561977af9ba9b0f87ca,,,,,,,,,,,142.766,143.266,,,143.5163,144.2837,right,0.7358,,,,,,,,,0.55,,,,,,143.2661,143.5163,144.2837,"[-0.11193564619595583,0.08936834790321399]",4.0,"[0.05558451684510576,0.14140950901193217]",4.0,"[0.03682136475870354,0.03657360998815743]",100.0,"[-0.1520012400548488,-0.008959279627288588]",100.0,"[0.04586650730553215,-0.03976591320029384]",100.0,"[0.11718600848980074,-0.01852189168118691]",4.0,"[-0.03714192465776024,0.13432685562721616]",100.0,"[-0.19195024693048693,0.04979155941460357]",100.0,"[-0.14761444834644463,-0.13021240543347815]",4.0,"[-0.022743624799063725,-0.03353674560467751]",100.0,"[-0.08519479157839578,0.13425601762436268]",100.0,"[0.1324682656367725,0.043789321375314494]",100.0,"[-0.0036265664500915477,-0.15257497166710768]",100.0,"[0.003758501535151521,0.12556119449154238]",4.0,"[0.08661175895679259,0.05178306037200512]",4.0,"[0.09960662501478587,-0.15697313981870512]",4.0,"[-0.05017232103857246,0.07777825812915207]",100.0,"[-0.0673447932471691,-0.03727260710601968]",100.0,"[0.14923624943131575,-0.076528976958736]",100.0,"[0.1229957568095744,0.09847226007118769]",4.0,"[-0.05033948166710008,-0.08139503511649784]",4.0,"[-0.0063328118644949355,0.18409636528065454]",4.0,"[-0.11141132187932909,0.03214716567862682]",100.0,"[0.10733836092426455,-0.09041089103752545]",100.0,"[-0.08857324003602404,-0.10043199327639879]",100.0,"[-0.1588446338004692,-0.04868243970578989]",4.0,"[-0.037822829530738525,-0.19430758628160064]",100.0,"[0.053688056743433396,-0.09827234937023752]",100.0,"[-0.11357467110576802,-0.06717172024007954]",4.0,"[0.1128718350543971,0.15929993992864105]",4.0,"[-0.15210229445700757,0.06513477530256372]",100.0,"[0.0416413708323309,-0.14077362938302873]",4.0,"[0.02,0.02]",145.3846,0.0,23.0,23.0,64.0,1.0,,,,,,,
,,,,,,,60b9f19d122c7adf0c37899c,6842badfb3c8fb436149524d,2025-06-06_10h54.55.325,shape_ratio,2024.1.5,Win32,59.88023952,6842b561977af9ba9b0f87ca,,,,,,,,,,,145.3848,145.904,,,146.1355,146.9735,left,0.8188,,,,,,,,,0.5,,,,,,145.904,146.1355,146.9735,"[0.061965099797664465,-0.021778695269099795]",4.0,"[-0.14179591246214368,0.1351801566475853]",100.0,"[0.04268034741542916,-0.07510210056886038]",100.0,"[0.17039876346749927,-0.05035382319539484]",100.0,"[0.10043971331960592,0.10123720805785338]",100.0,"[-0.061571506518484684,0.002603312895824333]",4.0,"[-0.1611350062889068,-0.031051352396194772]",100.0,"[-0.07803178688275192,0.07629813791407535]",4.0,"[0.1475599249244446,0.11025547555433377]",4.0,"[-0.1481374157904086,0.035590609625251894]",4.0,"[-0.03425843167807515,0.17256313892814687]",4.0,"[-0.05333289841597681,-0.06253909667744237]",100.0,"[-0.10697559129235247,0.032708417770472585]",4.0,"[0.07795339871390401,0.01569228379996704]",4.0,"[-0.011667750054611932,0.05579725255896673]",4.0,"[0.003060298660142565,-0.09797242054620847]",100.0,"[0.027412878008031338,0.008657092147593031]",100.0,"[-0.11340266014735678,-0.1218924468433101]",100.0,"[0.14576449797284768,0.0005986519278604671]",100.0,"[-0.14403036206422556,0.0903644829818311]",4.0,"[0.007643692192199959,-0.15033307333991147]",100.0,"[0.07302667779814076,0.1566614734941987]",4.0,"[0.05290426721375402,0.08535268044032361]",100.0,"[0.11926724894349636,0.0606649394836151]",4.0,"[0.13965355902819107,-0.1220645145053597]",100.0,"[-0.10560904019473771,-0.045618270291248555]",4.0,"[-0.018058374827857753,-0.006145993088038856]",4.0,"[-0.029631878356724213,-0.1674522610232587]",100.0,"[-0.0818547153536932,-0.1534287884143111]",100.0,"[0.006292059626799327,0.1088756333429145]",100.0,"[-0.04165564486176147,0.12131088030186431]",4.0,"[0.09799853821868325,-0.04971891763759196]",4.0,"[0.02,0.02]",148.0726,0.0,24.0,24.0,92.0,1.0,,,,,,,
,,,,,,,60b9f19d122c7adf0c37899c,6842badfb3c8fb436149524d,2025-06-06_10h54.55.325,shape_ratio,2024.1.5,Win32,59.88023952,6842b561977af9ba9b0f87ca,,,,,,,,,,,148.0728,148.5713,,,148.8052,149.2886,left,0.4578,,,,,,,,,0.1,,,,,,148.5713,148.8052,149.2886,"[0.0998394675511185,-0.1434124056689406]",100.0,"[-0.18515289305875385,0.029472996016614048]",4.0,"[0.06399101465325858,0.11005566311404483]",4.0,"[0.027911576701008134,-0.1073473219888782]",4.0,"[-0.07411935174655794,-0.11912663870234873]",4.0,"[-0.03422123259884126,-0.04958550779970946]",4.0,"[0.15129642774138508,0.07696180022418107]",4.0,"[-0.02297409005841895,0.09048409077611361]",4.0,"[-0.09683704351177477,-0.014375830220487777]",4.0,"[0.01878006646022608,-0.036205852411428846]",4.0,"[0.1343533605856302,-0.02886920504902637]",100.0,"[0.12605714562500345,0.15234323689354237]",4.0,"[0.10261869281986086,0.08573556898187092]",4.0,"[-0.013969748025351463,-0.15460241613652043]",4.0,"[0.03797649009376279,0.1789768633790579]",4.0,"[-0.15800080196192698,0.06928426954318995]",4.0,"[0.19712050800284572,-0.023880260397811635]",4.0,"[0.01074269185922918,0.03723577783423103]",4.0,"[0.026104528506918422,0.14054337545536566]",4.0,"[-0.11719190138036496,-0.07899613940535613]",4.0,"[-0.075936090393214,0.16536296149961724]",4.0,"[0.017079740538127473,-0.18588903437600326]",4.0,"[-0.0795542762135281,-0.16181145358109186]",100.0,"[-0.03248812361399093,0.17566365527006025]",4.0,"[-0.1517127735715538,-0.04648793481180058]",4.0,"[0.13735044953917247,0.026508517392899295]",4.0,"[-0.09378148853682144,0.08707632531336029]",4.0,"[0.10285626680273605,-0.07947745888773432]",4.0,"[0.18268593239187617,0.02663371703639129]",4.0,"[0.07432754951459315,0.039625405787802215]",4.0,"[-0.04123961710800925,-0.08980524585013605]",4.0,"[0.056231558561057264,-0.17493008294671067]",4.0,"[0.02,0.02]",150.3899,0.0,25.0,25.0,206.0,1.0,,,,,,,
,,,,,,,60b9f19d122c7adf0c37899c,6842badfb3c8fb436149524d,2025-06-06_10h54.55.325,shape_ratio,2024.1.5,Win32,59.88023952,6842b561977af9ba9b0f87ca,,,,,,,,,,,150.3901,150.8925,,,151.1407,151.5575,right,0.397,,,,,,,,,0.9,,,,,,150.8926,151.1407,151.5576,"[-0.05936178995417973,0.051697516716510225]",100.0,"[-0.07133414385440805,0.16176446409175352]",100.0,"[0.045801505307275184,0.026118951050968398]",100.0,"[0.0021805477679895102,0.1311138948906888]",100.0,"[-0.05449972895754478,0.12499234705820464]",100.0,"[0.18012705861681044,-0.022272100931640757]",100.0,"[0.14544696969523688,-0.058207065211373366]",100.0,"[0.07287276282320511,-0.1275322766585117]",4.0,"[0.14942705934460707,0.1182206892420017]",100.0,"[-0.16449778789242317,0.08684677617338216]",100.0,"[0.0253357019310151,-0.18903258101917203]",100.0,"[0.08618700872869862,0.16746906933365818]",100.0,"[-0.16044047118633348,0.03848993076852355]",100.0,"[-0.013885937370692646,0.03378474894482794]",100.0,"[0.05288723068693225,0.0671931477159601]",100.0,"[0.055292980955958054,0.1265919832409542]",4.0,"[-0.15419014853384888,-0.010689236116538454]",100.0,"[-0.1252585044496609,0.05941810338790629]",100.0,"[-0.03664368981766804,0.08828122276031623]",100.0,"[0.1864686665760013,0.06355036379146642]",100.0,"[-0.08455996996769896,-0.05559002136361021]",100.0,"[-0.07893181205387317,-0.17715062209256577]",100.0,"[0.017647481575206122,-0.129504317338025]",100.0,"[-0.10208492031715281,-0.10753107545293014]",4.0,"[0.033298975649112106,0.19449729677094785]",100.0,"[-0.013586178887058998,-0.010489072376806515]",100.0,"[0.09011022891096666,0.10307161178864167]",100.0,"[0.15359035669178336,0.02053735351907114]",100.0,"[-0.03740912535425835,-0.17374255961544655]",100.0,"[0.1233326647603337,0.15104286343120862]",100.0,"[-0.19341923469039965,-0.029824729891464157]",100.0,"[0.0670007555327128,-0.08474547086425659]",100.0,"[0.02,0.02]",152.659,0.0,26.0,26.0,10.0,1.0,,,,,,,
,,,,,,,60b9f19d122c7adf0c37899c,6842badfb3c8fb436149524d,2025-06-06_10h54.55.325,shape_ratio,2024.1.5,Win32,59.88023952,6842b561977af9ba9b0f87ca,,,,,,,,,,,152.6593,153.1475,,,153.4144,154.2491,right,0.8183,,,,,,,,,0.5,,,,,,153.1475,153.4144,154.2491,"[0.10410286424413391,-0.11275263326008224]",4.0,"[-0.0644363369902396,-0.009847825191816824]",100.0,"[0.14100582007189688,0.08300752862012985]",4.0,"[-0.099227698478835,0.10092604142051649]",4.0,"[0.09805267116298579,0.17027230151667858]",100.0,"[-0.005944833337134084,0.07866965371265995]",4.0,"[0.03606335210163348,0.19502652767084713]",100.0,"[-0.16918548641011694,-0.09191330711534657]",100.0,"[-0.1208858776454472,0.05433910670463918]",4.0,"[-0.08462450886669763,-0.06429625147346453]",4.0,"[0.12241977278774231,-0.06040639688320033]",100.0,"[0.004282005780237545,-0.02397865447483385]",4.0,"[-0.16274059945728608,-0.02000848939453049]",100.0,"[-0.11334928305141402,0.1576271159517834]",4.0,"[-0.08643263940807229,-0.13644441718667444]",4.0,"[0.16433600268606746,0.04822649553399172]",100.0,"[-0.00456678599959755,0.17186777729539782]",100.0,"[-0.0530880054963282,-0.16252058795899033]",100.0,"[-0.0092837355965279,0.11989619877784076]",4.0,"[0.13066649292317187,-0.009220438109712667]",100.0,"[0.057748615448162836,0.12071614179529143]",4.0,"[-0.11958502583499706,-0.009617662977184678]",4.0,"[-0.06777005873682354,0.1426269189029101]",100.0,"[-0.02068259482224881,-0.07688025358001768]",100.0,"[0.03023938846085288,-0.058144707730530154]",100.0,"[0.07816532769420527,-0.01153711257759254]",4.0,"[0.11166254791996896,-0.1546380106483035]",100.0,"[0.039076284067006764,-0.11441559252355563]",4.0,"[-0.023651210790308304,0.008967423941090076]",100.0,"[-0.04339359526928711,0.18377976067571875]",4.0,"[0.07279511582463906,-0.0857606244342099]",100.0,"[-0.12796464571846217,-0.08566593826951695]",4.0,"[0.02,0.02]",155.3451,0.0,27.0,27.0,97.0,1.0,,,,,,,
,,,,,,,60b9f19d122c7adf0c37899c,6842badfb3c8fb436149524d,2025-06-06_10h54.55.325,shape_ratio,2024.1.5,Win32,59.88023952,6842b561977af9ba9b0f87ca,,,,,,,,,,,155.3453,155.8477,,,156.0956,156.6127,left,0.4901,,,,,,,,,0.45,,,,,,155.8477,156.0956,156.6127,"[-0.15432919184008342,0.1179809738554291]",4.0,"[-0.09479487819923546,0.10125509115671735]",4.0,"[0.04667228374034282,0.19098532681402536]",100.0,"[0.0783044435844256,0.07155910488489156]",4.0,"[-0.010164738122291458,-0.19335444961650416]",100.0,"[-0.12225522782028735,-0.04126813699555952]",4.0,"[0.010422592324929056,0.0791079051298799]",4.0,"[0.06557106454811147,-0.09781052904545051]",4.0,"[-0.03501501049840936,-0.11271230644465849]",100.0,"[0.1736741782678899,0.057604910430829596]",100.0,"[-0.027291023224855857,0.024016811225296888]",100.0,"[-0.07722962779896468,0.002260620495706175]",4.0,"[0.08811260118661403,0.031062991061237985]",100.0,"[-0.1305247410292039,0.03975249487713672]",100.0,"[-0.130824493179199,-0.09713895995896372]",4.0,"[-0.09454073425017896,-0.1538200209161645]",4.0,"[0.06452968327715058,-0.1644093246845244]",100.0,"[0.05656698473791664,0.12905793090360318]",4.0,"[-0.04793194176533019,0.07917661308494094]",4.0,"[0.12650183521170344,0.14591116007074068]",4.0,"[0.04078781001414904,-0.0492277427559369]",4.0,"[-0.07452701969533021,0.1478272298125113]",4.0,"[0.13709702816799615,-0.14401185130171118]",100.0,"[-0.0035913572468436734,0.13351622794181475]",100.0,"[-0.15865390886713052,0.010562223697993318]",100.0,"[0.151389076839792,-0.08784820605334057]",100.0,"[-0.0781543497144983,0.048389113365070235]",4.0,"[0.10650487839413529,-0.08361844632521988]",4.0,"[0.1402849491242937,0.10057285668824233]",100.0,"[-0.004616806699186585,-0.0343175266498632]",100.0,"[-0.19231529141579864,0.05017885922711051]",4.0,"[0.09150964824833518,-0.029692664653391942]",4.0,"[0.02,0.02]",157.7002,0.0,28.0,28.0,147.0,1.0,,,,,,,
,,,,,,,60b9f19d122c7adf0c37899c,6842badfb3c8fb436149524d,2025-06-06_10h54.55.325,shape_ratio,2024.1.5,Win32,59.88023952,6842b561977af9ba9b0f87ca,,,,,,,,,,,157.7005,158.1809,,,158.4315,158.9346,left,0.4846,,,,,,,,,0.1,,,,,,158.1809,158.4315,158.9347,"[0.15663443977865638,-0.042059862173176636]",4.0,"[-0.11681718849338053,-0.1597368873624209]",4.0,"[-0.16834545341357102,0.0928195229322281]",4.0,"[-0.1929737584734581,0.004701231260107262]",4.0,"[-0.07888791247612835,0.028710983852508924]",4.0,"[0.11334184771352243,0.1085453231591788]",100.0,"[0.12191922345387077,0.15852383673689593]",4.0,"[-0.013342115907326493,-0.1511559049385614]",4.0,"[-0.02590922544001753,-0.09493668765616003]",4.0,"[0.10207770245913242,-0.016431419866681285]",4.0,"[-0.023892493625331697,0.11856544682903664]",4.0,"[0.1815428218687462,-0.005683375700228854]",4.0,"[0.03610678620673355,-0.06771306592068589]",4.0,"[-0.011162856474380506,0.0654701017242675]",4.0,"[0.07410305732058428,0.04242906046477209]",4.0,"[0.06436179076245663,0.11358852591414659]",4.0,"[-0.1321641078017001,-0.059663919527669716]",4.0,"[0.10556399698841323,-0.1393279981691519]",4.0,"[-0.01993188380298653,0.17291207251749907]",4.0,"[0.049493173562812014,-0.1573633793482459]",4.0,"[-0.04688811419883035,-0.04245306517407521]",100.0,"[0.020660206978797946,0.09252801710941662]",4.0,"[0.09007755473357773,-0.09977287423932545]",100.0,"[-0.15300486743374175,0.021958842721348577]",4.0,"[0.14495899821355102,-0.1136780343257957]",4.0,"[-0.17941181049025492,-0.05301284919163068]",4.0,"[0.050627318130659044,0.1848846164258745]",4.0,"[-0.07206230057197748,0.08633079650170501]",4.0,"[-0.07096402035554741,-0.15745668673461818]",4.0,"[0.12669386479143666,0.06134884310726734]",4.0,"[-0.03850341413040782,-0.19035290673723643]",4.0,"[-0.08762192116495866,0.16042835899920177]",4.0,"[0.02,0.02]",160.0349,0.0,29.0,29.0,190.0,1.0,,,,,,,
,,,,,,,60b9f19d122c7adf0c37899c,6842badfb3c8fb436149524d,2025-06-06_10h54.55.325,shape_ratio,2024.1.5,Win32,59.88023952,6842b561977af9ba9b0f87ca,,,,,,,,,,,160.0351,160.5334,,,160.7727,161.5512,left,0.7365,,,,,,,,,0.5,,,,,,160.5334,160.7727,161.5512,"[-0.09558842004419431,-0.0027817656105781343]",100.0,"[-0.11368070397778744,0.1461141711853772]",100.0,"[0.09437634724900018,-0.07476181796818288]",100.0,"[0.07207154129587963,-0.1624419960088992]",100.0,"[0.06725419897440259,0.06516901620442458]",4.0,"[-0.13348047734688903,0.04359554253118396]",4.0,"[0.048079342945562584,0.01138239720024154]",4.0,"[0.010907614570348003,0.17571321200573095]",100.0,"[0.15055634066596646,0.036871678559907174]",100.0,"[0.1309287855123537,0.09999102403608578]",100.0,"[-0.08528908004617133,-0.04270669514666842]",100.0,"[0.014215356914354153,-0.046397057261381214]",4.0,"[0.07382935763622263,-0.12089680252388194]",4.0,"[0.1119838934819901,-0.011098521745600783]",4.0,"[-0.0396421026496461,0.01071757262535358]",100.0,"[-0.1315366385924828,-0.13855865522331628]",100.0,"[0.08037666338316865,0.1561177346147956]",100.0,"[-0.18673948181349886,0.03303486547802429]",4.0,"[-0.15848202610773535,0.1098105824804275]",100.0,"[-0.08871154333160222,-0.10965455956312994]",4.0,"[-0.029230129195036852,0.05838831811107778]",100.0,"[0.02166226089991418,0.07860913152546066]",100.0,"[0.019099422628090643,-0.10504664440476964]",4.0,"[-0.1514802947953821,-0.10008358965288247]",4.0,"[-0.1319310765442695,-0.03729540392465398]",4.0,"[-0.15911739997373897,0.003177520663519185]",100.0,"[0.16218794189588212,-0.06365104727839034]",4.0,"[0.05875077531222795,-0.05651494064849031]",4.0,"[-0.07617535841791266,0.1823639760250729]",4.0,"[-0.033126691416363006,-0.18070964216084898]",100.0,"[-0.06936084396312063,0.11729483205873684]",4.0,"[0.19232471250563968,-0.01598420912777221]",4.0,"[0.02,0.02]",162.6524,0.0,30.0,30.0,113.0,1.0,,,,,,,
,,,,,,,60b9f19d122c7adf0c37899c,6842badfb3c8fb436149524d,2025-06-06_10h54.55.325,shape_ratio,2024.1.5,Win32,59.88023952,6842b561977af9ba9b0f87ca,,,,,,,,,,,162.6527,163.1714,,,163.4055,163.8741,right,0.4666,,,,,,,,,0.55,,,,,,163.1714,163.4055,163.8741,"[-0.0013908508211510078,-0.11601910236764171]",100.0,"[0.021290910741602154,0.02475643059542094]",100.0,"[-0.16577219717494332,0.051385881471108924]",100.0,"[-0.03201999010312005,-0.03079974997326352]",100.0,"[0.03608507237967511,-0.18442725364752457]",100.0,"[0.045385467577777824,0.1875900293802698]",100.0,"[-0.0721719328441606,0.12831981216629995]",100.0,"[0.15889054763097654,-0.002204659506442201]",4.0,"[0.07183320815268744,-0.023840928150893073]",4.0,"[-0.1480274796794898,-0.026248258162921846]",100.0,"[-0.07318574881647676,0.16983255682021015]",4.0,"[-0.039573075862414264,-0.1297923765406785]",100.0,"[0.13126396029906315,-0.046197712321506976]",4.0,"[0.09781430084950252,-0.09029686736358294]",100.0,"[-0.01977300030558487,-0.17921996721902508]",100.0,"[0.08488361523561078,0.11281180343737442]",4.0,"[0.0024565530855271194,0.10301363525488351]",4.0,"[0.12938838200286693,-0.13640734877298719]",100.0,"[0.0784607756977665,0.058281266853600425]",4.0,"[-0.001981562938874301,-0.05991974718744993]",100.0,"[-0.06159459627869348,-0.06666136871869377]",4.0,"[0.007187245869405485,-0.01985887803969178]",100.0,"[0.184648946196008,0.032846693121137596]",100.0,"[-0.09861094077595764,0.05367861956668073]",100.0,"[-0.12142788559797657,-0.05839117499765402]",4.0,"[0.1716509507590953,0.09487213354434902]",100.0,"[0.19355955670162023,-0.03437660557693438]",4.0,"[0.08987905932815463,-0.16626331603726952]",100.0,"[-0.1735357661624867,0.09736275258049029]",4.0,"[-0.07325209690314304,-0.16321130620171145]",4.0,"[-0.06271046421432254,0.026771135627815388]",4.0,"[-0.12848061237883107,0.14855226783876244]",4.0,"[0.02,0.02]",164.973,0.0,31.0,31.0,67.0,1.0,,,,,,,
,,,,,,,60b9f19d122c7adf0c37899c,6842badfb3c8fb436149524d,2025-06-06_10h54.55.325,shape_ratio,2024.1.5,Win32,59.88023952,6842b561977af9ba9b0f87ca,,,,,,,,,,,164.9732,165.4717,,,165.7218,166.3896,right,0.6357,,,,,,,,,0.9,,,,,,165.4717,165.7218,166.3896,"[-0.19334331775431082,0.03554073524208364]",100.0,"[0.006369099962267246,0.1788983615366355]",100.0,"[-0.1197904241208832,-0.10834688169817333]",100.0,"[-0.04816432629660603,-0.006752558804357012]",100.0,"[0.0048399538118056515,-0.15442680911628354]",100.0,"[0.15427828199913363,0.1043434693085939]",100.0,"[0.04978900388493587,0.09792940596247904]",100.0,"[0.032151212766203335,-0.08241244540726436]",100.0,"[0.061230657128103126,0.03689247941354625]",100.0,"[-0.08515752632390934,-0.024789826264448794]",100.0,"[-0.15924467967496903,0.0017268463120890998]",100.0,"[-0.12237520285186863,0.10486116047651725]",100.0,"[-0.05696607559420958,-0.15288299677937167]",100.0,"[-0.11278816974566719,0.045028728682597365]",100.0,"[0.005487670034145419,-0.04236445143484441]",100.0,"[0.04529319478892826,-0.18241060446397053]",100.0,"[0.19412954431732798,-0.04014307848609101]",100.0,"[0.005469808404402122,-0.19624556919213346]",100.0,"[0.09685914823460422,0.12091508761389627]",100.0,"[0.10436224816454027,-0.10851304460276949]",100.0,"[-0.14973504971440482,-0.05624597361989076]",100.0,"[-0.10265585944024687,-0.16349671234551552]",100.0,"[-0.002284983672515292,0.04513300300041576]",100.0,"[-0.06741696890386521,0.09543639390236626]",100.0,"[0.08761730301147685,-0.1630682297968632]",4.0,"[0.17004470938718586,-0.09955275128477871]",4.0,"[-0.04440861242448283,0.16518636323895788]",100.0,"[-0.10355661984150127,0.1566510127324025]",100.0,"[0.17184491025217286,0.006960024606873243]",100.0,"[0.1492000247568552,-0.044061909539814446]",100.0,"[0.009914153750661183,0.10224476657657766]",4.0,"[0.05991972756536501,0.13827954406650178]",100.0,"[0.02,0.02]",167.4904,0.0,32.0,32.0,27.0,1.0,,,,,,,
,,,,,,,60b9f19d122c7adf0c37899c,6842badfb3c8fb436149524d,2025-06-06_10h54.55.325,shape_ratio,2024.1.5,Win32,59.88023952,6842b561977af9ba9b0f87ca,,,,,,,,,,,167.4907,167.9932,,,168.241,169.0616,right,0.8015,,,,,,,,,0.55,,,,,,167.9932,168.241,169.0616,"[-0.012575107846236989,0.08491080958429661]",100.0,"[0.046229513834527065,0.12900117881466397]",100.0,"[0.09425657652011846,0.10999440080653637]",4.0,"[0.047214656027923664,-0.1552717051267554]",4.0,"[-0.12850728636932904,-0.022230528687286855]",100.0,"[-0.03187784939336738,-0.1135598734515399]",4.0,"[-0.18355460129854922,0.014333782659148819]",4.0,"[0.006609342558980615,0.014706986688289715]",100.0,"[-0.18144060630937922,0.07858312901709029]",100.0,"[0.15583927909548634,0.006578830569267598]",100.0,"[-0.19602157351682853,-0.028882816480548187]",4.0,"[0.11846333071655482,0.06997954600045606]",100.0,"[0.1610410011676315,0.08098108385144984]",100.0,"[0.15579508866484615,-0.08026318323313808]",4.0,"[-0.09574684352133224,-0.13426404134223038]",100.0,"[-0.1130455763023092,-0.06241883426952297]",100.0,"[-0.05952367967967615,0.10404851459587512]",100.0,"[-0.03210358063086028,-0.18749608430961237]",100.0,"[-0.002926174424907101,0.12728464388496114]",100.0,"[0.043525722812558544,0.07647153803174471]",100.0,"[-0.1472181687350706,0.10553005177689878]",100.0,"[-0.05399326840917435,0.16730102364557653]",100.0,"[-0.08661580108410506,0.038569466075866365]",100.0,"[-0.050389046107682335,-0.055222347530182084]",4.0,"[0.08060465706311315,-0.09362920000441022]",4.0,"[-0.14719257414998604,0.05174119452808676]",4.0,"[0.12261470413200862,-0.10294019562610246]",4.0,"[0.1978871868779943,-0.013009773798877413]",4.0,"[0.06439140088344227,0.16992531713220174]",100.0,"[-0.15948573674504496,-0.08757091467327367]",4.0,"[0.06620322217785903,-0.022096092569834226]",4.0,"[-0.02729899282529652,-0.017958069453856584]",4.0,"[0.02,0.02]",170.179,0.0,33.0,33.0,86.0,1.0,,,,,,,
,,,,,,,60b9f19d122c7adf0c37899c,6842badfb3c8fb436149524d,2025-06-06_10h54.55.325,shape_ratio,2024.1.5,Win32,59.88023952,6842b561977af9ba9b0f87ca,,,,,,,,,,,170.1793,170.6766,,,170.9291,171.4775,left,0.5044,,,,,,,,,0.45,,,,,,170.6766,170.9291,171.4775,"[-0.08963984771828887,0.07411811177696737]",100.0,"[0.02343476002108011,0.13674344503056052]",4.0,"[0.08607193875213227,-0.14902382914701756]",4.0,"[-0.17684370474852895,-0.02485445104673504]",4.0,"[0.07529707144332862,-0.06165605632372419]",4.0,"[-0.059191762553133895,0.13755491348778293]",100.0,"[-0.042347050126638176,-0.13812460473162777]",100.0,"[0.15855328985205117,0.116819710562632]",100.0,"[-0.14738891306248122,0.09506989516304251]",4.0,"[-0.005936387431171325,0.07316992027023254]",100.0,"[-0.0889552711024805,-0.16562781697514717]",4.0,"[0.09568436786401302,0.028216430856478784]",4.0,"[-0.13134125894865062,-0.1257814773660094]",100.0,"[-0.09869315842766564,-0.05851141045859939]",100.0,"[-0.00792492877201277,0.01131247564662896]",4.0,"[-0.1336729471360105,0.013808465033510083]",4.0,"[-0.046705269831772075,-0.039899483613539094]",4.0,"[-0.1824918471085493,0.06854192265264061]",4.0,"[0.028775567815055327,-0.13195386425754807]",100.0,"[0.07595407867905073,0.14072946131064334]",4.0,"[0.04249616398755073,0.007988119136806936]",4.0,"[0.16380101965575522,-0.06279249943411072]",4.0,"[-0.06165198841934595,-0.09495469366166276]",100.0,"[0.11224532143513306,-0.11082505070791793]",100.0,"[0.000458276147390652,0.19248159527308004]",4.0,"[0.1018713362206277,0.10103262095962177]",4.0,"[0.14377861377508216,0.04312150690910115]",100.0,"[-0.10633346484393277,0.1230092278057709]",4.0,"[0.013253551042049621,-0.07345642352004468]",100.0,"[0.14917495711062376,-0.025527983030515098]",100.0,"[0.04459423726849374,0.07891292062632972]",100.0,"[-0.010517869391577549,-0.17537333734048854]",4.0,"[0.02,0.02]",172.5789,0.0,34.0,34.0,146.0,1.0,,,,,,,
,,,,,,,60b9f19d122c7adf0c37899c,6842badfb3c8fb436149524d,2025-06-06_10h54.55.325,shape_ratio,2024.1.5,Win32,59.88023952,6842b561977af9ba9b0f87ca,,,,,,,,,,,172.5791,173.0812,,,173.3296,173.6631,left,0.3051,,,,,,,,,0.1,,,,,,173.0813,173.3295,173.6632,"[-0.04112270587971074,0.0119932484621404]",4.0,"[-0.17173985360749086,-0.046468396812382295]",4.0,"[0.12502809297166256,-0.10381279186157277]",100.0,"[-0.10690387266144463,-0.05940558700322988]",4.0,"[-0.11165030757007398,0.11931828478888452]",4.0,"[-0.11206150233394471,-0.003095692125406017]",4.0,"[-0.16576490327556115,-0.10222168915183122]",100.0,"[-0.026889758688806886,-0.057258342048763226]",4.0,"[0.04477629350163767,0.07460376553141075]",4.0,"[-0.050925752154373026,0.06795198131294865]",4.0,"[-0.004011809033128379,0.06993064220298784]",4.0,"[0.030789390986323547,0.16815350968506498]",4.0,"[0.18523568971888082,-0.006688230329552991]",4.0,"[-0.06679695398860362,-0.12262559519497909]",4.0,"[0.07467179284075076,-0.05008593841190782]",4.0,"[-0.15847615157747216,0.0683676422094817]",4.0,"[0.08356126473040251,-0.1355222345080631]",4.0,"[-0.07849625037505951,-0.17774309093118962]",4.0,"[0.02988140698287563,-0.02593259812223975]",4.0,"[0.013229173008816876,-0.06533179347740192]",4.0,"[-0.0750528922660817,0.035273955007135656]",4.0,"[0.11898939209668652,0.037534380040776576]",100.0,"[0.12277503061858032,-0.044412154595385646]",4.0,"[-0.023169430725069752,-0.19233800169389317]",4.0,"[-0.021542493730625653,0.15753589962193892]",4.0,"[-0.19719375726071,-0.005308986291545588]",4.0,"[0.14959893123836324,0.10340076915758334]",4.0,"[0.002163006797704424,-0.12246006503933476]",4.0,"[0.08461216414395106,0.11235522312597171]",4.0,"[-0.047366626880955026,0.1204981122434101]",4.0,"[0.06084836534594461,0.02472399221996217]",4.0,"[0.027906384600131055,-0.19184887822281027]",4.0,"[0.02,0.02]",174.7644,0.0,35.0,35.0,198.0,1.0,,,,,,,
,,,,,,,60b9f19d122c7adf0c37899c,6842badfb3c8fb436149524d,2025-06-06_10h54.55.325,shape_ratio,2024.1.5,Win32,59.88023952,6842b561977af9ba9b0f87ca,,,,,,,,,,,174.7647,175.2645,,,175.5153,176.4157,right,0.8814,,,,,,,,,0.6,,,,,,175.2646,175.5153,176.4157,"[0.16749491754911508,-0.10807102346579396]",100.0,"[-0.03768657261239098,0.16059107690764649]",100.0,"[0.12646284540136457,-0.11473712491132396]",100.0,"[0.008078373234852212,0.00540971617344297]",100.0,"[0.03843949484643391,0.0494386841786035]",4.0,"[0.06300993312244522,-0.07437284449100158]",100.0,"[0.15160520039098205,0.09220573945687448]",4.0,"[0.05564423992283069,-0.15008683914516677]",100.0,"[-0.10038447114588768,-0.10218752166625945]",4.0,"[0.10571612637261801,-0.07449383990090958]",100.0,"[-0.05537141133864548,-0.14300776267579776]",100.0,"[-0.13668911627220381,-0.0019340527458325185]",100.0,"[-0.023204750554683583,-0.09247223052561834]",4.0,"[-0.06263582839255885,0.06736751244825077]",100.0,"[-0.09922946777780862,-0.14245473948134085]",100.0,"[0.0007863385447793393,0.13976916547183582]",100.0,"[-0.0641180678186021,-0.0013040025128701726]",100.0,"[0.17166618370014697,0.0057332439078212494]",100.0,"[0.08368996028903553,0.08088280308024984]",100.0,"[0.12368288921818626,0.12282788369755392]",4.0,"[-0.1787738735961215,-0.060221606328796806]",100.0,"[0.03627223100259261,-0.04362585684159782]",4.0,"[0.18211952307659335,-0.05791434341959549]",4.0,"[0.13091045638452134,-0.0014208237184522262]",100.0,"[-0.19384767975183365,0.016267090308279164]",4.0,"[0.08622400115834157,-0.0030364171700275476]",100.0,"[-0.13394969002999726,0.13905223959984972]",4.0,"[-0.024151796987386245,-0.023745371115539413]",4.0,"[-0.15985532766744093,-0.11941579881357417]",100.0,"[-0.09402991657581782,0.11423566323873055]",4.0,"[0.03628241973673606,0.16073124085657578]",4.0,"[0.14908515478625634,0.044083155851577]",4.0,"[0.02,0.02]",177.5169,0.0,36.0,36.0,56.0,1.0,,,,,,,
,,,,,,,60b9f19d122c7adf0c37899c,6842badfb3c8fb436149524d,2025-06-06_10h54.55.325,shape_ratio,2024.1.5,Win32,59.88023952,6842b561977af9ba9b0f87ca,,,,,,,,,,,177.5172,178.0193,,,178.2682,179.2018,right,0.911,,,,,,,,,0.45,,,,,,178.0193,178.2682,179.2018,"[0.11106664161759142,0.10204120109850316]",4.0,"[-0.05426017344193914,-0.1475639518184955]",100.0,"[0.00043783404042229014,0.07528533205298762]",4.0,"[0.02276902237714491,-0.17312970777979494]",100.0,"[0.01228653243603534,0.035319626699824684]",100.0,"[0.1300751881719674,0.011511415156571642]",100.0,"[0.13855739886204635,-0.07535277667001646]",4.0,"[0.08419088857367141,-0.10395046847951313]",100.0,"[-0.011506578775897539,-0.007883848404740618]",4.0,"[0.051963613642034306,-0.012701863625162695]",4.0,"[-0.03297860990992143,0.13989195966001483]",4.0,"[-0.12464455122859341,0.09277847315690668]",100.0,"[-0.15774691559955697,0.05913065416080771]",100.0,"[0.06408373159293176,0.027413004895855207]",100.0,"[0.02244661757117542,0.1849266006423364]",4.0,"[0.15211156357624395,-0.12738326638258193]",4.0,"[-0.11585456455097796,-0.14072280486087355]",4.0,"[-0.18801531833430735,0.01191149158055348]",4.0,"[-0.0863098578272642,0.06918261864555669]",100.0,"[-0.1146300998226889,0.03746179158197375]",4.0,"[0.06562666527537928,-0.1886598092011027]",4.0,"[0.0027810991781679504,-0.0616612506046319]",4.0,"[0.0552996037876779,0.14938340199308525]",4.0,"[-0.045580212367531965,0.19402818396135774]",4.0,"[-0.17492632853442106,-0.06783299968595007]",4.0,"[-0.0788659629471734,-0.07952734694253928]",100.0,"[-0.06563952489972409,0.016144244804286514]",100.0,"[0.18754040620950024,-0.057947181300119256]",100.0,"[0.13118540460500522,0.05262611295525814]",4.0,"[-0.10684897492217015,-0.03718300270824068]",100.0,"[-0.08809378098698041,0.17770675900300764]",4.0,"[-0.035676470694139754,-0.10613851474571415]",100.0,"[0.02,0.02]",180.3033,0.0,37.0,37.0,126.0,1.0,,,,,,,
,,,,,,,60b9f19d122c7adf0c37899c,6842badfb3c8fb436149524d,2025-06-06_10h54.55.325,shape_ratio,2024.1.5,Win32,59.88023952,6842b561977af9ba9b0f87ca,,,,,,,,,,,180.3036,180.8056,,,181.0541,181.688,right,0.6009,,,,,,,,,0.6,,,,,,180.8056,181.0541,181.688,"[-0.07904963764195362,0.10116299268732803]",4.0,"[0.18690556768599728,-0.050431479390417575]",100.0,"[-0.04317733600635237,-0.16294562551367237]",100.0,"[0.061504933897129556,-0.13114716792163011]",100.0,"[-0.1428706670656734,-0.02844064400340984]",4.0,"[-0.043764033923397776,0.013436642669381792]",100.0,"[0.011476599042814596,0.1393524565198281]",4.0,"[-0.021589857816210593,-0.10547811249891288]",100.0,"[-0.17666822840893318,0.08009473430340357]",4.0,"[-0.012740196387318325,0.048448235882285307]",4.0,"[0.07597384397483856,0.11089626766073885]",100.0,"[0.07830791255231678,-0.05293787818640435]",100.0,"[0.12513504958504065,0.12234377559452035]",4.0,"[0.1927415869533743,0.015595411229607833]",100.0,"[-0.05998121698659064,-0.06803374389600395]",100.0,"[0.09069834552659231,0.02677666240395866]",4.0,"[0.15200644992754317,0.015280700840858976]",4.0,"[0.07448040019319838,-0.181212239855683]",100.0,"[-0.12942555728371571,0.11891251612227827]",4.0,"[-0.1396671066240571,-0.0747044445290619]",4.0,"[-0.017329895363553092,-0.039776975484276875]",100.0,"[-0.16661442170947094,0.011545657181455275]",100.0,"[-0.12458740556060788,0.04226726542697078]",100.0,"[0.15921506001203592,0.08594918979100148]",100.0,"[0.027442597492857664,0.1798646104615636]",100.0,"[-0.021465278864263273,0.166648580271067]",100.0,"[-0.005342544018027133,-0.1889578692593302]",4.0,"[0.02091172009732313,-0.009232717492334584]",100.0,"[0.024604302407251154,0.07176969561723485]",100.0,"[-0.09207232306127143,0.1514042893660091]",4.0,"[0.13041360799232019,-0.09095924541667538]",4.0,"[0.02080068429253421,-0.0989280392005013]",100.0,"[0.02,0.02]",182.7915,0.0,38.0,38.0,52.0,1.0,,,,,,,
,,,,,,,60b9f19d122c7adf0c37899c,6842badfb3c8fb436149524d,2025-06-06_10h54.55.325,shape_ratio,2024.1.5,Win32,59.88023952,6842b561977af9ba9b0f87ca,,,,,,,,,,,182.7917,183.2894,,,183.5409,184.3405,left,0.7682,,,,,,,,,0.6,,,,,,183.2895,183.5408,184.3405,"[-0.041603711737022854,-0.07395272503167319]",100.0,"[0.08169628086825485,0.02257530864458694]",4.0,"[-0.12921860123773027,-0.0737108782837679]",4.0,"[0.06532143123186955,-0.061496948725024356]",100.0,"[0.0033062166218939663,0.14717213111362365]",100.0,"[0.09392431762330136,0.16975834065195392]",100.0,"[-0.09380468525150185,-0.00031607567375520356]",100.0,"[-0.0641354114335364,0.10949547035871504]",4.0,"[-0.04277530449713338,0.05657797996152493]",100.0,"[-0.10354277915818208,0.0986296180226894]",100.0,"[-0.04261110865185315,0.18636995916570323]",100.0,"[0.16678686571145365,-0.004816096723542128]",4.0,"[0.016589387926005488,0.01764284586316189]",4.0,"[0.04571525244531792,0.12691183663109726]",100.0,"[0.15539411691680793,0.10228845018307255]",100.0,"[-0.06463624647331336,-0.11868132362087655]",4.0,"[-0.03593041498898335,-0.02362494055392685]",4.0,"[-0.1417464694398634,-0.1197410096226982]",4.0,"[-0.024303479543310788,-0.14841767217048726]",4.0,"[0.02529116016835373,-0.17044258669499296]",100.0,"[0.07459305431374363,0.0847947200869273]",4.0,"[-0.014824763287085164,0.09070553073970523]",100.0,"[-0.19191969814673443,0.035173727934814394]",100.0,"[-0.12392211787793823,0.14006025285807058]",100.0,"[-0.13620508569581521,0.046963227613645235]",4.0,"[0.09687061985349206,-0.028844901987947563]",100.0,"[0.15264103081400696,-0.06829248141346066]",100.0,"[-0.0627502679678219,-0.15986478363306203]",4.0,"[0.04924293411893602,-0.009162330769940118]",100.0,"[-0.006409969675664786,-0.051808893133839615]",4.0,"[0.19184472624098184,-0.03812375552722768]",100.0,"[-0.10390641730571731,-0.13772611874572596]",100.0,"[0.02,0.02]",185.4417,0.0,39.0,39.0,38.0,1.0,,,,,,,
,,,,,,,60b9f19d122c7adf0c37899c,6842badfb3c8fb436149524d,2025-06-06_10h54.55.325,shape_ratio,2024.1.5,Win32,59.88023952,6842b561977af9ba9b0f87ca,,,,,,,,,,,185.4418,185.944,,,186.1936,186.5594,left,0.3364,,,,,,,,,0.45,,,,,,185.944,186.1936,186.5594,"[0.0703781099154322,0.10768139499034228]",4.0,"[0.017182541759950733,0.15530710076353568]",4.0,"[0.11228470184854292,-0.06833865851029919]",4.0,"[0.09951307414462911,0.14748592716020026]",100.0,"[-0.14463201921500346,-0.07441023131653261]",100.0,"[0.1330072821697125,0.09487391016394155]",100.0,"[-0.03348879846463928,-0.08013675673425551]",4.0,"[0.14483269831794915,-0.016316924589088195]",4.0,"[-0.17619732111555503,0.056086565495290897]",100.0,"[-0.10793389382858935,0.06701397540751877]",4.0,"[0.005225249822671308,-0.13600606951841607]",4.0,"[0.033790599393062684,-0.19255241750159607]",100.0,"[-0.07315489280984955,-0.14472240617158777]",4.0,"[0.06549326732268547,-0.07564866622173061]",4.0,"[-0.14968693191502,0.11653849516241443]",4.0,"[0.011076592682076373,0.059692834483632704]",100.0,"[0.18214170174676209,0.02433228369973637]",100.0,"[0.07884093034623911,-0.015701732243177082]",100.0,"[0.18201246232762952,-0.04039696634486433]",100.0,"[0.09573633981367728,0.03691489655627105]",4.0,"[0.04382260589238806,0.01716582370259121]",100.0,"[-0.07621874330650658,0.12129538526591807]",4.0,"[0.11842627199718261,-0.15268142120141728]",4.0,"[-0.03202220469639587,-0.1793403839603561]",4.0,"[0.06281646689401246,-0.15850146535107568]",100.0,"[-0.061827837085211605,0.047038251995054285]",100.0,"[0.04268390761659013,-0.11536635608847597]",100.0,"[-0.1712186986055232,-0.033990800786485]",4.0,"[-0.04199498697227983,0.08467271751933327]",100.0,"[-0.02340138124851616,0.1910147036162975]",4.0,"[-0.0635956001282089,-0.023175376616164922]",4.0,"[0.18172707855904097,0.0652935707976038]",4.0,"[0.02,0.02]",187.6607,0.0,40.0,40.0,145.0,1.0,,,,,,,
,,,,,,,60b9f19d122c7adf0c37899c,6842badfb3c8fb436149524d,2025-06-06_10h54.55.325,shape_ratio,2024.1.5,Win32,59.88023952,6842b561977af9ba9b0f87ca,,,,,,,,,,,187.661,188.1632,,,188.4113,189.0806,left,0.6515,,,,,,,,,0.45,,,,,,188.1633,188.4113,189.0806,"[0.07722779612758603,-0.1718067360235823]",4.0,"[0.06823614711447999,0.131138667743362]",4.0,"[-0.09221774003205384,0.07370241260852962]",4.0,"[0.0906872853282221,-0.04670634959804486]",4.0,"[-0.037475118212885565,0.0868138659034302]",4.0,"[-0.08626512777761783,0.17908961857414812]",4.0,"[-0.007142053539461136,-0.12721488261527145]",4.0,"[-0.1409790517743146,0.13306376406513323]",100.0,"[-0.016313107939320875,-0.003104087551482332]",4.0,"[-0.048000587881250334,0.16677252097345616]",4.0,"[0.05332997837405216,0.06752480722461572]",100.0,"[-0.09055800054836932,0.009751701914165807]",4.0,"[0.12477778187862798,0.10286829092054642]",100.0,"[0.12542877263666063,-0.09319703260393054]",4.0,"[-0.14731900427850333,-0.08047796993760306]",100.0,"[-0.10668745124969817,-0.16805004826128903]",4.0,"[0.11107468303782035,0.009602557674436735]",4.0,"[0.00006494092365424444,0.115976042343851]",100.0,"[-0.13271214056426153,0.028024766870332243]",100.0,"[-0.17142371780629218,0.06950143556629527]",100.0,"[0.13239415452857328,-0.05228731448680756]",100.0,"[0.10389448841751377,-0.12885739043438763]",4.0,"[0.03309856126612692,-0.06588400601535473]",4.0,"[0.15023148251592783,0.03677114649931602]",100.0,"[-0.08211465321353627,-0.03467512191233879]",100.0,"[0.0782567943611338,0.17727023772287848]",100.0,"[0.033338227491870896,-0.11278248842574688]",100.0,"[0.021793240763658482,0.16497225578465224]",100.0,"[-0.17498488254889855,-0.017743576815858232]",4.0,"[-0.18511071525740758,-0.064702548019373]",4.0,"[-0.04301852099939202,-0.18813604016280622]",100.0,"[-0.11172851545490714,-0.12714973741672211]",4.0,"[0.02,0.02]",190.1819,0.0,41.0,41.0,130.0,1.0,,,,,,,
,,,,,,,60b9f19d122c7adf0c37899c,6842badfb3c8fb436149524d,2025-06-06_10h54.55.325,shape_ratio,2024.1.5,Win32,59.88023952,6842b561977af9ba9b0f87ca,,,,,,,,,,,190.1821,190.6801,,,190.9308,191.464,left,0.5089,,,,,,,,,0.45,,,,,,190.6801,190.9308,191.464,"[0.188301345804083,-0.0004335323577134101]",100.0,"[0.03797264288943005,-0.12108377916663737]",4.0,"[-0.03205132760512255,0.09505124399992386]",100.0,"[0.12985414802670292,-0.008687498132854158]",4.0,"[0.09950654489521464,0.08546975029643221]",4.0,"[-0.09706220760988726,-0.01747856312628765]",100.0,"[-0.15514230416845576,-0.07997439093373207]",4.0,"[0.04003107550190927,-0.18446120269325272]",4.0,"[0.10780315435096283,0.030523872657574898]",100.0,"[0.1746609062246989,0.06524070168192005]",100.0,"[-0.07676120148800562,-0.12420637415473099]",4.0,"[-0.04437607590570102,-0.002525347091804746]",100.0,"[0.05699273712582992,0.0947912425778367]",100.0,"[0.07212946474814531,0.15944611066209047]",4.0,"[0.036648842723202936,-0.02548009649796337]",100.0,"[-0.13288827193520109,0.12686040574621024]",4.0,"[0.012564472930590284,0.17548223003156363]",4.0,"[-0.11362656103121554,-0.14788129774472025]",4.0,"[0.13959519196106798,-0.13085590805531475]",4.0,"[0.014797301458164127,-0.07770439806558019]",4.0,"[0.0017923454854957349,0.009210341878997198]",4.0,"[-0.09536308466267046,0.10684111739240894]",4.0,"[-0.027538446699468037,-0.04545014164654274]",100.0,"[-0.1899652410626121,0.02781592158693763]",100.0,"[-0.05571714349914409,-0.08255794334515004]",100.0,"[-0.07336218383744963,0.029716147678278446]",4.0,"[-0.013873931768117437,-0.19195679023813486]",4.0,"[0.027787935688555008,0.13679938890104168]",100.0,"[0.08598084295659705,-0.11574147356732763]",4.0,"[-0.1472483252463825,0.013905827417138568]",100.0,"[-0.10401494611785886,-0.0652348453601607]",4.0,"[0.11475855384896233,0.14303951894991912]",100.0,"[0.02,0.02]",192.5654,0.0,42.0,42.0,136.0,1.0,,,,,,,
,,,,,,,60b9f19d122c7adf0c37899c,6842badfb3c8fb436149524d,2025-06-06_10h54.55.325,shape_ratio,2024.1.5,Win32,59.88023952,6842b561977af9ba9b0f87ca,,,,,,,,,,,192.5657,193.0658,,,193.3165,193.9689,left,0.651,,,,,,,,,0.5,,,,,,193.0658,193.3165,193.9689,"[-0.10490827657577147,-0.033751031764089966]",4.0,"[-0.03582167686976827,0.10199594742780428]",4.0,"[-0.07748837254414173,-0.10066219396519346]",4.0,"[0.04161597875709334,-0.11564728894683705]",100.0,"[0.06454783160857505,0.08473714907091467]",100.0,"[-0.00044633609401871006,0.1776318313381937]",100.0,"[-0.0665105889567584,0.02965931741009599]",100.0,"[-0.09358104691425606,0.09785277459534387]",4.0,"[0.13428006761306555,0.12338882809685825]",4.0,"[-0.13123137938696242,0.11607711764526508]",4.0,"[-0.01193226001874263,-0.19958742438390537]",100.0,"[0.0903690255441036,-0.17660412320965263]",4.0,"[0.009455208762311032,0.0641041718274418]",100.0,"[-0.028204248690240276,0.04331162151508894]",4.0,"[-0.024710317261000706,-0.010189384219568595]",100.0,"[-0.1929253640268206,-0.04447245563353387]",100.0,"[-0.04399296060185409,-0.07797843168193688]",100.0,"[-0.18104870545091054,0.0782610508480017]",4.0,"[0.05993233504462349,-0.03628101857576678]",4.0,"[-0.10089547509125893,-0.1355999693843943]",4.0,"[-0.10060668122298644,0.006952164140810273]",100.0,"[0.1399549717391682,0.0635157203534266]",100.0,"[0.11467760909088902,-0.12181860594818059]",100.0,"[0.08113843380759889,0.01071700298925165]",4.0,"[-0.0010790080894530012,-0.13624454218012477]",4.0,"[-0.038899263803476615,-0.15731706396245082]",4.0,"[0.07115497774654464,0.13869708052539456]",100.0,"[0.18839672497557522,0.04975741903776535]",100.0,"[-0.07552513150261801,0.1828156459918537]",100.0,"[-0.11837738371158293,-0.08115725368334294]",4.0,"[0.12975024528500903,0.008290595032552722]",100.0,"[0.02161137220724772,-0.08018284289213916]",4.0,"[0.02,0.02]",195.0693,0.0,43.0,43.0,100.0,1.0,,,,,,,
,,,,,,,60b9f19d122c7adf0c37899c,6842badfb3c8fb436149524d,2025-06-06_10h54.55.325,shape_ratio,2024.1.5,Win32,59.88023952,6842b561977af9ba9b0f87ca,,,,,,,,,,,195.0695,195.5684,,,195.8549,196.2354,right,0.3573,,,,,,,,,0.9,,,,,,195.5684,195.8549,196.2354,"[-0.10520649956994625,-0.007912183212030494]",100.0,"[0.1020132366582149,0.06080979300488644]",100.0,"[-0.1900634889231559,0.054957289897613885]",100.0,"[-0.13694915676625039,0.10029135974112216]",100.0,"[-0.010415370414359724,0.10066198472234805]",100.0,"[-0.02207141180658485,-0.12062154379634898]",100.0,"[-0.038345182361546416,-0.18800210257143837]",100.0,"[-0.15661979102980988,-0.01566058245609944]",100.0,"[0.013172049359143699,0.03776923318115559]",100.0,"[0.05701360606833923,-0.1857551613770088]",100.0,"[0.07523294106833087,-0.10622579070334003]",100.0,"[0.1204162898230386,-0.13419906401285053]",100.0,"[-0.07867493021906793,-0.18246437779384486]",100.0,"[-0.06533155609472135,0.14044190914516766]",100.0,"[0.06379570575673987,0.09055696597725296]",100.0,"[0.019790642310256287,0.19762437315808604]",4.0,"[0.07372070209809896,-0.04215351713042133]",100.0,"[-0.07771468766099175,0.18403770355122184]",4.0,"[0.03741728851064412,0.003130453013208955]",100.0,"[-0.10403832026912825,-0.048147546943591406]",100.0,"[-0.010487863457261465,0.1543258088157481]",100.0,"[-0.029640672504994397,0.03988912090043374]",100.0,"[0.1709905004619571,-0.0853509186764627]",100.0,"[0.02904446576653547,0.11816588212254285]",100.0,"[-0.17105028583128182,-0.08561816966185011]",100.0,"[0.11644571167568607,-0.017257562982032085]",100.0,"[0.11027302608558985,0.10167283616164643]",100.0,"[0.02574707801579488,-0.15154553420964986]",100.0,"[0.1672114035375163,-0.017786923814937808]",100.0,"[0.17160860551021948,0.058802484331610866]",100.0,"[0.07553383419007613,0.021418301186450453]",100.0,"[-0.060967313305258626,-0.14021191827715107]",4.0,"[0.02,0.02]",197.337,0.0,44.0,44.0,28.0,1.0,,,,,,,
,,,,,,,60b9f19d122c7adf0c37899c,6842badfb3c8fb436149524d,2025-06-06_10h54.55.325,shape_ratio,2024.1.5,Win32,59.88023952,6842b561977af9ba9b0f87ca,,,,,,,,,,,197.3373,197.8398,,,198.0879,198.5878,left,0.4784,,,,,,,,,0.6,,,,,,197.8398,198.0879,198.5878,"[0.00017035040688271618,-0.12332733235254816]",100.0,"[-0.09515658088455269,-0.17560045826210066]",4.0,"[-0.03792288993695793,-0.17337820913409313]",100.0,"[0.07789178710987137,0.177999138430232]",4.0,"[0.08727066283101803,-0.033351776740091196]",100.0,"[-0.15383273279124576,0.1112202813922509]",100.0,"[0.019724741673086237,-0.08728315916090858]",4.0,"[-0.009223643590547703,0.19401821395722357]",100.0,"[-0.07718582159905636,-0.10262115076788687]",100.0,"[0.08677886235627688,0.04403001530576209]",100.0,"[0.13443100892789037,-0.11831103072226731]",100.0,"[0.1374678997036548,0.13590150227475684]",100.0,"[0.0948600479977799,-0.14821937855930137]",100.0,"[-0.06571506825755212,0.001260485993628636]",4.0,"[0.04174044532363242,-0.16296106580633898]",100.0,"[0.06408512703520533,-0.11983002618390326]",4.0,"[-0.043862139908183245,0.1729767737050759]",100.0,"[0.08361216628529175,0.09310472158441138]",100.0,"[0.16710734119750392,0.025733451307089993]",100.0,"[-0.14244818312687016,0.0012884340605289815]",4.0,"[-0.19554707665940976,-0.017302982862951753]",100.0,"[-0.11323145813218063,0.12809807241120377]",4.0,"[0.03284596243440296,-0.03236005717637293]",100.0,"[0.09161032167787947,0.13238612160813756]",100.0,"[-0.17161432299367066,-0.09212049602689067]",4.0,"[-0.027863433626015552,0.05077468913500097]",100.0,"[-0.08655809888135192,0.07509032053997323]",100.0,"[-0.00043080811521871556,0.020584116508707194]",4.0,"[-0.07598790313799102,0.14547576019976136]",4.0,"[-0.036512714519409226,-0.03673313448285813]",4.0,"[0.13868666699580798,-0.023112023729072218]",4.0,"[-0.12472190191285953,-0.10805705676788184]",4.0,"[0.02,0.02]",199.689,0.0,45.0,45.0,41.0,1.0,,,,,,,
,,,,,,,60b9f19d122c7adf0c37899c,6842badfb3c8fb436149524d,2025-06-06_10h54.55.325,shape_ratio,2024.1.5,Win32,59.88023952,6842b561977af9ba9b0f87ca,,,,,,,,,,,199.6894,200.1892,,,200.44,200.9235,left,0.4606,,,,,,,,,0.45,,,,,,200.1893,200.44,200.9235,"[-0.17107541220518427,-0.02642024169445166]",100.0,"[-0.08601022991803639,-0.08137891464513276]",100.0,"[0.16524551161484496,0.04564620901264352]",100.0,"[0.04658962053617208,-0.008085863913139936]",4.0,"[0.09208992493423294,0.10880844186073073]",100.0,"[-0.04048250304228323,-0.09595668519986343]",4.0,"[-0.04561357246424977,-0.17214686775093155]",4.0,"[0.10956179491564991,0.06490271856218689]",4.0,"[-0.09157649412948045,0.015231528780172985]",100.0,"[0.008306562861362535,0.1610464785611897]",100.0,"[-0.060492972571189935,-0.01962486877772654]",100.0,"[-0.025589722012076238,-0.13659615613996845]",100.0,"[-0.05451607781000817,0.10324756348232197]",100.0,"[-0.024788543493779184,0.06253746436654146]",100.0,"[-0.13665781597450813,-0.0818260129774835]",4.0,"[-0.14020939449767017,0.09824856343962483]",4.0,"[-0.11937675104982086,-0.019312085501002538]",4.0,"[-0.07772663265087698,0.06738750421266403]",4.0,"[-0.18434890816610053,0.036930745981668886]",4.0,"[0.13972302581127982,-0.03962201569115445]",4.0,"[0.15771228775985843,-0.07643333047626495]",4.0,"[0.01597584491403165,-0.05926024746326591]",4.0,"[0.047702186361762204,0.17177051941189134]",4.0,"[-0.02993757229701435,0.012931619657764869]",4.0,"[0.07554728519140565,-0.17745900259540018]",100.0,"[-0.05287435543189389,0.1891069575335217]",100.0,"[0.06368090605508245,0.04361761552112607]",100.0,"[0.11209190982116989,0.1460400442695755]",4.0,"[0.09845010775219232,-0.045412624773194965]",100.0,"[0.06968145264614012,-0.11572394223427288]",4.0,"[0.01503150626721354,0.0894486871573788]",4.0,"[0.12292628977521307,-0.1513805664588314]",4.0,"[0.02,0.02]",202.0263,0.0,46.0,46.0,127.0,1.0,,,,,,,
,,,,,,,60b9f19d122c7adf0c37899c,6842badfb3c8fb436149524d,2025-06-06_10h54.55.325,shape_ratio,2024.1.5,Win32,59.88023952,6842b561977af9ba9b0f87ca,,,,,,,,,,,202.0266,202.5249,,,202.7772,203.5594,right,0.7599,,,,,,,,,0.5,,,,,,202.5249,202.7771,203.5594,"[-0.1620706800013391,-0.02053676825871289]",100.0,"[0.12981114304070365,0.0027814990679554895]",4.0,"[-0.075693243816545,-0.07131276456924554]",100.0,"[-0.022466986396894966,-0.06909264176084734]",4.0,"[-0.0266936240948222,-0.13008573874509322]",100.0,"[-0.027694285562756594,0.01017594956951967]",100.0,"[0.11135762187752672,-0.14365920030260504]",100.0,"[-0.06630455749446151,-0.007457235328376728]",100.0,"[-0.14723685939991343,0.12145222534184966]",4.0,"[-0.06351315984152532,-0.15664649379775133]",4.0,"[0.16209885962043558,0.07667230659243307]",100.0,"[0.16967766422893577,-0.04586536767174686]",4.0,"[0.03694137357190729,0.020743647673212313]",100.0,"[-0.11858133039710547,-0.10565274066822301]",4.0,"[-0.11025681128912625,-0.1610707513525097]",100.0,"[-0.1756515443354885,-0.07376444592084061]",100.0,"[-0.08745372906543677,0.14207052079742263]",4.0,"[0.016678519318537186,-0.1841945752974453]",4.0,"[0.11459619020949849,-0.06409660766933495]",4.0,"[0.06627432594827182,0.058330444298278265]",100.0,"[0.07066926454793875,0.1505432531487307]",100.0,"[-0.17800244780591037,0.06463252153562916]",100.0,"[0.19176000288700323,0.04976242281273364]",4.0,"[0.12887703541602902,0.1449642304743931]",100.0,"[0.023936018169347865,-0.10393319536377747]",4.0,"[-0.1277109077782331,0.009006344729084445]",100.0,"[-0.06301226404598516,0.05026355027837123]",4.0,"[0.024665045012149157,0.13600967453413373]",100.0,"[-0.05430685896177397,0.09883037441950558]",4.0,"[0.007612381707764157,0.19419449676655431]",4.0,"[0.14385829422569277,-0.0964839378347637]",4.0,"[0.08188249318985157,-0.17657841168528707]",4.0,"[0.02,0.02]",204.6608,0.0,47.0,47.0,119.0,1.0,,,,,,,
,,,,,,,60b9f19d122c7adf0c37899c,6842badfb3c8fb436149524d,2025-06-06_10h54.55.325,shape_ratio,2024.1.5,Win32,59.88023952,6842b561977af9ba9b0f87ca,,,,,,,,,,,204.661,205.1793,,,205.4114,205.9482,left,0.5185,,,,,,,,,0.1,,,,,,205.1794,205.4113,205.9482,"[0.05318519869862311,-0.07754480092292046]",4.0,"[-0.033308733007317036,-0.02996414937608572]",4.0,"[-0.17344566886690996,-0.07875579133528451]",4.0,"[0.17961603458458147,0.026452470785368044]",4.0,"[-0.10845749673842582,0.08645641828580537]",100.0,"[0.14290468668501136,-0.03719545054393124]",4.0,"[-0.16716711120299912,-0.0004603725469027393]",4.0,"[0.13613508665614396,-0.0990225385314364]",4.0,"[0.06767210215930637,0.17359955209191538]",4.0,"[-0.029301120564651385,0.04138449623087101]",4.0,"[-0.00035744355078468727,0.17580754722600478]",4.0,"[-0.008789332747115818,-0.1941029865862463]",4.0,"[-0.0009314695240821097,0.0852980644985969]",4.0,"[0.019130798171506556,-0.11597767619122044]",4.0,"[-0.05495819982006258,-0.11140956991629299]",4.0,"[0.08833127943508709,0.06052620880089808]",4.0,"[-0.04268565842905159,0.10159149286027527]",4.0,"[0.0199407113003893,0.03036545156134807]",4.0,"[0.10687315077583534,-0.14883774451927273]",100.0,"[0.047919407731490324,-0.022825143039041207]",4.0,"[-0.025117644752923718,-0.07176375261804338]",4.0,"[-0.07700075745572009,0.14466811125674275]",4.0,"[-0.07162318922425844,-0.16046264270155022]",4.0,"[-0.13772267658379395,-0.047878449989138046]",4.0,"[0.035644029234580696,-0.18944668678943064]",4.0,"[0.022827296926890703,0.126796774409523]",4.0,"[0.1978857328853884,-0.021520028624915078]",4.0,"[-0.12000340077115677,-0.01062235845474819]",4.0,"[0.14431329025254297,0.11283094115347694]",4.0,"[-0.1655916540654702,0.09033748232991136]",4.0,"[-0.14836658507036538,-0.12264842495688406]",4.0,"[-0.18294278415670526,-0.03942317203756659]",100.0,"[0.02,0.02]",207.0478,0.0,48.0,48.0,196.0,1.0,,,,,,,
,,,,,,,60b9f19d122c7adf0c37899c,6842badfb3c8fb436149524d,2025-06-06_10h54.55.325,shape_ratio,2024.1.5,Win32,59.88023952,6842b561977af9ba9b0f87ca,,,,,,,,,,,207.048,207.5466,,,207.7998,208.4642,right,0.6387,,,,,,,,,0.6,,,,,,207.5466,207.7997,208.4643,"[0.04235098226598415,0.09307629511965859]",100.0,"[-0.11462981144294028,-0.05158883252073482]",100.0,"[-0.0971837292167862,0.03743088028431398]",100.0,"[0.07265813736821473,-0.15134689857982728]",4.0,"[-0.18750633226828778,0.02064702617308083]",4.0,"[-0.12283797640229689,-0.011713865171061764]",4.0,"[-0.043980779831448186,-0.03411146551434491]",4.0,"[-0.058619179464142475,0.08832239101514833]",4.0,"[0.0817375784702993,-0.10582241609077868]",100.0,"[-0.013720625070958553,-0.18421307449081267]",100.0,"[0.15188260257795708,0.049927677580527186]",100.0,"[0.15724790165247435,-0.03060380206796793]",100.0,"[-0.009206387030347835,0.18950772005642125]",100.0,"[-0.020417833595065885,0.033486764238571796]",4.0,"[0.14724677286856927,0.09141850841664252]",4.0,"[-0.08606433220691279,-0.11245926299998503]",4.0,"[-0.07852151762565514,0.1334790844974933]",4.0,"[-0.09381878481796746,-0.17026694876217274]",100.0,"[-0.1523819100587615,0.11434314758237525]",4.0,"[0.09493559704532377,-0.022712987546174585]",100.0,"[0.005888750071137258,-0.11034188542461881]",100.0,"[-0.10249647054589164,0.09686658641104415]",4.0,"[0.017521818987391406,-0.006742730280263821]",100.0,"[0.09285958507506258,0.08199397629978157]",100.0,"[0.17402739619775698,-0.08654085931776272]",100.0,"[-0.13410983745740498,-0.10747150626420494]",100.0,"[-0.022895579816315615,-0.14266666515741444]",4.0,"[-0.045995148212678055,-0.08988295109365751]",100.0,"[-0.11995638358201033,0.13973558750256845]",100.0,"[-0.18151034295718535,-0.05760603563952391]",100.0,"[0.060162770797100966,0.1732449681927521]",100.0,"[0.10417805831080056,0.12933031827742067]",4.0,"[0.02,0.02]",209.5658,0.0,49.0,49.0,39.0,1.0,,,,,,,
