right,left,explain.started,explain.stopped,key_resp_3.keys,key_resp_3.rt,key_resp_3.duration,participant,session,date,expName,psychopyVersion,OS,frameRate,study_id,explain_2.started,explain_2.stopped,key_resp_4.keys,key_resp_4.rt,key_resp_4.duration,explain_3.started,explain_3.stopped,key_resp_5.keys,key_resp_5.rt,key_resp_5.duration,fixation.started,fixation.stopped,practice.started,practice.stopped,response.started,response.stopped,key_resp.keys,feedback.started,feedback.stopped,trials_2.thisRepN,trials_2.thisTrialN,trials_2.thisN,trials_2.thisIndex,trials_2.ran,dot_ratio,key_resp.rt,key_resp.duration,explain_4.started,explain_4.stopped,key_resp_6.keys,key_resp_6.rt,key_resp_6.duration,dotDisplay.started,dotDisplay.stopped,ITI.started,polygon_1.pos,polygon_1.edges,polygon_2.pos,polygon_2.edges,polygon_3.pos,polygon_3.edges,polygon_4.pos,polygon_4.edges,polygon_5.pos,polygon_5.edges,polygon_6.pos,polygon_6.edges,polygon_7.pos,polygon_7.edges,polygon_8.pos,polygon_8.edges,polygon_9.pos,polygon_9.edges,polygon_10.pos,polygon_10.edges,polygon_11.pos,polygon_11.edges,polygon_12.pos,polygon_12.edges,polygon_13.pos,polygon_13.edges,polygon_14.pos,polygon_14.edges,polygon_15.pos,polygon_15.edges,polygon_16.pos,polygon_16.edges,polygon_17.pos,polygon_17.edges,polygon_18.pos,polygon_18.edges,polygon_19.pos,polygon_19.edges,polygon_20.pos,polygon_20.edges,polygon_21.pos,polygon_21.edges,polygon_22.pos,polygon_22.edges,polygon_23.pos,polygon_23.edges,polygon_24.pos,polygon_24.edges,polygon_25.pos,polygon_25.edges,polygon_26.pos,polygon_26.edges,polygon_27.pos,polygon_27.edges,polygon_28.pos,polygon_28.edges,polygon_29.pos,polygon_29.edges,polygon_30.pos,polygon_30.edges,polygon_31.pos,polygon_31.edges,polygon_32.pos,polygon_32.edges,dot_size,ITI.stopped,trials.thisRepN,trials.thisTrialN,trials.thisN,trials.thisIndex,trials.ran,break_2.started,break_2.stopped,trials_3.thisRepN,trials_3.thisTrialN,trials_3.thisN,trials_3.thisIndex,trials_3.ran
subject chose diamond,subject chose dot,0.0001,29.8793,space,14.8768,,60ba101202b7fd117c0f3b94,6844292d5ace92be5db7a103,2025-06-07_13h57.41.651,shape_ratio,2024.1.5,Win32,166.6666667,684250e4f00cb30b92d1fa88,,,,,,,,,,,,,,,,,,,,,,,,,,,,,,,,,,,,,,,,,,,,,,,,,,,,,,,,,,,,,,,,,,,,,,,,,,,,,,,,,,,,,,,,,,,,,,,,,,,,,,,,,,,,,,,,,
,,,,,,,60ba101202b7fd117c0f3b94,6844292d5ace92be5db7a103,2025-06-07_13h57.41.651,shape_ratio,2024.1.5,Win32,166.6666667,684250e4f00cb30b92d1fa88,29.8794,60.5932,space,0.7061,,,,,,,,,,,,,,,,,,,,,,,,,,,,,,,,,,,,,,,,,,,,,,,,,,,,,,,,,,,,,,,,,,,,,,,,,,,,,,,,,,,,,,,,,,,,,,,,,,,,,,,,,,,,,
,,,,,,,60ba101202b7fd117c0f3b94,6844292d5ace92be5db7a103,2025-06-07_13h57.41.651,shape_ratio,2024.1.5,Win32,166.6666667,684250e4f00cb30b92d1fa88,,,,,,60.5934,64.4899,space,0.8893,,,,,,,,,,,,,,,,,,,,,,,,,,,,,,,,,,,,,,,,,,,,,,,,,,,,,,,,,,,,,,,,,,,,,,,,,,,,,,,,,,,,,,,,,,,,,,,,,,,,,,,,
,,,,,,,60ba101202b7fd117c0f3b94,6844292d5ace92be5db7a103,2025-06-07_13h57.41.651,shape_ratio,2024.1.5,Win32,166.6666667,684250e4f00cb30b92d1fa88,,,,,,,,,,,64.5018,64.9928,64.993,65.2416,65.2417,66.7383,,66.7384,67.8352,0.0,0.0,0.0,1.0,1.0,0.8,,,,,,,,,,,,,,,,,,,,,,,,,,,,,,,,,,,,,,,,,,,,,,,,,,,,,,,,,,,,,,,,,,,,,,,,,,,,,,,,,,,,,,,,
,,,,,,,60ba101202b7fd117c0f3b94,6844292d5ace92be5db7a103,2025-06-07_13h57.41.651,shape_ratio,2024.1.5,Win32,166.6666667,684250e4f00cb30b92d1fa88,,,,,,,,,,,67.8356,68.332,68.332,68.5808,68.5808,68.8594,right,68.8595,69.9562,0.0,1.0,1.0,0.0,1.0,0.2,0.2744,,,,,,,,,,,,,,,,,,,,,,,,,,,,,,,,,,,,,,,,,,,,,,,,,,,,,,,,,,,,,,,,,,,,,,,,,,,,,,,,,,,,,,,
,,,,,,,60ba101202b7fd117c0f3b94,6844292d5ace92be5db7a103,2025-06-07_13h57.41.651,shape_ratio,2024.1.5,Win32,166.6666667,684250e4f00cb30b92d1fa88,,,,,,,,,,,,,,,,,,,,,,,,,,,,69.9565,74.8957,space,1.9283,,,,,,,,,,,,,,,,,,,,,,,,,,,,,,,,,,,,,,,,,,,,,,,,,,,,,,,,,,,,,,,,,,,,,,,,,,,,,,,,,,
,,,,,,,60ba101202b7fd117c0f3b94,6844292d5ace92be5db7a103,2025-06-07_13h57.41.651,shape_ratio,2024.1.5,Win32,166.6666667,684250e4f00cb30b92d1fa88,,,,,,,,,,,74.9015,75.3984,,,75.6474,76.144,left,,,,,,,,0.4,0.4919,,,,,,,75.3987,75.6473,76.1442,"[0.18802717870384922,-0.02386823184472336]",100.0,"[-0.0729878346629145,-0.1009588911559204]",100.0,"[0.0423769333887078,-0.17001991700519276]",4.0,"[0.12335532839467557,0.1337376362290259]",4.0,"[0.0034721037231631403,0.026797143842919053]",4.0,"[0.08169323646436859,0.09564075475947226]",100.0,"[-0.030897054505034174,-0.026268469668291928]",4.0,"[-0.14346880342762422,0.0953126953061921]",100.0,"[0.15126607217424196,0.0172713190999763]",4.0,"[-0.10604781467717665,-0.013132978113290113]",100.0,"[0.009801888284759917,0.08942743295312984]",100.0,"[0.02344141756461617,-0.03706993827369061]",100.0,"[0.15772119012179636,-0.06485097653149752]",4.0,"[-0.13436453613467159,-0.09074477112473518]",100.0,"[0.01702698733214878,0.16676624197297196]",4.0,"[-0.008578819599786203,-0.1998147637936446]",100.0,"[0.0664163841124407,0.04027957002543652]",4.0,"[-0.056850041513929715,-0.17592764157594037]",4.0,"[-0.07899186870202188,0.0733751070484734]",100.0,"[-0.06705866764716843,0.03375177866205306]",4.0,"[0.08075479727345952,0.17775601336322003]",4.0,"[-0.07311000928838829,0.12978248534281053]",4.0,"[0.05935088960225941,-0.08054779987082779]",4.0,"[-0.026517215364900027,0.16814035875802752]",4.0,"[-0.14145047237481784,-0.03840196032815274]",4.0,"[-0.0830384076493829,-0.062192634706112755]",100.0,"[0.11335493307715232,0.05317608490644847]",4.0,"[-0.11850586144237107,0.15365070060992125]",4.0,"[-0.12428163654273666,-0.1464974532586306]",100.0,"[0.15932700499241334,0.10544132027586993]",4.0,"[-0.15330511187527354,0.03101305488866027]",4.0,"[0.08741898712814829,-0.1288564917459453]",100.0,"[0.02,0.02]",77.2409,0.0,0.0,0.0,152.0,1.0,,,,,,,
,,,,,,,60ba101202b7fd117c0f3b94,6844292d5ace92be5db7a103,2025-06-07_13h57.41.651,shape_ratio,2024.1.5,Win32,166.6666667,684250e4f00cb30b92d1fa88,,,,,,,,,,,77.2412,77.7378,,,77.9864,78.5803,left,,,,,,,,0.45,0.5916,,,,,,,77.7378,77.9864,78.5803,"[-0.08272506312349381,-0.10325312327320943]",100.0,"[-0.09931107603875292,0.07034506396859791]",4.0,"[0.06305526703742138,-0.03654532846145416]",4.0,"[-0.005425947538750892,-0.09368059118152061]",100.0,"[0.12595045705570984,0.0959892479687817]",100.0,"[0.14139375014405917,-0.0585945849015544]",100.0,"[-0.1473525389933072,0.056963090962218646]",4.0,"[-0.059480887446420425,0.022142424078617745]",4.0,"[-0.039767087292188544,0.06804644616191881]",4.0,"[-0.062450421799497814,-0.17238094137453025]",100.0,"[-0.03928151766425183,0.1494655871969538]",100.0,"[0.10199440583295268,0.038211270358507035]",4.0,"[-0.08539456091687864,0.16861528660197073]",4.0,"[-0.021233743739472167,-0.15876860188706954]",4.0,"[-0.011649645544874418,-0.03079361531866549]",100.0,"[-0.14242783205629153,-0.08057878020735662]",4.0,"[-0.12763322920697612,0.00130865271614628]",100.0,"[0.06834281279274472,0.06471028824380859]",100.0,"[0.0004070228467594669,0.04636962201253138]",4.0,"[0.08802399455242226,-0.06925017585854354]",4.0,"[0.0059923663688521015,0.18891527856685125]",100.0,"[-0.05071631918892407,0.19074101944748093]",100.0,"[0.03758747790069967,-0.17145766414741148]",4.0,"[0.177718713682958,0.06304081154935653]",4.0,"[-0.0860395386622967,-0.02590937130862311]",4.0,"[-0.01022263909394453,0.11124141170841773]",4.0,"[-0.1890382283555502,0.028630457703549814]",4.0,"[0.14779256419617878,0.008452561681281454]",100.0,"[0.03458587359175579,-0.10766166676406248]",100.0,"[-0.11428473589001083,-0.1396080631059614]",100.0,"[0.054048742739850976,0.16172000329943675]",4.0,"[0.05731320411748397,0.021951418861512292]",4.0,"[0.02,0.02]",79.6772,0.0,1.0,1.0,123.0,1.0,,,,,,,
,,,,,,,60ba101202b7fd117c0f3b94,6844292d5ace92be5db7a103,2025-06-07_13h57.41.651,shape_ratio,2024.1.5,Win32,166.6666667,684250e4f00cb30b92d1fa88,,,,,,,,,,,79.6775,80.1741,,,80.4228,80.9438,left,,,,,,,,0.5,0.5183,,,,,,,80.1741,80.4228,80.9439,"[-0.19126770827728667,-0.04052335462442674]",4.0,"[-0.13861173251259498,-0.0215620630331048]",100.0,"[0.007900168134204676,-0.12408041714147032]",4.0,"[0.0689201103783721,-0.18338392877250978]",4.0,"[0.0930071565520198,0.11384458782723623]",4.0,"[-0.028579761904957784,-0.023245438203760762]",4.0,"[0.08509150242111854,0.05946891022655965]",100.0,"[-0.07255147100671362,-0.13974313396508117]",4.0,"[0.06763092708722596,-0.06595206084977609]",100.0,"[0.1372084508773714,-0.08256628875867111]",100.0,"[-0.1290435433467635,0.10679769973671516]",4.0,"[-0.10044355683455494,0.028373563115372143]",100.0,"[0.05493374536041196,0.14913558387961645]",100.0,"[0.17197558412986866,-0.006437187311749209]",4.0,"[0.04025493238456634,-0.022709383061681424]",100.0,"[-0.08261395413444526,0.08496789068846679]",100.0,"[-0.16399991578481732,0.013143446529817183]",4.0,"[0.175511687593226,-0.054332811676491156]",100.0,"[-0.04659298568846645,0.10818226594552205]",4.0,"[0.07444571497665156,0.01140114034091349]",100.0,"[-0.10315201392530164,0.1433522735337917]",100.0,"[-0.0038592085742654818,0.10028160691613107]",100.0,"[-0.14803700099964873,-0.10212562944963018]",100.0,"[-0.051194921347234856,0.16401820231124553]",100.0,"[0.054617845481328885,0.09602788972625001]",4.0,"[-0.009378929501486402,0.17068835039292646]",4.0,"[0.02192728626686161,0.019330056561123726]",4.0,"[-0.04384535052533308,-0.190401882195647]",100.0,"[-0.04877835151618954,-0.10484313368524294]",4.0,"[0.16688449866815153,0.09525578012406098]",4.0,"[-0.03893221810185225,0.021222017312262628]",4.0,"[-0.09375179077205353,-0.01214350574986443]",100.0,"[0.02,0.02]",82.0407,0.0,2.0,2.0,108.0,1.0,,,,,,,
,,,,,,,60ba101202b7fd117c0f3b94,6844292d5ace92be5db7a103,2025-06-07_13h57.41.651,shape_ratio,2024.1.5,Win32,166.6666667,684250e4f00cb30b92d1fa88,,,,,,,,,,,82.0409,82.5377,,,82.7864,83.2771,right,,,,,,,,0.4,0.4848,,,,,,,82.5378,82.7863,83.2771,"[-0.07998226344673011,-0.09685015816458979]",4.0,"[0.08250452360557801,-0.10742254265255813]",100.0,"[0.005972004769952385,0.09821335506205836]",100.0,"[-0.11081731786214401,0.06293255913378706]",100.0,"[0.09781391837878385,-0.16890855595705467]",4.0,"[-0.05440480975881914,0.11660223288663465]",4.0,"[0.018349387607388024,-0.1925977441989607]",100.0,"[-0.06716767466478521,-0.008424469577813622]",4.0,"[0.12159270576105578,-0.03828620510328181]",4.0,"[-0.17043529419960068,-0.015205435028605588]",4.0,"[-0.13439700762979653,-0.08332814237628222]",100.0,"[-0.06770672754963104,-0.137300850273711]",4.0,"[0.06615575687903422,0.05411429083719876]",100.0,"[0.12051624230517884,0.08200182662512505]",4.0,"[0.057311989303834826,0.17460569219277375]",4.0,"[0.093204198608394,0.022135801508058165]",100.0,"[-0.1313842407463287,-0.027994359962496176]",4.0,"[0.18995723074716322,-0.005634888351618968]",100.0,"[-0.17694435263710204,0.031654479570642276]",4.0,"[0.02540955632308062,0.008118402858342002]",100.0,"[0.16809454000997384,-0.10213182416130567]",4.0,"[-0.10307888570826883,0.15622005739934045]",4.0,"[-0.010464483275704383,-0.10162722380277449]",100.0,"[-0.002250325418099747,0.15848556898989022]",100.0,"[0.04042226652111402,0.13589864106266436]",100.0,"[0.02837504845467605,-0.051579516581323086]",4.0,"[-0.03469181333003521,-0.19514276541944076]",4.0,"[0.18605987920156059,0.03509580179008687]",4.0,"[-0.018903719910665372,0.013498846466671887]",4.0,"[-0.1600376861773948,0.10914293118655165]",100.0,"[0.15022473119401508,0.0016923497244005954]",4.0,"[0.12066924244046132,0.12805345198421264]",4.0,"[0.02,0.02]",84.3739,0.0,3.0,3.0,177.0,1.0,,,,,,,
,,,,,,,60ba101202b7fd117c0f3b94,6844292d5ace92be5db7a103,2025-06-07_13h57.41.651,shape_ratio,2024.1.5,Win32,166.6666667,684250e4f00cb30b92d1fa88,,,,,,,,,,,84.3742,84.8708,,,85.1195,85.4406,left,,,,,,,,0.55,0.315,,,,,,,84.871,85.1195,85.4406,"[-0.15514718714232784,-0.020805763315122062]",4.0,"[-0.036467881327962456,0.08029774624720439]",100.0,"[0.0549526119058266,-0.09946933672874476]",100.0,"[0.11703101260934401,0.006254329122273982]",100.0,"[0.0656487477588104,0.1657000942371927]",100.0,"[-0.12485158507600072,0.06168181375890337]",100.0,"[0.10761777599136908,-0.03849618154333835]",100.0,"[0.13959833571669134,0.12808698412321207]",100.0,"[-0.019066310867193924,-0.06425058993874352]",4.0,"[0.030422926890438583,-0.16250425747097247]",100.0,"[0.06239384782889649,-0.01682508897119821]",4.0,"[-0.07935653744711078,-0.029258085306225614]",4.0,"[-0.062181799463697764,0.14650345267596512]",4.0,"[-0.18109896958240795,0.02142190817550381]",4.0,"[-0.0735462237306914,-0.18509559804876402]",4.0,"[-0.08986805607253028,-0.1126972108747495]",4.0,"[0.12048316357631421,-0.07735276238335909]",4.0,"[0.16269424380233796,-0.09262867697989645]",100.0,"[-0.14039019790992854,-0.06835484839415194]",4.0,"[0.10350600118354485,0.09126585492223258]",100.0,"[0.1931355924402473,0.04394282036563654]",100.0,"[0.17087973754176228,-0.009650175774439345]",100.0,"[0.0911008244450033,0.12996921002918496]",100.0,"[0.004035350889067881,-0.1295062238613475]",4.0,"[-0.02108470117099953,0.18200148348294062]",100.0,"[-0.15023325773288682,-0.11030942600080572]",100.0,"[-0.17851183812394913,0.07666606122992012]",100.0,"[0.019931403039530622,0.0008680134092645639]",100.0,"[0.022285272956420892,-0.060086343288841694]",4.0,"[-0.02601099192663997,0.028968409000939038]",4.0,"[0.1921730392021609,-0.05483932841886054]",4.0,"[-0.11166481850071137,0.01987117140250328]",100.0,"[0.02,0.02]",86.5375,0.0,4.0,4.0,68.0,1.0,,,,,,,
,,,,,,,60ba101202b7fd117c0f3b94,6844292d5ace92be5db7a103,2025-06-07_13h57.41.651,shape_ratio,2024.1.5,Win32,166.6666667,684250e4f00cb30b92d1fa88,,,,,,,,,,,86.5378,87.0344,,,87.2833,87.9011,left,,,,,,,,0.4,0.615,,,,,,,87.0344,87.2832,87.9013,"[0.04661347699149197,0.07484401997890291]",100.0,"[-0.033517633140323785,-0.16521982933842658]",100.0,"[-0.1467801302862359,-0.04790713726216587]",4.0,"[0.12076790162177649,-0.1461205711294531]",100.0,"[0.049876706563225785,-0.11929632872945202]",4.0,"[-0.010822890280366714,-0.09075472723443552]",4.0,"[0.17325936004026207,-0.05998540536649843]",4.0,"[-0.0008941300707476273,0.0328298990060199]",100.0,"[-0.10572097825506871,0.1608338039345951]",100.0,"[0.12142216550259408,0.12998728225765452]",100.0,"[-0.12415669444648825,-0.11990745414918963]",4.0,"[-0.04775064226747049,-0.11023487211840483]",4.0,"[0.010463644262965815,0.11247472201148266]",4.0,"[0.044306849866016164,0.14748967715676467]",4.0,"[-0.07362042534117143,0.004111322325893962]",4.0,"[-0.06595178516102151,0.08790457772797285]",4.0,"[-0.13460430004495463,0.050067711700583134]",4.0,"[0.028970157108837408,-0.0677735032717532]",100.0,"[-0.012719674078321058,0.07739304049461618]",4.0,"[0.07109869029103168,0.022016483181035582]",100.0,"[-0.17822132843191202,0.06981803905516921]",4.0,"[0.10725260838305292,0.07617213863932643]",100.0,"[0.0026453688897299307,-0.03564700046608277]",4.0,"[0.16600980255722206,0.0057006044860267195]",100.0,"[-0.06269706964600207,0.14285937781992702]",100.0,"[-0.19477991852298415,-0.03430280797701771]",100.0,"[-0.06313385063128478,-0.057683623849962576]",4.0,"[0.11819498310695957,0.011777512019858617]",4.0,"[-0.1400335569870196,0.1067217154159062]",4.0,"[0.01957697753585454,-0.14818636207732272]",4.0,"[0.1297967203773701,-0.10679293103183607]",4.0,"[-0.10267146388550014,-0.16639513120115992]",100.0,"[0.02,0.02]",88.9982,0.0,5.0,5.0,170.0,1.0,,,,,,,
,,,,,,,60ba101202b7fd117c0f3b94,6844292d5ace92be5db7a103,2025-06-07_13h57.41.651,shape_ratio,2024.1.5,Win32,166.6666667,684250e4f00cb30b92d1fa88,,,,,,,,,,,88.9985,89.495,,,89.7436,90.1496,left,,,,,,,,0.55,0.4014,,,,,,,89.495,89.7436,90.1497,"[-0.09218131669032915,-0.14914779221815297]",4.0,"[-0.12320197108167914,-0.04728738681373982]",4.0,"[0.07958667241054347,-0.07777940369084262]",4.0,"[-0.06401292170981733,0.18272391097662286]",100.0,"[-0.13890428016523296,-0.14242720227957317]",4.0,"[0.1266982540853236,0.026084088374702965]",4.0,"[-0.047426110875646785,-0.12436707571857139]",100.0,"[-0.1893101468895777,-0.01971305172399456]",4.0,"[0.0713000454312048,-0.18515749485982744]",100.0,"[-0.14449731456015993,0.13385592168286253]",100.0,"[-0.037581967005355675,0.06631942553920339]",100.0,"[-0.19677783714601155,0.02902961007738521]",100.0,"[0.16326536585549173,-0.03128720875391914]",4.0,"[-0.0785121004182821,-0.039717630274772986]",100.0,"[0.09790032953573168,0.05823801322222635]",100.0,"[-0.15063572466833267,0.011667758370731371]",4.0,"[-0.030334581537581482,0.01197409390773448]",4.0,"[0.035258827852347664,0.18070517774420253]",100.0,"[0.09900490341533015,0.13752766358569524]",4.0,"[-0.03587529712778229,-0.18503671945791114]",100.0,"[0.007030318757185215,-0.14668554812644077]",100.0,"[-0.10463984284577532,0.09698832762365538]",4.0,"[0.13700189086543027,-0.06818099701284017]",100.0,"[-0.08578878345504881,0.0034508405734397585]",100.0,"[0.13320542464263915,0.09354445552150761]",100.0,"[-0.09680919454068243,-0.0906855707378103]",4.0,"[0.17711495900067836,-0.09284054745422857]",100.0,"[0.03704091600804716,-0.08657072306017577]",100.0,"[0.1383813493136224,-0.12468570137349523]",4.0,"[-0.15783562527579123,-0.0747662707996206]",100.0,"[-0.09327724810701983,0.13726287459287093]",100.0,"[0.05363135540331537,0.021068245193007238]",4.0,"[0.02,0.02]",91.2465,0.0,6.0,6.0,71.0,1.0,,,,,,,
,,,,,,,60ba101202b7fd117c0f3b94,6844292d5ace92be5db7a103,2025-06-07_13h57.41.651,shape_ratio,2024.1.5,Win32,166.6666667,684250e4f00cb30b92d1fa88,,,,,,,,,,,91.2467,91.7435,,,91.9922,92.4646,right,,,,,,,,0.1,0.4664,,,,,,,91.7435,91.9921,92.4646,"[-0.11593225064451416,0.16026499322579296]",4.0,"[-0.07310188688120933,-0.08299881716459959]",4.0,"[0.14718661505968922,0.11358744621316248]",4.0,"[0.10195507521259303,0.13256702061023856]",4.0,"[-0.10608598592133665,-0.12967863084129838]",4.0,"[0.12886869566766354,-0.1181220465088833]",100.0,"[-0.07688461578260479,0.08481774750266288]",4.0,"[-0.15609734708874695,0.04414278664577959]",100.0,"[0.13573792890941289,0.01967235408973302]",4.0,"[-0.04319026683353432,0.028513066392994564]",4.0,"[0.07129810432494885,-0.09385738064812751]",4.0,"[0.018981418414100247,0.11366267278451418]",4.0,"[0.025703097629742707,-0.02551298388326411]",4.0,"[0.018441861552052123,0.043109293898982125]",4.0,"[0.1638436831576823,-0.07240436827586026]",4.0,"[0.1845393564175123,0.059820932685056824]",4.0,"[-0.06433821666543428,0.15488774641554898]",4.0,"[-0.09181822074923325,-0.04604917570437918]",4.0,"[-0.1318647919381282,0.10246615168481635]",4.0,"[0.07129427758189315,0.16325087805367636]",4.0,"[-0.18425723182708448,-0.07177774873383083]",4.0,"[-0.026529584621006307,-0.18317443358548746]",4.0,"[-0.1120048121473419,0.01737659399178563]",100.0,"[0.06380724403984486,0.09220195067674196]",4.0,"[0.19055376102347893,-0.02319427140516289]",4.0,"[0.06056510794745768,-0.13661971157241065]",4.0,"[0.11703508899558884,-0.161512415846892]",4.0,"[-0.027539321852771997,-0.05827630535531457]",4.0,"[-0.04051986832146702,-0.14560347450475186]",4.0,"[0.088427094899184,-0.0256529986107732]",4.0,"[0.15151040118497625,-0.03376106988487798]",4.0,"[-0.018728021784180985,0.16306490507851398]",4.0,"[0.02,0.02]",93.5615,0.0,7.0,7.0,191.0,1.0,,,,,,,
,,,,,,,60ba101202b7fd117c0f3b94,6844292d5ace92be5db7a103,2025-06-07_13h57.41.651,shape_ratio,2024.1.5,Win32,166.6666667,684250e4f00cb30b92d1fa88,,,,,,,,,,,93.5617,94.0584,,,94.3073,94.6828,right,,,,,,,,0.45,0.3718,,,,,,,94.0585,94.3072,94.6829,"[-0.07416625818582143,-0.011194831095286293]",4.0,"[0.01914968352517256,0.12164295085090383]",100.0,"[-0.007029113791033815,0.06401054535952277]",100.0,"[0.13095172394676993,0.1248853115074131]",4.0,"[0.043184289061843094,0.08844857799276783]",4.0,"[-0.1283190811381386,0.12238163671375119]",100.0,"[-0.1396976716348776,0.04688058683290829]",100.0,"[-0.05916664754034723,-0.06269151782015943]",100.0,"[-0.1213449183538267,-0.15036541941274723]",4.0,"[-0.17288699788220055,-0.08483954813547061]",4.0,"[0.08232081588656445,0.12346553138024377]",4.0,"[-0.048175787752242204,-0.16260307214751377]",100.0,"[0.1454917182556983,-0.050684242535750816]",4.0,"[0.1250213951986197,-0.1296367471337858]",4.0,"[-0.07358909553210533,0.11426663114708381]",100.0,"[0.024939374421674817,-0.16960459655286636]",100.0,"[-0.023015298031083868,0.10536202538113365]",4.0,"[0.027197719790197073,-0.055694054646413]",4.0,"[0.14713973662878685,0.004239767177572717]",4.0,"[0.00541356337051375,0.00652955749050795]",4.0,"[0.10304325855259024,0.07936234185029492]",100.0,"[0.04278979523032079,-0.11456186838515647]",4.0,"[-0.18689288711634913,-0.00037384083691474563]",4.0,"[-0.0502883964455802,0.04687640897504254]",100.0,"[0.10688872039166876,0.0026287672955414244]",4.0,"[0.04049861498850907,0.1850086747299198]",100.0,"[-0.11959304979826216,-0.07957580949901137]",4.0,"[-0.08403317832996013,-0.1001268569930542]",100.0,"[0.10691174594195926,0.15810541579653437]",4.0,"[-0.07134060351063592,0.17180393850484024]",100.0,"[0.12318624970217033,-0.08550992747928639]",4.0,"[0.07591530403533138,-0.15589257541930782]",100.0,"[0.02,0.02]",95.7796,0.0,8.0,8.0,138.0,1.0,,,,,,,
,,,,,,,60ba101202b7fd117c0f3b94,6844292d5ace92be5db7a103,2025-06-07_13h57.41.651,shape_ratio,2024.1.5,Win32,166.6666667,684250e4f00cb30b92d1fa88,,,,,,,,,,,95.7799,96.2766,,,96.5253,96.913,right,,,,,,,,0.1,0.3819,,,,,,,96.2766,96.5252,96.913,"[0.029326227634269543,0.09247537495846525]",4.0,"[0.005684414757978899,0.048482298909171447]",4.0,"[-0.10910899352771596,-0.02250703717490894]",4.0,"[0.14160401484068563,-0.04711975474842295]",4.0,"[-0.04513863370821737,-0.06833919219038409]",4.0,"[-0.09022258007247254,-0.10828894487030741]",4.0,"[0.1272161883469971,0.040108942865594056]",4.0,"[0.09671593430562586,-0.08692503361657372]",4.0,"[0.08253433082948082,-0.014846859234402387]",4.0,"[-0.10885908093082641,0.05107791711211688]",4.0,"[-0.14592606966497923,0.13593721425704555]",4.0,"[0.030166264782365768,-0.19281680773572066]",4.0,"[-0.019463993440024148,0.1443135849441731]",4.0,"[0.17359311293982949,0.0018870782267366088]",4.0,"[0.1321554094221222,0.1415558632205741]",100.0,"[0.15602298317774763,0.08514562060995806]",4.0,"[-0.13334681090171419,0.08807322903997938]",4.0,"[0.06743924400282165,0.18282183321387935]",4.0,"[-0.11771811100242338,-0.15898018761292204]",4.0,"[0.13450838042850002,-0.14373304828710728]",4.0,"[0.004879015253090055,-0.07810942020606243]",4.0,"[-0.05530897869572886,0.044234676260901724]",4.0,"[-0.05913056956245893,0.0014098034271435359]",4.0,"[-0.17107334245652117,-0.088831655208455]",4.0,"[-0.0025447714504862914,-0.1314692770400263]",100.0,"[-0.06479666010552881,0.10698546370306618]",4.0,"[0.03691149776129531,-0.009494435789830466]",4.0,"[0.0934047912756605,-0.14577953646528047]",4.0,"[-0.015192829512732086,0.19123377440021488]",4.0,"[-0.1728830504215349,0.06352868502210361]",4.0,"[-0.12100668454474534,-0.07638307801962602]",100.0,"[0.09694694813719669,0.10370107661893056]",4.0,"[0.02,0.02]",98.0099,0.0,9.0,9.0,196.0,1.0,,,,,,,
,,,,,,,60ba101202b7fd117c0f3b94,6844292d5ace92be5db7a103,2025-06-07_13h57.41.651,shape_ratio,2024.1.5,Win32,166.6666667,684250e4f00cb30b92d1fa88,,,,,,,,,,,98.0102,98.5068,,,98.7556,99.3494,right,,,,,,,,0.45,0.5894,,,,,,,98.5068,98.7556,99.3494,"[0.1186879069148514,-0.15000768243922027]",4.0,"[0.058485587105347306,0.02440965950319876]",4.0,"[-0.08792473768496367,0.1565291696549174]",4.0,"[0.10361362544648237,0.15902902076348568]",4.0,"[0.05157786840853877,0.06783077071063512]",100.0,"[-0.02513789253374146,0.12313900432618916]",100.0,"[0.021308555325608207,-0.04276964719030125]",4.0,"[0.129757102839547,0.0869334049873437]",100.0,"[0.1499244425459184,-0.03497249775070091]",4.0,"[-0.03899494013609909,0.07961117755263165]",4.0,"[0.16203431560828893,0.021792356288988415]",100.0,"[-0.046462711373924374,0.022502646608799436]",4.0,"[-0.12100785494147161,0.028612132669618474]",4.0,"[0.1975136419692694,-0.017517570293606483]",100.0,"[0.13285950023894166,-0.1061005161981627]",100.0,"[0.09481653223525392,0.05935964887973214]",100.0,"[0.039717699965812474,-0.15048916912538343]",4.0,"[-0.14231284783001788,0.09817279186716693]",4.0,"[0.008510625065976943,-0.10008853111070855]",4.0,"[0.10131278834679423,-0.0005084424184931405]",100.0,"[0.028973793861106805,0.10948151157295152]",4.0,"[-0.07495243495439127,-0.14229788883806785]",4.0,"[-0.19871233298594482,0.008893039347866305]",4.0,"[0.018069810369544453,0.02508990411394541]",4.0,"[0.1612915293050734,0.062312593820836176]",4.0,"[-0.16787483755648686,-0.02944068161457224]",100.0,"[-0.06623445870756535,-0.09807538942304894]",100.0,"[-0.0502083750567624,-0.05962571236574127]",4.0,"[0.16766081224764284,-0.07606510015573698]",100.0,"[-0.1539398003408328,-0.07042653751974472]",100.0,"[-0.035276088407370385,-0.18469676588034004]",100.0,"[0.08701919828995365,0.1008602293450898]",100.0,"[0.02,0.02]",100.4462,0.0,10.0,10.0,134.0,1.0,,,,,,,
,,,,,,,60ba101202b7fd117c0f3b94,6844292d5ace92be5db7a103,2025-06-07_13h57.41.651,shape_ratio,2024.1.5,Win32,166.6666667,684250e4f00cb30b92d1fa88,,,,,,,,,,,100.4465,100.9431,,,101.1919,101.8887,right,,,,,,,,0.4,0.692,,,,,,,100.9431,101.1919,101.8887,"[-0.015383976499394733,-0.05620925353463333]",4.0,"[-0.1182466169400102,-0.040585766482323406]",4.0,"[-0.02089808526228835,0.17047291363087774]",4.0,"[0.11753113988513303,0.10303204224329791]",100.0,"[-0.14418230960090614,0.11746043371754318]",4.0,"[0.03862785869699614,0.04417281770671579]",100.0,"[0.14567827650154885,-0.05168696752513776]",4.0,"[-0.07477570603031455,0.04632054722842834]",4.0,"[0.10526042968737272,0.14999335397801994]",100.0,"[-0.08363148581088554,0.16733750784663096]",100.0,"[-0.07425382782655501,0.12295160038144869]",100.0,"[-0.1722080807091956,-0.014615831778096134]",100.0,"[0.12273616428328797,-0.11399212003768117]",4.0,"[0.08023194770285953,-0.09251742065675872]",4.0,"[-0.0590563600802117,-0.08027238002963229]",4.0,"[0.16017430375720226,0.10913387629085942]",100.0,"[-0.15990264003915394,0.0690638150372225]",100.0,"[-0.0006309395212734119,0.12344768031409532]",4.0,"[0.15026432980280438,0.04809015713063644]",4.0,"[0.07909578392382306,-0.038595955010390794]",4.0,"[0.036812475867711046,-0.0846158127472583]",100.0,"[-0.10287971583868737,-0.16436721743197924]",100.0,"[-0.04006675119905568,-0.12536814954312744]",4.0,"[0.06052395401072003,0.13959543332467664]",4.0,"[0.06972175663076179,-0.16390012628378306]",4.0,"[0.0097352726012078,-0.1573891593207977]",4.0,"[-0.010137319117644514,0.010815607101234052]",4.0,"[-0.11161793143300103,-0.08004113724804679]",100.0,"[0.09211024944055236,0.013615405178276379]",100.0,"[0.0940392461225132,0.057048861102520894]",4.0,"[-0.014255564098756559,0.07490425160768913]",4.0,"[0.18746080838220333,0.032625738354962235]",100.0,"[0.02,0.02]",102.9854,0.0,11.0,11.0,168.0,1.0,,,,,,,
,,,,,,,60ba101202b7fd117c0f3b94,6844292d5ace92be5db7a103,2025-06-07_13h57.41.651,shape_ratio,2024.1.5,Win32,166.6666667,684250e4f00cb30b92d1fa88,,,,,,,,,,,102.9857,103.4824,,,103.7311,104.1431,left,,,,,,,,0.55,0.4067,,,,,,,103.4825,103.7311,104.1432,"[0.00492241899186193,0.09441483664431588]",4.0,"[-0.0405654163383923,-0.160999993035152]",100.0,"[0.010564375721399816,0.1590607656369257]",4.0,"[0.16217927545400368,0.0007608715139661215]",100.0,"[0.16186930847690384,0.049928901902920444]",4.0,"[-0.1596957696993781,0.04166833836030841]",4.0,"[-0.09376549880738846,-0.10823330475016561]",100.0,"[0.15225656535165194,-0.07993564960200783]",100.0,"[0.13882983737522026,0.12966727566352235]",100.0,"[0.061927677089713175,0.1593334768039242]",100.0,"[-0.11405505374409011,0.0005535078860393486]",4.0,"[-0.15200790693267555,-0.12272695335594168]",4.0,"[-0.0587737945040505,0.02320501255916288]",100.0,"[0.1122785259355944,-0.10327160782740889]",100.0,"[-0.050607225556384076,0.17312223748288766]",100.0,"[-0.07724045779488274,0.07936507966814353]",100.0,"[-0.029950071195151445,-0.06460816167364873]",4.0,"[0.0289848151575414,-0.14967875224271499]",4.0,"[0.05207509920971248,-0.006700215184469731]",4.0,"[-0.18559877417463966,-0.011602992785241713]",4.0,"[0.07705442067101148,-0.043486839993238866]",100.0,"[-0.004333970181928812,0.028906975222303264]",100.0,"[-0.0827630620254494,0.14453295928711488]",100.0,"[-0.09993446386266905,-0.05835827422135175]",100.0,"[-0.06216059686667872,-0.037859967518486616]",100.0,"[0.03748653118190394,-0.10837446064200672]",4.0,"[0.08554439608468627,0.11278796283549128]",100.0,"[0.05257907301007781,0.051683078263227114]",4.0,"[0.12654380801677367,0.07690313832736405]",100.0,"[-0.1649609613812066,-0.07320964527924748]",4.0,"[0.1219117267987401,0.0008071232769258351]",4.0,"[-0.1498491007634413,0.08698501555059164]",100.0,"[0.02,0.02]",105.24,0.0,12.0,12.0,61.0,1.0,,,,,,,
,,,,,,,60ba101202b7fd117c0f3b94,6844292d5ace92be5db7a103,2025-06-07_13h57.41.651,shape_ratio,2024.1.5,Win32,166.6666667,684250e4f00cb30b92d1fa88,,,,,,,,,,,105.2402,105.7369,,,105.9855,106.5249,left,,,,,,,,0.4,0.5336,,,,,,,105.7369,105.9855,106.525,"[-0.06764495624890099,0.15216195764954457]",4.0,"[-0.005989902549520136,-0.12795674845501356]",4.0,"[-0.00817758938568247,-0.028032238386936695]",100.0,"[-0.014751736131187798,0.04732057006749023]",4.0,"[0.13979770405318906,-0.015587358084069348]",100.0,"[0.0644391361008961,0.17993517915717577]",100.0,"[-0.1448005444536338,0.06713746191231153]",100.0,"[0.006780992945830644,-0.1927546256571242]",100.0,"[-0.06913904690326653,0.0741918638355781]",100.0,"[0.09011910409764066,-0.13249917456026952]",100.0,"[-0.19959375115581054,0.008349223638884119]",100.0,"[-0.06242205151838231,-0.030425190110073913]",4.0,"[-0.05086450957446783,-0.10459522644039165]",100.0,"[0.03192216827712946,0.05483243605792454]",4.0,"[0.13705678467823387,0.04729076346250276]",100.0,"[0.04503854006286862,-0.06373814235564226]",100.0,"[-0.0984954030995593,0.12591861731892567]",4.0,"[-0.10166841496979742,-0.12541332517225579]",4.0,"[-0.07827535256501404,-0.06960426354128178]",4.0,"[-0.10064825451219395,0.012203848968071286]",4.0,"[-0.13402617861120106,-0.09707220310577906]",4.0,"[-0.07826360684025226,-0.16427522406959746]",4.0,"[0.09054655699894669,-0.17680737428381335]",100.0,"[-0.024192139400654938,0.08801894415253686]",4.0,"[0.007564870868787986,0.01176813123355246]",4.0,"[0.08698739234220682,0.06556441134430516]",100.0,"[-0.18703258918785085,-0.051778622017099575]",4.0,"[0.141424900844586,0.11700334289119077]",4.0,"[0.07303040461567006,-0.010543766112790747]",4.0,"[0.027411793816235798,0.13368248884090714]",4.0,"[0.10157493829123262,0.14080150460040414]",4.0,"[-0.007123596168805821,-0.08499632748376423]",4.0,"[0.02,0.02]",107.6217,0.0,13.0,13.0,166.0,1.0,,,,,,,
,,,,,,,60ba101202b7fd117c0f3b94,6844292d5ace92be5db7a103,2025-06-07_13h57.41.651,shape_ratio,2024.1.5,Win32,166.6666667,684250e4f00cb30b92d1fa88,,,,,,,,,,,107.6221,108.1187,,,108.3673,108.9127,right,,,,,,,,0.1,0.5398,,,,,,,108.1187,108.3673,108.9127,"[-0.09887322659454399,0.10150604098103937]",4.0,"[0.08127162757586097,0.11336665650585223]",4.0,"[0.050618674043893225,-0.172860290362345]",4.0,"[-0.053076312948424006,-0.17848505419042796]",4.0,"[-0.07989230128724516,-0.021906510177161553]",4.0,"[0.06185501982608042,0.03986935506172997]",100.0,"[0.11026106791567465,-0.131782058972192]",4.0,"[0.010593922634936831,0.15377796667617746]",4.0,"[0.020210906292498297,-0.08645402446247857]",4.0,"[-0.1318084709158266,0.1494014185777602]",4.0,"[-0.1216936911132221,-0.12968970016423917]",4.0,"[0.17546841381455242,-0.0942010545148346]",4.0,"[0.011957391896226013,0.07354500401205454]",4.0,"[-0.19888813325639626,-0.005861322547858935]",4.0,"[0.11027073625831728,0.05379489332447209]",100.0,"[-0.07729670208804673,-0.11322539591629353]",4.0,"[-0.0046935413715664676,0.026633951723276365]",4.0,"[-0.12293584702191528,0.029926635668022804]",100.0,"[-0.05310021062668553,0.04174540748727897]",4.0,"[0.02669633679211225,0.11417398463495927]",4.0,"[0.04262310409647961,-0.030458382086697662]",4.0,"[-0.1124438145045131,-0.08058812604725384]",4.0,"[-0.006824569100702674,-0.12755398135502177]",4.0,"[0.11012576878261623,-0.003549182789853567]",4.0,"[0.08970504356431334,0.16697557093496515]",4.0,"[0.09259637038780556,-0.07526242873904884]",4.0,"[0.18186325222875466,-0.04634935806540414]",4.0,"[-0.1518731051900656,-0.01949599433435248]",4.0,"[-0.09872813373223613,-0.16446539443734465]",4.0,"[-0.18249251535592464,-0.064999346841496]",4.0,"[0.1413282907857795,0.0889280489978514]",4.0,"[-0.17385501163333908,0.04105069953493733]",4.0,"[0.02,0.02]",110.0095,0.0,14.0,14.0,208.0,1.0,,,,,,,
,,,,,,,60ba101202b7fd117c0f3b94,6844292d5ace92be5db7a103,2025-06-07_13h57.41.651,shape_ratio,2024.1.5,Win32,166.6666667,684250e4f00cb30b92d1fa88,,,,,,,,,,,110.0097,110.5064,,,110.7551,111.1186,right,,,,,,,,0.1,0.3577,,,,,,,110.5064,110.7551,111.1187,"[-0.1609685031154441,0.09234683050188619]",4.0,"[-0.07496367416996907,0.029167933962315533]",4.0,"[-0.02560200888478707,-0.13410291686053122]",4.0,"[0.017845518043561565,0.03963875530450152]",4.0,"[-0.1952230899537009,-0.03955992435737651]",4.0,"[-0.1363080671049518,-0.09822797934922871]",4.0,"[0.0023953923409244745,0.13076290255627449]",4.0,"[-0.09497236174973848,-0.10522791181320165]",4.0,"[-0.012242154646553424,0.0104432953730833]",4.0,"[0.17720196615794992,-0.0792175156038435]",4.0,"[0.046560517494897716,0.1478146265621371]",4.0,"[0.08502604816303803,0.08268295847940638]",4.0,"[0.12466536902395252,-0.11136812064417317]",4.0,"[-0.1841102617171538,0.05364799682592157]",100.0,"[0.07632212941248805,-0.01818223756850462]",4.0,"[0.14409378051141844,0.058789342518030634]",4.0,"[0.0319683247629,-0.0240593910037585]",4.0,"[0.032252267072740794,-0.11217645961929273]",4.0,"[0.0029101125121737304,-0.1888199579923779]",4.0,"[-0.03944587636888826,0.08334255838080727]",100.0,"[0.07503256736244947,-0.07450330241136448]",4.0,"[-0.11574670920414808,0.030411840527882476]",4.0,"[-0.09201539611094824,0.17592600946420198]",4.0,"[0.18023054255239682,0.004019979192177982]",4.0,"[-0.012648095805938219,-0.0888569137526191]",4.0,"[0.15591708897705386,0.11864905349792249]",4.0,"[-0.0547047712558443,-0.019605296724932053]",4.0,"[0.02832124417494834,0.19745571325960534]",4.0,"[-0.1107146372728245,-0.02956421388345909]",4.0,"[-0.07820576116586773,-0.06474636685485548]",4.0,"[0.15922048263646382,-0.037200705790577215]",100.0,"[0.08258050186985971,0.16789763175610095]",4.0,"[0.02,0.02]",112.2155,0.0,15.0,15.0,206.0,1.0,,,,,,,
,,,,,,,60ba101202b7fd117c0f3b94,6844292d5ace92be5db7a103,2025-06-07_13h57.41.651,shape_ratio,2024.1.5,Win32,166.6666667,684250e4f00cb30b92d1fa88,,,,,,,,,,,112.2157,112.7124,,,112.9611,113.664,right,,,,,,,,0.45,0.6998,,,,,,,112.7124,112.9611,113.6641,"[-0.003776232357224973,-0.0016460741994438466]",4.0,"[-0.025433295718226417,0.03764967026477168]",4.0,"[-0.0977851055727148,-0.03711988877044473]",4.0,"[-0.0605405025823533,0.08727618131801466]",100.0,"[-0.016787355052525755,0.11200201890807887]",4.0,"[0.09336569927512622,-0.13849713555045423]",100.0,"[0.11820205902657892,-0.06034020891736655]",100.0,"[-0.09953127321211039,0.07794931810561657]",100.0,"[0.18333184889391713,0.024388864184379397]",4.0,"[-0.061039721266540684,-0.16407497093022752]",4.0,"[-0.14282594875250296,-0.05598343110122038]",100.0,"[0.12449939590216091,0.06177778291796894]",100.0,"[0.0018107566878328215,-0.11603425564623743]",4.0,"[0.1411913582170112,0.11842649214679885]",4.0,"[-0.13047833479842058,0.007854845497768659]",100.0,"[-0.17822378275676837,-0.08734166760879718]",100.0,"[-0.12271708945892845,0.13949264711114298]",4.0,"[0.0784943868462099,-0.029728828747589447]",4.0,"[-0.09616354386496855,-0.07738824054773892]",4.0,"[0.17551098730217812,0.07980873687664766]",4.0,"[0.07732089559140448,-0.0778949245365249]",100.0,"[0.026256998352137163,0.14988179452189762]",4.0,"[-0.08857136053820576,0.01295019130300266]",4.0,"[-0.07425558374093882,-0.12488496897067239]",100.0,"[0.047497621004161356,0.008105014300767932]",100.0,"[-0.024079733874392918,0.15252101617212194]",100.0,"[-0.11844857696192529,-0.11221312787939307]",4.0,"[0.029793481015639826,0.0455174538683107]",100.0,"[0.020141747808337454,-0.058256429821867496]",4.0,"[0.19562138024301742,-0.015817699064694418]",4.0,"[-0.03674977376396322,-0.08286406838620479]",4.0,"[0.0636617014454647,0.1153328993557436]",100.0,"[0.02,0.02]",114.7608,0.0,16.0,16.0,120.0,1.0,,,,,,,
,,,,,,,60ba101202b7fd117c0f3b94,6844292d5ace92be5db7a103,2025-06-07_13h57.41.651,shape_ratio,2024.1.5,Win32,166.6666667,684250e4f00cb30b92d1fa88,,,,,,,,,,,114.761,115.2578,,,115.5066,115.8881,left,,,,,,,,0.4,0.3755,,,,,,,115.2578,115.5065,115.8882,"[0.1673249266638864,0.007338479281846446]",4.0,"[0.018405301499736213,-0.03807652284653671]",4.0,"[0.10529794509576568,-0.14817470029604252]",4.0,"[-0.08538949771466468,-0.14558787168778572]",4.0,"[-0.17923609249690647,-0.0460736248202589]",100.0,"[0.13756668908093156,-0.09849166337759388]",4.0,"[-0.03679352999231153,-0.033346178517000585]",4.0,"[-0.08290707318037362,-0.090884741738436]",100.0,"[-0.012067439723371634,-0.12974218664316023]",100.0,"[0.010863638704761362,0.09910208094545996]",4.0,"[-0.018990687572937877,0.045092240792266265]",100.0,"[0.06646180058447988,-0.03887709862234975]",100.0,"[0.03381060541536664,0.02672316134922618]",4.0,"[-0.1480504409814406,-0.13396267315023652]",100.0,"[0.014353120207813519,0.19369124126670498]",4.0,"[-0.06988485536266062,0.1283366742901939]",4.0,"[0.11955089812766709,0.11883418000791021]",4.0,"[0.05382259409466214,-0.1651975969195913]",4.0,"[-0.11415453077339371,-0.012572331200274236]",100.0,"[0.16654625478334759,0.08504783516804917]",100.0,"[0.09058216972865325,0.07167865127759535]",4.0,"[-0.05078531658041025,0.17134902778681585]",100.0,"[0.061791631906168355,0.14880020312224335]",100.0,"[0.07227091134424439,-0.0907272779791796]",4.0,"[-0.13580483061298376,0.06442519142109629]",4.0,"[-0.19442665969917944,0.03475392964347442]",4.0,"[-0.12165084149722752,-0.10152106151076049]",4.0,"[0.011473230887707683,-0.18009234331377072]",4.0,"[-0.05853656567218367,0.015640662589401663]",100.0,"[-0.07021941396673685,-0.18342297999083002]",100.0,"[0.053530986542642864,0.0906537542656503]",100.0,"[-0.14108934323374603,0.1306715096068355]",4.0,"[0.02,0.02]",116.9851,0.0,17.0,17.0,173.0,1.0,,,,,,,
,,,,,,,60ba101202b7fd117c0f3b94,6844292d5ace92be5db7a103,2025-06-07_13h57.41.651,shape_ratio,2024.1.5,Win32,166.6666667,684250e4f00cb30b92d1fa88,,,,,,,,,,,116.9853,117.4819,,,117.7308,118.573,left,,,,,,,,0.45,0.8364,,,,,,,117.482,117.7308,118.573,"[0.0035216251719184808,0.17561560601279638]",4.0,"[0.11674629377443986,0.025172967870045474]",4.0,"[0.18220671648128908,0.02131327167594862]",4.0,"[0.06065422818777469,0.17812145992445783]",4.0,"[0.09249171490621269,-0.11027213583528028]",100.0,"[-0.027082427899664353,-0.02816634186245291]",4.0,"[-0.157104018632474,-0.0053650068069566815]",4.0,"[0.14904058408142926,-0.06784431725342142]",4.0,"[-0.09249978694352477,0.0051947516770220565]",100.0,"[0.050769791967720614,-0.1869537502928345]",100.0,"[0.10068640574752336,0.13739003659102877]",4.0,"[0.09853409999179549,-0.03773997139138614]",100.0,"[-0.0015765422496318703,-0.0877294586293632]",100.0,"[0.14496248492914107,0.0846115517270807]",100.0,"[-0.08124778574681409,-0.07920055265672013]",4.0,"[-0.010759720093938229,0.08446929266636632]",4.0,"[-0.004287033680212265,0.01104577704755729]",100.0,"[-0.06372642752460966,0.07196268312215032]",100.0,"[-0.1366075566472365,-0.06857931351360622]",4.0,"[0.06660232356337219,0.08266660830306907]",100.0,"[0.059439326846998645,-0.05477612226668371]",100.0,"[-0.0015766899934398248,-0.15355365509482052]",4.0,"[-0.11892086176088042,-0.1304404240762124]",100.0,"[-0.12734911833174056,0.09328146285186328]",4.0,"[-0.18295044189353638,0.052734020999973624]",100.0,"[0.1429499348727878,-0.1376763904383368]",4.0,"[-0.08765896698885565,0.12209433464263705]",4.0,"[-0.09264474655324123,0.17170460722142744]",4.0,"[-0.07155864346334191,-0.18188802063960485]",4.0,"[-0.031174914643254743,-0.18986073655342708]",100.0,"[-0.13664478658940932,0.1457958853102529]",100.0,"[-0.05668390895651676,-0.1375500794188725]",4.0,"[0.02,0.02]",119.6698,0.0,18.0,18.0,124.0,1.0,,,,,,,
,,,,,,,60ba101202b7fd117c0f3b94,6844292d5ace92be5db7a103,2025-06-07_13h57.41.651,shape_ratio,2024.1.5,Win32,166.6666667,684250e4f00cb30b92d1fa88,,,,,,,,,,,119.6701,120.1667,,,120.4157,120.9427,left,,,,,,,,0.6,0.5216,,,,,,,120.1667,120.4156,120.9427,"[0.13084139742685433,0.03584148244687288]",100.0,"[-0.14574563876897215,-0.0007484510683053677]",4.0,"[0.12731345747408138,-0.02184262884138304]",4.0,"[-0.035320355070512795,0.1314579255897855]",100.0,"[-0.030249764385980104,0.030116599404593204]",100.0,"[-0.12781567542418598,-0.05866320635185212]",100.0,"[-0.0027875669201214057,-0.10674376511066055]",4.0,"[0.17552269096640366,0.07487442763718877]",100.0,"[0.042442627268119516,0.16149010808802458]",4.0,"[-0.030044714299806603,-0.18212895379130892]",100.0,"[-0.11406619138657523,0.07103723521589016]",4.0,"[0.023774147160983167,0.07356723916246878]",100.0,"[-0.07472575444819905,0.0006458911549774539]",4.0,"[0.07072277714952335,-0.01059043732070973]",4.0,"[0.17523169242141629,-0.08021998245384772]",100.0,"[0.13020625279439757,0.13807706192548969]",100.0,"[-0.05436244472949425,0.17480445848945472]",4.0,"[0.05634725192579274,-0.04884533465683099]",100.0,"[0.06512160265769812,0.07244933151430838]",4.0,"[0.1459772187579018,-0.129313505257122]",100.0,"[0.0956758282904396,-0.05668501272550376]",100.0,"[0.0035220503134341147,-0.06053008649775049]",100.0,"[-0.035009048147876094,-0.047047826012575594]",4.0,"[-0.134254948078204,0.106524467408271]",100.0,"[-0.17381096569479987,0.04641791030196045]",100.0,"[-0.08137425954983916,-0.03977510691276248]",100.0,"[-0.012179159069089304,0.18714976400611083]",4.0,"[-0.09480993671878006,-0.08856591709992995]",100.0,"[-0.08324573696498196,-0.15186965874137268]",4.0,"[-0.06175984208891143,0.09762136087157443]",100.0,"[0.10940597875699125,-0.09690098226440941]",4.0,"[-0.06215625191655768,0.05574813849658409]",100.0,"[0.02,0.02]",122.0395,0.0,19.0,19.0,49.0,1.0,,,,,,,
,,,,,,,60ba101202b7fd117c0f3b94,6844292d5ace92be5db7a103,2025-06-07_13h57.41.651,shape_ratio,2024.1.5,Win32,166.6666667,684250e4f00cb30b92d1fa88,,,,,,,,,,,122.0398,122.5366,,,122.7852,123.1608,left,,,,,,,,0.9,0.3739,,,,,,,122.5366,122.7851,123.1608,"[-0.002277019703541089,-0.040359416445133654]",100.0,"[-0.09548461291074313,-0.15241174533737295]",100.0,"[-0.050344524271099096,0.11031366297341637]",100.0,"[0.14989441441256166,0.12489005888666231]",100.0,"[0.07980991005747952,0.059106251403495395]",100.0,"[0.04959365933323232,-0.05575466239857742]",100.0,"[0.07746868659794208,-0.011894954703816595]",100.0,"[0.12335093821239128,-0.0828200123951816]",100.0,"[0.050140263328589986,-0.09743105111222584]",100.0,"[-0.10789090597271786,0.1311950633700834]",4.0,"[0.006277761067015091,-0.16356005617673058]",100.0,"[-0.1686707130891963,0.09178884841602707]",100.0,"[-0.05325500072609047,-0.039479800381039806]",100.0,"[0.014264407361198165,0.16968055387798506]",100.0,"[-0.12735203622345323,-0.06558328069712074]",100.0,"[0.13991516059625125,-0.03188951116839792]",4.0,"[0.031194056161233726,0.08311645262029199]",100.0,"[-0.17061995051768847,-0.049528255349289896]",100.0,"[0.030944361914933317,0.04249684166501751]",100.0,"[0.19645518371701284,0.011038670934532252]",4.0,"[-0.10340121177962415,0.03511098281777741]",100.0,"[-0.10560813811087748,0.07967764668884407]",100.0,"[0.050420129838117125,-0.15834533245930815]",100.0,"[-0.006294034895189487,-0.1250788543883454]",100.0,"[-0.19227598859387993,0.04314529824059399]",100.0,"[0.11636582066711187,0.009223883541989554]",100.0,"[0.17568341723900188,-0.07874933220797158]",100.0,"[0.08014521764403426,0.12289636618148259]",100.0,"[-0.03404218302903859,0.051267609343170095]",100.0,"[-0.18710026482648484,-0.002790158766012176]",100.0,"[0.09030780373853092,-0.13955504555047088]",100.0,"[0.057287374651527,0.17547495521173653]",100.0,"[0.02,0.02]",124.2577,0.0,20.0,20.0,1.0,1.0,,,,,,,
,,,,,,,60ba101202b7fd117c0f3b94,6844292d5ace92be5db7a103,2025-06-07_13h57.41.651,shape_ratio,2024.1.5,Win32,166.6666667,684250e4f00cb30b92d1fa88,,,,,,,,,,,124.2579,124.7545,,,125.0033,125.3425,left,,,,,,,,0.9,0.3343,,,,,,,124.7545,125.0033,125.3425,"[-0.06473675139224018,-0.10147436153839107]",100.0,"[-0.14074808107165243,-0.09356626859516472]",4.0,"[-0.009975801747486504,-0.17886851583502322]",100.0,"[-0.0029196454756181297,0.1734722756634015]",100.0,"[-0.1378594560910898,-0.14408179363359794]",100.0,"[-0.05268114652573236,-0.1480071162547923]",100.0,"[0.056078327564247694,0.0725468100954003]",100.0,"[0.13636542237994898,-0.10533773061397433]",100.0,"[0.049193831790452995,-0.043723372364426395]",100.0,"[0.04091729653946573,0.017165407029061285]",100.0,"[-0.03486892262161186,-0.03763046139424248]",100.0,"[0.06820851735592977,0.16701558286844717]",100.0,"[0.0635380866152099,-0.10518982783822635]",100.0,"[0.1314081987829632,0.06835310032282692]",100.0,"[0.13643760012696768,-0.011365039539089452]",100.0,"[-0.10753564488123805,0.016897497743999366]",4.0,"[-0.15790992275614132,0.07916278513792728]",100.0,"[-0.07426101173337121,0.16637638237405822]",100.0,"[0.004584081668312514,0.07818280774054659]",100.0,"[-0.19252978398483778,0.013873738607147069]",100.0,"[0.08463274214478511,0.02681005452602468]",100.0,"[-0.06977607340065232,0.062893035685647]",100.0,"[0.17744313606001325,-0.003914690340485851]",100.0,"[-0.12924815856650454,0.11978434151614228]",100.0,"[0.01246139856927363,-0.0892090055945534]",100.0,"[0.021841717647340934,0.12332166759590205]",100.0,"[0.11409724575739286,0.16218746821753624]",100.0,"[-0.1013010261602883,-0.03773225979616481]",4.0,"[0.17754637883620483,-0.04543069348845806]",100.0,"[-0.0020388267086238745,0.009077407753534342]",100.0,"[0.03577539911308068,-0.17837943931876662]",100.0,"[0.09029802547086696,-0.07146952653498857]",100.0,"[0.02,0.02]",126.4393,0.0,21.0,21.0,22.0,1.0,,,,,,,
,,,,,,,60ba101202b7fd117c0f3b94,6844292d5ace92be5db7a103,2025-06-07_13h57.41.651,shape_ratio,2024.1.5,Win32,166.6666667,684250e4f00cb30b92d1fa88,,,,,,,,,,,126.4395,126.9363,,,127.1849,127.8393,right,,,,,,,,0.55,0.6489,,,,,,,126.9363,127.1849,127.8393,"[0.0010149723866971353,-0.013071694245537172]",4.0,"[0.05213411525185222,-0.14807229423526438]",4.0,"[-0.0018100657815775837,0.10771125804423168]",4.0,"[-0.11909848458438581,-0.1331585889309883]",4.0,"[0.15632190102713958,-0.10738847452535158]",4.0,"[-0.023702955748919088,0.05500597892042281]",4.0,"[-0.09712668354991023,0.03710605393856679]",100.0,"[0.1385810525254062,0.056995057595696653]",4.0,"[0.04360902546973987,-0.053845668263335915]",4.0,"[-0.15067643882365847,0.09567629686029602]",4.0,"[0.01417313524942251,0.1747348859606798]",100.0,"[0.06561620261861073,0.10139187559406504]",100.0,"[-0.17918593549181358,-0.010133847473735923]",100.0,"[0.05189262936005832,0.0031780052368243408]",4.0,"[-0.08659729614014967,0.13188608094995344]",100.0,"[0.18727435141350923,-0.017607724646750856]",100.0,"[-0.015613239444311476,-0.09231088933415513]",100.0,"[-0.03885877641494649,-0.05712595215251267]",100.0,"[-0.06642006896616975,-0.18733746867284715]",100.0,"[-0.02656526669508767,0.16189704019127862]",4.0,"[-0.13924960583699791,0.026121112060365107]",4.0,"[0.11122416585255945,0.012696369896602526]",100.0,"[0.12302748040763035,0.12928996900157236]",100.0,"[0.07836735958499634,-0.11616691480038234]",4.0,"[-0.10623603345993074,0.0960802614053468]",100.0,"[-0.04186812145179669,-0.13141186260719492]",100.0,"[-0.15788259429867973,-0.08863473298453377]",100.0,"[0.09650529958839626,0.0609254228646002]",100.0,"[-0.1100354324615732,-0.07991925396494051]",100.0,"[-0.00698815912496778,-0.1740998428443869]",100.0,"[0.07419870483023719,0.16470948434622693]",4.0,"[-0.0830102632266379,-0.030676964527132373]",100.0,"[0.02,0.02]",128.9362,0.0,22.0,22.0,79.0,1.0,,,,,,,
,,,,,,,60ba101202b7fd117c0f3b94,6844292d5ace92be5db7a103,2025-06-07_13h57.41.651,shape_ratio,2024.1.5,Win32,166.6666667,684250e4f00cb30b92d1fa88,,,,,,,,,,,128.9363,129.4332,,,129.682,130.0578,left,,,,,,,,0.55,0.3742,,,,,,,129.4332,129.6819,130.0578,"[-0.11125030314662233,-0.15553503919440248]",100.0,"[0.03868241808594921,0.09843190518984586]",4.0,"[0.13509864585327744,-0.07069141252980297]",4.0,"[0.012900732622387848,-0.1378850113461405]",100.0,"[0.15180930656676034,0.07289402281927682]",100.0,"[-0.09253342378516895,0.05191870762218985]",4.0,"[-0.10117581115595262,-0.10198678514540936]",4.0,"[-0.06661726286974493,0.008672543105578887]",100.0,"[-0.11807827335804776,0.14116015941543203]",4.0,"[-0.04382251963806058,-0.1897260967499445]",100.0,"[-0.15789457613635888,-0.03515915796744134]",100.0,"[0.05761867632704001,0.0007477237711936898]",100.0,"[-0.1825150047935877,0.03323228716395344]",100.0,"[0.0037630688721588712,0.15240779961129675]",4.0,"[-0.05078407812219623,0.0927277805391805]",4.0,"[0.07463888959882202,0.04465057004774437]",100.0,"[0.10031422272829708,-0.09425962759232533]",100.0,"[-0.0046692102902387055,-0.0750650729375575]",100.0,"[0.007123563389747929,-0.016529258061215493]",4.0,"[0.05223025613378483,-0.1527578578504149]",100.0,"[0.12419832799604764,-0.13099315246598953]",100.0,"[-0.15975779743620402,0.10521238786008898]",100.0,"[0.08386447313075951,-0.03418570089216828]",4.0,"[0.13699537208214693,0.13052452467868456]",100.0,"[-0.06531238976455395,0.13439729960639182]",4.0,"[-0.009759124104912836,0.04149377312330325]",4.0,"[0.0996683538807896,0.11075575158796269]",4.0,"[0.06088008140610384,0.1478476140278491]",100.0,"[-0.005119475163562413,0.11067095889506325]",4.0,"[-0.1254028448098018,-0.010248619080257669]",100.0,"[0.1846676927296361,0.012957535735944969]",4.0,"[-0.04862627277809094,0.17560675189385108]",100.0,"[0.02,0.02]",131.1543,0.0,23.0,23.0,82.0,1.0,,,,,,,
,,,,,,,60ba101202b7fd117c0f3b94,6844292d5ace92be5db7a103,2025-06-07_13h57.41.651,shape_ratio,2024.1.5,Win32,166.6666667,684250e4f00cb30b92d1fa88,,,,,,,,,,,131.1546,131.6512,,,131.8999,132.3241,left,,,,,,,,0.6,0.4193,,,,,,,131.6512,131.8999,132.3241,"[0.08749140558912367,0.15967367484777562]",4.0,"[0.16736838217389335,-0.018147544048783656]",4.0,"[0.03373231879691598,0.07567616721579871]",4.0,"[-0.01501765107098683,0.061578765720229627]",100.0,"[0.1242710380412979,0.12723758254219544]",100.0,"[0.09106514221551201,-0.16238084089464414]",100.0,"[-0.1427513128304507,-0.12956826809525313]",4.0,"[0.0346066630391774,0.12715887697338266]",100.0,"[-0.10065238873598044,-0.13692239406179593]",4.0,"[0.01684872063994108,0.18630510336403414]",100.0,"[0.06781559657035137,-0.03521188229497302]",100.0,"[-0.08889902329441918,0.04389238849682395]",100.0,"[-0.07824764646342426,-0.030840476295827365]",4.0,"[-0.14751682133242,-0.025996116712815324]",100.0,"[-0.0843238771538537,0.16089968338659064]",4.0,"[-0.18653251342792507,0.03380890800561942]",100.0,"[0.1772120033287508,-0.06966575995265278]",100.0,"[0.027779426254562062,-0.11745003918336788]",4.0,"[-0.08711015802456817,0.095961340956457]",4.0,"[0.13585679524940017,-0.09695034075090778]",4.0,"[0.1331647896747179,0.019147542510214176]",100.0,"[0.08441079702139756,-0.11948016259048992]",100.0,"[0.04159562710344272,0.026558543909706352]",4.0,"[0.07886604833450561,0.10929520204143256]",100.0,"[-0.15623216732615036,0.06106553116783845]",100.0,"[0.1490578672507718,0.09381570572775365]",100.0,"[-0.021855406440437784,-0.11620216096494296]",4.0,"[0.12154566704974225,-0.04158864601288375]",100.0,"[-0.14541995788774065,0.01940793515253588]",4.0,"[-0.011455695387514802,0.10290685971699275]",100.0,"[0.10114051011511647,0.06434483934117016]",100.0,"[0.03905618356149268,-0.19196678361790265]",100.0,"[0.02,0.02]",133.4209,0.0,24.0,24.0,56.0,1.0,,,,,,,
,,,,,,,60ba101202b7fd117c0f3b94,6844292d5ace92be5db7a103,2025-06-07_13h57.41.651,shape_ratio,2024.1.5,Win32,166.6666667,684250e4f00cb30b92d1fa88,,,,,,,,,,,133.4211,133.9179,,,134.1665,134.5785,left,,,,,,,,0.55,0.4058,,,,,,,133.9179,134.1665,134.5785,"[-0.19803469158018128,0.003738905222557242]",100.0,"[0.023992692542511126,0.041735917221803115]",100.0,"[-0.0329153160847967,-0.13470656087037952]",4.0,"[0.07239659107936303,-0.0612399970609774]",100.0,"[0.021518261234803143,-0.17073932056143926]",4.0,"[0.16167422442571913,0.01207063611139145]",4.0,"[-0.12659714988552553,-0.11046975642037353]",100.0,"[0.02550830778598395,-0.06996000912129512]",100.0,"[0.11405609183879144,-0.00852605260166354]",100.0,"[-0.09551537597516672,-0.06974170741025612]",4.0,"[-0.05974577915396185,0.16238566414392225]",100.0,"[-0.12989309371185295,0.10721610205100038]",100.0,"[0.12185012072744535,0.041547267933916145]",100.0,"[0.05318622463543446,0.12848505005880673]",100.0,"[-0.16532398244116372,0.0758816754378805]",4.0,"[0.04424191155484785,-0.12604898365979858]",4.0,"[0.04184269476740284,0.08470622360570977]",4.0,"[-0.026877618955646172,-0.038892727952446804]",100.0,"[0.08849839364962211,-0.1167657835865784]",4.0,"[-0.07990189129737688,0.04020341095325933]",100.0,"[-0.018060018453875806,0.07556905907238091]",4.0,"[-0.029144194937762952,-0.19338738567708927]",100.0,"[0.11147075168249655,0.1569036695027998]",100.0,"[-0.10557018294024685,0.07284601213282572]",4.0,"[0.10723174741953917,0.10766169134305865]",4.0,"[0.17268409118163483,-0.055115415701308026]",100.0,"[-0.15994171640419877,0.030776015530322717]",4.0,"[0.04878835970250533,0.001364618684740037]",4.0,"[0.15333257411034829,-0.09788035754272001]",100.0,"[0.15259904845915737,0.10388091279888449]",100.0,"[0.04676408574431329,0.19184152680656177]",100.0,"[-0.13385080966334145,-0.022425908503415484]",4.0,"[0.02,0.02]",135.6754,0.0,25.0,25.0,86.0,1.0,,,,,,,
,,,,,,,60ba101202b7fd117c0f3b94,6844292d5ace92be5db7a103,2025-06-07_13h57.41.651,shape_ratio,2024.1.5,Win32,166.6666667,684250e4f00cb30b92d1fa88,,,,,,,,,,,135.6757,136.1724,,,136.421,137.1906,right,,,,,,,,0.5,0.7649,,,,,,,136.1724,136.4209,137.1906,"[-0.10940494896822549,-0.048568904124571835]",100.0,"[-0.06349566979686898,-0.006540062390927147]",4.0,"[0.019338585741394257,0.014639505454589342]",4.0,"[0.11350063811962596,0.011331761125150917]",100.0,"[-0.15058058256999102,0.013515071546397913]",100.0,"[0.011588635803409748,-0.1815414614609559]",4.0,"[-0.0034154214116768125,0.105309372758829]",100.0,"[-0.028336184616902207,0.021966092564301775]",4.0,"[-0.09856211103978045,0.12802318375167668]",4.0,"[-0.07826005924939186,-0.11316523485154836]",4.0,"[-0.017581837638952245,-0.03830026938963615]",100.0,"[-0.11864018677627212,-0.13600725924738125]",100.0,"[0.005886668181516202,-0.07745827864490387]",100.0,"[-0.07566837174880106,0.08996134590552124]",4.0,"[-0.13631294890665213,0.10376475031826564]",4.0,"[-0.04287529356144247,0.19006653136539664]",4.0,"[0.15524749434605276,0.0977376337489777]",100.0,"[0.0789873166445577,-0.09383960883097692]",4.0,"[-0.06410550406376088,-0.1856822516174792]",100.0,"[-0.15483503565892673,-0.08402790549064518]",4.0,"[-0.023854963365187637,0.06189830160835446]",100.0,"[0.11219085271520206,0.09386577981532589]",4.0,"[-0.01535295574938595,-0.13998150169689064]",100.0,"[0.15232942424113033,0.03905862016647833]",4.0,"[-0.09347267969632471,0.05385825555251007]",100.0,"[0.12287482967347768,-0.05234650696051921]",100.0,"[0.03105761689894421,0.08152744911171783]",100.0,"[0.07147318792706679,0.042417670589674245]",100.0,"[0.04311298080115526,-0.026283179171689035]",4.0,"[-0.04006137586183003,0.13254229818924085]",4.0,"[0.061571303496516884,-0.16987298130084325]",4.0,"[0.05590914616748688,0.13128816815952676]",100.0,"[0.02,0.02]",138.2876,0.0,26.0,26.0,110.0,1.0,,,,,,,
,,,,,,,60ba101202b7fd117c0f3b94,6844292d5ace92be5db7a103,2025-06-07_13h57.41.651,shape_ratio,2024.1.5,Win32,166.6666667,684250e4f00cb30b92d1fa88,,,,,,,,,,,138.2879,138.7844,,,139.0331,139.4875,left,,,,,,,,0.55,0.4498,,,,,,,138.7844,139.0331,139.4875,"[0.12880305139827067,-0.06606844576281878]",100.0,"[0.10551214753491474,-0.02184478475563693]",100.0,"[-0.11820540832691491,0.018100697632466196]",4.0,"[0.0231612534030095,0.14494892341041382]",100.0,"[0.09822195720568624,0.09786672419733607]",100.0,"[0.032489408826809146,-0.022159864438972658]",100.0,"[-0.12354994250565406,-0.1270524695314519]",4.0,"[0.013480148050072381,0.19694693684765952]",100.0,"[0.08019729486950636,-0.07509978253242404]",4.0,"[0.012894597065457022,0.06062279553487236]",100.0,"[0.11856734595923904,-0.118176453120088]",100.0,"[-0.04774570327951651,-0.10077574721218335]",100.0,"[-0.0008084199782315539,-0.1177921549013349]",4.0,"[-0.07633303568354546,-0.06573804717238044]",100.0,"[-0.006260480265920731,0.002781424757166846]",100.0,"[-0.19349443475022632,0.020150856927690815]",100.0,"[0.061550752089957785,-0.1514415042066214]",4.0,"[0.17406466805748116,0.09048392154656897]",100.0,"[0.04121847957878587,-0.1943129619094906]",4.0,"[-0.0435269784030223,0.18112987005849251]",4.0,"[0.05894220348525103,0.18337855433673683]",4.0,"[0.09759789882502032,0.020328014829352117]",4.0,"[0.057975341921464,0.11353614763379503]",100.0,"[-0.05379167759790454,-0.03261965145147543]",100.0,"[0.14131190797879342,0.02840667433462383]",4.0,"[0.10780700203510737,0.15838439366452667]",4.0,"[-0.07622234759142939,-0.14113399942225555]",4.0,"[-0.18475991637605116,0.07429847186867367]",4.0,"[-0.14336302756806385,0.08003820990431561]",4.0,"[-0.19270944459339162,-0.022045831394071708]",100.0,"[-0.04066748099388309,0.049376574150746734]",100.0,"[-0.012015874281376413,-0.15817424526259102]",100.0,"[0.02,0.02]",140.5844,0.0,27.0,27.0,70.0,1.0,,,,,,,
,,,,,,,60ba101202b7fd117c0f3b94,6844292d5ace92be5db7a103,2025-06-07_13h57.41.651,shape_ratio,2024.1.5,Win32,166.6666667,684250e4f00cb30b92d1fa88,,,,,,,,,,,140.5846,141.0812,,,141.3301,141.8389,right,,,,,,,,0.6,0.5063,,,,,,,141.0812,141.3301,141.839,"[-0.03408688638140591,0.15808492613394826]",100.0,"[0.07049933130489712,0.06145502633282092]",4.0,"[-0.09958187619737685,-0.10639318179319768]",100.0,"[-0.0894762627094319,-0.0010214097349810316]",4.0,"[-0.13225350299844296,-0.08097072136882325]",4.0,"[-0.10741778030732718,-0.1570340647873512]",4.0,"[0.0757344177093116,0.163587273040875]",100.0,"[-0.030354114861844837,0.10146171165337754]",4.0,"[-0.1376654974683892,0.10899455853881293]",100.0,"[0.06201195585417898,-0.18815786268342527]",4.0,"[-0.026232836549274732,-0.09414645155597856]",4.0,"[0.17229195526393534,0.06752393814707]",100.0,"[0.15716373516102744,-0.11857436454366814]",100.0,"[0.022331644223591577,-0.014504770543635845]",100.0,"[0.05997149281597651,0.10566230210751361]",100.0,"[-0.17451981947715553,0.026554620657836234]",100.0,"[-0.10095983087444135,0.07148682444457569]",4.0,"[0.16557447268924175,0.001930911633407702]",100.0,"[0.08780473847774974,-0.07632373512838558]",100.0,"[0.004707926788596486,0.07744310952169983]",4.0,"[0.088667600519163,-0.1451906969663592]",100.0,"[-0.06128691059826013,0.1875190392639859]",100.0,"[0.12179884453138691,0.10535113942868944]",100.0,"[0.1273221069037049,-0.028132562193774222]",4.0,"[-0.017560429956762876,0.008722436421750055]",4.0,"[0.13571502823095435,-0.08028696574719475]",100.0,"[0.03507211245192738,0.19396314942368642]",100.0,"[-0.054580697780536834,0.052596215294101405]",4.0,"[-0.06384793618171629,-0.1813598074218174]",100.0,"[-0.13896590426712177,-0.029115824209348308]",4.0,"[0.007949869657986958,-0.17451757572047347]",100.0,"[-0.15637874089454382,-0.12006457711135804]",100.0,"[0.02,0.02]",142.9357,0.0,28.0,28.0,54.0,1.0,,,,,,,
,,,,,,,60ba101202b7fd117c0f3b94,6844292d5ace92be5db7a103,2025-06-07_13h57.41.651,shape_ratio,2024.1.5,Win32,166.6666667,684250e4f00cb30b92d1fa88,,,,,,,,,,,142.936,143.4327,,,143.6815,144.2995,right,,,,,,,,0.4,0.6115,,,,,,,143.4327,143.6815,144.2996,"[0.05209063608595497,0.1532014074086454]",100.0,"[-0.023306213937171912,0.0719899683931482]",4.0,"[0.029657180485394504,0.01066730192902347]",100.0,"[0.07721599287102288,-0.010010180284675126]",100.0,"[-0.06811104804599494,0.11875846768580846]",4.0,"[-0.12671651939700385,0.15213721537961913]",4.0,"[-0.13083926871712398,-0.1206102038468722]",100.0,"[0.16616102768002908,0.0014365405717315992]",100.0,"[-0.1674703718866315,0.03250632406568056]",4.0,"[0.05265964781836536,-0.1325504531824579]",4.0,"[-0.020331623003730093,-0.19529411004710373]",4.0,"[0.0005200956416167627,0.11839563375589549]",4.0,"[-0.12861227778930448,-0.009244694258748236]",4.0,"[-0.07930995250013878,0.04861945321955539]",4.0,"[-0.02726869987828864,-0.045124049505293695]",4.0,"[0.12173485324030192,-0.09631300876420917]",100.0,"[0.12712011552650745,0.08243188773755951]",4.0,"[-0.09786834102203418,-0.14867261441516275]",100.0,"[0.12038857482206959,-0.1489417941615024]",4.0,"[-0.004493674485350004,0.16912958364982492]",4.0,"[-0.018625280154331243,-0.1296587107106671]",100.0,"[0.07443749447416077,0.08618445530861757]",4.0,"[-0.1691992890663387,0.09503571377477538]",100.0,"[-0.12457558713174825,-0.0776954510231884]",4.0,"[0.017729067803545284,0.07646509146248423]",4.0,"[-0.04869836760549731,0.1762897906995814]",4.0,"[0.16598434336650414,0.05238413838871401]",100.0,"[0.028442230364575462,-0.18457694670764418]",100.0,"[-0.06974286002999713,-0.01563550762010764]",100.0,"[-0.02964175443709974,0.02821345113828096]",4.0,"[0.1062852000929809,0.15754275229577389]",4.0,"[-0.18835936078489313,-0.031799550619848724]",100.0,"[0.02,0.02]",145.3963,0.0,29.0,29.0,178.0,1.0,,,,,,,
,,,,,,,60ba101202b7fd117c0f3b94,6844292d5ace92be5db7a103,2025-06-07_13h57.41.651,shape_ratio,2024.1.5,Win32,166.6666667,684250e4f00cb30b92d1fa88,,,,,,,,,,,145.3966,145.8933,,,146.142,146.5781,left,,,,,,,,0.5,0.431,,,,,,,145.8933,146.142,146.5782,"[0.051759799806475555,0.15802845159955303]",4.0,"[-0.09958183210348066,0.14393093236409812]",100.0,"[-0.056067884573765166,-0.13033549988128068]",4.0,"[-0.0038717362026634942,0.10338422887024358]",4.0,"[-0.1414008499861429,0.12209111389341694]",100.0,"[0.000626625622825275,-0.16654523167608107]",4.0,"[0.04604599780082361,-0.19112474875391341]",100.0,"[0.14359471509655755,-0.048217333452771384]",4.0,"[-0.11642199973922554,0.06300709206751719]",100.0,"[0.16661829480113055,0.04107806444856966]",4.0,"[-0.09179129791851569,0.018544520669593494]",4.0,"[-0.13766263783286564,-0.04907887931860842]",4.0,"[0.10424034179511266,-0.1646188627048964]",100.0,"[-0.14271806959306677,-0.11576257649391487]",100.0,"[-0.16975934601909456,-0.0221024741058679]",100.0,"[0.10063247506722693,0.020477994606815483]",100.0,"[0.03669666022365361,-0.06879672830441669]",100.0,"[0.01660700197458087,0.1379494966364543]",4.0,"[0.0038025764748507765,-0.11902102764451301]",4.0,"[0.14769497570295642,-0.09181637029800471]",4.0,"[-0.005314108125321596,0.19619388002460145]",100.0,"[-0.06960667981520928,0.09622866686526685]",100.0,"[-0.0708884182073657,-0.18205773367565564]",4.0,"[-0.02395134363375609,-0.07459586894303313]",4.0,"[-0.03927199617993439,0.050315811586539645]",100.0,"[0.17295362126848868,0.00038836167654463855]",4.0,"[0.003988649201577332,0.03279951280122341]",4.0,"[0.05792040444259357,-0.11241148046194158]",100.0,"[0.06977171956375369,0.12152540598010916]",4.0,"[-0.030181841383440655,0.13879977417551292]",100.0,"[0.07584317135973737,-0.04559821093967064]",100.0,"[0.1392154695244337,-0.1364371964202611]",100.0,"[0.02,0.02]",147.6751,0.0,30.0,30.0,106.0,1.0,,,,,,,
,,,,,,,60ba101202b7fd117c0f3b94,6844292d5ace92be5db7a103,2025-06-07_13h57.41.651,shape_ratio,2024.1.5,Win32,166.6666667,684250e4f00cb30b92d1fa88,,,,,,,,,,,147.6753,148.172,,,148.4207,148.8205,left,,,,,,,,0.55,0.3984,,,,,,,148.172,148.4207,148.8205,"[0.09817264359496668,-0.004020774363593855]",4.0,"[0.00777999763252387,-0.08007172945295254]",4.0,"[0.05890360241696633,0.06072482478461635]",100.0,"[0.017921523563197917,0.10752289542049316]",100.0,"[-0.13985368816278904,0.11336607365856287]",100.0,"[0.17039155187529456,-0.08294847906968209]",4.0,"[0.10526018802815555,0.07383159240538457]",4.0,"[-0.10556925921889895,-0.051508644158553156]",4.0,"[-0.07174914298552044,0.013892565369610744]",100.0,"[0.15461896274537773,0.07255884457403544]",4.0,"[-0.02322120027445479,0.045641277702771585]",4.0,"[0.01723542703258728,0.024777692133896436]",100.0,"[0.13778581641753956,0.12408869144227498]",4.0,"[0.0914153190568818,0.1698913164997745]",4.0,"[-0.03339595751426497,-0.022853341033615124]",100.0,"[0.1288846545742903,-0.07311204660427893]",4.0,"[0.03157249746031823,-0.03320393845204902]",100.0,"[-0.09019380902030996,-0.14542163681343112]",100.0,"[0.035219458447364016,0.19390567594486138]",4.0,"[-0.1706719264880262,0.05501658507940143]",100.0,"[-0.06124511029070921,-0.17432568371188017]",100.0,"[0.03519858749097375,-0.1411997620072208]",100.0,"[0.07569287478674218,-0.08424733642799118]",100.0,"[0.16799773894991638,-0.03355576491577973]",100.0,"[-0.00910420736978461,-0.13848819235910043]",100.0,"[-0.11378176037606515,-0.09131105286512302]",100.0,"[-0.08562399385196291,0.11788746147095323]",4.0,"[-0.1371316543978612,-0.0007641416842783201]",100.0,"[-0.13898205750638265,-0.13023200898037648]",4.0,"[-0.010971692388321911,0.18136818765806426]",4.0,"[-0.03163636201310913,-0.09601397466253785]",100.0,"[0.1243938666047803,0.02833980496370652]",100.0,"[0.02,0.02]",149.9173,0.0,31.0,31.0,77.0,1.0,,,,,,,
,,,,,,,60ba101202b7fd117c0f3b94,6844292d5ace92be5db7a103,2025-06-07_13h57.41.651,shape_ratio,2024.1.5,Win32,166.6666667,684250e4f00cb30b92d1fa88,,,,,,,,,,,149.9176,150.4144,,,150.6629,151.1235,left,,,,,,,,0.4,0.4547,,,,,,,150.4144,150.6629,151.1235,"[-0.1048801239517382,-0.11755217319290491]",4.0,"[-0.14725170128060783,-0.0897140364295435]",100.0,"[0.1306155391444257,0.057768004316528114]",4.0,"[-0.08505790192944895,-0.029123905237151543]",100.0,"[0.0359972751247319,-0.03809618662590015]",100.0,"[-0.18261403200471346,0.05277233206641888]",4.0,"[-0.07861572424211705,0.06119526340691376]",4.0,"[0.015734651560393713,0.011971001300406266]",100.0,"[-0.04056772102934004,0.1540162294874592]",4.0,"[-0.14250917102685237,0.10480618747850705]",4.0,"[-0.021130452369864904,0.08399861392709412]",4.0,"[0.17997199096368618,0.08685856420376999]",100.0,"[0.0491741584667857,0.05874646058657957]",100.0,"[0.1988798152229085,0.01739762826247458]",4.0,"[0.08043774934442438,-0.1245421137275991]",4.0,"[-0.1569972888103243,-0.031057136984391557]",100.0,"[0.17610694496683807,-0.07286235212576779]",4.0,"[-0.024020669800887996,-0.18212189014477684]",4.0,"[-0.03878500627721478,-0.03586817089054204]",4.0,"[0.11845519257367143,0.10901993708515595]",4.0,"[0.05087375958562255,-0.1829987213601156]",100.0,"[-0.06636980343556735,-0.08351645713906873]",100.0,"[0.024207293864341842,-0.10970883377591426]",4.0,"[0.07547815952390342,0.1548957054141896]",4.0,"[0.0999492906619758,-0.078558165644912]",4.0,"[-0.08164390647629234,0.016490623599540104]",4.0,"[-0.06794316414081494,-0.17439337905983524]",4.0,"[-0.0844671056115498,0.16208677566475185]",100.0,"[0.11241242560414255,-0.14962600173057125]",100.0,"[0.12368157636458918,-0.0030518125918113596]",4.0,"[0.1569199254063374,0.12103568019856048]",100.0,"[-0.13493745412848954,0.14466992914522475]",100.0,"[0.02,0.02]",152.2203,0.0,32.0,32.0,171.0,1.0,,,,,,,
,,,,,,,60ba101202b7fd117c0f3b94,6844292d5ace92be5db7a103,2025-06-07_13h57.41.651,shape_ratio,2024.1.5,Win32,166.6666667,684250e4f00cb30b92d1fa88,,,,,,,,,,,152.2206,152.7172,,,152.9661,153.3234,right,,,,,,,,0.1,0.3547,,,,,,,152.7173,152.9661,153.3235,"[0.02775775346396926,-0.16273559255108674]",100.0,"[0.042980699250741154,0.06643000882624046]",4.0,"[-0.056635350337805125,0.07868502101637093]",4.0,"[0.11406164740882917,-0.13997470115245844]",4.0,"[-0.04361163127969634,0.008498083807635554]",4.0,"[-0.016074168733249947,-0.1894130463932857]",4.0,"[0.15317534178848563,-0.09272829501016054]",4.0,"[-0.1356423154204674,-0.14611948235483985]",4.0,"[-0.10988375844002082,0.14742379197201527]",4.0,"[0.1811517196208993,0.012576392270467942]",100.0,"[-0.17659349158599863,0.04548971920109648]",4.0,"[-0.09185571653285773,-0.10981935688094725]",4.0,"[-0.09435768254323361,-0.15518947739210243]",4.0,"[-0.14311991884774528,0.004774908194358764]",4.0,"[0.044492051434073726,0.0146304855163512]",4.0,"[0.03837471955296508,0.14832574933736137]",4.0,"[-0.02438333988276404,0.1786415903967779]",4.0,"[-0.05779353675709739,-0.07164313660998918]",4.0,"[0.12036962879429644,-0.019841956591340627]",4.0,"[-0.1847128580972043,-0.035078644527453386]",4.0,"[0.15468294092188895,0.07496249969349905]",4.0,"[-0.0673757779040315,0.1751627302986537]",4.0,"[-0.11503642538364875,0.04621917185608134]",4.0,"[-0.15633189964869282,-0.08646864245672681]",4.0,"[-0.16189504999564033,0.11635539837863514]",4.0,"[0.018086600238410633,-0.04679683155380011]",4.0,"[0.11450104521484375,0.07252228549510446]",100.0,"[0.0038674062758177596,0.02570419426204972]",4.0,"[0.09665406919207901,0.1610923598453224]",4.0,"[0.019372783269116487,-0.10100840204408094]",4.0,"[0.11696465710615873,0.11538430197557689]",4.0,"[-0.11276366941166538,-0.053132348355234914]",4.0,"[0.02,0.02]",154.4203,0.0,33.0,33.0,209.0,1.0,,,,,,,
,,,,,,,60ba101202b7fd117c0f3b94,6844292d5ace92be5db7a103,2025-06-07_13h57.41.651,shape_ratio,2024.1.5,Win32,166.6666667,684250e4f00cb30b92d1fa88,,,,,,,,,,,154.4204,154.9172,,,155.166,155.5659,left,,,,,,,,0.55,0.3945,,,,,,,154.9173,155.166,155.5659,"[-0.07925540613272157,0.11715701479315875]",100.0,"[0.04234399003612386,0.18055094158551088]",4.0,"[0.1090324233444858,-0.033473799520779134]",100.0,"[-0.07729470321415734,0.06840171966551348]",100.0,"[0.12414255298127838,0.047529581083300285]",4.0,"[-0.12547941265133733,-0.013766045570486331]",100.0,"[0.1473624575707476,-0.01582333770693586]",4.0,"[-0.005879049962772838,0.11603172926782665]",100.0,"[0.008508995468091357,-0.11500281462622827]",4.0,"[-0.11233223454179798,0.03857051402012474]",4.0,"[0.113927592225917,-0.08554654068546279]",100.0,"[-0.022673788165299334,-0.1644454851263783]",4.0,"[0.07884572119095319,0.054205713984879125]",100.0,"[-0.1649489173369104,-0.036364279601257314]",100.0,"[0.10406174661591554,-0.15806761443131098]",4.0,"[-0.08384051904830536,-0.02355389799482327]",100.0,"[0.04006796224775347,-0.18577494752739016]",100.0,"[-0.13602866779210163,0.07450733233293261]",4.0,"[0.1510647376990774,-0.10694094916604678]",100.0,"[0.037627117414941486,-0.08531091676419122]",100.0,"[-0.11579316725643563,-0.1053150810998354]",100.0,"[0.029126535374833958,0.02893741719725566]",100.0,"[-0.07631586793121024,-0.16302929783358264]",100.0,"[0.1157620637704068,0.093771839468181]",4.0,"[-0.10416247411262602,0.15414963435727846]",4.0,"[0.16295454549050414,0.08756982319852818]",4.0,"[-0.1934687192429259,0.0489095769834091]",100.0,"[-0.003174072786335942,-0.02954966801757704]",100.0,"[-0.10847004909318918,-0.05968965857355209]",4.0,"[-0.05846293563112265,-0.08407993777857571]",4.0,"[0.1893359437685226,0.035733339917018964]",4.0,"[0.07711582291813955,0.12916236652770793]",100.0,"[0.02,0.02]",156.6626,0.0,34.0,34.0,76.0,1.0,,,,,,,
,,,,,,,60ba101202b7fd117c0f3b94,6844292d5ace92be5db7a103,2025-06-07_13h57.41.651,shape_ratio,2024.1.5,Win32,166.6666667,684250e4f00cb30b92d1fa88,,,,,,,,,,,156.6628,157.1596,,,157.4083,157.8081,left,,,,,,,,0.9,0.3957,,,,,,,157.1596,157.4082,157.8082,"[0.06472275137989533,-0.16293816404435396]",100.0,"[-0.0009295139370332094,0.12713584040820575]",100.0,"[-0.08001075105028156,-0.01135629427677264]",100.0,"[0.05112952457599245,0.0072411739021852285]",4.0,"[0.055719332177357694,0.16973938451832224]",100.0,"[-0.06935741662731804,-0.1635624334626462]",100.0,"[0.04970179465943718,0.08086740362887766]",100.0,"[0.027939562813780003,-0.19378611555297037]",100.0,"[-0.059050472321210704,0.10596988507062446]",100.0,"[0.1643885342073834,-0.03452622343858874]",4.0,"[0.13045819108673987,0.05455154472065584]",100.0,"[-0.02842592862176563,0.18964029881741043]",100.0,"[0.13104932581304005,0.1119438740365648]",100.0,"[0.0982342474694556,0.17224064092437952]",100.0,"[-0.12371708786256783,-0.003101321383990742]",100.0,"[-0.011116110566588863,0.046729299265298035]",100.0,"[-0.07077537568256492,-0.05457316240410142]",100.0,"[0.055352245310748116,-0.08616902698504243]",100.0,"[-0.003257397774285126,-0.13917774630460775]",100.0,"[0.09826681464455994,-0.057592919577197976]",100.0,"[-0.1827221621265575,-0.019480221090368715]",100.0,"[0.036674277351019594,-0.1280544897253861]",100.0,"[-0.11114795504789131,0.1072762415621276]",100.0,"[-0.0832652907770209,0.17347941596462185]",100.0,"[-0.08777103559637897,0.03911493890725789]",100.0,"[-0.12730233787927264,0.06325399441743722]",100.0,"[0.08912785648045835,0.025935736478523524]",100.0,"[0.15583989625247738,-0.09634827755514515]",100.0,"[0.013862612844751153,0.16549202475154065]",100.0,"[-0.026597540840653213,-0.06342376384281632]",100.0,"[0.09168986339213703,0.1292383688620347]",100.0,"[0.011306972973855849,-0.03998658701644099]",4.0,"[0.02,0.02]",158.905,0.0,35.0,35.0,20.0,1.0,,,,,,,
,,,,,,,60ba101202b7fd117c0f3b94,6844292d5ace92be5db7a103,2025-06-07_13h57.41.651,shape_ratio,2024.1.5,Win32,166.6666667,684250e4f00cb30b92d1fa88,,,,,,,,,,,158.9053,159.4019,,,159.6507,160.0808,left,,,,,,,,0.5,0.4242,,,,,,,159.402,159.6507,160.0808,"[-0.009205131573438238,-0.043413138063374976]",4.0,"[-0.150828738217703,-0.08790377338001946]",4.0,"[-0.12440745202574788,0.1015321397792388]",4.0,"[-0.04662957726329493,0.14931905207488855]",100.0,"[0.19389303156659426,-0.006906177360734493]",4.0,"[-0.12519908481555467,-0.15550605446218252]",4.0,"[-0.10471800261490322,-0.03621260111091212]",4.0,"[0.05908407381133972,-0.16683771392248006]",100.0,"[0.13155537685846866,-0.031419129568539074]",4.0,"[0.13189939208066664,-0.13805920351518322]",4.0,"[0.020065301607058217,0.04978454793375627]",4.0,"[0.16256209134850008,0.04423094007794408]",100.0,"[0.01620139932511851,0.1565041438967519]",100.0,"[0.10671301254772828,-0.0667314251361055]",4.0,"[-0.017881953613824626,-0.18881931256001136]",4.0,"[-0.0027443369598588296,0.01290687406781946]",100.0,"[0.05393896457441575,0.17858594678604597]",100.0,"[-0.146704177432419,0.019528150073076588]",100.0,"[0.018432308438379633,-0.13512240774243173]",4.0,"[-0.06731141264700226,-0.16828679583509124]",100.0,"[0.01893457969938079,0.09451691083953939]",100.0,"[0.04206247925134036,0.003259408132627846]",100.0,"[-0.043722722835739865,0.19482352088212773]",100.0,"[-0.0760145274687104,0.11022563765914524]",100.0,"[-0.07388818790648628,-0.07728501652871395]",100.0,"[0.12005317767385527,0.11521272886028726]",4.0,"[0.1692588092937137,-0.06802672414149824]",4.0,"[-0.08345473665659622,-0.12231351519853523]",100.0,"[0.003057791766143815,-0.0831986596719594]",100.0,"[0.0803867973000589,0.023948707976401636]",100.0,"[-0.16110692125987142,-0.021805769423151163]",4.0,"[-0.10814580744883003,0.05066530789636293]",4.0,"[0.02,0.02]",161.1776,0.0,36.0,36.0,107.0,1.0,,,,,,,
,,,,,,,60ba101202b7fd117c0f3b94,6844292d5ace92be5db7a103,2025-06-07_13h57.41.651,shape_ratio,2024.1.5,Win32,166.6666667,684250e4f00cb30b92d1fa88,,,,,,,,,,,161.1779,161.6746,,,161.9233,162.2928,left,,,,,,,,0.55,0.3635,,,,,,,161.6746,161.9233,162.2928,"[-0.10343600271793718,-0.03386717869934138]",4.0,"[-0.1454635592277095,-0.08686137315364145]",4.0,"[0.10742443308749,0.09670472463794134]",4.0,"[0.057059107225007906,-0.03170814276727814]",4.0,"[0.06756493816468226,0.14337144732875748]",4.0,"[0.012243895029391218,-0.05740935807518416]",100.0,"[0.19454663398866429,-0.01683060934830815]",100.0,"[0.08867568745870712,-0.09262747011218947]",4.0,"[-0.015098393462646452,-0.014897895058884574]",100.0,"[-0.12548760659251196,0.07352162228734031]",100.0,"[-0.07100842586273792,-0.13222579134956294]",100.0,"[0.0721750553470209,0.06660677113500701]",100.0,"[-0.03927544694852602,-0.18385535477444367]",4.0,"[-0.0037312741444561932,-0.14912485279512258]",100.0,"[0.14004296538731836,-0.04399451882541528]",100.0,"[-0.03840505366855823,0.1443315586000306]",4.0,"[0.03808058383159276,-0.18971855251076877]",100.0,"[-0.167006348823573,-0.028231410108677198]",100.0,"[-0.05405621878627115,-0.0002356094233990982]",100.0,"[-0.012781222251013889,0.18725729459221915]",4.0,"[0.04242479354139256,0.10917772777708945]",4.0,"[0.04790398903962704,-0.1461125296822676]",4.0,"[0.09608743292917292,0.17400321803975455]",4.0,"[0.1552549036030442,0.06579663160028533]",100.0,"[0.1819124125194848,0.02130811422430794]",4.0,"[-0.03394931093330628,-0.06924384230946466]",100.0,"[-0.08519807459967502,-0.09409480774941215]",100.0,"[0.00788694113531326,0.04360740727503381]",100.0,"[0.11447102104205462,0.00946811529758783]",100.0,"[0.048069869170637755,0.01058782380011987]",100.0,"[0.18982685737013213,-0.05983198282783055]",4.0,"[-0.15006530722858005,0.01937263985758995]",100.0,"[0.02,0.02]",163.3897,0.0,37.0,37.0,73.0,1.0,,,,,,,
,,,,,,,60ba101202b7fd117c0f3b94,6844292d5ace92be5db7a103,2025-06-07_13h57.41.651,shape_ratio,2024.1.5,Win32,166.6666667,684250e4f00cb30b92d1fa88,,,,,,,,,,,163.39,163.8866,,,164.1353,164.5352,left,,,,,,,,0.55,0.3965,,,,,,,163.8866,164.1353,164.5352,"[0.10740911603740863,0.10607357778994858]",4.0,"[0.07695794008732285,0.022868378436940937]",100.0,"[-0.011305305503476163,-0.14009762931408679]",100.0,"[-0.0551042440657691,-0.01855729712070684]",100.0,"[0.0469758592929816,0.11240068220810422]",100.0,"[-0.0559453996125169,-0.16255207348463688]",4.0,"[-0.18513191084672317,-0.04933273268038998]",100.0,"[-0.04480789746909292,-0.07976139995590238]",100.0,"[0.03941549703104549,-0.05285553237831438]",4.0,"[0.04981924954662705,0.059607095777606284]",100.0,"[-0.12928456705688054,-0.017673738167337593]",4.0,"[-0.008310528356402632,0.08668380790972591]",4.0,"[-0.03317344865367516,0.15922202382482475]",4.0,"[-0.15702699878976978,0.03660882867770343]",100.0,"[0.12986480827563443,0.00684377433415384]",4.0,"[-0.05691507529730891,0.09988948846644517]",4.0,"[-0.003193501058544943,-0.0007789166895452142]",100.0,"[-0.06514383898644872,0.036196388657399325]",4.0,"[0.010308835005833957,0.1319295521137728]",4.0,"[-0.15056082465655696,0.12728501095474273]",100.0,"[0.1494499755229516,-0.10415505851472771]",100.0,"[0.07362757287409599,-0.0941135675777836]",100.0,"[-0.15646991917537867,-0.09781987383172264]",4.0,"[-0.16066236787252058,0.08144085018849852]",100.0,"[0.028693707315122923,-0.12717551581838013]",100.0,"[0.09889472918269328,-0.04427389160251322]",100.0,"[0.10767483264063803,0.053828243173232676]",100.0,"[0.1806382672027687,0.048079718313182036]",4.0,"[0.11455392105555197,-0.12994644976916025]",100.0,"[0.1898366742290313,-0.0470878171029252]",100.0,"[0.008523321606254212,0.17810727462871973]",4.0,"[-0.11614508590137998,-0.09970431081629366]",4.0,"[0.02,0.02]",165.632,0.0,38.0,38.0,62.0,1.0,,,,,,,
,,,,,,,60ba101202b7fd117c0f3b94,6844292d5ace92be5db7a103,2025-06-07_13h57.41.651,shape_ratio,2024.1.5,Win32,166.6666667,684250e4f00cb30b92d1fa88,,,,,,,,,,,165.6323,166.129,,,166.3777,166.7896,left,,,,,,,,0.5,0.4083,,,,,,,166.129,166.3777,166.7897,"[-0.16137592392738428,0.09463765606726973]",100.0,"[0.03996146635241139,0.14413328215516688]",100.0,"[0.15327231659629717,0.031094212579244745]",4.0,"[0.16483074452880742,-0.037427087704804414]",100.0,"[-0.052789161764956606,0.00839272865040663]",100.0,"[0.13444826013532307,0.12117611140365674]",4.0,"[-0.043420524449868984,0.15023136499442985]",100.0,"[-0.0749633944553834,-0.14297803291445305]",100.0,"[0.008635891659213546,0.18159881168635725]",100.0,"[-0.004290435692813795,-0.1403967761463385]",4.0,"[-0.1937350302203314,-0.009940054724180287]",100.0,"[0.034707655394931536,0.005228598717432816]",100.0,"[-0.01425513797434614,0.04741192770121046]",4.0,"[0.058801015325984876,-0.10483786946440288]",100.0,"[0.06427914581839479,-0.1792371239038988]",4.0,"[-0.14217390889978304,-0.11999514424301573]",4.0,"[0.11144149544948512,-0.07417474074557519]",100.0,"[-0.059677260704498795,0.051447198432796895]",4.0,"[-0.168660016155715,-0.04897243153164829]",100.0,"[0.08005858552014067,-0.13942047260989468]",100.0,"[-0.12710121380421616,-0.06362192533686921]",4.0,"[0.12123300331454852,0.07436724548412768]",4.0,"[0.04953392977812051,-0.046598006916984964]",100.0,"[-0.0654034672454152,0.10518198105584922]",100.0,"[-0.08297602592139844,-0.018546664363254545]",4.0,"[0.06232997852571443,0.0918199838042799]",100.0,"[-0.0899117363653037,0.1762723806371845]",4.0,"[0.07970111506484362,-0.007295032714883533]",4.0,"[-0.10100184267760204,0.02662055412749522]",4.0,"[-0.05100791120174335,-0.09925482874381324]",4.0,"[0.01661142195546016,0.11161904233491701]",4.0,"[0.03644133012339743,0.048710291875249744]",4.0,"[0.02,0.02]",167.8865,0.0,39.0,39.0,92.0,1.0,,,,,,,
,,,,,,,60ba101202b7fd117c0f3b94,6844292d5ace92be5db7a103,2025-06-07_13h57.41.651,shape_ratio,2024.1.5,Win32,166.6666667,684250e4f00cb30b92d1fa88,,,,,,,,,,,167.8867,168.3834,,,168.6323,169.1109,left,,,,,,,,0.9,0.4736,,,,,,,168.3835,168.6323,169.1109,"[0.10466128764058244,0.10350679845205808]",100.0,"[0.14071582164638702,0.07934095804318884]",100.0,"[0.13379067700963646,-0.0073092800264304494]",100.0,"[0.06333200740827616,0.060950566224418606]",100.0,"[0.1086182622067359,-0.09806294847504488]",100.0,"[-0.03328628102576706,0.12818776138140187]",100.0,"[-0.1370288219556762,0.11791022640863189]",100.0,"[0.0263711751991984,0.08555898088164368]",100.0,"[-0.16008944496027364,-0.08609470153150191]",100.0,"[-0.0854342859869628,-0.0283207369128297]",4.0,"[0.03993388029624164,0.13603056444406134]",4.0,"[-0.18027108989410331,-0.004761727475979958]",100.0,"[-0.057012769771071455,-0.08223946597947314]",100.0,"[-0.01014880858449711,-0.14115254258580098]",100.0,"[-0.1029863463153844,-0.14968317575939696]",100.0,"[-0.06988305136451911,0.14695811126557068]",100.0,"[-0.12866040778192395,-0.010181078732978868]",100.0,"[-0.06463384127005854,-0.1796077218407799]",100.0,"[0.0429300105724194,0.18866250022028452]",100.0,"[0.05778996988636936,-0.05392312235157386]",100.0,"[0.048079934344871234,-0.1351299603201284]",4.0,"[0.08474802119472415,0.154639543936547]",100.0,"[0.05803110077590168,-0.012517442380546204]",100.0,"[-0.13279262989586968,0.07165816213386272]",100.0,"[0.1298618644360579,-0.0625441718501848]",100.0,"[-0.0022484145256664555,0.03719583146597616]",100.0,"[0.15634001974616363,0.12432118124924789]",100.0,"[0.11044351344796416,-0.14190997699960006]",100.0,"[-0.028076225940461046,-0.0076101208826508645]",100.0,"[-0.03297173283057196,0.08509708137210227]",100.0,"[0.18210496258698824,-0.037399669079165615]",100.0,"[0.011556382643588096,-0.03602375318111726]",100.0,"[0.02,0.02]",170.2079,0.0,40.0,40.0,2.0,1.0,,,,,,,
,,,,,,,60ba101202b7fd117c0f3b94,6844292d5ace92be5db7a103,2025-06-07_13h57.41.651,shape_ratio,2024.1.5,Win32,166.6666667,684250e4f00cb30b92d1fa88,,,,,,,,,,,170.2082,170.7046,,,170.9534,171.2986,left,,,,,,,,0.9,0.3397,,,,,,,170.7047,170.9533,171.2986,"[0.07345132489697903,0.16573048167646623]",100.0,"[-0.0359841656068193,0.08134827031747799]",4.0,"[-0.07504102193352372,-0.18525916768800788]",100.0,"[0.03984120394574281,-0.1655724713546454]",100.0,"[0.007470334989627997,-0.12627734315077363]",100.0,"[-0.01011457281966591,0.1243869617369265]",100.0,"[-0.10259159301005286,0.06307125992793339]",100.0,"[0.09265171550178061,-0.15539865465043803]",100.0,"[-0.14627418075521686,-0.08855633254250356]",100.0,"[-0.1487694224147143,-0.002933183987188029]",100.0,"[-0.08066554645446715,0.013955612467067217]",4.0,"[-0.09075231938468997,0.13653802016283412]",100.0,"[-0.039477812334381635,-0.14509826782695687]",100.0,"[-0.09999571540411212,-0.07709071741976596]",100.0,"[0.1489617868387454,-0.03144547047153947]",100.0,"[0.0704027953726657,0.08522466050245321]",4.0,"[0.15182932522871054,0.12410896383453564]",100.0,"[-0.05582492729759179,-0.053658352088842065]",100.0,"[0.060180495537185824,0.015068555124061314]",100.0,"[-0.036806511220987034,0.1702362954512569]",100.0,"[0.11401077264492981,0.09614048504209494]",100.0,"[0.021814904566997893,-0.08282906292797679]",100.0,"[0.006950490792623412,0.17236924827146324]",100.0,"[0.10571632452994265,-0.04978046295178151]",100.0,"[0.1699524736690607,0.07041698755847114]",100.0,"[0.17579402633217295,-0.07788084692644694]",100.0,"[0.11691145609208538,-0.10333719616064409]",100.0,"[0.05156506435297649,-0.029450237543196926]",100.0,"[0.06555657928246089,-0.11833882357512572]",100.0,"[0.13773818593594628,0.026641571826720282]",100.0,"[0.10083376398377843,0.0038122353727035262]",100.0,"[-0.11901255620719964,0.10600046101221702]",100.0,"[0.02,0.02]",172.3955,0.0,41.0,41.0,26.0,1.0,,,,,,,
,,,,,,,60ba101202b7fd117c0f3b94,6844292d5ace92be5db7a103,2025-06-07_13h57.41.651,shape_ratio,2024.1.5,Win32,166.6666667,684250e4f00cb30b92d1fa88,,,,,,,,,,,172.3958,172.8925,,,173.1413,173.4985,left,,,,,,,,0.9,0.3533,,,,,,,172.8925,173.1413,173.4985,"[-0.12098813352535921,0.034650013738118636]",100.0,"[-0.1153723864663175,0.10630929243148392]",100.0,"[-0.018892472993835344,-0.1484337694304187]",100.0,"[-0.039311940625092294,-0.10052793411761386]",100.0,"[0.06982923155317751,0.0688040769839536]",100.0,"[0.12184960992139583,-0.11793514271843179]",100.0,"[0.020446406882141093,0.061661924832341335]",100.0,"[0.06888066419219598,0.14900099256957489]",100.0,"[0.135077051869119,-0.02035851301099152]",100.0,"[-0.07234465684245674,-0.15625001764199908]",100.0,"[-0.028170541035108247,0.16460106468535668]",100.0,"[-0.17669454570585463,0.02135222715794122]",100.0,"[0.07117333064666093,0.02762895706688485]",100.0,"[0.09165072178877474,-0.07415190812356838]",100.0,"[0.0012569364596181647,0.11812742707784324]",100.0,"[0.006919489614371404,0.0008236092635650268]",100.0,"[0.12753419556149656,0.07416704188073613]",100.0,"[-0.06870821626532174,-0.037713107130566394]",100.0,"[-0.11783161922145215,-0.04858028285433033]",4.0,"[0.1798930779549291,0.05608807391935329]",100.0,"[0.034144014412893525,-0.19006217039741555]",4.0,"[0.08829207748534158,-0.1522405968545905]",100.0,"[-0.17543805796448597,-0.07871721226335707]",100.0,"[-0.0676492064619533,0.08740156321600613]",100.0,"[0.040621903044211406,0.1857805435190341]",100.0,"[0.028984892242191772,-0.07687800551145942]",100.0,"[0.08940139490944911,0.11187146229412939]",100.0,"[0.028455863850096814,-0.1391208168941836]",100.0,"[-0.09894474776889671,-0.1182894715824142]",100.0,"[-0.03138917266901851,0.0299481517417321]",4.0,"[0.12928952001505067,0.02726847131904381]",100.0,"[-0.08176918090967508,0.049231034922014624]",100.0,"[0.02,0.02]",174.5954,0.0,42.0,42.0,21.0,1.0,,,,,,,
,,,,,,,60ba101202b7fd117c0f3b94,6844292d5ace92be5db7a103,2025-06-07_13h57.41.651,shape_ratio,2024.1.5,Win32,166.6666667,684250e4f00cb30b92d1fa88,,,,,,,,,,,174.5957,175.0924,,,175.341,175.7106,left,,,,,,,,0.6,0.365,,,,,,,175.0924,175.341,175.7106,"[-0.14893110819208508,-0.11360896511513228]",4.0,"[-0.06194157380811715,0.030259479064558194]",100.0,"[0.08311758216118313,-0.17306572639619192]",100.0,"[-0.07627010126258045,-0.03133029822266596]",4.0,"[-0.019979469068676994,0.05046951960888683]",100.0,"[0.19359264122669703,0.0038392746042723146]",4.0,"[0.10002172049921587,0.07421815333322729]",100.0,"[-0.017998145568675697,-0.04087481257641296]",100.0,"[0.1610371457188786,-0.06110175045110296]",100.0,"[0.002100536472959012,0.14853827724594734]",100.0,"[-0.04876366649382768,-0.16594943950484115]",4.0,"[-0.06096515872674053,0.18116702838712592]",100.0,"[0.13907729057240473,-0.12462488629107978]",4.0,"[0.016285293900814124,0.08513598604032377]",100.0,"[0.032801518761297374,-0.07542904654028773]",4.0,"[-0.1742304056230387,-0.056532866630149836]",4.0,"[0.07350636212000744,0.027165505228073653]",4.0,"[-0.08315374382240945,-0.0837892556122553]",4.0,"[-0.1508503612855018,0.13129212914863178]",100.0,"[-0.11512898500831285,-0.13501695797675708]",100.0,"[-0.15667147104615503,0.0916981549535382]",100.0,"[0.10399485567633117,-0.02983538654588504]",100.0,"[0.10267400523645742,0.1365661035090321]",100.0,"[0.11830304687084238,0.023530132567385557]",100.0,"[0.05660889531883749,-0.03879239909588423]",4.0,"[-0.04516737636093324,-0.12485397372750313]",4.0,"[0.031452121740593635,-0.15084028582603048]",100.0,"[-0.15606240977920635,0.0063810934487257]",100.0,"[-0.012282773680089907,0.18994647012282923]",4.0,"[0.1523032699973938,-0.02020321637782792]",100.0,"[0.015233408344138897,-0.013472506118204103]",100.0,"[-0.11562914206094263,0.08292631840543581]",4.0,"[0.02,0.02]",176.8075,0.0,43.0,43.0,31.0,1.0,,,,,,,
,,,,,,,60ba101202b7fd117c0f3b94,6844292d5ace92be5db7a103,2025-06-07_13h57.41.651,shape_ratio,2024.1.5,Win32,166.6666667,684250e4f00cb30b92d1fa88,,,,,,,,,,,176.8077,177.3045,,,177.5531,178.1045,right,,,,,,,,0.5,0.548,,,,,,,177.3045,177.5531,178.1045,"[0.09647484835140294,-0.02054686721946009]",100.0,"[-0.1139226232837943,-0.10310060953973946]",100.0,"[0.10319410010943768,-0.16041194993048388]",100.0,"[-0.04187715376696528,-0.05487388123894259]",100.0,"[0.19232494605859402,0.04499711719612299]",4.0,"[0.15144639232974497,-0.009656498947068723]",100.0,"[0.019102069182077443,-0.1713179681216328]",4.0,"[0.11392447906514627,-0.08961294621167776]",4.0,"[0.1733471622200257,-0.0820967768961518]",100.0,"[0.054999811829479446,-0.03110663432882243]",4.0,"[0.138766293105747,-0.13144047998287817]",4.0,"[0.04812680065242746,-0.09214028459860642]",100.0,"[-0.051830754125734596,0.11629411709217778]",100.0,"[0.09396568644819624,0.16659011311064173]",4.0,"[0.0978753380293718,0.0814813617928437]",100.0,"[-0.02636905606855497,0.013417729490245306]",100.0,"[0.15229238351713187,0.03521774671162162]",4.0,"[0.010795718032604044,0.1911337608962248]",4.0,"[0.018897754665798124,-0.005655148221332438]",4.0,"[-0.17525540638864917,-0.02837357307432515]",4.0,"[0.09614150088783319,0.02408423539560209]",100.0,"[-0.031001179489924018,-0.12339804647339497]",100.0,"[0.030713343968062932,0.053460596008892206]",4.0,"[0.15070366024117754,0.12342651779631267]",4.0,"[-0.0784249597539792,0.14740424581614217]",100.0,"[-0.122784386646061,0.11909100105017725]",4.0,"[-0.13267178385345635,-0.14474392661539626]",100.0,"[-0.06818660920368702,-0.16136499641286145]",100.0,"[-0.09487202888105653,0.08424183462442987]",4.0,"[0.051685673941026355,0.18957835761417519]",4.0,"[0.14806022928438145,0.08014019897816384]",4.0,"[-0.10084921348957476,0.007431179287801786]",100.0,"[0.02,0.02]",179.2014,0.0,44.0,44.0,103.0,1.0,,,,,,,
,,,,,,,60ba101202b7fd117c0f3b94,6844292d5ace92be5db7a103,2025-06-07_13h57.41.651,shape_ratio,2024.1.5,Win32,166.6666667,684250e4f00cb30b92d1fa88,,,,,,,,,,,179.2016,179.6983,,,179.9469,180.3893,right,,,,,,,,0.4,0.4409,,,,,,,179.6983,179.9469,180.3893,"[0.08806616044022667,-0.062054019144726115]",4.0,"[0.14976670456078575,-0.06791854485444679]",100.0,"[-0.11113004058552751,0.09451805840276624]",4.0,"[-0.1362916885933874,0.016181310439894632]",4.0,"[-0.026587979929561488,0.09260993020379882]",4.0,"[-0.061044439874981996,-0.17859605974982995]",100.0,"[-0.04219017850967024,-0.10136362913707953]",100.0,"[0.029719413832817256,0.041207833381231636]",4.0,"[0.08553741004017926,0.04567930020596247]",4.0,"[0.13219240987546332,-0.014181605776936959]",100.0,"[-0.025057962232694544,-0.05411359755144149]",4.0,"[0.038729185584891725,-0.19019960005814676]",100.0,"[0.05468279652999324,0.14808127827398934]",100.0,"[0.12715668018718418,0.12834776880860174]",4.0,"[-0.14528195314415565,0.12936383435786]",100.0,"[0.03060134104867062,-0.04245673601682713]",100.0,"[0.12715412515695784,0.04575304254444372]",4.0,"[0.015213729666949087,-0.14259525980691895]",4.0,"[0.16297486678593937,0.07587959239474337]",100.0,"[-0.10358822066628946,0.15930095467721755]",4.0,"[0.19000302072430492,-0.046943249768650185]",4.0,"[-0.13265394593102686,-0.0663702660664711]",4.0,"[-0.16386282404131977,-0.012820312847489291]",4.0,"[-0.021301771019280873,0.19385235907996928]",100.0,"[-0.15150912897259025,0.08684964718349608]",4.0,"[-0.17360577550774053,0.04289266708854728]",4.0,"[-0.054302902206283844,0.13648958751859516]",100.0,"[0.08959655131104005,-0.1547691996149965]",4.0,"[0.06529333646846872,-0.12103051076899839]",4.0,"[0.02189527153246372,0.09692696152606961]",100.0,"[-0.10067530901990521,-0.1474557950737737]",100.0,"[-0.18432568216445078,-0.06441766499177728]",4.0,"[0.02,0.02]",181.4861,0.0,45.0,45.0,157.0,1.0,,,,,,,
,,,,,,,60ba101202b7fd117c0f3b94,6844292d5ace92be5db7a103,2025-06-07_13h57.41.651,shape_ratio,2024.1.5,Win32,166.6666667,684250e4f00cb30b92d1fa88,,,,,,,,,,,181.4863,181.9832,,,182.2318,182.8619,right,,,,,,,,0.55,0.6282,,,,,,,181.9832,182.2317,182.8619,"[-0.03989990206522542,0.08537239023103634]",4.0,"[-0.19476142684925724,-0.002258620808326735]",100.0,"[0.049235918676765765,0.0598551894887286]",100.0,"[0.13433878649924574,0.09570313553771057]",4.0,"[-0.07085809109224939,-0.10482083283839455]",100.0,"[0.10900141070793513,0.058173781356760934]",4.0,"[0.007007153716193928,0.08344427106989678]",4.0,"[-0.0575109416531449,0.16724009971663828]",4.0,"[0.03698985408329545,0.156103759318115]",100.0,"[-0.1556852605849995,-0.06508203859128973]",100.0,"[0.03266989654102037,-0.17466503846513884]",4.0,"[0.14385701622936792,-0.012980713904174518]",4.0,"[-0.08529602481128132,-0.003936583154336961]",100.0,"[0.06756768673806783,-0.022636471746961154]",100.0,"[0.07883496554278857,0.1638725156522644]",100.0,"[0.005578556897693168,-0.12643818233443732]",100.0,"[-0.1435361355827879,0.06893020532809971]",100.0,"[-0.11933598276149604,-0.12823146745922018]",100.0,"[-0.09789656821948967,0.1237680962637176]",4.0,"[0.011447874003665983,0.026990103566542915]",4.0,"[0.19451067047816437,0.015541907332512525]",100.0,"[-0.03890953613854924,-0.033883415229616055]",100.0,"[0.08902705725350238,-0.06751727124411698]",4.0,"[-0.11157231399895177,-0.0866194185144201]",100.0,"[0.06774645840403977,0.12202171601762743]",100.0,"[-0.05968029622324386,0.039185523148280055]",100.0,"[-0.10280218939727542,-0.1709936736567612]",100.0,"[0.07342259785593387,-0.11215290161884117]",4.0,"[0.14260650456590826,-0.08938667911442011]",4.0,"[0.1323865812974662,-0.14920943382834803]",4.0,"[-0.06272071373258802,-0.17180777192430266]",100.0,"[0.03572703534429832,-0.08959158361278864]",4.0,"[0.02,0.02]",183.9588,0.0,46.0,46.0,80.0,1.0,,,,,,,
,,,,,,,60ba101202b7fd117c0f3b94,6844292d5ace92be5db7a103,2025-06-07_13h57.41.651,shape_ratio,2024.1.5,Win32,166.6666667,684250e4f00cb30b92d1fa88,,,,,,,,,,,183.959,184.4558,,,184.7047,185.3165,right,,,,,,,,0.5,0.6102,,,,,,,184.4558,184.7047,185.3165,"[-0.009623341962202917,0.13306644528640457]",100.0,"[0.04714584353481143,-0.08405402976518732]",4.0,"[0.0315563370150298,0.1743398784521216]",100.0,"[0.10998847998921478,-0.05671517043783116]",4.0,"[-0.04936720978783224,0.018330421427906477]",4.0,"[0.13776616316354615,0.07443853252639851]",4.0,"[0.010600109903751223,-0.131380194940227]",4.0,"[-0.160400603719872,0.05680402398795576]",4.0,"[-0.09106881516238222,0.0003774712324929234]",100.0,"[-0.10249540220621521,0.13687394530955]",4.0,"[0.08820977338766141,0.05687674751227121]",100.0,"[-0.17283461304453077,-0.09022032249068437]",100.0,"[-0.14353233651354616,-0.011410020010929913]",4.0,"[0.1005457221882221,0.13666084739379838]",100.0,"[0.16233192301509364,-0.029753141981757852]",100.0,"[0.015318348919985183,-0.05879722046870093]",100.0,"[0.13145429027553124,-0.14006371244156682]",100.0,"[-0.19450463038008364,0.01346458747870987]",100.0,"[-0.07549789755701111,-0.14574487368322958]",4.0,"[0.015879181165016593,0.031399886959688324]",100.0,"[-0.0813502106753294,0.17278731855773358]",4.0,"[-0.10841590360130295,-0.08684141610316616]",100.0,"[0.08761966358536989,-0.019842333505577816]",100.0,"[0.08789611320033788,-0.1789049027855903]",4.0,"[0.05939474205126994,-0.13435012209248706]",100.0,"[0.1632789117311451,-0.08786147689674186]",4.0,"[-0.09442309532188868,-0.045883385405786334]",4.0,"[0.06620177310180261,0.11498732510902498]",100.0,"[0.026598615274582356,0.0915202838458543]",4.0,"[-0.14743481012279686,0.11541618125309151]",4.0,"[-0.06507219695084038,0.07477021031362982]",100.0,"[-0.15332156551775591,-0.12760351388570093]",4.0,"[0.02,0.02]",186.4132,0.0,47.0,47.0,91.0,1.0,,,,,,,
,,,,,,,60ba101202b7fd117c0f3b94,6844292d5ace92be5db7a103,2025-06-07_13h57.41.651,shape_ratio,2024.1.5,Win32,166.6666667,684250e4f00cb30b92d1fa88,,,,,,,,,,,186.4135,186.9102,,,187.1589,187.583,left,,,,,,,,0.9,0.4179,,,,,,,186.9103,187.1589,187.583,"[-0.05479008451974342,-0.12725707880548767]",100.0,"[-0.01963239958773471,-0.0630267658505221]",100.0,"[-0.12375185262761461,-0.04732178598667553]",100.0,"[-0.02805176478449079,0.13012004289029885]",100.0,"[0.07601703424648992,-0.12985950891262862]",100.0,"[0.1711684835136778,0.024659681004868463]",100.0,"[0.015861956543509033,0.153274735140192]",4.0,"[0.1517908481131309,-0.06738189628903467]",100.0,"[0.16842788476950102,-0.024065787236204787]",100.0,"[-0.11069587817690597,-0.1659608896536502]",100.0,"[0.08384473557588447,0.17342458490117896]",100.0,"[0.08250825635956173,0.06536873602869805]",100.0,"[-0.038298883975852314,-0.006947380093840837]",100.0,"[0.012883118483583703,-0.0027957125695888714]",100.0,"[-0.07052114673001982,0.08266007036407944]",100.0,"[-0.16067856821088372,0.09291075280920155]",100.0,"[-0.14115523008325193,0.007535097028709633]",100.0,"[-0.11259631762946612,0.11236619108485896]",100.0,"[0.041396400999632675,-0.04057319610589325]",100.0,"[0.12633582059298232,-0.15024015061141974]",4.0,"[0.15256717333902964,0.10006957771308235]",100.0,"[0.015991384642982498,-0.11125653383883981]",100.0,"[0.03420281784411159,-0.19608493130951096]",100.0,"[-0.19499476417856787,-0.018422344930151657]",100.0,"[-0.08500010704115521,-0.01880685277862856]",100.0,"[-0.005847660226616879,-0.15575385319516685]",100.0,"[-0.16882801557519136,-0.09428631585734708]",100.0,"[0.06682566917333127,0.0022113402020980176]",100.0,"[-0.026949799590151296,0.18999690395983496]",100.0,"[0.10473977252712634,-0.08114779779288496]",100.0,"[-0.11780345048156093,0.044521211005119375]",4.0,"[-0.003969891008080088,0.0805829085503]",100.0,"[0.02,0.02]",188.6798,0.0,48.0,48.0,24.0,1.0,,,,,,,
,,,,,,,60ba101202b7fd117c0f3b94,6844292d5ace92be5db7a103,2025-06-07_13h57.41.651,shape_ratio,2024.1.5,Win32,166.6666667,684250e4f00cb30b92d1fa88,,,,,,,,,,,188.6801,189.1768,,,189.4254,190.1467,right,,,,,,,,0.1,0.7177,,,,,,,189.1768,189.4254,190.1467,"[-0.01888134946666051,-0.17747842085222598]",4.0,"[0.10004628503279372,-0.010130019433020608]",4.0,"[-0.05513839514379705,-0.02861457702756175]",4.0,"[-0.17942403541108373,-0.054983495977473144]",4.0,"[0.12848195441560897,-0.12762682677879952]",4.0,"[-0.03341374820087363,-0.07205984392427106]",4.0,"[0.011680890164772457,-0.12984114965807397]",4.0,"[-0.13323331725642182,0.045255738747987176]",4.0,"[0.05356539499827906,0.09305902027292143]",4.0,"[0.13579193090940392,0.04746336240406863]",4.0,"[-0.028479066864820293,0.19067776507252102]",4.0,"[0.022579838405630832,-0.026201152440798948]",4.0,"[-0.13654683301241044,-0.13142823307044987]",4.0,"[0.08223273263482796,0.17692351751653482]",100.0,"[-0.08377058599262432,0.11627896164760557]",4.0,"[0.03491092333237541,0.13962195916010522]",4.0,"[0.00018694420650277257,0.03003071698061214]",4.0,"[0.1028432933193495,-0.08159321524195362]",4.0,"[-0.023162527193036873,0.13354484571276823]",4.0,"[-0.08276905033467409,-0.1566491753323069]",4.0,"[-0.13992796339297336,-0.09069005886536967]",4.0,"[-0.117339319008921,0.15142119611792468]",4.0,"[-0.16240432588190445,0.10035441852374122]",4.0,"[0.17133704569574565,-0.09495235250767808]",4.0,"[-0.03072941477314526,0.003214268560527191]",100.0,"[-0.19320175275462861,0.034440409642133595]",4.0,"[0.17943515770628676,0.003349121054430004]",4.0,"[0.026494788515089605,0.1952626004496111]",4.0,"[-0.11219467612063103,0.0799606181675987]",4.0,"[0.0697278441482617,-0.10434161247758582]",100.0,"[0.012255278273284008,0.08179516559326999]",4.0,"[-0.09834471274100191,-0.10068961586305197]",4.0,"[0.02,0.02]",191.2434,0.0,49.0,49.0,203.0,1.0,,,,,,,
