right,left,explain.started,explain.stopped,key_resp_3.keys,key_resp_3.rt,key_resp_3.duration,participant,session,date,expName,psychopyVersion,OS,frameRate,study_id,explain_2.started,explain_2.stopped,key_resp_4.keys,key_resp_4.rt,key_resp_4.duration,explain_3.started,explain_3.stopped,key_resp_5.keys,key_resp_5.rt,key_resp_5.duration,fixation.started,fixation.stopped,practice.started,practice.stopped,response.started,response.stopped,key_resp.keys,key_resp.rt,key_resp.duration,feedback.started,feedback.stopped,trials_2.thisRepN,trials_2.thisTrialN,trials_2.thisN,trials_2.thisIndex,trials_2.ran,dot_ratio,explain_4.started,explain_4.stopped,key_resp_6.keys,key_resp_6.rt,key_resp_6.duration,dotDisplay.started,dotDisplay.stopped,ITI.started,polygon_1.pos,polygon_1.edges,polygon_2.pos,polygon_2.edges,polygon_3.pos,polygon_3.edges,polygon_4.pos,polygon_4.edges,polygon_5.pos,polygon_5.edges,polygon_6.pos,polygon_6.edges,polygon_7.pos,polygon_7.edges,polygon_8.pos,polygon_8.edges,polygon_9.pos,polygon_9.edges,polygon_10.pos,polygon_10.edges,polygon_11.pos,polygon_11.edges,polygon_12.pos,polygon_12.edges,polygon_13.pos,polygon_13.edges,polygon_14.pos,polygon_14.edges,polygon_15.pos,polygon_15.edges,polygon_16.pos,polygon_16.edges,polygon_17.pos,polygon_17.edges,polygon_18.pos,polygon_18.edges,polygon_19.pos,polygon_19.edges,polygon_20.pos,polygon_20.edges,polygon_21.pos,polygon_21.edges,polygon_22.pos,polygon_22.edges,polygon_23.pos,polygon_23.edges,polygon_24.pos,polygon_24.edges,polygon_25.pos,polygon_25.edges,polygon_26.pos,polygon_26.edges,polygon_27.pos,polygon_27.edges,polygon_28.pos,polygon_28.edges,polygon_29.pos,polygon_29.edges,polygon_30.pos,polygon_30.edges,polygon_31.pos,polygon_31.edges,polygon_32.pos,polygon_32.edges,dot_size,ITI.stopped,trials.thisRepN,trials.thisTrialN,trials.thisN,trials.thisIndex,trials.ran,break_2.started,break_2.stopped,trials_3.thisRepN,trials_3.thisTrialN,trials_3.thisN,trials_3.thisIndex,trials_3.ran
subject chose diamond,subject chose dot,0.0002,26.8085,space,11.7981,0.0002,60fc39cce64c39328a7c8904,68442929b31074d12f757525,2025-06-07_13h57.49.979,shape_ratio,2024.1.5,Win32,119.047619,684250e4f00cb30b92d1fa88,,,,,,,,,,,,,,,,,,,,,,,,,,,,,,,,,,,,,,,,,,,,,,,,,,,,,,,,,,,,,,,,,,,,,,,,,,,,,,,,,,,,,,,,,,,,,,,,,,,,,,,,,,,,,,,,,
,,,,,,,60fc39cce64c39328a7c8904,68442929b31074d12f757525,2025-06-07_13h57.49.979,shape_ratio,2024.1.5,Win32,119.047619,684250e4f00cb30b92d1fa88,26.8086,57.6715,space,0.8507,,,,,,,,,,,,,,,,,,,,,,,,,,,,,,,,,,,,,,,,,,,,,,,,,,,,,,,,,,,,,,,,,,,,,,,,,,,,,,,,,,,,,,,,,,,,,,,,,,,,,,,,,,,,,
,,,,,,,60fc39cce64c39328a7c8904,68442929b31074d12f757525,2025-06-07_13h57.49.979,shape_ratio,2024.1.5,Win32,119.047619,684250e4f00cb30b92d1fa88,,,,,,57.6716,60.9303,space,0.2543,,,,,,,,,,,,,,,,,,,,,,,,,,,,,,,,,,,,,,,,,,,,,,,,,,,,,,,,,,,,,,,,,,,,,,,,,,,,,,,,,,,,,,,,,,,,,,,,,,,,,,,,
,,,,,,,60fc39cce64c39328a7c8904,68442929b31074d12f757525,2025-06-07_13h57.49.979,shape_ratio,2024.1.5,Win32,119.047619,684250e4f00cb30b92d1fa88,,,,,,,,,,,60.9402,61.4305,61.4306,61.6807,61.6807,62.3638,right,0.6744,,62.3639,63.4641,0.0,0.0,0.0,0.0,1.0,0.2,,,,,,,,,,,,,,,,,,,,,,,,,,,,,,,,,,,,,,,,,,,,,,,,,,,,,,,,,,,,,,,,,,,,,,,,,,,,,,,,,,,,,,
,,,,,,,60fc39cce64c39328a7c8904,68442929b31074d12f757525,2025-06-07_13h57.49.979,shape_ratio,2024.1.5,Win32,119.047619,684250e4f00cb30b92d1fa88,,,,,,,,,,,63.4643,63.9641,63.9641,64.2143,64.2143,64.9311,left,0.716,,64.9311,66.0311,0.0,1.0,1.0,1.0,1.0,0.8,,,,,,,,,,,,,,,,,,,,,,,,,,,,,,,,,,,,,,,,,,,,,,,,,,,,,,,,,,,,,,,,,,,,,,,,,,,,,,,,,,,,,,
,,,,,,,60fc39cce64c39328a7c8904,68442929b31074d12f757525,2025-06-07_13h57.49.979,shape_ratio,2024.1.5,Win32,119.047619,684250e4f00cb30b92d1fa88,,,,,,,,,,,,,,,,,,,,,,,,,,,,66.0313,69.59,space,0.553,,,,,,,,,,,,,,,,,,,,,,,,,,,,,,,,,,,,,,,,,,,,,,,,,,,,,,,,,,,,,,,,,,,,,,,,,,,,,,,,,,
,,,,,,,60fc39cce64c39328a7c8904,68442929b31074d12f757525,2025-06-07_13h57.49.979,shape_ratio,2024.1.5,Win32,119.047619,684250e4f00cb30b92d1fa88,,,,,,,,,,,69.596,70.09,,,70.3403,70.915,right,0.5711,,,,,,,,,0.1,,,,,,70.0902,70.3403,70.9151,"[-0.12147912770586285,-0.027823712038494694]",4.0,"[0.10344770798627972,0.03382583697246938]",4.0,"[-0.16491327262862646,0.0277033344723738]",4.0,"[0.03115557196070303,0.04519179802509036]",4.0,"[-0.06424671994871459,-0.11940710451144436]",4.0,"[-0.17277157926915016,-0.10062126081542086]",100.0,"[-0.08488529102613786,-0.07166580337147788]",4.0,"[0.1091999983941589,0.13762132154960952]",4.0,"[-0.0049723004834167275,0.10892285707817992]",4.0,"[0.08389305764758714,-0.096073585378477]",4.0,"[0.15460758818362166,0.016813543059312583]",4.0,"[-0.03992734989094826,-0.16821586808283318]",4.0,"[-0.02128187947781672,-0.0428813209557832]",4.0,"[0.017813806147871855,-0.14853704862116418]",4.0,"[-0.19045379922798944,-0.018751836979351764]",4.0,"[-0.1442007780695985,0.11566945724356242]",4.0,"[0.016407548827739683,-0.1964261676592616]",4.0,"[-0.01964833614677362,0.03718612795727907]",4.0,"[0.037973767620259266,0.17507766354167467]",4.0,"[0.056066984806378145,-0.1851883036385732]",4.0,"[0.03218086312710601,-0.001404022321240851]",4.0,"[0.16777490406447532,0.0996317383266448]",4.0,"[0.14884832934055686,-0.05186673995154834]",4.0,"[0.0599294447459238,-0.13622544738019463]",4.0,"[-0.0553395235869208,0.16734895975796324]",4.0,"[-0.012734987612085991,0.1879537679687437]",100.0,"[0.02612767987471887,-0.051431938039306214]",100.0,"[-0.09828608532715671,0.06525201787658354]",4.0,"[-0.10196538198614576,0.12973375446257854]",4.0,"[-0.13172553998365857,-0.08532268655967563]",4.0,"[-0.055729537571582506,0.09697491344760908]",4.0,"[0.11479112584950034,0.07616031671785597]",4.0,"[0.02,0.02]",72.0154,0.0,0.0,0.0,202.0,1.0,,,,,,,
,,,,,,,60fc39cce64c39328a7c8904,68442929b31074d12f757525,2025-06-07_13h57.49.979,shape_ratio,2024.1.5,Win32,119.047619,684250e4f00cb30b92d1fa88,,,,,,,,,,,72.0156,72.5154,,,72.7655,73.5905,right,0.8171,,,,,,,,,0.1,,,,,,72.5154,72.7655,73.5905,"[-0.05720097783953825,-0.06820102244237193]",4.0,"[-0.0980458273267865,-0.16539533382651136]",4.0,"[0.04278961364571606,-0.19079773918940277]",4.0,"[-0.13406588393273802,-0.07626070542429504]",4.0,"[0.09268182031066126,0.09680204404035195]",4.0,"[0.018421145566182982,0.12343130581013473]",4.0,"[-0.059573352240476954,0.1106724389602713]",4.0,"[-0.021094884973698557,-0.02367828531016768]",100.0,"[-0.14730491544996258,-0.024194103906887778]",4.0,"[0.0012414090072289169,-0.1798679779315489]",4.0,"[-0.05373894938527463,0.048283484156776336]",4.0,"[0.028847689009398995,0.19160240117962465]",4.0,"[0.0478505245636565,0.018757460108180163]",4.0,"[0.053144445193859115,-0.021181692614164502]",100.0,"[0.09696510888986115,-0.01326830699252389]",4.0,"[0.10924603495506868,0.16205175653871678]",100.0,"[-0.1304065338468466,0.0638478529879085]",4.0,"[0.002841786033166341,0.03194615809037927]",4.0,"[-0.15418482801291067,0.027586062373780584]",4.0,"[0.16594219783513633,0.047226067064041366]",4.0,"[-0.052637125405741884,-0.17185616827228667]",4.0,"[-0.049244981872520695,0.19015056642512065]",4.0,"[0.11239235596629166,-0.15912188579055248]",4.0,"[-0.08848302190460751,0.17843586849840057]",4.0,"[0.06146902689350179,0.14476664785515053]",4.0,"[0.17111923201193652,-0.013460148803039673]",4.0,"[-0.08011421297625883,-0.12298972935335609]",4.0,"[-0.07707183563675006,-0.022954051004251696]",4.0,"[0.1071191801088942,-0.114241039635513]",4.0,"[-0.1967945989362274,0.01395853505112616]",4.0,"[0.0635795639727772,-0.1361628576192228]",4.0,"[-0.13349534443149544,-0.13997508273854561]",4.0,"[0.02,0.02]",74.6908,0.0,1.0,1.0,187.0,1.0,,,,,,,
,,,,,,,60fc39cce64c39328a7c8904,68442929b31074d12f757525,2025-06-07_13h57.49.979,shape_ratio,2024.1.5,Win32,119.047619,684250e4f00cb30b92d1fa88,,,,,,,,,,,74.6908,75.1909,,,75.4411,76.0408,right,0.5939,,,,,,,,,0.45,,,,,,75.1909,75.441,76.0408,"[-0.1312792463817676,-0.11719843869141379]",4.0,"[-0.15248546726636533,-0.021071946051772886]",4.0,"[0.001921633806339051,-0.04065047593252067]",4.0,"[0.037430282893378346,-0.11730391152932908]",100.0,"[-0.09098860454064558,0.006886650043846272]",4.0,"[0.15428305609931414,-0.03605177153797574]",4.0,"[-0.043971777410450635,0.18236501022314727]",100.0,"[0.12970172026655816,-0.11551648507366086]",4.0,"[0.06111751121327412,0.02729329992282607]",100.0,"[0.11802756326232512,0.00037622071474266124]",100.0,"[0.029405044993596783,-0.1663053197387452]",4.0,"[-0.09106298176207078,0.07441405799309117]",100.0,"[0.057301463482068764,0.16771935718426506]",4.0,"[-0.10409998310976136,0.13623699202912243]",100.0,"[0.18393945817500146,0.0778450325854089]",100.0,"[-0.07777323066363231,-0.1018761671378454]",4.0,"[0.09424240090529387,0.11274532350472344]",100.0,"[-0.0318226464839029,-0.10096447632480522]",4.0,"[-0.04454840625167593,-0.007537098738484263]",4.0,"[0.04514627354464915,-0.03798098690415562]",100.0,"[-0.17503697523003237,0.08632895057531814]",4.0,"[-0.17325957963290126,-0.06230422337166012]",4.0,"[0.1081165343889212,-0.07985073948583611]",4.0,"[-0.05377557505267198,0.12427344379866577]",4.0,"[0.15296027963454967,0.048176745437611405]",4.0,"[0.13753293793114288,0.09163969081485239]",100.0,"[0.05135205893523931,0.10785512204826628]",100.0,"[-0.02521321653479213,-0.19606649826692]",100.0,"[-0.1329319059078381,0.06434518006120234]",100.0,"[0.012914492432903968,0.004059104348650211]",4.0,"[-0.10660647259679587,-0.056857316000155714]",100.0,"[0.16926527709845357,-0.0848318087387707]",4.0,"[0.02,0.02]",77.1412,0.0,2.0,2.0,132.0,1.0,,,,,,,
,,,,,,,60fc39cce64c39328a7c8904,68442929b31074d12f757525,2025-06-07_13h57.49.979,shape_ratio,2024.1.5,Win32,119.047619,684250e4f00cb30b92d1fa88,,,,,,,,,,,77.1413,77.6411,,,77.8913,78.6413,left,0.7423,,,,,,,,,0.5,,,,,,77.6411,77.8913,78.6413,"[-0.05599500940202794,0.13460824216773012]",100.0,"[-0.09592010802826285,-0.01929114495217904]",100.0,"[-0.09993586107812141,0.0291546234207307]",100.0,"[0.09050291407999106,0.13621622330797414]",4.0,"[-0.04699570290635194,-0.07471307409757728]",100.0,"[0.11462090374227384,0.007314334955694387]",4.0,"[0.020485339624536254,0.10838957995618256]",4.0,"[-0.030283227905697378,0.01677629651586282]",100.0,"[0.16332792901892262,-0.03485716646998571]",100.0,"[0.08740839413769293,0.07790356379279817]",100.0,"[0.009993182883360804,-0.055559215960233665]",100.0,"[-0.1500427194917795,0.01653770472631057]",4.0,"[-0.08219850785773007,0.07493540342789994]",100.0,"[-0.19035843325755689,-0.05725792452100568]",100.0,"[-0.15648242714885016,-0.03187957985663609]",4.0,"[-0.007083212620566004,-0.19130481689415704]",4.0,"[0.10550626344598452,-0.07407494044866568]",4.0,"[-0.0017851625959660982,-0.10393961805911246]",4.0,"[-0.1211332725285777,-0.12837983901324976]",4.0,"[-0.10194658618833392,0.13823604300882641]",4.0,"[0.14182325004197593,0.11131830400793973]",4.0,"[0.05701592146057496,0.029438564248812568]",4.0,"[0.1844848162730398,0.03463611361269062]",4.0,"[-0.055675750607626424,-0.024250158050365154]",100.0,"[0.029521947144289917,-0.15468760070986673]",100.0,"[0.13743059843413183,0.04689944001815805]",100.0,"[-0.12449765083181429,0.1034111177566817]",4.0,"[0.08241593576755697,-0.11741785388947691]",4.0,"[-0.137320689891194,-0.07763535856162025]",100.0,"[0.0312937040551311,0.15619189516735285]",100.0,"[0.05983903689478664,-0.05218391986756207]",100.0,"[-0.07334166886693305,-0.10917223335759173]",4.0,"[0.02,0.02]",79.7416,0.0,3.0,3.0,98.0,1.0,,,,,,,
,,,,,,,60fc39cce64c39328a7c8904,68442929b31074d12f757525,2025-06-07_13h57.49.979,shape_ratio,2024.1.5,Win32,119.047619,684250e4f00cb30b92d1fa88,,,,,,,,,,,79.7417,80.2415,,,80.4917,81.4251,right,0.9314,,,,,,,,,0.45,,,,,,80.2415,80.4917,81.4251,"[-0.14891705483832277,0.08766248170178793]",4.0,"[0.10050443296886792,-0.04733910230937164]",4.0,"[0.01722419270895496,0.014642876658467013]",4.0,"[-0.12797941644950067,-0.14975664823688856]",100.0,"[-0.058947863844716696,-0.11887690482164716]",4.0,"[-0.056784738991172534,-0.1854843661926519]",4.0,"[-0.0855153708240168,-0.08114350897568944]",100.0,"[0.09484322018945625,-0.15711878925585052]",4.0,"[-0.037954770556580655,0.07491106097759961]",4.0,"[0.13692192486000462,0.13329130281463186]",100.0,"[-0.1912691047160863,-0.045757148953567445]",100.0,"[-0.0485866340297742,0.11867654627470907]",4.0,"[0.0015808178204021444,0.14581798817214095]",100.0,"[0.1708404665086058,-0.08274749310624716]",4.0,"[-0.1353806415892502,-0.0660973966397277]",4.0,"[0.021668241854303213,-0.09669063791215592]",4.0,"[0.06422243865463524,0.014118853068118036]",100.0,"[-0.10696405465308388,-0.023182406099709726]",100.0,"[-0.04607888775412429,-0.03926758810231852]",100.0,"[-0.006218353432688916,-0.029826220646269726]",100.0,"[-0.03643053806806254,-0.0851051289221866]",4.0,"[0.16809925792698366,-0.010270603129068656]",4.0,"[0.026573493764048776,0.19306022202603046]",100.0,"[-0.17394698465682704,0.044595780028131776]",4.0,"[0.11082297372139731,-0.002431795796211134]",4.0,"[-0.025040527511432396,-0.14347914360999175]",100.0,"[0.06784252709938293,-0.1042695668831946]",4.0,"[-0.09628792022706696,0.17288264731948397]",4.0,"[0.043598186342490276,-0.18413564272212815]",4.0,"[0.078415152027708,0.1386405208961427]",100.0,"[-0.15804096515187094,-0.10105662122417261]",100.0,"[0.1225035027131565,-0.10278409957247601]",100.0,"[0.02,0.02]",82.5253,0.0,4.0,4.0,124.0,1.0,,,,,,,
,,,,,,,60fc39cce64c39328a7c8904,68442929b31074d12f757525,2025-06-07_13h57.49.979,shape_ratio,2024.1.5,Win32,119.047619,684250e4f00cb30b92d1fa88,,,,,,,,,,,82.5254,83.0254,,,83.2755,83.8837,right,0.6011,,,,,,,,,0.1,,,,,,83.0254,83.2755,83.8837,"[0.006188129161342984,-0.11196493260167903]",4.0,"[0.16283752895532275,0.06366664442361207]",4.0,"[-0.08224978224815845,0.13835082788510908]",4.0,"[0.02304909941869119,0.03727313286462787]",4.0,"[0.017858463610895443,0.10340651093813849]",100.0,"[0.08689832417495706,0.02138994883868696]",4.0,"[-0.05913013710812633,0.07198237697039743]",4.0,"[-0.05357871264992784,-0.0691852251804791]",4.0,"[-0.10195126492861387,0.03105924766172158]",4.0,"[-0.16477516167522166,0.10497390631512092]",4.0,"[0.039306969434157166,0.18415964785383135]",4.0,"[0.16724608631461893,0.015395250096013289]",4.0,"[-0.133580892931383,-0.0685204067869174]",4.0,"[-0.16018952728699903,0.007856761132798486]",4.0,"[0.11685748052397119,-0.1354745730933307]",100.0,"[-0.16898834256772224,0.05379594414864]",4.0,"[-0.05054138193201531,0.16844037835206024]",4.0,"[-0.10599216403309715,-0.019845243304517757]",4.0,"[-0.007679173626754509,0.15958019467277057]",4.0,"[0.1388282844369277,-0.08069881035821444]",4.0,"[0.14896808736359,-0.03238647044909804]",4.0,"[0.021605260892721096,-0.17666392520048382]",4.0,"[0.02488102371014891,-0.06846997643861236]",4.0,"[-0.019269694618531133,0.007577632277452215]",4.0,"[-0.043468996685962366,-0.1516707439469851]",4.0,"[-0.11037311038000817,0.09939918552991074]",100.0,"[0.10859374525292753,-0.03436208359467368]",4.0,"[0.19107851932208986,-0.02909397850127362]",4.0,"[0.07363996294676459,0.09829710665609702]",4.0,"[-0.027789789666902754,-0.1907459891990496]",4.0,"[-0.01721136743338453,0.07102313446341973]",4.0,"[0.051040399976606914,0.0000655018809299191]",4.0,"[0.02,0.02]",84.984,0.0,5.0,5.0,193.0,1.0,,,,,,,
,,,,,,,60fc39cce64c39328a7c8904,68442929b31074d12f757525,2025-06-07_13h57.49.979,shape_ratio,2024.1.5,Win32,119.047619,684250e4f00cb30b92d1fa88,,,,,,,,,,,84.9841,85.4841,,,85.7342,86.5092,left,0.7737,,,,,,,,,0.9,,,,,,85.4841,85.7342,86.5092,"[-0.15896249204066826,-0.02133179382136464]",4.0,"[0.08510861041275415,-0.06346546202204015]",100.0,"[0.12307530709925607,0.12117504784407467]",100.0,"[-0.018016046357964773,0.06393227523490373]",100.0,"[-0.008236742741432438,-0.1387864065288911]",100.0,"[-0.11405343573678296,-0.07135349117677968]",100.0,"[-0.15451346405385524,0.12624852019927715]",100.0,"[-0.05088117202350529,0.16479446281392623]",100.0,"[0.14771328843171277,-0.07180561238845538]",100.0,"[0.012420754195566966,-0.19229922678290218]",100.0,"[-0.028026213785816434,-0.024528703377278374]",100.0,"[-0.09376398021961815,0.0735222263230696]",100.0,"[-0.026018585628432095,-0.07983257592475634]",100.0,"[0.0628459200906284,0.06725960001645698]",100.0,"[0.04448443846936586,-0.06413685531522917]",100.0,"[-0.08772725868461448,-0.12543323132269701]",100.0,"[0.05319404555169616,-0.11207423335696248]",100.0,"[-0.005997561662042922,0.1421861334781663]",100.0,"[-0.11714124171120432,0.1549986733557827]",100.0,"[0.10056291404743918,0.08329853321899619]",100.0,"[0.17931412248622078,-0.01156925721184089]",100.0,"[0.0706415070740453,0.12534452088435494]",100.0,"[0.15596079529903098,0.07659464696774453]",100.0,"[-0.08243935477305844,-0.020992619255941886]",4.0,"[-0.03567134651323812,-0.16977161805296934]",100.0,"[-0.1325204213004692,-0.12408656386408214]",100.0,"[0.09056576952476847,-0.01077745032522842]",100.0,"[0.006346161914550175,0.09793451395508963]",100.0,"[-0.17152461420323004,0.08065315238072046]",100.0,"[0.04791517921718382,-0.1732415960538746]",100.0,"[-0.1144602377805921,0.03511860121371689]",4.0,"[0.012886294096030742,0.18499749965339785]",100.0,"[0.02,0.02]",87.6094,0.0,6.0,6.0,20.0,1.0,,,,,,,
,,,,,,,60fc39cce64c39328a7c8904,68442929b31074d12f757525,2025-06-07_13h57.49.979,shape_ratio,2024.1.5,Win32,119.047619,684250e4f00cb30b92d1fa88,,,,,,,,,,,87.6095,88.1095,,,88.3596,89.1928,right,0.8259,,,,,,,,,0.4,,,,,,88.1095,88.3596,89.1929,"[0.12546320476281575,0.06864635512713693]",4.0,"[-0.0905803400808808,0.04706180091487464]",100.0,"[-0.1215409362163268,-0.15666322811959174]",4.0,"[-0.023820830289070064,0.15726590655020956]",4.0,"[-0.18458846428034267,-0.07439659335325037]",4.0,"[0.025207141888859228,0.13162312545041233]",4.0,"[0.08851041083820509,-0.11466940735373156]",4.0,"[-0.020858779790540856,-0.01012843204284546]",4.0,"[-0.05611380162885704,-0.16831970140746835]",4.0,"[0.14258136903684387,0.1324450844849394]",100.0,"[0.08153094148653509,-0.024382995879344494]",100.0,"[0.16691664522558808,-0.020604119615569686]",100.0,"[-0.0071177476851901475,-0.07005928051334813]",4.0,"[0.0502116392565295,0.1715891263225872]",100.0,"[0.026150748662344552,0.06251463577250134]",100.0,"[-0.10165921581529998,0.10935537617920062]",4.0,"[-0.06128495922804238,0.11881004805378825]",100.0,"[-0.0603741257917125,-0.037516437674348674]",4.0,"[0.17786896799470694,0.029892470568895223]",100.0,"[-0.07913746357559577,0.16986346262081495]",100.0,"[0.029428472494574285,-0.13929387230954646]",4.0,"[-0.1456382631767853,-0.11911800269025569]",4.0,"[-0.17457318004873154,0.03252688567911748]",100.0,"[0.03427367546582747,-0.025184713247339098]",4.0,"[-0.07167329148585574,-0.10421550008295324]",4.0,"[-0.03983442933413453,0.033561543180075364]",100.0,"[-0.11340687676970405,-0.07557354709956744]",100.0,"[-0.1292607449579208,-0.0064505566791911466]",100.0,"[0.12470251130200852,-0.1404092622379824]",4.0,"[-0.02163841377126273,-0.1471250445768214]",4.0,"[-0.02621182295469709,0.08116754238561111]",4.0,"[-0.07414892334127328,0.006151159344363672]",4.0,"[0.02,0.02]",90.2931,0.0,7.0,7.0,161.0,1.0,,,,,,,
,,,,,,,60fc39cce64c39328a7c8904,68442929b31074d12f757525,2025-06-07_13h57.49.979,shape_ratio,2024.1.5,Win32,119.047619,684250e4f00cb30b92d1fa88,,,,,,,,,,,90.2933,90.7932,,,91.0433,91.6181,right,0.5727,,,,,,,,,0.1,,,,,,90.7932,91.0433,91.6181,"[-0.0018000911191341418,0.10516398001498439]",4.0,"[0.050914141896048884,0.1490040042108099]",4.0,"[-0.05271393569498974,-0.15963649008514788]",4.0,"[-0.15162927163561565,0.0374033640740512]",4.0,"[0.06339086592896276,0.18860518118733335]",4.0,"[-0.19983125794271278,0.006115935542532857]",4.0,"[-0.08707663589503627,0.07256216760144306]",4.0,"[0.08531807763169562,0.12165453074205529]",4.0,"[-0.013813839701570681,0.17430741300182911]",4.0,"[-0.1470327737256144,0.09053231646134785]",4.0,"[0.03287786110048895,-0.02132648361268711]",4.0,"[-0.1495826816682969,-0.11161417568927001]",4.0,"[0.1775858704732287,-0.02199689454981392]",4.0,"[0.09194196074880105,0.0008854902549438466]",4.0,"[-0.05285653336184845,-0.1164274525331756]",4.0,"[0.1741262168809655,0.07228109625325786]",4.0,"[-0.12763708125992812,0.14646646382440856]",4.0,"[-0.008773396295380749,-0.1723854374976864]",4.0,"[0.18023835105352493,-0.06657046982305358]",100.0,"[-0.08236585743808746,0.007761330073947243]",4.0,"[-0.08508431054537656,-0.059390572326976074]",4.0,"[0.14244671356378283,-0.08667682286223068]",4.0,"[0.003942806387448174,-0.11111608727975066]",4.0,"[0.04831062180910386,-0.14804384920630834]",100.0,"[-0.0021816215612636396,0.023876723002207324]",4.0,"[-0.12473862185288705,-0.023287384972471303]",4.0,"[-0.08673460910494615,0.13520914626719402]",4.0,"[0.06870710553355795,-0.08325070243390667]",4.0,"[0.044355440058169764,0.066848286422451]",100.0,"[-0.03882361886290527,-0.07404137675370381]",4.0,"[0.10334979328334544,0.16240060748867596]",4.0,"[-0.05524134393447229,0.1060373694783143]",4.0,"[0.02,0.02]",92.7185,0.0,8.0,8.0,204.0,1.0,,,,,,,
,,,,,,,60fc39cce64c39328a7c8904,68442929b31074d12f757525,2025-06-07_13h57.49.979,shape_ratio,2024.1.5,Win32,119.047619,684250e4f00cb30b92d1fa88,,,,,,,,,,,92.7186,93.2186,,,93.4687,94.0688,right,0.5993,,,,,,,,,0.45,,,,,,93.2186,93.4687,94.0688,"[-0.12169956708422405,-0.04799726722744583]",4.0,"[0.0033546604439874655,0.10343524775694588]",100.0,"[-0.07255443424326719,0.11508851484341455]",100.0,"[-0.029440236281545042,0.1269604746206809]",4.0,"[0.05683020991353473,-0.08483781877512148]",100.0,"[0.0958810039330908,-0.0016981919418031976]",100.0,"[-0.013900039694447872,-0.14562880019431707]",4.0,"[-0.08460104778396042,-0.14848078262517211]",100.0,"[-0.041164250433722245,-0.056728010225568726]",100.0,"[-0.043351085637784274,0.01742246680176044]",4.0,"[0.02317032444874923,0.1983701845305675]",100.0,"[-0.14185495332855197,0.08581922330983249]",4.0,"[0.04026773533054153,0.04052943903258475]",100.0,"[-0.1707894337077452,-0.03413325979046479]",100.0,"[0.15020001512643508,0.04356429914943543]",4.0,"[0.06562508794240543,0.09522608945523942]",4.0,"[0.1359757294199121,0.13984274252030973]",100.0,"[-0.18571482674842807,0.05108352154640699]",100.0,"[0.10520225638208522,-0.07734459347187018]",100.0,"[-0.10174463391601851,0.05248749887493586]",4.0,"[0.10449513410582557,-0.1615392701930783]",4.0,"[-0.12906407751659862,0.1396401970344337]",100.0,"[0.18815513371902406,0.02452275762633872]",4.0,"[-0.11452988580573001,-0.09882509392604344]",4.0,"[-0.039187416427505374,0.060774410384279276]",4.0,"[-0.06320095247178774,-0.019395689267146746]",4.0,"[0.17128525715233378,-0.06043887178678104]",4.0,"[0.03133485177004354,-0.15864510269506818]",4.0,"[0.08827373199183233,0.13517385623784098]",4.0,"[-0.001898591296699446,-0.010801859872820521]",4.0,"[-0.1248290857521723,-0.14429659109199214]",100.0,"[-0.07301333933927381,-0.0925953486370852]",4.0,"[0.02,0.02]",95.1689,0.0,9.0,9.0,147.0,1.0,,,,,,,
,,,,,,,60fc39cce64c39328a7c8904,68442929b31074d12f757525,2025-06-07_13h57.49.979,shape_ratio,2024.1.5,Win32,119.047619,684250e4f00cb30b92d1fa88,,,,,,,,,,,95.169,95.669,,,95.9192,96.369,left,0.4437,,,,,,,,,0.9,,,,,,95.669,95.9192,96.369,"[0.1372983155770424,0.09993966112025937]",100.0,"[0.012675757858224406,0.17054837398066283]",100.0,"[-0.01278749728985963,0.05737406173249094]",100.0,"[0.19658751591262813,-0.002305217570535058]",100.0,"[0.07726134210635173,-0.06580510448206237]",100.0,"[-0.13554819770296214,0.030259134264921998]",100.0,"[-0.16571227295332386,0.0023491867347428114]",100.0,"[0.07700933120858061,0.109370471567336]",100.0,"[0.06752421303970035,0.017255721161753466]",100.0,"[0.02814734804531918,-0.14183644704817708]",100.0,"[0.018674084588802216,-0.0770081383961973]",100.0,"[0.11252840454795776,-0.09485337346427879]",100.0,"[-0.049065050111654705,-0.036226881775567016]",100.0,"[-0.030541576435962323,0.11575991431281965]",100.0,"[0.1541624124368431,-0.003255838278725962]",100.0,"[-0.10508669891717393,0.12621625283491514]",100.0,"[0.07434432505915108,-0.13745607222322262]",100.0,"[0.02181981795185936,0.01772225006457476]",100.0,"[0.020440271306285066,0.12348410746361042]",100.0,"[-0.04910908256156403,-0.08250944238261135]",100.0,"[0.053748948351774774,0.19134903245153262]",100.0,"[-0.03790577349671307,0.1712991416065168]",100.0,"[-0.006908271625999561,-0.19875074216944932]",100.0,"[0.10738456696020898,-0.1645850279010648]",100.0,"[0.1581341268197613,-0.11561804015506667]",100.0,"[-0.15797540658946774,-0.09414600469282372]",100.0,"[-0.06561446690865559,0.07604310266301655]",100.0,"[-0.10541327831298362,-0.11075796243731995]",100.0,"[0.14449937612551952,0.05020702594681406]",100.0,"[0.08897688083213134,0.149061314822521]",4.0,"[0.10875861272358776,0.01869224278753339]",4.0,"[0.18614847658286607,-0.05716306696160811]",4.0,"[0.02,0.02]",97.4692,0.0,10.0,10.0,25.0,1.0,,,,,,,
,,,,,,,60fc39cce64c39328a7c8904,68442929b31074d12f757525,2025-06-07_13h57.49.979,shape_ratio,2024.1.5,Win32,119.047619,684250e4f00cb30b92d1fa88,,,,,,,,,,,97.4694,97.9693,,,98.2195,98.8444,left,0.6191,,,,,,,,,0.6,,,,,,97.9693,98.2195,98.8444,"[-0.014076784657382189,0.033029357073702845]",100.0,"[0.08379530289742727,-0.15576490623088257]",100.0,"[-0.1575093371943972,-0.06906803832230685]",100.0,"[-0.15845968636369467,0.04486534291806079]",4.0,"[-0.06718457828641625,0.052177154919277116]",4.0,"[0.1601620708925859,-0.061441288194270936]",100.0,"[0.053705414603175364,0.1470429654297612]",100.0,"[-0.006096348655750248,-0.19508309533415025]",4.0,"[-0.026818558854913244,-0.09239908494487142]",4.0,"[0.026691102087903103,-0.05082660061723248]",4.0,"[-0.13943658470022335,-0.0011982886032503273]",100.0,"[-0.10486387372087164,0.08354047330275402]",100.0,"[0.06662822683631102,-0.07343964762685076]",100.0,"[0.10647422254756321,0.16802505204950344]",100.0,"[-0.048082030310075886,0.007199886966324188]",100.0,"[0.19135773830042482,0.0463314154829276]",100.0,"[-0.053292547882868774,-0.18791489528051306]",4.0,"[-0.0017604147356948961,0.16753245594414978]",4.0,"[-0.07263213784242442,-0.06489819706904854]",4.0,"[0.12918619657526884,0.061714819966155486]",100.0,"[-0.1976191144501619,0.0031187682909588977]",100.0,"[0.11486619942759088,-0.031668598525972556]",100.0,"[0.02173753821236457,0.10729685019296685]",4.0,"[0.05432707643809755,0.014734510422978998]",100.0,"[0.1759105427566778,0.0023316842325110656]",100.0,"[-0.01889702409605299,0.08045070811075397]",100.0,"[-0.09793034037929045,0.12979786684623404]",4.0,"[0.026900234643881207,-0.12339107597525231]",100.0,"[-0.07103290396170624,-0.13361535020563112]",4.0,"[0.1358468090633083,0.1086234980340746]",4.0,"[-0.033285325356620175,-0.05169785746811851]",4.0,"[-0.091715175775988,-0.022946547003751577]",100.0,"[0.02,0.02]",99.9446,0.0,11.0,11.0,55.0,1.0,,,,,,,
,,,,,,,60fc39cce64c39328a7c8904,68442929b31074d12f757525,2025-06-07_13h57.49.979,shape_ratio,2024.1.5,Win32,119.047619,684250e4f00cb30b92d1fa88,,,,,,,,,,,99.9447,100.4447,,,100.6948,101.2865,right,0.585,,,,,,,,,0.4,,,,,,100.4447,100.6948,101.2865,"[-0.08334516565704524,-0.12249485527238997]",4.0,"[0.1755825253235009,-0.031203744406967104]",100.0,"[0.055603965760496636,0.12708417245283543]",4.0,"[-0.13658235421901582,0.03711184245872785]",4.0,"[0.10795153207968945,-0.10104596604606182]",4.0,"[0.19294603735344965,0.012352017460962638]",100.0,"[0.012598911281565497,0.1894673879738342]",100.0,"[-0.12345713037657724,-0.13483238699978048]",4.0,"[0.020557995003659495,0.04779926643883069]",100.0,"[-0.01344808384904374,0.0887015008555147]",4.0,"[0.12316617639787604,-0.021921923449157124]",100.0,"[0.09617937479126294,0.043836982690652206]",4.0,"[-0.05665598172344166,0.002507297931049131]",100.0,"[-0.11832049196921618,0.11635097399421426]",100.0,"[-0.06843055033636498,0.10546692579574818]",4.0,"[-0.10912164197859903,0.06829257742592475]",100.0,"[0.05747826299881622,-0.01617860560349779]",4.0,"[-0.16675955064433662,-0.0012116962410480396]",100.0,"[-0.0773400284862732,0.16094845803014926]",100.0,"[-0.1079623035787676,-0.03715554036570251]",100.0,"[-0.009599852995219494,-0.049544707979714955]",100.0,"[0.14082010057208003,0.04695918039477922]",4.0,"[0.06956212184420667,-0.1220353360428402]",4.0,"[0.13950473294120908,0.1271990837561152]",4.0,"[-0.0265359701603764,-0.18943333269472676]",4.0,"[-0.09675994491607265,-0.07997922819820395]",4.0,"[-0.1758221717807836,-0.0788161179258552]",100.0,"[0.06285450566642857,-0.16926494562399108]",4.0,"[0.09677506237368838,0.11843531518987656]",4.0,"[-0.1689345556489081,0.07907409300370737]",4.0,"[-0.004067359086555781,-0.09189434854073729]",4.0,"[-0.022581054787868687,0.1406778301317142]",4.0,"[0.02,0.02]",102.3867,0.0,12.0,12.0,157.0,1.0,,,,,,,
,,,,,,,60fc39cce64c39328a7c8904,68442929b31074d12f757525,2025-06-07_13h57.49.979,shape_ratio,2024.1.5,Win32,119.047619,684250e4f00cb30b92d1fa88,,,,,,,,,,,102.3868,102.8867,,,103.1369,103.895,right,0.7531,,,,,,,,,0.45,,,,,,102.8867,103.1369,103.895,"[0.017519966134440065,0.004585705939767172]",4.0,"[-0.03846473138937716,-0.14730097118484217]",100.0,"[0.01043411277653779,-0.08479915164095772]",100.0,"[-0.06480963341437095,0.047778034740609]",100.0,"[-0.033329551790924054,0.08242243819779045]",100.0,"[-0.1784990749726223,0.08493448907767708]",100.0,"[0.04309099150228671,-0.12158339023295228]",4.0,"[0.02312066962262171,-0.04049636356746436]",100.0,"[-0.10773873041194293,-0.15298492766622981]",4.0,"[-0.022271271335972332,0.14663423420307842]",100.0,"[-0.0700296794040036,-0.08819769211988916]",4.0,"[-0.13455067054168587,0.12304553217430242]",100.0,"[0.19502711755101312,-0.03489737285172874]",4.0,"[-0.11535236060561964,-0.069890155887184]",100.0,"[-0.128751498190289,-0.021843973804544857]",4.0,"[0.09631941098627143,-0.0008567931515558046]",4.0,"[0.04181489676856781,0.17128914605693077]",100.0,"[0.10045195567039901,0.1062302119240418]",4.0,"[0.05918804619846678,0.11314697810804211]",4.0,"[0.1225974875295581,-0.12771296246277594]",4.0,"[-0.04834216275418613,0.18655228422148593]",4.0,"[-0.011147183348617229,-0.19207230684970952]",100.0,"[-0.08261054329345155,-0.0029521496630830254]",4.0,"[0.131859427926226,0.021035189183475654]",100.0,"[0.0925375041073894,0.060077784171953745]",100.0,"[-0.07298134079070459,0.14730433256849357]",4.0,"[-0.12178155808506405,0.05428428453206896]",4.0,"[-0.19518099228372124,0.021826176894532204]",4.0,"[0.1899325742465582,0.01204317348502821]",4.0,"[0.15976904807782868,0.05029887030640829]",4.0,"[0.018806396042489747,0.11354158938764662]",4.0,"[0.008085417162454495,0.063437003251402]",100.0,"[0.02,0.02]",104.9954,0.0,13.0,13.0,125.0,1.0,,,,,,,
,,,,,,,60fc39cce64c39328a7c8904,68442929b31074d12f757525,2025-06-07_13h57.49.979,shape_ratio,2024.1.5,Win32,119.047619,684250e4f00cb30b92d1fa88,,,,,,,,,,,104.9955,105.4954,,,105.7455,106.4622,right,0.7089,,,,,,,,,0.4,,,,,,105.4954,105.7455,106.4622,"[0.10327281751014863,0.057320959502245715]",100.0,"[-0.001676474515246789,-0.03158782520927314]",4.0,"[-0.07926704797136282,0.16956681547237723]",4.0,"[-0.04167179203707051,0.10228135708626125]",4.0,"[0.12578788270452657,-0.09436946160280565]",4.0,"[-0.03476655362737319,0.04551503630233922]",4.0,"[-0.07975440502205335,-0.0402982252249398]",100.0,"[-0.19413992423636886,-0.01418931947498066]",4.0,"[0.13638645965409285,-0.03445043156758168]",4.0,"[0.11412573891181532,0.13293492749401872]",100.0,"[0.1951533745754013,-0.030289446928507636]",4.0,"[0.18524335086029356,0.01752314085306343]",4.0,"[0.051553728697417436,0.11499759285433073]",4.0,"[-0.05124189997311079,-0.0770902440886201]",4.0,"[-0.1756260363260825,-0.057418511767453176]",100.0,"[0.0758946696467006,0.16499648096040037]",100.0,"[-0.14063418635815603,-0.034084848523825644]",4.0,"[0.053350618870323066,-0.06307880205438865]",100.0,"[-0.03623527828675965,-0.1761166790761172]",4.0,"[0.021306854651302966,-0.14813899583811616]",4.0,"[-0.13121172725195077,0.09939994840833895]",100.0,"[-0.07853796777229183,-0.1695040238710402]",4.0,"[-0.1403730961560172,0.027405271080698537]",100.0,"[0.056892552469943014,0.013463045490261769]",4.0,"[0.007547766261312485,-0.09872574444910875]",100.0,"[0.15047593610384688,0.06444189533234203]",100.0,"[-0.09397025681013804,-0.08886970415957603]",100.0,"[0.013658483055384243,0.18964195825609717]",100.0,"[0.15988946291916184,0.10398188877530808]",4.0,"[-0.07337956258816941,0.030109517427640578]",100.0,"[0.10901641535164366,-0.14156565289813827]",4.0,"[-0.1076000731847599,0.06449113928382157]",4.0,"[0.02,0.02]",107.5624,0.0,14.0,14.0,172.0,1.0,,,,,,,
,,,,,,,60fc39cce64c39328a7c8904,68442929b31074d12f757525,2025-06-07_13h57.49.979,shape_ratio,2024.1.5,Win32,119.047619,684250e4f00cb30b92d1fa88,,,,,,,,,,,107.5626,108.0625,,,108.3126,109.0126,left,0.6959,,,,,,,,,0.4,,,,,,108.0625,108.3126,109.0126,"[-0.08100185497138583,-0.09888407412027364]",4.0,"[0.026725919268132083,0.025548496195865387]",100.0,"[-0.1267214578759596,-0.0008170471833171185]",4.0,"[-0.078268650016918,0.17972518690955205]",4.0,"[0.0135913920593975,0.19004372274031817]",100.0,"[-0.08990529752586263,0.06860778719879361]",100.0,"[0.13889398799543903,0.056947626376671445]",4.0,"[-0.01968220787435818,-0.17746764441320625]",100.0,"[-0.04014334907595694,0.10522687565457547]",4.0,"[0.03632985829886496,-0.14866085119164327]",4.0,"[0.09777288231517217,-0.0904540209332113]",4.0,"[-0.004974409428704884,0.05528021626951809]",100.0,"[0.15108323526818765,-0.05113475515940469]",100.0,"[0.17651494548785085,0.0878524950602742]",4.0,"[0.07510925858880198,0.09118772861335797]",100.0,"[0.08396368614311253,-0.0520467482556229]",4.0,"[-0.05358591939154616,0.05155066545390769]",4.0,"[0.1560887032738708,-0.10054353036474643]",100.0,"[-0.03551389012290695,0.17643038348186368]",4.0,"[-0.10144940998605777,-0.14873156191688344]",4.0,"[-0.12901332327123496,0.058332467400407303]",4.0,"[0.16863131592342098,0.02440126806334733]",4.0,"[-0.1459957808895033,0.09518406202599684]",100.0,"[-0.030710254404407628,-0.10300045813070823]",4.0,"[-0.13954457294295153,-0.10289670196058041]",100.0,"[0.11884095330220668,-0.017157484466881347]",4.0,"[0.11235810711252828,-0.1475271285640406]",100.0,"[0.03521755222421606,-0.09631629441289817]",100.0,"[0.0921660549048057,0.1738248390671524]",4.0,"[0.003034680970723909,0.10098019138128865]",4.0,"[-0.05979531822213869,-0.14755876090905073]",4.0,"[-0.07622285984223509,-0.005969405572749868]",100.0,"[0.02,0.02]",110.1129,0.0,15.0,15.0,154.0,1.0,,,,,,,
,,,,,,,60fc39cce64c39328a7c8904,68442929b31074d12f757525,2025-06-07_13h57.49.979,shape_ratio,2024.1.5,Win32,119.047619,684250e4f00cb30b92d1fa88,,,,,,,,,,,110.113,110.6129,,,110.863,111.5296,right,0.6657,,,,,,,,,0.1,,,,,,110.6129,110.863,111.5296,"[0.17315649137714118,-0.01095647241752223]",4.0,"[-0.09388012740955487,-0.06733492409751356]",4.0,"[0.08510011808808646,-0.16878882587499044]",100.0,"[0.006236830151227647,0.19294909587557896]",4.0,"[-0.12911091449260162,-0.14920647439284804]",4.0,"[0.019995603960619165,-0.036125428779871294]",4.0,"[0.1760439050639511,-0.09300966120835064]",4.0,"[-0.012717623239040831,-0.1383583071326579]",100.0,"[-0.049288990850904095,-0.16400973113630413]",4.0,"[-0.08238438406723403,-0.14030904969149308]",4.0,"[-0.02000815029592516,0.013693749964776649]",4.0,"[0.04970230777006586,0.020335484961231377]",4.0,"[0.0393581470651201,0.16478066998963184]",4.0,"[-0.056333877480250046,0.16977261577422947]",4.0,"[0.1057581872351567,0.11550383056250431]",4.0,"[-0.11647430945498101,0.14852062013689565]",4.0,"[-0.006850047201339583,-0.18152714958978075]",100.0,"[0.041962141198190465,-0.09129190061794007]",4.0,"[0.04859098212203492,-0.14655516256275358]",4.0,"[-0.16397584499745424,-0.0504929684903239]",4.0,"[-0.0026451383471292637,0.12338369654510409]",4.0,"[-0.05343229190065779,0.12046495863134636]",4.0,"[0.19228834504819803,0.036547296321738046]",4.0,"[-0.14259219899469217,0.017039652053692556]",4.0,"[-0.11739849892357773,0.08768927357703092]",4.0,"[0.09858418616610834,0.07032032729607245]",4.0,"[0.08222942486909002,-0.05013213716800988]",4.0,"[0.14763874633985913,0.08265136874493817]",4.0,"[0.13549729298298854,-0.06517172158900542]",4.0,"[-0.056545367256725376,0.07740497669888387]",4.0,"[0.12973940213986315,-0.0237867255438474]",4.0,"[0.047271880815812656,0.11897695684829926]",4.0,"[0.02,0.02]",112.6299,0.0,16.0,16.0,205.0,1.0,,,,,,,
,,,,,,,60fc39cce64c39328a7c8904,68442929b31074d12f757525,2025-06-07_13h57.49.979,shape_ratio,2024.1.5,Win32,119.047619,684250e4f00cb30b92d1fa88,,,,,,,,,,,112.63,113.1299,,,113.3801,114.0635,left,0.6799,,,,,,,,,0.9,,,,,,113.1299,113.3801,114.0635,"[-0.05093414359613243,-0.07520058850672248]",100.0,"[-0.13931365891495873,0.10582019555955445]",4.0,"[-0.06360437555069617,0.12324997469117889]",100.0,"[0.1354520540923025,0.11574193467344948]",100.0,"[-0.15307618387569258,-0.03430612919029331]",100.0,"[0.07108947736104836,0.03583734115980273]",100.0,"[-0.10903644613129079,0.03588097319296355]",100.0,"[0.16441233131532604,0.0470463826084663]",100.0,"[-0.0015980615927261908,0.19482777605990412]",100.0,"[0.036117922449843104,0.1350829954723834]",100.0,"[0.19174295081598358,-0.050262437256784566]",100.0,"[-0.0480001988329543,0.1724583238416342]",100.0,"[-0.19607681717089404,0.03579764949974447]",100.0,"[0.04544931893391927,-0.05577426324067642]",100.0,"[-0.00922870765926993,-0.11148213597436461]",100.0,"[0.03513051554143287,-0.1152454035398217]",100.0,"[-0.16019923725735585,-0.07774465892475002]",100.0,"[-0.05745680875199066,-0.0014770511472111001]",4.0,"[0.02050736816238748,-0.1755310955799333]",4.0,"[-0.01307672047538242,0.10221610440061694]",100.0,"[0.05822595993368531,-0.014940354660019483]",100.0,"[0.19629356289424998,0.015106690383959075]",100.0,"[-0.03869925205784827,0.06376622609209952]",100.0,"[0.0038071337748647664,-0.030042617617533778]",100.0,"[0.10456200438153307,-0.04301353385897014]",100.0,"[-0.007652049081804412,0.15281660589124485]",100.0,"[0.09580577497475438,-0.12797979152617264]",100.0,"[0.0419387098788204,0.19072234206497726]",100.0,"[-0.019908522471738885,0.018195975137486886]",100.0,"[-0.13537696913150501,0.1459730734496926]",100.0,"[-0.10579515659133003,-0.1049087647494374]",100.0,"[0.1559181214080746,-0.021021595679589784]",100.0,"[0.02,0.02]",115.1636,0.0,17.0,17.0,4.0,1.0,,,,,,,
,,,,,,,60fc39cce64c39328a7c8904,68442929b31074d12f757525,2025-06-07_13h57.49.979,shape_ratio,2024.1.5,Win32,119.047619,684250e4f00cb30b92d1fa88,,,,,,,,,,,115.1637,115.6637,,,115.9138,116.7054,left,0.79,,,,,,,,,0.45,,,,,,115.6637,115.9138,116.7054,"[-0.07148696735496293,-0.09205001336390041]",4.0,"[0.132278932586398,0.0883130395095119]",4.0,"[-0.0026346587015602736,-0.010677850584212431]",100.0,"[-0.07453440082753253,0.09983226407922934]",4.0,"[0.15039640780169158,-0.01697757412839001]",100.0,"[0.09405719297545036,-0.17001179718376408]",100.0,"[-0.14709208563530107,0.04123022686336172]",100.0,"[0.0634953577702593,0.12097446067691775]",100.0,"[-0.10857603792547388,-0.009128833108983169]",100.0,"[0.027370445713538038,-0.039776162543435974]",4.0,"[0.08666057983481733,0.04596887283888166]",100.0,"[-0.012481901929927517,0.15456048447493562]",100.0,"[-0.021687358920846396,0.19778608861968439]",4.0,"[0.11502918455056646,-0.11174008285397188]",100.0,"[0.0878391925805248,-0.041522542297208004]",100.0,"[0.17117502042860136,0.04095859084927678]",100.0,"[-0.05337804792828576,-0.15343945496603695]",4.0,"[0.017111694273758853,-0.08497169150853215]",4.0,"[-0.044028305590064695,-0.03637664002115866]",4.0,"[-0.10520888240881822,0.06107039553468481]",100.0,"[-0.021687979824773714,0.061630747190233426]",4.0,"[-0.1660232434241209,-0.09989198185827701]",4.0,"[0.13012938011358724,-0.07216391168250548]",4.0,"[-0.13286945345663104,-0.06604567024455668]",4.0,"[0.1299037705833821,0.02484105349870092]",4.0,"[-0.052956654595385344,0.0026624942080260734]",100.0,"[0.05386916777868182,-0.1075886116485801]",4.0,"[-0.12071004144486615,0.14037067473323184]",4.0,"[0.03177559875462284,0.18840733487225314]",4.0,"[-0.1841312265657457,-0.05474947482586313]",4.0,"[0.017431427322739074,-0.18417528701167057]",100.0,"[-0.10597770680646972,-0.15316478963100524]",4.0,"[0.02,0.02]",117.8056,0.0,18.0,18.0,143.0,1.0,,,,,,,
,,,,,,,60fc39cce64c39328a7c8904,68442929b31074d12f757525,2025-06-07_13h57.49.979,shape_ratio,2024.1.5,Win32,119.047619,684250e4f00cb30b92d1fa88,,,,,,,,,,,117.8058,118.3057,,,118.5558,119.0558,right,0.499,,,,,,,,,0.4,,,,,,118.3057,118.5558,119.0558,"[-0.1544979732118709,0.10118127999384062]",100.0,"[-0.05213465838624172,-0.17555783177657677]",4.0,"[0.13505527273858103,0.02108201527099219]",100.0,"[0.04672757927500516,-0.0743710885082889]",100.0,"[0.07660479093362442,0.04503134234681597]",4.0,"[-0.1723679316227579,0.061739673920159034]",100.0,"[-0.15000051232894443,-0.009784847905422459]",100.0,"[0.0063129227714144994,0.022934803727819163]",4.0,"[-0.05675188005934183,-0.1015916451741854]",4.0,"[0.15549516610557515,-0.02574281471025459]",100.0,"[0.1549457598789684,0.11438712611812069]",4.0,"[0.029138073964791223,-0.025808673043475495]",4.0,"[-0.0974537295504171,-0.17087863651042673]",100.0,"[0.03431130470496902,0.11177486376461498]",100.0,"[-0.10563110211872542,-0.10179670305146991]",4.0,"[-0.1444821244061499,-0.0895406159047586]",4.0,"[-0.03384912670998204,0.028272245447275364]",100.0,"[-0.004665918310218411,-0.048535287569569714]",4.0,"[0.10939028316994205,0.07731695733764307]",4.0,"[-0.021565631540526528,0.08441409167945464]",4.0,"[-0.1346999700007931,0.031788762878891125]",100.0,"[-0.1374222960160821,-0.13519181496465257]",100.0,"[-0.022804124352285418,0.14796575483407334]",4.0,"[0.02471791174333114,-0.12207062729171635]",100.0,"[0.11886140213013598,0.15337755282100696]",100.0,"[0.07718901314303774,-0.037407418858259975]",4.0,"[-0.07380157642763563,0.03976478476596333]",4.0,"[-0.0818524395745892,0.14390819883118772]",4.0,"[-0.003990198494438998,-0.1777839724148915]",4.0,"[0.14577306572444712,-0.1317991011858808]",4.0,"[0.03953685744918947,-0.18523431853176325]",4.0,"[0.0376791249577064,0.06119875562681548]",4.0,"[0.02,0.02]",120.156,0.0,19.0,19.0,164.0,1.0,,,,,,,
,,,,,,,60fc39cce64c39328a7c8904,68442929b31074d12f757525,2025-06-07_13h57.49.979,shape_ratio,2024.1.5,Win32,119.047619,684250e4f00cb30b92d1fa88,,,,,,,,,,,120.1561,120.6561,,,120.9062,121.9062,right,0.9947,,,,,,,,,0.6,,,,,,120.6561,120.9062,121.9062,"[0.05197604276324922,0.031587600766975886]",100.0,"[-0.13128997824942365,-0.08685433653481085]",4.0,"[0.11911077955987552,-0.11308222417758905]",4.0,"[0.035197260774575904,-0.023674911970534233]",100.0,"[0.14041026576637486,-0.034149490306944544]",4.0,"[0.07671028073106163,0.10672970148753796]",4.0,"[-0.04403101160174991,0.04762021369592668]",100.0,"[0.029181365106926243,-0.0931652156921471]",4.0,"[0.02725725678965014,-0.19467386345743432]",100.0,"[-0.03528089007224759,0.15279581201198159]",100.0,"[-0.004127464502140336,-0.11856445785985416]",4.0,"[0.14513129084225468,0.13429455955739492]",100.0,"[0.08143433785171905,-0.08125601536676129]",100.0,"[-0.13228220099036517,-0.13111505925369965]",4.0,"[0.12833125566851558,0.09725006720441594]",4.0,"[-0.19656759215886263,-0.010342784914032606]",100.0,"[0.16955561125669838,0.08371824308253012]",100.0,"[0.17593075519259754,-0.09488823951304948]",4.0,"[0.18459350116576845,0.03343031111933995]",100.0,"[-0.09058564632227241,0.01252340530414226]",100.0,"[-0.16804905508975215,0.04206523102573359]",100.0,"[0.09433383935055925,0.02017264363575524]",100.0,"[0.03886488808070919,0.16277212852433567]",4.0,"[-0.09842953618269899,-0.05774006068876468]",4.0,"[-0.11553029495678664,0.04630979660461492]",100.0,"[-0.18805781780626332,-0.05759707595265575]",4.0,"[-0.14155019086636433,-0.03358439087819234]",100.0,"[0.09898633106306588,-0.16171150049115757]",100.0,"[-0.031074404233460067,-0.03574671914583828]",4.0,"[-0.07106508086764107,-0.10576637385759963]",100.0,"[-0.1473739028033978,0.07965517844247119]",100.0,"[-0.052180456091956894,0.10152925189393852]",100.0,"[0.02,0.02]",123.0064,0.0,20.0,20.0,46.0,1.0,,,,,,,
,,,,,,,60fc39cce64c39328a7c8904,68442929b31074d12f757525,2025-06-07_13h57.49.979,shape_ratio,2024.1.5,Win32,119.047619,684250e4f00cb30b92d1fa88,,,,,,,,,,,123.0065,123.5066,,,123.7566,124.2983,right,0.5409,,,,,,,,,0.1,,,,,,123.5066,123.7566,124.2983,"[0.07494876488998575,0.17537210280499424]",4.0,"[-0.18046499968494234,0.060113074003416984]",4.0,"[-0.17861621902601252,-0.08615697941106049]",4.0,"[0.04002122133369451,-0.12776159820679756]",4.0,"[-0.06449325239789098,-0.06104509385476566]",4.0,"[-0.022868120092914952,-0.05064283981700423]",4.0,"[0.0329270276087385,-0.03214624723871356]",4.0,"[0.15924073855507834,-0.002711142218992414]",100.0,"[0.07549466454654451,-0.1603802849067918]",4.0,"[0.11900307349457045,0.037133917687052265]",4.0,"[-0.05302286032743778,0.16900880608439928]",4.0,"[0.06887664640174564,-0.012969781272659709]",4.0,"[-0.030990700737497774,-0.01003806236306373]",4.0,"[-0.11499604711410286,0.11662503921900537]",4.0,"[-0.10204560162631955,-0.11841985142524204]",4.0,"[-0.15290715574084665,0.0072764793952281035]",4.0,"[0.025029212393881416,0.09185249953153968]",4.0,"[-0.09686903410236873,0.011770504949278143]",100.0,"[-0.00511349388029288,0.12488078241622988]",4.0,"[-0.07453653877132022,0.05441159984749547]",4.0,"[-0.026218214831197007,0.03993196852973965]",4.0,"[-0.1321149021701423,-0.06405669815548917]",4.0,"[0.1199885789209586,-0.05892906472857785]",4.0,"[0.03813266466280968,0.19525700015136546]",4.0,"[-0.015290550577438923,-0.10745793499829956]",100.0,"[0.08392295234971917,0.07215431030217316]",4.0,"[0.1586982342930469,-0.0690760043643522]",4.0,"[-0.0697141244422112,-0.14597884269893388]",4.0,"[-0.13380680364355227,0.07892438072830586]",4.0,"[-0.13455510578857013,-0.1436954941320262]",4.0,"[0.14310512337003506,-0.1141299076825272]",4.0,"[0.057573435053748026,0.13617369469352625]",4.0,"[0.02,0.02]",125.3984,0.0,21.0,21.0,209.0,1.0,,,,,,,
,,,,,,,60fc39cce64c39328a7c8904,68442929b31074d12f757525,2025-06-07_13h57.49.979,shape_ratio,2024.1.5,Win32,119.047619,684250e4f00cb30b92d1fa88,,,,,,,,,,,125.3985,125.8987,,,126.1487,126.982,right,0.8259,,,,,,,,,0.45,,,,,,125.8987,126.1487,126.982,"[-0.07196146553442452,0.025871967458845267]",4.0,"[0.009871940062728835,0.1630599447825255]",4.0,"[-0.11414275216314478,0.15956128266153521]",4.0,"[0.012801708857033833,-0.12858689324910028]",100.0,"[-0.050102741236763525,0.18222446173297607]",4.0,"[0.11238060068162432,-0.08384230704442745]",100.0,"[-0.1365035304464551,0.07940533714842128]",4.0,"[0.06655682930414103,-0.10944071946361851]",100.0,"[-0.04135983250813589,-0.10342279761215752]",4.0,"[0.14310492672536806,0.07691719447415714]",4.0,"[-0.04981974032685517,-0.18797968166800524]",4.0,"[-0.1348386548210097,0.03298614480751297]",4.0,"[0.06122011303221433,0.008546460442579935]",100.0,"[-0.011186956444508891,0.09198484566982389]",100.0,"[-0.1269890009055142,-0.10919462679459371]",4.0,"[-0.1735823448480015,0.0014683118243009792]",4.0,"[0.11721572152348848,-0.03196199458432611]",100.0,"[-0.07120634932767202,0.1176890481955449]",4.0,"[0.12458932267750837,-0.12457412387623822]",100.0,"[-0.1678931726534118,-0.04177395908114918]",4.0,"[0.007203557146970612,-0.02029098831724257]",4.0,"[-0.020450492759891355,0.027996655899155072]",100.0,"[0.05323355466062947,-0.18058604503996575]",4.0,"[0.03858893340475686,0.09727822621102881]",100.0,"[0.03566953431869649,0.0519964969436712]",4.0,"[0.15661710531826448,0.029219888999015134]",100.0,"[0.038461286075229036,-0.055098757426156546]",4.0,"[0.10280952040458323,0.12436850662807616]",100.0,"[-0.07890618005967548,0.07168537307907726]",100.0,"[-0.04050424254959309,-0.14635170263733124]",4.0,"[0.10348286210610179,-0.16902713313823836]",100.0,"[0.07077677037986649,0.1557874699112255]",100.0,"[0.02,0.02]",128.082,0.0,22.0,22.0,130.0,1.0,,,,,,,
,,,,,,,60fc39cce64c39328a7c8904,68442929b31074d12f757525,2025-06-07_13h57.49.979,shape_ratio,2024.1.5,Win32,119.047619,684250e4f00cb30b92d1fa88,,,,,,,,,,,128.0822,128.5822,,,128.8322,130.3324,,,,,,,,,,,0.5,,,,,,128.5822,128.8322,130.3325,"[-0.06699210514865199,-0.12851395097168478]",100.0,"[0.1428457025350119,0.0455896814715909]",100.0,"[-0.10606107982169068,0.16733768333771168]",100.0,"[-0.12348792830219353,0.12231697827139625]",4.0,"[-0.18110965884080787,-0.03447302445435592]",100.0,"[0.15629837256854126,-0.05812414769797909]",100.0,"[0.18878592156279542,-0.017356716516968608]",4.0,"[-0.029412360637959867,0.107744553752772]",4.0,"[-0.0359192137461577,-0.025572851272520333]",4.0,"[0.0973930304752623,-0.03519005818159442]",4.0,"[-0.0081452144192315,-0.1591231452148726]",100.0,"[-0.05468567811006315,-0.1692199749937462]",4.0,"[0.007716200442509019,-0.009315322483592924]",4.0,"[-0.0010654303262777828,0.07683476870263865]",100.0,"[0.04600771425913034,0.08535943143669569]",100.0,"[0.14759254390116164,-0.015056347184242381]",4.0,"[-0.07138342864500179,0.0649517514264289]",4.0,"[0.0468342703615953,-0.17748585432611114]",100.0,"[-0.11323772105306822,-0.05216458601816634]",100.0,"[0.14294881239626603,-0.113350076714663]",100.0,"[0.11043840703403164,0.15229091689373317]",100.0,"[0.00828455559077682,0.19640844436131094]",4.0,"[-0.0010245635939181736,0.1558741450021625]",100.0,"[0.07372131469332922,-0.07236101223864373]",4.0,"[-0.1364712184975575,0.07658668658821705]",100.0,"[0.17233081892536403,0.09748878893326654]",100.0,"[-0.043122091931812365,0.02422626608559836]",4.0,"[0.006696319279437044,-0.1002470865924248]",4.0,"[-0.1606731645398859,-0.0888435379031182]",4.0,"[-0.09871416614777145,0.0013905878523278526]",4.0,"[0.07919185886874183,-0.12854662781549256]",4.0,"[-0.18701153805168402,0.027754835634591402]",100.0,"[0.02,0.02]",131.4325,0.0,23.0,23.0,107.0,1.0,,,,,,,
,,,,,,,60fc39cce64c39328a7c8904,68442929b31074d12f757525,2025-06-07_13h57.49.979,shape_ratio,2024.1.5,Win32,119.047619,684250e4f00cb30b92d1fa88,,,,,,,,,,,131.4327,131.9328,,,132.183,132.8745,left,0.6868,,,,,,,,,0.9,,,,,,131.9328,132.183,132.8745,"[-0.10615391789098262,0.05878045502346079]",100.0,"[0.11737151265765107,0.08301596928520573]",100.0,"[-0.1630819076705161,0.01833986473450481]",100.0,"[-0.04864785290251982,0.11507911414679117]",100.0,"[0.13954928849469295,-0.1423407628213812]",100.0,"[0.032530574875359444,-0.16872828241341092]",100.0,"[-0.05288277573512382,-0.14640134154304144]",100.0,"[0.06918573804585142,-0.09662353732170634]",100.0,"[0.138266691209641,0.13149543286821425]",100.0,"[0.01796707172133899,0.06622132748138708]",100.0,"[0.1254744375205776,0.0397874248747609]",100.0,"[-0.19240770137138913,-0.026665890868575546]",100.0,"[-0.06035647433588991,-0.0029215787903134785]",100.0,"[0.09187305644024632,-0.04282787861517092]",100.0,"[-0.007202236453218607,0.197619992009043]",100.0,"[0.1724428651897395,0.061662232867550223]",100.0,"[0.07180590509607171,0.1350286214688317]",100.0,"[0.02476828747977073,0.1428381596525849]",100.0,"[0.156310827174377,-0.04882792641521387]",100.0,"[-0.10940647097556853,-0.049756544557967394]",100.0,"[-0.01371792802045969,-0.11544712848905102]",4.0,"[0.05125950369065612,-0.019192014487421378]",100.0,"[-0.1009766898213209,0.16883735788188547]",100.0,"[-0.05972337246151921,0.17414222778169866]",100.0,"[0.05552808772080137,0.09283772955827316]",100.0,"[0.1780513653553757,-0.00674176721463331]",100.0,"[0.08940107918482629,-0.0012738976433209807]",4.0,"[0.03939850575492253,0.18671962857408286]",100.0,"[-0.10153808340671708,-0.11278559751846919]",4.0,"[-0.09493876434996887,-0.16551083159190247]",100.0,"[-0.06728794133514361,-0.07181069353387565]",100.0,"[0.14290348170364675,-0.09339070702702537]",100.0,"[0.02,0.02]",133.9747,0.0,24.0,24.0,22.0,1.0,,,,,,,
,,,,,,,60fc39cce64c39328a7c8904,68442929b31074d12f757525,2025-06-07_13h57.49.979,shape_ratio,2024.1.5,Win32,119.047619,684250e4f00cb30b92d1fa88,,,,,,,,,,,133.9748,134.4747,,,134.7249,135.4083,left,0.6762,,,,,,,,,0.6,,,,,,134.4748,134.7249,135.4083,"[0.15539006098376815,-0.051252684200605414]",100.0,"[0.1346184824058138,-0.13939555408493282]",100.0,"[0.14625394509760573,0.023678279396549057]",100.0,"[-0.1600444371396188,-0.11372676874819349]",100.0,"[-0.07652940990086736,-0.17977310117910206]",4.0,"[0.03626003019519225,0.06312300398935054]",100.0,"[-0.0008447017804432675,0.019902645797513857]",100.0,"[0.023534593057337076,0.15054054546606407]",4.0,"[-0.038433474370525425,-0.11990926490098365]",100.0,"[0.1608176926394388,0.09118142896292156]",100.0,"[-0.1432696101350213,0.05562316282288041]",4.0,"[-0.06395597177558533,-0.010573966217178862]",4.0,"[-0.06865550874337396,0.0837589436635242]",100.0,"[-0.02624437382954668,-0.07646765868472731]",100.0,"[0.1071309046440477,0.13120156947880773]",100.0,"[0.11228371180291619,-0.030785895540504458]",100.0,"[-0.07945636747553922,-0.06317487297276682]",100.0,"[0.00896774605335216,-0.18242404019335876]",100.0,"[-0.09545611554917233,-0.1271807400594092]",100.0,"[0.07114192741865598,0.010936817337250231]",4.0,"[-0.0894760548291463,0.027480158491121443]",100.0,"[-0.08788416004696457,0.12378890148827303]",4.0,"[0.09417402783815727,-0.08344738069752354]",4.0,"[0.06714614101782003,-0.12251806757211292]",4.0,"[-0.1217947775937267,-0.031519281046390256]",4.0,"[0.06680126777479294,-0.17341843399914297]",100.0,"[0.0410208432023808,0.11382718219377011]",100.0,"[-0.03686907918727019,0.12948836040145587]",4.0,"[-0.1663475910513844,0.10226992622223326]",4.0,"[0.13761218753794363,-0.09527735049050641]",4.0,"[-0.024362521340459388,0.18176037270898562]",4.0,"[0.1916452466348913,0.0520112782895586]",100.0,"[0.02,0.02]",136.5085,0.0,25.0,25.0,41.0,1.0,,,,,,,
,,,,,,,60fc39cce64c39328a7c8904,68442929b31074d12f757525,2025-06-07_13h57.49.979,shape_ratio,2024.1.5,Win32,119.047619,684250e4f00cb30b92d1fa88,,,,,,,,,,,136.5086,137.0085,,,137.2587,137.817,left,0.5502,,,,,,,,,0.9,,,,,,137.0085,137.2587,137.817,"[0.068514445182071,-0.1507709570420632]",100.0,"[0.007261514639721488,-0.1839819057340191]",100.0,"[-0.1375093249153262,0.07795546558122719]",100.0,"[-0.09480312282343423,0.10716649772134564]",100.0,"[-0.008895912088436179,0.12011544524963191]",100.0,"[-0.020000314282632183,-0.003999973424868726]",100.0,"[-0.12730526075106138,-0.019603500590791634]",4.0,"[0.0937406363207929,-0.10694997118387746]",4.0,"[0.02617788143566871,-0.0006492592733442152]",100.0,"[-0.029465973806235012,0.060630534662903864]",100.0,"[0.027532284975694717,0.05978497964385311]",100.0,"[-0.138469854316425,0.03712146897567545]",100.0,"[0.12376121628133435,0.12575022274133776]",100.0,"[0.037998069810237414,0.16776338120329182]",100.0,"[-0.051312048750149074,0.15917918117673144]",100.0,"[-0.14416487806215889,-0.12555929674454708]",100.0,"[-0.003974380707913064,-0.07678432537631204]",100.0,"[0.11605771229126494,-0.04435902499083439]",100.0,"[0.1339987652676064,0.06454260860360454]",100.0,"[0.06862633998168942,-0.010431894973203041]",100.0,"[0.034217320414148496,-0.11323315125957084]",100.0,"[-0.08480685468375013,-0.10224694900642547]",100.0,"[0.03269233442510442,0.10407060101041707]",100.0,"[-0.1558802326897025,-0.0794664002782422]",100.0,"[-0.05009900624846555,0.1132347028383898]",100.0,"[-0.09126988992638171,-0.1538670598519053]",100.0,"[0.10947371540986855,-0.1568129452649787]",100.0,"[0.08368039291147276,0.09970238284938922]",100.0,"[-0.00395252543972145,0.16275781878281428]",4.0,"[-0.09605233333958095,0.17404490312547152]",100.0,"[0.17059012044811203,-0.0075553709995415455]",100.0,"[0.18264029273227256,0.06497913407953922]",100.0,"[0.02,0.02]",138.9172,0.0,26.0,26.0,7.0,1.0,,,,,,,
,,,,,,,60fc39cce64c39328a7c8904,68442929b31074d12f757525,2025-06-07_13h57.49.979,shape_ratio,2024.1.5,Win32,119.047619,684250e4f00cb30b92d1fa88,,,,,,,,,,,138.9174,139.4173,,,139.6675,140.3423,left,0.6726,,,,,,,,,0.55,,,,,,139.4173,139.6675,140.3423,"[0.19641702692530363,0.010704718678487081]",4.0,"[-0.016369977909715946,0.18049767302803524]",100.0,"[0.13818719409948774,-0.10466838254933553]",100.0,"[-0.1782603022171946,0.007078738730536995]",4.0,"[-0.10139608992216773,0.014303501515575604]",100.0,"[-0.02461594720148886,-0.06731120422196644]",100.0,"[0.13419840333929806,0.10392395736118626]",4.0,"[0.0001458346927031651,0.1389110707757486]",4.0,"[0.07933789546171224,-0.08132623362464322]",100.0,"[-0.11903926259732386,0.08215013159907995]",4.0,"[-0.1503991551018703,0.04991821171484992]",4.0,"[0.15316431464038036,0.06606941725297441]",100.0,"[0.031244118994194367,-0.1566562267462902]",4.0,"[-0.16398411100034335,-0.1133534861518901]",4.0,"[-0.06866247403426907,0.11014277229810114]",4.0,"[0.05345707866962044,0.18783125830824426]",100.0,"[0.02130612703269217,0.0881186960289738]",100.0,"[-0.1635057880173699,0.10343202699461063]",4.0,"[0.09309547734937133,-0.014765471932390474]",4.0,"[0.03778097527170418,-0.05262422283122888]",100.0,"[-0.04634732955951357,0.0249131460145048]",4.0,"[0.04598610496616874,0.13009236022346862]",4.0,"[-0.08004331490983833,-0.06934879553983556]",4.0,"[0.09221517080800894,0.1443531368692205]",100.0,"[-0.05274762310155854,-0.13426448843092403]",100.0,"[-0.1934250449556542,-0.030339335100069448]",100.0,"[0.07191281578161078,0.047594426617590835]",100.0,"[-0.12986995833146078,0.14485883865568594]",100.0,"[0.001780427640028037,-0.03474567237275905]",100.0,"[-0.10637337908931833,-0.11310137309234367]",100.0,"[-0.02590322009696448,0.08152096958515659]",100.0,"[-0.07524852003241168,0.06331976065919273]",100.0,"[0.02,0.02]",141.4426,0.0,27.0,27.0,79.0,1.0,,,,,,,
,,,,,,,60fc39cce64c39328a7c8904,68442929b31074d12f757525,2025-06-07_13h57.49.979,shape_ratio,2024.1.5,Win32,119.047619,684250e4f00cb30b92d1fa88,,,,,,,,,,,141.4427,141.9427,,,142.1928,142.7178,left,0.5215,,,,,,,,,0.9,,,,,,141.9427,142.1928,142.7178,"[-0.03625709899068999,0.08971976995896552]",100.0,"[-0.12299327437659052,0.07619411510408179]",100.0,"[-0.17125590053559972,-0.05166585002360767]",4.0,"[-0.0909394465096494,0.041468237635440816]",100.0,"[0.12567688706873312,-0.022330715434742302]",100.0,"[0.052229863398260384,-0.14243213968523444]",100.0,"[0.1296869755751836,0.13323616271141303]",100.0,"[0.12619681445604586,-0.09665957282467698]",100.0,"[0.03308346241637192,0.04297528596935367]",100.0,"[0.08612708273826683,0.03400239553863115]",100.0,"[-0.03390298555926582,-0.10156602493371608]",100.0,"[0.09061910251305319,0.09721797680659743]",100.0,"[-0.13245095860344322,0.023924247309153983]",100.0,"[-0.09756771617926285,-0.09440498927995652]",100.0,"[0.19637285004996477,0.03784929397951828]",100.0,"[-0.1910694627722108,0.050165238953852644]",100.0,"[0.06840008825295048,-0.04961815556205585]",100.0,"[-0.1319305271088953,-0.1315460633750413]",100.0,"[-0.03631216288085019,-0.18966880050979146]",100.0,"[0.14941656568104394,0.047720691709291545]",4.0,"[0.015089822677684809,-0.023127983253166194]",100.0,"[0.07798055134888704,-0.10976033743752836]",100.0,"[-0.0611607087339163,-0.003314751482347062]",100.0,"[0.1416893760049498,0.094774269404961]",100.0,"[0.1784613885332206,-0.02969077416094154]",4.0,"[-0.05533575086233416,0.1715401202858685]",100.0,"[-0.0013573105425135,0.174618864976574]",100.0,"[0.06826087733417698,0.15761661402207972]",100.0,"[0.021901829954112016,-0.08114434033048118]",100.0,"[0.049643699260404794,0.08121217449676323]",100.0,"[-0.056091271440633084,-0.15127572570347647]",100.0,"[-0.10755221079938501,-0.04554317106575723]",100.0,"[0.02,0.02]",143.818,0.0,28.0,28.0,17.0,1.0,,,,,,,
,,,,,,,60fc39cce64c39328a7c8904,68442929b31074d12f757525,2025-06-07_13h57.49.979,shape_ratio,2024.1.5,Win32,119.047619,684250e4f00cb30b92d1fa88,,,,,,,,,,,143.8181,144.3181,,,144.5682,145.1596,left,0.5869,,,,,,,,,0.6,,,,,,144.3181,144.5682,145.1596,"[-0.0011108575313139677,-0.18576405942976923]",4.0,"[0.1137001804898278,0.128600548451989]",100.0,"[0.014578588215086022,0.05864339751218981]",4.0,"[0.17567442458842605,-0.05425732402980729]",4.0,"[0.06345029296428761,-0.1738867527011374]",4.0,"[0.05308748233226632,-0.08815785171356183]",100.0,"[-0.048876472151565896,-0.07531354878487241]",100.0,"[0.12185646226048247,0.027341614860795636]",100.0,"[-0.14256831501787132,-0.018984983732814424]",100.0,"[0.007852031048573458,-0.04788442734120534]",4.0,"[0.14388703942797304,0.08725450720658073]",100.0,"[-0.1511317141076598,0.11045311218263329]",4.0,"[0.17882018794102317,0.035862837304029366]",4.0,"[-0.062376430904820916,-0.15388349973192103]",4.0,"[-0.17548428275383612,0.03518208605299234]",100.0,"[0.023663703315450143,0.0008688784139429247]",100.0,"[-0.07521271971566625,0.012783997982265411]",100.0,"[0.1515150437471578,-0.11271646735398017]",100.0,"[0.08066009212523727,0.07381748758931107]",100.0,"[-0.057043605917253146,0.05749380083965524]",100.0,"[-0.007535269039586835,0.15488984951884996]",100.0,"[0.01516313534958981,-0.14275114085549612]",100.0,"[0.0927933343914355,-0.004237161044400864]",4.0,"[0.04207253173268062,0.1667165667508469]",100.0,"[-0.11079383653041115,0.038607249685800676]",4.0,"[-0.08296650004009407,0.10522856372602642]",4.0,"[0.08521523155728904,-0.05224211002828775]",4.0,"[-0.08047127118342627,0.14662728296004096]",4.0,"[-0.1673888647003724,-0.0677673528783379]",100.0,"[-0.10872703523647095,-0.15612915602361663]",100.0,"[-0.1221423061295057,0.07820403173900026]",100.0,"[-0.11050190310107201,-0.04990572409793568]",100.0,"[0.02,0.02]",146.2599,0.0,29.0,29.0,44.0,1.0,,,,,,,
,,,,,,,60fc39cce64c39328a7c8904,68442929b31074d12f757525,2025-06-07_13h57.49.979,shape_ratio,2024.1.5,Win32,119.047619,684250e4f00cb30b92d1fa88,,,,,,,,,,,146.26,146.7601,,,147.0102,147.5018,left,0.4848,,,,,,,,,0.5,,,,,,146.7601,147.0102,147.5018,"[0.15677360921957234,-0.014382832765540409]",4.0,"[0.09627218419314985,0.08935420525516981]",4.0,"[-0.13677081590573614,0.013855112567918743]",4.0,"[-0.11026232173245949,-0.08350269800731742]",4.0,"[0.03664316246722695,-0.13347599173508523]",4.0,"[-0.0009247276424512482,-0.18656819678941672]",100.0,"[-0.013344292287414754,0.036656974266804365]",100.0,"[0.13694966979897655,-0.06351027445813963]",100.0,"[0.15532780533845578,-0.11581000213652311]",100.0,"[0.10840878945173126,-0.16024053520234624]",100.0,"[0.07416826783089016,0.01708775490682085]",100.0,"[-0.012249028130257848,-0.12627851249055608]",4.0,"[-0.12288765737757137,0.11660520749511583]",4.0,"[-0.0874176659870113,0.0272586580255379]",100.0,"[-0.05255952774677668,-0.1637832286406965]",4.0,"[-0.19516861005719346,0.03545789123502841]",100.0,"[0.13038874186557442,0.13938627460864592]",100.0,"[-0.15977467218131125,-0.10528049554185147]",4.0,"[0.1452711940635239,0.04234893106593147]",100.0,"[0.048699363612052265,0.11464108129476434]",4.0,"[0.006400325429261811,-0.055814856718132015]",4.0,"[-0.07588055635836355,0.1455445268049026]",4.0,"[0.07675344737709439,-0.12111820127214608]",100.0,"[0.08883467806204927,-0.028468663425113297]",100.0,"[-0.06183469802087021,-0.03611166051865323]",4.0,"[0.19075536881989286,0.04722218418433034]",100.0,"[-0.024087739169671118,0.09075934027291602]",4.0,"[-0.17043895536308912,0.08480180245684893]",100.0,"[-0.07721522646555662,0.06937651695986763]",100.0,"[-0.02003841672051803,-0.01622670856528701]",100.0,"[0.03783981628230664,-0.17527003895708873]",4.0,"[-0.13238481148068354,-0.13895360764307443]",4.0,"[0.02,0.02]",148.6021,0.0,30.0,30.0,95.0,1.0,,,,,,,
,,,,,,,60fc39cce64c39328a7c8904,68442929b31074d12f757525,2025-06-07_13h57.49.979,shape_ratio,2024.1.5,Win32,119.047619,684250e4f00cb30b92d1fa88,,,,,,,,,,,148.6022,149.1021,,,149.3522,149.7855,right,0.4265,,,,,,,,,0.6,,,,,,149.1021,149.3522,149.7855,"[0.05813871917808557,-0.06324553849872998]",4.0,"[0.11043036043990245,-0.11494739819719199]",100.0,"[-0.11352290371343352,0.1132377122864793]",100.0,"[0.14165924136687513,0.10264498035390443]",4.0,"[-0.1829689708009217,0.044068693863722794]",4.0,"[-0.00842234157370405,-0.11054430617969407]",4.0,"[-0.06996175303618052,0.057549820152832824]",100.0,"[-0.0970268985578739,-0.1607768102766483]",100.0,"[-0.0022311103964128896,-0.01199430914280947]",4.0,"[-0.1692511026978345,0.09228386931036957]",4.0,"[-0.0066563416140621706,0.19347370992568952]",100.0,"[-0.027001600908272545,-0.06201007287451757]",100.0,"[0.015143229908427515,-0.07820074626871058]",100.0,"[0.11846654037622507,-0.029700123012473826]",100.0,"[0.06482009530350571,0.08361927694449897]",4.0,"[0.012506174186993093,0.11495749800790159]",100.0,"[-0.14157391487249021,-0.11231227967041009]",100.0,"[-0.08786138802737203,-0.009570336326197113]",100.0,"[0.17050681215811786,-0.09049306054726429]",100.0,"[0.03403932051960186,0.16849443714899495]",100.0,"[0.02290924966488074,-0.17984371876490474]",4.0,"[-0.026664321274976584,-0.16687163563489557]",100.0,"[0.16486868348245995,0.03862283229021906]",100.0,"[0.12811401097324562,0.06462406844034574]",4.0,"[-0.0775650925728877,-0.04912858110102033]",4.0,"[-0.03757244312812586,0.021113803436349315]",4.0,"[0.10167942747614288,0.14328975145937015]",100.0,"[0.12859315733175017,0.013165320112338107]",4.0,"[-0.06614408702331638,-0.08822829276757747]",4.0,"[0.048044282300140885,-0.1253352369022286]",100.0,"[0.032397750597151796,0.05589680134723936]",100.0,"[-0.010604321833059975,0.1481670024137802]",100.0,"[0.02,0.02]",150.8857,0.0,31.0,31.0,47.0,1.0,,,,,,,
,,,,,,,60fc39cce64c39328a7c8904,68442929b31074d12f757525,2025-06-07_13h57.49.979,shape_ratio,2024.1.5,Win32,119.047619,684250e4f00cb30b92d1fa88,,,,,,,,,,,150.8859,151.3858,,,151.636,152.2109,left,0.5688,,,,,,,,,0.55,,,,,,151.3858,151.636,152.2109,"[-0.04203537074143101,-0.10507805604300413]",4.0,"[-0.017650198023846177,0.14065069870844044]",100.0,"[0.06595185364255582,0.02995451663774398]",100.0,"[-0.07533249537153759,0.059258736847385224]",100.0,"[-0.17620748817087695,0.09138514204734126]",100.0,"[0.00575340733516162,-0.09010948922432833]",100.0,"[0.16326301442588448,-0.00923798222277994]",4.0,"[0.0906372066335554,0.07302477446414828]",100.0,"[0.19276201393162237,0.04687679743871157]",100.0,"[-0.08922624990709553,-0.048438882295543724]",4.0,"[0.0794030945654742,0.14587735911423824]",100.0,"[-0.10148941460482974,0.0895664382207682]",4.0,"[-0.03958463997546175,0.10362432291211704]",100.0,"[-0.09527813806478205,-0.13191898509008826]",4.0,"[0.1441960012182955,-0.06699080519174415]",100.0,"[-0.04176777907255266,-0.15244011533672075]",4.0,"[-0.02801015483228365,-0.03064036133379921]",100.0,"[0.05734018053442227,-0.18022328613888444]",100.0,"[0.046159864067427364,0.08759500543080481]",100.0,"[0.159534473416225,0.11761849833189077]",4.0,"[0.020635863412654575,-0.010554332523231616]",4.0,"[0.040759024248349644,-0.13315242794704052]",100.0,"[-0.19266863070104104,-0.0062415827974137235]",100.0,"[-0.17452898495924257,-0.07344023598812098]",4.0,"[0.006928239137409242,0.03723438621436745]",100.0,"[0.06258431918766186,-0.07625934587881925]",4.0,"[-0.18709014861860448,0.03337971527864424]",100.0,"[-0.1299980718744043,-0.08416955895176917]",4.0,"[0.0596502174580068,-0.02197092556465026]",4.0,"[0.00017339412191990118,0.18001334257154492]",4.0,"[0.00829591938950959,-0.17867745840894242]",100.0,"[-0.1341983814941094,-0.01626587911384334]",4.0,"[0.02,0.02]",153.3111,0.0,32.0,32.0,71.0,1.0,,,,,,,
,,,,,,,60fc39cce64c39328a7c8904,68442929b31074d12f757525,2025-06-07_13h57.49.979,shape_ratio,2024.1.5,Win32,119.047619,684250e4f00cb30b92d1fa88,,,,,,,,,,,153.3112,153.8112,,,154.0613,154.6196,left,0.555,,,,,,,,,0.5,,,,,,153.8112,154.0613,154.6196,"[-0.052148373724305926,0.13286767368605695]",100.0,"[0.006483272488174642,-0.15370644596758642]",4.0,"[0.024117848875107893,0.1093745390107172]",100.0,"[-0.145737650939798,-0.005488213616310328]",100.0,"[0.12090404674886544,-0.04378859993699093]",100.0,"[-0.032301375987884635,0.01542083971626542]",4.0,"[-0.16248988165255593,0.056471303059841604]",4.0,"[-0.09946485270451516,0.08337728806517203]",4.0,"[-0.0681806121404826,-0.09144951584857301]",100.0,"[0.023046733108402568,-0.03278694274225073]",100.0,"[0.055968958171800226,-0.06179526845353495]",100.0,"[-0.16098194225254955,-0.05321073313594091]",4.0,"[-0.01558770311614516,-0.11200413241623951]",4.0,"[0.18700934011275216,0.03115660085025013]",100.0,"[0.12368527201334435,0.002125417581427412]",100.0,"[0.15832090890064734,0.08423283758976288]",4.0,"[-0.1227499503305191,-0.09148933825623849]",4.0,"[0.07854507237893062,-0.014204249612060986]",100.0,"[0.19574861239075136,-0.026486327169521585]",4.0,"[0.1468708168852437,-0.13210374403190872]",100.0,"[-0.07922009260337477,-0.02272063481449341]",100.0,"[-0.07138503854463518,-0.14337179411780315]",4.0,"[0.13443925459790482,0.04393918706971462]",100.0,"[0.08067922870881156,0.16654716309609324]",4.0,"[0.06556378935654883,0.10801226181506597]",4.0,"[-0.15916346760887345,0.11791646677588061]",4.0,"[-0.04376944630280392,0.17985533411628532]",4.0,"[0.14769440354830285,0.13092799923423584]",4.0,"[0.13050997773133957,-0.09201185239013676]",4.0,"[-0.1871880741676383,-0.022725902913733123]",100.0,"[0.08588628877243502,-0.12723247684324776]",100.0,"[0.0462682128184667,-0.16669346002082563]",100.0,"[0.02,0.02]",155.7198,0.0,33.0,33.0,103.0,1.0,,,,,,,
,,,,,,,60fc39cce64c39328a7c8904,68442929b31074d12f757525,2025-06-07_13h57.49.979,shape_ratio,2024.1.5,Win32,119.047619,684250e4f00cb30b92d1fa88,,,,,,,,,,,155.7199,156.2199,,,156.4701,156.9283,right,0.4525,,,,,,,,,0.1,,,,,,156.2199,156.47,156.9283,"[-0.10891399494690071,0.11860059933528683]",4.0,"[0.05391724340952097,0.08038492330007752]",4.0,"[-0.09577163187671175,-0.0006559927109133801]",4.0,"[-0.06065494335542547,-0.12383642119066403]",100.0,"[0.1488790947672016,-0.01840360938046086]",4.0,"[0.19975992629306985,-0.003545284474072937]",100.0,"[-0.1361842274114369,0.08080605842339128]",4.0,"[-0.04676430093192373,0.17508233664711687]",4.0,"[0.06180346880336847,-0.13118215438112632]",4.0,"[0.013060324652422404,0.07024271269971004]",4.0,"[0.10808501250184502,0.12063591701268887]",4.0,"[-0.15991278103817366,-0.06522281316107677]",4.0,"[0.09054820970260707,-0.09168574939116048]",4.0,"[0.09890765337580953,-0.16047311748639154]",4.0,"[-0.051905280730895634,0.09170756795792862]",4.0,"[0.0002434097009730651,0.016117223429948476]",4.0,"[-0.07988383785280583,-0.07230588971931988]",100.0,"[0.048545194747917755,0.18337759491130873]",4.0,"[-0.044256805044357105,-0.16233587709575983]",4.0,"[0.04848046580790381,0.0115519844398475]",4.0,"[-0.1717281168801451,0.01187064666569768]",4.0,"[0.014331597822046417,-0.1497051925672564]",4.0,"[0.03243580872547476,-0.02553621083179922]",4.0,"[0.09137251772374338,0.04664121370860407]",4.0,"[0.14817709682787694,-0.07485555949867233]",4.0,"[-0.12895612773168724,-0.14521057057276376]",4.0,"[-0.007632752890418548,0.11054048163270541]",4.0,"[0.04067249434787626,-0.18734309258361098]",4.0,"[0.00068328956625335,-0.10197265950671093]",4.0,"[-0.025032115699225133,0.05512696053184157]",4.0,"[-0.1374997546677803,-0.03078672103205374]",4.0,"[0.1372988547839657,0.046862885553927855]",4.0,"[0.02,0.02]",158.0285,0.0,34.0,34.0,201.0,1.0,,,,,,,
,,,,,,,60fc39cce64c39328a7c8904,68442929b31074d12f757525,2025-06-07_13h57.49.979,shape_ratio,2024.1.5,Win32,119.047619,684250e4f00cb30b92d1fa88,,,,,,,,,,,158.0286,158.5284,,,158.7787,159.2369,right,0.4506,,,,,,,,,0.1,,,,,,158.5284,158.7787,159.237,"[0.1315716961091076,0.053310374339003354]",4.0,"[-0.057034004171813986,0.19114643212227606]",4.0,"[0.06312170508803423,-0.007927630076707293]",4.0,"[-0.025778395098305817,-0.052806971649683974]",4.0,"[0.09488683792040603,-0.09539822240164535]",4.0,"[-0.07873701340234562,-0.04773980478822259]",4.0,"[-0.05585291049615374,-0.17956271550421912]",4.0,"[-0.12134189243813663,-0.0664498432285084]",4.0,"[-0.18518268088152773,0.01688287447060986]",4.0,"[0.19044302951829095,-0.027609670050083204]",4.0,"[-0.009855203216161164,-0.1457070525427148]",4.0,"[0.11628475988594435,-0.044360178998917386]",4.0,"[0.027079822010707088,0.1557907815799234]",4.0,"[0.14054117047608583,-0.09312454553395828]",4.0,"[0.004129996734461165,-0.004238934605541101]",4.0,"[-0.18259439292489438,-0.03723091920607534]",4.0,"[-0.1696977223136524,-0.07683314377594373]",4.0,"[-0.07811006279881759,-0.004398387560791135]",4.0,"[0.12492305875202563,0.010314778354462224]",4.0,"[0.022627334409158737,-0.10302664630461088]",4.0,"[-0.14577894681326306,0.06317170775878712]",4.0,"[-0.14746955406907866,-0.12337588064414556]",4.0,"[0.010556079342510063,-0.18328973500732815]",4.0,"[0.08735212756249053,0.15236155492269798]",100.0,"[-0.040798962331315816,0.08607888210193301]",100.0,"[0.09891732801601903,0.0793659250703253]",4.0,"[-0.14501829149264914,0.10898000173373269]",4.0,"[0.17223074144565254,0.04913316241808493]",4.0,"[-0.11731755141546778,-0.02443454051280299]",4.0,"[-0.11041319403069592,0.13276062239200737]",100.0,"[-0.015590581878312615,0.1291505905398972]",4.0,"[-0.09442713045414565,-0.13892400413855474]",4.0,"[0.02,0.02]",160.3371,0.0,35.0,35.0,190.0,1.0,,,,,,,
,,,,,,,60fc39cce64c39328a7c8904,68442929b31074d12f757525,2025-06-07_13h57.49.979,shape_ratio,2024.1.5,Win32,119.047619,684250e4f00cb30b92d1fa88,,,,,,,,,,,160.3372,160.8373,,,161.0873,161.7289,left,0.6392,,,,,,,,,0.55,,,,,,160.8373,161.0872,161.7289,"[-0.04049898858854375,-0.19271589129891972]",100.0,"[0.024541022107445604,-0.06016480557917723]",100.0,"[-0.043522407280527566,-0.006077612133432616]",4.0,"[0.03763775280312326,0.0623046879901562]",4.0,"[0.08072537436561027,-0.08518399583070836]",100.0,"[0.04489012801337978,-0.1396124436789738]",100.0,"[0.015504528679565676,0.18425001791526863]",100.0,"[0.14840546941051685,-0.0357332769106506]",4.0,"[0.11125340165391967,0.09458999974033985]",100.0,"[-0.08053952782962434,-0.06080604798032709]",4.0,"[-0.09850312631290216,0.09610683740110135]",4.0,"[0.02239387622465593,0.10019007353204233]",100.0,"[0.1359111172414483,0.0234765425197129]",100.0,"[0.05538064674497601,0.1714840081595126]",4.0,"[0.03632410583264939,-0.0006761189611112859]",100.0,"[-0.046673531779675335,-0.13410007745239774]",4.0,"[-0.015775510427172387,0.14648966679055284]",100.0,"[-0.14978921987060856,0.026547881287721804]",4.0,"[0.10692510370807108,-0.13961254480076113]",100.0,"[-0.19243466105188733,0.025879562502175293]",4.0,"[0.10042149646450794,0.14988074896102854]",100.0,"[0.1595610920108653,0.09209149790416228]",4.0,"[-0.11958970488655774,-0.14531858415936855]",100.0,"[-0.062040430094029174,0.05153349728315091]",4.0,"[0.0901394341089563,-0.03727871802705048]",100.0,"[-0.13866371382528064,0.11571768630442786]",100.0,"[-0.07436401921229342,-0.10439199031454552]",100.0,"[0.17695725556164146,-0.004045799256588686]",4.0,"[0.04242061008165384,-0.18134100487113258]",4.0,"[-0.018604250836839108,-0.07241753678699585]",4.0,"[-0.14748128140621442,-0.03810123081553414]",100.0,"[-0.07017530003069293,0.1812355512987754]",100.0,"[0.02,0.02]",162.8292,0.0,36.0,36.0,83.0,1.0,,,,,,,
,,,,,,,60fc39cce64c39328a7c8904,68442929b31074d12f757525,2025-06-07_13h57.49.979,shape_ratio,2024.1.5,Win32,119.047619,684250e4f00cb30b92d1fa88,,,,,,,,,,,162.8293,163.3294,,,163.5794,164.196,left,0.6112,,,,,,,,,0.5,,,,,,163.3294,163.5794,164.1961,"[0.018941342053600783,-0.18966957666496048]",4.0,"[0.01405292795233555,-0.04616355515457112]",100.0,"[0.08705584323486552,-0.03499387633920092]",100.0,"[-0.1621735293527127,-0.047371211175582656]",100.0,"[0.11228351869030068,0.06901510838576119]",4.0,"[0.1821837235182256,-0.04757661087004049]",4.0,"[0.12312062938610857,0.1410276014229282]",4.0,"[-0.121116362536854,0.026228750893389673]",100.0,"[-0.10898558809645378,0.10351224081360946]",100.0,"[-0.18047170559625056,0.06821729097595895]",100.0,"[-0.004358836647830292,0.08710199057908764]",4.0,"[-0.03286292086390912,-0.05985818243806268]",4.0,"[-0.017938869457966286,-0.011782807796653838]",4.0,"[0.17098614717479285,0.08364939911458949]",4.0,"[-0.1090464886432758,-0.1438605365298422]",100.0,"[-0.054969054818792676,-0.150917426474885]",100.0,"[0.08981141331678234,-0.07846704427613893]",4.0,"[-0.042391167792520244,0.12331608393805277]",100.0,"[0.0667386052206351,0.024317679319386668]",4.0,"[-0.07344591376728965,0.014346809645024215]",100.0,"[-0.03904702579739882,0.18492471174729844]",100.0,"[0.06606119271732903,0.08515503889165889]",100.0,"[0.08095399740378705,-0.1653520131219265]",4.0,"[-0.0757723301132314,-0.11521781118272949]",4.0,"[-0.09257165549593983,-0.07516308364217034]",4.0,"[0.16543492637815743,0.043566015614915146]",100.0,"[-0.0036669839531766582,-0.10819178681443259]",100.0,"[0.10425682460293854,-0.1257647092293238]",100.0,"[0.12569519116799754,-0.05724159629538075]",4.0,"[0.024818802581634304,0.1828201725992945]",4.0,"[-0.1177428579921091,-0.02421359511612136]",4.0,"[-0.13003076131339433,0.1375717329601935]",100.0,"[0.02,0.02]",165.2962,0.0,37.0,37.0,111.0,1.0,,,,,,,
,,,,,,,60fc39cce64c39328a7c8904,68442929b31074d12f757525,2025-06-07_13h57.49.979,shape_ratio,2024.1.5,Win32,119.047619,684250e4f00cb30b92d1fa88,,,,,,,,,,,165.2963,165.7964,,,166.0463,166.6465,left,0.5963,,,,,,,,,0.45,,,,,,165.7964,166.0463,166.6465,"[0.10283410928364765,0.0785834615430209]",100.0,"[-0.09367535950538461,-0.07774638396217377]",100.0,"[-0.1426058233221375,0.0026526647707189343]",4.0,"[0.02969348064667594,0.014172432437865543]",100.0,"[-0.17558587598338884,-0.034667238464617355]",100.0,"[-0.021265107635768866,-0.192432544137481]",4.0,"[0.10785523496242522,-0.154250417365263]",100.0,"[0.1835353732950851,-0.016065931242730418]",4.0,"[-0.08934479017898815,-0.1538399510511249]",100.0,"[-0.12332563271163295,0.122236333981255]",4.0,"[0.04613221852972243,-0.05694780839707602]",4.0,"[0.18886975508566817,0.026560316083322984]",4.0,"[0.16028462364619048,-0.08531912676378711]",4.0,"[-0.00696411931297231,-0.10900188525184872]",4.0,"[-0.09513350631704548,0.06829578363815693]",100.0,"[0.09070716762027699,-0.05524460734891953]",4.0,"[0.137334531687942,0.00022841990174124902]",100.0,"[-0.006434748065950547,-0.05981327612908937]",100.0,"[0.11110577197564486,-0.09902503959827424]",100.0,"[-0.047497580878973995,0.10911530279773285]",4.0,"[-0.03762178190843392,-0.01946946829944407]",100.0,"[0.06271503516706921,0.08654057804440711]",4.0,"[0.0059534485259879946,0.16792419989366786]",4.0,"[0.0734562147966316,-0.014501684415773744]",100.0,"[-0.03529387678231135,-0.14311755099241227]",4.0,"[-0.03896228696678315,0.15665897102714194]",4.0,"[-0.15269711118676818,-0.07954897954823792]",4.0,"[-0.08722166162122992,-0.0069914296780714865]",4.0,"[-0.13045181560560284,-0.1263972252601952]",4.0,"[0.05859805517928005,-0.12139575479643948]",100.0,"[-0.04776385759696317,0.03007208462504077]",4.0,"[0.06438467424935541,-0.188151264033583]",100.0,"[0.02,0.02]",167.7466,0.0,38.0,38.0,121.0,1.0,,,,,,,
,,,,,,,60fc39cce64c39328a7c8904,68442929b31074d12f757525,2025-06-07_13h57.49.979,shape_ratio,2024.1.5,Win32,119.047619,684250e4f00cb30b92d1fa88,,,,,,,,,,,167.7467,168.2466,,,168.4968,169.1468,left,0.6432,,,,,,,,,0.55,,,,,,168.2467,168.4968,169.1468,"[0.05685278008262206,0.1030386759813751]",100.0,"[-0.0034996215811293834,0.07398467598252623]",4.0,"[-0.09945897450949738,-0.036450515057509174]",4.0,"[0.04861876738111664,0.06346526839835684]",4.0,"[-0.0264584665938439,-0.11366101035598226]",100.0,"[-0.05796154452227575,0.1179346870750446]",4.0,"[0.03391375688786314,-0.10740127592409857]",4.0,"[0.16692356705968572,-0.09580702110648577]",4.0,"[-0.1344475576764929,-0.13599138856882964]",100.0,"[0.14156305676946784,0.04278075988599691]",100.0,"[-0.18102494700075555,-0.011194518386846408]",100.0,"[-0.059761786644507535,0.015894810681313782]",100.0,"[0.1281939080683922,0.12072614597116761]",100.0,"[0.18400436092229902,0.0065632087164734145]",100.0,"[0.06705000037630914,-0.01020142877521376]",100.0,"[-0.14125090134780702,0.08006094331593051]",4.0,"[-0.04550110299431768,0.0548777271562317]",100.0,"[-0.04360284563834821,0.19056688623409676]",4.0,"[0.026881798795851265,-0.04892923875665256]",4.0,"[0.01836693854457085,0.1333605877609507]",100.0,"[-0.1624469217136093,-0.0839627762501283]",100.0,"[0.0867285560353805,-0.047346756880223814]",100.0,"[-0.028494196715721565,-0.02217679838533489]",100.0,"[-0.06452980986830029,-0.06754151704347787]",100.0,"[-0.10973884191361276,-0.09752723502677675]",100.0,"[-0.18761386154419948,0.05893438851267164]",100.0,"[-0.13628719059030478,0.016909689695517267]",4.0,"[0.09390772231541561,-0.14645306720749857]",4.0,"[0.1926710783778429,-0.04580482754184774]",4.0,"[0.08271468251632301,0.13950359888171796]",4.0,"[-0.07724221343453483,-0.14665529566954413]",100.0,"[0.010341499672121864,-0.0050489484354299344]",4.0,"[0.02,0.02]",170.247,0.0,39.0,39.0,73.0,1.0,,,,,,,
,,,,,,,60fc39cce64c39328a7c8904,68442929b31074d12f757525,2025-06-07_13h57.49.979,shape_ratio,2024.1.5,Win32,119.047619,684250e4f00cb30b92d1fa88,,,,,,,,,,,170.2472,170.7469,,,170.9972,171.4388,left,0.4379,,,,,,,,,0.9,,,,,,170.7469,170.9972,171.4388,"[0.06489424789456671,-0.04948246869838906]",100.0,"[-0.14512932648675034,-0.025906749104555975]",100.0,"[-0.13399192939489518,0.04942303650579165]",100.0,"[-0.06404846529077615,-0.04786999043374886]",100.0,"[-0.09939684639389097,0.07437950366905043]",100.0,"[0.007107156206484976,-0.10457322878708349]",100.0,"[-0.10439125877755528,-0.06644591773904922]",4.0,"[-0.10054595185035885,-0.13407678538949894]",100.0,"[0.16154600722755166,-0.013608528257752871]",100.0,"[-0.060505887453226076,0.06398789644713372]",100.0,"[0.14930192112008436,0.030964894474473807]",4.0,"[-0.0010260403272123314,0.17321272894377254]",100.0,"[-0.0032715272870969146,0.0374785665351938]",100.0,"[0.11786036256916446,0.002564832939083622]",100.0,"[0.16171739853447545,0.08696853079350043]",100.0,"[0.03526190621619791,0.05404545792264761]",100.0,"[0.12328980646561667,-0.12330779192533037]",100.0,"[0.05964760082418736,0.177764321799308]",100.0,"[0.09351486468616735,-0.15781149261179292]",100.0,"[-0.05059314418602353,-0.12929778884905854]",100.0,"[0.1395298383016934,-0.04873218058141885]",100.0,"[-0.17944400104588706,-0.07232489217032072]",100.0,"[0.07114755625565045,0.10836815253981541]",100.0,"[0.027049606629635504,0.14066746522285575]",100.0,"[0.06204440092628016,-0.09232278188216791]",100.0,"[-0.14908853230461178,-0.12955359585226905]",100.0,"[0.003452905908188151,-0.009936745300850211]",100.0,"[-0.07108050519900759,0.1216306048658823]",100.0,"[-0.07857719945351008,0.023928893792196614]",100.0,"[0.03507028609584767,-0.15785440379880494]",4.0,"[-0.06993357865129267,0.17159464225845875]",100.0,"[0.0008462138193037616,-0.054169225309149215]",100.0,"[0.02,0.02]",172.5391,0.0,40.0,40.0,9.0,1.0,,,,,,,
,,,,,,,60fc39cce64c39328a7c8904,68442929b31074d12f757525,2025-06-07_13h57.49.979,shape_ratio,2024.1.5,Win32,119.047619,684250e4f00cb30b92d1fa88,,,,,,,,,,,172.5392,173.0391,,,173.2893,173.7808,left,0.4856,,,,,,,,,0.4,,,,,,173.0391,173.2892,173.7808,"[-0.05453346347510195,0.06341627534232952]",100.0,"[-0.039609510022334087,-0.192475492438777]",4.0,"[-0.09915464991527793,0.011572612539668223]",4.0,"[-0.020735655654913237,-0.007140794726390055]",4.0,"[0.12285405012497184,0.08050506171903761]",4.0,"[0.09416788129309446,-0.07542949310537927]",4.0,"[0.046498696204743374,0.014262903381085178]",4.0,"[-0.15678345509857178,0.04826313860230365]",100.0,"[0.008447598352499301,0.05531199126728681]",4.0,"[-0.10056510871856968,0.11991772964941246]",4.0,"[-0.04518145878091927,-0.054199121010295795]",100.0,"[0.07464699875164893,0.11642347580384003]",100.0,"[0.16213906912588624,-0.10808665765227937]",4.0,"[0.18274617277553024,-0.053548618700837165]",100.0,"[0.017589776119604262,-0.08164016918130447]",4.0,"[-0.09508212351886906,-0.03093973482173682]",4.0,"[0.027022439565653388,0.15946190315565775]",4.0,"[-0.1258502986226907,-0.11210885200995896]",4.0,"[0.07347412102319316,-0.15024190038567173]",100.0,"[0.05478368177967625,0.1888932043495048]",4.0,"[0.01821513738759095,-0.02517965988355722]",100.0,"[-0.03891244004225079,0.16829107881355998]",4.0,"[0.1581889253769012,0.013391822780061822]",100.0,"[-0.16606512543109692,-0.0503422412773474]",100.0,"[0.02461068581727414,-0.1768001337564498]",100.0,"[0.06869791959102885,-0.029053929155024236]",4.0,"[-0.11344965226977706,0.07630022979099457]",100.0,"[0.014563616485536342,0.09927896639489432]",4.0,"[-0.011440618219696132,-0.1514300251190043]",4.0,"[-0.19508764244295862,0.007281566745636674]",100.0,"[-0.11783957675316954,-0.15532378981541992]",4.0,"[-0.05653644929096482,-0.10560759584430611]",100.0,"[0.02,0.02]",174.8811,0.0,41.0,41.0,169.0,1.0,,,,,,,
,,,,,,,60fc39cce64c39328a7c8904,68442929b31074d12f757525,2025-06-07_13h57.49.979,shape_ratio,2024.1.5,Win32,119.047619,684250e4f00cb30b92d1fa88,,,,,,,,,,,174.8811,175.3811,,,175.6313,176.1395,right,0.5071,,,,,,,,,0.1,,,,,,175.3811,175.6313,176.1395,"[-0.1523186112363207,0.038594749581450795]",100.0,"[0.1698597999922881,-0.09295055584938493]",4.0,"[0.044883765742624926,0.15290321928845668]",4.0,"[-0.0749786587156316,-0.11003899030762111]",100.0,"[0.16982926799861492,0.0920533981851208]",4.0,"[-0.08746412579035176,0.17159348631933308]",100.0,"[-0.15814114803739396,-0.05825163524884773]",4.0,"[-0.062498072228063126,-0.02263063130991625]",4.0,"[0.04631292016875791,-0.17760119903767588]",4.0,"[0.10462288666077482,-0.1134127326055307]",4.0,"[0.03403919692135575,0.021298839289553277]",4.0,"[-0.014552557285993728,0.1988377782332694]",4.0,"[0.19191320611848411,0.04189112478794019]",4.0,"[0.15092508692864184,0.056475354728079304]",4.0,"[0.11806044593860271,-0.01821755081306918]",4.0,"[0.010996965161572876,-0.13707886976291056]",4.0,"[-0.015333267159596571,-0.0015533489945099503]",4.0,"[-0.1521903917559099,-0.12412501397787568]",4.0,"[-0.1406063427180782,-0.0016425771709394968]",4.0,"[0.08711082608843423,0.09559957248491416]",4.0,"[0.13872371475105982,0.1285392197027216]",4.0,"[-0.1675648146218375,0.08443778132732487]",4.0,"[-0.05378854980162865,0.06655195171421281]",4.0,"[0.1759554634933226,-0.012080878233886648]",4.0,"[-0.017932491703862137,0.1098956863864003]",4.0,"[0.14290443008599815,-0.0499927854938345]",4.0,"[0.04561038191757858,-0.03970856151645208]",4.0,"[-0.02968142863880714,-0.0979519523494671]",4.0,"[0.08230616109920727,0.05368890225352861]",4.0,"[-0.02416371721276615,-0.16357589918786572]",4.0,"[-0.11315821185335394,-0.08481933659972915]",4.0,"[-0.06654961950063577,-0.1631162196119082]",4.0,"[0.02,0.02]",177.2397,0.0,42.0,42.0,184.0,1.0,,,,,,,
,,,,,,,60fc39cce64c39328a7c8904,68442929b31074d12f757525,2025-06-07_13h57.49.979,shape_ratio,2024.1.5,Win32,119.047619,684250e4f00cb30b92d1fa88,,,,,,,,,,,177.2398,177.7398,,,177.99,178.5649,left,0.567,,,,,,,,,0.5,,,,,,177.7398,177.99,178.5649,"[0.029529864129010076,-0.195951390002686]",100.0,"[0.14503339757226813,0.028350708147583118]",4.0,"[0.09182614706308534,0.0907835442191183]",100.0,"[0.09053652074578007,0.16235312925976614]",4.0,"[-0.15539495737154455,0.10203846648706377]",4.0,"[-0.11734529547709624,0.0557259948147682]",100.0,"[-0.09033842107202793,0.16111081987846212]",100.0,"[-0.08236125011176648,-0.13200401839471484]",4.0,"[0.0655509582005363,0.011759784594063986]",100.0,"[0.19928342725216122,-0.014270307523273077]",4.0,"[0.0040493464315267454,-0.0323825584295421]",100.0,"[0.03690363725763154,-0.05908829595018836]",4.0,"[0.048663986426988104,0.09232153649235315]",100.0,"[-0.17834097529516585,-0.008521660707039254]",4.0,"[-0.04438815033554805,0.03270533611777579]",100.0,"[-0.07412708947536795,0.10100103641235057]",4.0,"[-0.005294769886469478,-0.12239415979915917]",4.0,"[0.1425386332595783,0.11321011084623103]",100.0,"[0.06319945553681768,-0.1337589755552108]",100.0,"[0.026089001944649227,0.1586620156743405]",100.0,"[-0.14490419256955672,-0.12148804936285794]",4.0,"[-0.031052550678296098,0.10476089322475621]",100.0,"[0.09362200032474423,0.0433911466789001]",100.0,"[0.10698456953144064,-0.08246558263475094]",4.0,"[-0.17712392520919445,0.03174928699261529]",4.0,"[0.0916075676990577,-0.02314847403977704]",100.0,"[0.17012596517602196,0.07205830831828756]",4.0,"[-0.05615143082863435,-0.0723788628332641]",4.0,"[-0.030964086062367682,0.184287418781022]",100.0,"[0.15684799897996213,-0.05228312428938922]",100.0,"[-0.08538479259039472,0.011138347144755466]",4.0,"[-0.12260254159077374,-0.05708899854454762]",4.0,"[0.02,0.02]",179.665,0.0,43.0,43.0,119.0,1.0,,,,,,,
,,,,,,,60fc39cce64c39328a7c8904,68442929b31074d12f757525,2025-06-07_13h57.49.979,shape_ratio,2024.1.5,Win32,119.047619,684250e4f00cb30b92d1fa88,,,,,,,,,,,179.6651,180.1651,,,180.4153,180.9153,left,0.4923,,,,,,,,,0.6,,,,,,180.1651,180.4153,180.9153,"[0.06151982559368111,0.03165224124613189]",100.0,"[0.13861400222369322,-0.12766574886825446]",100.0,"[0.07458544170953949,0.09975879227507549]",100.0,"[0.08238629875497677,-0.1339971073504433]",4.0,"[-0.03191913293232188,-0.11113465232214734]",100.0,"[-0.16523827790254791,-0.06928542953582213]",100.0,"[0.10249987908672183,0.037600442835253704]",100.0,"[-0.10767916052983473,-0.058422397317106474]",4.0,"[-0.05151245713934604,0.13341293518501127]",4.0,"[0.1596419497786591,-0.028920647852827667]",100.0,"[0.08629059016937801,-0.022196315769063907]",100.0,"[0.004196871669580208,0.17926965543735657]",100.0,"[0.06525415614289337,-0.0692858697141604]",100.0,"[-0.09131781021852003,0.007069954371375762]",100.0,"[-0.05407249997117819,0.18336091468422136]",4.0,"[-0.12820741948167955,-0.021661886371449463]",100.0,"[-0.11873940702529351,0.13687474018044654]",4.0,"[0.12224268241870408,0.13654414387426422]",4.0,"[0.06888855664631309,0.16217630533349214]",4.0,"[0.01987570935232747,0.05830096685619192]",100.0,"[-0.1299381819094169,-0.11312688581890284]",4.0,"[-0.04079946335676934,-0.04903885691479699]",100.0,"[0.03643660979996087,-0.1947241870188198]",100.0,"[-0.01720146143152249,0.1052441901568314]",100.0,"[0.01523245235958265,-0.13907766599544083]",4.0,"[0.1583070271990316,0.07875886647805229]",4.0,"[-0.06104315655576379,-0.1567133065828117]",100.0,"[-0.08068476829238089,0.06629272648688828]",100.0,"[-0.17484086262654844,0.035943099387533935]",4.0,"[-0.014254078982412724,0.03421491805484141]",4.0,"[-0.18233271226423303,-0.016637848313463315]",4.0,"[0.0012427247104696002,-0.028083047003629617]",100.0,"[0.02,0.02]",182.0154,0.0,44.0,44.0,50.0,1.0,,,,,,,
,,,,,,,60fc39cce64c39328a7c8904,68442929b31074d12f757525,2025-06-07_13h57.49.979,shape_ratio,2024.1.5,Win32,119.047619,684250e4f00cb30b92d1fa88,,,,,,,,,,,182.0155,182.5156,,,182.7657,183.274,left,0.5045,,,,,,,,,0.5,,,,,,182.5156,182.7657,183.274,"[-0.08374190366617786,-0.13903344765930375]",100.0,"[0.1878190626810045,-0.02919786656458646]",100.0,"[0.06305179698568848,-0.08708097289237512]",4.0,"[0.1778248252669082,0.08625501431472025]",4.0,"[-0.14103431203026362,0.011338239530864765]",4.0,"[0.12982265478801172,-0.02724337993071111]",4.0,"[-0.11264532899448748,-0.0928653211873228]",100.0,"[-0.012844759482004073,-0.17996387257893276]",4.0,"[-0.08789812812486673,-0.047097239890887724]",4.0,"[0.07518213001035293,-0.019580294835113726]",4.0,"[0.1535021743879568,0.12133605554344856]",4.0,"[0.030817596835474352,0.02505661421257934]",100.0,"[-0.09739239057406467,0.10731083736239636]",4.0,"[0.11437087669317438,-0.07806035402906011]",4.0,"[0.09372787993436059,0.13068875123267631]",4.0,"[-0.016041518519845973,-0.1363840927902221]",100.0,"[0.006881922401160142,0.11528373365000864]",100.0,"[0.06429623686505528,0.07092161735433024]",100.0,"[0.007563830493132183,-0.09703275148191241]",100.0,"[-0.1814311578616015,0.05647965495729243]",100.0,"[-0.06679566634525115,0.1772196560620406]",100.0,"[-0.07667513557297276,0.03345346954398017]",100.0,"[0.015211566543338561,-0.018646959412514198]",100.0,"[-0.041877144825408344,-0.0941921856723559]",100.0,"[-0.15169170673505608,-0.0622502525167126]",4.0,"[-0.043782025970027116,0.08359529982503011]",4.0,"[0.03835956179915558,-0.17733182725361016]",4.0,"[-0.02476858222580245,0.1886793051083182]",100.0,"[-0.035564591671059374,-0.006421577564618607]",100.0,"[-0.14580179491123377,0.08688995306601206]",4.0,"[0.11530836825906064,-0.1368735734033371]",4.0,"[0.0823196650743221,0.16914631005119318]",100.0,"[0.02,0.02]",184.3742,0.0,45.0,45.0,113.0,1.0,,,,,,,
,,,,,,,60fc39cce64c39328a7c8904,68442929b31074d12f757525,2025-06-07_13h57.49.979,shape_ratio,2024.1.5,Win32,119.047619,684250e4f00cb30b92d1fa88,,,,,,,,,,,184.3743,184.8742,,,185.1243,185.6826,right,0.5537,,,,,,,,,0.5,,,,,,184.8742,185.1243,185.6826,"[0.17122535199676137,0.09604225427780722]",100.0,"[-0.014011343515752487,-0.12496176540928228]",100.0,"[0.1584379803916342,0.00807040536950578]",100.0,"[0.08092659517745777,-0.028699378830178538]",100.0,"[0.033611776233461746,-0.04719317069177644]",4.0,"[-0.1807953363801458,-0.02618208296272353]",4.0,"[-0.04006536995722402,0.18086553910911676]",100.0,"[-0.06820031277204831,-0.10278683958652]",4.0,"[0.001172427796158459,0.10418760085169018]",4.0,"[0.16014135957790165,-0.06668112357014483]",4.0,"[-0.14003526903742292,0.02356142911827412]",100.0,"[-0.14056959799413593,0.12969263219206836]",100.0,"[-0.0439987691603463,-0.00875008074435379]",4.0,"[0.02350544394593277,0.05568605929224311]",4.0,"[0.08453320096653591,0.016785544020431843]",100.0,"[0.08231344039061453,0.16027393385768463]",4.0,"[0.12600571931918172,0.12430500214598665]",4.0,"[0.0568970785810839,0.08552851192350198]",100.0,"[0.11592389838697037,0.06476773517201512]",4.0,"[-0.12096521417548708,-0.03527540078170229]",100.0,"[0.11197052489069807,-0.16327932342479162]",4.0,"[0.14976777561561835,-0.1294982969503053]",4.0,"[-0.0543762030670023,0.1309771355698955]",4.0,"[0.05420808960307202,-0.09718897760286632]",4.0,"[0.07862414109626052,-0.1309497842643254]",100.0,"[-0.0009677887955067258,-0.07719108982484581]",100.0,"[0.05593543221332127,-0.16433367541013355]",4.0,"[0.016503445768549275,-0.19356287328962837]",100.0,"[-0.09355427227255123,0.006262442604755967]",100.0,"[0.09702268247071917,-0.07852837701911844]",100.0,"[-0.14370302823294806,-0.08332446200357362]",100.0,"[-0.004914598440428635,0.019853386191958512]",4.0,"[0.02,0.02]",186.7829,0.0,46.0,46.0,106.0,1.0,,,,,,,
,,,,,,,60fc39cce64c39328a7c8904,68442929b31074d12f757525,2025-06-07_13h57.49.979,shape_ratio,2024.1.5,Win32,119.047619,684250e4f00cb30b92d1fa88,,,,,,,,,,,186.783,187.2829,,,187.533,188.1661,right,0.6316,,,,,,,,,0.1,,,,,,187.283,187.533,188.1662,"[0.061577040065299606,0.16308563858195999]",4.0,"[-0.10259758966958289,0.13804146102615228]",4.0,"[0.018886652557705212,0.02352707991692822]",4.0,"[0.13097191473270015,0.14302337536456985]",4.0,"[-0.1449596379994211,-0.1356604981852364]",4.0,"[0.03974937728834901,-0.13681463130760474]",4.0,"[-0.029097283782816567,-0.020780608835337]",4.0,"[-0.04168304025491663,0.17377125382464811]",4.0,"[0.048907245226158025,-0.05031633010916373]",4.0,"[-0.10758747535465195,0.0077624436357578075]",4.0,"[0.11034494861822332,-0.02436552938212886]",100.0,"[-0.18269924034028265,0.05602333340580568]",4.0,"[0.041567681092647524,0.11108459101555557]",4.0,"[0.1456537791668488,-0.11712955994723583]",4.0,"[-0.006431409872340611,0.0633656511568655]",4.0,"[-0.009006562683893172,0.19865650395464748]",4.0,"[0.05739226872569842,0.05957625393851382]",4.0,"[-0.06768297120401583,0.020258075568656036]",4.0,"[-0.04689824934314734,-0.16129282808882658]",4.0,"[-0.06789237587287682,0.08597284762282507]",4.0,"[0.09556223399178672,-0.09898212161950445]",4.0,"[-0.1867279036450894,-0.030173598130271453]",100.0,"[0.17468287683761652,-0.05781681003573265]",4.0,"[0.042696686351553235,-0.18402755760296155]",4.0,"[0.06778535247411095,-0.010416354933189898]",4.0,"[-0.14234561143900798,-0.09052699255839157]",4.0,"[-0.00022965259975862333,-0.14611614854470045]",100.0,"[-0.02344009397100138,0.11259708219026399]",4.0,"[0.0987751320308652,0.06333165247762164]",4.0,"[0.14700032447109523,0.010593104228852263]",4.0,"[-0.055795345786610696,-0.10905565696294868]",4.0,"[-0.02730056709496191,-0.06787097982916364]",4.0,"[0.02,0.02]",189.2666,0.0,47.0,47.0,191.0,1.0,,,,,,,
,,,,,,,60fc39cce64c39328a7c8904,68442929b31074d12f757525,2025-06-07_13h57.49.979,shape_ratio,2024.1.5,Win32,119.047619,684250e4f00cb30b92d1fa88,,,,,,,,,,,189.2666,189.7667,,,190.0167,190.6083,right,0.5891,,,,,,,,,0.1,,,,,,189.7667,190.0167,190.6083,"[-0.07104250615250897,0.057682066436907944]",100.0,"[-0.09868514012109204,-0.16540813125014933]",4.0,"[0.05410540995913433,0.07405918480656705]",4.0,"[-0.033991318861271075,-0.12270546606961942]",4.0,"[0.03297050252937644,-0.1355748204413125]",4.0,"[0.09740948121416163,0.12068854786070515]",4.0,"[0.1593062286130164,-0.07000099303628336]",4.0,"[-0.12267072424875923,-0.06507837160649252]",4.0,"[-0.0365086425374805,-0.05649524010666234]",4.0,"[-0.05223629781297289,0.10724504408373675]",4.0,"[0.15194251651324822,-0.005274657538308678]",4.0,"[-0.15258554274468938,-0.12355484750338863]",4.0,"[-0.01821997741850795,0.08565780103156312]",4.0,"[0.009179397458679862,-0.019729636470869474]",4.0,"[-0.024442862220555313,-0.17753800212111964]",4.0,"[-0.08569684339198971,0.1564273134813879]",4.0,"[0.12730125417329932,-0.12878409789571577]",100.0,"[0.08935095542585841,-0.007648785450930223]",4.0,"[-0.12689357925966407,-0.022647334533368313]",4.0,"[0.022777956842219043,-0.19617310256702192]",4.0,"[0.02174352626278207,-0.06415167356226191]",4.0,"[0.049264882381065266,0.11552386132079669]",4.0,"[0.07107157956578207,-0.04577815211332147]",4.0,"[-0.15370483641515964,0.09943635892578821]",4.0,"[0.18863667160877734,-0.025128739841462886]",4.0,"[-0.013198343887957625,0.14951758041592525]",4.0,"[0.008836659014576134,0.026939168406661555]",4.0,"[-0.18100014466509892,0.04489311703649838]",4.0,"[0.11189835712475242,0.03918949719810467]",100.0,"[0.16335724925869397,0.050304597659006245]",4.0,"[-0.11059332735290858,-0.10900598873636251]",4.0,"[0.0832211844483699,-0.1532789507690112]",4.0,"[0.02,0.02]",191.7085,0.0,48.0,48.0,203.0,1.0,,,,,,,
,,,,,,,60fc39cce64c39328a7c8904,68442929b31074d12f757525,2025-06-07_13h57.49.979,shape_ratio,2024.1.5,Win32,119.047619,684250e4f00cb30b92d1fa88,,,,,,,,,,,191.7087,192.2086,,,192.4587,192.992,right,0.5317,,,,,,,,,0.6,,,,,,192.2086,192.4587,192.992,"[-0.02152647379752347,0.05079623257953291]",100.0,"[0.03104692824174348,0.003669150205776501]",4.0,"[0.09496004291647075,0.1253359994287325]",100.0,"[-0.10209056326912674,-0.1436872985851319]",4.0,"[-0.13202590000496456,-0.003052032464216764]",4.0,"[0.08271524363500639,0.060002864344566295]",100.0,"[-0.05854924210305267,-0.006217380485901531]",4.0,"[0.14837394266514448,-0.11357170977832143]",100.0,"[-0.10347702288293699,-0.031922253805376305]",100.0,"[-0.02886166545798723,-0.15413893442089072]",100.0,"[0.06681064467321057,-0.11090111979797942]",100.0,"[0.15155601553295595,0.11002231484479372]",100.0,"[0.17053354059476264,0.03091151797827274]",4.0,"[0.013308438080663409,0.08700753610729699]",100.0,"[-0.06827125481936071,0.1449977394971084]",100.0,"[-0.10216908387009951,-0.08718646582812273]",100.0,"[-0.040081386543610494,-0.0944250983506771]",4.0,"[-0.1820359340233628,0.04680754637543058]",100.0,"[0.12134792404026193,-0.04090837469568628]",100.0,"[0.08015126515445799,0.16574959761014557]",4.0,"[-0.08191538830242559,0.04983447233288551]",100.0,"[0.07901526216204331,-0.01381704769583246]",100.0,"[0.05975193289697179,-0.05111839170740451]",4.0,"[-0.16652262083698915,-0.07182132386892627]",4.0,"[0.046794826270468,-0.15108344245897296]",4.0,"[-0.06809540920007862,-0.06111975251767154]",4.0,"[-0.03936045301288088,0.1041097969651899]",100.0,"[0.15710231309073494,-0.02232614364624273]",100.0,"[0.013500007121288585,0.14891052157965853]",4.0,"[0.0903384532773214,-0.07792106476294496]",4.0,"[-0.15633168490206575,-0.11518137293381281]",100.0,"[0.01877832500434049,-0.1836455155853647]",100.0,"[0.02,0.02]",194.0923,0.0,49.0,49.0,36.0,1.0,,,,,,,
