right,left,explain.started,explain.stopped,key_resp_3.keys,key_resp_3.rt,key_resp_3.duration,participant,session,date,expName,psychopyVersion,OS,frameRate,study_id,explain_2.started,explain_2.stopped,key_resp_4.keys,key_resp_4.rt,key_resp_4.duration,explain_3.started,explain_3.stopped,key_resp_5.keys,key_resp_5.rt,key_resp_5.duration,fixation.started,fixation.stopped,practice.started,practice.stopped,response.started,response.stopped,key_resp.keys,feedback.started,feedback.stopped,trials_2.thisRepN,trials_2.thisTrialN,trials_2.thisN,trials_2.thisIndex,trials_2.ran,dot_ratio,key_resp.rt,key_resp.duration,explain_4.started,explain_4.stopped,key_resp_6.keys,key_resp_6.rt,key_resp_6.duration,dotDisplay.started,dotDisplay.stopped,ITI.started,polygon_1.pos,polygon_1.edges,polygon_2.pos,polygon_2.edges,polygon_3.pos,polygon_3.edges,polygon_4.pos,polygon_4.edges,polygon_5.pos,polygon_5.edges,polygon_6.pos,polygon_6.edges,polygon_7.pos,polygon_7.edges,polygon_8.pos,polygon_8.edges,polygon_9.pos,polygon_9.edges,polygon_10.pos,polygon_10.edges,polygon_11.pos,polygon_11.edges,polygon_12.pos,polygon_12.edges,polygon_13.pos,polygon_13.edges,polygon_14.pos,polygon_14.edges,polygon_15.pos,polygon_15.edges,polygon_16.pos,polygon_16.edges,polygon_17.pos,polygon_17.edges,polygon_18.pos,polygon_18.edges,polygon_19.pos,polygon_19.edges,polygon_20.pos,polygon_20.edges,polygon_21.pos,polygon_21.edges,polygon_22.pos,polygon_22.edges,polygon_23.pos,polygon_23.edges,polygon_24.pos,polygon_24.edges,polygon_25.pos,polygon_25.edges,polygon_26.pos,polygon_26.edges,polygon_27.pos,polygon_27.edges,polygon_28.pos,polygon_28.edges,polygon_29.pos,polygon_29.edges,polygon_30.pos,polygon_30.edges,polygon_31.pos,polygon_31.edges,polygon_32.pos,polygon_32.edges,dot_size,ITI.stopped,trials.thisRepN,trials.thisTrialN,trials.thisN,trials.thisIndex,trials.ran,break_2.started,break_2.stopped,trials_3.thisRepN,trials_3.thisTrialN,trials_3.thisN,trials_3.thisIndex,trials_3.ran
subject chose dot,subject chose diamond,0.0005,42.1548,space,27.1307,,6137753896c9b6b5813a2432,68399d5fd7f68f7be9a09a39,2025-05-30_13h01.17.925,shape_ratio,2024.1.5,Win32,60.60606061,683853e18dae57a2147b65e0,,,,,,,,,,,,,,,,,,,,,,,,,,,,,,,,,,,,,,,,,,,,,,,,,,,,,,,,,,,,,,,,,,,,,,,,,,,,,,,,,,,,,,,,,,,,,,,,,,,,,,,,,,,,,,,,,
,,,,,,,6137753896c9b6b5813a2432,68399d5fd7f68f7be9a09a39,2025-05-30_13h01.17.925,shape_ratio,2024.1.5,Win32,60.60606061,683853e18dae57a2147b65e0,42.1557,78.2692,space,6.1048,,,,,,,,,,,,,,,,,,,,,,,,,,,,,,,,,,,,,,,,,,,,,,,,,,,,,,,,,,,,,,,,,,,,,,,,,,,,,,,,,,,,,,,,,,,,,,,,,,,,,,,,,,,,,
,,,,,,,6137753896c9b6b5813a2432,68399d5fd7f68f7be9a09a39,2025-05-30_13h01.17.925,shape_ratio,2024.1.5,Win32,60.60606061,683853e18dae57a2147b65e0,,,,,,78.2699,82.9537,space,1.6607,,,,,,,,,,,,,,,,,,,,,,,,,,,,,,,,,,,,,,,,,,,,,,,,,,,,,,,,,,,,,,,,,,,,,,,,,,,,,,,,,,,,,,,,,,,,,,,,,,,,,,,,
,,,,,,,6137753896c9b6b5813a2432,68399d5fd7f68f7be9a09a39,2025-05-30_13h01.17.925,shape_ratio,2024.1.5,Win32,60.60606061,683853e18dae57a2147b65e0,,,,,,,,,,,83.0229,83.4695,83.4707,83.6294,83.6298,85.1208,,85.1214,86.2207,0.0,0.0,0.0,1.0,1.0,0.8,,,,,,,,,,,,,,,,,,,,,,,,,,,,,,,,,,,,,,,,,,,,,,,,,,,,,,,,,,,,,,,,,,,,,,,,,,,,,,,,,,,,,,,,
,,,,,,,6137753896c9b6b5813a2432,68399d5fd7f68f7be9a09a39,2025-05-30_13h01.17.925,shape_ratio,2024.1.5,Win32,60.60606061,683853e18dae57a2147b65e0,,,,,,,,,,,86.2233,86.7203,86.7206,86.9718,86.9719,87.5547,right,87.5551,88.6545,0.0,1.0,1.0,0.0,1.0,0.2,0.5652,,,,,,,,,,,,,,,,,,,,,,,,,,,,,,,,,,,,,,,,,,,,,,,,,,,,,,,,,,,,,,,,,,,,,,,,,,,,,,,,,,,,,,,
,,,,,,,6137753896c9b6b5813a2432,68399d5fd7f68f7be9a09a39,2025-05-30_13h01.17.925,shape_ratio,2024.1.5,Win32,60.60606061,683853e18dae57a2147b65e0,,,,,,,,,,,,,,,,,,,,,,,,,,,,88.6565,97.0589,space,5.3772,,,,,,,,,,,,,,,,,,,,,,,,,,,,,,,,,,,,,,,,,,,,,,,,,,,,,,,,,,,,,,,,,,,,,,,,,,,,,,,,,,
,,,,,,,6137753896c9b6b5813a2432,68399d5fd7f68f7be9a09a39,2025-05-30_13h01.17.925,shape_ratio,2024.1.5,Win32,60.60606061,683853e18dae57a2147b65e0,,,,,,,,,,,97.1088,97.5742,,,97.8125,98.592,left,,,,,,,,0.1,0.7527,,,,,,,97.576,97.8124,98.5937,"[-0.1433267168664446,-0.10941972548956903]",4.0,"[-0.13027586743946812,0.02708006748121088]",4.0,"[0.1696222509218858,0.027362161398504687]",4.0,"[-0.08010544420014966,-0.10217063383282579]",4.0,"[-0.09898637493778427,-0.04469785157275912]",4.0,"[-0.04843305554002601,-0.05170681210078342]",4.0,"[0.10792222592941346,0.08361663924414779]",4.0,"[-0.00022194405435815,-0.010029895014704486]",4.0,"[0.06562517884331284,-0.146244386514736]",4.0,"[-0.004205228902529149,-0.14274825932176322]",4.0,"[-0.03569325135953411,-0.1160694881194708]",4.0,"[-0.10364602466670303,0.13138653443052997]",4.0,"[0.16138406589655516,-0.02283656583018238]",4.0,"[0.1033647484007884,0.15058162685747287]",4.0,"[-0.024379779800256355,0.18489746625595202]",4.0,"[-0.1456747910091892,0.13408593185238707]",4.0,"[0.03381578478029734,0.14814018517326585]",4.0,"[-0.16616182031442583,0.0874978791694585]",4.0,"[0.10646673094262253,0.009121933427987776]",4.0,"[0.03720747501652807,0.008714784081988346]",4.0,"[0.03133744681569878,-0.19140275170359877]",100.0,"[0.06200023198819418,0.05016991508323297]",4.0,"[-0.08587385456531495,0.010930380682408924]",4.0,"[-0.049402933915309886,-0.16952491575225268]",100.0,"[0.14842157685117202,-0.09316250208492254]",4.0,"[0.06664188359100594,0.12119798948093102]",4.0,"[0.030143389150484378,-0.07265542563215824]",4.0,"[0.002660364054445653,0.07881265541017224]",4.0,"[-0.01028762233967984,0.12996801342655181]",4.0,"[-0.17568329313131037,-0.03176568991238752]",100.0,"[0.11889728791849016,-0.15748158939667467]",4.0,"[-0.059794431198134455,0.07906342808133243]",4.0,"[0.02,0.02]",99.6928,0.0,0.0,0.0,208.0,1.0,,,,,,,
,,,,,,,6137753896c9b6b5813a2432,68399d5fd7f68f7be9a09a39,2025-05-30_13h01.17.925,shape_ratio,2024.1.5,Win32,60.60606061,683853e18dae57a2147b65e0,,,,,,,,,,,99.6946,100.1921,,,100.4352,101.0586,left,,,,,,,,0.1,0.602,,,,,,,100.1923,100.4351,101.0588,"[-0.03219021369647906,0.1814241843175041]",4.0,"[-0.015497291989036686,-0.009904583467600273]",4.0,"[0.07428019579182389,0.03948194875569059]",4.0,"[-0.10661511432301211,0.07045180190507074]",4.0,"[0.08322658978799242,0.10106995948116318]",100.0,"[-0.14510511113793567,-0.06607435930635915]",100.0,"[-0.13831865119637332,-0.136207876828672]",4.0,"[0.014508267849821576,0.13696023900269458]",4.0,"[-0.03880671269842429,-0.11168658893901418]",4.0,"[0.17579586313311685,0.09276227458710407]",4.0,"[-0.06180640024157665,-0.03664940767234176]",4.0,"[-0.01232176741298195,-0.15816392013061312]",100.0,"[-0.09032438121828487,0.15131926801673498]",4.0,"[-0.16428017592184965,0.042444925420760206]",4.0,"[0.05463922804437614,-0.059575568788214656]",4.0,"[-0.04922012505658946,0.09014423016656392]",4.0,"[-0.09134206474484517,0.008204583553510968]",4.0,"[0.002279090934802805,-0.053060427979976066]",4.0,"[0.014267636266028528,-0.12259292290602761]",4.0,"[-0.08732184240404213,-0.08651867444021154]",4.0,"[-0.1816242050835414,-0.030257371851978392]",4.0,"[0.13360784524271374,-0.07842451875139324]",4.0,"[0.12159527205679842,0.08729381840095912]",4.0,"[0.15942830881973963,0.034075274871829944]",4.0,"[-0.050641999302306416,-0.17778078274212356]",4.0,"[0.1921395111670419,-0.023871647326844176]",4.0,"[0.13830980715878194,0.13099335729309686]",4.0,"[-0.04706657916859983,0.0494621493173155]",4.0,"[0.0687425962551185,-0.10729546448698468]",4.0,"[0.032888412288020585,0.005248858494758924]",4.0,"[-0.14690385006991694,0.1011632369072028]",4.0,"[-0.08815781564294055,-0.14201894669104984]",4.0,"[0.02,0.02]",102.1589,0.0,1.0,1.0,191.0,1.0,,,,,,,
,,,,,,,6137753896c9b6b5813a2432,68399d5fd7f68f7be9a09a39,2025-05-30_13h01.17.925,shape_ratio,2024.1.5,Win32,60.60606061,683853e18dae57a2147b65e0,,,,,,,,,,,102.1602,102.6585,,,102.9026,103.5271,right,,,,,,,,0.45,0.6071,,,,,,,102.6588,102.9025,103.5273,"[-0.06320163314847962,0.01618842501003353]",4.0,"[0.14397201746425184,-0.058436434671715255]",4.0,"[0.010661878857522723,0.045991577642491885]",4.0,"[-0.06037184927096285,0.09613569148114996]",4.0,"[0.17696645127237,0.07513764149635692]",100.0,"[0.13955790544308314,-0.12830440896702863]",4.0,"[-0.09248748041400633,-0.12799528315608813]",4.0,"[0.022116684945640733,0.13744763419179493]",4.0,"[0.14778397006075233,0.13303705287771836]",100.0,"[0.01616962664486198,-0.17051810439787013]",4.0,"[0.0880865176933612,-0.12398049373212233]",100.0,"[-0.06770488601280711,0.15271562113961862]",100.0,"[-0.1722050301257827,-0.04167750608331676]",4.0,"[0.05118672413829512,0.0065867044805743655]",100.0,"[-0.02720368837200336,-0.12842980768892276]",4.0,"[-0.025294565064402714,0.13266932667180506]",4.0,"[-0.06335469071265608,-0.06780194795289746]",100.0,"[0.12041082643616345,0.03562078085601762]",100.0,"[0.06222928655588761,-0.048175169893379104]",100.0,"[-0.16296193099443532,-0.09786330182018749]",4.0,"[-0.13402416646869755,-0.016357425523877117]",4.0,"[0.12306904735848127,-0.00874918655736675]",4.0,"[-0.12001790719324675,-0.05737035319631994]",100.0,"[-0.026343750382167595,-0.18564453240567547]",4.0,"[-0.18759890648626457,0.0502740256168552]",4.0,"[0.008247722782976297,0.1854106474266102]",4.0,"[-0.040686869364718825,-0.018142249513690072]",100.0,"[-0.15635661158789593,0.11562118722113833]",100.0,"[-0.10173883481986451,0.0318317175251464]",100.0,"[0.029778622580476834,-0.09241052784307871]",4.0,"[0.011222460039494349,-0.02504306738686413]",100.0,"[0.17043568987304708,0.023097679511928097]",100.0,"[0.02,0.02]",104.6261,0.0,2.0,2.0,134.0,1.0,,,,,,,
,,,,,,,6137753896c9b6b5813a2432,68399d5fd7f68f7be9a09a39,2025-05-30_13h01.17.925,shape_ratio,2024.1.5,Win32,60.60606061,683853e18dae57a2147b65e0,,,,,,,,,,,104.6275,105.1269,,,105.3695,106.0625,right,,,,,,,,0.55,0.6843,,,,,,,105.127,105.3695,106.0627,"[0.04938325889249199,-0.16238065425987205]",100.0,"[-0.05365719610917599,0.15375248460581653]",100.0,"[-0.041477067235084146,-0.01409433283365069]",100.0,"[-0.10699760140200423,0.0363218329667729]",100.0,"[-0.12076237252939782,-0.05046703006600853]",100.0,"[0.0594885084292458,-0.03939823881959201]",4.0,"[0.026281685082052125,0.11026943269769073]",4.0,"[0.16113760647093542,-0.10892084780889798]",100.0,"[0.06748813306902951,-0.08995784863291008]",100.0,"[-0.14880904116351065,-0.11008398821707037]",100.0,"[-0.05746861554464035,-0.10411471157034985]",100.0,"[0.00014086643505526643,-0.17007130391740782]",100.0,"[0.08712490436284606,0.045092956679113776]",4.0,"[0.1293018688988214,0.14960854634134974]",4.0,"[0.11244204242076863,-0.07997667413043057]",100.0,"[0.06078774186320568,0.17939876141432629]",100.0,"[-0.18421089556667297,-0.017177512225005877]",4.0,"[0.18840697813856888,0.007365299856150013]",4.0,"[0.1620361156586399,0.09656568318643963]",4.0,"[-0.10066755498089262,-0.12367645645900546]",100.0,"[-0.010195906361713376,-0.09920738249486569]",4.0,"[-0.1480854288587735,0.11473120099448401]",4.0,"[-0.07286274989645251,0.07842705883391927]",4.0,"[-0.07094499779260681,-0.055486074632681154]",100.0,"[0.08017380988617542,0.001432694810807507]",100.0,"[0.09865026118387533,0.09080320014909943]",4.0,"[-0.020862153675934064,0.02973562437395335]",100.0,"[-0.14706177537241774,0.045705701056945415]",100.0,"[0.09432383224259877,-0.1226612668176654]",4.0,"[0.017916344226650678,0.007643011634064627]",4.0,"[0.148532693383403,-0.009239952249695715]",4.0,"[0.14968600223148232,0.05363293468880388]",100.0,"[0.02,0.02]",107.1533,0.0,3.0,3.0,88.0,1.0,,,,,,,
,,,,,,,6137753896c9b6b5813a2432,68399d5fd7f68f7be9a09a39,2025-05-30_13h01.17.925,shape_ratio,2024.1.5,Win32,60.60606061,683853e18dae57a2147b65e0,,,,,,,,,,,107.1543,107.6529,,,107.8957,108.5626,right,,,,,,,,0.9,0.6491,,,,,,,107.653,107.8956,108.5629,"[0.14178980227817067,0.13307000411227068]",100.0,"[-0.08879850193994519,-0.02839048393375578]",100.0,"[-0.11830411588643805,-0.15579004763879012]",100.0,"[-0.0034762939572878858,0.16718669514153728]",100.0,"[0.04249343253509134,0.06568418516305487]",100.0,"[0.12513611829265256,-0.0043002123919955015]",100.0,"[0.04461452631491199,-0.12342683939130376]",100.0,"[-0.0039257653724626565,0.11869854914816969]",100.0,"[0.08675141212825975,-0.1355946878323662]",4.0,"[0.08914827908564295,0.08528821149646781]",4.0,"[0.06442117355693353,0.15824235318121457]",100.0,"[-0.006070163931984949,-0.09072026616433766]",100.0,"[-0.15259967884719738,0.06130865161902607]",100.0,"[-0.09811856944338226,0.027017095928682806]",100.0,"[0.0873256106672591,-0.08699558007100378]",100.0,"[-0.09892582284020779,-0.11499437787582423]",100.0,"[0.16698746904182868,-0.04188291917427127]",100.0,"[-0.047484044153200185,0.10971213537792772]",100.0,"[-0.04917187454059327,0.03262737142188314]",100.0,"[-0.0006653936894407177,-0.17789646843796916]",4.0,"[-0.07313671277750904,0.06795280837881014]",100.0,"[-0.026289873315033154,-0.14280790713361227]",100.0,"[-0.16296708182903097,-0.031577016281349755]",100.0,"[-0.10123064353254976,-0.0737329574608762]",100.0,"[-0.005370120804788924,0.03316773321690482]",100.0,"[0.0934524511085092,0.04537507657023831]",100.0,"[-0.1421637855547511,0.12392027622563895]",100.0,"[0.04452383060386489,-0.1770691347954185]",100.0,"[0.039724200114824824,0.008124133798016494]",100.0,"[0.16810205945225778,-0.09930755586388257]",100.0,"[0.05989426504638221,-0.039427391928087176]",100.0,"[-0.1429117372864012,-0.10828876753579578]",100.0,"[0.02,0.02]",109.6628,0.0,4.0,4.0,3.0,1.0,,,,,,,
,,,,,,,6137753896c9b6b5813a2432,68399d5fd7f68f7be9a09a39,2025-05-30_13h01.17.925,shape_ratio,2024.1.5,Win32,60.60606061,683853e18dae57a2147b65e0,,,,,,,,,,,109.6641,110.1631,,,110.4139,111.1466,left,,,,,,,,0.1,0.7055,,,,,,,110.1632,110.4137,111.1467,"[0.04210823814988131,0.1825194125741551]",4.0,"[0.01883397264640189,-0.16052932943006704]",4.0,"[0.06146041770247136,-0.03814533881511362]",4.0,"[-0.11315552543832952,0.04375391794474382]",4.0,"[-0.026861556695300753,-0.031858738168961245]",4.0,"[-0.059019828689422016,0.1359928371278005]",4.0,"[-0.08424931399220399,-0.07266774140491707]",4.0,"[0.12814063903466955,0.13296060231111473]",4.0,"[-0.13154356351251723,0.12028931984298658]",4.0,"[-0.02002866906828589,0.08378660903205985]",4.0,"[-0.1809707316088425,0.02010040261898807]",100.0,"[-0.07350475219893303,-0.13656142887811562]",4.0,"[0.08508910498929885,0.05458723163560918]",4.0,"[0.06153439364836563,-0.14008406908560125]",4.0,"[-0.17404266671866536,-0.07605519309316174]",4.0,"[-0.02709531592999366,-0.07862682610722671]",4.0,"[-0.13341188079494543,-0.05299036842200986]",100.0,"[-0.06366093778469267,0.17582706650898902]",100.0,"[0.013943524097591645,-0.02456326318724338]",4.0,"[0.11897755054145455,-0.09536830877516335]",4.0,"[0.007055874978322257,0.019541885119455885]",4.0,"[-0.0615483804631386,-0.182735838494437]",4.0,"[0.0893878313196351,-0.1691060948959463]",4.0,"[0.033840160941769476,0.09287477263179741]",4.0,"[-0.07623976681945306,0.07910877273462924]",4.0,"[-0.07175214395545422,0.016456427449261533]",4.0,"[-0.002031963779186995,-0.11687421754954692]",4.0,"[0.11203536026326319,-0.033138736498452136]",4.0,"[0.06774746467109254,0.11511905365218283]",4.0,"[0.1803520140335707,0.07413843997447594]",4.0,"[0.11020909142212121,0.09045237284081378]",4.0,"[-0.01735214797227319,-0.18490437147424257]",4.0,"[0.02,0.02]",112.2471,0.0,5.0,5.0,182.0,1.0,,,,,,,
,,,,,,,6137753896c9b6b5813a2432,68399d5fd7f68f7be9a09a39,2025-05-30_13h01.17.925,shape_ratio,2024.1.5,Win32,60.60606061,683853e18dae57a2147b65e0,,,,,,,,,,,112.2484,112.7472,,,113.006,113.731,left,,,,,,,,0.45,0.7029,,,,,,,112.7473,113.0059,113.7311,"[-0.18432919445856424,0.014762219382378034]",4.0,"[0.05558059613337059,0.08196861684129507]",100.0,"[-0.07691319960292625,-0.17150095235396565]",100.0,"[-0.054833576607723825,0.07421974385800319]",100.0,"[0.06922640835284143,0.1806332753353975]",100.0,"[0.14359427238181152,-0.006915646075207852]",100.0,"[-0.18799364315577696,-0.052803582977998254]",100.0,"[-0.0953879282233623,-0.11820711903825712]",4.0,"[-0.15323976304720352,-0.09185514788299727]",4.0,"[-0.0113878137384471,-0.03752483561549748]",4.0,"[-0.020434224385862204,0.17578437496334778]",4.0,"[0.02339241187730484,-0.17311141306830316]",4.0,"[0.17346827934289336,-0.05518131766627407]",4.0,"[-0.012131810728120251,-0.14941708792149994]",4.0,"[-0.12035323615911413,-0.013250054379234476]",4.0,"[-0.09058043832820269,0.03134068113172362]",4.0,"[0.028949773257790433,-0.03249372776356981]",4.0,"[0.1308997473769498,-0.14991247387040815]",100.0,"[0.08898849757230358,-0.08327775249425344]",100.0,"[0.011391996262850127,0.11017318349378502]",4.0,"[-0.004658848501225723,0.049295816443200906]",100.0,"[-0.1703416857258481,0.05463823393818946]",4.0,"[-0.03801851106137663,-0.07920432124606144]",4.0,"[0.13578050051063056,0.1166427210749728]",100.0,"[0.011222258247563382,-0.10045370372628089]",100.0,"[-0.1333242018601772,0.10170376717506044]",4.0,"[0.14535703219822452,-0.09980199949754316]",100.0,"[-0.04053029395845042,0.01186272579931891]",4.0,"[0.08895071972924304,-0.17890589716271443]",100.0,"[-0.010486568461135517,-0.19833514159552687]",4.0,"[0.10500338347127705,0.08364602381129041]",4.0,"[0.09082763625918246,0.0237371790842292]",100.0,"[0.02,0.02]",114.8299,0.0,6.0,6.0,140.0,1.0,,,,,,,
,,,,,,,6137753896c9b6b5813a2432,68399d5fd7f68f7be9a09a39,2025-05-30_13h01.17.925,shape_ratio,2024.1.5,Win32,60.60606061,683853e18dae57a2147b65e0,,,,,,,,,,,114.8312,115.3308,,,115.5822,116.1479,right,,,,,,,,0.4,0.5518,,,,,,,115.3316,115.5822,116.1481,"[-0.15041210696049426,-0.013927516892051909]",100.0,"[-0.03244731557820414,0.18342153611900097]",4.0,"[0.17025934423576633,0.05628520629365399]",4.0,"[-0.006269947488755792,0.15042364290441343]",4.0,"[0.13503007194440367,-0.14345690964122848]",100.0,"[0.04863071107117009,-0.08430907791828145]",4.0,"[-0.06075238315934657,-0.05717204207421732]",100.0,"[-0.10174063851913974,-0.13033749569304892]",4.0,"[0.040391983418729405,0.08874555122328731]",4.0,"[-0.09876533541115359,-0.03997555058214576]",100.0,"[0.06952956664755777,-0.031029109384247622]",100.0,"[-0.053492917003228516,-0.10942430049136512]",4.0,"[0.03143169179846103,0.18679365739648413]",4.0,"[0.05532519879744892,0.0366462277151498]",4.0,"[-0.14633709923181276,-0.07662708589421349]",4.0,"[0.06927671318797465,0.15762994090483884]",100.0,"[-0.0689056784172419,0.06698828538253428]",4.0,"[-0.03515761782419539,-0.15146193628189258]",4.0,"[0.09359333359243033,0.07181063462217077]",100.0,"[0.017499955450537733,-0.12544397539298993]",4.0,"[-0.0031119474720972162,0.06633907996037462]",4.0,"[-0.07892310509483749,-0.1725662182098292]",4.0,"[0.1103465395868586,-0.0997632860904955]",4.0,"[-0.012091207122366244,-0.07905605137681822]",100.0,"[-0.1196353000918938,0.12653586964925254]",100.0,"[0.15801599577404687,-0.0812004522971621]",100.0,"[-0.15870468502415488,0.04399432545530099]",4.0,"[0.08904154318050549,-0.1639757908699987]",4.0,"[-0.0655426420223853,-0.016751769620146986]",100.0,"[-0.11957806205437595,0.08205976152610577]",100.0,"[0.0600520036298216,-0.1314701559828871]",100.0,"[0.1821216904879642,-0.016119182843353178]",4.0,"[0.02,0.02]",117.2484,0.0,7.0,7.0,166.0,1.0,,,,,,,
,,,,,,,6137753896c9b6b5813a2432,68399d5fd7f68f7be9a09a39,2025-05-30_13h01.17.925,shape_ratio,2024.1.5,Win32,60.60606061,683853e18dae57a2147b65e0,,,,,,,,,,,117.2502,117.7488,,,118.0002,118.5662,right,,,,,,,,0.6,0.552,,,,,,,117.749,118.0001,118.5663,"[-0.013480171058064653,-0.08960225298659881]",100.0,"[0.04033032163957077,-0.07785701277206697]",100.0,"[0.10982978653304334,0.10730141632702013]",4.0,"[-0.04161206387161494,0.06043917648191579]",100.0,"[0.12284388486887943,0.019994885370019]",100.0,"[0.160587827090176,-0.07725466407636027]",100.0,"[-0.046605531370887646,0.15313395668080101]",4.0,"[0.03474036522238379,-0.008947440134151772]",4.0,"[-0.06340687968820344,-0.061554199884931826]",100.0,"[0.07290721861059339,-0.10150639121513275]",4.0,"[-0.14879319676232786,-0.045976247340837724]",4.0,"[-0.1226406006244487,0.14775660006370575]",4.0,"[0.05236130190181409,0.03616831234296513]",100.0,"[0.10504620231283501,-0.1346885480356231]",100.0,"[-0.07756724588489226,-0.10943952207034112]",100.0,"[0.11958791388596147,-0.0349170900282156]",100.0,"[-0.07813984006038513,-0.024113127393817435]",4.0,"[-0.07302581068358366,0.10770010286112976]",100.0,"[-0.10993859730134616,0.03665178591401777]",4.0,"[-0.13303815945433084,0.10341788572009347]",4.0,"[-0.09170854878016682,-0.15481249922495746]",100.0,"[0.011523975851166364,-0.12381394006491585]",4.0,"[0.15198394415717995,0.12178337189986635]",100.0,"[-0.19703362386207218,-0.033292300346255896]",100.0,"[0.03180687779624168,0.10078915347505395]",4.0,"[0.08240990561826271,0.18065567294771498]",4.0,"[0.11461595544384398,-0.08143671787426782]",100.0,"[-0.15343849125528544,0.003903431124623316]",4.0,"[0.00631107246424491,0.1919791072007685]",100.0,"[-0.17274508104269054,0.09136099961271925]",100.0,"[0.0013949576436545301,0.027434101292868773]",100.0,"[-0.14823684436955326,-0.11401912161949111]",100.0,"[0.02,0.02]",119.6663,0.0,8.0,8.0,53.0,1.0,,,,,,,
,,,,,,,6137753896c9b6b5813a2432,68399d5fd7f68f7be9a09a39,2025-05-30_13h01.17.925,shape_ratio,2024.1.5,Win32,60.60606061,683853e18dae57a2147b65e0,,,,,,,,,,,119.6677,120.1658,,,120.4162,121.0165,right,,,,,,,,0.5,0.5831,,,,,,,120.1658,120.4161,121.0168,"[-0.19786684231630047,-0.02880107015554271]",4.0,"[0.029454325634977806,-0.008980800353754393]",100.0,"[0.07861699495891492,0.18273778943366709]",100.0,"[0.04038003868228314,-0.18584738216796168]",4.0,"[0.028590359262198543,0.15856974786405306]",100.0,"[-0.07921368092425889,0.013699445784167229]",4.0,"[-0.08124360644055889,-0.15497177956580008]",4.0,"[0.03116772931915423,0.05501668246201287]",100.0,"[-0.12862284370063112,0.079549146335006]",4.0,"[0.0960448778216134,-0.021703763138636267]",4.0,"[0.0578843930028306,0.09828309020952064]",100.0,"[0.1461356104043137,0.12825145756258677]",4.0,"[0.1970109289280704,-0.03230908159200015]",4.0,"[0.09804865177214643,-0.13985133931171406]",4.0,"[0.036521098524250936,-0.07350704441961001]",100.0,"[0.0008466795947639328,-0.10859717560110124]",4.0,"[-0.1469139315328392,0.12740780222292422]",100.0,"[-0.05612114136325888,-0.18697941811317423]",4.0,"[0.10215204878682088,-0.06387253972172233]",4.0,"[0.16310578576427037,-0.004503993654165494]",100.0,"[-0.044452411857192856,0.0599382162632777]",4.0,"[0.10686570970078349,0.11722833680404778]",100.0,"[-0.058339813494625324,-0.08035094799530117]",4.0,"[-0.18229507844647416,-0.06584330486164518]",100.0,"[-0.10524518044872137,0.1469072130789618]",4.0,"[-0.08634943297486815,0.060284304769229094]",100.0,"[-0.03630549591804619,0.009798386823469136]",4.0,"[-0.15116104000280556,0.04421284677837242]",100.0,"[-0.0008431377997435638,0.029213743353589273]",100.0,"[-0.0485960724597322,0.16672318119363994]",100.0,"[0.15994518360793114,-0.09459154722707305]",100.0,"[-0.022362698502143872,-0.1512796860997516]",100.0,"[0.02,0.02]",122.1165,0.0,9.0,9.0,102.0,1.0,,,,,,,
,,,,,,,6137753896c9b6b5813a2432,68399d5fd7f68f7be9a09a39,2025-05-30_13h01.17.925,shape_ratio,2024.1.5,Win32,60.60606061,683853e18dae57a2147b65e0,,,,,,,,,,,122.1172,122.6169,,,122.8578,123.6515,right,,,,,,,,0.9,0.7692,,,,,,,122.617,122.8577,123.6517,"[0.1344975921386554,0.1222993226358585]",100.0,"[0.039382545962159225,0.018324492313085194]",100.0,"[-0.11969335758548962,-0.07832359527548849]",100.0,"[-0.07283626453959287,-0.18486509083526986]",100.0,"[-0.01805697675605695,0.04516576208453416]",100.0,"[0.09407584730271948,0.004365608876859673]",100.0,"[-0.04668131038463942,0.10151808584124068]",100.0,"[-0.12979282775984968,-0.1503133880116048]",100.0,"[-0.18436194040830428,0.025406338900227775]",100.0,"[-0.14228126776118094,-0.04132937958828571]",100.0,"[0.0005847427926999888,0.15538817172361316]",100.0,"[0.18334818543691808,0.006187663559448911]",100.0,"[0.04964222056341103,-0.04132991028422505]",100.0,"[0.09733327440296491,0.07894210211573725]",100.0,"[-0.08126831214849752,-0.10625527153004127]",100.0,"[-0.061158858109522006,-0.14342291268639887]",100.0,"[0.09457671965478956,0.13898071743079213]",100.0,"[0.06022357010450859,-0.1286257294762981]",100.0,"[-0.0782673177417353,0.1527010316383475]",100.0,"[-0.09606452928122933,0.0019450965283021133]",100.0,"[0.026836014563955925,0.07983654263943273]",100.0,"[0.18293134993639643,-0.05882591212975582]",100.0,"[0.14876329679287031,-0.12908242347564758]",4.0,"[0.0924848956650122,-0.07000831303966036]",4.0,"[-0.14375186970297033,0.0701635079701443]",100.0,"[-0.01419026939556652,-0.0874777888335097]",100.0,"[-0.1530501607077604,-0.11033705879283685]",100.0,"[0.15255142649603004,0.08421819874161582]",100.0,"[-0.06120692718218579,-0.06007385163923405]",100.0,"[-0.0860168924186725,0.072616887465245]",4.0,"[-0.013268572872293754,-0.13036330005558122]",100.0,"[0.01572101004435904,-0.1904853620493267]",100.0,"[0.02,0.02]",124.7505,0.0,10.0,10.0,18.0,1.0,,,,,,,
,,,,,,,6137753896c9b6b5813a2432,68399d5fd7f68f7be9a09a39,2025-05-30_13h01.17.925,shape_ratio,2024.1.5,Win32,60.60606061,683853e18dae57a2147b65e0,,,,,,,,,,,124.7517,125.2513,,,125.5031,126.0518,left,,,,,,,,0.1,0.5348,,,,,,,125.252,125.503,126.0519,"[-0.06654233930097729,-0.06797165290475277]",4.0,"[0.0996089697456176,-0.03474043381575288]",4.0,"[0.14650518403557686,0.07336657803295898]",4.0,"[-0.13105550824763706,-0.023635099142910284]",100.0,"[0.03761528720552151,0.0859569364510547]",4.0,"[0.1263032958628933,-0.11864959859247935]",4.0,"[0.1472797647909234,0.019563014992089504]",100.0,"[0.008124689253775312,-0.062402632239850646]",4.0,"[0.012017177290182328,0.16319167253095637]",4.0,"[0.09167421581252135,0.16047278138597793]",4.0,"[0.15061063320843304,0.1282347308714605]",4.0,"[-0.03583000281755642,-0.12898009048491743]",4.0,"[-0.02047253190176311,0.018128320930791923]",4.0,"[0.03769864786526002,-0.11135190062118107]",4.0,"[-0.10683779370990656,-0.14691616205102334]",4.0,"[0.0318147397540602,0.020755371092880903]",4.0,"[0.19010414635948575,-0.022932193103007793]",4.0,"[-0.08013421014851743,0.13160782351190306]",4.0,"[-0.17952112518406452,0.063331610294444]",4.0,"[-0.1726021364276889,-0.011938513289732198]",4.0,"[-0.198252781158192,0.01974608745851318]",4.0,"[-0.08126013929525723,-0.020253975232031304]",4.0,"[-0.07160985521917136,0.07119935466246877]",4.0,"[0.08201660096551591,0.016097941462547425]",4.0,"[-0.0476002005409716,-0.17418858823031894]",4.0,"[0.12967344045565374,-0.06803342527442824]",4.0,"[0.09357656228520052,0.07485858887354996]",4.0,"[-0.15125959758153043,-0.1224752257133708]",4.0,"[0.09526096293057278,-0.16880985571235552]",4.0,"[0.029294086073072153,-0.16099331419402768]",100.0,"[-0.1845386103961099,-0.06308247204434365]",4.0,"[-0.026742393661281203,0.08019848365967563]",4.0,"[0.02,0.02]",127.1412,0.0,11.0,11.0,198.0,1.0,,,,,,,
,,,,,,,6137753896c9b6b5813a2432,68399d5fd7f68f7be9a09a39,2025-05-30_13h01.17.925,shape_ratio,2024.1.5,Win32,60.60606061,683853e18dae57a2147b65e0,,,,,,,,,,,127.1422,127.6363,,,127.8795,128.9202,left,,,,,,,,0.45,1.0207,,,,,,,127.6365,127.8794,128.9204,"[0.030201490188214462,0.12727244250807868]",4.0,"[-0.0319029445306685,0.024576765861629508]",100.0,"[-0.0923905972128428,0.16223147334210175]",100.0,"[-0.1678046799145911,-0.0024487509965218065]",4.0,"[0.01677766776942291,-0.05604530260150744]",4.0,"[-0.06671392545908178,0.1098145664172236]",100.0,"[0.18541785046138526,-0.019118763982055358]",4.0,"[0.06860936079331038,-0.10561579989910018]",100.0,"[-0.11191031033436122,0.08120266980181515]",4.0,"[0.11550767631640584,-0.1277408059304897]",100.0,"[-0.0699144579406381,-0.00818741800810962]",100.0,"[0.12083479662994974,0.048004193925050884]",100.0,"[0.18383566993688377,0.034272089571924666]",100.0,"[0.1316714459087221,-0.02777146329031653]",4.0,"[-0.1552372793504462,0.11599481125249572]",100.0,"[0.15485811625749715,-0.11627057302584028]",100.0,"[-0.03792708196123972,0.07724452244431325]",4.0,"[-0.03746475468420557,-0.16650403340361644]",4.0,"[0.016334236012153003,0.17524034143943468]",4.0,"[-0.11253503602185075,-0.13681903294407047]",4.0,"[0.03983664915374945,-0.1495738143625606]",4.0,"[-0.048561570095904075,-0.0901486528029251]",4.0,"[-0.03257384997889934,0.1625054251226192]",4.0,"[-0.15799643738160812,-0.0562592463425896]",4.0,"[0.09282150815939559,0.08328147850545937]",4.0,"[-0.015245850121914116,0.12315335932266762]",4.0,"[0.0344000567906631,0.026445987893892322]",4.0,"[-0.08364397781591489,-0.06533015994308868]",100.0,"[0.07955963726423068,0.134596957911305]",100.0,"[0.17067362697972646,0.09205345968896628]",100.0,"[0.052222807166052064,0.06421231579803442]",4.0,"[0.07664864410866301,-0.04323809660268737]",100.0,"[0.02,0.02]",130.0203,0.0,12.0,12.0,132.0,1.0,,,,,,,
,,,,,,,6137753896c9b6b5813a2432,68399d5fd7f68f7be9a09a39,2025-05-30_13h01.17.925,shape_ratio,2024.1.5,Win32,60.60606061,683853e18dae57a2147b65e0,,,,,,,,,,,130.0217,130.5205,,,130.7712,131.3707,right,,,,,,,,0.6,0.5817,,,,,,,130.5207,130.7712,131.3708,"[0.04187253609710299,-0.11028454499344953]",4.0,"[-0.06510379915399796,0.17473271847910787]",100.0,"[0.16855987451961832,0.08725758309052052]",4.0,"[-0.047866809481983304,-0.08006665246739457]",100.0,"[0.004092381902804834,-0.17734591589349036]",100.0,"[0.000873051167397395,0.1466601265356319]",100.0,"[0.08330855069481098,-0.13040182654655394]",4.0,"[0.038864278638081826,0.11037151366549301]",4.0,"[-0.13671994131233559,-0.1253228863991086]",4.0,"[0.18072374550398096,-0.015521273386797227]",100.0,"[-0.13790138561939527,0.07815984903252032]",100.0,"[-0.12231632143013296,0.11774943602180457]",4.0,"[-0.06053327649915815,-0.16239294819765487]",100.0,"[0.009598382453871434,0.04571430851345967]",100.0,"[-0.032751698488996374,0.1004546914184272]",4.0,"[-0.13608379278533966,-0.00196641533512803]",100.0,"[0.14347329484104016,-0.09046022818319109]",4.0,"[0.00002183216189745465,-0.12303993751186773]",100.0,"[0.005538524336415925,-0.05063480129775558]",4.0,"[-0.04977637279919389,-0.12094735483985375]",100.0,"[0.11490399946696553,-0.013357971991858356]",100.0,"[0.1625115902209493,0.03282228825664912]",4.0,"[-0.09929961535957532,0.15364040643798907]",100.0,"[-0.0964396800400949,0.029059575459426192]",100.0,"[0.10457678919774809,0.030516690591959005]",100.0,"[-0.07321051497447982,-0.04844419994940905]",100.0,"[0.10177105809250825,0.14715993963344745]",4.0,"[-0.09048704325845289,-0.1310534926751619]",100.0,"[0.010787841387622711,0.19373527993686823]",100.0,"[0.05673076904056027,0.06354604429088462]",100.0,"[0.07184884077240662,0.0019117828673024353]",4.0,"[-0.1416529835669117,-0.06552758618305492]",4.0,"[0.02,0.02]",132.4706,0.0,13.0,13.0,55.0,1.0,,,,,,,
,,,,,,,6137753896c9b6b5813a2432,68399d5fd7f68f7be9a09a39,2025-05-30_13h01.17.925,shape_ratio,2024.1.5,Win32,60.60606061,683853e18dae57a2147b65e0,,,,,,,,,,,132.472,132.971,,,133.2283,133.8229,right,,,,,,,,0.5,0.5758,,,,,,,132.9711,133.2282,133.823,"[-0.14249615025780626,0.03410592578478766]",4.0,"[-0.06639495397508867,0.000591956577703727]",100.0,"[-0.11643091021976527,0.16211105851541607]",100.0,"[-0.16158344956613424,-0.009532510093478086]",100.0,"[0.1759079175870957,0.021236119831282308]",4.0,"[0.12100473712221282,-0.07775322371354264]",4.0,"[-0.04935826309647251,-0.1866576709026352]",4.0,"[0.04623614761006819,0.02991558922424707]",4.0,"[0.03409868185868303,-0.06951708891037113]",100.0,"[-0.005386606871694879,-0.1032145203461877]",4.0,"[-0.03779863859116109,0.08485670477440832]",100.0,"[-0.04224338167648095,0.1884391922223966]",4.0,"[0.04044321258123922,0.1543047649997124]",100.0,"[-0.08076966369948407,-0.13094051495823922]",100.0,"[0.11617487272737874,0.017860819665570817]",4.0,"[0.04252732440850671,-0.016985452551629015]",100.0,"[0.04338682336294971,-0.12488670821361923]",100.0,"[0.07521016199263961,-0.044154514341304754]",4.0,"[0.15816001397444657,-0.03925190289783715]",100.0,"[0.10391443195446357,0.10045330913580768]",4.0,"[0.09508754686143332,-0.15437217885681592]",100.0,"[0.017742443091889566,-0.16500694550050599]",4.0,"[-0.18921399378758197,0.024022406499129074]",100.0,"[-0.09928577998995275,0.057449578354489224]",100.0,"[0.12102984209686805,0.06194202592224797]",100.0,"[0.055429864367311205,0.09578388481786042]",100.0,"[-0.17642860662834325,-0.05940942996112182]",4.0,"[0.009683527543288009,0.19010808476899912]",100.0,"[0.1500038015606649,0.12799554598856203]",4.0,"[-0.1504943087916062,0.12640871229184414]",4.0,"[-0.0027044587488678847,0.009331845806629605]",4.0,"[0.10705800688355568,0.16347766249436396]",4.0,"[0.02,0.02]",134.9221,0.0,14.0,14.0,93.0,1.0,,,,,,,
,,,,,,,6137753896c9b6b5813a2432,68399d5fd7f68f7be9a09a39,2025-05-30_13h01.17.925,shape_ratio,2024.1.5,Win32,60.60606061,683853e18dae57a2147b65e0,,,,,,,,,,,134.9232,135.4224,,,135.6807,136.5064,left,,,,,,,,0.4,0.8026,,,,,,,135.4227,135.6806,136.5065,"[0.0005401408255438005,-0.11088413219678774]",4.0,"[-0.1418006609107227,-0.10403272068282662]",4.0,"[-0.10701648420492678,0.009158081157247614]",100.0,"[-0.0850973596224793,-0.13600294335305668]",4.0,"[0.12052437128282502,-0.1014365617969777]",4.0,"[-0.18031959011294266,-0.003207478149723434]",100.0,"[0.09659910593285526,0.0500817279346042]",4.0,"[0.17344217029913817,-0.0274624994912836]",4.0,"[0.06847000029872455,0.09138092006343992]",100.0,"[0.05643296229217296,0.048090556907431664]",4.0,"[-0.1164723079639921,0.14259536383722912]",100.0,"[-0.05790798537119482,0.11612549046531105]",100.0,"[0.09781554090633372,0.15441123951231997]",100.0,"[-0.1110676931890445,0.0848024628340488]",4.0,"[0.053036858913404594,0.13976436952201685]",4.0,"[0.013780610081376068,-0.055864755114503346]",100.0,"[-0.13165224467765058,0.049231905786380925]",100.0,"[-0.06863551279814796,0.0759264275583974]",4.0,"[0.14556168477014708,0.0357918561474933]",100.0,"[0.034575997840921524,-0.1526910674725172]",100.0,"[0.10571797864909223,-0.002087634522193319]",4.0,"[0.08542290918626451,-0.15726516369374974]",4.0,"[-0.024370247830600687,-0.014624688939681045]",100.0,"[-0.025543681357058926,0.06980997134726591]",4.0,"[-0.04573274016872738,0.02951022387869269]",100.0,"[0.1378429789037328,0.07581917179217235]",4.0,"[-0.05533128015162877,-0.06659117888704111]",4.0,"[-0.02935057744174329,0.156827536002246]",100.0,"[0.15070660723251011,-0.06633136334550832]",4.0,"[0.05182046207993889,-0.08786894839918095]",4.0,"[0.021949089687736893,0.08531401370307662]",4.0,"[0.07344561858042786,-0.05376634352929847]",4.0,"[0.02,0.02]",137.6062,0.0,15.0,15.0,163.0,1.0,,,,,,,
,,,,,,,6137753896c9b6b5813a2432,68399d5fd7f68f7be9a09a39,2025-05-30_13h01.17.925,shape_ratio,2024.1.5,Win32,60.60606061,683853e18dae57a2147b65e0,,,,,,,,,,,137.6078,138.1063,,,138.349,139.0738,right,,,,,,,,0.1,0.7033,,,,,,,138.1065,138.3489,139.074,"[-0.006524541340458765,-0.018086462435071442]",4.0,"[-0.14421900276707733,0.05532420054425536]",4.0,"[-0.05990972436075908,0.09681629202413677]",4.0,"[-0.13633174142539678,0.13375400743233737]",100.0,"[-0.048208682542670356,0.023936772004057385]",4.0,"[0.09558792019903967,0.010753477985525325]",4.0,"[-0.13186212744766548,-0.043934564794555375]",4.0,"[-0.005930138637870661,0.1359124266945278]",4.0,"[-0.03796178385244435,-0.04572588368534131]",100.0,"[-0.15074337514696984,0.008121669482795472]",4.0,"[0.0336189450928518,-0.13346980978397502]",4.0,"[-0.006601865028603057,0.07532435010253623]",4.0,"[0.031152696379886043,0.01383250661766989]",4.0,"[-0.09466051330960155,-0.028815996293107653]",4.0,"[0.010232743399201015,0.18728876612539233]",4.0,"[0.09340753495072603,0.1565316625999008]",4.0,"[-0.1875035030583853,-0.03957711201771221]",4.0,"[0.05151232678286918,0.11113942867603109]",4.0,"[0.10161168279550914,0.09185180569534694]",4.0,"[0.08265536039202005,-0.11377324104626911]",4.0,"[-0.11675681061908033,-0.12855394235865164]",4.0,"[-0.031465477479388985,0.18474753166296717]",4.0,"[0.16611404060426288,-0.1033265767958475]",4.0,"[0.1106761695278734,-0.15200537295215066]",4.0,"[-0.05807853373119667,-0.1422249166460177]",4.0,"[-0.09253608456562286,0.05974909316682743]",4.0,"[0.175801051064058,0.06740558829227454]",100.0,"[-0.09565899205096239,-0.1677966723698907]",4.0,"[-0.010031750065490787,-0.19845359930702103]",4.0,"[-0.05895579906797319,-0.08093102208434819]",4.0,"[0.17873032927829235,0.013397667245772824]",4.0,"[0.15452164058718332,-0.02822406812158092]",4.0,"[0.02,0.02]",140.1741,0.0,16.0,16.0,195.0,1.0,,,,,,,
,,,,,,,6137753896c9b6b5813a2432,68399d5fd7f68f7be9a09a39,2025-05-30_13h01.17.925,shape_ratio,2024.1.5,Win32,60.60606061,683853e18dae57a2147b65e0,,,,,,,,,,,140.1763,140.6746,,,140.9163,141.5916,left,,,,,,,,0.5,0.6523,,,,,,,140.6747,140.9162,141.5917,"[0.16849753972735643,0.07695117546115351]",4.0,"[-0.06488317267772992,-0.129272823563969]",4.0,"[0.03258126244560425,0.03522930484826025]",100.0,"[-0.028558031722590974,0.1083795627347479]",100.0,"[0.11228434882641918,-0.05907425533213203]",4.0,"[-0.1361248675546472,-0.11396034075464291]",100.0,"[-0.07721207524349288,0.035144747672699546]",100.0,"[0.029049802618408904,0.08401223842850568]",4.0,"[0.048961987385625905,0.139212234736468]",4.0,"[0.14431805867552525,0.04102930271762658]",4.0,"[0.09209522042231204,-0.014724087535668154]",100.0,"[0.01955143434408233,0.19315226008596684]",100.0,"[-0.08821608379878226,0.15112816778939953]",100.0,"[-0.07747609891079246,-0.02312470485949321]",4.0,"[-0.12727929061350457,0.021334029978686598]",100.0,"[0.06619917354640321,-0.060268062165348864]",100.0,"[-0.1332966603891778,0.1050330799501201]",100.0,"[-0.018897169077204578,0.17654416360844652]",100.0,"[-0.08613338569074422,-0.08008819143858245]",100.0,"[0.07823206889434949,-0.16391266582595623]",4.0,"[-0.18696281092404263,-0.03951543612824762]",100.0,"[-0.020081404471342528,-0.16837443154165524]",4.0,"[-0.0019104484959032546,-0.05747058550054719]",4.0,"[0.08660856600467953,-0.10531018770714182]",4.0,"[-0.11721295638088103,-0.16110618321918374]",4.0,"[0.09650949192437679,0.08798538864353005]",100.0,"[0.040979141464244175,-0.14487912106045692]",4.0,"[0.1732082557662546,-0.07151962229192287]",100.0,"[-0.18125625349433125,0.032473614714033844]",4.0,"[-0.05090759759356096,0.0681400700656835]",4.0,"[-0.14408249900240472,-0.0694501856254326]",4.0,"[0.14560026420607575,-0.03318319931380264]",100.0,"[0.02,0.02]",142.692,0.0,17.0,17.0,91.0,1.0,,,,,,,
,,,,,,,6137753896c9b6b5813a2432,68399d5fd7f68f7be9a09a39,2025-05-30_13h01.17.925,shape_ratio,2024.1.5,Win32,60.60606061,683853e18dae57a2147b65e0,,,,,,,,,,,142.6933,143.1914,,,143.4429,144.0758,right,,,,,,,,0.55,0.6177,,,,,,,143.1916,143.4429,144.0759,"[0.09106702803910534,0.031972980315866595]",100.0,"[0.04404468381045153,-0.18660320944324346]",100.0,"[-0.11532538398965929,0.09870627476485744]",100.0,"[0.06871739096524909,-0.08262198072835712]",100.0,"[-0.19439933674379697,-0.011026697061086381]",4.0,"[-0.07901575609495512,0.07100064491141747]",4.0,"[-0.022398152899916646,0.1738082303301962]",100.0,"[0.06465185113118066,-0.012635646762316545]",100.0,"[0.09787360857351934,0.15770483397171794]",4.0,"[-0.17092742485108564,0.09034578422711867]",4.0,"[0.1312817724368363,-0.09923021725974789]",4.0,"[-0.008964113817165692,-0.09412640878649095]",100.0,"[0.1546435018407877,-0.019161084717337483]",100.0,"[-0.10013297778186803,0.14775108989521837]",100.0,"[0.03777523887682665,0.04114187184937249]",100.0,"[-0.14578207877395927,0.12601330161544338]",4.0,"[-0.02594875378512958,-0.1450889893238567]",100.0,"[0.0881762406246101,-0.17793943020183764]",100.0,"[0.08734211042167467,-0.12894147296608244]",4.0,"[0.14370243803898933,0.10774389623205394]",4.0,"[-0.030965415712141616,0.038809727582313616]",4.0,"[-0.02625932266224513,0.12979422631996934]",100.0,"[-0.000574498221939376,0.00678060892148259]",4.0,"[-0.04931764737038681,-0.057734052918329684]",4.0,"[0.012959091302862975,0.117753449190373]",100.0,"[0.1223171512816394,0.06505589623573724]",4.0,"[0.13745972629577372,-0.14039212641519017]",100.0,"[-0.09878063029274735,0.00797971119928723]",4.0,"[0.15730698873308335,0.032173240194113766]",4.0,"[-0.1511267107843461,-0.06437357438653174]",100.0,"[0.009640674573971584,0.07642828881846123]",100.0,"[-0.05525323419893154,-0.18599854045094438]",100.0,"[0.02,0.02]",145.1762,0.0,18.0,18.0,65.0,1.0,,,,,,,
,,,,,,,6137753896c9b6b5813a2432,68399d5fd7f68f7be9a09a39,2025-05-30_13h01.17.925,shape_ratio,2024.1.5,Win32,60.60606061,683853e18dae57a2147b65e0,,,,,,,,,,,145.1773,145.6763,,,145.9268,146.8098,left,,,,,,,,0.4,0.8655,,,,,,,145.6765,145.9266,146.8099,"[-0.015213971722039558,-0.06189231992293841]",4.0,"[-0.10285675363664712,-0.14883712890919024]",4.0,"[0.17787973362848075,0.0053818370616451104]",4.0,"[0.055150296583731565,-0.18022809358347375]",4.0,"[0.010553697484475884,0.06455358874719055]",100.0,"[-0.11319878112029802,0.1344458791795423]",4.0,"[0.07202604715673533,0.030228151475163896]",4.0,"[0.023240650744702995,0.1470449350971885]",4.0,"[0.03872120780572704,-0.051290917407999355]",4.0,"[0.0568416846215054,-0.13368458061113056]",4.0,"[-0.06171929435945094,-0.07026073906282634]",100.0,"[-0.14361637261999027,-0.11724160256670735]",100.0,"[-0.08747564512469583,-0.03776802155408199]",4.0,"[0.11507558985355824,-0.07927494070010714]",100.0,"[0.11396136735912413,-0.028958901397144847]",4.0,"[0.147528257701089,-0.13448639122467923]",100.0,"[-0.16846821341902632,0.03660725746205942]",4.0,"[0.12481771582711285,0.03503184097105302]",100.0,"[0.16577563828437436,0.06511300854512683]",100.0,"[0.037033043722992806,0.0021723410373928422]",4.0,"[0.09338965007978606,0.13684134704292616]",4.0,"[0.09907397775498701,0.08190423153511549]",100.0,"[-0.1222453833120796,0.002493690075215697]",4.0,"[0.07634572554265763,-0.01488528654401276]",100.0,"[-0.053462299551667654,0.044479934978208756]",100.0,"[-0.043709727873245334,-0.11721403218337705]",100.0,"[-0.156548233332039,0.11821322003894214]",4.0,"[0.010256833790263,-0.15552435854768112]",4.0,"[-0.044640203097522264,0.1280306616114664]",4.0,"[-0.15273010398538953,-0.04873943188828057]",100.0,"[0.004172689399402434,-0.19539472682922635]",4.0,"[-0.17979851238693634,0.07825605209859088]",100.0,"[0.02,0.02]",147.9108,0.0,19.0,19.0,150.0,1.0,,,,,,,
,,,,,,,6137753896c9b6b5813a2432,68399d5fd7f68f7be9a09a39,2025-05-30_13h01.17.925,shape_ratio,2024.1.5,Win32,60.60606061,683853e18dae57a2147b65e0,,,,,,,,,,,147.9118,148.4161,,,148.6675,149.3109,right,,,,,,,,0.9,0.6204,,,,,,,148.4163,148.6675,149.3113,"[-0.04905111268879107,-0.1640874499155003]",100.0,"[0.145789676631356,-0.12423556143337142]",4.0,"[-0.04382091340560523,0.17778458510344808]",100.0,"[0.06616133799662491,-0.18843385558242057]",100.0,"[0.07105316998238886,0.08818757027650136]",100.0,"[0.10134598776189471,-0.14088461680129122]",100.0,"[-0.12939393120201378,-0.053970694582494816]",100.0,"[0.015357543966332956,0.10091258629385372]",100.0,"[-0.03247925218748912,0.05901441821476182]",100.0,"[-0.10675735945226944,0.12269145482160726]",100.0,"[0.011584080680815602,-0.14197960431014683]",100.0,"[-0.1028529757136252,0.021023620511455975]",100.0,"[-0.04808704571955423,-0.05419649988740575]",100.0,"[0.05102976543483222,-0.03173920821921196]",100.0,"[-0.029439741835223937,0.10323482534912218]",100.0,"[-0.09622048825074264,-0.02065190030119013]",100.0,"[-0.1123272652405229,-0.10263245656738439]",100.0,"[0.1433672031331529,-0.055641615717998805]",4.0,"[0.11242874838071899,0.1494571424135455]",100.0,"[-0.04747240478074083,0.02189414746688922]",100.0,"[0.12224224237427242,0.04040491635682851]",100.0,"[0.15998390824852174,-0.016305383289141672]",100.0,"[-0.09386845363533164,0.1689618341650146]",100.0,"[0.02318190777197807,0.16954609612819482]",100.0,"[0.19576889416137458,0.03780003399723388]",100.0,"[-0.13247153077706414,0.0646847888133986]",100.0,"[-0.06990657940468942,-0.10971815483615113]",100.0,"[-0.11632205313799641,-0.1549107401454244]",4.0,"[0.08617728918386335,-0.0725263516476807]",100.0,"[0.025685141427066925,-0.06465116289214845]",100.0,"[-0.15175262684608598,-0.12918933200216262]",100.0,"[-0.021478783098989734,-0.09441325373769664]",100.0,"[0.02,0.02]",150.4117,0.0,20.0,20.0,17.0,1.0,,,,,,,
,,,,,,,6137753896c9b6b5813a2432,68399d5fd7f68f7be9a09a39,2025-05-30_13h01.17.925,shape_ratio,2024.1.5,Win32,60.60606061,683853e18dae57a2147b65e0,,,,,,,,,,,150.4127,150.911,,,151.1684,152.1621,left,,,,,,,,0.4,0.971,,,,,,,150.9113,151.1683,152.1624,"[-0.13430597630012947,-0.10224430399690565]",4.0,"[0.12943375655738593,0.04231988521761177]",4.0,"[0.11883160758544474,-0.05336049713079677]",4.0,"[0.10261067122382994,-0.10746051408456804]",4.0,"[0.07641861132148613,0.0038736242426643144]",4.0,"[-0.1651274370511489,0.04727045894361849]",4.0,"[0.022198024613094957,0.01190167932338677]",100.0,"[-0.11752518764732992,-0.04904145440416873]",100.0,"[-0.07052058770451629,-0.08451349096032393]",4.0,"[0.038104685692368516,-0.0731200546538911]",4.0,"[-0.08283829187292929,0.131679294058038]",4.0,"[0.0215044557976625,0.1637829190246379]",100.0,"[0.03109820728325576,0.06712989859047423]",4.0,"[-0.1932387451121507,-0.014172522983472872]",100.0,"[-0.02200338506840563,-0.1250852405760225]",100.0,"[0.027875964277367115,-0.02905003209989147]",4.0,"[0.19089971899683547,0.04741617980352969]",100.0,"[-0.15175105052134433,-0.0018901546982198032]",100.0,"[-0.06834854029666218,-0.1599446510564542]",4.0,"[-0.17552253743060547,-0.05706473338161289]",4.0,"[0.09837908295250901,0.15093026349846062]",4.0,"[0.11678450699610073,0.08385496891796902]",100.0,"[-0.024956678353637126,0.14252955992449867]",100.0,"[-0.021177143892151938,0.04244934153013409]",100.0,"[-0.07158020843647334,0.002431979755707605]",4.0,"[0.05739154670864778,0.10386796636194445]",100.0,"[-0.01739742922767451,0.09436685998403328]",4.0,"[-0.018941036373920007,-0.014623379354475802]",4.0,"[0.087132238659198,-0.17504218771881697]",4.0,"[0.028766404571403434,-0.1959089601371855]",4.0,"[-0.04537600429572243,0.19335255006175603]",100.0,"[-0.11891478153683524,-0.14120981313263578]",100.0,"[0.02,0.02]",153.2535,0.0,21.0,21.0,169.0,1.0,,,,,,,
,,,,,,,6137753896c9b6b5813a2432,68399d5fd7f68f7be9a09a39,2025-05-30_13h01.17.925,shape_ratio,2024.1.5,Win32,60.60606061,683853e18dae57a2147b65e0,,,,,,,,,,,153.2547,153.7459,,,153.9973,154.6789,right,,,,,,,,0.55,0.6658,,,,,,,153.7462,153.9972,154.6789,"[0.09247679063483738,0.0983641009262839]",4.0,"[-0.007823057700022626,0.12829992155036424]",4.0,"[-0.1082580559162738,0.14497563482430226]",100.0,"[0.07088190316985285,-0.011613559864520426]",100.0,"[-0.0958370738219849,0.03702640625967908]",100.0,"[0.023937325165156852,-0.05811623010996075]",4.0,"[0.11555380872371723,-0.012158100725918695]",100.0,"[-0.10049358103459527,-0.02709996374792268]",4.0,"[0.05181385952618707,-0.10248362143088176]",4.0,"[0.07168464459837126,0.16116218383288355]",100.0,"[0.09163064026369921,-0.06978143423508597]",4.0,"[0.03437849586231346,0.039112103662977855]",4.0,"[-0.019039648430686475,-0.04952497256361434]",4.0,"[-0.011608492913351294,0.07292498381021806]",4.0,"[-0.026592050167460496,-0.18470556493892573]",4.0,"[-0.15042263303534947,-0.09117300351603215]",100.0,"[0.05452875326712956,0.11832727503822413]",100.0,"[0.16524003949451171,-0.11223532833925604]",4.0,"[-0.032134128442764066,-0.10637452846162954]",100.0,"[-0.1428235737399095,0.0385117914188539]",100.0,"[0.09743638328485742,0.0529229669424696]",100.0,"[-0.030041423366110334,0.003037647571552034]",100.0,"[0.15306173969532746,0.01466075026511374]",4.0,"[-0.08401353567933392,-0.11754690893883013]",4.0,"[-0.1432387258276017,-0.03503806030819526]",100.0,"[0.1573635025939478,0.11874129412109258]",100.0,"[0.07082735069586937,-0.16705382569523353]",100.0,"[-0.1849776990689459,0.057244281804568]",100.0,"[-0.1214775676974339,-0.15221617438820711]",100.0,"[-0.14892153345136647,0.09855444606401376]",100.0,"[0.1774162800200813,-0.05830601509910772]",4.0,"[-0.06671212192144617,0.15325372650009264]",100.0,"[0.02,0.02]",155.7801,0.0,22.0,22.0,67.0,1.0,,,,,,,
,,,,,,,6137753896c9b6b5813a2432,68399d5fd7f68f7be9a09a39,2025-05-30_13h01.17.925,shape_ratio,2024.1.5,Win32,60.60606061,683853e18dae57a2147b65e0,,,,,,,,,,,155.7812,156.2799,,,156.5226,157.181,left,,,,,,,,0.4,0.636,,,,,,,156.28,156.5225,157.1811,"[0.11647683843108617,-0.006746042542228344]",4.0,"[0.04726397388367356,-0.002363378597770146]",100.0,"[-0.08620792303030982,-0.1733520768973184]",100.0,"[-0.019447875467122417,-0.005802868048605896]",100.0,"[0.10948190170386468,-0.12077702808925007]",4.0,"[0.19572728160877578,-0.007817233760766339]",100.0,"[-0.10915162426731069,-0.0385397797551838]",4.0,"[-0.149234616728381,-0.08369323759819917]",4.0,"[-0.02606176630196198,0.05280361019496825]",100.0,"[0.0028377865653288247,0.09651016084973975]",4.0,"[-0.033365746267606716,-0.10962667177441929]",100.0,"[0.07814351004952236,0.1282053324174048]",4.0,"[-0.08034787493831737,0.07039628987428227]",4.0,"[0.13799585708975326,0.12847113709070462]",4.0,"[-0.007006742422622478,0.1749993350471347]",4.0,"[0.08350519733118288,-0.1532278913445898]",4.0,"[-0.1818218378098344,0.02340462610889579]",4.0,"[-0.06971475821624827,-0.0014961499180208995]",4.0,"[0.1566713124803031,-0.0573151020198614]",4.0,"[0.16423860917754868,0.026454018578017366]",100.0,"[-0.17118799893889947,-0.043561698617299215]",100.0,"[-0.1228201549445989,0.096856912423397]",4.0,"[0.05107461463543049,-0.05023048544851166]",4.0,"[-0.0036427017094229765,-0.1598607849176734]",4.0,"[0.03865344174865026,-0.16820505162553218]",4.0,"[0.02151099445825544,-0.11104151462741235]",100.0,"[0.10348854051289885,0.16294495128085654]",4.0,"[0.12377859875336789,0.07333473554559207]",100.0,"[-0.049223114860603726,-0.05740558030672609]",4.0,"[-0.18080774623973575,0.07156243448197494]",100.0,"[-0.12605453372348757,0.01684432250326217]",100.0,"[-0.035027556143545975,-0.19329123155135683]",100.0,"[0.02,0.02]",158.2806,0.0,23.0,23.0,157.0,1.0,,,,,,,
,,,,,,,6137753896c9b6b5813a2432,68399d5fd7f68f7be9a09a39,2025-05-30_13h01.17.925,shape_ratio,2024.1.5,Win32,60.60606061,683853e18dae57a2147b65e0,,,,,,,,,,,158.2824,158.7811,,,159.021,159.6652,right,,,,,,,,0.9,0.6198,,,,,,,158.7812,159.021,159.6654,"[-0.1429451507697235,-0.13320163863376497]",100.0,"[-0.15059243066151745,0.01211249586500516]",100.0,"[0.08652595539570997,-0.028060965292142408]",100.0,"[-0.04616685236148636,0.029096926217887]",100.0,"[-0.18855347878675696,-0.029301585408463553]",100.0,"[-0.10399137259656724,0.006240410142164883]",100.0,"[0.04100526103112596,0.15305307302873025]",100.0,"[-0.16247310617508415,0.09348055763257017]",100.0,"[0.11147300046628672,0.030650188447879183]",4.0,"[-0.015534124369955616,0.08447740541072798]",100.0,"[0.011965393263952556,-0.11113389804847279]",100.0,"[-0.04566400174171019,0.16166081118084666]",100.0,"[0.1491703591566834,-0.11103035489504735]",100.0,"[0.03369707215344901,0.012380888856540376]",100.0,"[0.12411217700050163,0.09641275655979387]",100.0,"[-0.09091462556030343,-0.10913253881213178]",100.0,"[0.12259274805036928,-0.06141834463548162]",100.0,"[-0.12859862602855487,-0.095647073650594]",100.0,"[0.1802494669910791,-0.060345787445755625]",100.0,"[-0.10413163249684648,0.05190401592281061]",4.0,"[0.1816761314204657,0.0097911203210839]",100.0,"[0.03676508970145167,0.11068058407887327]",100.0,"[-0.047593077295996294,-0.079736503819265]",100.0,"[0.005069590274226242,-0.05621391028880859]",100.0,"[-0.004209929083272633,0.13751462693990982]",100.0,"[-0.11687590775366055,0.1112599022725948]",100.0,"[-0.06004623007163159,0.08591037416755506]",100.0,"[0.15918162757966225,0.12017498024929561]",4.0,"[0.05778728125286062,-0.11807633945388643]",100.0,"[-0.031559476461281086,-0.14303281843876392]",100.0,"[0.05847074525348281,-0.06087935704709824]",100.0,"[0.10314529915707255,-0.10362343301918395]",100.0,"[0.02,0.02]",160.7651,0.0,24.0,24.0,26.0,1.0,,,,,,,
,,,,,,,6137753896c9b6b5813a2432,68399d5fd7f68f7be9a09a39,2025-05-30_13h01.17.925,shape_ratio,2024.1.5,Win32,60.60606061,683853e18dae57a2147b65e0,,,,,,,,,,,160.7666,161.2654,,,161.5052,162.2984,left,,,,,,,,0.55,0.7681,,,,,,,161.2657,161.505,162.2985,"[0.01796881116977376,0.07339615341649901]",100.0,"[0.12348794009697464,-0.12337433479834091]",100.0,"[-0.025362115985925197,0.053993249944268185]",4.0,"[-0.15214416852742707,0.06843199900533102]",4.0,"[-0.10436520528680866,-0.008509692620343156]",100.0,"[0.17350951334619807,-0.09287226764874308]",100.0,"[-0.006646557985829608,0.1920819050663136]",4.0,"[-0.09134025076079787,0.061100561768172634]",4.0,"[0.07762452051518419,-0.00343919232797464]",100.0,"[0.09806955512177237,0.06438038555185113]",4.0,"[0.002554094790281991,0.002603400277697157]",100.0,"[-0.03812269041140601,-0.10052808616144826]",100.0,"[0.1471569389853208,0.03127213360703016]",100.0,"[0.013176827952497843,-0.060920004841395085]",4.0,"[0.050714679951427755,-0.12629069861859782]",100.0,"[0.01661058970270967,0.1288533227033833]",4.0,"[-0.08931604712035268,-0.17878304176512752]",100.0,"[0.005401785495405791,-0.11368375969936448]",100.0,"[0.13856596186496373,0.1396051181967989]",100.0,"[-0.06674805408646274,0.11608134239718271]",100.0,"[0.18199922459705195,-0.0053723624121188585]",100.0,"[0.08520015585204764,-0.09900922349165531]",4.0,"[-0.06095899466382021,0.02597970119454044]",100.0,"[-0.06741755351798798,-0.06660879952059835]",100.0,"[-0.12414298024091922,0.15086792046009576]",4.0,"[0.07397158300422912,-0.1667986668887216]",4.0,"[0.09053892978083393,0.14198757324718625]",4.0,"[-0.18124723715908386,-0.023634336143213853]",100.0,"[0.12454657428138102,-0.06881125986087483]",4.0,"[0.11886507864083752,-0.0004378474367856535]",4.0,"[-0.046436387877445244,-0.1925030145107394]",100.0,"[-0.12579050092017433,-0.0827228067988194]",4.0,"[0.02,0.02]",163.3991,0.0,25.0,25.0,74.0,1.0,,,,,,,
,,,,,,,6137753896c9b6b5813a2432,68399d5fd7f68f7be9a09a39,2025-05-30_13h01.17.925,shape_ratio,2024.1.5,Win32,60.60606061,683853e18dae57a2147b65e0,,,,,,,,,,,163.4009,163.8992,,,164.1511,164.7494,right,,,,,,,,0.9,0.5822,,,,,,,163.8993,164.1511,164.7495,"[-0.143681590409924,-0.09363360350116973]",100.0,"[0.08112380429224764,0.08234120957296484]",100.0,"[-0.13276821207692135,0.01816992904773231]",100.0,"[0.17866796240656713,-0.015201107248041463]",100.0,"[-0.057730186833872946,-0.1484436533346631]",100.0,"[0.00889563842587022,0.005397576282191999]",4.0,"[-0.14569866967921022,0.13270830803847397]",100.0,"[-0.022551495496749185,-0.02420366079410717]",4.0,"[-0.06981429978617572,0.11145528935129585]",100.0,"[-0.08058106974040771,-0.09802001252820539]",100.0,"[-0.0986901771040206,0.14122943478553127]",100.0,"[0.010058046951098033,0.12737712509746993]",100.0,"[0.1322351291569561,0.0456537161829044]",100.0,"[0.012535259753487637,-0.1486379890942233]",100.0,"[-0.005079121502750366,0.07985329550290718]",100.0,"[-0.1949000061677877,-0.0005093635686108082]",100.0,"[-0.15845071279971332,-0.042243625713415854]",100.0,"[-0.08321460568143672,-0.051593120813911396]",100.0,"[-0.06984520157126478,0.1752936235216412]",100.0,"[0.055056827594360556,0.1564428740789291]",100.0,"[0.07189508483261528,-0.07540879650265889]",100.0,"[0.05613185906716313,0.020371210407059564]",100.0,"[0.1674784658768631,0.08563385548877564]",100.0,"[-0.17317275227047657,0.04780187967283217]",4.0,"[-0.023650270679627345,0.1664516505319336]",100.0,"[0.15556598882775824,-0.05309798868582142]",100.0,"[0.1315759957148332,-0.11675380234441193]",100.0,"[-0.11949591888001698,-0.03187428319384252]",100.0,"[0.09562445218559802,0.13321069548285244]",100.0,"[-0.10233392338435121,-0.14740448381563678]",100.0,"[-0.009247487037110178,-0.18925792009249026]",100.0,"[0.1379771965178859,-0.002664406869268144]",100.0,"[0.02,0.02]",165.8508,0.0,26.0,26.0,9.0,1.0,,,,,,,
,,,,,,,6137753896c9b6b5813a2432,68399d5fd7f68f7be9a09a39,2025-05-30_13h01.17.925,shape_ratio,2024.1.5,Win32,60.60606061,683853e18dae57a2147b65e0,,,,,,,,,,,165.852,166.3511,,,166.5914,167.3181,left,,,,,,,,0.4,0.7025,,,,,,,166.3511,166.5914,167.3182,"[0.1536903800594181,0.04648965798924551]",100.0,"[0.008881239634746643,0.09649828581948082]",4.0,"[0.07194499368890023,-0.154434762556439]",4.0,"[0.14633942012330814,-0.11494805055117335]",100.0,"[-0.1073764976725515,-0.018516275865102922]",4.0,"[-0.1735708240561184,-0.052939449657433274]",4.0,"[-0.12369231109010632,-0.05831370190370106]",4.0,"[-0.07071322057180905,0.10851938923193699]",100.0,"[-0.12280319152745359,0.1170186053595525]",4.0,"[-0.06777156970016887,0.1710680989339025]",4.0,"[0.0800569257302158,-0.11364761070686517]",100.0,"[-0.07541312033257744,-0.08885806459455893]",4.0,"[0.05680867425687584,-0.034957232782720296]",100.0,"[0.10704756970526201,0.006348277167552861]",4.0,"[0.05804780772743164,0.09427423852448127]",100.0,"[-0.09460034179397764,0.042665008170252226]",4.0,"[-0.052422001787314015,-0.02227365200173485]",100.0,"[-0.026487662893683143,0.12108812865314775]",4.0,"[-0.10593688725196368,-0.1577191752398182]",4.0,"[-0.13089870945037727,0.06890856229546259]",100.0,"[0.0034686936792457674,0.01891614254644732]",100.0,"[0.09571723094498381,-0.0480767474443339]",100.0,"[-0.040881894681960705,-0.11634388695166395]",4.0,"[0.006020225386420516,-0.15578028702917726]",4.0,"[0.11431021313977734,0.10098794311875448]",4.0,"[0.014321998431010504,-0.09855375630473057]",100.0,"[0.07261568325600089,0.031210039789217252]",4.0,"[-0.16469899220734652,0.02261135080530047]",4.0,"[0.006857966400865307,0.17773368815393825]",4.0,"[0.06711702253321444,0.15793063188559547]",100.0,"[0.010404463595171796,-0.03886438084896449]",4.0,"[0.1716746621600419,-0.03446547793326796]",100.0,"[0.02,0.02]",168.4182,0.0,27.0,27.0,159.0,1.0,,,,,,,
,,,,,,,6137753896c9b6b5813a2432,68399d5fd7f68f7be9a09a39,2025-05-30_13h01.17.925,shape_ratio,2024.1.5,Win32,60.60606061,683853e18dae57a2147b65e0,,,,,,,,,,,168.4194,168.9183,,,169.161,170.1692,left,,,,,,,,0.4,0.9873,,,,,,,168.9187,169.1609,170.1693,"[0.10405501795343261,0.03772567874290857]",4.0,"[-0.013069900693852915,0.004474757077324345]",100.0,"[-0.08545841199170554,-0.01393679182234473]",100.0,"[0.1672381264794853,0.1069171311313643]",4.0,"[0.17618865369015493,0.008651071999466112]",100.0,"[0.0023612858346150427,0.14424588399495822]",4.0,"[0.049192120066866116,-0.0011076620425163343]",4.0,"[-0.09371038143297383,-0.10592126987313356]",4.0,"[-0.044025267180722645,0.05266208561767056]",4.0,"[0.08113031917344206,-0.12677602558433207]",100.0,"[-0.1375726156595268,-0.049869710892632084]",4.0,"[-0.154387003964967,0.07637278091697293]",4.0,"[0.09680915463898024,-0.04499744914727291]",100.0,"[0.016711602507621274,-0.18751872350168208]",100.0,"[0.043127024461669564,-0.10999822163246803]",4.0,"[0.056851796051609844,-0.15873841008832698]",100.0,"[-0.019388409337503774,0.09711444285068295]",4.0,"[0.08262584174086077,0.13103893258784458]",100.0,"[-0.016651497081958073,-0.04539256429385641]",4.0,"[-0.052731721031321885,0.18342403460628132]",100.0,"[0.03261611004292735,0.08687590574274727]",100.0,"[0.13640712439790675,0.0010457112829584474]",4.0,"[-0.010933097334296172,-0.10026363880201383]",4.0,"[-0.1348030024749658,-0.10172371287664451]",100.0,"[0.037242700559279945,-0.05269878166346189]",100.0,"[0.10420491947491801,-0.09309221503318872]",4.0,"[0.04222837935372444,0.17919895704191324]",4.0,"[0.0038391396965551925,0.1954364366828232]",4.0,"[0.16582772220363287,0.053111057125275696]",100.0,"[0.14766864008418448,-0.05395680823451297]",4.0,"[-0.08769483116424487,0.12503510816717356]",4.0,"[-0.07417832868781309,-0.07100988529798839]",4.0,"[0.02,0.02]",171.2694,0.0,28.0,28.0,175.0,1.0,,,,,,,
,,,,,,,6137753896c9b6b5813a2432,68399d5fd7f68f7be9a09a39,2025-05-30_13h01.17.925,shape_ratio,2024.1.5,Win32,60.60606061,683853e18dae57a2147b65e0,,,,,,,,,,,171.2706,171.7694,,,172.0091,172.7703,left,,,,,,,,0.4,0.7356,,,,,,,171.7696,172.009,172.7704,"[-0.12291019315988691,0.01527470841000129]",4.0,"[0.05037290621790973,0.16424858175930174]",100.0,"[-0.18856104305171364,-0.016998148911481145]",4.0,"[0.026110619462386984,0.19789450818934806]",100.0,"[-0.13958901204686006,-0.09683695540460505]",4.0,"[0.17058761910800102,-0.03043114551626344]",4.0,"[0.05744620838912681,0.024180933337448855]",100.0,"[0.15328173890011934,0.11380305906877777]",4.0,"[-0.0754842133990463,0.05909495723326502]",4.0,"[-0.047369527724922644,-0.010685267138062723]",4.0,"[-0.18200354333562568,0.04749692302661477]",100.0,"[0.08757436301630003,0.0844966491968597]",4.0,"[0.11200834399326631,-0.1208373764774426]",4.0,"[0.043546173931623806,-0.19124964235192526]",100.0,"[0.1413492151555923,-0.08075986403651589]",100.0,"[0.01654047299403009,-0.04856103328088482]",4.0,"[0.020444350386109995,0.005187699966702694]",100.0,"[0.016068647558627486,0.07458727164335115]",100.0,"[-0.03926318385479063,0.1575930934761143]",4.0,"[-0.17253986325020707,-0.06277936623147265]",100.0,"[0.05423933560042631,-0.13635823878614864]",4.0,"[-0.07530842284772603,0.12894233265391847]",100.0,"[-0.08910363746089602,-0.09349422889827605]",4.0,"[0.06499962983074313,-0.060852591911341236]",4.0,"[0.11517495736531547,0.03022267746668977]",4.0,"[-0.03579656421415765,0.042432415971014846]",4.0,"[0.12629052217279915,-0.010516614294064603]",100.0,"[0.10950406056341228,0.12417747792008334]",100.0,"[-0.15989512207974474,0.10780460940266516]",100.0,"[-0.08143850341760618,-0.1745660600182121]",4.0,"[-0.11600759200824277,0.11246792524241772]",4.0,"[0.1421169251209731,0.07445711506610238]",4.0,"[0.02,0.02]",173.8701,0.0,29.0,29.0,162.0,1.0,,,,,,,
,,,,,,,6137753896c9b6b5813a2432,68399d5fd7f68f7be9a09a39,2025-05-30_13h01.17.925,shape_ratio,2024.1.5,Win32,60.60606061,683853e18dae57a2147b65e0,,,,,,,,,,,173.8715,174.3703,,,174.627,175.4636,left,,,,,,,,0.45,0.8182,,,,,,,174.3704,174.6269,175.4638,"[-0.1751120943225547,0.07731457446414816]",4.0,"[0.03934573640611208,-0.1823164901287435]",4.0,"[-0.005853395181611605,-0.030355212712811434]",100.0,"[0.13054996407831612,-0.11225995603298926]",100.0,"[-0.1017353810593039,0.14074759161267794]",4.0,"[0.12449725325113792,0.13014938176313248]",100.0,"[-0.0932672042378441,0.0812545181151983]",4.0,"[0.18261905593529837,0.003681734260467639]",4.0,"[0.13579114059221337,0.0063267023377471]",4.0,"[0.07855163317890296,0.11737296001475561]",100.0,"[-0.05005774772457981,-0.06288534332691124]",100.0,"[0.1635157670036427,-0.06348598062677888]",4.0,"[-0.16626401864031623,-0.0202576638505282]",4.0,"[-0.006396194767354482,0.08011623075872384]",4.0,"[-0.08025250336659766,-0.13332114607675113]",100.0,"[0.08661766362518504,-0.09966820347997944]",4.0,"[-0.010926395913572574,-0.17573415670699463]",100.0,"[-0.022149430821998207,0.15283678241908588]",100.0,"[-0.12309144018100682,-0.10909112288223001]",100.0,"[0.11756654981551712,-0.03882071519210542]",100.0,"[0.041977666798609876,0.06123410554812847]",4.0,"[-0.058087674571903114,0.030766082515689176]",4.0,"[-0.044424048931334836,0.18955837053420296]",4.0,"[-0.01553985790516954,-0.08820575947939036]",100.0,"[0.018048608271180447,0.01120407443236932]",4.0,"[0.0496226852263033,0.1902948783349359]",100.0,"[-0.08573622284309868,-0.17862163338673556]",4.0,"[0.03489829284386246,0.13241677256648973]",100.0,"[0.035711703701384004,-0.13892797935954843]",4.0,"[0.148112324164815,0.054534068758575575]",4.0,"[0.08748667672680663,0.02466296855711379]",4.0,"[-0.162737862879588,0.01966191151322691]",100.0,"[0.02,0.02]",176.5543,0.0,30.0,30.0,146.0,1.0,,,,,,,
,,,,,,,6137753896c9b6b5813a2432,68399d5fd7f68f7be9a09a39,2025-05-30_13h01.17.925,shape_ratio,2024.1.5,Win32,60.60606061,683853e18dae57a2147b65e0,,,,,,,,,,,176.5557,177.0585,,,177.3054,178.0217,right,,,,,,,,0.45,0.7012,,,,,,,177.0586,177.3053,178.0219,"[0.1687332118794198,0.006463922158824128]",4.0,"[0.14080601038976925,-0.09344064035365969]",4.0,"[-0.0417264603692713,0.08471809074311672]",4.0,"[0.13362613938915877,0.032966395922964395]",100.0,"[-0.14233383774078864,0.12834737809903454]",100.0,"[0.1088497844135397,-0.06865364252820445]",100.0,"[-0.15196291938744244,0.00040748270499716343]",4.0,"[-0.07512079093280304,-0.13060006804224572]",100.0,"[-0.0885865734146042,0.14448116826079035]",4.0,"[0.010750526013968118,0.0326862861073321]",4.0,"[0.010774800942214315,-0.1802489639052664]",4.0,"[0.1341689951212494,0.10653328428399053]",4.0,"[0.06209967587731819,0.06592173852299886]",100.0,"[0.09027470934482888,0.11107071115281475]",100.0,"[-0.13460983495864387,0.06931728086275044]",100.0,"[0.006942943476477776,0.1451529711633965]",100.0,"[-0.12820293504979358,-0.07014662503331075]",4.0,"[0.11382465137114194,-0.12358089978136046]",100.0,"[-0.03290201739792908,0.15870735682622075]",4.0,"[-0.06537236655650026,-0.07420121435569689]",100.0,"[0.1500165640783787,-0.04136994972295996]",4.0,"[0.0388144279998554,-0.11198218633612997]",100.0,"[-0.000708519855976861,-0.07235309181422112]",100.0,"[-0.07457637677875766,0.03289490548709464]",4.0,"[-0.06729828377435162,-0.03157104353463276]",4.0,"[0.04328675583584128,-0.024766842241754416]",4.0,"[-0.1409423435285054,-0.10939760336183812]",4.0,"[0.11894072197587682,0.14754117033388822]",4.0,"[-0.17373481184417178,-0.05703991533680994]",100.0,"[-0.1921933857135863,0.00829746287586435]",4.0,"[0.0454572973605182,0.12003591933939044]",100.0,"[-0.02460274403770163,-0.12407783335723417]",4.0,"[0.02,0.02]",179.1218,0.0,31.0,31.0,120.0,1.0,,,,,,,
,,,,,,,6137753896c9b6b5813a2432,68399d5fd7f68f7be9a09a39,2025-05-30_13h01.17.925,shape_ratio,2024.1.5,Win32,60.60606061,683853e18dae57a2147b65e0,,,,,,,,,,,179.1233,179.6222,,,179.8731,180.5391,right,,,,,,,,0.45,0.6528,,,,,,,179.6224,179.873,180.5392,"[-0.05259434024385002,0.08644732102102866]",4.0,"[0.01527371508739441,-0.07668386665652088]",100.0,"[-0.08216623194883636,-0.12880217844049377]",100.0,"[0.14497707177819566,-0.004366761040888884]",4.0,"[0.17033036117382408,0.08629670691488452]",4.0,"[0.07073247406691854,0.11092361689587177]",4.0,"[0.014430607526754393,0.04874865202952272]",100.0,"[0.04612784928157325,0.14997148615854752]",4.0,"[-0.024357040036688406,0.14296158548994145]",100.0,"[-0.12691362129388614,0.026902017093942545]",4.0,"[0.1608510379038996,-0.10214388039422863]",100.0,"[0.10781550574593683,-0.13571261264536394]",100.0,"[-0.03649685395838888,-0.18979294672411412]",4.0,"[0.03275107662220465,-0.16593765623014747]",4.0,"[-0.08349044516770986,0.11563713928858713]",100.0,"[0.060116422340496,-0.04846446157157416]",4.0,"[-0.13044594041053587,-0.12459309459952939]",100.0,"[-0.0851194946294948,-0.03293101313886444]",4.0,"[0.017323101058132964,0.09726598965295963]",100.0,"[-0.16411155044129358,-0.058465300632634915]",4.0,"[-0.07443467112304372,0.17495753660464136]",100.0,"[-0.0583534520100377,0.04443585302350144]",100.0,"[0.058550159972112534,0.01783852534431995]",100.0,"[-0.011812115121726046,-0.15287532080040905]",4.0,"[0.10656885260495574,0.14754374446518856]",100.0,"[0.18023502362744243,-0.037093732902242556]",4.0,"[-0.018859839298064732,-0.01485259880298331]",4.0,"[-0.02957963731572081,-0.10172315665080557]",4.0,"[0.12885726190683527,0.09894064895550884]",100.0,"[0.10494994621085721,0.05184386600777923]",4.0,"[-0.10979653325965297,-0.0879361322656022]",4.0,"[0.09544068567052362,-0.07121693442543127]",4.0,"[0.02,0.02]",181.6391,0.0,32.0,32.0,145.0,1.0,,,,,,,
,,,,,,,6137753896c9b6b5813a2432,68399d5fd7f68f7be9a09a39,2025-05-30_13h01.17.925,shape_ratio,2024.1.5,Win32,60.60606061,683853e18dae57a2147b65e0,,,,,,,,,,,181.6398,182.1398,,,182.3799,183.214,left,,,,,,,,0.4,0.8147,,,,,,,182.1399,182.3798,183.2143,"[-0.09062128591052225,-0.15014743313652848]",100.0,"[0.057808741142828794,0.10905191257528733]",4.0,"[-0.1793675422598053,-0.03638558388186963]",4.0,"[0.10692679670102444,-0.11608172965647251]",4.0,"[-0.11869887224000708,0.033847100755642144]",100.0,"[-0.02918773585171344,-0.09863824972700032]",100.0,"[0.03907943481628227,-0.03835262327549962]",100.0,"[-0.004007278314826579,-0.151657164753403]",100.0,"[-0.06247232466751346,0.12510296674190746]",4.0,"[0.06515995392519583,-0.18034803787586728]",4.0,"[-0.04869476585853176,-0.0414200504469938]",4.0,"[0.11347691590091284,0.08167563713650791]",4.0,"[0.1519228045677623,0.06408058579938634]",4.0,"[-0.01851710520319214,0.003133250660745335]",100.0,"[-0.13244800459689504,-0.0630912768239774]",4.0,"[0.07898481991909477,0.044649659481789686]",100.0,"[-0.09710470423399029,-0.01307748652553336]",4.0,"[-0.12787625950814066,0.11573189829759532]",4.0,"[0.06539922608688466,0.000953190800388025]",4.0,"[-0.11053982359413982,-0.10152422572137933]",100.0,"[-0.04044804709463375,-0.18836295211491685]",4.0,"[0.15106085154085955,0.018387894632182007]",100.0,"[0.041260304480935595,0.1937199181090615]",4.0,"[-0.019577409392486096,0.18617966493230356]",4.0,"[0.02273147588723394,0.050866861677203896]",100.0,"[-0.07187354013696388,-0.08000122987488771]",4.0,"[0.01820353953788611,-0.10034963456088551]",100.0,"[0.15152965927613457,-0.10034466363656484]",4.0,"[0.09982059270901071,-0.051080974114451866]",4.0,"[0.04268186645522605,-0.13498185849942562]",100.0,"[-0.061183276794423355,0.17000985685695272]",100.0,"[-0.12063570088977998,0.15752899443098758]",4.0,"[0.02,0.02]",184.3073,0.0,33.0,33.0,178.0,1.0,,,,,,,
,,,,,,,6137753896c9b6b5813a2432,68399d5fd7f68f7be9a09a39,2025-05-30_13h01.17.925,shape_ratio,2024.1.5,Win32,60.60606061,683853e18dae57a2147b65e0,,,,,,,,,,,184.3087,184.8066,,,185.0457,185.7084,left,,,,,,,,0.6,0.6362,,,,,,,184.8067,185.0455,185.7086,"[-0.09400624599244735,0.10012742416844524]",100.0,"[-0.12045378201823086,0.1440493761638844]",4.0,"[-0.04942144959962462,-0.14206772778747503]",100.0,"[0.03281246364020575,-0.12219824876880339]",100.0,"[-0.13689404712671308,-0.040638759802819585]",100.0,"[-0.05157401895873797,0.12458308964258775]",4.0,"[0.15562637310202826,-0.10083801934682221]",100.0,"[-0.17417173099394143,-0.0006892747349174016]",100.0,"[-0.16654796220725548,0.06533291509646606]",4.0,"[-0.019230221509263495,-0.09606860139633429]",100.0,"[0.17407424239708266,0.0849422643386711]",100.0,"[-0.027693682635788995,0.06848735106650929]",100.0,"[0.06025907259107192,-0.16294683647164096]",4.0,"[-0.042773408513433885,-0.18491056517879276]",100.0,"[0.08642274243176967,0.07590832851707]",100.0,"[0.06010873363748936,0.005077980226287132]",4.0,"[-0.03535347852392685,0.1779201784334523]",4.0,"[-0.07032199069977098,-0.01218309267855894]",4.0,"[0.07319963827291281,0.15769015277155157]",4.0,"[0.1136985520607048,-0.08664485149165221]",4.0,"[0.13089875076644714,-0.012410514245438483]",4.0,"[-0.043340861261247296,0.02744389507469739]",100.0,"[-0.10863504445692578,-0.16260895539743167]",100.0,"[0.1694231325142134,0.02407511947573187]",100.0,"[0.004155840904490855,-0.1546614399116765]",100.0,"[0.18445725759277776,-0.017488173264704213]",100.0,"[0.026047546157040743,0.08734821313733686]",4.0,"[0.1323004496777598,0.08831113631194328]",4.0,"[-0.004864263902578002,-0.05235663430840273]",100.0,"[-0.0898419118398981,-0.1181408462301294]",100.0,"[-0.1397598321279205,-0.0891722320890934]",100.0,"[0.12370443877737607,-0.13718232768079874]",4.0,"[0.02,0.02]",186.8082,0.0,34.0,34.0,41.0,1.0,,,,,,,
,,,,,,,6137753896c9b6b5813a2432,68399d5fd7f68f7be9a09a39,2025-05-30_13h01.17.925,shape_ratio,2024.1.5,Win32,60.60606061,683853e18dae57a2147b65e0,,,,,,,,,,,186.8095,187.3084,,,187.565,188.1262,left,,,,,,,,0.1,0.5362,,,,,,,187.3085,187.5649,188.1263,"[0.11564235572619952,0.03797448958508774]",4.0,"[0.07903814913227483,-0.15133045120440805]",4.0,"[0.03628724510496595,0.004295167165712239]",4.0,"[0.1790062058209342,-0.03462559273164959]",4.0,"[-0.13328236606184352,0.03716669512814316]",4.0,"[0.10872354602059404,0.10411622370871089]",100.0,"[0.1664847203175488,0.054475125517200934]",100.0,"[-0.17810074211099242,0.008406192998837395]",4.0,"[-0.047671767617199275,-0.1198747363467217]",4.0,"[0.11240013499024837,-0.034971959018205954]",4.0,"[-0.08950638710300435,-0.06925580705732037]",4.0,"[-0.08146663656802582,0.013616541531596523]",4.0,"[0.008439202180790714,-0.16647596653013558]",4.0,"[-0.1182914638999061,-0.10260921877448445]",4.0,"[0.05273188051607702,0.16217957080906495]",100.0,"[-0.08067917163635588,0.11746380187703075]",4.0,"[0.05419327667462525,-0.09840180759485642]",4.0,"[0.009158223287643402,0.04143382772805206]",4.0,"[0.1500344730646967,-0.06819576624651552]",4.0,"[0.11501424483177282,0.15946884457260183]",4.0,"[0.043318151624278205,0.06315635493730627]",4.0,"[-0.13378865506553828,-0.020081904310647318]",4.0,"[-0.16963458708715923,-0.07268436611186957]",4.0,"[-0.010938315573793439,-0.024703964132849685]",4.0,"[0.013273455564336073,-0.10566634281988478]",4.0,"[-0.11996234328325535,0.07887904481139783]",4.0,"[0.11819190869696881,-0.13526236634234592]",4.0,"[0.023755277101098676,0.10425534382975696]",4.0,"[-0.09612192805030337,-0.16896876169538302]",4.0,"[0.008931304994593135,0.1602251118228443]",4.0,"[0.14359885547776474,-0.005457846048481226]",4.0,"[0.09558277125656262,-0.08821276247245655]",4.0,"[0.02,0.02]",189.2257,0.0,35.0,35.0,180.0,1.0,,,,,,,
,,,,,,,6137753896c9b6b5813a2432,68399d5fd7f68f7be9a09a39,2025-05-30_13h01.17.925,shape_ratio,2024.1.5,Win32,60.60606061,683853e18dae57a2147b65e0,,,,,,,,,,,189.227,189.726,,,189.9657,190.8269,left,,,,,,,,0.6,0.8357,,,,,,,189.7261,189.9656,190.8271,"[0.1462918911855694,-0.06084637185735795]",100.0,"[-0.033767912333191145,-0.1473018452305556]",100.0,"[0.1586709206238763,0.004247181255188505]",100.0,"[0.0267967335244561,0.12803266358567075]",4.0,"[0.07257885843047766,-0.09177604915715015]",4.0,"[-0.09446836464772866,0.11281180529902757]",100.0,"[0.07480084534622959,-0.048699216393183586]",4.0,"[-0.0353539181473043,0.03378858407459407]",4.0,"[-0.048188657333837655,0.10394522157131963]",100.0,"[0.09352011645833352,-0.0076481693930542894]",100.0,"[0.016554075784456723,0.0893139451900721]",100.0,"[-0.17781823892905912,-0.06540495391475105]",4.0,"[0.06581536876756883,-0.13495769508598726]",4.0,"[0.009263803138012535,-0.1116260242093591]",100.0,"[0.11200025315604843,-0.11702686458430361]",4.0,"[-0.0970606409381304,-0.10534990713062999]",100.0,"[0.08770762118967428,0.17128597301317103]",100.0,"[0.15423450292754104,0.0928620769639335]",4.0,"[-0.13741805353005235,0.07499872379164166]",100.0,"[0.015182141566745048,0.007549106428692707]",100.0,"[-0.11990803698716665,-0.020382658557002803]",100.0,"[-0.007570311312941099,-0.03971735775169995]",100.0,"[-0.19577644700331948,0.009833650151142426]",100.0,"[0.09935798483047588,0.06104081568514372]",4.0,"[0.08508923316014617,0.13108263391561503]",100.0,"[-0.16164207742536396,0.11460768772969733]",4.0,"[-0.15451138713200088,0.013885887870517536]",100.0,"[0.0326516645473701,-0.18367582350895514]",100.0,"[-0.09868285569497748,0.16585024367616708]",100.0,"[0.14041753949187272,0.04286965065499353]",4.0,"[-0.08135578688103248,-0.06329284936822308]",4.0,"[0.037954625888554985,0.04655188945892937]",4.0,"[0.02,0.02]",191.9359,0.0,36.0,36.0,47.0,1.0,,,,,,,
,,,,,,,6137753896c9b6b5813a2432,68399d5fd7f68f7be9a09a39,2025-05-30_13h01.17.925,shape_ratio,2024.1.5,Win32,60.60606061,683853e18dae57a2147b65e0,,,,,,,,,,,191.9373,192.4274,,,192.6787,193.1612,left,,,,,,,,0.1,0.4527,,,,,,,192.4276,192.6785,193.1614,"[-0.09460270734056031,0.11245466455095691]",4.0,"[0.006938574771592881,0.11618381242472371]",4.0,"[-0.18412908401374836,0.038749979606966356]",4.0,"[-0.12794728266478916,-0.05118178619029953]",4.0,"[-0.030171456935117347,0.03440305844598836]",4.0,"[0.08352807472204968,0.17534042240148]",4.0,"[0.07742369525589639,-0.007243101405956907]",4.0,"[-0.16022450986599,-0.01613608194200688]",4.0,"[-0.14197043080524013,0.13956261190598007]",4.0,"[-0.017368384867269878,-0.15332578874725328]",4.0,"[-0.05004753729858017,0.1540042176655919]",4.0,"[0.17383013878847525,-0.06583535723819506]",4.0,"[-0.12342298375418458,0.00485284526680947]",4.0,"[-0.11665473633229516,-0.13874103470750132]",100.0,"[0.022939220523091518,0.010972469243974619]",4.0,"[0.04339739000840645,-0.17713736841418118]",4.0,"[0.17009074580498978,-0.01001130597446096]",4.0,"[0.02738045543564696,-0.1159368663959599]",4.0,"[0.12107897192629807,0.05906614758081169]",100.0,"[0.12421062150034401,-0.1534321439685432]",100.0,"[0.06402750090154018,-0.050348878110719225]",4.0,"[-0.0907079932600846,-0.10420767478868372]",4.0,"[0.0008000680451319507,-0.04139043174352157]",4.0,"[-0.13753589759506393,0.06539913814175025]",4.0,"[-0.14469747187629475,-0.09702026638687235]",4.0,"[-0.06993109727695994,-0.04989426755978334]",4.0,"[0.16840980549693674,0.04438159070980531]",4.0,"[-0.03832623156755331,0.08209643176515109]",4.0,"[0.044470768615758646,0.14837951165087768]",4.0,"[0.13118799835928752,-0.08695295494812429]",4.0,"[-0.0887193660802232,0.026009720998150687]",4.0,"[0.018577189217631573,0.18632056313224815]",4.0,"[0.02,0.02]",194.2609,0.0,37.0,37.0,190.0,1.0,,,,,,,
,,,,,,,6137753896c9b6b5813a2432,68399d5fd7f68f7be9a09a39,2025-05-30_13h01.17.925,shape_ratio,2024.1.5,Win32,60.60606061,683853e18dae57a2147b65e0,,,,,,,,,,,194.2628,194.7603,,,195.0036,195.562,right,,,,,,,,0.9,0.5405,,,,,,,194.7604,195.0035,195.5621,"[-0.17094119957234458,-0.0999130088166417]",100.0,"[0.14341287572244604,-0.07803633313845544]",100.0,"[-0.06824099801023492,-0.08133951396211539]",4.0,"[0.028795389210476877,-0.11162569155741812]",100.0,"[-0.05411081068020215,0.08149444074666325]",100.0,"[0.18541450092153025,0.06442325953327038]",100.0,"[-0.1401182049172376,0.08361061695725391]",100.0,"[0.04647494553720798,0.16687194778457135]",100.0,"[0.05018369049046194,0.050900573658364326]",100.0,"[-0.10917123416518244,-0.10937673307938439]",100.0,"[0.07581944840340243,0.1033218990199138]",100.0,"[0.08786463186581604,-0.06219066702829531]",100.0,"[-0.03161831200774829,-0.14051166916104438]",100.0,"[0.018151484321648738,-0.019894930435325402]",100.0,"[0.16678414205117406,0.010686370949187106]",100.0,"[0.13469268248084915,0.07382340432317397]",100.0,"[-0.08940281270197381,0.1396660938445441]",100.0,"[0.12874337187887053,-0.010571801473320468]",100.0,"[-0.06108335177344039,0.17362993056995252]",100.0,"[0.1906675193582516,-0.03164548313905199]",100.0,"[0.03953462465578435,-0.19342486139102077]",100.0,"[-0.1257703050390173,-0.0275842822426549]",100.0,"[-0.023887939535131707,0.02059393885256596]",100.0,"[0.06058879362253855,-0.13930020983699784]",100.0,"[-0.07151835741917646,0.032975465266322765]",4.0,"[-0.007954173036250256,0.14396116845807924]",100.0,"[-0.03133572047584058,-0.03668280887187512]",100.0,"[-0.17944554798763065,0.026364218451834925]",100.0,"[0.12091134552329567,-0.13016702516423276]",4.0,"[0.08620786566218268,0.03146576603539024]",100.0,"[0.13882012764875307,0.13934991111061074]",100.0,"[-0.07449953669906983,-0.012389570578124214]",100.0,"[0.02,0.02]",196.6619,0.0,38.0,38.0,4.0,1.0,,,,,,,
,,,,,,,6137753896c9b6b5813a2432,68399d5fd7f68f7be9a09a39,2025-05-30_13h01.17.925,shape_ratio,2024.1.5,Win32,60.60606061,683853e18dae57a2147b65e0,,,,,,,,,,,196.6632,197.1623,,,197.4219,198.0132,right,,,,,,,,0.9,0.5726,,,,,,,197.1624,197.4218,198.0133,"[-0.09664212671951207,0.09349671383244278]",100.0,"[-0.08859713352978783,-0.04454788534006576]",100.0,"[-0.08390391390085469,0.16556565818648877]",100.0,"[0.06635931763306094,0.15463303601357942]",100.0,"[-0.0650090823311432,-0.08728123406531543]",100.0,"[-0.1916139147044023,0.020789696308374867]",100.0,"[0.07178639695771881,-0.009047404112196455]",100.0,"[0.18590927364803245,0.0695545797946666]",100.0,"[-0.04105103314967517,-0.04273930344880592]",4.0,"[0.15372881912460498,-0.0714428086770813]",100.0,"[-0.03041953527015128,0.19342318758891552]",100.0,"[0.014963237991643976,0.18826792463010109]",100.0,"[0.0038574455319645147,0.02682646971134174]",100.0,"[0.14907556141313943,0.0005794033773968767]",100.0,"[-0.17292419115152566,0.09417888035463164]",4.0,"[-0.10961088347996882,0.004625030702250064]",4.0,"[-0.17305958707635946,-0.08742956526510927]",100.0,"[-0.12884110529927678,-0.09364146106632712]",100.0,"[-0.030428733659955055,-0.17015782906594942]",100.0,"[0.1025096671515501,-0.08000922959977103]",100.0,"[0.006327084672235688,-0.04661279243928838]",100.0,"[0.04538436002314126,0.08128074419270856]",100.0,"[0.10934924879891479,0.14321907567289657]",100.0,"[0.05119614773869346,-0.05433206011247268]",100.0,"[-0.14071046595444414,0.03545947935966217]",100.0,"[-0.009639520524234278,-0.09170236045747869]",100.0,"[-0.06600512882468199,0.0077300807194408275]",100.0,"[0.0568059194611095,-0.1362560434213057]",100.0,"[0.08663676227719892,0.0873029152812646]",100.0,"[-0.15498694741872732,-0.04330840273319632]",100.0,"[-0.04958953358976439,0.13197105145614715]",100.0,"[0.031123004879403404,-0.1861984935002334]",100.0,"[0.02,0.02]",199.1128,0.0,39.0,39.0,22.0,1.0,,,,,,,
,,,,,,,6137753896c9b6b5813a2432,68399d5fd7f68f7be9a09a39,2025-05-30_13h01.17.925,shape_ratio,2024.1.5,Win32,60.60606061,683853e18dae57a2147b65e0,,,,,,,,,,,199.1143,199.613,,,199.8647,200.7044,right,,,,,,,,0.55,0.8153,,,,,,,199.6139,199.8646,200.7045,"[0.03606921165463058,0.10143350494145097]",100.0,"[-0.1280827330479927,-0.014183894318244444]",100.0,"[-0.18498260111046413,0.009054816511362373]",100.0,"[0.0046978772563006895,-0.14707071386969028]",100.0,"[0.16493634239259405,-0.01124557724285233]",100.0,"[0.060146963913566935,-0.1029717784231349]",100.0,"[0.0993075894701966,-0.06049615686240258]",4.0,"[0.19543124350220809,0.017472537407983286]",4.0,"[0.000333340632639544,0.130636877495277]",100.0,"[-0.04585515805694904,-0.14783812260039592]",4.0,"[-0.11565023442888127,0.07464677820287681]",100.0,"[-0.14120812002454713,0.12241652892099161]",4.0,"[-0.016918998339249754,-0.18935584472267641]",4.0,"[0.07683171134440164,0.02857768811498496]",100.0,"[-0.11271370985162218,0.022943064341364082]",100.0,"[0.13472008743603417,0.057232609057714635]",100.0,"[-0.0412175938829902,-0.015459098034407884]",4.0,"[0.14387213437959884,0.1082300104397378]",100.0,"[0.1598512066722404,-0.06361793135321708]",100.0,"[0.07644964567243687,0.11407918384564594]",100.0,"[0.04668773790284621,-0.0010911564507546493]",4.0,"[0.08097632873203393,-0.178257725686398]",4.0,"[-0.02232884712571409,0.17856835395138287]",4.0,"[0.020778489361697558,-0.08518642941962921]",4.0,"[-0.057691698229381395,-0.18831611379545374]",100.0,"[-0.08100561510885732,-0.1079933760117158]",4.0,"[-0.1571454003336666,-0.11581041143721356]",100.0,"[-0.16560401768263888,-0.045725152343719044]",100.0,"[0.1032300116548064,-0.1032331254132783]",4.0,"[-0.1648444172521599,0.08825800492257602]",100.0,"[0.019226392577824405,0.04300827307587373]",4.0,"[0.18051153434970066,0.05819542106617711]",4.0,"[0.02,0.02]",201.7974,0.0,40.0,40.0,70.0,1.0,,,,,,,
,,,,,,,6137753896c9b6b5813a2432,68399d5fd7f68f7be9a09a39,2025-05-30_13h01.17.925,shape_ratio,2024.1.5,Win32,60.60606061,683853e18dae57a2147b65e0,,,,,,,,,,,201.7987,202.2976,,,202.5377,203.4323,left,,,,,,,,0.5,0.8704,,,,,,,202.2978,202.5375,203.4324,"[0.021497180113764683,-0.08452643315862]",100.0,"[-0.03070715657498643,0.025505514838081583]",4.0,"[-0.03694476334885513,0.08532266952916834]",4.0,"[-0.08893973866998685,0.06948545394041195]",100.0,"[0.07445421138105898,0.13065171259541747]",100.0,"[-0.05937686940489344,0.14175627360864657]",4.0,"[-0.008516946025137234,0.12298445315582392]",4.0,"[-0.1072062704324527,-0.0026337670235204408]",100.0,"[-0.07049991313315097,-0.06724105676993428]",4.0,"[-0.030169610780570535,0.1837667431972376]",100.0,"[0.04225242070325648,-0.17000613502095918]",4.0,"[0.032898123256424494,0.14430079173960808]",4.0,"[0.12472391508624997,-0.036146078262929926]",100.0,"[0.05612750096420812,0.0028730770508121634]",4.0,"[-0.09849782076849065,-0.16756976821556038]",4.0,"[0.16031410763956289,0.10708065689029021]",100.0,"[-0.17034717668403898,-0.06410553860681639]",100.0,"[0.0013390816655782626,0.05038060496797962]",100.0,"[0.10658065537879478,-0.13361802314051563]",100.0,"[0.14324389392485157,-0.07704472585608788]",4.0,"[-0.13933770686132155,0.029442879778180667]",100.0,"[0.11249178718509505,0.09706986874146223]",100.0,"[0.18397406965340599,0.04300933896433741]",4.0,"[0.13110048034121322,0.0039268968758422555]",4.0,"[-0.03177268465740074,-0.03173784280088078]",100.0,"[0.14107176753360037,0.05454737450558282]",4.0,"[-0.08920572662315314,-0.1177396497298669]",4.0,"[-0.10848166761234336,0.11915883352851785]",4.0,"[-0.023999884644110202,-0.182518398411054]",100.0,"[0.1943679373647513,-0.043235339485959715]",100.0,"[-0.16453858083403206,0.10552223606904605]",100.0,"[0.09895267686756525,0.16449727540148287]",4.0,"[0.02,0.02]",204.5323,0.0,41.0,41.0,94.0,1.0,,,,,,,
,,,,,,,6137753896c9b6b5813a2432,68399d5fd7f68f7be9a09a39,2025-05-30_13h01.17.925,shape_ratio,2024.1.5,Win32,60.60606061,683853e18dae57a2147b65e0,,,,,,,,,,,204.5336,205.032,,,205.2828,205.983,left,,,,,,,,0.45,0.6819,,,,,,,205.0321,205.2828,205.9831,"[0.03900986378474731,0.04613363917748615]",4.0,"[-0.16728429053807345,0.009962199145465308]",4.0,"[-0.10904384576203403,-0.12785646624678976]",4.0,"[-0.08560736595248221,-0.035513383113614676]",100.0,"[0.11675178394409712,-0.1586715112398276]",4.0,"[-0.11700777965429628,0.14492986757163118]",4.0,"[-0.07862079900400122,-0.09923204456295157]",4.0,"[0.14423276883113878,0.010705091624127186]",4.0,"[0.00813798503053394,0.0026804454792242276]",4.0,"[0.1073959630200955,0.09664826374235254]",4.0,"[-0.0397838963927338,0.16084527970261492]",100.0,"[-0.041642345219380525,-0.15144090818175293]",100.0,"[0.16026040233957764,-0.043032454051127655]",100.0,"[0.07835907298438154,-0.10149180558640732]",4.0,"[-0.1361636807915213,-0.0458882164948961]",4.0,"[0.12605755363014606,0.15382449514005486]",100.0,"[0.10348315398667697,-0.013700131942953848]",100.0,"[-0.06761619374218371,0.008676662667516783]",100.0,"[0.035098855489100675,-0.14912852975045482]",100.0,"[0.1976903728440026,0.0006118687355458169]",100.0,"[-0.1157482172511936,0.03239118427046183]",100.0,"[0.18540878274038253,0.04636022311261319]",100.0,"[0.0037140155091823336,0.0689896107596765]",4.0,"[0.0005255854087960668,0.1706133134938794]",4.0,"[-0.0020445286677215147,-0.17400638628733384]",4.0,"[-0.01032497979423329,-0.09122843459967109]",100.0,"[-0.19207732998133276,-0.02970041256374617]",4.0,"[0.062259223044771564,-0.010213237444326537]",4.0,"[0.14727192436285705,-0.09342595590750939]",4.0,"[0.019240504539467494,-0.04238532171256831]",4.0,"[-0.12217180176090604,0.08959316719834991]",100.0,"[0.1598730993815528,0.08155633753388312]",100.0,"[0.02,0.02]",207.0825,0.0,42.0,42.0,122.0,1.0,,,,,,,
,,,,,,,6137753896c9b6b5813a2432,68399d5fd7f68f7be9a09a39,2025-05-30_13h01.17.925,shape_ratio,2024.1.5,Win32,60.60606061,683853e18dae57a2147b65e0,,,,,,,,,,,207.0842,207.5834,,,207.8338,208.3993,right,,,,,,,,0.9,0.5461,,,,,,,207.5835,207.8336,208.3993,"[0.1302429796907081,-0.0020309901236833473]",100.0,"[-0.08236095341850963,-0.14735259372352627]",100.0,"[-0.11727725296842702,-0.00012047138566232047]",100.0,"[0.0028039907757640404,0.0673347779664776]",100.0,"[0.13227104841918672,0.14758890620819098]",100.0,"[0.0984263092529822,0.026508736425281797]",4.0,"[0.02883844993990702,-0.1743244157040095]",100.0,"[0.13035890181878226,-0.05426902263038632]",100.0,"[-0.000675237862962184,0.1873706475923311]",100.0,"[0.10331275888086648,-0.14703686110307287]",100.0,"[-0.045354535308165383,-0.10264199183142193]",100.0,"[0.13000113001930869,0.08809233605160337]",100.0,"[-0.04468530192479781,0.09607021228586002]",100.0,"[-0.12139192262756407,0.07238675121502604]",100.0,"[0.0372914514873089,0.15145661809218183]",100.0,"[-0.14422746550436408,-0.12040193864333143]",100.0,"[-0.17238563572524143,0.009131917776169172]",100.0,"[0.035835724341698766,0.0281408245053213]",100.0,"[-0.03691052727872386,0.002514785093238816]",100.0,"[0.017529247270973193,-0.016336686211605687]",100.0,"[-0.08565398466874885,0.09499395795948226]",100.0,"[-0.023294020800400144,0.15300777460752196]",100.0,"[0.006561197976912895,-0.10135442737203731]",100.0,"[-0.17479708984210784,-0.052876119332546045]",100.0,"[0.043603472840546574,0.19482875455435936]",100.0,"[0.0456664899580114,0.07559005306886446]",100.0,"[0.08454720338862462,-0.10759042987718323]",100.0,"[0.1876204234591332,0.0005714556368400901]",100.0,"[-0.0760787676024382,-0.023198109615128203]",4.0,"[0.08124307335948729,-0.013074253736389903]",4.0,"[-0.1786422419908,0.06895013381917245]",100.0,"[0.1723546029898923,-0.060134633438223735]",100.0,"[0.02,0.02]",209.5005,0.0,43.0,43.0,28.0,1.0,,,,,,,
,,,,,,,6137753896c9b6b5813a2432,68399d5fd7f68f7be9a09a39,2025-05-30_13h01.17.925,shape_ratio,2024.1.5,Win32,60.60606061,683853e18dae57a2147b65e0,,,,,,,,,,,209.5019,210.0011,,,210.2403,210.9346,left,,,,,,,,0.45,0.6692,,,,,,,210.0012,210.2402,210.9349,"[0.12654333563540227,-0.09718511679652377]",100.0,"[-0.056513281427644,0.05001512607711075]",4.0,"[-0.12018818354903721,0.01197120087051065]",4.0,"[-0.12685718845860805,-0.027499009143217176]",100.0,"[0.009333410253635894,0.07508442346379478]",4.0,"[0.015100418242292114,-0.1811980204807471]",100.0,"[0.0886929030251753,-0.01593592865880974]",100.0,"[-0.08733231892781837,-0.037857385521373]",4.0,"[-0.1266646804500177,-0.13287834513965974]",100.0,"[-0.09705846037566573,0.11874693621833703]",4.0,"[0.1875416695224284,0.023224719247709504]",4.0,"[-0.12016439973534856,-0.07658723141349949]",4.0,"[-0.18766774490789534,0.0514257755044777]",4.0,"[-0.16743381641661717,-0.09343751643237672]",4.0,"[-0.14432417627221952,0.10404366517745749]",4.0,"[0.0412410582238567,0.10848416397202744]",100.0,"[-0.029042596185443782,-0.0074425308266148045]",4.0,"[0.04985965841955911,-0.10518855853861665]",100.0,"[0.11418830627402358,-0.1441394226575594]",100.0,"[0.1467656293895823,0.018186451315171947]",100.0,"[0.1662724606636524,0.08366139873939135]",4.0,"[0.052709753023826134,0.050610847971141494]",100.0,"[-0.05345281090636161,-0.09445685784386382]",100.0,"[-0.16196830354376077,-0.047768803162370324]",4.0,"[0.04352357432812966,-0.03908022513925645]",4.0,"[0.09927083496782632,0.1254247738899879]",4.0,"[-0.13574843460847882,0.05447452039162865]",4.0,"[-0.0017871489698113308,0.13632523492151025]",4.0,"[0.015603082004127668,-0.006522077213029223]",4.0,"[-0.005153604403638152,-0.10154680148891393]",100.0,"[0.09647533224868506,0.07948795342515366]",100.0,"[-0.17335663607732915,0.006998819468753073]",100.0,"[0.02,0.02]",212.0347,0.0,44.0,44.0,133.0,1.0,,,,,,,
,,,,,,,6137753896c9b6b5813a2432,68399d5fd7f68f7be9a09a39,2025-05-30_13h01.17.925,shape_ratio,2024.1.5,Win32,60.60606061,683853e18dae57a2147b65e0,,,,,,,,,,,212.036,212.5346,,,212.7747,213.4523,right,,,,,,,,0.6,0.6506,,,,,,,212.5353,212.7746,213.4523,"[0.014340436344508397,0.1297673826450484]",4.0,"[0.15952805829259073,0.04998008970708925]",100.0,"[0.15340737843070984,0.09383306976762372]",4.0,"[0.0628646007582301,0.15242680386567722]",4.0,"[-0.12505272359414607,0.085480748689742]",4.0,"[-0.1013735599706877,-0.07366853857066157]",4.0,"[-0.07846352276302074,-0.032640940749009646]",100.0,"[0.1245323958619728,-0.0018060014707492378]",4.0,"[0.1594095790858644,-0.0244239705248742]",100.0,"[0.06347267849648872,-0.14635009677867863]",4.0,"[0.0008873672131286004,-0.1375161797388964]",100.0,"[-0.03264594398740889,0.000663593287618526]",100.0,"[-0.17409530342417434,0.04367419020030936]",100.0,"[-0.02320775606911151,-0.08112790826390409]",100.0,"[-0.05664771630423715,0.17754009448428268]",4.0,"[-0.0997327700861848,0.012928721368801447]",100.0,"[0.021005633232741114,0.02724754748329521]",4.0,"[-0.14302188600150043,-0.020272659528906882]",100.0,"[-0.15006140330321033,-0.06187225591312903]",4.0,"[0.03868191706541707,-0.08404783224924815]",4.0,"[0.14920027113353512,-0.09621608102481148]",4.0,"[0.10796674813347121,-0.15027469862638865]",100.0,"[0.07588866865352928,-0.006384887338114277]",100.0,"[0.09961907501859649,-0.059275586124406976]",4.0,"[-0.06386927007824754,-0.17159220734416142]",100.0,"[0.008079385137280529,0.08524433029642482]",100.0,"[-0.10343660655702261,-0.12967199972323465]",100.0,"[-0.08540567017182346,0.14175636892722465]",100.0,"[0.02260429908083431,0.17388175169188735]",100.0,"[-0.13263759723042992,0.04088795738283191]",100.0,"[-0.02886452192055425,0.11351057163618464]",100.0,"[-0.06536378225830049,0.06073272667770124]",100.0,"[0.02,0.02]",214.5447,0.0,45.0,45.0,46.0,1.0,,,,,,,
,,,,,,,6137753896c9b6b5813a2432,68399d5fd7f68f7be9a09a39,2025-05-30_13h01.17.925,shape_ratio,2024.1.5,Win32,60.60606061,683853e18dae57a2147b65e0,,,,,,,,,,,214.5475,215.0356,,,215.287,215.9193,right,,,,,,,,0.9,0.6181,,,,,,,215.0357,215.2868,215.9193,"[0.04566437359077302,0.0184180308964147]",100.0,"[-0.023632256816033263,-0.03573655404794254]",100.0,"[-0.0036336060147963613,-0.17652828596109618]",100.0,"[-0.11547867092813761,-0.05057024462567923]",100.0,"[0.06540139797219258,0.06218580088148834]",100.0,"[0.02013661108350111,-0.08404717655364888]",100.0,"[0.16452792626122875,-0.11203485980960834]",100.0,"[-0.019187275179396623,0.1421751017492594]",100.0,"[0.16562028431107415,0.06514932995688114]",100.0,"[0.023145798312783263,0.11525080811108007]",100.0,"[-0.16680865910890166,-0.07950490903374738]",100.0,"[-0.08096563359942127,-0.004638553284164115]",100.0,"[-0.16059976862489173,0.0741448936302271]",100.0,"[0.12122915465251632,0.005118535157355903]",100.0,"[-0.10494749919825655,-0.15750706213102095]",100.0,"[-0.14040577227276935,0.039581842517640894]",4.0,"[-0.12412631952391322,0.1321386520614877]",100.0,"[0.09629773965158275,-0.13081178704816665]",100.0,"[-0.12575144962211154,-0.1002754720260256]",100.0,"[0.08048388946903488,-0.043231773011850015]",100.0,"[-0.18371018706907893,0.019998754063822333]",100.0,"[-0.03737780141234495,-0.07791552315556108]",100.0,"[-0.07774376145007615,0.0498165371797543]",100.0,"[0.1461774065973203,-0.0383109078625335]",100.0,"[0.08057487918512769,-0.00224287852114801]",100.0,"[-0.0714760441114794,-0.1310741323853697]",4.0,"[0.11575942401695746,0.0876697200724497]",100.0,"[0.187212532376489,-0.011383320172011414]",4.0,"[-0.08266314061968796,0.08965146083000558]",100.0,"[-0.022290018332364447,0.08537540102516573]",100.0,"[0.15582856346956717,0.1091673630896039]",100.0,"[0.07695464780355164,0.1266984183794349]",100.0,"[0.02,0.02]",217.0202,0.0,46.0,46.0,24.0,1.0,,,,,,,
,,,,,,,6137753896c9b6b5813a2432,68399d5fd7f68f7be9a09a39,2025-05-30_13h01.17.925,shape_ratio,2024.1.5,Win32,60.60606061,683853e18dae57a2147b65e0,,,,,,,,,,,217.0212,217.5204,,,217.7711,218.6706,left,,,,,,,,0.6,0.8818,,,,,,,217.5206,217.771,218.6707,"[-0.04098971197890621,-0.12358041080063115]",100.0,"[-0.0792819440700064,0.12291632393855774]",4.0,"[-0.1361893499626453,-0.1436028977574794]",4.0,"[-0.1273226330590699,0.04859509719481191]",100.0,"[0.11933460194205957,0.08176628864568891]",100.0,"[-0.018888782484745403,-0.048912626001113124]",4.0,"[0.05924769539447632,-0.054749436912598384]",4.0,"[-0.0012169565871741935,-0.18303685607343095]",100.0,"[0.028285815560350345,-0.0016015989695677675]",100.0,"[-0.18079696565767608,-0.010054228457245558]",4.0,"[-0.1449168764809392,-0.09483987542847595]",100.0,"[-0.013467286491285991,0.09889260116257537]",100.0,"[0.19006217722107233,0.04485323254895908]",4.0,"[-0.07101048939013367,-0.06705717838144985]",4.0,"[0.04615904440519104,-0.16689809764413105]",4.0,"[-0.01602597368127416,0.17781866128113497]",4.0,"[-0.11213772373556405,0.15351971312388452]",100.0,"[0.1281557829929369,0.1281021016797745]",4.0,"[-0.0711043100503454,-0.18668798235903525]",100.0,"[-0.12165799502963154,-0.010918752458466463]",100.0,"[0.06390773949220127,0.03685306396094287]",100.0,"[0.09007154700244377,-0.16785794267210855]",4.0,"[-0.12601842379442701,0.11500333429782202]",100.0,"[0.0287630076569591,0.1314615923777464]",4.0,"[0.04227211613968004,0.07127764630054914]",100.0,"[0.14937983818051476,-0.13228297848399342]",100.0,"[0.11219022701949789,0.04066291484837644]",100.0,"[0.1287138455404265,-0.02578225992557306]",100.0,"[-0.045542773144812095,-0.005901594674570288]",100.0,"[0.16326155050211377,-0.08007266871480555]",100.0,"[-0.04354938088601372,0.04937597423252331]",100.0,"[-0.0926862484024016,-0.13228546241700154]",4.0,"[0.02,0.02]",219.7707,0.0,47.0,47.0,50.0,1.0,,,,,,,
,,,,,,,6137753896c9b6b5813a2432,68399d5fd7f68f7be9a09a39,2025-05-30_13h01.17.925,shape_ratio,2024.1.5,Win32,60.60606061,683853e18dae57a2147b65e0,,,,,,,,,,,219.7717,220.271,,,220.5221,221.3549,left,,,,,,,,0.6,0.8148,,,,,,,220.2711,220.5219,221.355,"[0.10058207943274931,-0.1178568522479747]",100.0,"[-0.17925437601636676,-0.011584353064087366]",100.0,"[-0.17339408926686095,-0.07316239790225791]",4.0,"[0.09679879539692723,0.11969212403307683]",100.0,"[-0.10951021757638026,0.006680725349807211]",100.0,"[0.017336913413068984,0.08448364903295981]",4.0,"[0.06251888375362914,0.15522109304312834]",4.0,"[0.1562565524739831,0.0854043368647538]",4.0,"[-0.06815971111806057,-0.06397316689200713]",100.0,"[-0.11599005354604046,0.062361180136568696]",4.0,"[0.18571080675906435,-0.07082527575836031]",100.0,"[-0.033254906464672246,0.020846959056653628]",4.0,"[-0.19123852044341205,0.05219980122427131]",100.0,"[-0.13047230847422922,0.11692125844854703]",100.0,"[-0.0414416988549356,0.10352086048353133]",100.0,"[-0.06434773940136787,-0.12337049873148448]",100.0,"[-0.026000949824713765,-0.04588314325126277]",4.0,"[0.15360586245595456,0.011509030408387815]",100.0,"[0.11280350877708978,0.013372331574609903]",100.0,"[0.050090109244485405,0.11232053843378371]",4.0,"[0.033239373229485523,0.0010185821856243636]",100.0,"[-0.05613961671996187,-0.1626929782498647]",100.0,"[0.08243354119274074,-0.029715507827310236]",4.0,"[0.042996194741228205,-0.15310509379073253]",4.0,"[0.09489910940651619,0.061379008225254446]",100.0,"[-0.13171320510472317,-0.049689645340914274]",100.0,"[-0.08461320024702162,0.16818122236500704]",4.0,"[0.0310367328326859,0.043789460551891375]",4.0,"[-0.09685497545978805,-0.15626235072605962]",4.0,"[0.07959738531677463,-0.17981432293345748]",100.0,"[-0.002155260792040591,-0.12127361694979076]",100.0,"[-0.009266446783413252,-0.18185819374328802]",100.0,"[0.02,0.02]",222.4564,0.0,48.0,48.0,45.0,1.0,,,,,,,
,,,,,,,6137753896c9b6b5813a2432,68399d5fd7f68f7be9a09a39,2025-05-30_13h01.17.925,shape_ratio,2024.1.5,Win32,60.60606061,683853e18dae57a2147b65e0,,,,,,,,,,,222.4589,222.9547,,,223.2056,223.7062,right,,,,,,,,0.5,0.485,,,,,,,222.9547,223.2055,223.7063,"[-0.12015786309517171,0.019541782666176448]",100.0,"[-0.16203868328906243,0.07348863038802331]",4.0,"[-0.04011405974342158,0.18761831566085832]",4.0,"[0.015213658844726233,0.10055066510513598]",100.0,"[0.15605114551824628,0.026395808071696385]",4.0,"[-0.06940191241566691,-0.14681624981982339]",100.0,"[0.09337509764167741,0.12125184322140152]",4.0,"[-0.0558233281736687,0.07938545648484238]",4.0,"[0.13578154439315185,-0.11918666573466313]",4.0,"[-0.16285516423464666,0.026334458356820252]",4.0,"[0.05323047405759286,0.054828501876370325]",100.0,"[0.03205160139840145,0.01931822480457458]",100.0,"[0.08795697587434623,0.030559017216925388]",100.0,"[-0.16087565590969607,0.1143869144123451]",100.0,"[0.10859785604671951,-0.04344437505281728]",100.0,"[-0.0889248423582554,0.17219651208592415]",100.0,"[-0.1632920604276471,-0.10675238158444562]",100.0,"[0.07920666695414533,-0.16554919643843277]",100.0,"[-0.09962489624291511,0.11767272387488652]",100.0,"[-0.052953705414073106,-0.034272359895879165]",4.0,"[0.0985252099009451,-0.0877744824531737]",4.0,"[-0.0001509776698844457,-0.10961164708559236]",100.0,"[0.18698581062014208,-0.05454938870987138]",4.0,"[-0.13612066161894157,-0.06026226690010764]",4.0,"[0.06911307890701546,0.16261730730859406]",100.0,"[-0.0853868889212805,-0.06206272735791312]",4.0,"[-0.004528706276164211,0.04462183970111859]",100.0,"[-0.00904256335847823,-0.03074709191111742]",4.0,"[0.02065116821699305,0.19454867503572437]",4.0,"[0.062202901288212514,-0.03118800747844503]",4.0,"[-0.010281396638738501,0.1608371874369493]",4.0,"[0.1549807444622892,0.11160270440038772]",100.0,"[0.02,0.02]",224.8076,0.0,49.0,49.0,108.0,1.0,,,,,,,
