right,left,explain.started,explain.stopped,key_resp_3.keys,key_resp_3.rt,key_resp_3.duration,participant,session,date,expName,psychopyVersion,OS,frameRate,study_id,explain_2.started,explain_2.stopped,key_resp_4.keys,key_resp_4.rt,key_resp_4.duration,explain_3.started,explain_3.stopped,key_resp_5.keys,key_resp_5.rt,key_resp_5.duration,fixation.started,fixation.stopped,practice.started,practice.stopped,response.started,response.stopped,key_resp.keys,key_resp.rt,key_resp.duration,feedback.started,feedback.stopped,trials_2.thisRepN,trials_2.thisTrialN,trials_2.thisN,trials_2.thisIndex,trials_2.ran,dot_ratio,explain_4.started,explain_4.stopped,key_resp_6.keys,key_resp_6.rt,key_resp_6.duration,dotDisplay.started,dotDisplay.stopped,ITI.started,polygon_1.pos,polygon_1.edges,polygon_2.pos,polygon_2.edges,polygon_3.pos,polygon_3.edges,polygon_4.pos,polygon_4.edges,polygon_5.pos,polygon_5.edges,polygon_6.pos,polygon_6.edges,polygon_7.pos,polygon_7.edges,polygon_8.pos,polygon_8.edges,polygon_9.pos,polygon_9.edges,polygon_10.pos,polygon_10.edges,polygon_11.pos,polygon_11.edges,polygon_12.pos,polygon_12.edges,polygon_13.pos,polygon_13.edges,polygon_14.pos,polygon_14.edges,polygon_15.pos,polygon_15.edges,polygon_16.pos,polygon_16.edges,polygon_17.pos,polygon_17.edges,polygon_18.pos,polygon_18.edges,polygon_19.pos,polygon_19.edges,polygon_20.pos,polygon_20.edges,polygon_21.pos,polygon_21.edges,polygon_22.pos,polygon_22.edges,polygon_23.pos,polygon_23.edges,polygon_24.pos,polygon_24.edges,polygon_25.pos,polygon_25.edges,polygon_26.pos,polygon_26.edges,polygon_27.pos,polygon_27.edges,polygon_28.pos,polygon_28.edges,polygon_29.pos,polygon_29.edges,polygon_30.pos,polygon_30.edges,polygon_31.pos,polygon_31.edges,polygon_32.pos,polygon_32.edges,dot_size,ITI.stopped,trials.thisRepN,trials.thisTrialN,trials.thisN,trials.thisIndex,trials.ran,break_2.started,break_2.stopped,trials_3.thisRepN,trials_3.thisTrialN,trials_3.thisN,trials_3.thisIndex,trials_3.ran
subject chose dot,subject chose diamond,0.0002,180.285,space,165.2797,,6140ef8d27499e70e8740918,6842bae7e7f0cc789c6605df,2025-06-06_10h55.05.046,shape_ratio,2024.1.5,Win32,243.902439,6842b561977af9ba9b0f87ca,,,,,,,,,,,,,,,,,,,,,,,,,,,,,,,,,,,,,,,,,,,,,,,,,,,,,,,,,,,,,,,,,,,,,,,,,,,,,,,,,,,,,,,,,,,,,,,,,,,,,,,,,,,,,,,,,
,,,,,,,6140ef8d27499e70e8740918,6842bae7e7f0cc789c6605df,2025-06-06_10h55.05.046,shape_ratio,2024.1.5,Win32,243.902439,6842b561977af9ba9b0f87ca,180.2852,214.4057,space,4.1146,,,,,,,,,,,,,,,,,,,,,,,,,,,,,,,,,,,,,,,,,,,,,,,,,,,,,,,,,,,,,,,,,,,,,,,,,,,,,,,,,,,,,,,,,,,,,,,,,,,,,,,,,,,,,
,,,,,,,6140ef8d27499e70e8740918,6842bae7e7f0cc789c6605df,2025-06-06_10h55.05.046,shape_ratio,2024.1.5,Win32,243.902439,6842b561977af9ba9b0f87ca,,,,,,214.4057,220.6639,space,3.2512,,,,,,,,,,,,,,,,,,,,,,,,,,,,,,,,,,,,,,,,,,,,,,,,,,,,,,,,,,,,,,,,,,,,,,,,,,,,,,,,,,,,,,,,,,,,,,,,,,,,,,,,
,,,,,,,6140ef8d27499e70e8740918,6842bae7e7f0cc789c6605df,2025-06-06_10h55.05.046,shape_ratio,2024.1.5,Win32,243.902439,6842b561977af9ba9b0f87ca,,,,,,,,,,,220.6887,221.1679,221.1682,221.4182,221.4183,222.1889,left,0.7615,,222.1889,223.2889,0.0,0.0,0.0,0.0,1.0,0.2,,,,,,,,,,,,,,,,,,,,,,,,,,,,,,,,,,,,,,,,,,,,,,,,,,,,,,,,,,,,,,,,,,,,,,,,,,,,,,,,,,,,,,
,,,,,,,6140ef8d27499e70e8740918,6842bae7e7f0cc789c6605df,2025-06-06_10h55.05.046,shape_ratio,2024.1.5,Win32,243.902439,6842b561977af9ba9b0f87ca,,,,,,,,,,,223.2892,223.7887,223.7888,224.039,224.0391,224.4929,right,0.4519,,224.4929,225.5928,0.0,1.0,1.0,1.0,1.0,0.8,,,,,,,,,,,,,,,,,,,,,,,,,,,,,,,,,,,,,,,,,,,,,,,,,,,,,,,,,,,,,,,,,,,,,,,,,,,,,,,,,,,,,,
,,,,,,,6140ef8d27499e70e8740918,6842bae7e7f0cc789c6605df,2025-06-06_10h55.05.046,shape_ratio,2024.1.5,Win32,243.902439,6842b561977af9ba9b0f87ca,,,,,,,,,,,,,,,,,,,,,,,,,,,,225.5931,233.5764,space,4.9757,,,,,,,,,,,,,,,,,,,,,,,,,,,,,,,,,,,,,,,,,,,,,,,,,,,,,,,,,,,,,,,,,,,,,,,,,,,,,,,,,,
,,,,,,,6140ef8d27499e70e8740918,6842bae7e7f0cc789c6605df,2025-06-06_10h55.05.046,shape_ratio,2024.1.5,Win32,243.902439,6842b561977af9ba9b0f87ca,,,,,,,,,,,233.5932,234.0803,,,234.3307,235.1013,right,0.7689,,,,,,,,,0.45,,,,,,234.0805,234.3306,235.1016,"[0.06155384835271951,0.17861995826652852]",4.0,"[-0.02612806581537648,0.00878915114579629]",100.0,"[-0.10917433486235675,-0.13352852090234765]",100.0,"[0.042695898646796224,0.08634317403621937]",100.0,"[0.12973703612993592,0.1382643851980262]",4.0,"[0.1310984641817199,0.08897659906693808]",4.0,"[-0.09715292379469764,0.14996834371104756]",4.0,"[-0.07960665004227033,0.06790796021908345]",100.0,"[0.0706963566996682,-0.10515918585653845]",4.0,"[-0.012634717616038524,-0.08616741820081408]",4.0,"[-0.09916461733740853,0.10336412792756253]",100.0,"[0.10642825783549592,-0.1522074612466796]",100.0,"[-0.1532155772478675,0.06577518683722465]",100.0,"[-0.15560217455087175,-0.05212493018273257]",4.0,"[0.0444428728453693,0.04083042559676012]",4.0,"[0.14550560643173366,-0.029046092629872074]",4.0,"[0.0830616188408242,-0.04306907161096675]",4.0,"[0.1697223837883953,0.06178587155872644]",4.0,"[0.11189863272526487,-0.0842584685302469]",4.0,"[0.15124742060033833,0.01230041442274601]",4.0,"[0.0034689234896736814,0.1887644268374676]",4.0,"[0.14760004168097668,-0.12990486729549994]",100.0,"[-0.06869591134976276,0.008358063587634025]",100.0,"[0.09534543743426009,0.05795893083442627]",100.0,"[0.0018503491769501234,-0.17042971231449902]",4.0,"[-0.03720576510668583,-0.1260338266893244]",4.0,"[0.17292460148189143,-0.08449395723769275]",100.0,"[-0.01838629857985856,-0.045054973814461094]",4.0,"[-0.0921608940998449,-0.036910022551476594]",100.0,"[-0.15589538633004707,-0.11635283256284187]",100.0,"[-0.0036018973709163247,0.05238615637075292]",100.0,"[-0.04771930244554789,-0.18627570151506992]",4.0,"[0.02,0.02]",236.2012,0.0,0.0,0.0,125.0,1.0,,,,,,,
,,,,,,,6140ef8d27499e70e8740918,6842bae7e7f0cc789c6605df,2025-06-06_10h55.05.046,shape_ratio,2024.1.5,Win32,243.902439,6842b561977af9ba9b0f87ca,,,,,,,,,,,236.2015,236.7011,,,236.9513,237.4303,right,0.4762,,,,,,,,,0.9,,,,,,236.7011,236.9512,237.4303,"[0.15063030139120526,-0.0413169996960632]",100.0,"[0.013047301372965652,-0.163645572670074]",4.0,"[0.08913042734765525,0.05565946795787599]",100.0,"[-0.1141245877935783,0.011642789367281208]",100.0,"[0.12942225824023665,-0.11615115197032648]",100.0,"[0.041768446874350953,0.10417104038801962]",100.0,"[0.06774746321424814,0.017743459110278227]",100.0,"[-0.04347098100308491,0.17495599669657277]",100.0,"[0.03412947225129046,-0.05925376981785328]",100.0,"[-0.011556610708973535,-0.0430837417186052]",100.0,"[0.15701564292804118,0.04887825349967039]",100.0,"[-0.01484377112431005,0.146615924638321]",100.0,"[0.025010066812663195,0.021060516475547682]",100.0,"[0.07117543937477837,-0.027508827978901577]",100.0,"[0.1305904063635778,0.1425073531006684]",4.0,"[-0.189758040597929,0.04719709146110439]",100.0,"[-0.14406882772066074,0.09327071207305006]",100.0,"[-0.04533576085928659,0.06917960765193096]",100.0,"[0.18981147325615053,0.004604086849504972]",100.0,"[0.04682342411723079,0.16271294290420396]",100.0,"[-0.1266142854531659,0.1469229096570063]",100.0,"[-0.04856052572816727,0.11966416076146966]",100.0,"[-0.0672586907525837,-0.09057836535885858]",100.0,"[-0.04086518312749015,-0.009647517247046515]",100.0,"[-0.007629458853956522,0.19666359632856406]",100.0,"[0.044255653195009265,0.058563870439159955]",100.0,"[0.024639257707715842,-0.10738393343327382]",100.0,"[-0.10186873184466609,-0.027580918119380734]",100.0,"[-0.13982758361448364,-0.1317241709373563]",4.0,"[-0.10543757902925739,0.08053201534204504]",100.0,"[-0.09189504511968534,-0.15381436730997905]",100.0,"[-0.1569051813366276,-0.0944029555553882]",100.0,"[0.02,0.02]",238.5304,0.0,1.0,1.0,11.0,1.0,,,,,,,
,,,,,,,6140ef8d27499e70e8740918,6842bae7e7f0cc789c6605df,2025-06-06_10h55.05.046,shape_ratio,2024.1.5,Win32,243.902439,6842b561977af9ba9b0f87ca,,,,,,,,,,,238.5305,239.0304,,,239.2804,239.9804,left,0.6989,,,,,,,,,0.45,,,,,,239.0305,239.2804,239.9804,"[-0.08528399996855728,-0.017573790038774344]",100.0,"[-0.07224615939890958,-0.10821177889180046]",100.0,"[0.0871495114946211,-0.02516957597575892]",4.0,"[0.1808750252393481,0.06309258570756511]",100.0,"[-0.14733533468565452,0.00267941709307049]",4.0,"[0.07626317376081909,0.14764972063901666]",100.0,"[0.0063116083113440155,0.12973372165856908]",100.0,"[0.027753827008354336,-0.14977586846866972]",100.0,"[0.03766351910018253,-0.10747766794264842]",4.0,"[-0.08597575551711262,0.15691461894621725]",4.0,"[0.12409185616249858,0.08781746029007975]",4.0,"[-0.022221712786333645,-0.08074664189141793]",4.0,"[-0.007995707155796826,0.1906243017562968]",4.0,"[-0.14013181794694898,-0.13488239762861967]",4.0,"[0.0071265640318325055,-0.18946811949959222]",4.0,"[-0.07941450407044147,0.10934341275225423]",4.0,"[0.13508633127652883,-0.04895587331638426]",100.0,"[-0.04491274636963392,0.15669974923195504]",100.0,"[-0.11221920824984179,0.06746671046606233]",100.0,"[-0.12676015163032195,0.11471823102729041]",100.0,"[0.0191629102773347,0.03267172992543236]",100.0,"[-0.055876508753940034,-0.05473530387509267]",100.0,"[0.1303004718856845,0.007474533530383107]",4.0,"[-0.028498601684829632,-0.1558373944037148]",4.0,"[0.12258769561194553,0.157919935962713]",4.0,"[-0.045483769019303975,-0.012812268475844027]",4.0,"[-0.07397148961831211,0.0215907889981572]",4.0,"[0.007651650407567479,-0.045363730619304266]",100.0,"[-0.00589919104989225,0.0882942335893409]",100.0,"[0.0678533480321591,-0.1719623990096722]",4.0,"[-0.12380668560208322,-0.056402747274779494]",4.0,"[-0.1934245041767811,0.037978059533578294]",4.0,"[0.02,0.02]",241.0804,0.0,2.0,2.0,123.0,1.0,,,,,,,
,,,,,,,6140ef8d27499e70e8740918,6842bae7e7f0cc789c6605df,2025-06-06_10h55.05.046,shape_ratio,2024.1.5,Win32,243.902439,6842b561977af9ba9b0f87ca,,,,,,,,,,,241.0807,241.5803,,,241.8304,242.4222,left,0.5888,,,,,,,,,0.1,,,,,,241.5803,241.8304,242.4222,"[-0.08430055133934827,-0.024593658776110323]",4.0,"[0.016669788119455693,-0.0581556142568559]",4.0,"[-0.02399005113625451,0.059863796956956906]",4.0,"[-0.025958352594388487,-0.19767747852593037]",4.0,"[0.06426295760967578,0.1547523022451813]",4.0,"[0.10083831292810677,0.039792929408030746]",100.0,"[0.07126619985980062,-0.09660492682351646]",4.0,"[0.06522293545461492,0.0178996965795954]",4.0,"[0.06879206747755329,0.0881970260863364]",4.0,"[-0.062436807501018446,0.043746715576842274]",4.0,"[0.13427798007427041,0.06732054498234301]",4.0,"[-0.19787072533241903,-0.000028071797427216418]",4.0,"[-0.02203946653364677,0.16358465129221764]",4.0,"[-0.1099413354582539,-0.1010692504519107]",4.0,"[-0.12111716728928554,0.09465389755702884]",4.0,"[0.12468155271202097,0.11948817785008284]",4.0,"[-0.028531235309245694,-0.02337229185230245]",4.0,"[0.12024888093986733,-0.09269791707068983]",4.0,"[-0.19222255793975604,0.04798059868794616]",4.0,"[0.020670348472258775,-0.10578991628211659]",4.0,"[-0.030912034238999825,-0.07780775006019126]",4.0,"[0.04125275920736542,0.18936662614604435]",100.0,"[-0.1377778134012087,-0.04194543861891529]",4.0,"[-0.12052286382712997,0.013698711148856329]",4.0,"[0.1290552266743042,-0.005660024214450672]",4.0,"[0.020067420968834255,-0.19569813560678948]",4.0,"[-0.023351724883349863,0.10739635791761341]",4.0,"[-0.17591222132850493,-0.07335633102718397]",100.0,"[0.02481169897225524,0.05514522830468578]",4.0,"[-0.13278121717861593,-0.14279283879099436]",4.0,"[0.07605379189139709,-0.1829077363325054]",4.0,"[0.18657039418808005,0.03265355107721705]",4.0,"[0.02,0.02]",243.5221,0.0,3.0,3.0,184.0,1.0,,,,,,,
,,,,,,,6140ef8d27499e70e8740918,6842bae7e7f0cc789c6605df,2025-06-06_10h55.05.046,shape_ratio,2024.1.5,Win32,243.902439,6842b561977af9ba9b0f87ca,,,,,,,,,,,243.5223,244.022,,,244.272,244.743,right,0.4676,,,,,,,,,0.6,,,,,,244.022,244.272,244.7431,"[0.1529797496316875,-0.10289934923896728]",4.0,"[-0.013287157635401206,-0.14879968363710191]",4.0,"[-0.18703229283601744,0.060637056620457305]",100.0,"[0.0496213914080993,-0.1326158922139067]",100.0,"[-0.08425559418145318,-0.12554400706768598]",4.0,"[-0.1054992830181272,0.10119637708835258]",100.0,"[-0.15976280960248265,-0.03510101871135636]",4.0,"[0.007159660100608933,0.1311372026702809]",100.0,"[0.04471819490679098,0.02734052740343664]",4.0,"[0.07720777220116143,0.11004721452693933]",100.0,"[0.008138374132704473,-0.0013447456062320132]",100.0,"[0.1475061068891103,0.02820625435646477]",100.0,"[-0.06082802368015048,-0.17316972627334262]",4.0,"[0.04999310248993076,-0.024666543243481175]",100.0,"[-0.03338268914755756,0.07946808090488991]",100.0,"[0.06424504384688356,-0.18609892823962323]",4.0,"[-0.0390047777723046,-0.02990014085711451]",100.0,"[0.1043959026000737,-0.028785367884046256]",100.0,"[0.005295706734062927,0.1987909236741875]",100.0,"[-0.0990184457879541,-0.005639141342563293]",100.0,"[-0.061757382830643824,0.1459975113744428]",100.0,"[-0.07716330050363507,-0.08361483275310302]",4.0,"[-0.14204617498401037,0.07560250145665878]",100.0,"[-0.012614781858991158,0.03621651157340508]",100.0,"[0.01793702869630936,-0.05302209093704872]",4.0,"[0.054089014198575064,0.1435398229616058]",100.0,"[0.12070619893556948,-0.06849293684554535]",4.0,"[-0.14155441637876054,0.03168174209060042]",4.0,"[0.11600183038622265,0.0744623879738808]",100.0,"[0.19407938904046232,-0.018566421525357202]",100.0,"[-0.15719772304012125,0.11896566940142368]",4.0,"[0.044224902810824564,-0.08627863587981427]",4.0,"[0.02,0.02]",245.8428,0.0,4.0,4.0,41.0,1.0,,,,,,,
,,,,,,,6140ef8d27499e70e8740918,6842bae7e7f0cc789c6605df,2025-06-06_10h55.05.046,shape_ratio,2024.1.5,Win32,243.902439,6842b561977af9ba9b0f87ca,,,,,,,,,,,245.8431,246.3428,,,246.5929,247.1095,left,0.5143,,,,,,,,,0.1,,,,,,246.3428,246.5928,247.1095,"[0.03434644449257832,0.04115855209290868]",4.0,"[-0.000995292327545705,0.0726383742567493]",100.0,"[-0.07794263222754298,-0.17793008165938828]",4.0,"[-0.008687208255292025,0.16096049422628633]",4.0,"[0.08779527892420524,0.04935722002730638]",4.0,"[0.07851954652646649,-0.10687522926582965]",4.0,"[0.13497832101428883,0.0011795386782708914]",4.0,"[0.14048364919042355,0.09403289780822456]",4.0,"[0.11563663578868329,-0.14056956955949496]",4.0,"[-0.14500738158788168,-0.03884965669284684]",4.0,"[0.02693570482762111,-0.0487287517580342]",4.0,"[-0.0317829010125337,-0.16744436477165756]",4.0,"[-0.089526034388231,0.0710350858781062]",4.0,"[-0.17581327315724277,0.04346337752819551]",4.0,"[0.0783461586819917,0.10068257929975093]",4.0,"[-0.13311123285413518,0.1089214212834042]",4.0,"[0.10727168247767102,0.15767994583079267]",4.0,"[-0.19411397491343033,-0.043648864124789605]",4.0,"[-0.037652988083486646,0.09427329000722921]",4.0,"[0.07554030520745912,-0.05472905263769644]",4.0,"[-0.11317104084581266,0.007531145061507264]",4.0,"[-0.029812092074638603,-0.018954811931936717]",4.0,"[-0.08772644022214304,-0.06621302819962357]",4.0,"[-0.14450331372474276,-0.10226283960206495]",4.0,"[0.06952742351001448,-0.14602760091011502]",4.0,"[0.015972137286836666,-0.14925751706939416]",4.0,"[0.0428840151550979,-0.19274829821072476]",4.0,"[0.054775025175578355,-0.003927263898889457]",4.0,"[0.12297428369014426,-0.04960075632801988]",100.0,"[0.16053548980469096,-0.0683744794258965]",4.0,"[-0.07203437352807084,-0.016660656257853085]",4.0,"[-0.05448313796200229,-0.10777423867853528]",100.0,"[0.02,0.02]",248.2094,0.0,5.0,5.0,185.0,1.0,,,,,,,
,,,,,,,6140ef8d27499e70e8740918,6842bae7e7f0cc789c6605df,2025-06-06_10h55.05.046,shape_ratio,2024.1.5,Win32,243.902439,6842b561977af9ba9b0f87ca,,,,,,,,,,,248.2096,248.7095,,,248.9597,249.4386,right,0.4716,,,,,,,,,0.55,,,,,,248.7095,248.9596,249.4386,"[0.10410098510578514,0.05405399054235942]",100.0,"[-0.16599943978275825,-0.11092941167558176]",100.0,"[0.08310366341363723,0.10628264438616193]",100.0,"[-0.11625012297837707,0.0345068563667633]",100.0,"[0.1891650896757518,0.054213928809679165]",100.0,"[-0.1182145489163072,0.1571591488744592]",4.0,"[-0.10618793472140853,-0.019102970676539224]",4.0,"[0.1237322172078607,0.11170103016425399]",100.0,"[0.03291403947087033,-0.05113342832432001]",100.0,"[-0.1569199756929536,0.037802729233894945]",100.0,"[-0.08067765785676241,0.14308406120419276]",4.0,"[0.16149233818087413,-0.05435919333025327]",4.0,"[0.024082044947788307,0.06861681292346905]",100.0,"[0.14647830013005012,0.001746704997509231]",100.0,"[-0.07432489218403664,-0.06653131159900572]",4.0,"[-0.03019536983339527,-0.0447659084837625]",100.0,"[0.10877170115659705,-0.01592906271556628]",100.0,"[-0.032845885993468035,0.16874972209519412]",4.0,"[0.056154766348105484,-0.010316926905937765]",100.0,"[-0.14921849875096074,-0.014454104229332415]",4.0,"[-0.061316198230682066,0.04034621266094037]",100.0,"[-0.025448949904254392,-0.1581614811787332]",4.0,"[-0.08567543448602526,0.08345678154605196]",100.0,"[0.04696166311166744,-0.15040429135368721]",4.0,"[0.14485821011700442,-0.1314032972975875]",100.0,"[0.015257836238833093,0.13408684175777874]",100.0,"[-0.09688024326051237,-0.1563992519373511]",4.0,"[0.023063765284109673,0.016298695854798387]",100.0,"[0.09588003307834043,-0.14098259880205685]",4.0,"[0.002825997839237003,-0.11706462396599145]",4.0,"[-0.1413112731541816,0.08580412952965105]",4.0,"[-0.11433845761720249,-0.10425154941496266]",4.0,"[0.02,0.02]",250.5386,0.0,6.0,6.0,83.0,1.0,,,,,,,
,,,,,,,6140ef8d27499e70e8740918,6842bae7e7f0cc789c6605df,2025-06-06_10h55.05.046,shape_ratio,2024.1.5,Win32,243.902439,6842b561977af9ba9b0f87ca,,,,,,,,,,,250.5387,251.0386,,,251.2889,252.0136,left,0.7184,,,,,,,,,0.5,,,,,,251.0386,251.2888,252.0136,"[0.027016058121834073,0.04576586861720705]",100.0,"[0.0947243330135784,-0.03038558223987901]",100.0,"[-0.08209513679203537,0.1296980039472975]",100.0,"[0.1417761814491605,0.13765619012177027]",4.0,"[-0.04954946461662268,-0.06513011678994425]",100.0,"[0.013755881415923361,-0.05244619832796473]",100.0,"[-0.11162586346799658,0.05397738507725789]",4.0,"[-0.04620586325203357,0.006176274731861764]",4.0,"[-0.10768384256078439,-0.014815075362020376]",100.0,"[-0.0014243362131270134,-0.18295271140819047]",100.0,"[-0.0038866664719066357,-0.11238245078016315]",4.0,"[-0.17715562380572533,-0.06556935893407044]",4.0,"[-0.0069642180666179155,0.15220680910069112]",4.0,"[0.1816737925391737,0.059997573868614214]",4.0,"[0.14209183589621718,-0.06810089048058957]",4.0,"[-0.14199889234171106,-0.1342843429787327]",100.0,"[0.05376501052260214,-0.19189287790264786]",4.0,"[-0.12798228990291086,-0.08404935926032549]",4.0,"[-0.1614281372598059,0.09442893173270042]",100.0,"[0.07233663275878245,-0.10742389915622381]",4.0,"[-0.050478983337109394,0.06938881979836313]",100.0,"[0.0939972145736881,0.04343675497305852]",4.0,"[-0.08601348425913707,-0.14246249328409263]",4.0,"[-0.060567056664232,-0.17916059656608524]",100.0,"[0.02014164072461757,0.10798672188218052]",100.0,"[0.09009506225093389,0.12920916725344817]",4.0,"[0.043926528528586445,-0.14063793822018908]",100.0,"[-0.15391646529807018,-0.014358526059539696]",100.0,"[0.1728686455927701,-0.01861177222617244]",100.0,"[-0.1804587244615868,0.058230917990864495]",4.0,"[0.015377280790135683,0.00020876110056501727]",4.0,"[0.11876953392934496,-0.10770035654368583]",100.0,"[0.02,0.02]",253.1136,0.0,7.0,7.0,110.0,1.0,,,,,,,
,,,,,,,6140ef8d27499e70e8740918,6842bae7e7f0cc789c6605df,2025-06-06_10h55.05.046,shape_ratio,2024.1.5,Win32,243.902439,6842b561977af9ba9b0f87ca,,,,,,,,,,,253.1138,253.6136,,,253.8637,254.3679,left,0.5001,,,,,,,,,0.1,,,,,,253.6136,253.8637,254.368,"[0.14290253282147078,-0.07583631636668282]",100.0,"[-0.049734762588782684,0.15433592588397738]",4.0,"[-0.1258271957099258,-0.10775949921296799]",4.0,"[-0.02099286500661975,-0.026213622149337906]",4.0,"[-0.11962560946131724,0.10736689469221224]",4.0,"[-0.15674245007947732,0.05311772245547886]",4.0,"[-0.018088794704644574,0.04515659569063718]",4.0,"[-0.18806121936861264,-0.00009784659893802268]",4.0,"[0.13047826072276048,0.07877477875278484]",4.0,"[0.02445125977585452,-0.16572344753225263]",4.0,"[0.024467928102952886,0.036009362426980655]",4.0,"[-0.10284893577499456,0.011454388500237072]",4.0,"[0.12535364037920246,-0.1379331824734851]",4.0,"[0.16885073631514394,-0.0005760053315694193]",4.0,"[-0.14548844959596902,-0.05729949784884535]",100.0,"[0.07397799011985681,-0.05236479035307755]",4.0,"[0.06321754701261098,0.06508724447111197]",100.0,"[-0.10573037747857117,-0.03493825098482346]",4.0,"[0.08132899665282858,-0.13582175163077959]",4.0,"[-0.0739723121463859,-0.11882480093649994]",4.0,"[0.028343361605793992,-0.05867470445787483]",4.0,"[-0.00890834247693786,0.1787543580578967]",4.0,"[0.03783267077055381,-0.1126852309523367]",4.0,"[0.05162392661803338,0.1497510478523223]",4.0,"[-0.08400752359914943,-0.17584230045342142]",4.0,"[-0.02400404046722518,0.10069250819157805]",4.0,"[-0.06315202486707151,0.024393343017383145]",4.0,"[-0.08303453390052046,0.06900606363269506]",4.0,"[0.16881617187780937,0.09859500881816688]",4.0,"[0.15426923410776755,0.04210075270461888]",4.0,"[-0.03947794662016065,-0.19190353429765905]",4.0,"[0.05780007473825036,-0.007254389113445123]",4.0,"[0.02,0.02]",255.4678,0.0,8.0,8.0,197.0,1.0,,,,,,,
,,,,,,,6140ef8d27499e70e8740918,6842bae7e7f0cc789c6605df,2025-06-06_10h55.05.046,shape_ratio,2024.1.5,Win32,243.902439,6842b561977af9ba9b0f87ca,,,,,,,,,,,255.468,255.9678,,,256.218,256.822,right,0.6013,,,,,,,,,0.6,,,,,,255.9678,256.2179,256.822,"[-0.1341575325758121,-0.10316660123209477]",4.0,"[-0.02433737369727089,-0.1273977216244984]",100.0,"[0.08350544716667872,-0.16763947914092178]",100.0,"[-0.07664716379850896,-0.07865858485541562]",4.0,"[0.0916326554327545,0.06381022680774069]",100.0,"[-0.10359376377774361,0.00679578029908108]",100.0,"[-0.07188403839078605,0.043485238586854214]",100.0,"[-0.08482577510291621,-0.03307900720609419]",4.0,"[0.02435998504939632,-0.15402343116663725]",100.0,"[0.1295236502471383,0.0034871426476746938]",100.0,"[0.09125700277272035,-0.021920029593460403]",100.0,"[-0.16361543106544024,-0.016240310927285843]",4.0,"[-0.006417251719729244,0.10898978028211904]",100.0,"[0.1505911928098468,-0.03452228301759683]",4.0,"[-0.12685740482940208,-0.05559966903348509]",100.0,"[0.15537092993468868,-0.11057576448848458]",4.0,"[0.06172925592902179,-0.06695691821866294]",100.0,"[0.03201813500187625,0.1590107727594178]",100.0,"[-0.08450290630609833,0.14355596992451083]",100.0,"[0.18408079759564,0.0603456494307727]",4.0,"[-0.1401656134682982,0.041339398088078426]",100.0,"[-0.046714866211701775,0.08854212016623496]",100.0,"[0.06138089963260529,0.12717506749341753]",4.0,"[-0.037001429871803285,0.1422724634939658]",4.0,"[0.1037288921053438,0.12382451302311591]",4.0,"[-0.006247820418799426,-0.18355792488977793]",4.0,"[-0.18221909205379422,0.02481448825245373]",4.0,"[-0.016444172211828097,-0.006435867996940525]",4.0,"[0.10891206690588061,-0.08837128325973656]",100.0,"[0.03431130133392263,-0.029129882429878563]",100.0,"[-0.0016742207337037934,-0.06410789524296481]",100.0,"[-0.06706434732272087,-0.1378719363557704]",100.0,"[0.02,0.02]",257.9219,0.0,9.0,9.0,59.0,1.0,,,,,,,
,,,,,,,6140ef8d27499e70e8740918,6842bae7e7f0cc789c6605df,2025-06-06_10h55.05.046,shape_ratio,2024.1.5,Win32,243.902439,6842b561977af9ba9b0f87ca,,,,,,,,,,,257.9222,258.4221,,,258.672,259.2929,left,0.6188,,,,,,,,,0.1,,,,,,258.4221,258.672,259.2929,"[0.0650214713112421,-0.1143091622611032]",4.0,"[-0.023556913335815246,0.01131019557663496]",4.0,"[-0.005025957995568108,-0.13445312789854713]",4.0,"[0.17085532178055068,-0.09748118016019176]",4.0,"[0.06767209721446506,0.04327895246651135]",100.0,"[0.041693128246732256,0.10046566722710319]",4.0,"[-0.11871779829229662,0.02521521057094668]",4.0,"[-0.022341037363232966,-0.05468535448646135]",4.0,"[0.16120257700077795,0.08097804042364685]",4.0,"[-0.02055380369516426,0.054311449469889785]",4.0,"[-0.06655664185843228,-0.12250258571264935]",4.0,"[-0.029629533967922346,0.10035236128443853]",4.0,"[-0.16087427639733376,-0.05954183255273041]",4.0,"[0.057853792977188796,0.1735121719924026]",4.0,"[-0.09842731606857849,-0.09819737008992084]",4.0,"[0.08759781594209692,-0.14877312690979874]",4.0,"[-0.07602898373575057,0.07989005587858261]",100.0,"[-0.021883563677998853,-0.18510785612557545]",4.0,"[-0.07479367528284256,-0.1824809022880357]",4.0,"[-0.1342513774951883,0.10137433605971025]",4.0,"[0.1169856647639706,-0.03048525939406252]",4.0,"[0.03835119471399608,-0.17709866288017082]",4.0,"[-0.0756836915326514,0.16506157800191307]",4.0,"[-0.07269941263065997,0.12226699297816442]",4.0,"[0.036251614928979645,-0.044683235059026674]",4.0,"[0.18775141300958748,-0.05055889770451837]",100.0,"[0.08098004610893242,-0.07259313844535212]",4.0,"[0.1241359765543713,0.05943319593020589]",4.0,"[0.12781424776481315,0.12685156806751122]",4.0,"[-0.12429385832522312,-0.14061063547571334]",4.0,"[-0.1771861222310497,0.07513965258685058]",4.0,"[-0.023479813320257347,0.1782997599378351]",4.0,"[0.02,0.02]",260.3926,0.0,10.0,10.0,200.0,1.0,,,,,,,
,,,,,,,6140ef8d27499e70e8740918,6842bae7e7f0cc789c6605df,2025-06-06_10h55.05.046,shape_ratio,2024.1.5,Win32,243.902439,6842b561977af9ba9b0f87ca,,,,,,,,,,,260.3928,260.8926,,,261.1429,261.6052,left,0.4603,,,,,,,,,0.1,,,,,,260.8927,261.1428,261.6053,"[0.04441725458455932,-0.14162507889154924]",4.0,"[0.03725343859054123,-0.05667234149915547]",4.0,"[-0.16031816286455436,-0.04720119514234984]",4.0,"[0.02601154291462446,-0.10585870108343932]",4.0,"[0.13534706576867372,-0.0742188268878813]",4.0,"[-0.07934953093586383,-0.10098376865135446]",4.0,"[0.0007174181887728131,-0.017322889509838728]",4.0,"[0.09474529712156617,-0.17554070582661563]",4.0,"[-0.021975616741829077,0.1605360496359006]",4.0,"[-0.03557550205183379,-0.034827763530046685]",4.0,"[-0.061319804214587895,0.08787683809464335]",4.0,"[0.10406984871402751,0.021971340050226308]",4.0,"[0.030293403788118255,0.09028181873982927]",4.0,"[0.10358480357399048,0.13786154190973943]",4.0,"[-0.07167946481001213,0.03514447469798299]",4.0,"[0.1727884009205287,-0.014963704935035144]",4.0,"[0.16717053485842512,0.10865349790871584]",4.0,"[0.031207349438591565,0.16485468271672749]",4.0,"[-0.14275031078459355,-0.08927546277992544]",4.0,"[-0.12334986344847909,-0.027085647012910878]",100.0,"[-0.10918241986302397,0.08693185279707757]",4.0,"[-0.01945048859129374,0.05199997372853643]",4.0,"[0.07855838776251285,-0.016329401669464512]",4.0,"[-0.04093317778922582,-0.07979068038479627]",100.0,"[-0.14790291773278483,0.017263421822408528]",4.0,"[0.07927496272121362,0.17530187297650665]",4.0,"[0.09471625955358981,0.09050258423436121]",100.0,"[-0.10038427547260913,0.1721084116091205]",4.0,"[-0.011850834853285894,-0.12279635578974167]",4.0,"[-0.185968849471069,0.0009030617129112357]",4.0,"[-0.07510248813266543,-0.05123863744224554]",4.0,"[0.12252903841478298,0.06042244895410361]",4.0,"[0.02,0.02]",262.7053,0.0,11.0,11.0,187.0,1.0,,,,,,,
,,,,,,,6140ef8d27499e70e8740918,6842bae7e7f0cc789c6605df,2025-06-06_10h55.05.046,shape_ratio,2024.1.5,Win32,243.902439,6842b561977af9ba9b0f87ca,,,,,,,,,,,262.7056,263.2052,,,263.4554,263.8762,right,0.4198,,,,,,,,,0.6,,,,,,263.2052,263.4553,263.8762,"[-0.12771650483384975,-0.060555585351095786]",4.0,"[0.1187044195551075,-0.11415272229030875]",100.0,"[0.042381531380117125,-0.16232336785789125]",4.0,"[0.152641331317267,-0.0497594076029904]",100.0,"[-0.177415026920766,-0.05351694659396257]",4.0,"[0.08101966878053281,0.006011801682382915]",100.0,"[0.07826309893554308,0.06868758041651646]",4.0,"[0.018257032186200905,-0.014076099021046062]",100.0,"[-0.14230042511891466,0.088318863948905]",4.0,"[-0.10909320777135434,0.12778403440421043]",4.0,"[0.05209222611583105,0.10733165000626829]",100.0,"[0.029281815909210338,0.16487403008486537]",100.0,"[0.1262962464496255,0.08826755896325157]",100.0,"[-0.1491623779500915,0.042540631713419014]",100.0,"[-0.033541704088717046,-0.0670199617616933]",4.0,"[-0.09614722700339258,-0.15575451489961326]",100.0,"[0.16922991803180776,-0.09787617221119656]",4.0,"[-0.05536327091840588,0.08576701585952554]",100.0,"[-0.08685925086374803,0.06011126893636977]",100.0,"[-0.0371283988124438,0.13236261188933401]",100.0,"[0.0037864519621573973,0.02597036509866753]",100.0,"[-0.18753032447650325,0.06084626119380628]",100.0,"[0.09142650813354675,-0.1436938705808676]",100.0,"[-0.18529855846595888,-0.00986501988566021]",4.0,"[-0.015606343184971852,-0.1682647768183361]",4.0,"[0.08644707005881876,-0.04390417375287925]",4.0,"[0.12517420722014339,0.1353228637062903]",4.0,"[0.16467632091253243,0.0238348364215721]",4.0,"[-0.12868636743163728,-0.008296099643754929]",100.0,"[0.01413204780173452,-0.09324611110486948]",100.0,"[-0.08025088119809592,-0.04492903053505026]",100.0,"[-0.06836106768378106,-0.0012461253729930326]",100.0,"[0.02,0.02]",264.976,0.0,12.0,12.0,36.0,1.0,,,,,,,
,,,,,,,6140ef8d27499e70e8740918,6842bae7e7f0cc789c6605df,2025-06-06_10h55.05.046,shape_ratio,2024.1.5,Win32,243.902439,6842b561977af9ba9b0f87ca,,,,,,,,,,,264.9761,265.4759,,,265.7271,266.1801,left,0.4489,,,,,,,,,0.5,,,,,,265.4761,265.727,266.1802,"[-0.15004317521327312,-0.03790434548050095]",4.0,"[0.03190867341540303,-0.1809474714984265]",4.0,"[0.130529560756,-0.04628993304925307]",4.0,"[-0.08283142645157866,0.1144765471288448]",4.0,"[-0.06615563840572154,0.1661239779752282]",100.0,"[-0.002489120324517536,0.09718461334974386]",100.0,"[0.013985791369381212,0.19103338309044468]",4.0,"[-0.07363948424625912,-0.11541730563113516]",4.0,"[-0.029044429898668945,-0.08088716391804181]",100.0,"[0.19475228643956338,-0.02283494275324017]",100.0,"[0.0014719433131271517,-0.15246367512257067]",100.0,"[0.10642803313655698,-0.08889751438966853]",100.0,"[0.09026879468345922,-0.12788005666690444]",4.0,"[-0.023458462672391982,-0.1897072997215431]",100.0,"[-0.11767754034798425,-0.01020547917368888]",100.0,"[0.15230322387962567,-0.12376748610776375]",4.0,"[-0.08114549774162703,0.04594875281354884]",100.0,"[-0.02971760625968843,0.04804324838234188]",4.0,"[0.0033884112583604806,0.0003402742738588737]",4.0,"[0.05989182639484875,-0.0037673306006982673]",100.0,"[-0.18628019516375713,-0.01752873973026632]",4.0,"[0.12079270865102681,0.009109618701903008]",100.0,"[-0.11240137600044908,-0.1384148785437139]",100.0,"[0.10344661751801083,0.15578524263456095]",100.0,"[0.14697549461538587,0.11596331449702295]",4.0,"[0.042687300512006025,0.09872982310329222]",100.0,"[-0.17621365068287154,0.07483141912004375]",4.0,"[0.07727951300600963,-0.04019031118885479]",100.0,"[0.04517196502949362,-0.07626531954205978]",4.0,"[-0.1548080709681683,0.11539964574405359]",4.0,"[0.18589990907998458,-0.06367725229842416]",100.0,"[-0.037922306613837144,-0.010529842471225247]",4.0,"[0.02,0.02]",267.2801,0.0,13.0,13.0,101.0,1.0,,,,,,,
,,,,,,,6140ef8d27499e70e8740918,6842bae7e7f0cc789c6605df,2025-06-06_10h55.05.046,shape_ratio,2024.1.5,Win32,243.902439,6842b561977af9ba9b0f87ca,,,,,,,,,,,267.2803,267.7801,,,268.0302,268.5176,left,0.4807,,,,,,,,,0.4,,,,,,267.7801,268.0302,268.5177,"[0.15323873849453043,-0.02677714590559646]",100.0,"[0.03572627616448038,-0.10173090279082997]",4.0,"[0.0616707919019626,0.11928511968936553]",100.0,"[0.12504962929636712,-0.10115362592747039]",100.0,"[0.13185011728248458,0.10539710745435056]",4.0,"[-0.06751478896204338,-0.07909168420231558]",4.0,"[-0.02422588164686839,0.032072419941674764]",100.0,"[-0.12956735967678484,0.034589281886304044]",100.0,"[-0.12879627887975723,-0.05609812953597871]",4.0,"[-0.08982298433334769,-0.02496127712342236]",4.0,"[0.039794076163072546,-0.18209674865862976]",4.0,"[0.010274765610629486,0.18563256132571934]",4.0,"[0.05017637796561887,-0.014084101191565036]",100.0,"[0.07450844443836845,-0.11657806517740334]",100.0,"[-0.000738871872704826,-0.16155106410477515]",100.0,"[-0.04082963550882822,0.07890505724963065]",4.0,"[-0.08206765230541636,0.16159156685366555]",100.0,"[-0.013520207721838685,-0.06731899902390252]",100.0,"[-0.1765386271756684,-0.05643823858727859]",4.0,"[0.10235256259482421,0.03447702181182924]",4.0,"[-0.04093664422436321,-0.017459275364881795]",4.0,"[0.11846917472729504,-0.14634906054080188]",100.0,"[-0.16736374785863245,-0.006081697815444074]",4.0,"[0.03686896446302796,-0.0535413689680462]",4.0,"[-0.04103582804780452,-0.11338296653311378]",4.0,"[-0.008738266868971445,0.13356011153543196]",4.0,"[-0.06393495136053577,0.041902376775355195]",4.0,"[-0.030078265265102253,0.18244788795294375]",4.0,"[0.10050052545122139,0.13669339401677005]",4.0,"[-0.10030826287480435,-0.10374392271055635]",100.0,"[-0.13336994592668666,0.1404642657301039]",4.0,"[-0.17434752599140804,0.0903814962000411]",100.0,"[0.02,0.02]",269.6177,0.0,14.0,14.0,156.0,1.0,,,,,,,
,,,,,,,6140ef8d27499e70e8740918,6842bae7e7f0cc789c6605df,2025-06-06_10h55.05.046,shape_ratio,2024.1.5,Win32,243.902439,6842b561977af9ba9b0f87ca,,,,,,,,,,,269.6178,270.1177,,,270.3677,270.8053,right,0.4314,,,,,,,,,0.45,,,,,,270.1177,270.3677,270.8053,"[-0.15188843652733186,0.1119209520707035]",4.0,"[0.11108349407254574,0.11263046100577066]",100.0,"[-0.07445542335367585,-0.006172982088342056]",4.0,"[-0.10564000797303184,-0.15685945608902382]",4.0,"[-0.08175770521228147,-0.06876130579772241]",4.0,"[-0.016236682976730032,-0.026915206376994776]",4.0,"[-0.15758051095776043,-0.09226078711097381]",4.0,"[0.010847414696771258,0.17660100871486795]",100.0,"[0.02724233728026897,0.13829830893187214]",4.0,"[0.09493885875841965,0.01530082421980094]",4.0,"[0.040653639388075063,-0.12428441542766085]",4.0,"[-0.11116028664311627,0.05071172543147215]",100.0,"[0.1876273002686024,0.008556221265737306]",4.0,"[0.17070747875470174,0.06434837320379475]",4.0,"[-0.18142033592892043,0.02412373592048524]",100.0,"[-0.15805433341209804,-0.028971828371627754]",100.0,"[0.01634616198511484,0.0005604152392441486]",100.0,"[-0.058563605466976795,-0.17219903353197138]",4.0,"[-0.07608384232319729,0.1793718234184733]",4.0,"[-0.07327668396268801,0.12709148086187352]",4.0,"[0.16627992439289258,-0.05162386313341157]",100.0,"[0.13749722862605676,-0.14335996755278577]",4.0,"[0.07765850661170866,-0.031164995643779357]",100.0,"[-0.06330891630110208,-0.11970855407899403]",100.0,"[0.07561660885192226,-0.07819282900547729]",4.0,"[0.10461559283087098,0.06351697333077821]",100.0,"[-0.0027481094482744435,-0.09429854851547892]",4.0,"[0.08160958516738431,-0.12919229713669386]",100.0,"[0.016410637009502,-0.19099529717359]",4.0,"[0.08957334276365665,0.15014155203798304]",100.0,"[0.04631973126538258,0.07744891816432413]",100.0,"[-0.029139950536182454,0.09744480241694632]",100.0,"[0.02,0.02]",271.9052,0.0,15.0,15.0,121.0,1.0,,,,,,,
,,,,,,,6140ef8d27499e70e8740918,6842bae7e7f0cc789c6605df,2025-06-06_10h55.05.046,shape_ratio,2024.1.5,Win32,243.902439,6842b561977af9ba9b0f87ca,,,,,,,,,,,271.9055,272.4054,,,272.6553,273.3594,left,0.7002,,,,,,,,,0.45,,,,,,272.4054,272.6553,273.3594,"[-0.06264383218440309,0.15227766752243946]",4.0,"[0.18838071684322605,-0.01505917767360712]",100.0,"[0.091395542990357,-0.05937748134968445]",4.0,"[-0.1705666131640801,-0.0025383086290283728]",4.0,"[-0.05530546102809874,-0.08495231788740508]",4.0,"[0.07215376558882267,-0.13792726417722104]",4.0,"[0.10365781230940968,0.003859817392241292]",4.0,"[0.1582282736933987,-0.11712903123691856]",100.0,"[-0.018917011844597178,0.018376615068964243]",4.0,"[0.1348692644334104,0.06538581739927708]",100.0,"[-0.05996210911248171,0.011964400134907599]",100.0,"[0.11277201559913232,-0.1027001416432197]",4.0,"[0.05275596489754813,0.028893368720605717]",100.0,"[-0.0976704922169878,-0.03061758360185874]",100.0,"[0.029081856491680127,0.16633476069966469]",100.0,"[-0.005333328384937269,0.10785678196930215]",4.0,"[-0.014238961415723313,-0.08391859136259847]",100.0,"[-0.16047949751622803,0.1052893733180154]",4.0,"[-0.14457300495020708,0.04512360676524777]",100.0,"[0.12477650299413698,0.1265267190095251]",4.0,"[-0.08946627353371307,-0.16624434873708022]",100.0,"[-0.10404842085547439,0.05843177612318975]",4.0,"[0.037130076305277634,-0.10927483672836906]",100.0,"[0.03165265873218446,-0.03720016519327093]",4.0,"[-0.15793992031540272,-0.04845453358181228]",100.0,"[-0.14097009892592566,-0.12567407152730498]",4.0,"[0.1380244573664968,-0.033720542161292756]",4.0,"[0.08158256951018412,0.09002638916746374]",4.0,"[0.018706884027809297,0.06632592478833868]",100.0,"[-0.10435119326251566,0.1097763220713538]",4.0,"[-0.02050747185537148,-0.16490011964361315]",100.0,"[-0.05411628022877222,-0.13732666227787238]",4.0,"[0.02,0.02]",274.4593,0.0,16.0,16.0,148.0,1.0,,,,,,,
,,,,,,,6140ef8d27499e70e8740918,6842bae7e7f0cc789c6605df,2025-06-06_10h55.05.046,shape_ratio,2024.1.5,Win32,243.902439,6842b561977af9ba9b0f87ca,,,,,,,,,,,274.4595,274.9592,,,275.2095,275.76,right,0.5455,,,,,,,,,0.9,,,,,,274.9593,275.2094,275.76,"[0.09155477008114876,-0.07620285977945494]",100.0,"[-0.02757231799425858,0.13421506720832937]",100.0,"[-0.03992285766898842,-0.14942100881636922]",4.0,"[0.07351695921296184,-0.16824349809686975]",100.0,"[-0.10157519026053322,0.037204383701684295]",100.0,"[0.006489719775248042,0.05355829757861667]",100.0,"[-0.10784097185772085,-0.08252576341812505]",100.0,"[-0.031063332627987706,0.19558761716371176]",100.0,"[-0.05218696751925798,0.042146313201951995]",100.0,"[-0.11431704477487575,0.11256841409921015]",100.0,"[-0.1104877426862801,-0.005083089779449142]",100.0,"[0.020193107634254734,-0.09187255754980302]",100.0,"[0.028122505943151136,0.11377485558046255]",100.0,"[0.08377093197557373,-0.004002956004155776]",100.0,"[0.08557023252364966,0.06822795049577086]",100.0,"[-0.16700604517537262,-0.0934253688974093]",100.0,"[0.18097780419931003,0.015774910706618333]",100.0,"[0.13379460437410456,-0.13747383634352556]",100.0,"[-0.1588352094721972,0.07857114752328023]",100.0,"[-0.09756345502315548,-0.1367153170558236]",4.0,"[0.17249790371146898,-0.04259649967637536]",100.0,"[0.03115254630667462,-0.16617306250406597]",100.0,"[-0.08049884965055559,0.16110065685673358]",100.0,"[-0.1906718470689614,-0.0015234290141126804]",100.0,"[0.009362468509033607,0.17806605494159514]",100.0,"[0.13178482416454895,0.14842570488825346]",100.0,"[-0.0718236049783574,-0.03302036417814983]",100.0,"[0.09941338587238255,-0.11575877091991124]",100.0,"[0.040615800887725116,-0.017539628587390874]",100.0,"[-0.03084520654306507,-0.01731859617138752]",4.0,"[0.13202572788971986,-0.021401213844515696]",100.0,"[0.16047838559882066,0.06221338269861623]",100.0,"[0.02,0.02]",276.8593,0.0,17.0,17.0,4.0,1.0,,,,,,,
,,,,,,,6140ef8d27499e70e8740918,6842bae7e7f0cc789c6605df,2025-06-06_10h55.05.046,shape_ratio,2024.1.5,Win32,243.902439,6842b561977af9ba9b0f87ca,,,,,,,,,,,276.8595,277.3593,,,277.6096,278.6469,left,1.0336,,,,,,,,,0.55,,,,,,277.3594,277.6095,278.6469,"[0.050284035841298716,0.020867037861410826]",100.0,"[0.15396267367236266,0.12109030410078438]",4.0,"[0.1825248726641086,0.061368663111973545]",100.0,"[0.16510483378152022,-0.06495489342800213]",4.0,"[0.1146853211640409,0.0699357985057518]",100.0,"[-0.11023248129970213,-0.05421112524874504]",100.0,"[-0.07113995174262602,-0.12386925062840388]",100.0,"[0.10479610580991217,-0.004326828354239526]",100.0,"[-0.051664996330366794,-0.016805508376998665]",4.0,"[0.18948378062996166,-0.012650217680047069]",100.0,"[-0.007011290486319401,-0.15960858004096165]",100.0,"[-0.10174689641830073,0.01864521308265354]",4.0,"[-0.07691724289258306,0.1784767383022266]",4.0,"[-0.15514674697826136,-0.07334162020550469]",100.0,"[0.05438772916908641,-0.06385707688235849]",100.0,"[0.022509717366740116,-0.12023161385493382]",4.0,"[-0.03544805328186753,0.188143707638574]",4.0,"[-0.03092941768219404,0.05894390314487621]",100.0,"[0.09706654765015306,0.12149575338712895]",100.0,"[-0.19038501221519763,0.05335245967137972]",4.0,"[0.03743761793513868,0.08452888088442674]",4.0,"[-0.04967563840032822,0.1446496400426412]",100.0,"[-0.023269106039637433,0.10368839469139987]",100.0,"[0.06804916209358286,0.15490309366730626]",4.0,"[0.1351658617739243,-0.11770062700092927]",4.0,"[-0.08031141395336451,0.05918726654976784]",100.0,"[0.1408415389580529,-0.022235960764445853]",100.0,"[-0.17810672994318594,-0.023296349855333597]",4.0,"[0.11595467589748239,-0.06183955018314713]",4.0,"[0.030068634741208498,0.19160416254320503]",100.0,"[-0.06180450110031352,-0.08208775492715539]",4.0,"[-0.128441814556562,0.10723885494331394]",100.0,"[0.02,0.02]",279.7468,0.0,18.0,18.0,77.0,1.0,,,,,,,
,,,,,,,6140ef8d27499e70e8740918,6842bae7e7f0cc789c6605df,2025-06-06_10h55.05.046,shape_ratio,2024.1.5,Win32,243.902439,6842b561977af9ba9b0f87ca,,,,,,,,,,,279.747,280.2471,,,280.498,281.1009,right,0.5983,,,,,,,,,0.9,,,,,,280.2471,280.4979,281.101,"[0.12518375156434397,-0.04459071529240442]",100.0,"[0.06472334425578855,-0.1351866536896449]",100.0,"[0.02831528538159564,-0.025028597710044658]",100.0,"[-0.11100645694911876,-0.15193759763756393]",4.0,"[0.01691884117426405,-0.11849902357413393]",100.0,"[-0.05875262230476557,-0.1330834236712618]",100.0,"[-0.12542489761569114,0.05029190818007338]",100.0,"[-0.10172446364401033,0.12237502621268136]",100.0,"[0.1345725158758556,0.12175580202891631]",100.0,"[0.05617151642390329,0.16686039099198405]",100.0,"[0.107666075384591,0.04779674768321912]",100.0,"[-0.021696038126455954,-0.041689300236071335]",4.0,"[-0.16452376236951718,-0.024959180565383914]",100.0,"[0.015473079699249217,0.029776861293772952]",100.0,"[-0.06837009300587502,0.07210785370094851]",100.0,"[0.05325634837592028,0.0491558570813165]",100.0,"[0.17255861595956212,0.016288140477660612]",100.0,"[0.0630011448870754,-0.0022555990995897736]",100.0,"[-0.16006347463884563,-0.08045426194144265]",100.0,"[0.009567314842853844,0.09432222393265771]",100.0,"[0.08694575318072725,-0.09136401352185243]",100.0,"[-0.001190782675448553,-0.194120610607555]",100.0,"[0.01953629946238873,-0.15895509924404191]",100.0,"[0.10364528007932157,-0.009820547007022147]",100.0,"[0.154288884814721,-0.12658237942773767]",100.0,"[0.14894440444543489,0.05862690498949039]",100.0,"[-0.19031289236881457,0.012120565018024198]",4.0,"[0.06827603629002667,-0.052397338990103466]",100.0,"[-0.024933668986197467,-0.10291166868871411]",100.0,"[0.17080818006221335,0.09550072204149211]",100.0,"[-0.12073228437854674,-0.027231137589564275]",100.0,"[-0.06238025856813182,-0.08024928070957965]",100.0,"[0.02,0.02]",282.2009,0.0,19.0,19.0,1.0,1.0,,,,,,,
,,,,,,,6140ef8d27499e70e8740918,6842bae7e7f0cc789c6605df,2025-06-06_10h55.05.046,shape_ratio,2024.1.5,Win32,243.902439,6842b561977af9ba9b0f87ca,,,,,,,,,,,282.2011,282.7009,,,282.9519,283.5677,right,0.6091,,,,,,,,,0.55,,,,,,282.701,282.9519,283.5677,"[-0.13080519259945275,0.08490484944589798]",100.0,"[-0.02432866186095573,-0.026252640539254506]",100.0,"[-0.030133058196481186,-0.17646966354498203]",100.0,"[0.027123694325885097,-0.17034957890838132]",100.0,"[-0.04687434007903197,0.015821283295716356]",100.0,"[0.10183720679276581,0.14481433776749658]",4.0,"[-0.0590981908944183,-0.13588166036413546]",100.0,"[0.1489342248578783,0.12859324777099412]",4.0,"[-0.025413227765502876,0.16113695052271615]",100.0,"[-0.0052339628811058905,0.010225199641116439]",4.0,"[-0.05943315638847525,0.11436567395920134]",100.0,"[0.09372167000663006,-0.0706071299109555]",100.0,"[-0.11890475484515539,-0.12471418246382455]",100.0,"[-0.08409770060411086,0.06002951605249885]",4.0,"[0.026698341502576693,0.10485307745698598]",100.0,"[0.19609641045562118,0.033623451884375086]",4.0,"[-0.1189277977802817,0.032783092754574895]",100.0,"[-0.05948980863286893,-0.06463050397219453]",100.0,"[0.19331689365796353,-0.014433360603529457]",4.0,"[-0.07849963880525707,0.18285791356718367]",100.0,"[0.04472572690282683,0.16199420691085295]",100.0,"[0.002378946428108287,-0.08973979205339375]",4.0,"[-0.036765533796467006,0.05872895168287418]",4.0,"[0.09651871458764814,0.030716742316188685]",4.0,"[-0.10686987954500757,-0.07865351769485555]",100.0,"[-0.16404766231541593,-0.009155826446218868]",4.0,"[-0.11257545597037105,-0.03161186925230715]",100.0,"[0.08383989935991587,-0.10949920270607834]",100.0,"[0.13728385799449597,0.013187466073743557]",4.0,"[0.14429134449615696,-0.04245609360640982]",4.0,"[-0.17363913217092433,0.032235525448286215]",4.0,"[0.052093032742200084,-0.13413438002893827]",4.0,"[0.02,0.02]",284.6676,0.0,20.0,20.0,68.0,1.0,,,,,,,
,,,,,,,6140ef8d27499e70e8740918,6842bae7e7f0cc789c6605df,2025-06-06_10h55.05.046,shape_ratio,2024.1.5,Win32,243.902439,6842b561977af9ba9b0f87ca,,,,,,,,,,,284.6678,285.1675,,,285.4177,286.3259,right,0.9014,,,,,,,,,0.6,,,,,,285.1676,285.4177,286.326,"[0.04173069061377049,0.07951812989526393]",4.0,"[-0.12106163831495302,-0.1391449505827488]",100.0,"[0.08406804068961454,0.022672834373066875]",100.0,"[-0.039607986316527996,0.13657653530616534]",100.0,"[-0.13721067943666757,-0.0225274724850074]",100.0,"[-0.07198421447590991,0.0729815937445311]",4.0,"[0.1551582985773496,-0.04820849552915013]",4.0,"[0.1458582139384858,0.08654495554769576]",100.0,"[-0.08307941225451225,-0.11989242021426663]",4.0,"[0.12589251925007874,0.1226218998476301]",4.0,"[0.0031532606465507714,-0.06913354035894882]",100.0,"[0.06579627126080641,0.13623814954877198]",100.0,"[0.07388234871843324,-0.09954468473747329]",100.0,"[0.047007666121804265,0.005570986506339165]",100.0,"[0.05026438584085879,-0.1863182053078064]",4.0,"[-0.04902480996078499,0.018477040978772296]",100.0,"[-0.018405097030012186,0.10186119458565117]",100.0,"[-0.056551399222183205,-0.18185985136525035]",4.0,"[0.1529107032772693,-0.002507353307061488]",100.0,"[-0.10337032923384146,0.11904417166291335]",100.0,"[0.007629579012862261,0.1728212559301848]",4.0,"[-0.014389174010761098,-0.014033704410975947]",4.0,"[-0.10701175324853951,0.0411065672866509]",100.0,"[0.05425835845033499,0.18179564728537523]",4.0,"[-0.10211769677115796,-0.08197694295828123]",100.0,"[-0.01083538722161233,-0.18376822748454322]",4.0,"[-0.03486462368960417,-0.09069470553210955]",4.0,"[-0.12006243992895729,0.07995431224663657]",100.0,"[-0.03864217745745327,-0.13627886141847909]",100.0,"[-0.040606600265571335,0.18901585548024874]",4.0,"[0.19012897624938574,0.059485408712110596]",100.0,"[-0.17073558995877522,-0.048281182182507675]",100.0,"[0.02,0.02]",287.4261,0.0,21.0,21.0,40.0,1.0,,,,,,,
,,,,,,,6140ef8d27499e70e8740918,6842bae7e7f0cc789c6605df,2025-06-06_10h55.05.046,shape_ratio,2024.1.5,Win32,243.902439,6842b561977af9ba9b0f87ca,,,,,,,,,,,287.4263,287.926,,,288.177,288.6302,left,0.4469,,,,,,,,,0.1,,,,,,287.926,288.177,288.6302,"[-0.09912222478927178,0.11894381793577374]",100.0,"[-0.13512176486441363,-0.139030347826879]",4.0,"[0.09349409770178256,0.11471106959154215]",4.0,"[-0.0753460633655076,-0.06486449360951317]",4.0,"[0.11051624906734478,-0.1172108759169143]",4.0,"[-0.16212297335937562,0.002061421312814231]",4.0,"[0.17136721685853928,-0.044583417059634804]",4.0,"[0.04920521745670539,-0.1914235271859782]",4.0,"[0.08588248555809598,-0.07735906113706158]",4.0,"[-0.08877087282017117,0.03303809812696991]",4.0,"[0.14943810979200498,0.11111029826997432]",4.0,"[-0.019961065145275195,0.12650874176468505]",100.0,"[0.039785181972084596,-0.11880612096705545]",4.0,"[0.00043878708109494315,0.17359827531170535]",4.0,"[0.13699250559739515,0.03321120527051151]",4.0,"[-0.05032187169353507,0.1928108176754781]",4.0,"[-0.08932423281236482,-0.15934781997288733]",4.0,"[0.08661096801809079,-0.15454474781870772]",4.0,"[-0.1826418348633297,0.04483161130416966]",4.0,"[0.06408996419296245,-0.02804837585617716]",4.0,"[0.12026351181905774,0.07813446066186035]",4.0,"[0.040223785685848244,0.15154645714035922]",4.0,"[0.04222923374536359,0.19202692791809384]",4.0,"[0.06788713984721421,0.03239337331875166]",100.0,"[0.1316124754994633,-0.05867732791964128]",4.0,"[-0.02966680293248651,-0.03983046511645372]",4.0,"[-0.05581709370348351,0.0828417118184322]",4.0,"[-0.1833143544938372,-0.04022334022720192]",4.0,"[0.026285488493094065,0.09806655220846225]",4.0,"[0.1732854484844296,0.06255356632884056]",4.0,"[-0.13393088557179192,-0.06773466247968155]",4.0,"[-0.1079697416525642,-0.021011891910068702]",4.0,"[0.02,0.02]",289.73,0.0,22.0,22.0,204.0,1.0,,,,,,,
,,,,,,,6140ef8d27499e70e8740918,6842bae7e7f0cc789c6605df,2025-06-06_10h55.05.046,shape_ratio,2024.1.5,Win32,243.902439,6842b561977af9ba9b0f87ca,,,,,,,,,,,289.7302,290.23,,,290.4803,291.0718,left,0.5877,,,,,,,,,0.55,,,,,,290.2301,290.4802,291.0718,"[-0.16572216606813536,-0.10880769553173376]",4.0,"[0.19469665886312446,0.03266880742988485]",100.0,"[-0.06519884820452021,-0.034862300463183137]",4.0,"[0.05382613419168126,-0.14696067147335093]",100.0,"[0.10500159510228516,0.16031039224271568]",4.0,"[0.11625560322545421,-0.038715704678086306]",100.0,"[0.15001234177157136,0.005707054581021316]",4.0,"[-0.06886443672892621,0.18176429973050065]",100.0,"[-0.13012403610856801,0.08272357818800057]",100.0,"[-0.1214656774649301,-0.0164382822270555]",4.0,"[-0.16562681431672674,-0.015720880752664312]",100.0,"[-0.01747941332177361,-0.12517620158052842]",4.0,"[-0.05479731792826222,0.10249238517242]",100.0,"[-0.16082586541493318,0.02816822569617437]",4.0,"[0.04444999219471683,0.11295957740435891]",4.0,"[-0.04384934942419485,-0.1716064645455784]",4.0,"[-0.1718712471212488,0.10026596122240096]",100.0,"[-0.09845849294165777,-0.08507653491046799]",100.0,"[0.014858357728100069,-0.07516680715476066]",4.0,"[0.027729192456366483,0.019967471930790702]",4.0,"[-0.018715801636042362,0.14051404722885202]",4.0,"[0.11129776047248491,0.11411066617941149]",100.0,"[-0.014094328151015547,0.058810554635085416]",100.0,"[0.1075365135068806,0.012973252763004737]",100.0,"[0.14893854757373687,0.05762144945632916]",100.0,"[0.05024821078497728,0.15692059729029628]",100.0,"[0.14350594215278553,-0.10589436689490288]",100.0,"[-0.09060399228861091,0.13743857101560072]",4.0,"[0.09594080213566655,-0.15544382876924448]",100.0,"[0.06186477533397491,-0.07251577444323833]",100.0,"[-0.08150550622240342,-0.14801280224862304]",100.0,"[0.18257341857349518,-0.06377218703930183]",4.0,"[0.02,0.02]",292.1718,0.0,23.0,23.0,89.0,1.0,,,,,,,
,,,,,,,6140ef8d27499e70e8740918,6842bae7e7f0cc789c6605df,2025-06-06_10h55.05.046,shape_ratio,2024.1.5,Win32,243.902439,6842b561977af9ba9b0f87ca,,,,,,,,,,,292.1719,292.6719,,,292.9221,293.4219,left,0.4966,,,,,,,,,0.45,,,,,,292.6719,292.9221,293.4219,"[0.13532808717269004,0.08854904418823636]",4.0,"[-0.17852120672632732,0.030872695462554438]",100.0,"[-0.018908983265263468,-0.010123583019822729]",4.0,"[0.08625715461780845,0.16010647562307162]",100.0,"[-0.019881653799534462,0.15986957645632402]",4.0,"[-0.045153676107673985,-0.15956964921103114]",4.0,"[0.179102959191,0.05866072766445495]",100.0,"[-0.12777763662866484,0.006857488148493892]",4.0,"[-0.1125831760882492,-0.08485933572390943]",4.0,"[0.01295476109941218,-0.09824306995972815]",100.0,"[-0.1281200254472408,0.11480493425424414]",4.0,"[0.12096491388876415,0.036089031076363264]",100.0,"[0.006334323092426929,0.0875480746910488]",100.0,"[0.011390536478859715,0.13389322087097766]",4.0,"[0.15880466747586897,-0.027003666677273018]",100.0,"[-0.16581095896582473,-0.030932835485573282]",100.0,"[-0.08334551993926727,0.11961452608895609]",100.0,"[0.012190758845599219,-0.1817462759522324]",4.0,"[-0.12596490576549296,-0.1253524496542405]",100.0,"[-0.044716626418072725,0.09943260417506601]",4.0,"[0.08814537967232677,0.06014873699058808]",4.0,"[-0.09035098646514757,-0.01753851259126123]",4.0,"[0.1414013533235156,-0.0708183598367722]",4.0,"[-0.03200162224271143,0.04290520028509131]",4.0,"[-0.05210330742245686,-0.03707545718367819]",100.0,"[0.11076602485567014,-0.003615570729336904]",4.0,"[0.03225180575012778,0.03868512591066849]",4.0,"[0.022560004159759405,-0.05806133145026682]",4.0,"[0.06770587173371646,-0.0031723065741169555]",100.0,"[0.09923623209441944,0.10720448704943297]",100.0,"[0.058264318709469146,-0.1046646680614506]",100.0,"[-0.11666399326605158,0.047047984386023624]",4.0,"[0.02,0.02]",294.5218,0.0,24.0,24.0,133.0,1.0,,,,,,,
,,,,,,,6140ef8d27499e70e8740918,6842bae7e7f0cc789c6605df,2025-06-06_10h55.05.046,shape_ratio,2024.1.5,Win32,243.902439,6842b561977af9ba9b0f87ca,,,,,,,,,,,294.522,295.0218,,,295.2718,295.6679,right,0.395,,,,,,,,,0.9,,,,,,295.0218,295.2718,295.6679,"[-0.15568193413071804,0.014254912218817197]",100.0,"[-0.0622167265029152,0.07833722523321002]",100.0,"[-0.03179468865638425,-0.050440019886698356]",100.0,"[-0.024201902858521362,-0.10191470558534312]",100.0,"[0.09072761361648807,-0.1417449710117689]",100.0,"[0.07121108649388413,0.16270367901209726]",100.0,"[0.009673860454364514,0.11561561325474204]",100.0,"[-0.15706290844718057,0.12299678160838429]",4.0,"[0.1687469161895721,-0.03921422069402774]",4.0,"[0.13578508058523833,-0.10020171386257089]",100.0,"[0.1245987816981362,0.046430187963654924]",100.0,"[0.16622159140632692,0.0804225368473083]",100.0,"[-0.03576384078890227,0.15586813092007662]",100.0,"[0.06558998250570655,0.03223243521455278]",100.0,"[0.0059978204989428185,-0.0171663772067485]",100.0,"[-0.13968356219865757,-0.05934650054367306]",100.0,"[-0.1827000806599686,0.0782118761535127]",100.0,"[-0.03159630851843459,0.0024605911319436667]",100.0,"[-0.09860844619149164,-0.17100831128515054]",100.0,"[0.025359845144926493,-0.10739296735802462]",100.0,"[0.0372269325541827,0.06913626311761187]",100.0,"[-0.007103071662648395,0.07253470370452632]",100.0,"[-0.07536832199753472,0.16885140352960545]",100.0,"[-0.016944511979614007,-0.1831025314614919]",100.0,"[0.05064485834959208,-0.05989454523930003]",4.0,"[-0.08532672038489583,-0.10497732900142526]",100.0,"[-0.13616214070763719,0.07315902823306988]",100.0,"[0.071787423309488,0.10491278805753101]",100.0,"[0.13746079303727315,0.10934689315310597]",100.0,"[-0.09873851346938804,0.027695445480057555]",100.0,"[0.19609816000423738,0.02922526080069728]",100.0,"[0.011870243129052774,-0.14647803237073506]",100.0,"[0.02,0.02]",296.7676,0.0,25.0,25.0,7.0,1.0,,,,,,,
,,,,,,,6140ef8d27499e70e8740918,6842bae7e7f0cc789c6605df,2025-06-06_10h55.05.046,shape_ratio,2024.1.5,Win32,243.902439,6842b561977af9ba9b0f87ca,,,,,,,,,,,296.7679,297.2686,,,297.5185,298.3509,left,0.8289,,,,,,,,,0.55,,,,,,297.2687,297.5185,298.351,"[0.07263937491067506,-0.019385803261803537]",4.0,"[-0.1081554319612817,-0.07726234653066794]",100.0,"[0.1493197850559984,-0.11044197838766956]",100.0,"[-0.08378177172167488,0.01198555009902803]",100.0,"[-0.017636847104139493,-0.07605948023763119]",4.0,"[0.03503204691422395,0.027931038674714987]",100.0,"[-0.05015415709591273,-0.16865693706892057]",100.0,"[-0.12603807376092988,0.15495701698749662]",4.0,"[0.09744258568608544,-0.11003311213683974]",4.0,"[0.14318560569038286,-0.0037923589585676138]",4.0,"[-0.0268289625235225,0.19227577633760792]",100.0,"[0.10609602612676275,0.06267838973133424]",4.0,"[-0.06608709085197337,0.08730660819531809]",100.0,"[0.097917272028493,-0.06012035713033514]",4.0,"[-0.1551090293438009,0.1106380550285358]",4.0,"[-0.12424410466633626,-0.13313205374947493]",4.0,"[-0.14655712784876823,-0.042291856151110786]",100.0,"[0.014170113516342982,-0.026021674902272616]",4.0,"[0.17324792393583752,-0.06349835105749287]",4.0,"[0.11924577055910311,0.15917164351734073]",100.0,"[-0.12416363447538584,-0.006793816594423222]",100.0,"[0.045513340476527615,-0.15320492808828187]",100.0,"[-0.06411625055434693,-0.1268913244112555]",100.0,"[-0.02171644524743593,0.07091822595761461]",100.0,"[-0.12009813817580872,0.05682615292975341]",100.0,"[-0.02223934829853745,0.11272448522201178]",100.0,"[0.034967085891735264,0.19065958125259508]",100.0,"[0.08033167435571252,0.13584415132906846]",4.0,"[-0.06082588809299481,-0.07835444225877383]",100.0,"[-0.15009895782401556,-0.09069799014157401]",4.0,"[0.06312018697231668,0.060508366610608585]",100.0,"[0.19603553089545153,0.0002886171782940792]",4.0,"[0.02,0.02]",299.4509,0.0,26.0,26.0,80.0,1.0,,,,,,,
,,,,,,,6140ef8d27499e70e8740918,6842bae7e7f0cc789c6605df,2025-06-06_10h55.05.046,shape_ratio,2024.1.5,Win32,243.902439,6842b561977af9ba9b0f87ca,,,,,,,,,,,299.4511,299.9509,,,300.2009,300.7176,left,0.5098,,,,,,,,,0.1,,,,,,299.9509,300.2009,300.7177,"[0.0072708413218035345,-0.10818449751969306]",4.0,"[-0.04736490598712613,-0.17078534169443602]",4.0,"[-0.07677803539561479,-0.030282192573293096]",4.0,"[0.05458736158826306,-0.1124372012422667]",4.0,"[0.1421588538103349,0.06565476242894748]",100.0,"[-0.09233559410367272,0.06658090514169851]",4.0,"[-0.14761159725048945,-0.03517385408184442]",4.0,"[0.02932896035110337,0.05201465451373155]",4.0,"[0.07092194510015691,0.14333880880720778]",4.0,"[-0.09754003702994639,-0.16420253309545516]",4.0,"[-0.13496780161658387,0.06814328843993069]",4.0,"[0.11912125743720653,0.03197494720067013]",4.0,"[0.0034706572774065086,-0.06799176919096042]",100.0,"[-0.10482891185864202,-0.08407419179292985]",4.0,"[0.01077309335223449,-0.012125993351118554]",4.0,"[-0.033097643177670485,0.01964826784680517]",4.0,"[-0.19588424801810156,-0.022272776967605303]",4.0,"[0.14486300053586115,-0.022605354327547532]",4.0,"[0.19901822551357135,-0.007089894578723813]",4.0,"[-0.12342067323209246,-0.12209458220767933]",4.0,"[0.1654790938875932,-0.10279569455747617]",4.0,"[-0.1014342085846382,0.1195453786849466]",4.0,"[0.1047110124617598,-0.16992568746690526]",4.0,"[0.03650894374006481,-0.17768256089566326]",4.0,"[-0.14863867964501104,0.13298957834979622]",4.0,"[-0.17172219283044918,0.08738013375521263]",4.0,"[-0.18365625305720842,0.033669356594447745]",4.0,"[0.05420335343453702,0.18020260193928497]",4.0,"[-0.052154160497035994,0.18801683096746086]",4.0,"[0.11391586084840606,0.16325507084597715]",4.0,"[0.017599558914979167,0.11074796617344025]",100.0,"[-0.14661278759087437,-0.08535127456098719]",4.0,"[0.02,0.02]",301.8175,0.0,27.0,27.0,207.0,1.0,,,,,,,
,,,,,,,6140ef8d27499e70e8740918,6842bae7e7f0cc789c6605df,2025-06-06_10h55.05.046,shape_ratio,2024.1.5,Win32,243.902439,6842b561977af9ba9b0f87ca,,,,,,,,,,,301.8177,302.3175,,,302.5677,303.3259,left,0.7513,,,,,,,,,0.4,,,,,,302.3175,302.5677,303.326,"[-0.05248655548122198,-0.1849822030069233]",100.0,"[-0.16913747500069415,-0.02164527709874261]",4.0,"[0.10118285493904874,-0.11488648146034595]",4.0,"[0.1146150226101299,-0.06951615490669813]",4.0,"[0.00707640513581067,-0.09804624414957708]",4.0,"[-0.122870167040412,0.09164156408391477]",100.0,"[0.02712309012629493,0.028520178914074417]",4.0,"[0.11759131321241593,0.12135977177980893]",100.0,"[0.06458152827353619,0.06317064858762583]",100.0,"[-0.16701217792833178,0.07887283800258411]",4.0,"[-0.11427540136841025,-0.09745957150474352]",4.0,"[-0.0216239341942746,-0.13822578888220957]",100.0,"[0.1207697979370715,0.020150965763487873]",4.0,"[0.0762784817025745,-0.04476399099898863]",4.0,"[0.04382465844536179,-0.07343805267201639]",4.0,"[-0.04110742344971709,0.14669702089509165]",4.0,"[0.06431131608868136,0.1686498364144644]",4.0,"[-0.005641313365313874,-0.18683432578598633]",4.0,"[-0.14960114054114151,0.12866599702601322]",4.0,"[0.04402143689775105,-0.17395107063477544]",4.0,"[-0.08258136551431576,0.17903032992696244]",100.0,"[-0.12401675242084896,-0.05026363363554153]",100.0,"[-0.05959953011491073,-0.12057662187826207]",100.0,"[-0.07684384634503684,0.06675803815994524]",100.0,"[-0.07650206657333486,0.015351313192558044]",4.0,"[0.1700022824255074,-0.010650578580907396]",4.0,"[-0.01072704280217158,0.19000062627027858]",100.0,"[-0.0664525103507652,0.10606006105842701]",100.0,"[-0.015935406281392533,0.11555166069091856]",100.0,"[0.008245785283779006,-0.03861756899645576]",4.0,"[0.15153814763131582,0.08026471816004956]",100.0,"[-0.14127113521742868,-0.13580172606747937]",4.0,"[0.02,0.02]",304.4267,0.0,28.0,28.0,175.0,1.0,,,,,,,
,,,,,,,6140ef8d27499e70e8740918,6842bae7e7f0cc789c6605df,2025-06-06_10h55.05.046,shape_ratio,2024.1.5,Win32,243.902439,6842b561977af9ba9b0f87ca,,,,,,,,,,,304.4269,304.9259,,,305.1759,305.5426,right,0.3628,,,,,,,,,0.9,,,,,,304.9259,305.1759,305.5426,"[0.0548553769698919,-0.04476345135864896]",100.0,"[0.09914866405050748,0.09074224159910295]",100.0,"[-0.16844862701948302,-0.10266661930022322]",100.0,"[0.10849341275641672,-0.09165021977233183]",4.0,"[-0.13142864992750988,0.06803208888485107]",100.0,"[0.04878918700576784,0.08898761377432746]",100.0,"[-0.09349842851448359,0.13233352784789604]",100.0,"[0.1493462595177512,-0.06912905591159396]",100.0,"[0.1531896768275592,0.01917883882315318]",100.0,"[0.04797382736273406,0.17689367316879148]",100.0,"[-0.11330277982817405,-0.07176382672964675]",100.0,"[0.0017300573639330347,-0.12815491589441802]",100.0,"[0.15206892629331076,0.12947911156380573]",100.0,"[-0.09915829298926307,-0.13508702789416893]",100.0,"[-0.18002258178444894,0.06087503253256714]",100.0,"[-0.021297744125211435,0.1609262551119764]",100.0,"[-0.027221952686996512,0.01143804074125579]",100.0,"[0.0045530782600782605,0.05204730912155379]",100.0,"[0.03181773239870531,-0.15915280939977672]",100.0,"[0.1586687355534963,0.07915165624331784]",100.0,"[0.12011521994382234,-0.13591666512544823]",100.0,"[0.130943101892527,-0.0268895419177095]",4.0,"[-0.1340030554155934,0.026407867829950027]",100.0,"[0.06832158674043523,0.051234309139145236]",100.0,"[-0.04864510142035029,-0.04864901060212782]",100.0,"[-0.0636641032794443,0.05972488491348109]",100.0,"[0.03589473233987929,-0.09432098266569125]",100.0,"[-0.019373311168649224,-0.1663990913751235]",100.0,"[-0.14747485902281401,-0.011935375068550455]",4.0,"[0.07604845919957234,-0.13569255525680154]",100.0,"[0.08002064856171526,0.14318587905427302]",100.0,"[-0.05753684501355618,-0.1436544408108136]",100.0,"[0.02,0.02]",306.6424,0.0,29.0,29.0,24.0,1.0,,,,,,,
,,,,,,,6140ef8d27499e70e8740918,6842bae7e7f0cc789c6605df,2025-06-06_10h55.05.046,shape_ratio,2024.1.5,Win32,243.902439,6842b561977af9ba9b0f87ca,,,,,,,,,,,306.6426,307.1425,,,307.3925,308.3509,right,0.9548,,,,,,,,,0.4,,,,,,307.1425,307.3925,308.3509,"[0.12474678903759792,0.10208172020728697]",4.0,"[0.09482351754407645,-0.017545734689295343]",100.0,"[-0.08818063762518968,0.10771420367599815]",100.0,"[0.047276164023612156,0.11742369792156172]",4.0,"[0.15665082141457384,-0.11966389309096506]",4.0,"[-0.09983107243507658,-0.015035211862273726]",4.0,"[-0.1632443176721924,-0.06972619257698079]",100.0,"[-0.18988634849033276,0.0279527567360686]",4.0,"[-0.05187676197393957,-0.01457080593546267]",100.0,"[-0.02439484216225307,-0.100670701599036]",100.0,"[0.1722420949078716,-0.0340793191256005]",100.0,"[0.007761958383344441,0.023069862763352638]",4.0,"[-0.04171478032669963,0.1437139469563747]",100.0,"[0.11191604893013697,0.028637456571335384]",100.0,"[-0.16969433583598487,-0.025276630775702916]",4.0,"[0.12189752014732398,-0.05752305143185084]",100.0,"[-0.01126977994488165,0.07101038248570853]",100.0,"[-0.07484723528194218,-0.12922567615936892]",4.0,"[-0.12700642856662664,-0.11878353279066343]",4.0,"[0.19548201150642325,0.009717227604991899]",100.0,"[0.03609324361916127,0.19038735513098182]",4.0,"[0.03630685533873096,0.0634959371103109]",4.0,"[-0.15432458880785022,0.12398187389203139]",4.0,"[0.1608142483442761,0.05847227417983135]",4.0,"[-0.06243745648902919,0.06231930864523536]",100.0,"[-0.04871720062470008,0.09993871411514407]",4.0,"[-0.14615459182558144,0.08008803127550326]",100.0,"[0.05982469166839078,-0.05582302177258002]",4.0,"[-0.04990443837061321,-0.1884832494278932]",4.0,"[0.07607828879205537,0.14773124145196082]",4.0,"[0.08747689852579639,-0.11995232800222876]",4.0,"[0.07346971394252141,0.0862206103792734]",4.0,"[0.02,0.02]",309.4508,0.0,30.0,30.0,161.0,1.0,,,,,,,
,,,,,,,6140ef8d27499e70e8740918,6842bae7e7f0cc789c6605df,2025-06-06_10h55.05.046,shape_ratio,2024.1.5,Win32,243.902439,6842b561977af9ba9b0f87ca,,,,,,,,,,,309.4511,309.9509,,,310.201,311.1176,right,0.9137,,,,,,,,,0.5,,,,,,309.9509,310.2009,311.1176,"[-0.03685412362083431,0.06708327685680085]",4.0,"[-0.0200007758608951,0.147915896006431]",100.0,"[0.17864520134566592,0.034983883993695904]",4.0,"[-0.0025697066396725304,-0.19319978428917442]",4.0,"[-0.1100867761526468,0.05629872513701525]",100.0,"[0.06662214391399111,0.020806516795939756]",100.0,"[-0.05580412999832523,0.0004459374944396166]",4.0,"[0.17749501445479565,-0.024535078288229102]",100.0,"[-0.013515891046625862,0.022872842405530832]",100.0,"[-0.18645888814197653,0.049436242541412184]",100.0,"[-0.11852593382229001,-0.1244047800831859]",100.0,"[-0.04709358085288334,0.18338617129925244]",100.0,"[0.14008597958199245,0.12794823100305616]",100.0,"[-0.18406594844883029,-0.03301964524153694]",4.0,"[-0.01878935919165006,-0.11400455163418484]",4.0,"[0.12848454909410023,-0.09139576248510133]",4.0,"[0.1714027314163668,-0.06808120388681416]",100.0,"[0.10043660735711932,-0.1420750307789045]",100.0,"[0.10684669216184738,0.0058532007279144295]",4.0,"[-0.06292680629370359,-0.14466761410969395]",100.0,"[-0.13087756936296574,-0.07045967074396212]",4.0,"[0.008814310715681022,0.08991849408719202]",4.0,"[-0.06195466045719493,-0.05883404043963724]",100.0,"[0.05845926111010824,-0.14643589026225323]",4.0,"[-0.0823360149629722,0.13841034177684391]",4.0,"[-0.10422725539229089,0.015657283449531084]",4.0,"[0.08278772341503791,-0.07998377613916757]",4.0,"[0.07916197202856827,0.115963735461873]",4.0,"[0.10980279591616443,0.07155053589334191]",100.0,"[0.0024500210614501416,-0.04736726522035077]",100.0,"[0.1411146585497673,-0.13660795490917418]",100.0,"[-0.1612477025335383,0.08545180404318979]",4.0,"[0.02,0.02]",312.2176,0.0,31.0,31.0,106.0,1.0,,,,,,,
,,,,,,,6140ef8d27499e70e8740918,6842bae7e7f0cc789c6605df,2025-06-06_10h55.05.046,shape_ratio,2024.1.5,Win32,243.902439,6842b561977af9ba9b0f87ca,,,,,,,,,,,312.2178,312.7175,,,312.9676,313.526,left,0.555,,,,,,,,,0.6,,,,,,312.7175,312.9676,313.526,"[0.06845532762456341,-0.008696481211041565]",100.0,"[-0.1697183695725099,-0.0049663689916952265]",100.0,"[-0.1938764422245298,0.04626758686229884]",100.0,"[0.03668197455900493,-0.044719669963956474]",100.0,"[-0.09804720200507064,0.12964496984686158]",100.0,"[0.16310444936548177,-0.061122509754235915]",100.0,"[0.02646102271117162,0.15381239253040507]",100.0,"[0.01041668973244101,-0.1292362337057394]",4.0,"[-0.020592500282388373,-0.1554103147999426]",4.0,"[-0.062240027910222664,0.1717672639116845]",100.0,"[-0.0938982989568767,-0.1684350005068314]",100.0,"[0.14402108532168337,0.004089609385594901]",100.0,"[0.08697996301029409,-0.09881076932240314]",4.0,"[-0.11862460361996816,0.06755187597657893]",4.0,"[0.1231674792234124,0.058303113568625]",4.0,"[-0.1304532807527016,0.005341049113997877]",4.0,"[0.18833579372847,0.05393208491084154]",100.0,"[-0.01905395898243654,0.12912816752213352]",100.0,"[-0.12233751416423978,-0.08866176549462575]",4.0,"[0.02391214028742935,0.0945363462174407]",100.0,"[0.04886406310079808,0.055993741811179505]",4.0,"[0.006921875315861607,0.02807562575169352]",4.0,"[-0.0055030862604218715,-0.039470651851629054]",4.0,"[-0.009018324358022353,-0.19896117069833086]",4.0,"[-0.12274108478439216,-0.045490736869490817]",100.0,"[-0.054631308590799024,0.013808803230948647]",100.0,"[-0.1546789523116111,0.097681881804197]",100.0,"[0.11999733821472822,0.12004962298728589]",100.0,"[0.06796895472334563,-0.1596397407532249]",100.0,"[-0.03447599161361962,-0.1050533451038243]",100.0,"[0.1223658611913859,-0.06121246368517283]",4.0,"[0.1593906479076239,0.10387153966459048]",4.0,"[0.02,0.02]",314.6258,0.0,32.0,32.0,50.0,1.0,,,,,,,
,,,,,,,6140ef8d27499e70e8740918,6842bae7e7f0cc789c6605df,2025-06-06_10h55.05.046,shape_ratio,2024.1.5,Win32,243.902439,6842b561977af9ba9b0f87ca,,,,,,,,,,,314.6259,315.1258,,,315.3759,316.1675,right,0.7875,,,,,,,,,0.5,,,,,,315.1258,315.3759,316.1676,"[0.14316309312517045,0.06428762028067833]",4.0,"[0.12789857390051576,0.02487198989158953]",4.0,"[-0.014552052158400441,-0.05240651109493222]",4.0,"[-0.004262435564139427,-0.13736815096552693]",4.0,"[-0.05025958239525845,0.07430893060920703]",4.0,"[-0.13003431930969592,-0.04126249250629448]",4.0,"[0.19129688646124962,-0.029620563000120708]",100.0,"[0.11119907592819893,-0.14612785606777973]",100.0,"[-0.07908209332425825,0.006539690459972379]",100.0,"[0.06531607959197235,-0.016523601003895005]",4.0,"[0.07960347162550378,-0.062046030944903886]",100.0,"[0.13735271079525918,-0.04952289111368388]",100.0,"[-0.04577075491881187,-0.18093362637886387]",100.0,"[0.06101568488310363,0.10598608997886128]",4.0,"[-0.1696792615239401,0.08416737704706209]",4.0,"[-0.010278655712167059,0.1649157210753687]",4.0,"[-0.09253941494771152,0.07234474610324675]",100.0,"[-0.1567719625949715,0.04343587231334977]",100.0,"[0.15721850468847218,0.10906710890311562]",4.0,"[-0.02237884791530271,0.04040077430705234]",4.0,"[-0.1153869238460426,-0.11232644563250614]",100.0,"[-0.031227072524168373,0.12040957219186328]",100.0,"[0.1713249262285848,0.034078187512462346]",4.0,"[-0.09095462535962849,0.16377151159401376]",100.0,"[-0.001287526355630637,0.09032326149811751]",100.0,"[0.16762284654568696,-0.08680560519225182]",4.0,"[0.016065303268070426,-0.018542487991050485]",100.0,"[0.01564426770725789,-0.17602247298827897]",4.0,"[0.07065052541393516,0.031461210055721514]",100.0,"[0.106681278748532,0.11027498622713956]",4.0,"[0.023742555328401548,0.029845962481065063]",100.0,"[0.11797081173623963,0.14982621181303046]",100.0,"[0.02,0.02]",317.2675,0.0,33.0,33.0,97.0,1.0,,,,,,,
,,,,,,,6140ef8d27499e70e8740918,6842bae7e7f0cc789c6605df,2025-06-06_10h55.05.046,shape_ratio,2024.1.5,Win32,243.902439,6842b561977af9ba9b0f87ca,,,,,,,,,,,317.2677,317.7675,,,318.0176,318.5176,right,0.4971,,,,,,,,,0.9,,,,,,317.7675,318.0176,318.5176,"[0.08318939621161736,-0.014541821751700289]",100.0,"[-0.08951532819150673,0.007236211529015849]",100.0,"[0.030158208945033828,0.004161940311050705]",100.0,"[-0.07072241698282856,0.08477130990930566]",100.0,"[-0.05781511315671252,0.03811995703006761]",100.0,"[-0.17942599662591205,-0.031542156349822485]",4.0,"[0.06827530182771469,-0.0632097930471029]",100.0,"[-0.13843625823412417,-0.14295542091265734]",100.0,"[0.08357676326207215,0.026986403713220995]",100.0,"[0.025898356833962036,0.1751928051374507]",100.0,"[-0.026401925580086912,-0.05270907162715022]",100.0,"[-0.19597326845619506,0.03836079639538688]",100.0,"[0.023970115687185184,-0.1670036356516547]",100.0,"[0.1640202224059256,0.042190432452828316]",100.0,"[0.12092346087412192,0.08030866974230695]",100.0,"[-0.07707582819277406,-0.03301050981745208]",100.0,"[-0.09752309764566668,0.13018701939847813]",100.0,"[0.1836141015121439,-0.04717673277770461]",100.0,"[0.04333657729308028,-0.1256308284692271]",4.0,"[-0.03211634746925513,-0.12771959193796356]",100.0,"[0.012639109631437846,0.04383441133337085]",100.0,"[0.08074164863414253,0.14982570990406255]",100.0,"[0.15810207130047538,0.11326482638827949]",100.0,"[0.12628054653491735,-0.050944664941290435]",100.0,"[-0.11999535508107435,0.05991844063991658]",100.0,"[-0.06513264978033755,0.18265276190902938]",100.0,"[0.020429734033967122,-0.03875360121470512]",100.0,"[-0.0013817013470424334,-0.08455399283158241]",100.0,"[-0.1620384775310645,0.10815717677769458]",4.0,"[0.16658753906051757,-0.1091022194645592]",100.0,"[0.007285622753649317,0.13315588893319194]",100.0,"[-0.031087059822767566,0.11433565555442726]",100.0,"[0.02,0.02]",319.6175,0.0,34.0,34.0,22.0,1.0,,,,,,,
,,,,,,,6140ef8d27499e70e8740918,6842bae7e7f0cc789c6605df,2025-06-06_10h55.05.046,shape_ratio,2024.1.5,Win32,243.902439,6842b561977af9ba9b0f87ca,,,,,,,,,,,319.6176,320.1175,,,320.3675,321.005,left,0.635,,,,,,,,,0.45,,,,,,320.1175,320.3675,321.005,"[0.10622420380770327,-0.1061862908705918]",4.0,"[-0.07782853497752606,-0.008394597037930012]",100.0,"[0.13144688097845228,0.08214410933717374]",100.0,"[0.1613467087740005,-0.04524980830326801]",4.0,"[0.14562960080949797,0.12442105266810098]",4.0,"[-0.052484151731531294,0.08303205653616193]",100.0,"[-0.18438072958823123,-0.037948058270820206]",4.0,"[-0.0009636244403494298,-0.1961374895354199]",100.0,"[-0.03188462270822861,-0.003679789061993631]",4.0,"[0.030140006282253853,0.1440958350391868]",4.0,"[-0.1606719336930499,0.06662124745538688]",4.0,"[0.04215622736616951,0.0177941223812912]",4.0,"[-0.04095220062392819,0.15250847740840567]",100.0,"[0.11601013225281757,-0.1458222391384119]",4.0,"[-0.10482857894346455,0.1674774288053007]",4.0,"[0.025157468056517866,-0.14839844407496502]",4.0,"[0.196346029954969,-0.006927123965448807]",4.0,"[-0.10248026416673349,-0.0710832353486159]",100.0,"[-0.1318998530002202,0.11773209379017824]",100.0,"[-0.0940603564998013,0.0753431948510102]",4.0,"[-0.02097530265381932,-0.12943002059881756]",4.0,"[-0.09620962518028806,0.028086102816318032]",100.0,"[0.08509353033657294,0.08692754305038201]",4.0,"[-0.07505767258116597,-0.16866723926677754]",100.0,"[0.0022922038529613947,0.0784069803801931]",100.0,"[0.06888714654553167,0.12868638195320103]",100.0,"[-0.08719686615560268,-0.11758423991974522]",100.0,"[-0.19154805145846407,0.006402073504166723]",4.0,"[0.10980460594341257,0.013469819540252554]",4.0,"[0.06521869505491122,-0.15707693008131002]",100.0,"[0.06455933278245175,-0.017813586745625835]",4.0,"[-0.1398376221034471,0.0010284508003381289]",100.0,"[0.02,0.02]",322.1049,0.0,35.0,35.0,135.0,1.0,,,,,,,
,,,,,,,6140ef8d27499e70e8740918,6842bae7e7f0cc789c6605df,2025-06-06_10h55.05.046,shape_ratio,2024.1.5,Win32,243.902439,6842b561977af9ba9b0f87ca,,,,,,,,,,,322.1051,322.6049,,,322.8551,323.3591,left,0.5,,,,,,,,,0.1,,,,,,322.6049,322.8551,323.3591,"[-0.08027414997956686,-0.1073169116635697]",4.0,"[-0.010873885003396757,0.07729598390540636]",4.0,"[0.13905641478044517,-0.005891441226950293]",100.0,"[-0.00024712975007833995,-0.19957016620065618]",4.0,"[-0.11316295032258422,-0.04871041784146946]",4.0,"[-0.1663633987307845,-0.08428089799389606]",100.0,"[0.07441150245337767,-0.10389824275701653]",4.0,"[0.18002654248297734,-0.04842253020835332]",4.0,"[-0.035573246408578334,-0.0025257010490172768]",4.0,"[-0.04580381829003525,0.1797816551493334]",4.0,"[0.027879977108126466,0.09142292853449042]",4.0,"[-0.047279702350785345,-0.1441282731066395]",4.0,"[0.10149600661190702,-0.1407587468790941]",4.0,"[0.09531090030151357,-0.05407831490753673]",4.0,"[0.11346146559374311,0.09862400637258825]",4.0,"[0.015649761685666737,-0.12313985603835907]",4.0,"[0.11736744242664988,-0.09597739899895637]",4.0,"[-0.119906696947788,-0.006925130553245722]",4.0,"[-0.11494331962229495,0.1312581172144728]",4.0,"[-0.011986939308532044,0.15357911519399853]",100.0,"[0.15779121280858902,0.08267390413636817]",4.0,"[0.038040132441982476,-0.04586699890851728]",4.0,"[0.014305514141106455,-0.08102740939670552]",4.0,"[0.09655408175812437,0.02075073241558915]",4.0,"[-0.07311275171485732,-0.18041575170840674]",4.0,"[-0.12124606017434916,-0.10467177767221135]",4.0,"[-0.17968258745965224,-0.020872158831660728]",4.0,"[0.14616964794756235,0.12466677660102565]",4.0,"[-0.0251980648701225,-0.04802629245626262]",4.0,"[-0.05753819947278264,0.1280466035294239]",4.0,"[-0.054862086790615126,0.07206132595544082]",4.0,"[0.19651448667788066,0.013914699263570083]",4.0,"[0.02,0.02]",324.4591,0.0,36.0,36.0,206.0,1.0,,,,,,,
,,,,,,,6140ef8d27499e70e8740918,6842bae7e7f0cc789c6605df,2025-06-06_10h55.05.046,shape_ratio,2024.1.5,Win32,243.902439,6842b561977af9ba9b0f87ca,,,,,,,,,,,324.4592,324.9591,,,325.2092,325.9883,left,0.7772,,,,,,,,,0.4,,,,,,324.9592,325.2092,325.9883,"[-0.034595178581890706,0.03229782975013321]",100.0,"[0.11674796571525156,0.013623955222334054]",4.0,"[-0.10075049331648046,0.06966434201448299]",100.0,"[-0.10729063016084159,0.12292762295066093]",4.0,"[-0.015871290839871297,-0.12567710132372112]",4.0,"[-0.14084266027079462,-0.03368102283491055]",100.0,"[-0.10992832788344384,-0.11530706548208258]",4.0,"[0.14864554960299511,-0.02821233108811184]",4.0,"[-0.17511837577442477,-0.07889479051197333]",4.0,"[-0.056861957704225634,-0.03981136187714519]",4.0,"[0.06278785142367867,0.13833334171239783]",4.0,"[0.10144623777241264,-0.09562079191782936]",100.0,"[0.1762591428731125,0.05678424566202897]",4.0,"[0.009084185440798665,0.030648400122991255]",4.0,"[0.03810137710690762,-0.04792824515373889]",4.0,"[-0.16818204748742027,0.006729029845675027]",100.0,"[0.07691062821845057,-0.05818867169324828]",100.0,"[0.049439757147827626,0.18879193168582933]",100.0,"[0.14950490527263385,-0.11646816702446297]",4.0,"[-0.004307082590477563,-0.17424624076150247]",100.0,"[0.007821562745293078,0.08816189672323775]",100.0,"[-0.058291978902377826,0.16359219080127269]",100.0,"[0.06954968921952723,-0.12042110776026124]",4.0,"[-0.059008327324063706,-0.179869640393727]",4.0,"[0.1678295511082926,-0.06996085534625977]",4.0,"[0.012152143127049644,0.16094649317929452]",100.0,"[-0.15855938475809148,0.06438741237404894]",100.0,"[0.03522848484704842,-0.1466712926127022]",4.0,"[0.11114534271431546,0.08850708158408457]",4.0,"[0.07526668218119252,0.06604169698979194]",4.0,"[-0.053912250163772074,0.12228920100416382]",4.0,"[0.1272205439720576,0.12963636662628916]",100.0,"[0.02,0.02]",327.0884,0.0,37.0,37.0,159.0,1.0,,,,,,,
,,,,,,,6140ef8d27499e70e8740918,6842bae7e7f0cc789c6605df,2025-06-06_10h55.05.046,shape_ratio,2024.1.5,Win32,243.902439,6842b561977af9ba9b0f87ca,,,,,,,,,,,327.0886,327.5884,,,327.8385,328.4133,right,0.5718,,,,,,,,,0.4,,,,,,327.5884,327.8384,328.4134,"[-0.006496033103529728,-0.17218143277429085]",4.0,"[0.14893359202213866,0.03496534812620734]",4.0,"[-0.07661638051333089,-0.08085613072103946]",4.0,"[-0.05753653703113976,0.026359173408688083]",100.0,"[-0.004238362236277509,0.19119039208133795]",4.0,"[-0.09215532400947782,-0.15287949219578698]",4.0,"[-0.1850781724526827,-0.012278805323430883]",100.0,"[-0.11989044155275967,0.07034534976066698]",4.0,"[0.044813420804608955,0.0015783334378883815]",100.0,"[-0.14077030755041478,0.10703835075881657]",100.0,"[0.06577047328877113,0.057378179083535916]",4.0,"[0.1404056879621814,-0.026332455836635665]",4.0,"[0.12275592785956493,0.12049629130537065]",4.0,"[0.1631094491354412,-0.1086582605072376]",4.0,"[0.05966782734338823,-0.06300541487679663]",100.0,"[-0.0006153296736163128,0.07838912184600146]",100.0,"[-0.10072449089549734,0.13964887160905948]",4.0,"[0.07172977402055129,-0.1484171630823792]",100.0,"[-0.16359950740757825,-0.08438966618511669]",4.0,"[0.002065229852273945,-0.054118168462846034]",100.0,"[-0.03429806226744231,-0.08945309749210288]",100.0,"[-0.12495736685908267,-0.10076894393391055]",4.0,"[0.1705946292819285,0.07665236492868965]",4.0,"[-0.14522954131266677,-0.0295747742874829]",4.0,"[-0.05593823123540798,0.1037747772058326]",100.0,"[-0.04653140992336076,-0.034365102661519084]",100.0,"[0.04026795057621052,0.1409790053935641]",4.0,"[0.09403099985874991,0.09129538564668027]",4.0,"[0.09109474902506104,-0.09969146747439]",100.0,"[-0.006711960544940322,0.03585973319321094]",100.0,"[-0.14867432770796518,0.026602290846585143]",4.0,"[-0.10520075164168213,-0.04385072731411583]",4.0,"[0.02,0.02]",329.5132,0.0,38.0,38.0,174.0,1.0,,,,,,,
,,,,,,,6140ef8d27499e70e8740918,6842bae7e7f0cc789c6605df,2025-06-06_10h55.05.046,shape_ratio,2024.1.5,Win32,243.902439,6842b561977af9ba9b0f87ca,,,,,,,,,,,329.5134,330.0132,,,330.2633,330.7007,right,0.435,,,,,,,,,0.9,,,,,,330.0133,330.2633,330.7007,"[0.03427215709466228,0.06205930990863093]",100.0,"[0.08436637402347821,0.11346020912289119]",100.0,"[-0.0014435895372468728,0.12240869091000738]",100.0,"[-0.09658465993282382,0.05302621218857465]",100.0,"[-0.008982153269828999,-0.05961921522548155]",100.0,"[0.1217454846177024,0.0710098569224962]",100.0,"[0.14568680767698,-0.08872039866902337]",100.0,"[0.11432859816974776,-0.015121583212291513]",100.0,"[-0.00693546952270338,-0.17505283913529707]",100.0,"[-0.09995288150976893,-0.032046247667816344]",100.0,"[-0.045678141932379006,0.12907687863438794]",4.0,"[-0.08707394088814581,-0.14885955056144629]",100.0,"[-0.05020753317684689,-0.07153522378900373]",4.0,"[-0.15072687067247403,-0.07192164347668493]",100.0,"[-0.1888695832349231,-0.02432797510754239]",100.0,"[0.07082189070262819,-0.03665826968380842]",100.0,"[0.04416951774588749,-0.10724498214568015]",100.0,"[0.19556909842313921,0.03659419859708486]",100.0,"[0.10937121975291429,-0.07041811630755695]",100.0,"[0.03951497843583317,-0.06504881073732934]",100.0,"[0.15623561668546962,0.10222824040892378]",100.0,"[-0.09992559920310252,0.10430886004946974]",100.0,"[0.08298234972919238,0.15402471548229268]",4.0,"[-0.004186492680257569,-0.11462508402134215]",100.0,"[0.10490034070261259,-0.1513737800961384]",100.0,"[0.03941496993725559,-0.18015787384446788]",100.0,"[-0.15656635889975634,0.06808929930873962]",100.0,"[0.028802651260306306,0.01987598849906555]",100.0,"[-0.03671108523821338,-0.013106895317011273]",100.0,"[-0.059216129117903235,0.06841968128531888]",100.0,"[-0.018017731361615042,0.05226947946450445]",100.0,"[-0.11215041232513526,-0.09650928300465353]",100.0,"[0.02,0.02]",331.8008,0.0,39.0,39.0,15.0,1.0,,,,,,,
,,,,,,,6140ef8d27499e70e8740918,6842bae7e7f0cc789c6605df,2025-06-06_10h55.05.046,shape_ratio,2024.1.5,Win32,243.902439,6842b561977af9ba9b0f87ca,,,,,,,,,,,331.8009,332.3007,,,332.5508,333.1008,right,0.5475,,,,,,,,,0.45,,,,,,332.3007,332.5508,333.1008,"[0.12907225671431666,0.0994143003574353]",100.0,"[-0.028594085292688837,0.11041685996503538]",4.0,"[0.06539676043933854,-0.02878504914503891]",4.0,"[0.08374833670095073,0.02931199952592256]",4.0,"[0.0665175334954023,-0.15838310433212063]",100.0,"[-0.19164952429912904,0.022286565157702425]",4.0,"[-0.08870548384820065,0.16228999880278955]",4.0,"[-0.10111277726934519,-0.007942735278791078]",4.0,"[-0.13348015860069834,-0.10793239586869323]",4.0,"[0.14854934111836307,0.023437616176387677]",100.0,"[0.03311717324779297,0.10937263944586174]",4.0,"[-0.10972361183594906,0.11937236696762415]",100.0,"[-0.023391198728540896,0.1556938668568831]",4.0,"[0.16358591210430298,-0.05182120911462576]",4.0,"[-0.0779140806223197,-0.11826431713225594]",4.0,"[-0.09036782297608485,-0.0634772871375888]",100.0,"[-0.003830609053498776,-0.010850838738989977]",100.0,"[0.05765699894654972,-0.07918585549186218]",100.0,"[-0.048260554949265635,-0.07138805706782761]",100.0,"[-0.04017072691659845,-0.18541271602276824]",4.0,"[0.1839556877353594,0.05340088590861387]",4.0,"[0.0769597138778165,0.09539110865155791]",4.0,"[0.035624607739673145,0.019902249020638526]",100.0,"[-0.056431005040053175,-0.011842683384226668]",100.0,"[0.11020238718763649,-0.009451123767396135]",4.0,"[-0.14010066541520105,0.06042742115119491]",100.0,"[-0.16448258147943767,-0.07294253861207164]",100.0,"[0.016243892687959283,-0.13714821357991205]",4.0,"[0.001231534838054663,-0.17520759302188071]",4.0,"[-0.18767850622003335,0.06514370489880143]",100.0,"[-0.09327795594649042,0.059232744191317195]",4.0,"[0.11678130712237723,-0.0988624960289967]",100.0,"[0.02,0.02]",334.2007,0.0,40.0,40.0,127.0,1.0,,,,,,,
,,,,,,,6140ef8d27499e70e8740918,6842bae7e7f0cc789c6605df,2025-06-06_10h55.05.046,shape_ratio,2024.1.5,Win32,243.902439,6842b561977af9ba9b0f87ca,,,,,,,,,,,334.2009,334.7007,,,334.9509,335.8299,left,0.8754,,,,,,,,,0.45,,,,,,334.7007,334.9508,335.8299,"[-0.032875495129819306,0.16234473872616667]",100.0,"[-0.012056107774471109,-0.105175363612538]",4.0,"[0.00379915753396768,0.007431840080061635]",100.0,"[-0.13708955663980021,-0.12349540388480448]",4.0,"[-0.10128482998424583,0.03392301646761052]",100.0,"[0.07718887783419497,0.08814877708971262]",4.0,"[-0.06438284099063084,0.12829533781826002]",4.0,"[0.11856980589003988,0.12739794460839285]",100.0,"[0.15732763195413768,-0.03694395426933153]",100.0,"[0.09737515418958968,-0.1704290815790564]",100.0,"[0.12960221008945935,-0.0813658994370376]",100.0,"[-0.04635435223978631,-0.060579268280026834]",100.0,"[0.07400633104279965,-0.012676273321810672]",4.0,"[0.02595372409541881,0.16252457597495215]",4.0,"[0.13529953054363983,0.03011409348751598]",4.0,"[0.0850636635368479,-0.09769328134209374]",100.0,"[-0.08001362995504058,-0.1829096335338728]",4.0,"[-0.16350886954673896,0.08774543483140537]",4.0,"[0.041017316134358515,-0.1890730200780169]",4.0,"[-0.0075770208031812605,-0.037574591077085766]",100.0,"[-0.1455670252037193,0.0002987135171099539]",4.0,"[-0.060071889252116796,0.03327782580241575]",4.0,"[0.056078772731619785,-0.12541235098898743]",4.0,"[-0.08413435412420715,-0.08953094335873847]",4.0,"[-0.09527666153877846,-0.13750481842754536]",4.0,"[0.0027478445118859322,-0.1604526561253419]",100.0,"[0.06575210235837052,0.17601175312035014]",4.0,"[0.04791483574444791,-0.04796696130667091]",4.0,"[-0.11757047919318703,-0.04100525809767905]",4.0,"[-0.197416235659148,0.03126129637731165]",100.0,"[-0.04676390246397149,0.08205520348614033]",100.0,"[0.014255246881228837,0.12232979935887317]",100.0,"[0.02,0.02]",336.9298,0.0,41.0,41.0,143.0,1.0,,,,,,,
,,,,,,,6140ef8d27499e70e8740918,6842bae7e7f0cc789c6605df,2025-06-06_10h55.05.046,shape_ratio,2024.1.5,Win32,243.902439,6842b561977af9ba9b0f87ca,,,,,,,,,,,336.93,337.4298,,,337.6801,338.1715,right,0.4864,,,,,,,,,0.9,,,,,,337.4299,337.6801,338.1716,"[0.13069604077704366,-0.011443687147516732]",100.0,"[-0.010667554811807117,-0.10890659781978157]",100.0,"[-0.0731896100063972,-0.18457968645781925]",100.0,"[-0.02349232345338665,0.09425861668762942]",100.0,"[-0.16741406267719583,-0.05263941611255201]",100.0,"[0.14309315781342505,-0.08443168038887741]",100.0,"[-0.09061052905984325,0.10619325399786338]",100.0,"[-0.09408950735157212,0.03969496774230458]",100.0,"[0.11302915373253526,0.08815556192417769]",100.0,"[0.18386468520861327,-0.047183641650833635]",100.0,"[-0.1620799823920185,0.11620421332555361]",100.0,"[-0.06071150640944281,-0.14553300261340418]",100.0,"[-0.0852070308307071,-0.11282946817817917]",100.0,"[0.05880979294275174,0.15360685875606458]",4.0,"[-0.18523596288379524,0.022259515579797447]",100.0,"[0.05959497807041616,0.09176297878061673]",100.0,"[0.11425084986714573,0.16201503425842045]",100.0,"[0.032218595699319556,0.05570955058522558]",100.0,"[-0.0034566940970423713,0.03129598868607364]",100.0,"[0.03214547121196565,-0.07517330889436924]",100.0,"[-0.06713041362419002,-0.0638820034145639]",100.0,"[-0.16174920442092913,0.0697445979018028]",4.0,"[-0.0066444767950083,0.179578283863847]",100.0,"[0.095896571910024,-0.035340894432945164]",100.0,"[0.1537177308878398,0.030045409067832644]",100.0,"[0.09149327210256249,0.042567317583559514]",100.0,"[0.018011738993183,-0.03667424348351549]",100.0,"[-0.06304820612136174,0.157362159970779]",100.0,"[0.018272948914930812,0.1026820114031013]",100.0,"[-0.11511743354973862,-0.07002757608485838]",100.0,"[0.032101655844034474,-0.19118192290581737]",4.0,"[0.19332763602847314,0.004067145219944859]",100.0,"[0.02,0.02]",339.2715,0.0,42.0,42.0,23.0,1.0,,,,,,,
,,,,,,,6140ef8d27499e70e8740918,6842bae7e7f0cc789c6605df,2025-06-06_10h55.05.046,shape_ratio,2024.1.5,Win32,243.902439,6842b561977af9ba9b0f87ca,,,,,,,,,,,339.2717,339.7716,,,340.0216,340.6923,right,0.6647,,,,,,,,,0.5,,,,,,339.7716,340.0216,340.6924,"[-0.041107343052915524,-0.046821460019198166]",100.0,"[0.11296215041459158,-0.036353586272576746]",100.0,"[0.1242019720378786,-0.13787649021541912]",4.0,"[0.06611725888234807,-0.023264418098444997]",4.0,"[-0.0901407845781122,-0.15678842537246468]",4.0,"[0.05937570909194136,-0.14778909818543784]",100.0,"[-0.09184085635575438,0.1343601475869262]",4.0,"[-0.19016242631921543,-0.05820958683005828]",100.0,"[-0.17831983487805633,-0.0031910228165789967]",4.0,"[-0.13452797150662224,-0.024401042243080717]",4.0,"[-0.08957182569681317,0.03908131111068535]",4.0,"[0.10030470611140127,0.07289144379556241]",100.0,"[0.010628534544083969,-0.10499279095307273]",4.0,"[0.013173391535831344,0.06190870957070708]",100.0,"[-0.16084894334884312,0.09221718680792965]",100.0,"[0.0076406099950838595,0.14875010905769154]",4.0,"[-0.1851439091669252,0.0402194804792682]",4.0,"[-0.048836865410897,-0.16125395190966188]",4.0,"[0.11094561298662524,0.15386217076441436]",100.0,"[-0.04608784726635917,-0.11999809361270822]",100.0,"[-0.0626075886050437,-0.08174209683257871]",4.0,"[0.025602176425616414,0.18823463365570856]",4.0,"[-0.01446966122179594,0.18356574282783225]",4.0,"[-0.08053744889838385,-0.0061433576671139365]",4.0,"[0.14817002799837317,-0.07297067618371886]",100.0,"[0.19037969738903618,-0.04160576789266577]",100.0,"[0.05913960487149936,0.12598735112392498]",100.0,"[0.029276481987834304,0.024761329220142132]",100.0,"[0.14697712422277454,0.0010820418273690133]",4.0,"[0.10046226647887675,0.11449566138446025]",100.0,"[-0.06241985812096258,0.09397595844828427]",100.0,"[-0.004893417107173389,-0.14598433228451602]",100.0,"[0.02,0.02]",341.7923,0.0,43.0,43.0,108.0,1.0,,,,,,,
,,,,,,,6140ef8d27499e70e8740918,6842bae7e7f0cc789c6605df,2025-06-06_10h55.05.046,shape_ratio,2024.1.5,Win32,243.902439,6842b561977af9ba9b0f87ca,,,,,,,,,,,341.7925,342.2924,,,342.5425,343.4299,left,0.8799,,,,,,,,,0.45,,,,,,342.2924,342.5425,343.4299,"[0.17479809600945703,-0.059511759580480515]",4.0,"[0.08659479953926998,-0.11735894017544472]",4.0,"[-0.015167594779572949,-0.07161974170683907]",100.0,"[0.024610519295827703,0.009359157199084752]",100.0,"[-0.08941542111103795,-0.1555251145882124]",4.0,"[0.011464394807647599,-0.11350882653983363]",100.0,"[-0.1411101834065674,0.05163718536845947]",4.0,"[-0.02809560961039656,0.1200697597456033]",100.0,"[0.04882548464755709,0.19369371846790895]",4.0,"[0.13888908534451777,0.11481128629973215]",4.0,"[0.09289898327205047,0.011330519689530697]",100.0,"[-0.10407859194895562,0.07677313046467343]",100.0,"[-0.05666348722906292,-0.07132536974350219]",4.0,"[0.08758185898076935,-0.057171425139385716]",4.0,"[-0.06471862473681757,0.08476230959752729]",100.0,"[-0.07743462473452424,0.1808301622573573]",100.0,"[0.1094110583047648,0.16400450514352333]",100.0,"[-0.023033356390641118,0.16979004332790928]",100.0,"[0.11244347611393496,0.05364613802279314]",4.0,"[-0.03039626343890985,0.027571233625882756]",4.0,"[-0.1243531925392255,-0.12824227627339368]",4.0,"[-0.007994615899909746,-0.16820682102598922]",4.0,"[-0.14019208033145572,-0.07284746886337116]",4.0,"[0.0442752006161145,0.04908050149965133]",100.0,"[-0.18692191102148803,0.03762640315611644]",100.0,"[-0.15463548242029765,-0.0024181868124362777]",4.0,"[0.18357791504452126,0.057783735785073856]",100.0,"[0.01261707928499474,0.10496394467756062]",4.0,"[0.0028551838635299436,0.05213608339033916]",4.0,"[-0.02574716160844986,-0.030900008747557266]",100.0,"[-0.07061233968092144,0.13730538935968428]",4.0,"[0.142859742807973,-0.12410870654061464]",4.0,"[0.02,0.02]",344.5299,0.0,44.0,44.0,134.0,1.0,,,,,,,
,,,,,,,6140ef8d27499e70e8740918,6842bae7e7f0cc789c6605df,2025-06-06_10h55.05.046,shape_ratio,2024.1.5,Win32,243.902439,6842b561977af9ba9b0f87ca,,,,,,,,,,,344.53,345.0299,,,345.2799,346.2924,right,1.0063,,,,,,,,,0.6,,,,,,345.0299,345.2799,346.2924,"[0.002854034290125383,-0.059416047095734816]",100.0,"[-0.024547334942979705,0.08852498517274937]",100.0,"[-0.014982051458040827,-0.12942135637016797]",100.0,"[0.12389087653044684,-0.07795732129996617]",4.0,"[-0.10758977674884483,0.14714536435843703]",4.0,"[-0.058742620758066945,-0.08809382697310392]",100.0,"[-0.17394759094420148,0.011373594026133152]",100.0,"[-0.1271802818134077,-0.1374254984885602]",4.0,"[0.15527253146244516,0.01607160280485635]",100.0,"[0.17057599297224918,-0.08246460293972285]",4.0,"[0.06208581948162216,0.05772329783687005]",4.0,"[0.0049894336826064095,-0.1946839372441408]",4.0,"[0.03800734210399652,-0.12137618170586278]",100.0,"[0.08833475025906826,-0.1201026085935396]",4.0,"[-0.08581306974783248,-0.05073247936663282]",4.0,"[0.18091756296680336,0.08175731465667693]",100.0,"[-0.12974550219164074,-0.04050995641142964]",100.0,"[0.040042261664192544,0.170877634674657]",4.0,"[0.05258725265949611,-0.014644263097258435]",4.0,"[0.13090866179859031,-0.1337706991403946]",100.0,"[-0.17790722898072753,0.06991546886935418]",100.0,"[-0.04707015365129763,0.04025540229591243]",4.0,"[-0.1374674495349752,0.05710852081676173]",100.0,"[-0.15375403745860752,-0.09223618371247376]",100.0,"[0.07673098321095154,0.154705394203618]",100.0,"[0.10895750320345007,0.09198015385118305]",100.0,"[0.09833473315820286,0.016983686359627288]",4.0,"[0.14095384446874928,0.12240974379441939]",100.0,"[-0.02064645965981298,0.18996825469605505]",4.0,"[0.03989151282946767,0.11937672488019804]",100.0,"[-0.09451984710397168,-0.008966715635623339]",100.0,"[-0.020150321129101745,0.13754139975726898]",100.0,"[0.02,0.02]",347.3924,0.0,45.0,45.0,39.0,1.0,,,,,,,
,,,,,,,6140ef8d27499e70e8740918,6842bae7e7f0cc789c6605df,2025-06-06_10h55.05.046,shape_ratio,2024.1.5,Win32,243.902439,6842b561977af9ba9b0f87ca,,,,,,,,,,,347.3925,347.8922,,,348.1424,348.7965,right,0.6478,,,,,,,,,0.6,,,,,,347.8923,348.1424,348.7965,"[0.058341005097611136,-0.07278718025992599]",4.0,"[-0.13648110818561543,-0.04161181516661805]",100.0,"[-0.020068595256203012,0.06169976419531718]",100.0,"[0.07898335289474923,0.051334845572413246]",100.0,"[0.10646991605005574,-0.07930324242861031]",4.0,"[0.01104303821609828,-0.047800769638803864]",100.0,"[-0.06671959406941874,0.13942419902365596]",4.0,"[-0.08426363675109488,-0.06587903935024067]",100.0,"[-0.19280870732706826,0.020344737375300653]",100.0,"[0.17936856708098858,0.005785984269627084]",4.0,"[0.08903593063395984,-0.1565166542946563]",100.0,"[-0.056596169049368976,0.04175941613208283]",100.0,"[0.014322940417727045,0.16978189090444729]",100.0,"[0.08741769314913475,0.12280223934149312]",100.0,"[0.0030476034442520014,-0.005540607762878305]",100.0,"[-0.011378124248738148,0.1228294597928787]",4.0,"[-0.13954022597558066,-0.11187045312662701]",4.0,"[-0.1558017423771806,0.083694325845438]",4.0,"[0.03623346728997353,-0.14035303867040663]",100.0,"[-0.04049694720868367,-0.02629938399852556]",100.0,"[-0.05408121803137437,-0.15875390513334442]",4.0,"[-0.1398839605675501,-0.0005859972335664076]",4.0,"[0.024503812194793643,0.07015102564500597]",4.0,"[-0.09178635303373722,-0.13396887748324765]",100.0,"[0.042846233422926934,0.02667099884306949]",100.0,"[0.13809470995832554,0.11405433131987142]",100.0,"[0.0034724635419130304,-0.17326676938585078]",100.0,"[-0.0926091254114111,0.02208427042230077]",4.0,"[-0.10842231185152103,0.15232537978017127]",4.0,"[-0.02678244874896051,-0.07945692038153396]",100.0,"[0.14190328980763797,-0.12282222525536]",100.0,"[-0.10106223806735548,0.1090775833171682]",4.0,"[0.02,0.02]",349.8965,0.0,46.0,46.0,46.0,1.0,,,,,,,
,,,,,,,6140ef8d27499e70e8740918,6842bae7e7f0cc789c6605df,2025-06-06_10h55.05.046,shape_ratio,2024.1.5,Win32,243.902439,6842b561977af9ba9b0f87ca,,,,,,,,,,,349.8967,350.3965,,,350.6468,351.9675,left,1.3128,,,,,,,,,0.6,,,,,,350.3965,350.6467,351.9676,"[0.0830615944806708,0.018354175111233866]",4.0,"[-0.08366912948134936,-0.149233999819636]",4.0,"[0.09809434094093573,-0.10030009953569631]",4.0,"[-0.12146030087534603,-0.044144840197421056]",100.0,"[-0.043281546197604215,-0.057683064288340434]",4.0,"[-0.007075726367378035,0.17387954726198418]",100.0,"[-0.18102600367080227,0.07279628345303371]",4.0,"[0.18869976271981417,-0.012034395027668645]",100.0,"[-0.0968842613911658,0.10612203830045398]",100.0,"[-0.06016482725291748,0.13724850115099746]",100.0,"[0.09115923567010134,0.10231989299039465]",100.0,"[-0.07810418855291437,0.018751819323285367]",100.0,"[-0.1697485419765802,0.025682750305507228]",100.0,"[-0.08714189852424721,0.06161126704563881]",4.0,"[0.16095723722649358,0.07059528823982865]",100.0,"[0.030761687878946162,0.13545347976387348]",100.0,"[-0.05650492487622851,-0.11138047699370203]",4.0,"[0.07933249406915728,-0.1768685727444969]",100.0,"[-0.10065612885244864,-0.10830741499623267]",100.0,"[-0.015971894865275865,-0.13606761564275577]",4.0,"[0.1405382926899904,-0.08778336171227227]",4.0,"[0.16129339012426078,-0.05273121505712428]",4.0,"[-0.07954082968856144,-0.023935120007037347]",100.0,"[0.09921664918964145,-0.035725650011981566]",4.0,"[0.056039088423011904,0.16720688101761558]",4.0,"[0.006662459312023568,0.052083978263177365]",4.0,"[0.01882173468033387,-0.016506524240841508]",100.0,"[-0.19296286430346818,-0.04333592324012051]",100.0,"[-0.029937614676715445,0.09840023619957472]",100.0,"[0.01943655436018745,-0.18492388238670177]",100.0,"[-0.05345064966232852,-0.19173970287930953]",100.0,"[0.09886333770395386,0.15202894600983444]",100.0,"[0.02,0.02]",353.0674,0.0,47.0,47.0,55.0,1.0,,,,,,,
,,,,,,,6140ef8d27499e70e8740918,6842bae7e7f0cc789c6605df,2025-06-06_10h55.05.046,shape_ratio,2024.1.5,Win32,243.902439,6842b561977af9ba9b0f87ca,,,,,,,,,,,353.0676,353.5673,,,353.8174,354.4467,right,0.621,,,,,,,,,0.4,,,,,,353.5674,353.8174,354.4467,"[0.019711096880044163,-0.039662935877883373]",100.0,"[0.15223901418509928,0.049197458526375235]",4.0,"[0.10691885205355861,-0.09956892305444524]",4.0,"[0.06753835972090325,0.0952763311147141]",4.0,"[0.09916569718519185,-0.004498302384195908]",4.0,"[-0.10349630186083625,-0.08676296434089492]",100.0,"[-0.12730343049013093,0.08308262023017467]",4.0,"[-0.04821915685343608,-0.1929986355530126]",4.0,"[0.05957649100300256,0.017833023911244434]",100.0,"[-0.17284765001982755,0.013188018977519094]",100.0,"[-0.03313814402802763,-0.152621101404682]",100.0,"[0.010601743740930512,0.1780960816824394]",4.0,"[-0.04805176387983463,0.08171941530857682]",4.0,"[0.13948623816086828,0.002174229286804868]",100.0,"[-0.04351375558798136,0.0237370838257758]",100.0,"[0.1600236495594258,0.09808016363246486]",4.0,"[0.06285794548511607,-0.03460075787013759]",100.0,"[0.03356101457446451,0.12242749135465472]",100.0,"[-0.11405599965718274,0.157069257443329]",4.0,"[-0.10588421285658238,-0.006015176596413855]",100.0,"[-0.16291492745369884,-0.06378403124838979]",4.0,"[0.022464572708918447,-0.17681948811714118]",4.0,"[0.0432327136620438,-0.09769009889082032]",4.0,"[-0.09918274132836873,-0.12761820197872412]",100.0,"[-0.11555920114624642,0.03318707139388578]",100.0,"[-0.0027429052890424166,0.09601879828849669]",4.0,"[0.05869492661057856,0.1871119013926394]",4.0,"[0.13007466607876536,-0.05994072110117991]",4.0,"[0.16380332997706717,-0.11151309369267351]",4.0,"[0.10367048014353845,-0.15947723948821937]",100.0,"[-0.07282039434114541,0.11481388605387421]",4.0,"[-0.05584595124542882,0.1572208396683734]",4.0,"[0.02,0.02]",355.5465,0.0,48.0,48.0,162.0,1.0,,,,,,,
,,,,,,,6140ef8d27499e70e8740918,6842bae7e7f0cc789c6605df,2025-06-06_10h55.05.046,shape_ratio,2024.1.5,Win32,243.902439,6842b561977af9ba9b0f87ca,,,,,,,,,,,355.5467,356.0465,,,356.2965,356.8298,right,0.5256,,,,,,,,,0.9,,,,,,356.0466,356.2965,356.8298,"[-0.09854007823380896,-0.09852074231817518]",100.0,"[-0.15745842713218364,-0.06987015130665514]",100.0,"[-0.12525257225564523,0.13924853895638953]",100.0,"[-0.06298533218053105,0.16700775429529374]",100.0,"[0.11611101714110426,0.10824362548801546]",100.0,"[-0.012066209309194725,0.10573540367670901]",100.0,"[-0.17925394224867117,-0.032616976447467125]",100.0,"[-0.15466037748751374,0.0609717819950502]",100.0,"[-0.04045154192476182,-0.1807938381813461]",100.0,"[0.06031844162241624,0.08808096549470397]",100.0,"[0.13642593303175332,-0.12652470556594753]",100.0,"[-0.006795754937367514,-0.040103564060130985]",100.0,"[-0.12088134376533817,0.027414507713028665]",100.0,"[-0.09284929060418234,-0.026712544125067208]",100.0,"[0.036427895473021006,0.1305063427874104]",100.0,"[-0.17838920040160197,0.02818548198993351]",100.0,"[-0.06292183630816393,0.06247352434378523]",100.0,"[0.15187037803088904,0.07849215640946988]",100.0,"[-0.015738771478290732,0.14905222798779205]",100.0,"[0.13187252921871523,-0.015250044656125563]",4.0,"[0.08361228311964199,-0.013309184449231997]",4.0,"[-0.009425414049524045,0.19392956904633646]",100.0,"[0.014224636335629962,-0.11507438313848085]",100.0,"[-0.029188945711921765,0.012447496268215974]",100.0,"[0.08745407880158802,0.16662921950247522]",100.0,"[0.04877162429980602,0.18051121865199019]",100.0,"[-0.12564625928332707,0.08944838763483941]",100.0,"[0.025869951610654134,-0.011186178863195404]",100.0,"[0.13107882412013114,0.04103548291927624]",100.0,"[-0.029800120371380467,-0.09629468846016578]",100.0,"[0.05095417152867049,-0.1856633118443302]",100.0,"[0.08024779962554275,-0.08366663955970444]",4.0,"[0.02,0.02]",357.9298,0.0,49.0,49.0,5.0,1.0,,,,,,,
