right,left,explain.started,explain.stopped,key_resp_3.keys,key_resp_3.rt,key_resp_3.duration,participant,session,date,expName,psychopyVersion,OS,frameRate,study_id,explain_2.started,explain_2.stopped,key_resp_4.keys,key_resp_4.rt,key_resp_4.duration,explain_3.started,explain_3.stopped,key_resp_5.keys,key_resp_5.rt,key_resp_5.duration,fixation.started,fixation.stopped,practice.started,practice.stopped,response.started,response.stopped,key_resp.keys,key_resp.rt,key_resp.duration,feedback.started,feedback.stopped,trials_2.thisRepN,trials_2.thisTrialN,trials_2.thisN,trials_2.thisIndex,trials_2.ran,dot_ratio,explain_4.started,explain_4.stopped,key_resp_6.keys,key_resp_6.rt,key_resp_6.duration,dotDisplay.started,dotDisplay.stopped,ITI.started,polygon_1.pos,polygon_1.edges,polygon_2.pos,polygon_2.edges,polygon_3.pos,polygon_3.edges,polygon_4.pos,polygon_4.edges,polygon_5.pos,polygon_5.edges,polygon_6.pos,polygon_6.edges,polygon_7.pos,polygon_7.edges,polygon_8.pos,polygon_8.edges,polygon_9.pos,polygon_9.edges,polygon_10.pos,polygon_10.edges,polygon_11.pos,polygon_11.edges,polygon_12.pos,polygon_12.edges,polygon_13.pos,polygon_13.edges,polygon_14.pos,polygon_14.edges,polygon_15.pos,polygon_15.edges,polygon_16.pos,polygon_16.edges,polygon_17.pos,polygon_17.edges,polygon_18.pos,polygon_18.edges,polygon_19.pos,polygon_19.edges,polygon_20.pos,polygon_20.edges,polygon_21.pos,polygon_21.edges,polygon_22.pos,polygon_22.edges,polygon_23.pos,polygon_23.edges,polygon_24.pos,polygon_24.edges,polygon_25.pos,polygon_25.edges,polygon_26.pos,polygon_26.edges,polygon_27.pos,polygon_27.edges,polygon_28.pos,polygon_28.edges,polygon_29.pos,polygon_29.edges,polygon_30.pos,polygon_30.edges,polygon_31.pos,polygon_31.edges,polygon_32.pos,polygon_32.edges,dot_size,ITI.stopped,trials.thisRepN,trials.thisTrialN,trials.thisN,trials.thisIndex,trials.ran,break_2.started,break_2.stopped,trials_3.thisRepN,trials_3.thisTrialN,trials_3.thisN,trials_3.thisIndex,trials_3.ran
subject chose dot,subject chose diamond,0.0003,20.7109,space,5.6914,,615d8873c11a1982c8838b54,6842bbb5d7318522582b5f74,2025-06-06_13h00.40.339,shape_ratio,2024.1.5,Win32,60.60606061,6842b561977af9ba9b0f87ca,,,,,,,,,,,,,,,,,,,,,,,,,,,,,,,,,,,,,,,,,,,,,,,,,,,,,,,,,,,,,,,,,,,,,,,,,,,,,,,,,,,,,,,,,,,,,,,,,,,,,,,,,,,,,,,,,
,,,,,,,615d8873c11a1982c8838b54,6842bbb5d7318522582b5f74,2025-06-06_13h00.40.339,shape_ratio,2024.1.5,Win32,60.60606061,6842b561977af9ba9b0f87ca,20.7114,68.0306,space,17.3017,,,,,,,,,,,,,,,,,,,,,,,,,,,,,,,,,,,,,,,,,,,,,,,,,,,,,,,,,,,,,,,,,,,,,,,,,,,,,,,,,,,,,,,,,,,,,,,,,,,,,,,,,,,,,
,,,,,,,615d8873c11a1982c8838b54,6842bbb5d7318522582b5f74,2025-06-06_13h00.40.339,shape_ratio,2024.1.5,Win32,60.60606061,6842b561977af9ba9b0f87ca,,,,,,68.0308,81.5446,space,10.496,,,,,,,,,,,,,,,,,,,,,,,,,,,,,,,,,,,,,,,,,,,,,,,,,,,,,,,,,,,,,,,,,,,,,,,,,,,,,,,,,,,,,,,,,,,,,,,,,,,,,,,,
,,,,,,,615d8873c11a1982c8838b54,6842bbb5d7318522582b5f74,2025-06-06_13h00.40.339,shape_ratio,2024.1.5,Win32,60.60606061,6842b561977af9ba9b0f87ca,,,,,,,,,,,81.5744,82.061,82.0614,82.3145,82.3147,82.7448,right,0.3908,,82.745,83.8444,0.0,0.0,0.0,0.0,1.0,0.2,,,,,,,,,,,,,,,,,,,,,,,,,,,,,,,,,,,,,,,,,,,,,,,,,,,,,,,,,,,,,,,,,,,,,,,,,,,,,,,,,,,,,,
,,,,,,,615d8873c11a1982c8838b54,6842bbb5d7318522582b5f74,2025-06-06_13h00.40.339,shape_ratio,2024.1.5,Win32,60.60606061,6842b561977af9ba9b0f87ca,,,,,,,,,,,83.8452,84.3442,84.3443,84.595,84.595,85.1784,right,0.5799,,85.1786,86.2776,0.0,1.0,1.0,1.0,1.0,0.8,,,,,,,,,,,,,,,,,,,,,,,,,,,,,,,,,,,,,,,,,,,,,,,,,,,,,,,,,,,,,,,,,,,,,,,,,,,,,,,,,,,,,,
,,,,,,,615d8873c11a1982c8838b54,6842bbb5d7318522582b5f74,2025-06-06_13h00.40.339,shape_ratio,2024.1.5,Win32,60.60606061,6842b561977af9ba9b0f87ca,,,,,,,,,,,,,,,,,,,,,,,,,,,,86.2782,95.0948,space,5.7979,,,,,,,,,,,,,,,,,,,,,,,,,,,,,,,,,,,,,,,,,,,,,,,,,,,,,,,,,,,,,,,,,,,,,,,,,,,,,,,,,,
,,,,,,,615d8873c11a1982c8838b54,6842bbb5d7318522582b5f74,2025-06-06_13h00.40.339,shape_ratio,2024.1.5,Win32,60.60606061,6842b561977af9ba9b0f87ca,,,,,,,,,,,95.1205,95.611,,,95.862,96.3444,left,0.4694,,,,,,,,,0.1,,,,,,95.6115,95.8619,96.3449,"[0.012336483708046306,0.08119533608427353]",4.0,"[0.09334431442733761,-0.11104263417920655]",4.0,"[0.009096578541318175,-0.1650052620930007]",4.0,"[-0.10019908843409081,-0.0761832470704931]",4.0,"[0.09999660887358171,0.09423258266226293]",4.0,"[0.11002896971173813,-0.0052763704948761946]",4.0,"[-0.1270688393979494,0.13224763820470267]",4.0,"[-0.09901247872009863,-0.013653525549582369]",4.0,"[-0.054553856157175264,-0.03434779654275131]",4.0,"[-0.16088747547080356,-0.057093524105614]",4.0,"[-0.12439691873037818,0.061911234152301986]",4.0,"[0.046129153763802694,-0.07087693207534371]",4.0,"[0.10127178885360248,0.14259822890910734]",4.0,"[0.054256865381315425,0.19235863535552825]",100.0,"[-0.05497942246020591,-0.15280126371260805]",4.0,"[0.14346478521606593,0.08504217635982794]",4.0,"[-0.02465463328642605,-0.001340512100010456]",4.0,"[0.0566158543163526,0.15124008887681448]",4.0,"[0.09815320497915145,0.04111219413268131]",4.0,"[-0.046807294691637,0.17800119590351046]",4.0,"[-0.025853801968239,0.06310348543889312]",4.0,"[0.11918901711713102,-0.04713300130831171]",4.0,"[0.027894292665080398,-0.11286061419629585]",4.0,"[-0.17424588322716214,0.008645639502541106]",4.0,"[-0.14906793354587627,-0.11919793735224493]",4.0,"[-0.16250520820221429,0.09387328690715101]",4.0,"[0.012706033542434629,0.03536486938327328]",100.0,"[-0.059357962649216445,0.11537441056749011]",100.0,"[-0.0004238355086784685,0.14213278384872838]",4.0,"[0.14215390303190595,-0.11442418693081509]",4.0,"[-0.0021315209453997993,0.19567733526243952]",4.0,"[-0.07115928924149077,0.02358198290896236]",4.0,"[0.02,0.02]",97.4445,0.0,0.0,0.0,194.0,1.0,,,,,,,
,,,,,,,615d8873c11a1982c8838b54,6842bbb5d7318522582b5f74,2025-06-06_13h00.40.339,shape_ratio,2024.1.5,Win32,60.60606061,6842b561977af9ba9b0f87ca,,,,,,,,,,,97.445,97.9444,,,98.1948,98.6111,right,0.4032,,,,,,,,,0.1,,,,,,97.9445,98.1948,98.6112,"[0.018415095880341535,0.15844523788158]",4.0,"[0.12437713193913874,-0.10532877503720366]",4.0,"[-0.1311907257953435,-0.10726378452412097]",4.0,"[0.028862849168564925,-0.09849629510367225]",4.0,"[0.06961626980412021,-0.011536905711376555]",4.0,"[-0.18331157991266203,-0.068723979920904]",4.0,"[0.1936392029278477,-0.027172653695886544]",4.0,"[-0.013739631618530194,0.040158365675044265]",100.0,"[-0.061847397759707656,-0.12435054866950612]",4.0,"[-0.037335563594751604,-0.17316049340910158]",4.0,"[0.1429034086552416,0.09915311866411956]",4.0,"[0.02937639412077718,-0.19124237905267055]",4.0,"[0.017398481950954958,-0.002724646058075405]",4.0,"[-0.10002533651235614,-0.07490206595646505]",100.0,"[0.0937389751601158,0.055955335360292416]",4.0,"[-0.003168478091943317,-0.06315178108058471]",4.0,"[-0.03245672159891296,0.16984547243233544]",4.0,"[0.023042755032847907,-0.13998823029743984]",4.0,"[-0.17727233601284006,-0.019748727821697266]",4.0,"[-0.06781566186603334,-0.011749768454242712]",4.0,"[-0.04213702896658067,0.09271205209407232]",4.0,"[0.16025356280575295,-0.004410128899167026]",4.0,"[-0.07956078240519643,0.12658802201227815]",4.0,"[0.15316111600340507,-0.06917670536501484]",4.0,"[0.05996794904581071,0.031268357091193306]",4.0,"[-0.15159293139018404,0.11849248673440478]",4.0,"[0.11891031874352645,0.023949032966910262]",4.0,"[0.07200751420432547,-0.09313832973298895]",100.0,"[0.1188188357503302,-0.15512849327766356]",4.0,"[0.06215682833539562,0.094030363874575]",4.0,"[0.04357956518890037,-0.04769860032438179]",4.0,"[-0.09584518972026362,0.0635285589186345]",4.0,"[0.02,0.02]",99.711,0.0,1.0,1.0,190.0,1.0,,,,,,,
,,,,,,,615d8873c11a1982c8838b54,6842bbb5d7318522582b5f74,2025-06-06_13h00.40.339,shape_ratio,2024.1.5,Win32,60.60606061,6842b561977af9ba9b0f87ca,,,,,,,,,,,99.7115,100.211,,,100.4613,100.8112,right,0.3367,,,,,,,,,0.9,,,,,,100.2111,100.4613,100.8113,"[-0.08190829510714424,0.15014619751764705]",100.0,"[0.10236891367332546,0.11566126810594202]",4.0,"[-0.04269264285899654,0.03569932284938348]",100.0,"[0.03434365463513466,-0.044157588505235164]",100.0,"[-0.0887019401247771,-0.09529071678935862]",100.0,"[0.1330232575955291,-0.00487697034125135]",100.0,"[0.17660046227005424,-0.01493376671262767]",100.0,"[0.08594901019265513,-0.15729599746870201]",100.0,"[-0.10966020573445583,-0.03800386687050052]",100.0,"[-0.027526657532894728,-0.191390982009685]",100.0,"[-0.1301711130575035,0.11844239885420169]",100.0,"[-0.13769865819055171,0.06641125486802706]",4.0,"[0.0021955637758633985,0.031147602964289308]",100.0,"[0.032434529041168225,-0.1435844663686279]",100.0,"[0.05095822951225802,0.1382264056836013]",100.0,"[-0.08103005722760373,0.05591801839853289]",100.0,"[0.12558678097033502,-0.08607088952930189]",100.0,"[0.05997692157714478,-0.08240836764464021]",100.0,"[0.05199878412575938,0.08250442695079753]",100.0,"[0.01867861444867264,0.16384155530927483]",100.0,"[0.09568922376747617,-0.05201044968127837]",100.0,"[-0.030191751650843212,0.18322470470493216]",100.0,"[-0.18892061619505945,-0.05203820151874724]",100.0,"[-0.034834075190337634,0.12640932888936499]",100.0,"[0.06638257171154727,-0.12226264174873486]",4.0,"[-0.1976682544220848,0.019943774706204717]",100.0,"[0.058177126200437454,0.022432009247425014]",100.0,"[-0.14632231700266415,-0.10962453340858677]",100.0,"[-0.07602916246326755,-0.004467769513189292]",100.0,"[-0.09808182801085424,-0.14006317701994525]",100.0,"[0.12538804145422203,-0.14286796723735745]",100.0,"[-0.013544412910093246,-0.12035024184979666]",100.0,"[0.02,0.02]",101.9116,0.0,2.0,2.0,27.0,1.0,,,,,,,
,,,,,,,615d8873c11a1982c8838b54,6842bbb5d7318522582b5f74,2025-06-06_13h00.40.339,shape_ratio,2024.1.5,Win32,60.60606061,6842b561977af9ba9b0f87ca,,,,,,,,,,,101.912,102.4113,,,102.6616,103.0779,left,0.4027,,,,,,,,,0.4,,,,,,102.4113,102.6615,103.078,"[0.07257848064595812,0.09080681222228429]",100.0,"[-0.03229979319577919,0.13219482467947147]",100.0,"[-0.020788366369202088,-0.1665656076159552]",100.0,"[0.10294347248730672,-0.12174520200660063]",4.0,"[0.10302168335585246,-0.0024186793669271527]",100.0,"[0.08636751269428242,0.1377544231393557]",100.0,"[0.006783687534441192,0.16330626674688936]",4.0,"[0.05238438899002569,-0.12788493629475467]",100.0,"[0.04771893317399698,-0.1772414344175773]",4.0,"[-0.13083647051054023,0.013923350463515467]",4.0,"[-0.10524631096077006,-0.14712588015565892]",4.0,"[-0.16864194545766023,0.0415059700733536]",100.0,"[-0.11751566730143517,0.13853733857321057]",4.0,"[0.13365049275879884,0.13275944744250065]",4.0,"[0.030804210447691993,-0.0015294758989238793]",4.0,"[-0.10630564795765839,-0.019015545270799745]",4.0,"[-0.14647831900948954,0.10980920661722063]",100.0,"[-0.10891743754392376,0.05530059632258409]",100.0,"[0.15668925603469083,-0.08159997558165787]",100.0,"[-0.12001035408928667,-0.07654385899830482]",100.0,"[0.02443539237949248,0.064053608250319]",4.0,"[0.04430826209582049,-0.05285191432855804]",100.0,"[-0.014883899750441333,-0.04999350194277437]",4.0,"[0.008778916528900496,0.12066692242500492]",4.0,"[-0.0779697670614179,-0.08025602526345561]",4.0,"[-0.015478967939320385,0.0028439444216703316]",4.0,"[0.12195958500909475,-0.15740348556892886]",100.0,"[-0.1521495220477214,-0.12747882900635224]",4.0,"[-0.16427731039151813,-0.032034074894324194]",4.0,"[0.0818912919605117,0.18106787687800469]",4.0,"[-0.05374923296311373,0.1858509321356896]",4.0,"[-0.02598991198382365,-0.12548650137854522]",4.0,"[0.02,0.02]",104.1777,0.0,3.0,3.0,157.0,1.0,,,,,,,
,,,,,,,615d8873c11a1982c8838b54,6842bbb5d7318522582b5f74,2025-06-06_13h00.40.339,shape_ratio,2024.1.5,Win32,60.60606061,6842b561977af9ba9b0f87ca,,,,,,,,,,,104.1781,104.6778,,,104.9284,105.229,right,0.2965,,,,,,,,,0.4,,,,,,104.6779,104.9284,105.229,"[0.08661881508809854,-0.1529306692128976]",4.0,"[0.12947104727242684,-0.09706564102090279]",4.0,"[0.14067499357827187,0.02571249261007627]",4.0,"[-0.13472013845672184,0.008420445422899566]",100.0,"[-0.044732674334365445,-0.19185828915434644]",4.0,"[0.017609090058340313,-0.17279323562491622]",100.0,"[0.11137030898323427,0.13719164574626652]",4.0,"[-0.07432089132547844,-0.06587180301494233]",4.0,"[-0.07597703988379301,-0.020975338124274982]",100.0,"[0.17681754716501,0.09325516639076079]",4.0,"[-0.03712850953837827,0.1395235684746842]",100.0,"[0.01386115650381562,0.061496029863153015]",4.0,"[-0.17258311594711498,0.057394019363837416]",4.0,"[-0.0611162853360779,0.07148483988501235]",100.0,"[0.005269284213631285,-0.02571746248052124]",4.0,"[0.1661525639142438,-0.033426694876252744]",4.0,"[0.06986410327928137,-0.09923690776930971]",100.0,"[0.10515037078880046,0.09721768816302663]",100.0,"[0.05576775816439568,-0.0041207758403456534]",4.0,"[-0.04073252390241973,-0.10953588773116753]",4.0,"[0.07855231716259099,-0.042017278328084745]",100.0,"[0.0389660673457614,-0.04854663786000799]",4.0,"[-0.14152033810972148,-0.07803884118719587]",100.0,"[0.06562717669078433,0.05921106665804205]",100.0,"[0.10942677496976223,0.05168655090627336]",4.0,"[-0.19668445206095456,0.019775145009053148]",4.0,"[-0.1265203070196419,0.05701644535901654]",4.0,"[0.04675121436995204,0.15480651345482901]",4.0,"[-0.04809516831869792,0.016219157064829598]",100.0,"[-0.11284874002333212,-0.04888141466235209]",100.0,"[-0.11495426716992004,0.12096497259232472]",100.0,"[-0.03265279021928999,-0.04416246439221688]",4.0,"[0.02,0.02]",106.3277,0.0,4.0,4.0,175.0,1.0,,,,,,,
,,,,,,,615d8873c11a1982c8838b54,6842bbb5d7318522582b5f74,2025-06-06_13h00.40.339,shape_ratio,2024.1.5,Win32,60.60606061,6842b561977af9ba9b0f87ca,,,,,,,,,,,106.3282,106.8278,,,107.0787,107.3282,right,0.2348,,,,,,,,,0.45,,,,,,106.8279,107.0787,107.3282,"[0.07881920800764063,0.12757721289004523]",100.0,"[-0.09051945273434678,0.08138286519949761]",4.0,"[-0.11075844175729663,-0.03036829620590305]",100.0,"[0.09416017008434893,-0.171389199624864]",100.0,"[0.10609401797571918,-0.126229433577154]",4.0,"[0.05868923014993609,0.036459221612889996]",4.0,"[0.18596208070649853,-0.021568746893648648]",4.0,"[0.04226888335272774,-0.07652573701543995]",4.0,"[-0.17749389357401293,-0.09059732452853331]",100.0,"[-0.13352967958510695,0.0962966133840912]",100.0,"[0.03112863746040744,0.10608420410323391]",100.0,"[0.13414007357908306,0.12011567524260974]",100.0,"[0.18117506574497402,0.06743811761978913]",100.0,"[0.006007040927664985,-0.18314190300532762]",4.0,"[-0.014193500309941806,0.13935802549788556]",4.0,"[0.15084292950981004,0.0367244694769956]",4.0,"[-0.05929760195684675,0.13975781817834962]",4.0,"[-0.04855125576754836,-0.0607858519571472]",100.0,"[-0.08032512921752524,0.1820474292120344]",4.0,"[0.0052340347000487675,0.07193258391088939]",4.0,"[-0.17752325986377568,0.044641591489450023]",4.0,"[-0.10599042517543432,-0.10777416666471219]",4.0,"[0.00217226315685262,-0.08705382988293238]",4.0,"[-0.12314428885978007,0.022574385110472973]",4.0,"[0.10960986107488076,-0.030445016033256934]",4.0,"[0.1566187119423882,-0.09498118423986354]",100.0,"[-0.07016179962853236,-0.17458794823233714]",100.0,"[-0.06534078606128457,-0.10220800129519997]",4.0,"[0.03998734441054149,0.17005444830852376]",4.0,"[0.07146543272809833,-0.015928468701872856]",100.0,"[0.04516128418485362,-0.15793560641430807]",100.0,"[0.08398946293100217,0.0683343038030056]",100.0,"[0.02,0.02]",108.4277,0.0,5.0,5.0,147.0,1.0,,,,,,,
,,,,,,,615d8873c11a1982c8838b54,6842bbb5d7318522582b5f74,2025-06-06_13h00.40.339,shape_ratio,2024.1.5,Win32,60.60606061,6842b561977af9ba9b0f87ca,,,,,,,,,,,108.4282,108.9277,,,109.1784,109.6448,right,0.4521,,,,,,,,,0.5,,,,,,108.9277,109.1783,109.6448,"[0.1802553223333676,0.017266945959208833]",100.0,"[0.16236664501967243,0.06608209792405052]",4.0,"[-0.046179826416429745,-0.09471306755390807]",100.0,"[0.06453962463682182,-0.05742481478169439]",100.0,"[-0.024153178977143624,0.05808712475081807]",4.0,"[0.08466291742835509,0.10660880873800097]",4.0,"[0.11295146159361244,-0.09996760296535977]",100.0,"[0.032847495530429725,0.11468469627202334]",4.0,"[-0.016360680593243856,0.12301476176145833]",4.0,"[0.01669638775740248,0.16559860329393414]",100.0,"[-0.13571059261136686,0.11250904735151947]",4.0,"[-0.11946346790015291,-0.02943311967842058]",4.0,"[-0.1644572097108914,-0.05191559750373089]",4.0,"[-0.08208567224324581,-0.18095916326484812]",4.0,"[-0.09108682754610133,-0.08570603178774297]",4.0,"[0.016728987011880646,-0.07337596923049461]",100.0,"[0.03505060028337729,-0.13822407804879822]",4.0,"[-0.1560598646210207,0.05965314987453411]",4.0,"[0.11853493339063585,0.014674260678443758]",4.0,"[0.021462541698267494,0.05845238154652206]",100.0,"[-0.1639172210479977,-0.001517816592516712]",100.0,"[0.05629883515943293,-0.1742410630625654]",100.0,"[0.06230401813575564,0.033643339238268406]",100.0,"[0.06174779539772017,-0.10683442591829412]",100.0,"[0.08711978637059428,0.157197851050409]",4.0,"[0.1483550111886301,0.11476230520294631]",100.0,"[-0.05691218087188387,-0.019221456497867065]",100.0,"[-0.06608675368459911,0.14861676024548764]",4.0,"[-0.1079002002781612,0.07849385339217838]",4.0,"[-0.022908672364961156,-0.1657567246180005]",100.0,"[0.12751212605677878,-0.05531639757555611]",100.0,"[-0.11296628795901682,-0.14272270479053584]",100.0,"[0.02,0.02]",110.7445,0.0,6.0,6.0,94.0,1.0,,,,,,,
,,,,,,,615d8873c11a1982c8838b54,6842bbb5d7318522582b5f74,2025-06-06_13h00.40.339,shape_ratio,2024.1.5,Win32,60.60606061,6842b561977af9ba9b0f87ca,,,,,,,,,,,110.7451,111.2446,,,111.4953,111.9307,right,0.4322,,,,,,,,,0.55,,,,,,111.2447,111.4953,111.9307,"[0.01735796008243931,-0.1626634505700975]",100.0,"[0.07112871933887528,0.03531075502166544]",100.0,"[-0.11069185959215022,0.050523757658778666]",100.0,"[0.025397290704085595,0.07815643016576722]",100.0,"[-0.17239273444281666,-0.0019213309941268938]",100.0,"[0.07305960798794679,-0.12334787699108155]",4.0,"[-0.0005843292407406155,0.15712392525837873]",4.0,"[-0.11178212586173074,-0.14368306992441626]",100.0,"[-0.011609340097145883,0.04978480008157614]",4.0,"[-0.10433322565658305,-0.05464521932999829]",4.0,"[-0.011946891154009093,-0.023981275091283373]",100.0,"[-0.052912630615921864,-0.1754448099283342]",100.0,"[0.035252505358159214,-0.057010083111924945]",100.0,"[0.16801206735733906,0.03841244650175444]",4.0,"[-0.15209195048134844,-0.12498905892642126]",4.0,"[0.06332166542838968,0.15941922255929653]",100.0,"[-0.080138568138782,0.17656276471589857]",4.0,"[-0.004276547231858007,0.11460340534869126]",100.0,"[0.02877026590125928,0.18846722447859926]",100.0,"[-0.17227417709257253,0.06865291354545298]",100.0,"[0.08858174108018715,0.08036805286262837]",4.0,"[-0.07473270348500452,0.08898781054155408]",100.0,"[0.13623589190799815,-0.10024143404991015]",100.0,"[0.08671950937377891,0.1242923710429459]",100.0,"[0.14070162827567906,-0.043745253688073235]",4.0,"[-0.043686555371517874,-0.0730815526951843]",100.0,"[-0.09293676337729186,0.13290402554206107]",4.0,"[0.026099989686565035,0.0359171558262441]",4.0,"[0.12155105363638849,0.015422723627333745]",4.0,"[-0.1439382728610208,0.1225405714073986]",4.0,"[0.14918772121053692,0.10046991106607857]",4.0,"[0.07968385866629153,-0.1702839993150678]",100.0,"[0.02,0.02]",113.0277,0.0,7.0,7.0,84.0,1.0,,,,,,,
,,,,,,,615d8873c11a1982c8838b54,6842bbb5d7318522582b5f74,2025-06-06_13h00.40.339,shape_ratio,2024.1.5,Win32,60.60606061,6842b561977af9ba9b0f87ca,,,,,,,,,,,113.0281,113.5277,,,113.7783,114.2282,right,0.4361,,,,,,,,,0.9,,,,,,113.5277,113.7782,114.2283,"[0.1495162877420692,0.10589302326368372]",4.0,"[0.13147192541334282,-0.030269763925909295]",100.0,"[0.021351851468026557,-0.11951631691449444]",100.0,"[-0.14301079654161708,0.11909718323505775]",100.0,"[0.17157260710351827,0.004175972342986765]",100.0,"[-0.07485573791005475,0.03716787728197766]",100.0,"[-0.048743594470770334,-0.18196512515139468]",100.0,"[0.10226489801334285,0.018895421389058625]",100.0,"[-0.11179792868862216,-0.001552677031494267]",100.0,"[0.11307156121433816,0.13173561924559807]",100.0,"[-0.07218469672806961,0.14535815260950247]",100.0,"[0.015862116255241976,0.16972879966222504]",100.0,"[-0.010473638055830011,0.09708545525368581]",100.0,"[-0.17982463564506154,0.05561500906129914]",100.0,"[0.10673616103234697,-0.1659339230039713]",100.0,"[0.019444202187548592,0.03567175171417977]",100.0,"[-0.0018286555133205627,-0.19638208791252174]",100.0,"[-0.08543232129131874,0.09720036852333656]",4.0,"[-0.03365244360899561,-0.030347918232269858]",100.0,"[0.0916817322168061,-0.04818568195337138]",100.0,"[0.09142773994906973,0.07065758687985571]",100.0,"[-0.09041599547983573,-0.15442168703417367]",100.0,"[0.05381582005544387,0.11977835610380355]",100.0,"[0.06346242346187922,0.18785130151402124]",100.0,"[0.07978843482912726,-0.12373594286219156]",100.0,"[0.1412481633941454,0.06002898424350176]",100.0,"[-0.011067008413352024,-0.09100079814848094]",4.0,"[0.027746345133664377,-0.16907604136844304]",100.0,"[-0.1179254203179037,-0.10679692473393813]",100.0,"[-0.05751703587261719,-0.09747964947808625]",100.0,"[0.0390127110931504,-0.07080088373862539]",100.0,"[-0.02842676130847896,0.06002810069222325]",100.0,"[0.02,0.02]",115.3278,0.0,8.0,8.0,3.0,1.0,,,,,,,
,,,,,,,615d8873c11a1982c8838b54,6842bbb5d7318522582b5f74,2025-06-06_13h00.40.339,shape_ratio,2024.1.5,Win32,60.60606061,6842b561977af9ba9b0f87ca,,,,,,,,,,,115.3284,115.8279,,,116.0784,116.5113,left,0.4251,,,,,,,,,0.4,,,,,,115.828,116.0784,116.5114,"[-0.03096035037575579,0.056197669471349965]",4.0,"[-0.11426126373757894,0.04526331815513725]",100.0,"[0.06658157173374939,-0.01869580505341279]",4.0,"[-0.18216505533880434,-0.04024311390527922]",100.0,"[0.1324431027059639,-0.07829347787328705]",4.0,"[-0.057812293897201876,-0.05015755350691537]",100.0,"[-0.009759382192024128,0.17892161500557363]",100.0,"[0.050535106198724665,0.021826718219424005]",4.0,"[-0.1610656686676041,0.09492763071108329]",100.0,"[0.0723579201667015,0.13656780322416698]",100.0,"[0.15614206352285948,-0.037181092333516096]",100.0,"[-0.01807765418362656,0.11998912981602917]",4.0,"[0.13540387504083407,0.1375678255165788]",4.0,"[0.01147695122631438,-0.1652261301344839]",100.0,"[-0.025702235071938948,-0.14098623789330855]",4.0,"[-0.18847438448778953,0.01639013665864658]",100.0,"[-0.15968197160782263,-0.08805579873963712]",4.0,"[0.106062966217771,0.0671531761230822]",100.0,"[-0.07558995473961205,-0.14471590355094535]",4.0,"[0.17591694728141447,-0.0007528717230057788]",4.0,"[0.030020057706488485,0.07295015064979413]",4.0,"[-0.09940417436872379,0.17056212852802918]",100.0,"[-0.0191238308426064,-0.09888963986996836]",4.0,"[-0.07577195192808708,0.12290687531461832]",4.0,"[-0.08591179581607275,-0.005103986269568677]",4.0,"[0.03903755700596691,-0.10383078193724432]",100.0,"[-0.11869448601067052,0.09574600784591542]",4.0,"[0.18434547522201739,-0.07574966355172355]",4.0,"[0.09389080679848887,-0.05624861623319233]",4.0,"[0.08332375346990788,-0.16168877106229593]",100.0,"[0.12795316962715775,-0.14657513680721163]",4.0,"[0.06606200020874467,0.18680765497260127]",4.0,"[0.02,0.02]",117.6113,0.0,9.0,9.0,151.0,1.0,,,,,,,
,,,,,,,615d8873c11a1982c8838b54,6842bbb5d7318522582b5f74,2025-06-06_13h00.40.339,shape_ratio,2024.1.5,Win32,60.60606061,6842b561977af9ba9b0f87ca,,,,,,,,,,,117.6117,118.1111,,,118.3619,118.8784,left,0.5032,,,,,,,,,0.5,,,,,,118.1112,118.3619,118.8785,"[-0.061061035289267464,-0.04094914969173612]",100.0,"[-0.042637382624470886,0.08088807608246902]",100.0,"[0.11155792154419067,-0.10404322865319394]",4.0,"[0.04583173059662219,-0.15233074878533015]",4.0,"[0.11263124839163,0.11467029413249141]",100.0,"[-0.11090271875028905,-0.032871880673003576]",4.0,"[-0.07755156886839007,0.15959452039385796]",100.0,"[-0.0038571545010798024,0.09230472702163121]",4.0,"[0.14218757558514994,-0.07637547006645665]",4.0,"[0.07863010560147188,0.04469615012062986]",4.0,"[-0.1777016425475888,-0.06457923648423423]",100.0,"[0.0375321296414839,-0.0724817186960176]",100.0,"[-0.1371830014271394,0.07499021329515435]",4.0,"[0.018188071497307317,-0.015324086058098027]",4.0,"[-0.020955677662302746,0.018948242657688578]",100.0,"[0.1469519176613774,0.051126256653271154]",4.0,"[-0.04057021743598461,-0.16226026505185517]",100.0,"[-0.11350011715452321,-0.1599147220252361]",100.0,"[0.03397180626477116,0.14643929874626838]",4.0,"[-0.023654282928661206,0.13050348992130928]",4.0,"[-0.03870101838378934,0.1792882780737353]",100.0,"[-0.03804744714468201,-0.08900241327400497]",100.0,"[0.05544356601027495,0.0904045213215394]",100.0,"[0.10699445594591418,-0.0377513794532192]",4.0,"[-0.13207459039431868,0.015707632054622802]",100.0,"[0.1970823879810812,0.014607555675305816]",4.0,"[-0.08588902958397066,0.07961348749324042]",4.0,"[0.18660285363570686,-0.060987604502292146]",100.0,"[0.11396376183834392,-0.14718276226618127]",100.0,"[0.003668337710403007,0.17808258103911717]",100.0,"[-0.11545537579143172,0.11150260205697467]",4.0,"[0.15755479160917557,0.10155458751078186]",4.0,"[0.02,0.02]",119.978,0.0,10.0,10.0,96.0,1.0,,,,,,,
,,,,,,,615d8873c11a1982c8838b54,6842bbb5d7318522582b5f74,2025-06-06_13h00.40.339,shape_ratio,2024.1.5,Win32,60.60606061,6842b561977af9ba9b0f87ca,,,,,,,,,,,119.9785,120.4778,,,120.7283,121.2788,left,0.5396,,,,,,,,,0.55,,,,,,120.4779,120.7283,121.2788,"[0.11667050973914714,-0.1515566448300226]",4.0,"[-0.15426695378671357,-0.08206377150669618]",100.0,"[0.14805980868651855,-0.11083402258918702]",100.0,"[-0.03579775671930222,0.0608702625113479]",100.0,"[0.0605590505693858,0.01448313413918899]",100.0,"[-0.1075218335229871,0.14935933562539777]",4.0,"[0.06594556637180067,-0.10480410126327735]",4.0,"[0.06593532427841683,0.158779920176388]",100.0,"[0.005837724954874092,-0.016743088544649468]",4.0,"[-0.1915958732521959,0.04906702947324182]",100.0,"[0.13587811993482404,0.09400716536385469]",4.0,"[-0.12419909320249045,-0.1529594673617362]",4.0,"[0.11371680301704928,0.15287690952159141]",4.0,"[0.11441963950105037,0.044329667229046237]",100.0,"[-0.1137326919237425,-0.028152355025395318]",4.0,"[0.016013634261138127,0.13830829946789386]",100.0,"[0.053640666140869014,-0.18308213033451057]",100.0,"[-0.1444099829295148,0.0628091437650766]",4.0,"[-0.07790218893469639,-0.058118329418892146]",100.0,"[0.04132843865903901,0.07339413359614533]",4.0,"[-0.04564461347622526,-0.17359974062767264]",4.0,"[0.030409254463212975,0.18356165369676605]",100.0,"[-0.020704126858416258,0.19034982383440488]",100.0,"[-0.04183531083506348,-0.03195194847272268]",100.0,"[0.008305038501867387,-0.16227431124512112]",100.0,"[-0.17316510506198216,0.012813743798439222]",4.0,"[-0.0891533380781295,0.0948864725332135]",4.0,"[0.08088250879496103,0.09206633055194209]",100.0,"[-0.08561673903738176,0.0185896137117536]",100.0,"[-0.16808392069677053,0.10115602594200152]",4.0,"[-0.04983748324587639,0.13817511752266315]",100.0,"[0.19496550671471785,0.010211493515397407]",100.0,"[0.02,0.02]",122.378,0.0,11.0,11.0,69.0,1.0,,,,,,,
,,,,,,,615d8873c11a1982c8838b54,6842bbb5d7318522582b5f74,2025-06-06_13h00.40.339,shape_ratio,2024.1.5,Win32,60.60606061,6842b561977af9ba9b0f87ca,,,,,,,,,,,122.3784,122.878,,,123.1285,123.6129,left,0.4807,,,,,,,,,0.55,,,,,,122.8781,123.1284,123.6129,"[-0.19627944351742158,-0.02584619562771068]",100.0,"[-0.11280704887633172,-0.04981291890327395]",4.0,"[0.07829323662213893,-0.14830000355336467]",100.0,"[-0.11947157787724634,-0.11352207702151296]",100.0,"[0.08569295780061528,-0.013492465664263681]",100.0,"[0.1200993552531992,-0.14648534356374274]",4.0,"[0.004609793059294479,-0.1642967816172029]",4.0,"[-0.052868188320009196,0.1919028066570903]",100.0,"[0.18247514256002634,-0.030424675197414642]",4.0,"[-0.017517517107142676,0.05046963751142111]",100.0,"[-0.08705741113858391,-0.14467597613388714]",4.0,"[-0.17190565350035714,-0.06241914446311127]",4.0,"[-0.04342026651298842,-0.06895140819033635]",100.0,"[0.027353604409572695,0.087597157469477]",100.0,"[0.11913843153735917,-0.10370094333422113]",4.0,"[0.019776621812641906,0.024304418732940467]",4.0,"[-0.06996142142567921,-0.022802147044982072]",4.0,"[-0.009435469356474801,-0.03725575883440321]",100.0,"[-0.15828181662368404,0.1141988782991232]",100.0,"[-0.09360317987395855,0.10386180849114918]",100.0,"[-0.1062731118392423,0.027139244906688443]",4.0,"[-0.00867412869168929,-0.11608451398122825]",4.0,"[-0.015144225545350791,0.10593387396921336]",100.0,"[0.09461502106503288,0.04250984800094071]",100.0,"[0.1423921496219021,0.13134901806794289]",100.0,"[-0.1503544607072613,0.015933148665467158]",100.0,"[0.13576019830022523,-0.042343805536864884]",100.0,"[-0.0728818435420072,0.05421077830077303]",4.0,"[0.05104727813020357,0.1347941006867844]",4.0,"[0.15898300675170207,-0.08608674539251795]",100.0,"[0.1021491159065144,0.14225751854993457]",4.0,"[0.042091843620188724,-0.09276648105569243]",100.0,"[0.02,0.02]",124.7112,0.0,12.0,12.0,78.0,1.0,,,,,,,
,,,,,,,615d8873c11a1982c8838b54,6842bbb5d7318522582b5f74,2025-06-06_13h00.40.339,shape_ratio,2024.1.5,Win32,60.60606061,6842b561977af9ba9b0f87ca,,,,,,,,,,,124.7116,125.2113,,,125.4619,125.8114,right,0.3361,,,,,,,,,0.5,,,,,,125.2114,125.4619,125.8114,"[-0.06540157223066569,-0.09881687478094725]",4.0,"[0.04403101060358015,-0.052481390505956675]",100.0,"[0.02362021068301824,0.04043450389141462]",100.0,"[-0.10026605612252283,-0.011788195146985961]",4.0,"[0.08796320824256534,-0.15661610491022548]",4.0,"[-0.1770545191866751,0.09195180758042758]",4.0,"[-0.1229004283352121,0.1465250599117906]",100.0,"[0.11356632698713269,0.08761304208510416]",4.0,"[-0.17679193289558887,0.0051603125073728315]",100.0,"[0.04929160219201347,-0.10197325895340296]",100.0,"[0.09017470890335726,0.02180154234305079]",4.0,"[-0.126758685332232,0.022575912150926535]",100.0,"[0.12794191211734834,-0.010107187873267857]",4.0,"[0.0014897915549248629,-0.19167327361143607]",4.0,"[0.001393107827382577,0.14096806238395374]",100.0,"[-0.09496103264797784,-0.1518206922870876]",4.0,"[-0.02670353638468401,0.004329434765746055]",4.0,"[-0.07668031130526771,0.049315101345480096]",4.0,"[0.06264119700745821,0.09989956211986674]",4.0,"[0.1747412036319251,0.09463904026119672]",4.0,"[0.002602179919979323,-0.05802087394293975]",100.0,"[-0.04960164087727575,0.125484339371163]",100.0,"[0.16660852389935912,-0.05898338582145318]",100.0,"[0.1469177374951387,-0.13260598001760823]",100.0,"[0.03832346928002093,0.17471772441729977]",100.0,"[-0.043961838971303964,0.179724347290011]",100.0,"[0.10890419472728635,0.16131754240170806]",4.0,"[0.09484934178087034,-0.09047578683565194]",100.0,"[-0.10401150441651268,-0.06266298084242383]",100.0,"[-0.11772883167103428,0.10049712595315732]",4.0,"[-0.005955654563769531,0.08827209716807047]",100.0,"[-0.02042031392135997,-0.10212905054755]",4.0,"[0.02,0.02]",126.9112,0.0,13.0,13.0,98.0,1.0,,,,,,,
,,,,,,,615d8873c11a1982c8838b54,6842bbb5d7318522582b5f74,2025-06-06_13h00.40.339,shape_ratio,2024.1.5,Win32,60.60606061,6842b561977af9ba9b0f87ca,,,,,,,,,,,126.9117,127.4118,,,127.6616,128.195,left,0.5281,,,,,,,,,0.6,,,,,,127.4118,127.6616,128.195,"[-0.11558665836646884,-0.06553940983390394]",100.0,"[0.13265576743800794,0.0006452453950340907]",100.0,"[-0.02470767033710221,-0.10114225888125883]",100.0,"[0.09405833217446588,-0.07614350030559407]",100.0,"[-0.08079030610962153,0.1372965880857718]",4.0,"[0.004539287056920879,0.16767256852397888]",4.0,"[0.084856341623602,0.09569145711347612]",100.0,"[0.030485377754698124,-0.0019613556695167217]",4.0,"[0.19489683110904607,-0.01735656103690749]",100.0,"[0.14082350407522976,-0.11763544265497829]",100.0,"[-0.17307031033306378,-0.041339597902619936]",4.0,"[-0.1473455921872778,0.047470989632672475]",100.0,"[-0.034982130093109014,-0.05741871531300116]",4.0,"[-0.045715209905618635,-0.18821190257208897]",100.0,"[-0.06015493936933256,0.0002641390063648238]",4.0,"[-0.09137544685628257,-0.12466805609312877]",100.0,"[0.08109443422059705,0.16693263708733022]",100.0,"[0.1226629902457971,0.13751193588294008]",4.0,"[-0.1443431564152483,-0.11860251375190868]",100.0,"[-0.02488152191618805,0.10489045980097415]",4.0,"[0.06574608232347942,-0.14602760409380589]",100.0,"[-0.15278830962220763,0.005510176587112111]",100.0,"[0.08878131214257333,0.02448351466931316]",100.0,"[0.025914691967402613,0.13260908404637742]",100.0,"[0.009432554897306234,-0.07844999864189844]",4.0,"[0.005308343076576633,-0.16238366636450655]",100.0,"[-0.005772579197760551,-0.02277548991756726]",4.0,"[-0.026280242902164887,0.19627099559877806]",4.0,"[-0.10342216494934214,0.03598048078674949]",4.0,"[0.0016272480728432455,0.05142863357703829]",100.0,"[0.17949617308189617,-0.06520764814767355]",4.0,"[-0.13265687111814853,0.14491163470270302]",100.0,"[0.02,0.02]",129.2946,0.0,14.0,14.0,58.0,1.0,,,,,,,
,,,,,,,615d8873c11a1982c8838b54,6842bbb5d7318522582b5f74,2025-06-06_13h00.40.339,shape_ratio,2024.1.5,Win32,60.60606061,6842b561977af9ba9b0f87ca,,,,,,,,,,,129.2951,129.7947,,,130.0455,130.4613,right,0.4018,,,,,,,,,0.9,,,,,,129.7948,130.0455,130.4614,"[-0.1335748704200529,0.009005624430769063]",100.0,"[-0.06412970131206695,-0.1423539069964039]",100.0,"[-0.09031245247833596,-0.050746738512168744]",100.0,"[0.004200672481299222,0.032289258817540495]",100.0,"[0.10800186289097356,-0.0366346950736796]",100.0,"[0.0217012447616539,0.13169364832713717]",100.0,"[0.0913788396072462,0.032179340951674434]",100.0,"[-0.05975937073183675,-0.18288749022015105]",100.0,"[-0.1885241341307169,-0.0026598571501574354]",4.0,"[0.0905692478118717,-0.11699115777659443]",100.0,"[0.0649470219852475,-0.032232665157341335]",100.0,"[0.06455081103940563,0.08273345445470803]",100.0,"[0.15242255512750633,0.11971682064584206]",100.0,"[-0.14036823583301813,-0.10948648214329684]",100.0,"[-0.016476360855415855,0.07088752110756905]",100.0,"[0.13258433979289316,0.04065671097361219]",100.0,"[0.03129954514285733,-0.006502223618957426]",100.0,"[0.11054141807256468,0.144540195799508]",100.0,"[-0.05555025462380222,0.12333274422088047]",100.0,"[0.03959104382252812,-0.14808585118892306]",100.0,"[0.029338304030537856,-0.1889951131782535]",100.0,"[0.16614211863412026,-0.05717752809607262]",100.0,"[-0.11483365471398665,0.12215331820534014]",100.0,"[-0.02132717633295254,-0.006081129983833114]",4.0,"[0.023663007502213552,-0.06660985718621718]",100.0,"[-0.05515384865430384,0.03007283478917381]",100.0,"[0.18549907262714938,-0.005721349347319266]",100.0,"[-0.05746547616167241,0.18741770298557597]",4.0,"[-0.029885907079660132,-0.09466391438141149]",100.0,"[0.1328753609984737,-0.08967855327293861]",100.0,"[0.044202087204052644,0.04513297101873509]",100.0,"[0.029265075994549593,0.18320437451136012]",100.0,"[0.02,0.02]",131.5612,0.0,15.0,15.0,28.0,1.0,,,,,,,
,,,,,,,615d8873c11a1982c8838b54,6842bbb5d7318522582b5f74,2025-06-06_13h00.40.339,shape_ratio,2024.1.5,Win32,60.60606061,6842b561977af9ba9b0f87ca,,,,,,,,,,,131.5617,132.0613,,,132.3117,133.0453,left,0.7218,,,,,,,,,0.5,,,,,,132.0614,132.3117,133.0454,"[-0.07387714634188436,-0.036990920298677274]",4.0,"[-0.12239413366507847,-0.041207940225792196]",100.0,"[0.10873418293796183,0.119238596107031]",4.0,"[-0.16902007357552581,-0.043121812758688885]",100.0,"[0.03422098478015778,-0.005338552904025052]",4.0,"[-0.06064817918055361,-0.12088561354095134]",4.0,"[0.13030457366619835,-0.09133671059525848]",4.0,"[-0.0021243975877239707,-0.08115298938525438]",100.0,"[-0.06412291783634222,0.011481855234369344]",100.0,"[-0.05953917153815218,0.11572621578874508]",4.0,"[0.04709281410365518,0.07719751874120791]",4.0,"[0.12835901741615838,-0.043418928340661474]",100.0,"[0.07445971485902471,0.03200730038719583]",4.0,"[0.0569005802824489,-0.12788712541140315]",100.0,"[0.09904321630765132,0.06519007823339754]",4.0,"[-0.0248809972468161,-0.03476250561146945]",100.0,"[-0.11196662841843485,0.056443948649008466]",4.0,"[-0.14205647043391778,-0.001654501748938399]",4.0,"[0.18494835929318396,-0.028668192931600597]",100.0,"[-0.13310698523797038,-0.11203792154688776]",100.0,"[0.08405330322087554,-0.04540944058576052]",4.0,"[-0.062243517940923275,-0.17176055904273482]",4.0,"[0.1673161965797245,0.017971956434580296]",4.0,"[-0.06538440034756725,0.17344447193231596]",100.0,"[0.06939646936043087,-0.08822031916862742]",100.0,"[0.04522456332965609,0.16842079460793505]",100.0,"[-0.008488443192849264,0.1384425335981234]",100.0,"[0.11238166364299029,-0.15703687308621725]",100.0,"[-0.014233333528592747,-0.17813115276164382]",100.0,"[-0.12129749542099358,0.1233450255590846]",4.0,"[-0.18636796829155916,0.011008763233187278]",4.0,"[0.0054303000542384825,0.17841332821894101]",100.0,"[0.02,0.02]",134.1447,0.0,16.0,16.0,92.0,1.0,,,,,,,
,,,,,,,615d8873c11a1982c8838b54,6842bbb5d7318522582b5f74,2025-06-06_13h00.40.339,shape_ratio,2024.1.5,Win32,60.60606061,6842b561977af9ba9b0f87ca,,,,,,,,,,,134.1451,134.6448,,,134.895,135.3781,left,0.474,,,,,,,,,0.6,,,,,,134.6448,134.895,135.3782,"[-0.04624654295153659,0.16382094956323165]",100.0,"[-0.03494085459042248,-0.07992581403717557]",4.0,"[-0.06289556181598771,0.01160434979636995]",4.0,"[-0.11477889305932872,-0.15506702078828505]",100.0,"[0.10807237128025242,0.058587638102746364]",100.0,"[0.14321846210959785,0.03733527549766463]",4.0,"[-0.02978627720395919,-0.1589988626980206]",4.0,"[0.1662291122915542,-0.02662503772485411]",100.0,"[-0.07653159572035098,-0.139335418432746]",4.0,"[-0.02911481570905855,0.10480887251122747]",4.0,"[0.0005550711669459299,0.19402280889753218]",100.0,"[0.13977213774729613,0.08803812964428713]",100.0,"[0.05757287871440658,-0.16168599396018454]",100.0,"[0.18324363862482226,0.048806154289037076]",4.0,"[0.07359984486028652,0.030446417472415166]",100.0,"[-0.12727582555251032,0.0006668403249524851]",4.0,"[0.011167315912800188,-0.14204431787982297]",100.0,"[0.01671376525025454,-0.06771538303875914]",100.0,"[-0.10873813591666953,0.16753168589911394]",4.0,"[0.12901356452987614,-0.10909205806966044]",100.0,"[-0.18017268356370078,-0.051061697582487534]",4.0,"[0.059689212284107,-0.1041324869893398]",100.0,"[0.17089908523378686,-0.07591066905508834]",100.0,"[0.08650810017945072,0.11276466686763126]",100.0,"[-0.19644505533585094,0.008613257671076121]",100.0,"[-0.16817460054062044,0.07290694971910888]",100.0,"[-0.14226161004845778,0.1281710158212514]",100.0,"[0.033599554916836694,0.17127379941630114]",4.0,"[0.10853444869454863,-0.001657665541314394]",100.0,"[-0.11969734407315277,0.09460947923957937]",4.0,"[-0.08838379834691654,-0.056097629536934104]",4.0,"[-0.011039943078156119,0.06001579149657506]",100.0,"[0.02,0.02]",136.478,0.0,17.0,17.0,55.0,1.0,,,,,,,
,,,,,,,615d8873c11a1982c8838b54,6842bbb5d7318522582b5f74,2025-06-06_13h00.40.339,shape_ratio,2024.1.5,Win32,60.60606061,6842b561977af9ba9b0f87ca,,,,,,,,,,,136.4783,136.9782,,,137.2285,137.6616,left,0.4225,,,,,,,,,0.4,,,,,,136.9783,137.2285,137.6616,"[0.15571352052573884,0.08954545050198179]",100.0,"[-0.07709457604787184,0.019735530089575272]",100.0,"[-0.10494443852380944,0.10137725468942461]",100.0,"[-0.007688529935877896,0.15980675196392882]",4.0,"[0.1835629266778434,-0.05129367850977262]",4.0,"[0.06526830664899258,0.06571636238815501]",4.0,"[-0.021884102387430354,-0.0032003756747381673]",4.0,"[-0.13752424704019098,-0.1258499593860717]",4.0,"[0.13385141530219108,-0.049223334690934095]",100.0,"[-0.07324063790016629,-0.08197161292240182]",100.0,"[-0.16053755635403205,0.09400523365507221]",4.0,"[0.15720935333343536,-0.008596792774730574]",4.0,"[-0.1280790701364436,0.14062331008886766]",100.0,"[-0.03372769291089311,-0.12317977790281266]",100.0,"[-0.14808669878831163,-0.04637531077759415]",4.0,"[-0.027552797139107143,0.03802146421523303]",100.0,"[0.02624784829712234,-0.11809286075596044]",4.0,"[-0.1347549280442747,0.027236240510820648]",4.0,"[-0.048389746700031246,0.1297788807522376]",100.0,"[-0.10737369066591869,-0.025004480068463366]",4.0,"[0.10939624188681543,-0.13753978537810263]",4.0,"[0.13597220226870077,0.12669781487789528]",4.0,"[0.06369129566568707,0.10846181921518856]",4.0,"[-0.01253603834622415,-0.18571874776306954]",100.0,"[0.10690414584919342,0.06760983647522306]",100.0,"[0.10662427998436037,-0.08295668940852337]",4.0,"[-0.029803824516743457,0.07804828532941806]",4.0,"[0.19360857129587533,0.021466065121000338]",4.0,"[-0.06729360793759159,-0.1486410312754194]",100.0,"[0.07653757150371844,-0.006504493786489881]",100.0,"[0.054539219219325766,-0.05542845098497315]",4.0,"[0.11326815876897253,0.014391361695749746]",4.0,"[0.02,0.02]",138.7614,0.0,18.0,18.0,168.0,1.0,,,,,,,
,,,,,,,615d8873c11a1982c8838b54,6842bbb5d7318522582b5f74,2025-06-06_13h00.40.339,shape_ratio,2024.1.5,Win32,60.60606061,6842b561977af9ba9b0f87ca,,,,,,,,,,,138.7619,139.2614,,,139.5116,139.8464,right,0.3307,,,,,,,,,0.9,,,,,,139.2614,139.5116,139.8464,"[0.022771304391257345,0.06241329366136971]",100.0,"[-0.023191493202505766,0.06728826402009096]",100.0,"[0.07481995845108491,-0.15491950058214252]",100.0,"[0.05352280829873844,-0.1056296011309375]",100.0,"[0.07144338219844219,0.07543792574590859]",100.0,"[0.11612331789022319,0.09127856384620896]",100.0,"[-0.020772468666386934,-0.045094457657397384]",100.0,"[0.08589613117434128,0.034648020535413424]",100.0,"[-0.09510491443287256,-0.1568486081801742]",100.0,"[-0.08540137557975579,0.09841356478894354]",100.0,"[-0.13381759621877254,-0.1379937845910332]",100.0,"[-0.04372649760521358,-0.14878035057672243]",100.0,"[-0.18440547039963567,-0.017120426823747637]",100.0,"[0.03247233516736764,0.1416713548720711]",100.0,"[-0.030061542998348203,0.11087343826832391]",100.0,"[0.175890807890866,-0.09164791216015826]",100.0,"[-0.123585485483338,0.030854494462589796]",100.0,"[0.1676832439239488,0.028861665233524153]",100.0,"[-0.08739061935839296,-0.10432305886077244]",4.0,"[0.1716423533134883,-0.024489545384896724]",100.0,"[0.0038703729410064116,-0.0869647288755565]",100.0,"[0.13340485051263387,-0.08832354686051636]",100.0,"[-0.037198374771022176,-0.18993941943475937]",100.0,"[-0.08933684589691507,-0.04868577411724353]",4.0,"[0.13107041536558203,-0.024935003186966863]",100.0,"[0.06886348965704006,-0.0667314968853412]",100.0,"[0.01918754570861791,-0.19005763584161525]",100.0,"[0.07528304670286252,0.1264349807532739]",100.0,"[-0.052049354314591505,0.008509509310575418]",100.0,"[-0.18412224014025738,-0.06164546256195388]",100.0,"[0.11191610309349487,-0.13337092248533486]",4.0,"[-0.09842122779090962,-0.00046283870786904986]",100.0,"[0.02,0.02]",140.9448,0.0,19.0,19.0,9.0,1.0,,,,,,,
,,,,,,,615d8873c11a1982c8838b54,6842bbb5d7318522582b5f74,2025-06-06_13h00.40.339,shape_ratio,2024.1.5,Win32,60.60606061,6842b561977af9ba9b0f87ca,,,,,,,,,,,140.9452,141.4448,,,141.6951,142.1451,left,0.446,,,,,,,,,0.6,,,,,,141.4449,141.6951,142.1452,"[-0.0016718806755883105,-0.1835468015288116]",4.0,"[0.17959007499903823,0.03956236991684423]",100.0,"[0.04350263648916506,-0.0707595951994922]",4.0,"[-0.07464517581552549,0.015814625696706892]",100.0,"[0.0024624095635771867,-0.019910468366120166]",100.0,"[0.09714278444420675,0.039113416842548834]",4.0,"[-0.09436216758126231,-0.1709519411452335]",100.0,"[0.12566593095059744,-0.07978362808261316]",100.0,"[0.018722586919746667,0.07961214400294879]",4.0,"[0.07162319228167605,0.001323711898696336]",100.0,"[-0.12454386670491932,0.1530689995016935]",4.0,"[0.1345945454896143,0.07900904601015103]",4.0,"[0.0722413663038173,0.16689655250966]",100.0,"[0.0293592909826361,0.1921436832612564]",100.0,"[0.19579321145481804,-0.026834317925156836]",4.0,"[-0.166392673330922,-0.079998710022487]",100.0,"[0.07507472275796141,-0.11677140687084477]",100.0,"[-0.04923550213290947,0.14776052723966526]",4.0,"[-0.10516515865817219,-0.10576811908287542]",100.0,"[0.14853765863138152,-0.02408338996452277]",100.0,"[-0.14293822149798496,0.09850430406561912]",4.0,"[-0.04062672815177446,-0.10230038945476956]",100.0,"[0.017247477170658405,-0.1168493557829671]",4.0,"[0.028382253724257806,0.032386044793347266]",100.0,"[-0.14474949619238595,-0.024154122015640628]",4.0,"[-0.07964693606001912,0.06291237192711277]",100.0,"[0.14817987900020696,-0.12933898822894865]",100.0,"[0.06182494074203583,0.11109966673984409]",100.0,"[-0.0807226029511172,-0.047050815154288814]",4.0,"[-0.05163479042735894,-0.18014462891289085]",100.0,"[0.11174992522885722,-0.004616471599706937]",4.0,"[-0.1885468460138501,0.06355090166967116]",100.0,"[0.02,0.02]",143.2448,0.0,20.0,20.0,39.0,1.0,,,,,,,
,,,,,,,615d8873c11a1982c8838b54,6842bbb5d7318522582b5f74,2025-06-06_13h00.40.339,shape_ratio,2024.1.5,Win32,60.60606061,6842b561977af9ba9b0f87ca,,,,,,,,,,,143.2453,143.7447,,,143.9952,144.4116,left,0.4026,,,,,,,,,0.6,,,,,,143.7448,143.9952,144.4116,"[-0.07433364605546913,-0.03632618988310577]",100.0,"[-0.1165684059908253,0.152004512247137]",100.0,"[-0.120984947587984,-0.15121351964230192]",100.0,"[0.12373122862934278,-0.09201641627652288]",100.0,"[0.03160522735486629,0.07537645089344061]",100.0,"[0.1649395278537433,0.008456119719069115]",4.0,"[-0.18174199759457696,-0.010062902939873407]",100.0,"[-0.04096338668488381,0.14818181309327025]",100.0,"[-0.01040945781967353,0.10799530716416436]",4.0,"[-0.16655154197881322,-0.057493727057097786]",4.0,"[0.02142665602163989,-0.11683014796187098]",100.0,"[-0.09667702751133715,0.009332558975393906]",100.0,"[0.07132105597947216,-0.06908694128202394]",4.0,"[0.05100053089546567,-0.17213636647402916]",100.0,"[0.1532010341344977,-0.04637284551315037]",4.0,"[-0.052932661637498206,-0.192655878116385]",100.0,"[-0.14311902667615667,0.0080823883322757]",100.0,"[0.03917169683513548,0.01488262917824943]",4.0,"[0.11400848060180775,-0.0018722056706112645]",4.0,"[-0.024221106046066282,-0.09950834050801403]",4.0,"[-0.05755803913717429,0.05329698837753411]",100.0,"[0.1454820616791121,0.04671129587698887]",4.0,"[-0.09855676038766187,0.09469151965813968]",100.0,"[-0.03312871546265826,-0.010945569237555547]",4.0,"[-0.17819702812894486,0.06738136127092455]",100.0,"[-0.12057701369963345,-0.038087390957138756]",4.0,"[0.041691736050925875,0.16311046951743177]",100.0,"[0.11980399288630691,0.15011227232243035]",100.0,"[-0.13262109301885494,-0.09968486791927608]",100.0,"[0.03411208196668394,0.11548591079278718]",4.0,"[0.090989682580907,-0.13911570244058366]",100.0,"[0.016727814932341017,-0.0658473514813876]",4.0,"[0.02,0.02]",145.5113,0.0,21.0,21.0,51.0,1.0,,,,,,,
,,,,,,,615d8873c11a1982c8838b54,6842bbb5d7318522582b5f74,2025-06-06_13h00.40.339,shape_ratio,2024.1.5,Win32,60.60606061,6842b561977af9ba9b0f87ca,,,,,,,,,,,145.5118,146.0114,,,146.2619,146.7449,left,0.4791,,,,,,,,,0.45,,,,,,146.0115,146.2618,146.7449,"[-0.08350659339564333,-0.17068447975324336]",4.0,"[0.062052657866246475,-0.08472572868991057]",100.0,"[0.0062983122190124335,-0.17620327232765712]",4.0,"[0.13000261868172755,0.13803829619815047]",4.0,"[-0.007831784425675621,0.14556744334354954]",4.0,"[0.0576726188005176,0.11278232444529007]",4.0,"[-0.1410694118007582,0.08389746156407606]",4.0,"[0.011102823966178517,0.08677769775331406]",4.0,"[0.1355823364419407,0.03324310613820583]",4.0,"[-0.08672867900858365,0.07033470875073566]",4.0,"[-0.11302242088702276,0.11617282578092988]",4.0,"[-0.18688316113748404,-0.05754797562306066]",100.0,"[0.0754241807203415,-0.1729772091576668]",100.0,"[0.013909414576070964,-0.12563115714017487]",100.0,"[-0.15103316029773242,-0.0254085371248425]",4.0,"[-0.04523167353021343,-0.02867535583403089]",100.0,"[0.1216756067245851,-0.012187664517248788]",100.0,"[-0.0359927226746147,0.17489065270663195]",100.0,"[0.11595408007999532,0.09436027399428232]",100.0,"[0.04163661785949646,-0.02136749854043119]",100.0,"[-0.043888414608135445,-0.10321121678459605]",4.0,"[0.05878177517984003,-0.13182166103077225]",4.0,"[-0.10590187969632946,-0.04675066299054815]",4.0,"[-0.17139344316544336,0.019428819425449773]",100.0,"[-0.16277909553666728,-0.09312142763552261]",100.0,"[0.07997921587063386,0.18116958925139473]",4.0,"[-0.018344674272190498,0.02114835596193639]",100.0,"[-0.035810572920233645,0.11503947310055172]",4.0,"[0.05414729359734356,0.05637697568292289]",100.0,"[0.061140893970491,0.015327640308639624]",4.0,"[0.14425871231840812,-0.05474381108050877]",4.0,"[0.15070742006427443,-0.10388209243571]",100.0,"[0.02,0.02]",147.8454,0.0,22.0,22.0,130.0,1.0,,,,,,,
,,,,,,,615d8873c11a1982c8838b54,6842bbb5d7318522582b5f74,2025-06-06_13h00.40.339,shape_ratio,2024.1.5,Win32,60.60606061,6842b561977af9ba9b0f87ca,,,,,,,,,,,147.8459,148.3449,,,148.5953,148.8949,left,0.2952,,,,,,,,,0.1,,,,,,148.3449,148.5953,148.895,"[-0.03702044001876713,-0.07464403106747405]",4.0,"[0.06515033222249068,0.08595874399736159]",4.0,"[-0.005295804233469795,-0.15181961131405405]",4.0,"[-0.11175882026564046,-0.12340521381133186]",4.0,"[0.05525945380662308,-0.11499106641101763]",4.0,"[0.1103108029653166,-0.08366755716457083]",4.0,"[-0.1343168541401766,-0.0090631650873092]",4.0,"[-0.17587032321712848,-0.07473479886945518]",4.0,"[-0.014480116636367413,0.025518999266581296]",4.0,"[0.15812908550573335,0.04154454229609866]",4.0,"[0.11788157998519629,0.12928609739439184]",4.0,"[-0.03170135883610229,-0.12148236832589375]",4.0,"[-0.0893128635799032,0.14445118999518494]",4.0,"[0.03406762368329774,0.0007590385733418105]",4.0,"[-0.040040180706671,0.17417544374463348]",4.0,"[0.05407538101935927,-0.04419389562126963]",4.0,"[-0.17103960513151598,0.07711552721231274]",4.0,"[-0.007031111552537906,0.14591914095921157]",100.0,"[0.09339329227894944,0.007920545197702165]",4.0,"[-0.0667551962623374,0.06621492739895146]",4.0,"[0.0446473469239322,-0.17877694764266436]",100.0,"[-0.13242549168981343,0.05393568443540243]",4.0,"[-0.04120233238848578,-0.18451736272866953]",4.0,"[0.15173928496309017,-0.01836757912995401]",4.0,"[0.18079875083609948,-0.05030521179995164]",100.0,"[-0.03958135168903746,-0.01486522826675285]",4.0,"[-0.011161264636666453,0.09208655350513856]",4.0,"[0.07044546667750397,0.18696497543342588]",4.0,"[0.11551497209976015,0.07198524863876572]",4.0,"[-0.10278022312669662,-0.036091954456806685]",4.0,"[0.038518707751586195,0.1518182008231073]",4.0,"[-0.17089466259108388,0.008969994378567674]",4.0,"[0.02,0.02]",149.9948,0.0,23.0,23.0,207.0,1.0,,,,,,,
,,,,,,,615d8873c11a1982c8838b54,6842bbb5d7318522582b5f74,2025-06-06_13h00.40.339,shape_ratio,2024.1.5,Win32,60.60606061,6842b561977af9ba9b0f87ca,,,,,,,,,,,149.9953,150.4948,,,150.7453,151.1476,left,0.398,,,,,,,,,0.5,,,,,,150.4948,150.7452,151.1477,"[0.13678983265515,0.04195388584056216]",4.0,"[0.006603579595374144,0.03415117586144925]",4.0,"[0.17511848463106464,0.06703992456747021]",4.0,"[0.18499923704909604,-0.008626614343594043]",4.0,"[-0.04864359349913041,-0.1279305519805281]",100.0,"[-0.06779511732544091,0.14151992834940072]",100.0,"[-0.02957575797161558,-0.16891763526767728]",100.0,"[-0.08509950250206383,0.08737305672580463]",100.0,"[-0.14233342232025847,0.01681837495212786]",4.0,"[0.11871590703275128,0.12288513398384719]",100.0,"[-0.045314475598093824,0.10138877416661506]",4.0,"[-0.0380866875029355,-0.021684756245469197]",4.0,"[0.07404079611258672,-0.08409914990084247]",100.0,"[-0.04317181494974935,0.037682928179291544]",4.0,"[0.1514808951483756,-0.044602888596715205]",100.0,"[0.025931074265583318,0.07350549927887082]",4.0,"[-0.15509573053022624,-0.11076465691340662]",100.0,"[-0.1805587520054372,0.057411380243576435]",4.0,"[0.10306721756020498,-0.15956003324616735]",100.0,"[-0.12536897249443424,-0.1388362529263139]",100.0,"[-0.11667376729237627,-0.03877136111658531]",100.0,"[0.03142222775604066,-0.14243497257602444]",4.0,"[0.01378383132759695,0.14601751904385793]",100.0,"[-0.027686402338209615,0.19524046362298436]",100.0,"[0.041056123093343506,0.18195311924522886]",100.0,"[0.12611232628302785,-0.09879761779626317]",4.0,"[0.024749654092662256,-0.08279134685411833]",4.0,"[-0.09728533258886346,0.0010238676498277278]",4.0,"[-0.15628272388151065,-0.06946892343710295]",4.0,"[-0.19146423156711775,-0.04522036315164741]",4.0,"[0.08429551074047745,-0.0012165170853011545]",100.0,"[0.07131421719165665,-0.03932178129510006]",100.0,"[0.02,0.02]",152.2449,0.0,24.0,24.0,99.0,1.0,,,,,,,
,,,,,,,615d8873c11a1982c8838b54,6842bbb5d7318522582b5f74,2025-06-06_13h00.40.339,shape_ratio,2024.1.5,Win32,60.60606061,6842b561977af9ba9b0f87ca,,,,,,,,,,,152.2455,152.7449,,,152.9954,153.3957,left,0.3967,,,,,,,,,0.5,,,,,,152.745,152.9954,153.3957,"[-0.1701109862344155,0.04548676319383569]",100.0,"[0.16561052293689574,-0.06016128758144488]",100.0,"[0.07404422725619342,0.17885867199376007]",100.0,"[0.0651217969401717,0.0231845301129857]",100.0,"[-0.151711062669731,-0.07204986234395315]",100.0,"[0.06876128394720649,-0.14726844443886758]",100.0,"[0.13754493004232293,0.017385336120076006]",100.0,"[-0.09963008246177286,0.13760312365957164]",4.0,"[-0.09776431751490648,0.026154927749194902]",4.0,"[0.13165294967678676,0.10884602894328874]",100.0,"[-0.11266462202135538,-0.08315532426316137]",100.0,"[0.08106978731787631,-0.07874440404357079]",4.0,"[-0.11550926674127614,-0.14300295356310297]",4.0,"[-0.054575942298582626,0.05248041251133227]",100.0,"[0.026461972891268812,0.045034802659613564]",4.0,"[0.17931454243231815,0.028806713171575547]",4.0,"[-0.012340997577495752,-0.0834985294459286]",100.0,"[0.014108859497569504,0.08686798612066893]",100.0,"[-0.07841568512793115,0.1761504370125362]",4.0,"[-0.030508343777833114,-0.14878859694614954]",100.0,"[-0.12631407238395728,0.07844399833957491]",100.0,"[-0.18564653349709495,-0.04690109294513802]",4.0,"[0.014466767282686,-0.15525612586258722]",4.0,"[-0.06592964472882355,-0.0960072598217084]",100.0,"[0.034622120331855286,-0.04355573390832612]",4.0,"[-0.0910168910949292,-0.04198299783348738]",100.0,"[0.1734981704024763,0.08946023584942323]",4.0,"[-0.04658946458314029,0.1252501020808989]",4.0,"[-0.04113005202973896,-0.014893391344025425]",4.0,"[-0.13854576621141182,-0.018063957580933567]",4.0,"[0.15145190340328052,-0.11170903984107144]",4.0,"[0.03444996438120515,0.1410471606563017]",4.0,"[0.02,0.02]",154.4947,0.0,25.0,25.0,113.0,1.0,,,,,,,
,,,,,,,615d8873c11a1982c8838b54,6842bbb5d7318522582b5f74,2025-06-06_13h00.40.339,shape_ratio,2024.1.5,Win32,60.60606061,6842b561977af9ba9b0f87ca,,,,,,,,,,,154.4957,154.9953,,,155.2458,155.6783,right,0.4219,,,,,,,,,0.6,,,,,,154.9953,155.2457,155.6784,"[-0.07452071536014587,0.009453035922007401]",100.0,"[0.030057947639517295,0.1733857441640643]",100.0,"[0.0585507804883623,-0.06900070344688598]",100.0,"[-0.15478316141540097,-0.05874641657996232]",100.0,"[0.0639702185644156,0.042872751600254465]",100.0,"[0.00896878556144501,-0.17397426942935362]",100.0,"[0.0016845738208577606,-0.08446610937150267]",100.0,"[-0.04515827335229747,0.06675731685222219]",4.0,"[-0.11371888924385579,0.1626697324539388]",100.0,"[0.12789698211520126,-0.1013779656760501]",4.0,"[0.0583339306476032,0.10323571138367707]",4.0,"[-0.03883242944721527,-0.13251111847839508]",100.0,"[0.11616191387397355,0.13277391769024907]",4.0,"[-0.15842785484724958,-0.0004661100170337691]",100.0,"[-0.0965278597900944,-0.11149281306346837]",100.0,"[-0.031091356433784183,0.16751261902434167]",4.0,"[-0.1412715257154897,-0.12124928355055539]",4.0,"[0.10051581662799404,-0.06792135777027283]",100.0,"[0.026357066476048806,-0.00231576062416529]",100.0,"[-0.14804530588319156,0.08580063603581539]",4.0,"[0.1422176092851755,-0.03977478026753962]",4.0,"[-0.052418841453414494,-0.17974821759138368]",100.0,"[0.16265482300685313,0.09321829043047977]",4.0,"[-0.08967913156336087,-0.16328272239021974]",4.0,"[0.1308852153609831,0.005107931020812647]",100.0,"[-0.09904468402378219,0.05854580531330226]",100.0,"[0.10553130829703915,0.07624621807124365]",4.0,"[-0.019441164200143326,-0.040761098905887035]",100.0,"[0.0738212070632821,0.17246044821330547]",100.0,"[0.02349002392374453,0.08259549744478684]",4.0,"[-0.10908816685178303,0.11943674512606879]",4.0,"[0.19338346526592845,0.013619581241596748]",100.0,"[0.02,0.02]",156.7783,0.0,26.0,26.0,49.0,1.0,,,,,,,
,,,,,,,615d8873c11a1982c8838b54,6842bbb5d7318522582b5f74,2025-06-06_13h00.40.339,shape_ratio,2024.1.5,Win32,60.60606061,6842b561977af9ba9b0f87ca,,,,,,,,,,,156.7788,157.2782,,,157.5285,157.8782,right,0.3435,,,,,,,,,0.55,,,,,,157.2782,157.5285,157.8783,"[-0.12208715532823136,-0.00015745371412885983]",100.0,"[0.07545595572355754,0.14962172015856223]",100.0,"[-0.12152765094923891,-0.0402446400108428]",100.0,"[0.04753096811673864,0.08119518975759674]",4.0,"[-0.054694811502731,-0.19044865219652618]",4.0,"[-0.14860214448188888,0.09029832662742988]",100.0,"[-0.060729995382581496,-0.015780821236645398]",4.0,"[0.030298679598757077,-0.07639063239998814]",4.0,"[0.15494820950152685,-0.07018132537850652]",100.0,"[-0.07135886994173667,0.025242216660303053]",100.0,"[-0.15628958214344046,-0.10020690388093502]",4.0,"[0.18814625835994808,0.053227596609295484]",4.0,"[0.12877890123434335,-0.14560507651738724]",100.0,"[0.14295994000747894,0.01994375654788862]",100.0,"[-0.04461341782886808,-0.14861543897432591]",4.0,"[0.1894204315099155,-0.017229959396882405]",100.0,"[0.044972902043359624,-0.03062150731437577]",100.0,"[0.07691435094329814,-0.10408135400621939]",4.0,"[-0.0872403050824304,-0.143677182623225]",100.0,"[-0.1593798540809625,0.04156128603213799]",100.0,"[0.04324316281540726,0.02543710178386905]",100.0,"[-0.016930293211557337,-0.1140776456384599]",4.0,"[-0.02273799411915664,0.13716949967678663]",100.0,"[0.1532848002325453,0.10558118256106042]",4.0,"[0.00040980943764657297,0.10185575685332375]",4.0,"[0.12180032352841554,0.06462415520113686]",4.0,"[0.08918535501547424,-0.17161550002287312]",100.0,"[0.13053852950261707,-0.033387837421863034]",100.0,"[0.04120327080451156,-0.14238315676958493]",100.0,"[-0.1059011284302056,0.06888478415278439]",100.0,"[-0.03239845295061423,0.19430920959627052]",4.0,"[-0.06943820007865535,0.12855325062334594]",4.0,"[0.02,0.02]",158.9781,0.0,27.0,27.0,65.0,1.0,,,,,,,
,,,,,,,615d8873c11a1982c8838b54,6842bbb5d7318522582b5f74,2025-06-06_13h00.40.339,shape_ratio,2024.1.5,Win32,60.60606061,6842b561977af9ba9b0f87ca,,,,,,,,,,,158.9786,159.4782,,,159.7286,160.1784,left,0.4393,,,,,,,,,0.45,,,,,,159.4782,159.7286,160.1785,"[0.0077447874276853805,-0.015976602683838322]",100.0,"[0.04528186032496872,0.113711523825582]",100.0,"[-0.10731287339664944,0.13017930747324324]",100.0,"[-0.1410474706631228,0.07427916690965602]",4.0,"[-0.1581139796675013,0.11391510167306339]",4.0,"[0.14083667772328642,0.007287754394439096]",4.0,"[-0.10042882872694821,-0.10512980002114285]",100.0,"[-0.16655669501313838,0.038651982876272535]",100.0,"[0.017598902630017066,0.1781872921105226]",4.0,"[0.06268301059202723,0.025319573133505708]",4.0,"[0.05732941676115245,-0.10180800756460051]",4.0,"[0.15456143265915748,0.06252427495474125]",100.0,"[-0.15379880315478556,-0.12294849865326259]",4.0,"[0.026409917915748544,-0.17880741703605293]",4.0,"[-0.07986708785122262,-0.017606862579531424]",100.0,"[0.0753007061289158,-0.1765527367255465]",100.0,"[0.11524724127072315,0.10518561281579743]",100.0,"[-0.021165393529795982,-0.08994832543513387]",4.0,"[-0.035912129689898965,-0.003847093359559074]",4.0,"[-0.10578295531167026,-0.15114965976593434]",4.0,"[0.0019216461287359038,0.11394753624860185]",100.0,"[-0.016669043996842325,0.07097746890721336]",4.0,"[0.08740648814599623,-0.014451801761601478]",100.0,"[0.07752043377327647,0.15910798368183326]",4.0,"[-0.06694627546190585,0.14415618773298158]",4.0,"[0.17505929848062443,-0.030137121785924398]",100.0,"[-0.04168955265415115,-0.05063122539745099]",4.0,"[-0.12282851102844179,-0.03324053062466451]",4.0,"[-0.08937825770182349,0.1782938620170673]",4.0,"[0.15266938834080054,-0.0918122924101128]",100.0,"[-0.08844533181537116,0.03895999961256846]",100.0,"[0.11009485727480849,-0.13652764475316082]",4.0,"[0.02,0.02]",161.2784,0.0,28.0,28.0,121.0,1.0,,,,,,,
,,,,,,,615d8873c11a1982c8838b54,6842bbb5d7318522582b5f74,2025-06-06_13h00.40.339,shape_ratio,2024.1.5,Win32,60.60606061,6842b561977af9ba9b0f87ca,,,,,,,,,,,161.2789,161.7784,,,162.0286,162.3951,right,0.3547,,,,,,,,,0.5,,,,,,161.7784,162.0286,162.3952,"[0.12415238982682227,0.06932200802605153]",4.0,"[0.012468912390160038,0.028469800433862904]",4.0,"[0.08691883951598943,0.1712934562183364]",4.0,"[-0.08813072126544941,-0.12572200803448463]",100.0,"[-0.0737560297704731,0.15725113135370458]",100.0,"[0.10904516307094009,-0.07036498760622663]",4.0,"[-0.12805820544407698,-0.06610352937177472]",4.0,"[-0.011451216666554277,-0.03595614685667811]",4.0,"[0.17319837110207478,0.038234316343824126]",100.0,"[-0.10475833663209612,0.024166923595647875]",100.0,"[0.035686922671440545,0.12861680624710983]",4.0,"[0.05614311792898389,-0.041380251208782436]",4.0,"[0.15072983571753604,0.12230959287205487]",100.0,"[-0.11596780129513008,0.09879731355554064]",100.0,"[0.023177019467749804,-0.130162040294069]",100.0,"[0.14325381947883586,0.01086594555853106]",100.0,"[0.012423122685706677,0.1921529870755922]",4.0,"[-0.06467436296798522,0.05010886793036085]",100.0,"[-0.044257097201164705,-0.16208920684623135]",4.0,"[0.020421192730324403,0.08647581310299476]",4.0,"[-0.18416129200953144,-0.020932847299250178]",4.0,"[-0.17412538812339484,0.06814516959612318]",100.0,"[0.08184392107339715,0.06874361367026416]",100.0,"[-0.13659021667700494,-0.126401149774096]",4.0,"[-0.06669639089962491,-0.028098835381670895]",100.0,"[-0.036621988918781746,0.1948483121072589]",4.0,"[-0.041810054125102226,0.10992988173778263]",100.0,"[-0.02357228882389253,0.007267438275593238]",4.0,"[-0.01689576380066819,-0.0773767145902115]",100.0,"[-0.11828990492601765,0.14867958300348902]",100.0,"[0.02921697808735652,-0.07977403997470793]",4.0,"[0.10860269599004697,0.1125219165714432]",100.0,"[0.02,0.02]",163.4951,0.0,29.0,29.0,108.0,1.0,,,,,,,
,,,,,,,615d8873c11a1982c8838b54,6842bbb5d7318522582b5f74,2025-06-06_13h00.40.339,shape_ratio,2024.1.5,Win32,60.60606061,6842b561977af9ba9b0f87ca,,,,,,,,,,,163.4955,163.9949,,,164.2455,164.5785,right,0.3227,,,,,,,,,0.55,,,,,,163.9949,164.2453,164.5785,"[-0.12264360621577543,-0.12535994595452962]",100.0,"[0.05669904711235201,0.1585756064690971]",4.0,"[-0.03626720601803024,0.006709563945445435]",100.0,"[0.053439200592577514,-0.16255581700942492]",100.0,"[0.1304245673639881,0.03328190294526488]",4.0,"[0.10112730455399702,0.09337351495533908]",4.0,"[0.1490171192697496,-0.07521534033920384]",100.0,"[-0.19334086305147913,-0.002083029628799818]",100.0,"[0.0017438289518621971,-0.018860483446878316]",100.0,"[-0.06358834979124268,-0.16604917228862962]",4.0,"[-0.011850000513363887,0.05436150188217629]",100.0,"[-0.03209794895660232,-0.0727589666305228]",100.0,"[-0.07941907428527159,-0.10639202602457132]",100.0,"[-0.13487339348527796,-0.05614863636148953]",4.0,"[-0.11702287046482714,-0.01743040160194501]",4.0,"[0.10780223912890267,-0.08539238521098227]",4.0,"[0.054417674703610384,-0.09081053920618677]",100.0,"[0.18239305604706837,-0.025455749859192908]",4.0,"[-0.01192354441302559,0.16249024861088096]",100.0,"[-0.16071997326555001,-0.09052020050988384]",4.0,"[-0.07602382832871869,0.15811080421857512]",100.0,"[0.0995546278005805,-0.01593575035039322]",4.0,"[-0.06951365499219749,0.10931273545266984]",100.0,"[0.01605566980466013,0.10292188337346216]",4.0,"[0.05308449835677668,0.02127862452254351]",4.0,"[0.03813908806536673,-0.04029328538549657]",100.0,"[0.1953755048477397,0.026888613190660233]",100.0,"[-0.09157945239064803,0.04297543875724345]",4.0,"[-0.048004838276502274,0.07429946914436553]",100.0,"[-0.1298475165407779,0.10720962273367801]",4.0,"[0.0012422251686179209,-0.16758367719973655]",100.0,"[-0.06234202401334994,-0.04101860163132427]",100.0,"[0.02,0.02]",165.6783,0.0,30.0,30.0,66.0,1.0,,,,,,,
,,,,,,,615d8873c11a1982c8838b54,6842bbb5d7318522582b5f74,2025-06-06_13h00.40.339,shape_ratio,2024.1.5,Win32,60.60606061,6842b561977af9ba9b0f87ca,,,,,,,,,,,165.6787,166.1784,,,166.4288,166.7118,right,0.2694,,,,,,,,,0.9,,,,,,166.1784,166.4287,166.7119,"[0.06225287232957201,0.1132060046857763]",100.0,"[-0.10889391039983604,-0.11941557516964188]",4.0,"[-0.04026773673398751,-0.14701982771255925]",100.0,"[0.023381838581657884,0.00014907039644491873]",100.0,"[-0.008994536386574301,0.146646804842998]",100.0,"[-0.16331898752522828,0.10834098286477573]",100.0,"[-0.11892836999540117,0.14594226977687585]",100.0,"[0.17154684550777402,-0.027227572319500477]",4.0,"[0.1172472789992138,-0.09190285153512003]",100.0,"[0.10966968595515185,0.0023142337385663315]",100.0,"[0.0681288618747826,-0.05578948722062306]",100.0,"[-0.06243485179995849,-0.10018547214479197]",4.0,"[-0.04569314147333803,0.01614160878134934]",100.0,"[-0.1157519140247081,-0.06171422213564985]",100.0,"[0.15668215839061736,0.1015604457619153]",100.0,"[0.007623191126752591,-0.06892638207273927]",100.0,"[-0.02323056358644814,0.060565925166457334]",100.0,"[-0.15403187592484058,-0.12623978579908762]",100.0,"[-0.0969054039790667,0.10271975768175547]",100.0,"[0.05097346639687518,-0.11764008022276758]",100.0,"[0.19027270217251285,0.00903780984942651]",100.0,"[-0.04523153045502397,0.17944455763409103]",100.0,"[-0.10569237734792994,0.01771496020818113]",100.0,"[-0.15952021218283757,0.012791430860917231]",100.0,"[0.10387349977520328,0.11723019592906615]",100.0,"[0.1638262770893528,-0.10182864822944457]",100.0,"[-0.09006613290623829,0.05670187863764038]",100.0,"[-0.0745476192909112,0.1413349399030615]",100.0,"[-0.13509162264881772,-0.01937684815135222]",100.0,"[0.1042571068305411,0.04669087443327873]",100.0,"[0.0167654674360641,-0.1767525061600707]",100.0,"[-0.19578779212048583,-0.019853783949516857]",100.0,"[0.02,0.02]",167.8117,0.0,31.0,31.0,19.0,1.0,,,,,,,
,,,,,,,615d8873c11a1982c8838b54,6842bbb5d7318522582b5f74,2025-06-06_13h00.40.339,shape_ratio,2024.1.5,Win32,60.60606061,6842b561977af9ba9b0f87ca,,,,,,,,,,,167.8122,168.3118,,,168.5619,168.7451,right,0.1746,,,,,,,,,0.1,,,,,,168.3119,168.5618,168.7452,"[0.07695602419661414,-0.03799951602678367]",4.0,"[0.10696366744477703,0.1585364948103599]",4.0,"[-0.07368960390977947,0.06633081881737446]",4.0,"[-0.04935221846683041,0.12985112755231112]",4.0,"[0.04082166719056971,0.1306280032754371]",4.0,"[-0.1359180429040885,0.05181830811820464]",4.0,"[0.042361990889207196,0.04939504747457111]",4.0,"[-0.006673806937942773,0.022190282966530465]",4.0,"[0.1241778942338639,0.07025364486513899]",4.0,"[0.04058916762721052,0.19211365645217043]",4.0,"[0.1916648977413041,0.009790056082851103]",100.0,"[-0.0895371355449742,-0.15682314803867586]",4.0,"[-0.0013086697094642143,0.12101528388675137]",4.0,"[-0.11288901490055227,0.12177644149940536]",4.0,"[0.1130539167892351,-0.1607558277632292]",4.0,"[0.16003743011440952,0.11467956135553208]",100.0,"[0.02708148329988084,-0.009956653814181277]",4.0,"[0.022632482773763576,-0.09710870986780584]",4.0,"[0.18253023586923497,-0.040644165975531284]",4.0,"[-0.059933253223204835,-0.03239640904317651]",100.0,"[0.11588472569453147,-0.027363262665430446]",4.0,"[0.018509548981083937,-0.18346146858881351]",4.0,"[-0.17027536363597107,0.10075114424899956]",4.0,"[-0.05348230746790159,-0.09046286344649054]",4.0,"[0.10173368649997876,-0.1197292774525504]",4.0,"[-0.12606053855952462,0.006894485435106847]",4.0,"[0.0637555073512594,-0.18380476467279286]",4.0,"[0.14078969300023988,0.03264254561270051]",4.0,"[-0.18536112155332526,-0.003022171012147212]",4.0,"[-0.019368780570035715,0.07036737555982199]",4.0,"[-0.19337130189067375,0.043502206009898535]",4.0,"[0.1800030578378244,0.07179226387043794]",4.0,"[0.02,0.02]",169.8451,0.0,32.0,32.0,208.0,1.0,,,,,,,
,,,,,,,615d8873c11a1982c8838b54,6842bbb5d7318522582b5f74,2025-06-06_13h00.40.339,shape_ratio,2024.1.5,Win32,60.60606061,6842b561977af9ba9b0f87ca,,,,,,,,,,,169.8455,170.3449,,,170.5954,170.9785,left,0.3782,,,,,,,,,0.55,,,,,,170.345,170.5954,170.9785,"[0.07147306658449111,-0.08416910334071934]",4.0,"[-0.07077304266060866,-0.11810217350196167]",4.0,"[-0.11834314103046124,-0.01667570019264506]",100.0,"[0.04029748709117807,-0.14189826526215518]",100.0,"[-0.019810350888768462,0.03213762844111571]",100.0,"[-0.06331196199068885,0.0940699571496064]",4.0,"[-0.16627230231122708,-0.041889405729846]",100.0,"[-0.1275985061975093,0.03558144480901296]",100.0,"[0.1624200708132482,-0.06797947930890169]",100.0,"[0.1434879809882217,-0.12934652504324276]",100.0,"[0.0852914461975723,0.11300894444602422]",100.0,"[-0.051425150793004235,-0.1929081630638201]",100.0,"[-0.16154199045912324,0.008767044473478336]",4.0,"[0.16865139773948357,0.008456158543561406]",4.0,"[0.05684606226604905,-0.005326147568163453]",4.0,"[0.11289744284917927,0.153333977803945]",100.0,"[-0.08986124998604468,-0.07875384923954337]",4.0,"[-0.010116414928915813,-0.05393555762984987]",4.0,"[0.08009235291251995,-0.13372958717514466]",100.0,"[0.023019684322774812,0.14872106732760534]",4.0,"[-0.007265235375544106,-0.17399216888973068]",100.0,"[0.1478781456907514,0.10763953055785075]",4.0,"[-0.11805735415799662,0.10477809332790358]",100.0,"[0.006867467104960117,0.06941934380943866]",4.0,"[-0.041435390025610946,0.17500807426478499]",4.0,"[-0.19881178171932068,-0.016010020231572174]",100.0,"[0.14536961055951939,0.04813406918912962]",100.0,"[-0.1505920416853206,-0.1184203849335558]",100.0,"[0.03228542261554769,0.03494663853806933]",100.0,"[-0.028351399190662083,-0.09484041055197451]",4.0,"[-0.005615026715441901,0.12078107923456932]",4.0,"[-0.0965628049813935,0.15466521573991848]",100.0,"[0.02,0.02]",172.0783,0.0,33.0,33.0,77.0,1.0,,,,,,,
,,,,,,,615d8873c11a1982c8838b54,6842bbb5d7318522582b5f74,2025-06-06_13h00.40.339,shape_ratio,2024.1.5,Win32,60.60606061,6842b561977af9ba9b0f87ca,,,,,,,,,,,172.0787,172.5784,,,172.8286,173.362,right,0.5245,,,,,,,,,0.9,,,,,,172.5784,172.8285,173.3621,"[-0.11373779903605949,-0.009409718955110741]",100.0,"[-0.02400793381799314,-0.06607363629936751]",100.0,"[0.15763929096338264,-0.11502461660391611]",100.0,"[0.1564957297092277,-0.010050941372342068]",100.0,"[0.027420139678727265,0.0927872121075324]",100.0,"[0.13937451919699922,-0.061030007797799525]",100.0,"[-0.024133502670052005,0.11665346504737995]",100.0,"[0.1329388664374268,0.06872457378572701]",100.0,"[0.03066545704838417,-0.02472001540384603]",100.0,"[0.055777531543403536,-0.10170697657705767]",100.0,"[0.04646204337380756,0.18648516004468044]",100.0,"[-0.16975556631257044,0.10239024307314602]",100.0,"[0.10731605969687527,-0.09829824935497335]",4.0,"[-0.06633222075267585,0.08338873456388758]",100.0,"[0.020841569323829853,0.03367334894282081]",100.0,"[0.13799581989186185,0.1307571140507703]",4.0,"[-0.12312969369989978,0.03484612659789064]",100.0,"[0.09670918662698227,0.024877798510566144]",100.0,"[0.005042426835985758,-0.18195519751435635]",100.0,"[0.1832774911034139,0.03780925891769018]",100.0,"[-0.10015652225767535,0.10880597052786299]",100.0,"[-0.027601008717874864,-0.1376686684927447]",100.0,"[-0.18427866441812013,0.05073442141468351]",100.0,"[0.0807912132255676,0.07363619734371758]",100.0,"[-0.09376525447707143,-0.07599231774619385]",100.0,"[-0.055845009785110776,-0.10194538221074043]",100.0,"[-0.11364665488403015,-0.13989714544187432]",100.0,"[-0.1333116870705167,0.07655283053470616]",100.0,"[0.07968018607402291,-0.16238096159318502]",100.0,"[-0.17564715320912236,-0.07421331562182128]",100.0,"[-0.04767210862678602,0.17325873560332825]",4.0,"[-0.07606359870610353,0.021485108692459464]",100.0,"[0.02,0.02]",174.4617,0.0,34.0,34.0,20.0,1.0,,,,,,,
,,,,,,,615d8873c11a1982c8838b54,6842bbb5d7318522582b5f74,2025-06-06_13h00.40.339,shape_ratio,2024.1.5,Win32,60.60606061,6842b561977af9ba9b0f87ca,,,,,,,,,,,174.462,174.9618,,,175.212,175.6628,right,0.4466,,,,,,,,,0.55,,,,,,174.9619,175.212,175.6628,"[-0.13338176971099164,0.07424496072389682]",4.0,"[0.10917982324636061,-0.07593693539143484]",4.0,"[0.044803547417967576,0.035213376944380544]",100.0,"[0.0167311511500651,0.14653254637093743]",4.0,"[-0.034204515733142156,0.14560959796474504]",4.0,"[0.1229531605124364,0.06202061758887266]",100.0,"[0.01739505156874383,-0.05571330715886126]",4.0,"[-0.07255171002149177,0.12978758287897899]",4.0,"[0.004870866327524321,-0.1085321925816141]",100.0,"[-0.02682538238127912,-0.028450611632509573]",100.0,"[0.006054393219254061,0.08203677073539256]",100.0,"[-0.017487875490557196,0.19440359286319345]",100.0,"[-0.006199257082935237,-0.17574582955105975]",100.0,"[-0.08006478702157854,-0.17828712756815163]",4.0,"[-0.06429874720766274,0.002614599346635456]",100.0,"[0.03298844858586293,-0.14746101784696744]",4.0,"[0.14569602695261274,0.014421020417518192]",100.0,"[-0.1243160172311082,0.14300002616152538]",100.0,"[-0.1459886429627055,0.01113333362474917]",4.0,"[0.13229172255376012,0.10113236202031002]",100.0,"[-0.11405004095134201,-0.1390928003326766]",100.0,"[0.10730799319841014,-0.1510296795531497]",4.0,"[0.07052977616528687,-0.0420063960529836]",100.0,"[-0.10798725333388574,-0.015536374144393803]",4.0,"[0.05154944904054979,-0.10858022460093454]",100.0,"[-0.0939181181744668,0.17025354694138575]",100.0,"[-0.05527271267302468,-0.12455645917778205]",100.0,"[0.15158293940166262,-0.07422350110915434]",4.0,"[0.11767227041525782,0.16138742786693622]",4.0,"[0.19637133410654414,0.007189308372468344]",4.0,"[-0.09671615226154862,-0.07971315332477266]",100.0,"[-0.0390255865060913,0.06870866452551715]",100.0,"[0.02,0.02]",176.7617,0.0,35.0,35.0,62.0,1.0,,,,,,,
,,,,,,,615d8873c11a1982c8838b54,6842bbb5d7318522582b5f74,2025-06-06_13h00.40.339,shape_ratio,2024.1.5,Win32,60.60606061,6842b561977af9ba9b0f87ca,,,,,,,,,,,176.7622,177.2617,,,177.5122,177.8452,right,0.329,,,,,,,,,0.55,,,,,,177.2617,177.5122,177.8453,"[-0.08797123606965204,0.05429593278046529]",100.0,"[-0.018169268526443988,0.04354650140333982]",100.0,"[0.018128844351018372,0.09851766486729184]",4.0,"[0.1490739852058829,-0.026593962107752823]",4.0,"[-0.11551906797251657,0.12164250938366428]",4.0,"[0.09517516178261774,-0.007605638777599845]",100.0,"[0.1901180635646276,-0.012484129238183764]",100.0,"[-0.06299673462061782,0.008619154098651799]",4.0,"[0.06626822973325608,0.16301414148303528]",100.0,"[0.07020964499898491,0.12289883985540614]",4.0,"[-0.05824092464792891,0.14407464757425387]",100.0,"[-0.0719240291801511,-0.06664985602941177]",4.0,"[-0.13759931842759768,-0.004049453453701815]",100.0,"[-0.13734876502894672,-0.09085662778933842]",4.0,"[0.11986524146429943,-0.1548670223614692]",100.0,"[-0.021450098021130504,-0.15112653121772562]",100.0,"[0.17331806939111896,-0.08655225166545004]",100.0,"[-0.03331750331834556,-0.10205881591441841]",100.0,"[0.15740165632401348,0.11517606658822938]",100.0,"[0.02267100841470399,0.1475315300924261]",4.0,"[0.06206282810293026,-0.1425726099646361]",4.0,"[0.07002246126862562,0.04152959748676937]",100.0,"[-0.036065562125306705,-0.026098027238267027]",4.0,"[0.14072336541242905,-0.11225277960159184]",100.0,"[0.013689421794565417,0.19080733765879745]",4.0,"[0.001563926673411226,0.003019047919993574]",100.0,"[-0.04096974394783752,0.09723251269233611]",4.0,"[-0.19678169782839547,0.018639127300216215]",4.0,"[0.13950495382439512,0.024184653749644597]",100.0,"[-0.1712185204870153,0.0966114723215717]",4.0,"[-0.022659774587802526,-0.1985479519770245]",100.0,"[0.026941449396880666,-0.09367641982828043]",100.0,"[0.02,0.02]",178.9451,0.0,36.0,36.0,88.0,1.0,,,,,,,
,,,,,,,615d8873c11a1982c8838b54,6842bbb5d7318522582b5f74,2025-06-06_13h00.40.339,shape_ratio,2024.1.5,Win32,60.60606061,6842b561977af9ba9b0f87ca,,,,,,,,,,,178.9455,179.4453,,,179.6955,180.0809,left,0.3807,,,,,,,,,0.6,,,,,,179.4453,179.6955,180.081,"[0.14209437141065986,0.07495229277437886]",4.0,"[-0.005012473996117835,0.1552807784596511]",100.0,"[-0.009102115632384684,-0.18970810114265332]",100.0,"[0.16402880982409138,-0.058397281375688684]",100.0,"[0.07681371591842319,-0.01925851346617219]",100.0,"[-0.09790673590435914,-0.07987128134545837]",100.0,"[0.11579071748240617,0.14144889494136217]",4.0,"[0.04905961161364436,-0.07489443904974522]",100.0,"[-0.06779643092398073,-0.11324613498368805]",100.0,"[0.12896900908017686,-0.0921515761285308]",4.0,"[0.1737193688944489,0.012990174294992907]",4.0,"[-0.006160581443139086,0.08416350530577639]",100.0,"[-0.004616263249873641,0.020041244663812918]",100.0,"[0.038812263253231755,0.02611423976319695]",4.0,"[0.08148983100953122,-0.10486791208552987]",100.0,"[-0.05363691194457316,-0.19161418442187547]",100.0,"[-0.176746980784994,0.035211242902168954]",100.0,"[0.061012535838178464,-0.15020936085261755]",100.0,"[-0.058264193320889335,0.12157294153880209]",100.0,"[0.04037626302711199,0.14690608312718806]",4.0,"[-0.1421495737552102,0.1160512952021631]",4.0,"[0.15462943424008047,0.12383707625345376]",100.0,"[0.0018417927294664272,-0.11656964638034126]",4.0,"[-0.1017900658752647,0.08020459674702249]",4.0,"[-0.034792876768680384,-0.15241467273878487]",4.0,"[0.07842995289411696,0.17196986719137608]",100.0,"[-0.059553407275554616,-0.036088652820320005]",4.0,"[0.09911065140399877,0.09991054954084307]",4.0,"[-0.11276685774392063,-0.02540312774161839]",100.0,"[0.1293072275760319,0.03020664154561916]",4.0,"[0.09332658499636735,0.05318823093327079]",100.0,"[-0.15830821680148502,-0.07747524234805435]",100.0,"[0.02,0.02]",181.1783,0.0,37.0,37.0,56.0,1.0,,,,,,,
,,,,,,,615d8873c11a1982c8838b54,6842bbb5d7318522582b5f74,2025-06-06_13h00.40.339,shape_ratio,2024.1.5,Win32,60.60606061,6842b561977af9ba9b0f87ca,,,,,,,,,,,181.1787,181.6784,,,181.9288,182.2952,right,0.3531,,,,,,,,,0.4,,,,,,181.6785,181.9288,182.2954,"[0.06794866042922618,-0.13546502380317585]",100.0,"[-0.1292055415630709,-0.011848349242025132]",100.0,"[0.17117430692598026,-0.04641625548029572]",4.0,"[-0.006855579675128524,-0.18654642479000094]",100.0,"[0.15777087771141535,0.052347962640404685]",4.0,"[-0.07594856049019225,-0.13128720228722496]",4.0,"[0.16289204183929984,0.09823328219121152]",4.0,"[0.07682052074036166,0.08501824793819332]",4.0,"[0.1457469728756145,-0.08454078256552258]",100.0,"[-0.02757336634989524,0.18620917221673472]",100.0,"[0.0540349530237727,0.008707497833511121]",100.0,"[0.08623834964682399,-0.07173877655068789]",4.0,"[0.11348896877947513,-0.03820730183356886]",100.0,"[-0.07297017935202275,-0.07617148388382027]",4.0,"[0.11282142907686023,0.0577253317834604]",4.0,"[0.0699423525730279,0.1762263641932331]",100.0,"[0.012905391122356216,0.03034320750032262]",4.0,"[-0.03612904042561078,-0.15105229441870105]",4.0,"[-0.19183959686839894,0.03834091117430102]",4.0,"[-0.06115403955070101,0.040032586490498914]",4.0,"[-0.02416399364314809,0.013353558993332364]",4.0,"[0.1226710812325007,0.13868591393829813]",4.0,"[-0.08413490706979858,0.0048087622955748305]",100.0,"[-0.09200122435702288,-0.17090935212058786]",100.0,"[0.0205697524950369,0.15085103940118333]",4.0,"[0.045033079782223026,-0.03145485456074912]",4.0,"[-0.0037726814484569313,-0.11165772397875019]",4.0,"[-0.11987501116621677,0.03785227542283683]",100.0,"[0.10480011768750237,0.013798465437577899]",4.0,"[-0.09876114390575057,0.1325199332460669]",100.0,"[-0.15886181617097422,-0.0895093385054711]",4.0,"[-0.1209162740562522,-0.11469691457122888]",100.0,"[0.02,0.02]",183.3951,0.0,38.0,38.0,156.0,1.0,,,,,,,
,,,,,,,615d8873c11a1982c8838b54,6842bbb5d7318522582b5f74,2025-06-06_13h00.40.339,shape_ratio,2024.1.5,Win32,60.60606061,6842b561977af9ba9b0f87ca,,,,,,,,,,,183.3955,183.8952,,,184.1454,184.5619,right,0.4026,,,,,,,,,0.45,,,,,,183.8952,184.1454,184.562,"[0.030307080976919715,0.10642098480860042]",100.0,"[-0.14608993912423934,-0.03900138174713853]",100.0,"[-0.007881104170715495,0.03746796062492257]",4.0,"[-0.01661117641212788,-0.008288507510540735]",100.0,"[0.06295570823441046,-0.08950809814623407]",100.0,"[0.1471082342701741,-0.030187115539159173]",4.0,"[0.1594969197142309,0.02733695868381682]",4.0,"[-0.0963900492275542,-0.08283447914815469]",4.0,"[-0.06158130593388705,0.0862062379163575]",100.0,"[-0.18418351887392526,0.07691586536561043]",4.0,"[-0.008768281907188327,-0.19774182466384962]",4.0,"[0.06896038542523786,0.0872267440679023]",100.0,"[-0.07681779247140329,-0.1356661164587365]",4.0,"[0.06441868798067066,0.1779609532799707]",100.0,"[0.12698927773017168,-0.1522331086483746]",100.0,"[-0.11621791252484363,0.007165085056550814]",4.0,"[-0.04549097471183222,-0.03737757535843156]",4.0,"[0.10618079133860797,0.16348163543067903]",4.0,"[-0.04649097802251877,0.1413067308490329]",4.0,"[-0.03938486255194596,-0.12152444303609303]",4.0,"[0.029881399671428634,-0.0017705615738742902]",100.0,"[0.17623873519765804,0.08212698091176525]",100.0,"[0.15115322061083197,0.12588195773118252]",4.0,"[0.062474138556573994,0.04705509440561945]",4.0,"[0.09128733473135656,-0.018117149565061583]",4.0,"[-0.1388658439234523,-0.13544929805434391]",100.0,"[-0.003867631939348517,-0.09448650648921883]",4.0,"[-0.15317079076724976,0.11496681355875071]",100.0,"[0.10450643603187074,0.11346555059128315]",4.0,"[-0.07210009788334178,0.03695866336144643]",100.0,"[-0.19727996167939488,-0.00340942382950505]",100.0,"[-0.07288720396379919,0.17198560483731792]",4.0,"[0.02,0.02]",185.6618,0.0,39.0,39.0,136.0,1.0,,,,,,,
,,,,,,,615d8873c11a1982c8838b54,6842bbb5d7318522582b5f74,2025-06-06_13h00.40.339,shape_ratio,2024.1.5,Win32,60.60606061,6842b561977af9ba9b0f87ca,,,,,,,,,,,185.6622,186.1617,,,186.4121,186.712,right,0.286,,,,,,,,,0.6,,,,,,186.1619,186.4121,186.7121,"[0.003667733617198156,0.12110687203875148]",4.0,"[0.016080660073248532,-0.058893103328901755]",100.0,"[0.15736476477202524,0.06492170882607663]",4.0,"[-0.022455750808735887,-0.03361153031526558]",100.0,"[0.14611574263522523,0.020202162713998557]",100.0,"[0.08563197464046414,0.002792738259135309]",100.0,"[-0.09471335453974356,-0.1211118515524458]",100.0,"[0.11116732186154532,0.05250058980595664]",100.0,"[0.054678481575005176,0.15625583960829265]",100.0,"[-0.08356228382349183,0.09251601429737003]",4.0,"[-0.1044067738154372,-0.07914345431478002]",4.0,"[0.04550178585727216,-0.18505447959689583]",4.0,"[-0.029041805743220336,-0.16745826323800939]",100.0,"[0.12341047435625617,-0.07958421862907536]",4.0,"[0.01975913558239362,-0.1402840692194712]",100.0,"[-0.026456866260405654,0.18071431025576232]",100.0,"[0.1140816148520742,0.11001653111745052]",4.0,"[0.060077366674009314,-0.09976715247656605]",4.0,"[0.1620937941643576,-0.05546877746582404]",100.0,"[0.09443644602297074,-0.16976653929710359]",4.0,"[0.02249254557478476,0.02786535092166638]",100.0,"[-0.14834981743940018,-0.11658544891375665]",4.0,"[-0.09663444899056216,0.17016536420247363]",4.0,"[-0.03503909003225816,-0.0849656714287913]",4.0,"[-0.050512876010949545,0.026790129240055555]",100.0,"[0.13463660223891752,-0.1321322717805002]",100.0,"[-0.1174412640392723,0.0344764106312442]",100.0,"[-0.0704961682775046,-0.16341271771049592]",100.0,"[-0.1694757837707388,-0.06322814136824215]",100.0,"[0.07276936238859029,-0.06011889511643442]",100.0,"[-0.17647754350261652,0.06670669698814492]",4.0,"[0.1928331382200201,0.006866650634949495]",100.0,"[0.02,0.02]",187.8118,0.0,40.0,40.0,45.0,1.0,,,,,,,
,,,,,,,615d8873c11a1982c8838b54,6842bbb5d7318522582b5f74,2025-06-06_13h00.40.339,shape_ratio,2024.1.5,Win32,60.60606061,6842b561977af9ba9b0f87ca,,,,,,,,,,,187.8124,188.3121,,,188.5621,188.7618,left,0.186,,,,,,,,,0.6,,,,,,188.3121,188.562,188.7618,"[0.09523683722930847,0.13538361686963282]",100.0,"[0.17378163741781263,-0.022357544602257987]",100.0,"[-0.06556326269946443,0.013819594726301418]",4.0,"[-0.10612450270028065,0.04123092931122914]",4.0,"[0.018127169686904778,-0.08073765012398366]",100.0,"[-0.1619857158486879,0.026372985998172116]",100.0,"[0.07143043007776406,0.057401139355260845]",100.0,"[-0.05415280926791544,-0.1689490023633106]",100.0,"[-0.0007776824816513397,0.024784748570145995]",100.0,"[0.14378319174433074,0.12988259651969358]",4.0,"[-0.030110876015463993,-0.07851603045116666]",100.0,"[-0.10249191989763509,-0.10073551345988489]",100.0,"[-0.02265326810782316,-0.12074761547795888]",100.0,"[-0.08470868273268345,0.09054903024461185]",4.0,"[0.13353255696185934,0.04440269318091734]",100.0,"[-0.046082895412319295,0.17675073936338884]",4.0,"[-0.1817706581275386,-0.052338433366533]",4.0,"[0.03726236297694809,-0.017733614410051658]",4.0,"[0.10658209054155793,-0.08169192312572622]",100.0,"[0.07953856561364173,0.09832573676825485]",100.0,"[-0.04127784406777613,0.050922493235852254]",4.0,"[0.05287287070155262,-0.19255391344760972]",100.0,"[-0.016406496553487797,-0.1961136530359353]",4.0,"[0.029128955749781436,0.18070312797567467]",100.0,"[0.029858101024986712,0.10402851692699532]",4.0,"[-0.14344766105886764,-0.13163756318149425]",100.0,"[0.11648603838950718,0.000015015719960579269]",100.0,"[-0.1517861873860417,0.08674105247514058]",4.0,"[0.11221666753424911,-0.13562539705091986]",100.0,"[0.030540266474972478,0.05049621222526397]",100.0,"[-0.11995862171286345,-0.032994543054518606]",4.0,"[0.14275278792714868,-0.048353107796738765]",4.0,"[0.02,0.02]",189.8618,0.0,41.0,41.0,52.0,1.0,,,,,,,
,,,,,,,615d8873c11a1982c8838b54,6842bbb5d7318522582b5f74,2025-06-06_13h00.40.339,shape_ratio,2024.1.5,Win32,60.60606061,6842b561977af9ba9b0f87ca,,,,,,,,,,,189.8621,190.3619,,,190.6122,191.062,left,0.4365,,,,,,,,,0.55,,,,,,190.3619,190.6121,191.0621,"[0.06909621699337161,-0.11379883562723353]",4.0,"[-0.13196537338836367,0.12501069315818664]",4.0,"[0.020516516491303424,0.01083167875314462]",100.0,"[0.0242057816958585,-0.033591393704958304]",100.0,"[-0.04536267916993606,0.0205913590329084]",100.0,"[0.167723090106907,-0.07178800816178399]",100.0,"[-0.027764954408574426,0.14420499791854774]",4.0,"[0.18595205451430907,-0.03466749273567407]",4.0,"[-0.13817213561790972,-0.058272215250956896]",100.0,"[-0.09234709008839549,-0.012061439184380842]",4.0,"[-0.07427331714914129,0.16941338767951789]",100.0,"[-0.011255474833948214,-0.09800281970259274]",4.0,"[0.05614269177586793,-0.18930139058627976]",100.0,"[0.03624729763395691,-0.14915528631323735]",100.0,"[-0.13327437298487715,-0.1486205430927382]",100.0,"[0.07596776751833985,0.06696536834778592]",100.0,"[0.15515148188511116,0.09444377040027785]",100.0,"[0.10587437375365746,-0.028601001813825352]",4.0,"[-0.08306447049001749,-0.11305895840901974]",100.0,"[-0.09201093991439203,-0.16113197511627425]",100.0,"[0.07385500650698476,-0.07192602957889715]",100.0,"[0.16817957683228088,0.03315828594933897]",4.0,"[-0.11101626621654909,0.06373559254035481]",100.0,"[-0.04086068000680528,-0.13402579843199394]",4.0,"[0.1463909257216164,-0.012499916264806527]",100.0,"[0.003184043485446844,0.08269824899056775]",4.0,"[0.10048557268504044,0.026859770419924447]",4.0,"[0.1474985237441822,-0.1326907398825934]",4.0,"[-0.17896975679521834,0.01095730745966666]",4.0,"[0.10022702328488431,0.11107826823181317]",100.0,"[-0.04464856185749327,0.08704215180726656]",100.0,"[0.0657369714143897,0.15768810898187835]",4.0,"[0.02,0.02]",192.162,0.0,42.0,42.0,72.0,1.0,,,,,,,
,,,,,,,615d8873c11a1982c8838b54,6842bbb5d7318522582b5f74,2025-06-06_13h00.40.339,shape_ratio,2024.1.5,Win32,60.60606061,6842b561977af9ba9b0f87ca,,,,,,,,,,,192.1624,192.6619,,,192.9121,193.3788,left,0.4547,,,,,,,,,0.55,,,,,,192.662,192.912,193.3788,"[0.08384237789672949,-0.0374950144295581]",100.0,"[-0.07113839044582787,-0.15064236854926158]",100.0,"[-0.09347616781692801,0.15876102094140734]",100.0,"[0.07166686210341372,-0.08900906288500247]",4.0,"[0.13548143262639664,-0.013752666172964195]",100.0,"[-0.14855132584476186,0.09883572038753363]",100.0,"[-0.020041902954438903,-0.05627058505993669]",4.0,"[-0.023384736690727107,0.12926935816520937]",100.0,"[0.049175137271550234,0.12257818590108889]",4.0,"[-0.05331401318244782,0.08627454192680127]",100.0,"[0.02058322762460402,0.03737578900505875]",100.0,"[0.04119952452445368,-0.027215248487521566]",4.0,"[-0.008258029865557182,0.17880874877413788]",4.0,"[-0.1769726121465497,0.0436600954047817]",100.0,"[-0.06992594381219801,-0.06794227128287611]",4.0,"[0.10051710415221472,0.10069875102475949]",4.0,"[0.16890049446092129,-0.09674249216320009]",100.0,"[-0.0992131284018094,-0.12155007225042266]",4.0,"[0.008424712516048935,-0.18469692378733926]",100.0,"[0.022814900444596883,-0.08056937522464604]",4.0,"[-0.1236697701475765,0.010254346389031933]",4.0,"[-0.09413776020797944,0.08782525743707477]",4.0,"[0.05691321310590222,0.08123523300059914]",100.0,"[0.007884073847490371,-0.13971778492170536]",4.0,"[0.08643444777765633,0.0478680431550271]",100.0,"[0.13721023418507397,0.06505165960117616]",4.0,"[-0.05091172313177293,0.009482472624773402]",100.0,"[-0.1838099038992233,-0.01979048129045701]",4.0,"[-0.1349247506779704,-0.039727945734005274]",100.0,"[0.053262158097114334,0.18382728803595286]",100.0,"[0.08964913904198794,0.15434980541329424]",100.0,"[0.16252851426922255,0.10327077078727062]",100.0,"[0.02,0.02]",194.4786,0.0,43.0,43.0,73.0,1.0,,,,,,,
,,,,,,,615d8873c11a1982c8838b54,6842bbb5d7318522582b5f74,2025-06-06_13h00.40.339,shape_ratio,2024.1.5,Win32,60.60606061,6842b561977af9ba9b0f87ca,,,,,,,,,,,194.4791,194.9786,,,195.2288,195.6292,left,0.3887,,,,,,,,,0.6,,,,,,194.9787,195.2288,195.6292,"[-0.06420362813065868,-0.15382722820603192]",4.0,"[-0.027586653427658998,-0.11043395870781969]",100.0,"[-0.0952042612488428,0.05667539448401116]",100.0,"[0.11050914526207616,-0.0639473007120813]",100.0,"[0.09292283234239458,0.15706640065106198]",100.0,"[-0.08596779826125392,-0.008608033816350648]",4.0,"[-0.16177875097671626,0.05244888299486366]",100.0,"[-0.1557602347863801,-0.04104027552656523]",100.0,"[-0.02357143434489022,-0.0503633331394986]",100.0,"[0.14225753810438319,0.059027537354065185]",100.0,"[-0.08101959944058788,-0.0655495121407727]",4.0,"[-0.1141524542305242,0.14346935928955834]",4.0,"[0.11237477807660504,-0.11349455870884331]",4.0,"[0.1220468471503916,0.12650172887602076]",100.0,"[0.09978473896706852,-0.1567062158510894]",100.0,"[-0.05380915208190448,0.14422489554464502]",100.0,"[0.07987079198587761,-0.005337098795530058]",4.0,"[-0.1639073399879864,0.09512796780263791]",4.0,"[-0.0032313077688590425,-0.15306346028838252]",100.0,"[-0.021340543066058718,0.10610421254665368]",4.0,"[0.09106153222446882,0.09301893644758674]",4.0,"[0.05057513079235032,-0.055599562018213866]",4.0,"[-0.0043787309483109505,0.014999067555638334]",4.0,"[-0.12203700760432937,-0.09222031823355793]",100.0,"[0.06218522828514533,-0.10590121285162259]",100.0,"[0.17956152961467525,0.08122903098398995]",100.0,"[-0.16886677054187138,-0.09005295768960474]",100.0,"[0.021751677621918236,-0.12001950669075422]",100.0,"[0.010464219016974384,0.17026139675605223]",4.0,"[0.03289116744400069,-0.1767874586535797]",4.0,"[-0.1812084061803886,-0.0010599796813185246]",100.0,"[-0.11249213455662757,-0.13632823412078948]",100.0,"[0.02,0.02]",196.7286,0.0,44.0,44.0,46.0,1.0,,,,,,,
,,,,,,,615d8873c11a1982c8838b54,6842bbb5d7318522582b5f74,2025-06-06_13h00.40.339,shape_ratio,2024.1.5,Win32,60.60606061,6842b561977af9ba9b0f87ca,,,,,,,,,,,196.729,197.2285,,,197.4788,197.7788,right,0.2918,,,,,,,,,0.9,,,,,,197.2286,197.4788,197.7789,"[-0.17848799457964948,-0.0518173073514086]",100.0,"[0.131552282066583,0.08154463381912741]",100.0,"[0.07369868018444672,-0.016177740623370178]",4.0,"[-0.14375490635405308,-0.088512760422446]",100.0,"[-0.013622466779048437,0.19380195454027294]",100.0,"[0.15876023905462563,-0.1187679232977205]",100.0,"[0.1635572757566573,0.01998711956510284]",100.0,"[0.017217777692761005,-0.026789729962358094]",100.0,"[-0.08873703508123146,-0.06832100634097059]",100.0,"[-0.1927675122502676,0.0019276066222703586]",100.0,"[-0.05568488401714894,-0.13583345299645702]",100.0,"[0.013152092884262405,0.10337156161939495]",100.0,"[-0.05253444404720983,-0.17998050044290526]",100.0,"[-0.018493323255341206,0.0391622333657901]",100.0,"[0.119880543137317,-0.005577785828661606]",100.0,"[0.06296586824315208,0.03542628272841646]",100.0,"[0.0064745150112981,-0.11982709086901046]",4.0,"[0.19875787287179317,-0.015574445583223783]",100.0,"[-0.12522634205056643,0.054656575823743156]",100.0,"[-0.06335208035610701,0.03442632579599094]",100.0,"[0.07213115142222105,0.11553883177923935]",100.0,"[0.12200177237052924,0.12403796508676927]",100.0,"[-0.08714255621901687,0.13655428730083388]",100.0,"[0.0766044239578273,-0.13971837848772395]",100.0,"[0.06481609572217932,-0.08690862339964203]",100.0,"[0.17029315487152738,0.1021627734045631]",100.0,"[-0.0840384944500735,0.179696788595794]",4.0,"[-0.13345988189598926,-0.035779250236180914]",100.0,"[-0.010342145297668614,-0.06266532329224138]",100.0,"[0.023478699906673988,-0.1561847217368546]",100.0,"[0.020336585467729647,-0.19742329890399074]",100.0,"[-0.020477568113903957,0.15394165240018787]",100.0,"[0.02,0.02]",198.8786,0.0,45.0,45.0,17.0,1.0,,,,,,,
,,,,,,,615d8873c11a1982c8838b54,6842bbb5d7318522582b5f74,2025-06-06_13h00.40.339,shape_ratio,2024.1.5,Win32,60.60606061,6842b561977af9ba9b0f87ca,,,,,,,,,,,198.8791,199.3787,,,199.6289,199.9788,left,0.3358,,,,,,,,,0.1,,,,,,199.3787,199.6289,199.9789,"[0.07037296370216166,-0.11889589442965794]",4.0,"[0.14190207468514382,-0.0015582603324491167]",4.0,"[-0.17886153030074894,-0.03582081035787701]",100.0,"[0.0529222827557616,0.0008888256386708154]",4.0,"[0.029069161609649966,0.11997360869556767]",4.0,"[-0.017303345131977087,-0.00913292120941152]",100.0,"[-0.13242288981180544,0.0574365596381275]",4.0,"[-0.19350605873837665,0.043427526213158915]",4.0,"[0.08783828308521115,-0.07157169957299876]",4.0,"[-0.041874476532766186,-0.12527420939312303]",4.0,"[-0.08786448592644207,-0.020326856924199208]",4.0,"[0.12073077336994936,0.09668509394673482]",4.0,"[-0.16732393312563304,-0.0919526382357051]",4.0,"[-0.0015393089089840645,0.07024714407538846]",4.0,"[-0.12576759175811594,-0.13318570932692236]",4.0,"[-0.00002331892088756454,-0.13985397775484942]",4.0,"[0.14545174517646844,-0.0708037967109482]",4.0,"[-0.05501724876230886,0.12563879343752934]",4.0,"[-0.06232661187507024,-0.06109255327853958]",4.0,"[-0.13142025319674086,-0.034598655373126744]",4.0,"[-0.09495145324039778,-0.16793582755060807]",4.0,"[0.09815569488299263,-0.16253029813957331]",100.0,"[0.03043098992364032,-0.0857139947408848]",4.0,"[0.1423515715555712,-0.13647324676145717]",4.0,"[-0.09205406454208397,0.06501042278276022]",4.0,"[-0.029673086834140827,0.18820182804933108]",4.0,"[-0.024621680052197465,-0.19128331336159]",4.0,"[-0.13439876261470518,0.1054387147890248]",4.0,"[0.002629608205973033,-0.05035391060437252]",4.0,"[0.03973891839742351,-0.17174558998099448]",4.0,"[0.06133265690986795,0.16903501639172056]",4.0,"[0.11799705734321765,0.032506590188119446]",4.0,"[0.02,0.02]",201.0787,0.0,46.0,46.0,203.0,1.0,,,,,,,
,,,,,,,615d8873c11a1982c8838b54,6842bbb5d7318522582b5f74,2025-06-06_13h00.40.339,shape_ratio,2024.1.5,Win32,60.60606061,6842b561977af9ba9b0f87ca,,,,,,,,,,,201.0791,201.5787,,,201.8288,202.2288,left,0.3862,,,,,,,,,0.1,,,,,,201.5787,201.8288,202.2288,"[-0.05752853147251576,-0.020008352480694134]",4.0,"[-0.08903182432772117,0.03788926213064077]",100.0,"[-0.12380137534339458,-0.011051401215867382]",100.0,"[0.14398406199190175,-0.011373615866323688]",4.0,"[-0.1555074499607849,0.09703434316884198]",4.0,"[-0.04604321298311454,0.13203436069428212]",4.0,"[-0.016344644421471845,-0.15230439727739556]",4.0,"[0.09819337143217313,-0.1144283610826322]",4.0,"[0.15356075924816948,-0.11782470505468506]",4.0,"[-0.023661638043834865,0.035070567866476984]",4.0,"[0.03946486773498888,-0.07298591495323282]",4.0,"[0.025739882826778897,0.03747690886799689]",4.0,"[-0.07241712317688925,-0.09584108947481067]",4.0,"[0.17917022728059925,-0.05851072295797688]",4.0,"[-0.0010168933675462257,0.13209989707775202]",4.0,"[0.07063758077951919,-0.02163795278754081]",4.0,"[-0.13141594546829388,-0.05305899909096823]",4.0,"[-0.01652598350214917,-0.02316101907765917]",4.0,"[-0.0999153591861006,-0.1405307201634038]",4.0,"[0.03753126841980201,-0.1877141483762428]",4.0,"[0.07092719087381615,0.13050343129354827]",4.0,"[0.06382757121731163,0.1747855977729795]",4.0,"[0.07698006251092868,-0.1518873957633532]",4.0,"[0.12610658929415192,0.056709213225599256]",4.0,"[0.12304838621099362,-0.06675303256391915]",4.0,"[-0.11903721646411668,0.13170214526816623]",4.0,"[-0.14023069035450575,-0.10320732515750865]",4.0,"[0.14753825337992144,0.09755328556502878]",4.0,"[0.0801320955064614,0.020213207916590318]",4.0,"[-0.1754159428174045,0.036617178009780385]",100.0,"[0.12221012830311288,-0.1545106058241751]",4.0,"[-0.1005185933113247,0.09503658315114787]",4.0,"[0.02,0.02]",203.3286,0.0,47.0,47.0,193.0,1.0,,,,,,,
,,,,,,,615d8873c11a1982c8838b54,6842bbb5d7318522582b5f74,2025-06-06_13h00.40.339,shape_ratio,2024.1.5,Win32,60.60606061,6842b561977af9ba9b0f87ca,,,,,,,,,,,203.329,203.8287,,,204.0789,204.3121,right,0.2234,,,,,,,,,0.55,,,,,,203.8287,204.0789,204.3121,"[0.029639136080091347,0.10491262794480899]",4.0,"[-0.06119667111524294,-0.05801130935925026]",100.0,"[0.08059525008616644,-0.008142955742873029]",4.0,"[0.17915828396141742,-0.01817646065034697]",4.0,"[-0.08542548146184602,-0.12893943227730081]",4.0,"[-0.1178813333262717,0.08248098756016979]",100.0,"[-0.0742038954483425,0.13865021165897906]",100.0,"[0.12864595997823408,-0.07955525985346978]",100.0,"[0.038498280204658474,0.0011736290146320465]",100.0,"[-0.13320267608333247,-0.028225492560899356]",100.0,"[-0.09513116352784852,-0.07960436709507218]",100.0,"[0.00822986774241278,0.19857403646464053]",4.0,"[0.1317191244009672,-0.13867488790015484]",100.0,"[-0.16295265272890924,0.0007404659204284948]",100.0,"[-0.023499167422936902,0.08232507244300698]",4.0,"[0.12231116592609928,0.023053925520814676]",4.0,"[-0.07720223270263955,-0.17327463807293755]",100.0,"[0.16968859184280816,0.06332227982364459]",100.0,"[0.09333155779100735,-0.17534293548477112]",100.0,"[0.038612336051216785,-0.1672537209522687]",4.0,"[-0.10321227173715876,0.02480697625606654]",4.0,"[-0.06638046494670487,0.05179317685406821]",100.0,"[0.07961523602130247,-0.05517098550693612]",4.0,"[0.13084054749539087,0.09473469084316065]",100.0,"[-0.18536172151687386,0.057126866772325466]",4.0,"[0.023676113268433968,-0.12530972184815553]",4.0,"[-0.03270217510298849,-0.02490748317088539]",4.0,"[0.07532095256026626,0.16660191131809202]",100.0,"[0.012168126604034603,-0.05869009831917835]",100.0,"[-0.05994208843688577,0.17717516227474783]",4.0,"[-0.02584913473757832,0.03399769826591364]",100.0,"[-0.13919826933708918,-0.11338666893266156]",100.0,"[0.02,0.02]",205.412,0.0,48.0,48.0,86.0,1.0,,,,,,,
,,,,,,,615d8873c11a1982c8838b54,6842bbb5d7318522582b5f74,2025-06-06_13h00.40.339,shape_ratio,2024.1.5,Win32,60.60606061,6842b561977af9ba9b0f87ca,,,,,,,,,,,205.4124,205.912,,,206.1626,206.4954,right,0.3287,,,,,,,,,0.4,,,,,,205.912,206.1625,206.4955,"[-0.15369724180875452,-0.09350840313588066]",4.0,"[0.09288993900711666,-0.04450741585053983]",100.0,"[0.07951719307019145,0.1783460149289146]",4.0,"[-0.08001961361175108,-0.16461720835401175]",4.0,"[0.1348246946306581,0.09778351473079508]",4.0,"[-0.1422908324231198,0.1075940478352712]",4.0,"[-0.11158956848954464,0.06931325517460588]",100.0,"[0.1871336382142028,0.06892926733145449]",4.0,"[0.0529828355857474,0.09173247249315732]",100.0,"[0.15336522900232707,0.024756782706392557]",100.0,"[0.046274635104124016,-0.03195438740206407]",100.0,"[0.014491225623904896,-0.1623245290248395]",4.0,"[-0.03767628129642266,-0.10463892560047033]",4.0,"[-0.02365345680869768,0.11144495021291566]",4.0,"[0.02604309841282576,0.05997414277820861]",100.0,"[-0.03286208547446777,-0.02939698728100859]",4.0,"[0.006166852263968882,0.18110483581134793]",100.0,"[0.15238505840943153,-0.09501087012252979]",4.0,"[-0.037638230133763204,0.058981991813518576]",4.0,"[0.06500995684478307,0.02733734737241311]",100.0,"[-0.03804683335703925,-0.17741614670208294]",4.0,"[0.06715511201938715,-0.10430326081799013]",4.0,"[-0.18819834472773023,-0.04021167332010267]",4.0,"[0.02328940865324234,-0.10663401512714245]",4.0,"[-0.08978020609774355,0.002975237519340656]",100.0,"[0.14916323469994439,-0.017076118623561624]",4.0,"[0.1377676022989201,0.1446051082028165]",4.0,"[0.13863869835218393,-0.13704377596495765]",100.0,"[-0.10002665947389683,-0.12085942842873859]",100.0,"[-0.05848106880105834,-0.06717103173197403]",100.0,"[0.19353635290693072,-0.03320397110400782]",100.0,"[-0.1244946097472858,0.02723947716039381]",4.0,"[0.02,0.02]",207.5956,0.0,49.0,49.0,150.0,1.0,,,,,,,
