right,left,explain.started,explain.stopped,key_resp_3.keys,key_resp_3.rt,key_resp_3.duration,participant,session,date,expName,psychopyVersion,OS,frameRate,study_id,explain_2.started,explain_2.stopped,key_resp_4.keys,key_resp_4.rt,key_resp_4.duration,explain_3.started,explain_3.stopped,key_resp_5.keys,key_resp_5.rt,key_resp_5.duration,fixation.started,fixation.stopped,practice.started,practice.stopped,response.started,response.stopped,key_resp.keys,feedback.started,feedback.stopped,trials_2.thisRepN,trials_2.thisTrialN,trials_2.thisN,trials_2.thisIndex,trials_2.ran,dot_ratio,key_resp.rt,key_resp.duration,explain_4.started,explain_4.stopped,key_resp_6.keys,key_resp_6.rt,key_resp_6.duration,dotDisplay.started,dotDisplay.stopped,ITI.started,polygon_1.pos,polygon_1.edges,polygon_2.pos,polygon_2.edges,polygon_3.pos,polygon_3.edges,polygon_4.pos,polygon_4.edges,polygon_5.pos,polygon_5.edges,polygon_6.pos,polygon_6.edges,polygon_7.pos,polygon_7.edges,polygon_8.pos,polygon_8.edges,polygon_9.pos,polygon_9.edges,polygon_10.pos,polygon_10.edges,polygon_11.pos,polygon_11.edges,polygon_12.pos,polygon_12.edges,polygon_13.pos,polygon_13.edges,polygon_14.pos,polygon_14.edges,polygon_15.pos,polygon_15.edges,polygon_16.pos,polygon_16.edges,polygon_17.pos,polygon_17.edges,polygon_18.pos,polygon_18.edges,polygon_19.pos,polygon_19.edges,polygon_20.pos,polygon_20.edges,polygon_21.pos,polygon_21.edges,polygon_22.pos,polygon_22.edges,polygon_23.pos,polygon_23.edges,polygon_24.pos,polygon_24.edges,polygon_25.pos,polygon_25.edges,polygon_26.pos,polygon_26.edges,polygon_27.pos,polygon_27.edges,polygon_28.pos,polygon_28.edges,polygon_29.pos,polygon_29.edges,polygon_30.pos,polygon_30.edges,polygon_31.pos,polygon_31.edges,polygon_32.pos,polygon_32.edges,dot_size,ITI.stopped,trials.thisRepN,trials.thisTrialN,trials.thisN,trials.thisIndex,trials.ran,break_2.started,break_2.stopped,trials_3.thisRepN,trials_3.thisTrialN,trials_3.thisN,trials_3.thisIndex,trials_3.ran
subject chose dot,subject chose diamond,0.0,22.4402,space,7.4162,,616494f1ae4537c01914c758,6842bb06e7f0cc789c6605ea,2025-06-06_10h56.58.324,shape_ratio,2024.1.5,Win32,59.17159763,6842b561977af9ba9b0f87ca,,,,,,,,,,,,,,,,,,,,,,,,,,,,,,,,,,,,,,,,,,,,,,,,,,,,,,,,,,,,,,,,,,,,,,,,,,,,,,,,,,,,,,,,,,,,,,,,,,,,,,,,,,,,,,,,,
,,,,,,,616494f1ae4537c01914c758,6842bb06e7f0cc789c6605ea,2025-06-06_10h56.58.324,shape_ratio,2024.1.5,Win32,59.17159763,6842b561977af9ba9b0f87ca,22.4409,60.2827,space,7.8252,,,,,,,,,,,,,,,,,,,,,,,,,,,,,,,,,,,,,,,,,,,,,,,,,,,,,,,,,,,,,,,,,,,,,,,,,,,,,,,,,,,,,,,,,,,,,,,,,,,,,,,,,,,,,
,,,,,,,616494f1ae4537c01914c758,6842bb06e7f0cc789c6605ea,2025-06-06_10h56.58.324,shape_ratio,2024.1.5,Win32,59.17159763,6842b561977af9ba9b0f87ca,,,,,,60.2833,65.0016,space,1.6926,,,,,,,,,,,,,,,,,,,,,,,,,,,,,,,,,,,,,,,,,,,,,,,,,,,,,,,,,,,,,,,,,,,,,,,,,,,,,,,,,,,,,,,,,,,,,,,,,,,,,,,,
,,,,,,,616494f1ae4537c01914c758,6842bb06e7f0cc789c6605ea,2025-06-06_10h56.58.324,shape_ratio,2024.1.5,Win32,59.17159763,6842b561977af9ba9b0f87ca,,,,,,,,,,,65.0676,65.5183,65.5195,65.7694,65.77,67.2526,,67.2532,68.353,0.0,0.0,0.0,0.0,1.0,0.2,,,,,,,,,,,,,,,,,,,,,,,,,,,,,,,,,,,,,,,,,,,,,,,,,,,,,,,,,,,,,,,,,,,,,,,,,,,,,,,,,,,,,,,,
,,,,,,,616494f1ae4537c01914c758,6842bb06e7f0cc789c6605ea,2025-06-06_10h56.58.324,shape_ratio,2024.1.5,Win32,59.17159763,6842b561977af9ba9b0f87ca,,,,,,,,,,,68.3552,68.8529,68.853,69.1082,69.1085,69.5858,right,69.5864,70.6874,0.0,1.0,1.0,1.0,1.0,0.8,0.4522,,,,,,,,,,,,,,,,,,,,,,,,,,,,,,,,,,,,,,,,,,,,,,,,,,,,,,,,,,,,,,,,,,,,,,,,,,,,,,,,,,,,,,,
,,,,,,,616494f1ae4537c01914c758,6842bb06e7f0cc789c6605ea,2025-06-06_10h56.58.324,shape_ratio,2024.1.5,Win32,59.17159763,6842b561977af9ba9b0f87ca,,,,,,,,,,,,,,,,,,,,,,,,,,,,70.6897,75.9746,space,2.2612,,,,,,,,,,,,,,,,,,,,,,,,,,,,,,,,,,,,,,,,,,,,,,,,,,,,,,,,,,,,,,,,,,,,,,,,,,,,,,,,,,
,,,,,,,616494f1ae4537c01914c758,6842bb06e7f0cc789c6605ea,2025-06-06_10h56.58.324,shape_ratio,2024.1.5,Win32,59.17159763,6842b561977af9ba9b0f87ca,,,,,,,,,,,76.0404,76.4895,,,76.7414,76.9565,right,,,,,,,,0.9,0.2019,,,,,,,76.4913,76.7412,76.9582,"[-0.0630545590463236,0.12194758812916662]",100.0,"[0.062271331286056004,-0.09402750082472545]",100.0,"[-0.09250937359887412,0.16335198047822203]",4.0,"[0.030581281693289622,0.06910471229656959]",100.0,"[-0.000051337820506598184,0.14978650399164262]",100.0,"[-0.16337502416821015,0.0994052166189957]",100.0,"[0.11826410635644431,0.04117375105426066]",100.0,"[-0.00039630885533494534,-0.13204096627914164]",100.0,"[0.10286483310321724,0.09760873641637156]",100.0,"[-0.12019922992517441,-0.14234024953554317]",100.0,"[-0.03369132294151274,0.18805834934315963]",4.0,"[0.030650633206046333,-0.034187940013493255]",100.0,"[-0.17887941558067372,-0.07861666620135134]",100.0,"[-0.08076091345969365,-0.026485787413117842]",100.0,"[-0.1516214085991376,0.015303117807725803]",100.0,"[0.07769279180367787,-0.007017065518822599]",4.0,"[-0.07508859113762097,-0.11088056012129197]",100.0,"[-0.05957698142611899,-0.07104870697034299]",100.0,"[-0.005780891149598236,0.051542620887533946]",100.0,"[0.009139416787024048,0.011527583678496583]",100.0,"[0.179804715344029,-0.012105080330814639]",100.0,"[0.11481322567382926,-0.15672043578579142]",100.0,"[-0.1881067582892726,0.03237331451818105]",100.0,"[-0.12382987853666425,-0.07991259636031939]",100.0,"[-0.0800804838933125,0.019693396838052806]",100.0,"[-0.05715738882023606,0.05934699778215092]",100.0,"[0.1431893092370621,-0.05010352538573623]",100.0,"[0.10540612983702219,-0.0979438936704078]",100.0,"[-0.09606373722893768,0.08991257418168264]",100.0,"[0.008413534061345228,-0.19137401306662183]",100.0,"[-0.1572177641961824,-0.12125594309061222]",100.0,"[-0.03608923948135372,-0.010247402254217152]",100.0,"[0.02,0.02]",78.0573,0.0,0.0,0.0,3.0,1.0,,,,,,,
,,,,,,,616494f1ae4537c01914c758,6842bb06e7f0cc789c6605ea,2025-06-06_10h56.58.324,shape_ratio,2024.1.5,Win32,59.17159763,6842b561977af9ba9b0f87ca,,,,,,,,,,,78.0586,78.5562,,,78.8075,79.3411,left,,,,,,,,0.6,0.5184,,,,,,,78.5563,78.8075,79.3412,"[-0.076515331814756,-0.1521506795821783]",100.0,"[-0.08532765264695975,0.031075713052907742]",4.0,"[-0.06154274286338491,-0.10113335668620654]",4.0,"[-0.1849254530155148,0.07500922017044218]",4.0,"[0.12119732012848064,-0.08957097332606986]",4.0,"[-0.16057230822893728,-0.08474775930033385]",100.0,"[-0.140719933393819,-0.12145109195799589]",4.0,"[0.1735958814494825,0.054611758052682556]",100.0,"[0.0216783847138295,-0.010865772649770383]",4.0,"[-0.0222313715792027,-0.05928971476846528]",4.0,"[-0.14241990734311424,0.04396199613896745]",100.0,"[-0.03484516565127726,0.06972553255163344]",4.0,"[0.04630318148889852,0.11995648218824777]",100.0,"[-0.16837380185231954,-0.04055187424630774]",100.0,"[-0.03933663597598376,0.1470190507393499]",100.0,"[0.05810916527542223,-0.06242571598036941]",100.0,"[0.15053734081766562,-0.05713233742345589]",100.0,"[0.16746444492947724,-0.008043448026300208]",4.0,"[-0.02148881527784174,-0.16986559465073875]",4.0,"[0.09133364950035922,0.15398577796059928]",100.0,"[0.09648405491997863,-0.0368250358410425]",100.0,"[0.0003396180774682671,-0.11141897224181206]",100.0,"[-0.10126680729796185,-0.08178879783692126]",100.0,"[0.11223631329191237,-0.13519795678871505]",100.0,"[0.045199283677172734,-0.17489571631606418]",4.0,"[-0.06097832409921224,-0.012591264354868568]",100.0,"[0.025535664194873547,0.06309544278289395]",4.0,"[0.008999231326212435,0.14267654416441694]",100.0,"[-0.1944351012493068,-0.008420654633746246]",4.0,"[0.06468973993123116,-0.007419765617238179]",100.0,"[-0.08810509358962443,0.11710890297297664]",100.0,"[-0.021699880566580267,0.01221154447761255]",100.0,"[0.02,0.02]",80.4411,0.0,1.0,1.0,48.0,1.0,,,,,,,
,,,,,,,616494f1ae4537c01914c758,6842bb06e7f0cc789c6605ea,2025-06-06_10h56.58.324,shape_ratio,2024.1.5,Win32,59.17159763,6842b561977af9ba9b0f87ca,,,,,,,,,,,80.4422,80.9413,,,81.1961,81.8089,right,,,,,,,,0.6,0.5924,,,,,,,80.9414,81.196,81.8093,"[0.10466827566895391,-0.02350268207951476]",100.0,"[-0.18042840087054773,-0.0339492468225792]",100.0,"[-0.10199053398104924,-0.03383482824965716]",4.0,"[-0.09939104098510171,0.16086050542661814]",100.0,"[0.023177748578102744,0.01426656675086577]",100.0,"[0.004582324457750413,0.06317957523554384]",4.0,"[-0.15410723918354718,-0.07946428864406735]",100.0,"[0.10458856268736792,0.060116217152755044]",4.0,"[0.03002720629808852,-0.03583066915968239]",100.0,"[0.13001792580597551,0.09553931332849097]",4.0,"[-0.035809851245888466,-0.0649718076529871]",4.0,"[0.17160990761960793,-0.05915982337371518]",100.0,"[-0.025461441076841847,-0.14983064474153676]",4.0,"[-0.05192277677170753,0.0938184997750993]",100.0,"[-0.042731819839028566,-0.011185445104246301]",4.0,"[-0.12744428163862512,-0.1259858280724235]",4.0,"[-0.10891778570576202,0.082538283242353]",100.0,"[-0.06898637204963436,0.026852670988659875]",4.0,"[0.07026907704744606,-0.08162641046574667]",100.0,"[0.143221787080486,-0.12156903600001334]",100.0,"[-0.1514877352694567,0.12502257162019506]",4.0,"[-0.026327057550131403,0.13522080926710753]",4.0,"[0.18971962385760624,0.005106470784993456]",100.0,"[0.018021363151926782,0.18036559625109613]",100.0,"[0.18459327216556984,0.059212377451440264]",100.0,"[0.14934356129942358,0.1305834210706292]",100.0,"[0.017717363374080104,-0.16507326801297173]",4.0,"[-0.1535743280254669,0.06650947112318778]",100.0,"[-0.06267659279633073,-0.1721569493333331]",100.0,"[0.06424022638702641,0.02254665072038022]",4.0,"[0.1436674936525223,0.04660606915913555]",100.0,"[0.09873578829685996,0.14094890513261954]",100.0,"[0.02,0.02]",82.9086,0.0,2.0,2.0,52.0,1.0,,,,,,,
,,,,,,,616494f1ae4537c01914c758,6842bb06e7f0cc789c6605ea,2025-06-06_10h56.58.324,shape_ratio,2024.1.5,Win32,59.17159763,6842b561977af9ba9b0f87ca,,,,,,,,,,,82.9101,83.409,,,83.6605,84.293,left,,,,,,,,0.45,0.6156,,,,,,,83.4091,83.6604,84.2933,"[0.13103511541593849,0.020200735916175713]",100.0,"[-0.07139027691107837,-0.018156813999592843]",100.0,"[-0.040036607752308245,-0.18242907218430032]",4.0,"[0.03242278606971741,-0.18073304689224218]",100.0,"[0.0866519705129899,0.1381961147439122]",4.0,"[-0.13527336522627062,-0.05881570317580937]",4.0,"[0.1697846311024991,0.005555308236085852]",100.0,"[-0.17631221230361693,-0.020545390458126943]",4.0,"[-0.11134839713084091,0.15453988114310147]",100.0,"[-0.05251269106092095,-0.1383893993184006]",4.0,"[-0.15966446930207642,0.04068158944374062]",100.0,"[0.02439436872846963,-0.06528191985489204]",100.0,"[-0.04079511896590036,0.1538106811574742]",100.0,"[-0.020800487714917174,-0.05406790789899163]",4.0,"[-0.09262304205415668,-0.09920099685782123]",4.0,"[-0.06562477333206893,0.09267398607057799]",4.0,"[-0.02332245213018721,0.027733790976305704]",4.0,"[0.14767444264497265,-0.06924465319119423]",4.0,"[-0.10853813614475115,0.09707638437182502]",100.0,"[0.028489062507275415,0.12774022453677109]",4.0,"[0.10099675727130944,-0.08760902620271174]",4.0,"[0.03265744239216179,-0.10801924893494505]",4.0,"[0.10027807318169042,-0.15460050517878496]",100.0,"[-0.005500548157772135,0.17931251836089]",100.0,"[0.07214960547189869,-0.11973092584117867]",4.0,"[0.021652043023325178,-0.0004902034520235066]",4.0,"[0.07877714168194051,0.026983738029008993]",100.0,"[0.08967671087316273,-0.037492948882646884]",100.0,"[0.14827274132602597,0.06262066585613751]",100.0,"[-0.1513206573762294,0.0978569708388364]",4.0,"[-0.1035897931167837,-0.13846100418715207]",4.0,"[-0.11289214208532623,0.04993829150919278]",4.0,"[0.02,0.02]",85.3937,0.0,3.0,3.0,141.0,1.0,,,,,,,
,,,,,,,616494f1ae4537c01914c758,6842bb06e7f0cc789c6605ea,2025-06-06_10h56.58.324,shape_ratio,2024.1.5,Win32,59.17159763,6842b561977af9ba9b0f87ca,,,,,,,,,,,85.3952,85.8937,,,86.1461,86.6124,right,,,,,,,,0.55,0.4523,,,,,,,85.8939,86.146,86.6126,"[0.15320726578939778,0.06313021383501055]",100.0,"[-0.025530513274808375,0.15745947834189053]",100.0,"[0.0401545947321204,0.011174054432510907]",100.0,"[0.035043788110355675,0.1834373494568935]",100.0,"[0.019991813413493285,0.08771837534375952]",100.0,"[-0.16352767246363678,-0.09020009823480216]",4.0,"[0.15018575129771153,-0.003135025459369886]",100.0,"[0.020587427844188128,-0.04529094594717605]",100.0,"[0.10142739410376952,-0.05085270556253731]",4.0,"[0.08858198359251054,0.013505733157980688]",100.0,"[-0.11923484964145846,-0.050751709201478507]",4.0,"[0.06737824140315829,-0.16451816863431956]",4.0,"[-0.11474518020799426,0.05528207882452947]",4.0,"[-0.03140231133899415,-0.1934995417784297]",4.0,"[0.1164580573867084,0.13643342650483217]",100.0,"[-0.15164327651662132,0.09043015067066001]",100.0,"[-0.03256064348807472,-0.029397898712278603]",4.0,"[-0.07580014297142489,0.14017827228153748]",100.0,"[-0.04659305357127229,0.08581985087707963]",4.0,"[-0.017313908453607193,-0.07465255331420412]",100.0,"[0.043384362983795,-0.10209397873967557]",4.0,"[0.05527846967201809,0.10930572950173816]",4.0,"[-0.07006264983207959,-0.05538597669303189]",4.0,"[-0.11566974832030676,-0.15331802662322616]",4.0,"[-0.1921393334058012,0.02791330358130015]",100.0,"[0.09387172683078297,0.05955915200405719]",100.0,"[-0.004714675850973539,-0.00021233782567115907]",100.0,"[-0.026334704424864967,-0.11808466990978633]",100.0,"[0.1826086496213379,0.025395239319400888]",4.0,"[0.02968400915133763,-0.1933100880821467]",100.0,"[0.06880267345623313,-0.02489541702117318]",100.0,"[-0.08078454584187796,0.0007211964007282392]",4.0,"[0.02,0.02]",87.7114,0.0,4.0,4.0,65.0,1.0,,,,,,,
,,,,,,,616494f1ae4537c01914c758,6842bb06e7f0cc789c6605ea,2025-06-06_10h56.58.324,shape_ratio,2024.1.5,Win32,59.17159763,6842b561977af9ba9b0f87ca,,,,,,,,,,,87.7129,88.2121,,,88.4631,88.9127,left,,,,,,,,0.1,0.4341,,,,,,,88.2122,88.463,88.9128,"[-0.15589317082339557,0.06906299276201949]",4.0,"[-0.11971937701225253,-0.13512574386872167]",4.0,"[0.13748738685254852,-0.048272934734838624]",4.0,"[-0.10998783525381198,-0.03249425915696453]",4.0,"[-0.10140589144212242,0.0603181815519003]",4.0,"[-0.014844335261430239,0.11556144728752071]",4.0,"[0.11826201042351116,0.04614978496190718]",4.0,"[-0.12343532915089833,0.1359307323059477]",4.0,"[0.0006256882538160442,0.054776997412161285]",4.0,"[0.013903953084900873,0.174514228711506]",4.0,"[-0.04475081058492763,0.03750654271459504]",100.0,"[0.08409969996787162,0.1369723746470308]",4.0,"[0.047928185840612654,-0.11891820304268161]",4.0,"[-0.1654098381089359,-0.0358359361033]",4.0,"[0.15698425062215707,0.11105166541345056]",4.0,"[-0.06913855132281528,0.12409152040807576]",4.0,"[0.10012209462807986,-0.030666142987943016]",4.0,"[0.038095369212331545,0.040481487846193424]",4.0,"[0.12232674922513592,-0.13917184572729077]",4.0,"[0.044389626647026,0.10740891957989813]",100.0,"[0.1759536229144003,0.05830940116069686]",4.0,"[0.16654205265709787,-0.08989390665619826]",100.0,"[-0.05875377942277835,-0.15433557924225555]",4.0,"[-0.12838404127639186,-0.08369427825365748]",4.0,"[-0.016597419193385508,-0.07029759290875608]",4.0,"[0.05120161676608916,-0.16684653619154272]",4.0,"[0.0796059605202026,0.07307866001419265]",4.0,"[0.18964499758049685,0.006846887499521416]",4.0,"[-0.19183319646566574,0.0368069399693586]",4.0,"[0.055459815167284515,-0.0387687713449517]",4.0,"[-0.004654074963201215,-0.016859476164229517]",4.0,"[-0.06353395038508133,-0.06846549124754779]",4.0,"[0.02,0.02]",90.0125,0.0,5.0,5.0,199.0,1.0,,,,,,,
,,,,,,,616494f1ae4537c01914c758,6842bb06e7f0cc789c6605ea,2025-06-06_10h56.58.324,shape_ratio,2024.1.5,Win32,59.17159763,6842b561977af9ba9b0f87ca,,,,,,,,,,,90.0139,90.5115,,,90.7638,91.5303,right,,,,,,,,0.4,0.7489,,,,,,,90.5115,90.7638,91.5305,"[-0.16271000912738784,-0.11351855148087604]",4.0,"[-0.03130701540774614,0.06239827424166102]",100.0,"[0.06125117504283911,-0.04242549614375541]",100.0,"[-0.14908170632954942,0.09831734803056473]",4.0,"[0.02248459645688748,0.11443197834883523]",100.0,"[-0.08396673434840896,0.048172783302332454]",4.0,"[-0.18380468517497084,-0.02783923175082054]",100.0,"[-0.05670701757527506,0.11553766184446838]",100.0,"[0.08821892720435688,0.10993292376079529]",100.0,"[-0.06599003042993642,-0.12294605215420017]",4.0,"[0.05774830414481979,0.0047938852274756315]",100.0,"[0.1550908289167161,0.07738564588442223]",4.0,"[0.0012477478186225291,-0.028274085258429886]",100.0,"[0.02691761681995725,-0.16270202756139673]",4.0,"[0.01070042912889361,-0.12204910786721375]",100.0,"[-0.13209573869447172,-0.06473735572775961]",4.0,"[0.12950139808898617,-0.15217002690971596]",100.0,"[0.13551864207620684,0.009067153819895622]",4.0,"[-0.08002785822477473,-0.011340024280620867]",4.0,"[0.008328603367540006,0.16493402699202753]",4.0,"[-0.0915881415373504,0.16026188702164562]",4.0,"[-0.15504449421795977,0.004553344381927842]",100.0,"[-0.04936347571272532,0.1653921532208586]",4.0,"[0.1727043093573648,-0.09539661725241387]",4.0,"[0.020930795389761708,0.032089712278142994]",4.0,"[0.08277157474986319,0.06301471274571323]",4.0,"[-0.057179765322865034,-0.061064689814747074]",100.0,"[-0.10243121606376462,0.08519492868121885]",4.0,"[-0.12108469902348293,-0.1310706155314389]",4.0,"[0.16495894221205246,-0.052127565432981464]",4.0,"[-0.17046399449951335,0.06245032320075437]",100.0,"[-0.05898222738164884,-0.1759005248669938]",4.0,"[0.02,0.02]",92.6302,0.0,6.0,6.0,158.0,1.0,,,,,,,
,,,,,,,616494f1ae4537c01914c758,6842bb06e7f0cc789c6605ea,2025-06-06_10h56.58.324,shape_ratio,2024.1.5,Win32,59.17159763,6842b561977af9ba9b0f87ca,,,,,,,,,,,92.6317,93.1303,,,93.3796,94.1981,left,,,,,,,,0.55,0.8077,,,,,,,93.1303,93.3796,94.1985,"[0.027659705581994855,-0.1869815166512245]",4.0,"[-0.1042086491590849,-0.10836921425856282]",100.0,"[-0.09959384835637686,-0.1522834467380476]",100.0,"[0.015390931165503911,-0.1037963916434471]",100.0,"[-0.19892227846174088,-0.0012102644420160188]",100.0,"[-0.03859885455456664,-0.048789813214676216]",4.0,"[0.1689060859202149,0.09668744494364763]",4.0,"[0.11677756612084195,-0.15210320309288547]",100.0,"[0.16680990317791128,0.04076531864429571]",4.0,"[0.08033941665145716,-0.06060642940692976]",100.0,"[0.07646618853840444,0.09199386694671845]",100.0,"[0.045900939936675836,0.04195567550081642]",100.0,"[-0.02393017055721154,-0.1823281916391668]",100.0,"[-0.0552050872424664,0.0634120002698061]",4.0,"[0.12034612303344933,0.1352512223645451]",4.0,"[-0.054238872095116235,-0.15003432130811425]",4.0,"[-0.14364168756361081,-0.07891912631920622]",100.0,"[0.10780671184221802,0.036205596010866446]",4.0,"[-0.12307244022175255,0.08802185446558133]",100.0,"[-0.18143097502587188,-0.05911387093529248]",4.0,"[-0.1054799456816804,-0.0031241207692861454]",4.0,"[0.1623951784357573,-0.0113521982895049]",4.0,"[0.13297375352165194,-0.10961294290276129]",100.0,"[-0.057820859455677574,0.0035867831716111225]",100.0,"[0.027093166846827835,-0.008555408726014551]",4.0,"[-0.038376871275939785,0.1457145476791382]",4.0,"[-0.09760389698359297,-0.05679839558613757]",100.0,"[0.028861072738540303,0.1356787849583441]",4.0,"[0.07914806401446364,-0.17946506114443522]",100.0,"[-0.14025562755008766,0.048307602735222145]",100.0,"[0.07659845835420138,0.0009567925204592278]",100.0,"[-0.06918284571322253,0.17712916272493848]",100.0,"[0.02,0.02]",95.2981,0.0,7.0,7.0,76.0,1.0,,,,,,,
,,,,,,,616494f1ae4537c01914c758,6842bb06e7f0cc789c6605ea,2025-06-06_10h56.58.324,shape_ratio,2024.1.5,Win32,59.17159763,6842b561977af9ba9b0f87ca,,,,,,,,,,,95.2995,95.798,,,96.0494,96.5809,right,,,,,,,,0.5,0.5216,,,,,,,95.7981,96.0492,96.5809,"[0.1142595320147927,0.09404982921999246]",4.0,"[-0.04898338682288803,0.08319263237628687]",100.0,"[-0.09601999496176578,0.054180687175890294]",4.0,"[0.13836832364397939,0.0054405817640563224]",100.0,"[-0.08253568758050879,0.11643011111629328]",100.0,"[-0.15423068446702776,0.05394246815322793]",100.0,"[0.14382431426713702,-0.07268564663468025]",4.0,"[0.17374038404022918,0.05336447868704791]",100.0,"[-0.012051740947495098,-0.08102570867973184]",4.0,"[-0.10462678440339362,-0.11484811439150847]",4.0,"[-0.06958336934349434,-0.17863840408961884]",4.0,"[0.018187365679007826,0.16344795024789938]",100.0,"[0.0024925643404907,0.060884563115004134]",4.0,"[0.1018038061625124,-0.15556256804067947]",100.0,"[-0.007674158482992308,-0.1906545796594475]",4.0,"[-0.05288186255125856,0.15376459145870888]",100.0,"[0.04413236082311143,-0.15029482605319283]",100.0,"[0.1887969768639566,-0.014492620543161106]",4.0,"[-0.09948530761513771,-0.05001079009669943]",100.0,"[0.0698817841645588,-0.0014338894910671078]",4.0,"[0.07009237992153688,0.18222313393882592]",100.0,"[-0.026819996056921352,0.011135613383494392]",4.0,"[-0.17680471321519722,-0.0772882803728953]",4.0,"[-0.13039692898952585,0.011294146285246632]",4.0,"[-0.1618844909079988,0.10440173073331921]",100.0,"[0.030846550540516483,-0.04118168735934245]",100.0,"[0.0024335972747885713,0.10589123039384511]",4.0,"[-0.11528783656559224,0.15215420264029064]",100.0,"[-0.022282759293623212,-0.12827510858187519]",100.0,"[-0.019483818387662215,0.19812161878470558]",4.0,"[0.15188698002044804,-0.0330847856080132]",4.0,"[0.09253263623387772,0.04833959986952905]",100.0,"[0.02,0.02]",97.6831,0.0,8.0,8.0,112.0,1.0,,,,,,,
,,,,,,,616494f1ae4537c01914c758,6842bb06e7f0cc789c6605ea,2025-06-06_10h56.58.324,shape_ratio,2024.1.5,Win32,59.17159763,6842b561977af9ba9b0f87ca,,,,,,,,,,,97.6844,98.1827,,,98.4343,98.8337,right,,,,,,,,0.4,0.3849,,,,,,,98.1828,98.4342,98.8339,"[-0.09882395188130708,-0.1255183881829893]",4.0,"[-0.02281653166818274,-0.07713999050923769]",100.0,"[0.11627389277822754,0.05022433485775715]",100.0,"[0.09313540892700824,-0.11046986282970762]",4.0,"[-0.054056729748034306,-0.12185123065137503]",100.0,"[-0.12213773539306534,0.15570395833749412]",100.0,"[0.014904290023706393,-0.14967869228302666]",4.0,"[0.16626530308264273,-0.009133663174961228]",4.0,"[-0.06286107349638387,0.06765865085846758]",4.0,"[-0.0176447399885606,0.032355205180817095]",4.0,"[-0.12351436601193529,0.024897208380515793]",4.0,"[0.11466153095447117,0.10655532804820983]",4.0,"[0.05290900627328776,-0.052230332655776625]",100.0,"[0.010532199100002122,-0.0028485222096969053]",100.0,"[0.17703174753734416,0.0924148450794613]",100.0,"[-0.11465437975296798,-0.08374842244799958]",4.0,"[0.026054477639685117,0.06699517827988889]",100.0,"[-0.16544642584571526,-0.1117519401643096]",100.0,"[0.012717315507013657,-0.05226512852932628]",100.0,"[0.13899347216156407,0.14069499195326599]",4.0,"[0.02656247322180837,0.16634439214999167]",4.0,"[0.1261125132399161,-0.03720922942606692]",100.0,"[-0.031755913912545446,0.1299636959318757]",100.0,"[-0.013464282152549228,-0.11748563909531466]",4.0,"[-0.08062017993228938,0.1500742955448603]",4.0,"[-0.1669982486573271,0.025791323532306582]",4.0,"[-0.03311295907233419,-0.012097090152026745]",4.0,"[-0.016602755192006942,0.08985753312456275]",4.0,"[0.023828244224364747,0.12049538484297345]",4.0,"[0.052728056118444,-0.004277475300718344]",4.0,"[0.08347676178564603,0.022230443376901228]",100.0,"[0.08851480522276113,0.1647374503184098]",4.0,"[0.02,0.02]",99.9337,0.0,9.0,9.0,179.0,1.0,,,,,,,
,,,,,,,616494f1ae4537c01914c758,6842bb06e7f0cc789c6605ea,2025-06-06_10h56.58.324,shape_ratio,2024.1.5,Win32,59.17159763,6842b561977af9ba9b0f87ca,,,,,,,,,,,99.9348,100.4334,,,100.6854,101.3515,left,,,,,,,,0.55,0.6559,,,,,,,100.4336,100.6853,101.3517,"[-0.08546730792463657,0.020245928788378366]",4.0,"[0.18864389254373012,0.03488385225162189]",4.0,"[-0.0009524080855760362,0.12429186177525053]",100.0,"[0.09434050967648788,-0.00792436869577702]",100.0,"[0.0743642862861053,0.17242394213288895]",100.0,"[-0.008052000717568784,0.022724546143425617]",4.0,"[0.1661305291630357,-0.10139448991656651]",100.0,"[-0.06679319361117188,0.1498104782613163]",100.0,"[-0.05708070897429049,-0.15667060009002245]",4.0,"[0.0590550489367631,-0.17260033069998632]",4.0,"[-0.015933538195125146,-0.15319696686501758]",100.0,"[0.12755303378589064,0.08559397095342292]",4.0,"[-0.03200985608132463,0.06926497111866563]",100.0,"[0.1067002351222134,0.03496176511516708]",4.0,"[-0.16002531927094768,-0.07276118743362933]",100.0,"[-0.15423978819024556,0.0661780413112425]",100.0,"[-0.07753421564519937,-0.033990656440863444]",100.0,"[0.15296698618925644,-0.04893622502769612]",100.0,"[-0.05433207084227978,-0.08735323959795335]",100.0,"[0.04968232688846549,0.0463640700473642]",4.0,"[-0.00032702156998209536,-0.0550058619354201]",4.0,"[-0.05260093754364826,0.1047949321337772]",100.0,"[0.055942003718718374,-0.0807203923579804]",100.0,"[0.04627998063641089,-0.0022369091306214824]",4.0,"[-0.1113662505593063,-0.07075210671257162]",100.0,"[-0.12082342353484658,0.11813468630889427]",4.0,"[0.016210151373344164,-0.18780251223905053]",4.0,"[-0.19281611301192042,-0.0026184362971269177]",100.0,"[-0.10891616719812373,-0.14266340668840544]",4.0,"[0.12258567896266755,-0.08708266323468195]",100.0,"[-0.12972104304232807,0.026617516290531152]",4.0,"[0.08897566498031224,0.1328178764883566]",100.0,"[0.02,0.02]",102.4499,0.0,10.0,10.0,84.0,1.0,,,,,,,
,,,,,,,616494f1ae4537c01914c758,6842bb06e7f0cc789c6605ea,2025-06-06_10h56.58.324,shape_ratio,2024.1.5,Win32,59.17159763,6842b561977af9ba9b0f87ca,,,,,,,,,,,102.4534,102.9513,,,103.2023,103.7684,right,,,,,,,,0.6,0.5568,,,,,,,102.9514,103.2023,103.7686,"[-0.04158706831435817,0.03239292367473718]",100.0,"[0.14400454822917738,-0.138275343789172]",100.0,"[-0.1759560392805044,-0.08258687094656102]",4.0,"[-0.10215731648908778,0.11227839198691987]",4.0,"[-0.0018124403391710433,0.1909336435540579]",100.0,"[0.08247150894544104,0.016495835110371906]",100.0,"[-0.07380394103821815,0.1410464313858704]",100.0,"[-0.10398924764541033,-0.0678175715427622]",4.0,"[0.15753179714215612,-0.04305123212789854]",4.0,"[0.16868768550360588,-0.0031124998497216298]",100.0,"[-0.06783689791697899,-0.04626070455655672]",100.0,"[-0.03245518564849367,-0.07334983587586974]",100.0,"[0.05674434700443639,-0.16663719081074188]",4.0,"[0.03548075878642648,0.15821493491670627]",100.0,"[-0.04928894279527047,-0.12194972291941399]",100.0,"[-0.040306761373850634,0.09490444066719396]",4.0,"[-0.04490339928049267,-0.18435364921925532]",4.0,"[0.07607837492967048,0.17726542049768163]",4.0,"[0.07470559844348308,-0.09557652456620656]",100.0,"[0.16603343247568061,-0.08893630774632778]",100.0,"[-0.09717374884682704,0.054561988655228794]",4.0,"[0.15523378410101743,0.036618533705110305]",4.0,"[0.01918833466498407,-0.04837067119771752]",100.0,"[0.08483114030943803,0.13224401373136366]",100.0,"[-0.035134697845547014,0.16252486167132488]",4.0,"[0.09241130796144305,0.06408288385940425]",4.0,"[-0.1721309112328509,-0.038624083155693746]",100.0,"[-0.13741270802392885,0.0494497717061259]",100.0,"[-0.12502927383318613,-0.1264624349601516]",100.0,"[-0.09010666287870678,-0.16308629806972197]",100.0,"[-0.14068349968086347,0.09208861623867186]",4.0,"[0.028435555143430657,0.08130971850526975]",100.0,"[0.02,0.02]",104.8682,0.0,11.0,11.0,47.0,1.0,,,,,,,
,,,,,,,616494f1ae4537c01914c758,6842bb06e7f0cc789c6605ea,2025-06-06_10h56.58.324,shape_ratio,2024.1.5,Win32,59.17159763,6842b561977af9ba9b0f87ca,,,,,,,,,,,104.8691,105.3679,,,105.62,106.2364,left,,,,,,,,0.1,0.6042,,,,,,,105.368,105.62,106.2365,"[0.0087089902505601,-0.17360115376745094]",4.0,"[0.06616074055013026,-0.10345072025131449]",4.0,"[0.03210653626656436,0.15113940671642706]",4.0,"[0.15306293060338766,-0.08779682566426887]",100.0,"[0.09440755724450915,0.02188896700778037]",4.0,"[0.14861292580801727,-0.042699202765215806]",4.0,"[0.18034031706832016,0.054335621149372966]",4.0,"[0.0025858431508359397,0.07059856995955237]",4.0,"[-0.06615898210899716,-0.11145786312123546]",4.0,"[-0.026367996622162833,0.021036913952423686]",4.0,"[-0.11661924141519636,0.054766151059044324]",4.0,"[0.0806831990394176,0.163285766124503]",4.0,"[0.011694892633917254,-0.13154624444819005]",4.0,"[0.003547685248174211,-0.0263214997596187]",4.0,"[0.007012042152860786,-0.06939812899541747]",100.0,"[-0.009674093071582783,0.11829110193250288]",4.0,"[0.09220086745292573,0.10398837017761575]",4.0,"[-0.15855879191428474,0.01560739382116969]",4.0,"[-0.08661478938992823,0.1162052622779351]",4.0,"[0.045553530992907806,0.009084586634854497]",4.0,"[-0.15854439401588427,-0.11083716610017888]",4.0,"[-0.16667677076283924,0.08243554728388597]",4.0,"[0.11433868950461196,-0.06962621668329606]",4.0,"[0.12311703359350902,0.054500388846898944]",4.0,"[-0.09423764142772428,-0.0704051962578149]",100.0,"[-0.11141145222870166,-0.11239793206028907]",4.0,"[-0.10713016795897938,-0.008689654637377371]",4.0,"[-0.15509905829794485,-0.03164108604354569]",4.0,"[0.052244882570563596,-0.038827342033781805]",4.0,"[-0.06456216352668742,0.05809494759439257]",4.0,"[-0.05719350133588193,0.16447550834578864]",4.0,"[-0.13497864406701088,0.12378777341682988]",4.0,"[0.02,0.02]",107.3365,0.0,12.0,12.0,184.0,1.0,,,,,,,
,,,,,,,616494f1ae4537c01914c758,6842bb06e7f0cc789c6605ea,2025-06-06_10h56.58.324,shape_ratio,2024.1.5,Win32,59.17159763,6842b561977af9ba9b0f87ca,,,,,,,,,,,107.3374,107.8367,,,108.0878,108.4195,left,,,,,,,,0.45,0.3146,,,,,,,107.8368,108.0878,108.4195,"[0.0927123687276908,-0.14085464806312215]",100.0,"[-0.04543163255583905,0.06747761173176609]",4.0,"[0.08734288646190863,-0.017188494334144943]",4.0,"[0.03414987565435459,-0.11763081153459828]",4.0,"[-0.07553556512291497,-0.09469090088054154]",100.0,"[-0.07324780999749027,-0.013321959459527879]",100.0,"[-0.078085577676713,0.031609187655639394]",4.0,"[0.07369430097102324,-0.09891304180486762]",4.0,"[-0.07004347670041583,0.17849683096451446]",100.0,"[-0.17875460170522986,-0.008375433860352622]",100.0,"[-0.008662893730065424,0.03192508574747709]",4.0,"[-0.021368601082079726,-0.14475554042596225]",4.0,"[0.018925759323649115,-0.0749465620492454]",4.0,"[-0.007958723854517102,-0.03560700500177802]",4.0,"[-0.12131056367530522,0.13867384341191125]",100.0,"[0.10444722667945494,0.12570742254704625]",4.0,"[0.037898910960384766,0.06903917513941199]",4.0,"[-0.1287962157860629,-0.14456376971090965]",100.0,"[0.10197359642819952,-0.06649966555194696]",100.0,"[-0.02678528194233306,0.1813153183730405]",100.0,"[-0.034942257527122184,-0.0690723337084265]",4.0,"[0.01618319864655508,-0.1873125626474632]",4.0,"[-0.03797213452176513,-0.19062336750799555]",100.0,"[0.0846420809585301,0.1640718291862037]",100.0,"[0.11872649008864568,0.03497875731449458]",100.0,"[-0.13861930013081267,0.061507093507343694]",4.0,"[-0.18661706536049863,0.0401605444970669]",100.0,"[0.07731570483330212,0.024108868429569635]",4.0,"[0.16837337900611035,0.07904649893677727]",100.0,"[-0.10573421095729742,-0.041607963311069265]",4.0,"[0.1445387090157901,0.0041937789231676435]",4.0,"[0.047579838184069516,-0.02165375466747715]",4.0,"[0.02,0.02]",109.5213,0.0,13.0,13.0,125.0,1.0,,,,,,,
,,,,,,,616494f1ae4537c01914c758,6842bb06e7f0cc789c6605ea,2025-06-06_10h56.58.324,shape_ratio,2024.1.5,Win32,59.17159763,6842b561977af9ba9b0f87ca,,,,,,,,,,,109.5224,110.0212,,,110.2715,110.839,right,,,,,,,,0.6,0.558,,,,,,,110.0213,110.2714,110.8391,"[-0.03933789212087428,0.1514802773615552]",100.0,"[0.08983823764022678,0.06315835676611602]",4.0,"[0.13121573210684512,0.05435611869827834]",4.0,"[-0.0007993004247274929,0.119954491921328]",4.0,"[-0.16463781748150014,-0.02080376722228111]",100.0,"[0.16372193095963994,-0.06108451703706676]",100.0,"[0.10814248138912026,-0.0324567013264824]",4.0,"[0.014782840195655352,-0.08795185673784191]",100.0,"[0.005630894961002111,-0.03962133291037855]",100.0,"[0.07705394202497298,-0.17731027152516038]",4.0,"[0.1728314188277003,0.086652029139377]",4.0,"[0.008599384863242993,0.04390800415049063]",100.0,"[0.04829314272003434,0.05508515889061267]",4.0,"[-0.12225602436557792,-0.06716481400753622]",100.0,"[0.006148990247612923,0.19263227738351119]",4.0,"[-0.08963230723942059,0.09527722836560877]",100.0,"[-0.10740201056027902,0.1318090697010588]",4.0,"[-0.08379547010269488,-0.17971587783532958]",100.0,"[-0.17812240909639424,0.08854109886718338]",100.0,"[-0.043820322289715705,-0.09616129152146895]",100.0,"[-0.09822062119888687,-0.10481287984604129]",100.0,"[0.1693370449326894,-0.020017502631526907]",100.0,"[0.09219664938916212,-0.07536922230446835]",4.0,"[-0.007433267548718796,-0.18287928533565995]",4.0,"[-0.1706688523947778,0.028757522952964354]",100.0,"[-0.035642957779399215,0.012223589356196076]",100.0,"[-0.07533000267743145,-0.010853147767005829]",4.0,"[0.06098874645706668,-0.11232252073498013]",100.0,"[-0.0626502037587585,0.0650291018977959]",100.0,"[0.10060168976019807,-0.12304116218843676]",100.0,"[0.14937532386117533,0.01740341606556802]",100.0,"[-0.1320502902188042,0.05105663842827079]",4.0,"[0.02,0.02]",111.9385,0.0,14.0,14.0,39.0,1.0,,,,,,,
,,,,,,,616494f1ae4537c01914c758,6842bb06e7f0cc789c6605ea,2025-06-06_10h56.58.324,shape_ratio,2024.1.5,Win32,59.17159763,6842b561977af9ba9b0f87ca,,,,,,,,,,,111.9398,112.4389,,,112.6907,113.44,right,,,,,,,,0.45,0.7384,,,,,,,112.439,112.6906,113.4401,"[0.00801387151330112,0.008258688178755517]",100.0,"[-0.17963243962705872,0.01650679579873667]",100.0,"[-0.049429255068390146,0.14465144420987341]",4.0,"[0.04161022054753448,-0.03829474445332845]",4.0,"[0.18433346663990877,-0.06502012678110099]",100.0,"[0.13420411526052162,-0.006792536278844304]",4.0,"[-0.08260618954480749,-0.041764679335574914]",4.0,"[-0.14891881883890148,-0.02051008009317728]",4.0,"[0.15281232867331995,0.09773344357247107]",100.0,"[-0.02930896742487906,-0.09056555480567681]",4.0,"[0.18301923122010394,0.0693128600370361]",4.0,"[-0.13928229678948975,0.06033975961755376]",100.0,"[-0.1285180777111978,-0.14662738542523276]",100.0,"[0.08147762847568321,0.02529234137557341]",100.0,"[-0.04493195671883572,-0.15733712327738367]",4.0,"[0.18502764793657367,0.017182064265273793]",100.0,"[0.0008069073908575968,0.07148815883871486]",100.0,"[-0.13070954335884652,-0.10462083395365919]",100.0,"[0.09373608918853116,-0.09041677605556663]",4.0,"[0.06502498375038358,-0.18068078764315157]",4.0,"[0.10385120081614016,-0.17040292484798275]",4.0,"[-0.1527046103131977,0.1187910984734886]",4.0,"[-0.06478817666490663,0.18716831641280904]",4.0,"[0.01123816513613284,-0.12581416576968943]",100.0,"[0.08429596560111066,0.11981595072325173]",100.0,"[-0.02127787232935864,0.17895364603675115]",4.0,"[-0.08400268735295505,0.05072109470041446]",4.0,"[0.1320009584211242,-0.11769677932296256]",100.0,"[0.05796109633178483,-0.1269616977478938]",4.0,"[-0.07307161220484903,-0.10514163096292016]",4.0,"[-0.043756200410766125,0.05395674318410081]",100.0,"[0.0830032656646555,0.167843462865667]",4.0,"[0.02,0.02]",114.5388,0.0,15.0,15.0,139.0,1.0,,,,,,,
,,,,,,,616494f1ae4537c01914c758,6842bb06e7f0cc789c6605ea,2025-06-06_10h56.58.324,shape_ratio,2024.1.5,Win32,59.17159763,6842b561977af9ba9b0f87ca,,,,,,,,,,,114.539,115.0402,,,115.2912,115.8247,left,,,,,,,,0.4,0.5177,,,,,,,115.0403,115.2911,115.8249,"[0.0010724012064251963,0.11233228430575462]",4.0,"[-0.12347147762537913,0.13827487608045724]",4.0,"[-0.012697632850887371,0.17964110638668582]",100.0,"[0.047557660641962235,-0.002381219476957391]",4.0,"[-0.13061841344304517,-0.049859798906241065]",4.0,"[-0.03348014061441942,-0.15111810865435113]",4.0,"[0.14556221653670895,-0.10576140224386085]",100.0,"[-0.06028877780496169,0.1659000256790116]",100.0,"[0.11906382587400421,0.0778797891898871]",100.0,"[0.19344657904519968,-0.013128461673817418]",4.0,"[-0.008843431454023894,0.0725193215013873]",4.0,"[-0.09162465500679177,-0.06268465687532934]",4.0,"[-0.1278543416491319,-0.113001367229833]",100.0,"[0.030164500988187397,-0.07813359906447521]",4.0,"[-0.10678019127945024,-0.16481390128961243]",100.0,"[-0.09672794946439617,0.000002367019738105758]",4.0,"[0.16184858801387722,0.06466562494961822]",100.0,"[0.09210285761856238,0.11744685398500435]",4.0,"[-0.17802971496977624,-0.01988967040420507]",100.0,"[0.030253177775807785,0.03664298389081607]",4.0,"[0.10230921237138531,-0.03941682681616376]",4.0,"[0.13943721024790157,-0.01025515708263563]",4.0,"[-0.0000921685416383617,-0.03660892528559982]",4.0,"[-0.10270797558834265,0.10153013677049115]",4.0,"[0.11578503124987122,0.0355036124707237]",100.0,"[0.012056247449734511,-0.12215237604983172]",4.0,"[0.005376083745417853,0.0033797639245516406]",100.0,"[-0.04473673811914136,-0.0016875897179252485]",100.0,"[0.009426175241152043,-0.1647086360856943]",100.0,"[-0.05839249899881191,0.04640013795836522]",4.0,"[-0.17002412463993574,-0.09059989952942635]",4.0,"[0.15854381292684702,-0.05840323771889369]",100.0,"[0.02,0.02]",116.9246,0.0,16.0,16.0,163.0,1.0,,,,,,,
,,,,,,,616494f1ae4537c01914c758,6842bb06e7f0cc789c6605ea,2025-06-06_10h56.58.324,shape_ratio,2024.1.5,Win32,59.17159763,6842b561977af9ba9b0f87ca,,,,,,,,,,,116.9259,117.4234,,,117.6765,118.2758,right,,,,,,,,0.55,0.5878,,,,,,,117.4234,117.6764,118.2761,"[0.16492683485713322,-0.041545822879271464]",100.0,"[0.18554983140279868,0.052589887924625066]",100.0,"[-0.031291565072960055,0.18579257299735297]",4.0,"[-0.04721241935911498,-0.18447809076707605]",100.0,"[-0.09383791874490215,-0.09711022730491257]",4.0,"[0.12484346098939007,0.011675682447014396]",100.0,"[-0.15214715064228213,-0.039189496957885275]",100.0,"[0.11771824236435928,-0.08890263422056241]",4.0,"[0.08726420109762334,-0.1539586917613254]",100.0,"[0.017890199898279665,-0.11455977235731368]",100.0,"[0.025774347432150187,-0.022391391637634643]",4.0,"[-0.042183652821533774,0.11949236038974201]",4.0,"[-0.1421565311427798,-0.1383389028879573]",4.0,"[0.0036439409306058745,-0.07521967794248224]",100.0,"[-0.09580359849631112,0.05311204782695199]",100.0,"[-0.067938220698749,-0.04979047653247136]",4.0,"[0.004583534579632244,0.12484993468859668]",100.0,"[0.06318619047979998,-0.08609143975895217]",100.0,"[0.07651173580716031,0.03520703305303126]",100.0,"[0.019617194657384422,0.19604046656269308]",4.0,"[-0.11524694785521743,-0.05488085571404386]",100.0,"[0.02920228268202616,0.07206823948959912]",100.0,"[0.08264268056157484,-0.04412260908121417]",4.0,"[0.13396374956730622,0.06895237602613385]",4.0,"[-0.1194727189136943,0.14653885359530017]",4.0,"[0.08207442404744203,0.15719217436843047]",4.0,"[-0.19346465468437882,0.03677698087888979]",4.0,"[-0.008135844452007324,0.024051785562302034]",100.0,"[0.16241930091821885,0.10241935145696746]",100.0,"[-0.16048306772206647,0.09729972833705076]",4.0,"[0.12605226648364395,0.12925215238276874]",100.0,"[0.025969491420257725,-0.15672568990106905]",100.0,"[0.02,0.02]",119.3757,0.0,17.0,17.0,77.0,1.0,,,,,,,
,,,,,,,616494f1ae4537c01914c758,6842bb06e7f0cc789c6605ea,2025-06-06_10h56.58.324,shape_ratio,2024.1.5,Win32,59.17159763,6842b561977af9ba9b0f87ca,,,,,,,,,,,119.3769,119.8748,,,120.127,120.6083,left,,,,,,,,0.1,0.4634,,,,,,,119.8749,120.1269,120.6083,"[0.06691978910265879,0.11268970275308975]",4.0,"[-0.05171510304850035,0.025980610817047826]",4.0,"[0.09655832968008521,0.15983481810870845]",4.0,"[0.14351218580620267,-0.04390135066708109]",4.0,"[0.0593834416938751,-0.027969287530587653]",4.0,"[-0.10340502042124564,-0.01348050846535699]",4.0,"[-0.05770047706008624,0.13635831993392525]",4.0,"[0.023965494933513472,0.14231160347617516]",4.0,"[0.1848702023112561,-0.06780159635832611]",4.0,"[-0.0021061703682305286,0.06113963059063325]",4.0,"[-0.1569668426401687,0.11106682266053486]",4.0,"[-0.12238405701775684,0.060844231184113376]",4.0,"[0.09648544424557787,-0.07584006660470367]",4.0,"[-0.1784373655814925,0.00942482665252782]",4.0,"[0.006623208738961806,0.002548566368110655]",4.0,"[0.11964925910168567,0.076467998149999]",4.0,"[-0.0803997615758547,0.09146829659646498]",4.0,"[0.019622799301072018,-0.10850225919513826]",4.0,"[-0.11158265201424526,0.15299696812821964]",4.0,"[0.1432915774530349,0.013864064381074659]",100.0,"[0.10241475631912028,-0.020700926139906862]",4.0,"[0.17275246452143658,0.09391184117889449]",4.0,"[-0.029991605917553555,-0.04318372864103809]",100.0,"[0.004069855923612765,-0.1962868531705452]",4.0,"[0.008095604640803711,0.10067028831725225]",4.0,"[-0.15124489537641586,-0.12041508416114108]",4.0,"[0.06970877748186274,0.022443848510222488]",4.0,"[-0.08482860049530266,-0.11481680601126629]",4.0,"[0.10194629946384928,-0.16004932132159605]",4.0,"[-0.03223286748979965,-0.153361823022625]",100.0,"[0.1899504408468039,0.030424721956297973]",4.0,"[-0.03069526939052012,-0.09754332668034416]",4.0,"[0.02,0.02]",121.7094,0.0,18.0,18.0,181.0,1.0,,,,,,,
,,,,,,,616494f1ae4537c01914c758,6842bb06e7f0cc789c6605ea,2025-06-06_10h56.58.324,shape_ratio,2024.1.5,Win32,59.17159763,6842b561977af9ba9b0f87ca,,,,,,,,,,,121.7104,122.2099,,,122.4607,123.3106,left,,,,,,,,0.45,0.8329,,,,,,,122.2099,122.4606,123.3106,"[0.0137150212281353,-0.07758426547806874]",4.0,"[-0.042116746858429865,0.14207271645174302]",4.0,"[0.12216360325582448,-0.11581949186803997]",4.0,"[0.04605715208761537,-0.004963984623611588]",100.0,"[0.17257119322121325,-0.06395314802536282]",100.0,"[-0.08168519916534514,-0.09817543882254433]",4.0,"[0.09157317644162208,0.05516173437238619]",100.0,"[-0.14400531030822925,-0.04163007542382991]",4.0,"[-0.03400197591289354,-0.1698977232607386]",4.0,"[-0.1745539353638206,0.08714990266053854]",4.0,"[-0.08330664017384917,-0.14704277433829785]",4.0,"[-0.016517998569305952,-0.1266503816557164]",4.0,"[-0.019614820185174558,0.17567143410760838]",100.0,"[0.03276020895587974,0.1805122278682507]",4.0,"[-0.0791392954962596,0.15739926118111816]",4.0,"[-0.04176024796874042,0.07631929544455616]",4.0,"[0.019173140372566247,-0.16464129175168016]",100.0,"[-0.1465964349045553,0.02790554505124427]",100.0,"[0.18509891240577872,-0.014662480759706126]",100.0,"[0.08703893790179752,-0.0006041478201297334]",100.0,"[-0.09660433134459168,0.06919760613729171]",4.0,"[-0.04141807949351514,0.028651310444032373]",4.0,"[-0.08646787694846501,0.023011047758279116]",100.0,"[0.17213623546385382,0.03134163585067816]",4.0,"[-0.19495490935148838,0.03606566132164227]",100.0,"[0.0522860002467866,0.08917775683804854]",100.0,"[-0.10673774269032041,0.12134002050663323]",100.0,"[0.03476080126698726,0.14034248042712066]",4.0,"[0.007083031894602219,0.08581518043741385]",100.0,"[0.1042148950787735,0.1365017249353789]",100.0,"[-0.08271438936129569,-0.039235587685557405]",4.0,"[-0.16997821429524426,-0.09957137148961037]",4.0,"[0.02,0.02]",124.4108,0.0,19.0,19.0,148.0,1.0,,,,,,,
,,,,,,,616494f1ae4537c01914c758,6842bb06e7f0cc789c6605ea,2025-06-06_10h56.58.324,shape_ratio,2024.1.5,Win32,59.17159763,6842b561977af9ba9b0f87ca,,,,,,,,,,,124.4117,124.9111,,,125.1622,125.7621,right,,,,,,,,0.55,0.5901,,,,,,,124.9111,125.1621,125.7623,"[0.11209590930009126,-0.16104329991908634]",100.0,"[-0.08235063383998979,0.11734607264509644]",100.0,"[-0.13492758577803485,0.09193232878059548]",4.0,"[-0.1568097485641115,0.009345179167712733]",4.0,"[-0.033983048110906314,-0.19540964407302935]",100.0,"[0.0334969477881862,-0.0456397910649102]",4.0,"[-0.006735417132634735,0.10387057788433028]",4.0,"[0.09719603635908397,0.09676631693733917]",100.0,"[0.07565155209262302,-0.08526915696912174]",100.0,"[0.10201859769509258,0.03222087448815574]",100.0,"[0.17174839843901288,-0.04685735981425038]",4.0,"[-0.004784514561614657,0.02565308319177685]",100.0,"[-0.07391650398955779,0.06059844209976469]",4.0,"[-0.13272045347206116,-0.06257325925306786]",4.0,"[0.07655213089717444,0.00090614754995924]",100.0,"[0.18929915448965196,0.06307005847170623]",4.0,"[-0.061413794111864595,-0.11530756233850263]",100.0,"[-0.05507086118528325,0.1922504189180954]",4.0,"[-0.07019525434068424,-0.0377891361768044]",100.0,"[0.018898834901730804,-0.12509917566178488]",100.0,"[-0.11518961958048048,0.15118226817861122]",100.0,"[-0.10954742200410743,0.03755011408497159]",100.0,"[0.17388763391818843,-0.003997179103746253]",100.0,"[0.01171193306324499,0.14167724633857848]",4.0,"[0.1276634418020704,-0.02799175412967242]",4.0,"[-0.08265023887810306,0.007106060284278381]",4.0,"[0.03981395029601292,0.0636473540795449]",100.0,"[-0.03450837771380136,-0.06319980604864107]",100.0,"[0.043818772974434074,0.11475799349333521]",4.0,"[0.01873112781890274,-0.17696118129593663]",100.0,"[-0.06112067336428776,-0.1599986485575572]",4.0,"[0.08665186870351517,0.1707843389814148]",100.0,"[0.02,0.02]",126.8624,0.0,20.0,20.0,81.0,1.0,,,,,,,
,,,,,,,616494f1ae4537c01914c758,6842bb06e7f0cc789c6605ea,2025-06-06_10h56.58.324,shape_ratio,2024.1.5,Win32,59.17159763,6842b561977af9ba9b0f87ca,,,,,,,,,,,126.8636,127.3625,,,127.6137,128.1969,left,,,,,,,,0.4,0.5724,,,,,,,127.3625,127.6135,128.1971,"[0.038789233532681315,0.16882878694394332]",100.0,"[-0.09261096446983479,0.1689049852927869]",4.0,"[0.15492498263699558,-0.031197029874414826]",4.0,"[-0.09654085857898863,-0.05040448780085212]",100.0,"[-0.05363238867071998,0.027883301781377604]",100.0,"[-0.12113196628153815,0.04579358332807197]",4.0,"[0.13427063745895104,-0.12081841416424376]",4.0,"[-0.1303722875628315,0.13335812217721524]",4.0,"[0.19450474119621738,0.035616845560298184]",4.0,"[0.08501600401668175,0.0017206387570718631]",100.0,"[0.16756303660124372,0.10598207932316862]",100.0,"[-0.17366577652044607,0.0868787294211656]",4.0,"[-0.04755100308456129,0.176860592320349]",100.0,"[-0.10449358801030789,-0.00407442561668471]",100.0,"[-0.18016006190256129,-0.07348284322622387]",4.0,"[0.0008991619746634427,-0.011882991456537543]",4.0,"[-0.004719170501429993,0.17627351512488218]",4.0,"[0.05398481972219155,0.10969572134621108]",100.0,"[-0.1635536703553067,0.020753224554277173]",4.0,"[0.03190889554793532,-0.08278726368971359]",4.0,"[0.12637323803898812,0.06747133346710367]",4.0,"[0.1771725778854952,-0.06694636824674391]",4.0,"[0.018352507851225563,0.08218831154884698]",4.0,"[-0.03653706624194948,-0.13972323337831807]",100.0,"[0.1504894582982727,0.01508983267560304]",100.0,"[-0.04700138450838608,-0.0377675082756889]",4.0,"[-0.028355956067590674,-0.07831625460887227]",4.0,"[0.03808212007908842,-0.17923868448800495]",4.0,"[0.07204087305302981,0.06743485068180571]",4.0,"[-0.04192108567608576,0.06906546402312573]",100.0,"[-0.02445587409017894,-0.1898327525168668]",100.0,"[0.03609027234039647,0.021633725366033703]",100.0,"[0.02,0.02]",129.2963,0.0,21.0,21.0,175.0,1.0,,,,,,,
,,,,,,,616494f1ae4537c01914c758,6842bb06e7f0cc789c6605ea,2025-06-06_10h56.58.324,shape_ratio,2024.1.5,Win32,59.17159763,6842b561977af9ba9b0f87ca,,,,,,,,,,,129.2977,129.7971,,,130.0485,130.965,left,,,,,,,,0.4,0.9023,,,,,,,129.7971,130.0485,130.9652,"[0.05957773846509929,-0.024559206954685917]",4.0,"[-0.03220332249212359,-0.05858031985690769]",100.0,"[-0.06388919898778236,0.1804239443157032]",100.0,"[-0.0025461659142647216,-0.14871148114959756]",100.0,"[-0.10763047500281663,-0.04728109785978993]",4.0,"[-0.089496419640127,-0.011552802858314223]",4.0,"[0.06795833374684006,-0.1465389939425758]",4.0,"[0.16606363259316925,0.09236198607149806]",4.0,"[-0.11291256712243687,0.13260895583242577]",4.0,"[0.0714958701650127,0.09229290909786389]",4.0,"[-0.16349237522817417,-0.08543695187741554]",4.0,"[0.013863530802474293,0.08145352762693028]",100.0,"[-0.07375477361419579,-0.09287911683986577]",100.0,"[0.10845451464195834,0.15686788515668806]",4.0,"[0.12191507467314595,0.02145041218046999]",4.0,"[0.16949967473066602,-0.08605951872560948]",100.0,"[-0.0012388765054601133,0.008184261633564848]",100.0,"[0.11632849525639898,-0.14129786983123613]",100.0,"[0.04081516151298175,-0.06512344421642353]",4.0,"[0.14899306211815244,-0.04392788447690613]",4.0,"[-0.05536417785394715,0.018344576609396368]",100.0,"[0.10201956356715014,-0.042726128976745846]",4.0,"[-0.17245024705199852,0.0854524712677195]",4.0,"[-0.15603974802673135,0.011077896471197174]",4.0,"[-0.11044289103035486,-0.13252580195337232]",4.0,"[-0.043962189382451174,-0.15675946193360712]",4.0,"[0.07072658002553246,0.1811689163914085]",100.0,"[-0.030460757835916848,0.15112658040467689]",4.0,"[0.0807736836017483,-0.07964685283833714]",100.0,"[0.08451534840003465,0.04753179296051301]",100.0,"[0.17239194242111192,0.02647935208936111]",4.0,"[0.01747406906490723,0.16850039247840445]",100.0,"[0.02,0.02]",132.0646,0.0,22.0,22.0,169.0,1.0,,,,,,,
,,,,,,,616494f1ae4537c01914c758,6842bb06e7f0cc789c6605ea,2025-06-06_10h56.58.324,shape_ratio,2024.1.5,Win32,59.17159763,6842b561977af9ba9b0f87ca,,,,,,,,,,,132.066,132.5646,,,132.8164,133.2488,right,,,,,,,,0.9,0.4215,,,,,,,132.5647,132.8163,133.249,"[-0.15740555227806471,-0.008935923417423757]",100.0,"[-0.09198969626253041,0.105685687723557]",100.0,"[-0.016783261831750412,-0.15603585799082062]",100.0,"[0.1365257714669913,-0.11630158858910314]",100.0,"[-0.07646073496088492,-0.17889486397128618]",100.0,"[0.18402173500219074,0.05803042972743892]",4.0,"[-0.16647955749724205,-0.059789574728629225]",4.0,"[-0.02740732400459661,0.052204018410433276]",100.0,"[-0.07368173044570632,-0.1136441837992386]",100.0,"[-0.030471498647688923,0.16670342768372712]",100.0,"[0.051726081866280645,-0.09555845833433352]",100.0,"[0.11152682346733932,-0.05775653742694888]",100.0,"[-0.10396336384063054,0.15558522576700273]",100.0,"[-0.10788169024132865,-0.02019967574581678]",100.0,"[-0.004595822369261966,-0.047318000693348294]",100.0,"[0.12034589447931512,0.11674825305242663]",100.0,"[0.1099127221998703,0.04190120337536438]",100.0,"[-0.08924330275332878,0.030462976597630417]",100.0,"[-0.12582868494222657,-0.13794676439836537]",100.0,"[0.029598030324838695,0.06296805529735779]",100.0,"[0.1686727071669544,0.09779031841073389]",100.0,"[-0.11496338075139251,-0.07730819389234779]",4.0,"[0.16884551003681464,-0.03599151054336939]",100.0,"[-0.0046949224699032914,0.11868869965356332]",100.0,"[-0.026754194658455088,-0.09419366713214995]",100.0,"[-0.06216661102838258,-0.0697159626183706]",100.0,"[0.06239375774305811,0.0320754279231791]",100.0,"[0.0574492197218766,-0.047288933979772484]",100.0,"[0.03176031135504725,0.17146112278122802]",100.0,"[-0.14602731045378145,0.07932100632677663]",100.0,"[0.10497609665214744,-0.1592910651954253]",100.0,"[0.07581449815721016,0.10487614665975799]",100.0,"[0.02,0.02]",134.349,0.0,23.0,23.0,11.0,1.0,,,,,,,
,,,,,,,616494f1ae4537c01914c758,6842bb06e7f0cc789c6605ea,2025-06-06_10h56.58.324,shape_ratio,2024.1.5,Win32,59.17159763,6842b561977af9ba9b0f87ca,,,,,,,,,,,134.3506,134.849,,,135.1007,135.6837,right,,,,,,,,0.9,0.5606,,,,,,,134.8492,135.1006,135.684,"[-0.12882965578227767,0.06912210360077892]",100.0,"[0.1127437291258682,-0.05260234936728039]",100.0,"[-0.07618327955145365,0.16691078693332964]",100.0,"[0.06641842171322812,0.04814451286270484]",100.0,"[-0.15687923136810036,-0.014598765544655175]",100.0,"[-0.1628121457832723,-0.09218265061490352]",100.0,"[0.08117758987335724,-0.09086638065847225]",4.0,"[0.15828164026377486,0.04375378513231628]",100.0,"[-0.08542633900194672,-0.14560563922480574]",100.0,"[0.07929160919431125,0.129974079208225]",100.0,"[-0.029893709223119156,-0.021457024682119213]",100.0,"[0.12739474666239814,-0.09730466098935721]",100.0,"[0.02532163252082522,-0.17801571649339612]",100.0,"[0.16780688371522626,-0.08106589404562065]",4.0,"[0.05938438292417346,-0.15225459424695947]",100.0,"[0.10476906368848492,0.0021994766226501915]",100.0,"[0.03875358387892102,-0.017115329663813194]",100.0,"[-0.0009708569395943531,0.13987895725733682]",100.0,"[0.16538110638334175,0.1050183625574658]",100.0,"[-0.11184377754495956,-0.05237005516807033]",4.0,"[-0.13217874633070759,-0.1187947911749739]",100.0,"[-0.13999722334687842,0.02875598989010761]",100.0,"[0.12125668495379764,0.101776111629643]",100.0,"[0.1007839811297109,-0.14134766111779587]",100.0,"[-0.051827361312617795,-0.10829117011978202]",100.0,"[-0.19155402786495626,-0.05451653924085139]",100.0,"[0.1520736969931808,-0.02507982640591369]",100.0,"[-0.041224190748575966,0.11971013085929148]",100.0,"[-0.09980613098083774,0.12997039965763568]",100.0,"[-0.08843532435261008,0.08319203792103194]",100.0,"[0.13148438349796443,0.14733916887857781]",100.0,"[-0.041952675223808536,0.19480727798708625]",100.0,"[0.02,0.02]",136.7827,0.0,24.0,24.0,28.0,1.0,,,,,,,
,,,,,,,616494f1ae4537c01914c758,6842bb06e7f0cc789c6605ea,2025-06-06_10h56.58.324,shape_ratio,2024.1.5,Win32,59.17159763,6842b561977af9ba9b0f87ca,,,,,,,,,,,136.7836,137.2824,,,137.5383,137.8683,right,,,,,,,,0.9,0.3107,,,,,,,137.2824,137.5382,137.8687,"[0.11815903970985554,-0.09671029227020908]",100.0,"[-0.01184386396153284,0.16740497327934606]",100.0,"[0.06938799751766675,0.14264775137784916]",100.0,"[0.0425247681168412,-0.16588916219208227]",100.0,"[-0.07052818684027388,0.1129242291222243]",4.0,"[0.08962082278182992,-0.14084819075395816]",100.0,"[-0.03578867385903934,0.06968527584537401]",100.0,"[-0.08693726981836167,0.17759338063025853]",100.0,"[-0.055834193598161885,-0.05054493522238885]",100.0,"[-0.14329966137928682,0.0791089755203415]",100.0,"[-0.07497304278602801,-0.10745910204671517]",100.0,"[0.05079105884023015,-0.06795867810750524]",100.0,"[0.13558757595749518,0.09421874936742146]",100.0,"[-0.06698788784544132,-0.18546714828231892]",100.0,"[0.00018568667798372603,-0.19193838962046603]",100.0,"[-0.18157088516208117,-0.0513510295768894]",100.0,"[-0.004111178346119957,-0.066714173930513]",100.0,"[0.15942954914259114,-0.03121827201943514]",100.0,"[0.019590054948379426,0.08210703045890827]",100.0,"[0.0650423422051274,0.08504181833677865]",100.0,"[0.03299971771510351,-0.011835856078263037]",100.0,"[0.026484591468541797,-0.10342051745933141]",100.0,"[-0.01588119209247016,0.1261789063876319]",4.0,"[0.021644991469146765,0.19754261673173212]",100.0,"[-0.15832517160520804,-0.018330967852889807]",100.0,"[-0.16028055312827766,-0.09184426270868044]",100.0,"[0.10798666455666103,0.05852815140092753]",100.0,"[-0.11679355098964923,0.044606885159425416]",100.0,"[-0.15278290590741592,0.12895984740788283]",4.0,"[-0.008434028122993972,-0.13775216752397293]",100.0,"[0.1164999572370484,-0.013303961368151825]",100.0,"[0.11958960907579956,0.1439009227303435]",100.0,"[0.02,0.02]",138.9679,0.0,25.0,25.0,2.0,1.0,,,,,,,
,,,,,,,616494f1ae4537c01914c758,6842bb06e7f0cc789c6605ea,2025-06-06_10h56.58.324,shape_ratio,2024.1.5,Win32,59.17159763,6842b561977af9ba9b0f87ca,,,,,,,,,,,138.9694,139.4667,,,139.7216,140.4858,right,,,,,,,,0.55,0.7415,,,,,,,139.4667,139.7215,140.4859,"[0.02553793154770145,-0.1956537027456446]",100.0,"[0.15455374042798753,0.10523836291048967]",4.0,"[0.10307389965219224,-0.0686354422067987]",100.0,"[0.02110777983046087,0.04363045584655968]",100.0,"[0.07965164722698997,0.15473601132236564]",4.0,"[-0.12241250266011,0.018361175817609408]",100.0,"[-0.17880970181339131,-0.0885529189635481]",100.0,"[-0.08631991978047793,0.1340181670511]",100.0,"[-0.033635978348094446,0.14193063712256568]",100.0,"[-0.14756009055281155,-0.0487930483836717]",4.0,"[0.02793424404764238,-0.1294748796715013]",4.0,"[-0.03976152704392807,0.08973509974958216]",100.0,"[-0.046061177664408544,0.01381730944449195]",4.0,"[-0.08649251477170966,0.0589672843011718]",100.0,"[0.039032745527133525,0.14928937169743098]",100.0,"[-0.18759237497677603,-0.0472436889325093]",100.0,"[0.07648754819948088,-0.12121146355024184]",4.0,"[0.11138266439848227,0.020676934925403685]",100.0,"[-0.12044763836145464,0.10605948579766616]",4.0,"[0.15038056338630665,-0.01483888257982307]",100.0,"[0.17072206941006127,0.03978288776994104]",4.0,"[0.0016344807109623825,0.1808520462731903]",4.0,"[0.06739907738121188,0.026331333227665756]",4.0,"[-0.06038093124639022,-0.09693456146295035]",4.0,"[0.1627624968095552,-0.08752250832951604]",100.0,"[0.1312361128326401,-0.13803900584317613]",100.0,"[0.09717879100471744,0.07139447784472591]",100.0,"[-0.11075436011677449,-0.14092573031060485]",100.0,"[-0.14996213757864257,0.0516742574816199]",4.0,"[-0.07444468838605162,-0.03362606642056766]",4.0,"[-0.1069370491919756,-0.0642549313919154]",100.0,"[-0.03248480513410622,-0.06473021283113602]",4.0,"[0.02,0.02]",141.5856,0.0,26.0,26.0,68.0,1.0,,,,,,,
,,,,,,,616494f1ae4537c01914c758,6842bb06e7f0cc789c6605ea,2025-06-06_10h56.58.324,shape_ratio,2024.1.5,Win32,59.17159763,6842b561977af9ba9b0f87ca,,,,,,,,,,,141.5872,142.0859,,,142.3386,142.7708,right,,,,,,,,0.55,0.4053,,,,,,,142.0861,142.3386,142.771,"[0.11253772171298818,-0.14435597511745601]",4.0,"[0.18997125511358745,-0.0338935232973331]",100.0,"[-0.1068755362816996,0.10334947255848789]",4.0,"[0.1533629635121345,0.12701082136729522]",100.0,"[-0.10532456485231363,0.051599415635248586]",100.0,"[0.012852110479211936,-0.03708804916676906]",4.0,"[0.1190424776732867,0.005131433593597149]",4.0,"[0.046882184206344484,-0.1248595002993392]",4.0,"[-0.16729287935307602,-0.05326513219253886]",100.0,"[-0.034033343862646545,-0.027351575713073034]",100.0,"[0.15629988233271608,-0.06483814327959163]",4.0,"[0.04159869223209409,0.03495359696121208]",4.0,"[0.05323261442016734,0.1812495211749134]",4.0,"[-0.024528277054268605,-0.11321761308070956]",100.0,"[0.08048701082179474,-0.018294249824456616]",100.0,"[0.12824200550824905,-0.10464122956868357]",100.0,"[0.14105450149963047,0.08761138000642807]",100.0,"[-0.039856210778881074,0.027059803542188864]",100.0,"[0.03765846643276667,0.07819099873425014]",4.0,"[-0.11092299870971647,-0.13152801738331402]",4.0,"[-0.08777274746078614,-0.08118886104164953]",100.0,"[0.03148839746706943,-0.17515619946017072]",100.0,"[-0.10758144728700013,-0.032142571606411416]",100.0,"[0.0655164801816868,-0.0699349480239019]",4.0,"[0.08484782495797843,0.09219174788961387]",100.0,"[-0.1307587277278173,0.13831449938999166]",4.0,"[-0.15091552098942226,-0.10351353786893842]",4.0,"[-0.060428920039035085,-0.14616089775911678]",100.0,"[-0.058318312248137626,0.08795736238148397]",100.0,"[-0.05708433018620959,0.1628406530630244]",100.0,"[-0.1454766798918671,0.049838531353931646]",100.0,"[0.08435418310351483,0.03674058859966599]",4.0,"[0.02,0.02]",143.87,0.0,27.0,27.0,83.0,1.0,,,,,,,
,,,,,,,616494f1ae4537c01914c758,6842bb06e7f0cc789c6605ea,2025-06-06_10h56.58.324,shape_ratio,2024.1.5,Win32,59.17159763,6842b561977af9ba9b0f87ca,,,,,,,,,,,143.8717,144.3704,,,144.6223,145.0882,left,,,,,,,,0.6,0.4554,,,,,,,144.3704,144.6222,145.0883,"[-0.12989166526170368,-0.03255046552751192]",4.0,"[0.07407444356640341,0.04067459683666269]",4.0,"[0.10364883357192,-0.08562417838620495]",4.0,"[0.18259386734294536,0.0009701150608381112]",4.0,"[-0.07242140192176523,0.007487186322660833]",100.0,"[-0.15594801525877006,-0.11526291136670153]",100.0,"[0.12617587749656914,0.09359219657282136]",100.0,"[0.08609693964052209,0.08590134363025055]",100.0,"[-0.016434045032803303,0.16129556507577444]",100.0,"[0.009319839240835657,0.030288017743940587]",4.0,"[-0.18728734730254343,0.0005305894880249524]",4.0,"[-0.08897175798356757,0.1120358769812135]",4.0,"[-0.15455234450918975,0.08559079406137032]",4.0,"[-0.04979201460999227,0.1210315341361085]",100.0,"[0.011345496323331525,-0.14268724469679958]",100.0,"[-0.014919743789336673,0.08151810444376241]",4.0,"[-0.0359365772542005,-0.14965196364780609]",100.0,"[0.06622704210391793,-0.03172563752483973]",100.0,"[0.1262591398421896,-0.039266111249087604]",100.0,"[0.023800339709080156,0.1907266494987025]",4.0,"[-0.05945337946528814,0.16553827006173977]",100.0,"[0.17319653739263136,0.05345674006548118]",100.0,"[-0.02939553012093719,0.04177579276057331]",100.0,"[-0.07983065927822268,-0.13430314251082756]",4.0,"[0.15705583425375025,0.12144435643073512]",4.0,"[0.05202515453748784,0.1371464688176491]",100.0,"[0.0034979859142398586,-0.05834931137187821]",100.0,"[0.10790060999315093,0.15013242446425978]",100.0,"[0.049214177445531075,-0.12475664647866644]",100.0,"[-0.10071169008301445,0.07375656287637253]",100.0,"[0.0018140746131648582,-0.10235852624194329]",100.0,"[-0.1111771316107931,-0.1025642852645434]",4.0,"[0.02,0.02]",146.1884,0.0,28.0,28.0,36.0,1.0,,,,,,,
,,,,,,,616494f1ae4537c01914c758,6842bb06e7f0cc789c6605ea,2025-06-06_10h56.58.324,shape_ratio,2024.1.5,Win32,59.17159763,6842b561977af9ba9b0f87ca,,,,,,,,,,,146.1897,146.6887,,,146.9395,147.3391,right,,,,,,,,0.9,0.3835,,,,,,,146.6887,146.9394,147.3392,"[-0.07691173751321981,0.04092145999033557]",100.0,"[0.06527021819165094,-0.030795609005557716]",100.0,"[0.19058507033561828,0.02477278802901253]",100.0,"[-0.19295217437493786,0.02195578983022307]",100.0,"[0.022357452428308125,-0.02903686513827251]",100.0,"[-0.015768422072550334,0.005652510045122774]",100.0,"[-0.006521747952294854,0.08178229924638696]",100.0,"[0.015279926749574343,0.12652058907391753]",100.0,"[-0.05543786288298859,-0.05358133677599872]",100.0,"[-0.13817754777712032,0.028599316333677866]",4.0,"[-0.03349959026819871,-0.11863953302032498]",100.0,"[0.13040238551587652,0.03778018155047166]",100.0,"[0.03627780401627878,0.010523944031862565]",100.0,"[-0.027103067581460985,0.1374085501414456]",100.0,"[-0.12175297601686705,0.06994266395755032]",100.0,"[0.12737144373118722,0.14241774904864907]",100.0,"[-0.07773273462144145,-0.14298558982374318]",4.0,"[-0.12247292656523158,-0.03690298935286898]",100.0,"[0.016824069558272852,0.16743916270146136]",100.0,"[-0.16041868917229604,0.11447447006220371]",100.0,"[0.1673665918270547,0.07725398736620818]",100.0,"[0.18846349422275446,-0.06366196098327119]",100.0,"[0.003181140845156862,-0.09947639580282777]",100.0,"[0.08977798431225867,0.1024915461323912]",100.0,"[-0.1910276574726311,-0.05744721181283182]",4.0,"[0.12159413848460737,-0.03473226512981082]",100.0,"[0.09569297468459753,-0.06641038541117597]",100.0,"[0.057088030420705975,-0.18112301185018417]",100.0,"[-0.07435179390310162,0.12860682320421926]",100.0,"[0.1242362865461219,-0.1080034663784957]",100.0,"[-0.03929366310454401,-0.18172323509866128]",100.0,"[0.07117082701513827,-0.13564283325227744]",100.0,"[0.02,0.02]",148.4375,0.0,29.0,29.0,15.0,1.0,,,,,,,
,,,,,,,616494f1ae4537c01914c758,6842bb06e7f0cc789c6605ea,2025-06-06_10h56.58.324,shape_ratio,2024.1.5,Win32,59.17159763,6842b561977af9ba9b0f87ca,,,,,,,,,,,148.4378,148.9402,,,149.1929,149.6387,right,,,,,,,,0.9,0.4269,,,,,,,148.9403,149.1929,149.6389,"[0.006662429588028905,0.13931012145743557]",100.0,"[-0.14588481409676182,0.06282931436737141]",100.0,"[-0.10067311634568983,0.1622594312790357]",100.0,"[0.15998287313358292,0.06278519201340556]",100.0,"[0.16352094863268463,-0.022398145073142323]",100.0,"[0.1325823742324447,0.139658542718624]",100.0,"[0.057113544135346445,0.015874008193008594]",100.0,"[0.09788494561151592,-0.05301115428201006]",100.0,"[-0.007734037866186424,0.06908555217448178]",100.0,"[-0.12734961973198383,-0.12129513840117367]",4.0,"[0.01336853984740174,-0.17370024353623148]",100.0,"[0.05750537829841649,0.17277512384289725]",100.0,"[0.13575548445984584,-0.10958506546378473]",100.0,"[0.035281338550199305,-0.08547402753336128]",100.0,"[-0.0841088716840647,-0.1450697903736429]",100.0,"[-0.14614762901065384,-0.05506411602779305]",100.0,"[-0.10195143049257172,0.017365494482014427]",100.0,"[-0.01690119929415899,0.1929168303081612]",100.0,"[-0.004446386580416565,-0.114483964367487]",100.0,"[-0.06084828791744509,0.05900734099704608]",100.0,"[-0.003944392425161497,-0.0352559985717448]",100.0,"[0.1787910002813109,-0.08801136917681789]",100.0,"[-0.19588483850889182,0.029024851332803532]",4.0,"[0.15399011025408385,0.10340967604785148]",100.0,"[0.06235225406115587,-0.1395971277025609]",100.0,"[-0.08707656488124403,-0.05737780421538164]",100.0,"[-0.1616965821051703,0.11263895317653137]",100.0,"[0.17535477531130914,0.018220694596812078]",4.0,"[-0.06850759072823913,-0.011044266990205425]",100.0,"[0.0189119993112912,0.03560263838553252]",100.0,"[-0.04095520250921183,-0.16676683300711495]",100.0,"[0.03703236557267472,-0.039334435050695865]",100.0,"[0.02,0.02]",150.7395,0.0,30.0,30.0,14.0,1.0,,,,,,,
,,,,,,,616494f1ae4537c01914c758,6842bb06e7f0cc789c6605ea,2025-06-06_10h56.58.324,shape_ratio,2024.1.5,Win32,59.17159763,6842b561977af9ba9b0f87ca,,,,,,,,,,,150.741,151.2398,,,151.4913,151.9251,left,,,,,,,,0.5,0.4066,,,,,,,151.24,151.4913,151.9254,"[-0.04390673688645488,0.17807494666034732]",4.0,"[0.14171827223834077,0.07601031260498897]",4.0,"[-0.14638131569841642,-0.054788024722913865]",4.0,"[0.08432916697520579,0.0935509674797559]",100.0,"[0.07205855215783656,0.14931402301933938]",100.0,"[0.030454230689037763,-0.07377111008797649]",100.0,"[-0.014520286378649185,-0.1284824589701391]",100.0,"[-0.08524139671992378,-0.028744812225921148]",4.0,"[0.11239423784513496,-0.002577338891632049]",4.0,"[-0.10449011792351501,0.12579880139640082]",100.0,"[-0.04640496544281832,0.02275103795672134]",4.0,"[-0.0843191346188422,0.06098097648255637]",100.0,"[-0.16639969930645981,0.08348461971636202]",100.0,"[-0.06084846597398866,-0.13334019898046498]",4.0,"[-0.035556415490852956,0.13322737765746648]",100.0,"[-0.1949103118889538,-0.029884791516939097]",100.0,"[0.014251178640332965,0.13984759728866325]",4.0,"[-0.13934373013292042,-0.001626899739129574]",100.0,"[0.1873682602101892,-0.010049562129954285]",4.0,"[0.1467493975415109,-0.10282303742757296]",100.0,"[0.023590027026209322,-0.14476742313284435]",4.0,"[-0.0002564163764579999,-0.03372892599635908]",100.0,"[0.15748433648957105,-0.04770094417805555]",100.0,"[0.008918642213003869,-0.18712679576761554]",4.0,"[-0.11550044468511927,0.08663359716670822]",4.0,"[0.11360259227006307,-0.12930502388071943]",100.0,"[0.05314980386461765,0.03253328171343748]",100.0,"[-0.10409275507811977,-0.13630819964464586]",4.0,"[0.10996257294896085,-0.059921761245032824]",100.0,"[0.025420384557774414,0.09995402620297238]",4.0,"[-0.10638009569639877,0.1668949656176304]",4.0,"[-0.0219935075425351,0.08460130776306543]",4.0,"[0.02,0.02]",153.0244,0.0,31.0,31.0,114.0,1.0,,,,,,,
,,,,,,,616494f1ae4537c01914c758,6842bb06e7f0cc789c6605ea,2025-06-06_10h56.58.324,shape_ratio,2024.1.5,Win32,59.17159763,6842b561977af9ba9b0f87ca,,,,,,,,,,,153.0264,153.5258,,,153.776,154.2248,left,,,,,,,,0.1,0.4385,,,,,,,153.5259,153.7758,154.2249,"[-0.023982241177910597,0.08849036217074634]",4.0,"[0.028644125586773934,-0.05870732891417208]",4.0,"[-0.1374828683149675,0.0840523771286658]",4.0,"[0.1543125115637752,-0.12494807505591218]",4.0,"[0.05753572614965715,0.16508850575527292]",4.0,"[0.11417480789798742,-0.08519439793075509]",4.0,"[-0.004195657277095312,-0.0021832902735601178]",4.0,"[-0.10950171013463654,-0.0908350640942338]",4.0,"[-0.058090109883080075,-0.13575108958150864]",100.0,"[-0.15354879162868185,-0.11270669790057482]",4.0,"[-0.11156568868989936,0.13042788427295132]",4.0,"[0.15686825161540377,0.059277039212548774]",100.0,"[0.05505374052178911,-0.026371695424084046]",4.0,"[-0.08433959098569843,0.07969125522144595]",4.0,"[-0.020180223374328548,-0.06514182289534329]",4.0,"[-0.1244255734303198,-0.036283874021909586]",4.0,"[-0.07066636549524757,-0.032528493515107414]",4.0,"[0.07264675844082036,-0.15351566057266636]",4.0,"[0.029608453429061436,-0.17989539958458972]",100.0,"[0.0400209288079999,-0.10277520787819669]",4.0,"[-0.19658615451726474,0.009660254365122621]",4.0,"[0.1505250400712656,0.10952399325053516]",4.0,"[0.14607258737408335,-0.019598978531537952]",4.0,"[0.08409104849378278,0.052619158800891436]",4.0,"[-0.18492486517189774,0.06843009497429715]",4.0,"[-0.06738031039929201,0.011051669225254867]",4.0,"[-0.1124981321441218,-0.14236330078996756]",4.0,"[0.11396808075813054,0.14786645103571056]",4.0,"[-0.04542595154431618,0.12771859569827743]",4.0,"[0.11844489513289537,0.02898452344705644]",4.0,"[0.19301802777855842,-0.005056867356959262]",4.0,"[0.11176528122526382,0.09105170870631822]",4.0,"[0.02,0.02]",155.3252,0.0,32.0,32.0,208.0,1.0,,,,,,,
,,,,,,,616494f1ae4537c01914c758,6842bb06e7f0cc789c6605ea,2025-06-06_10h56.58.324,shape_ratio,2024.1.5,Win32,59.17159763,6842b561977af9ba9b0f87ca,,,,,,,,,,,155.3266,155.8254,,,156.0805,156.9101,right,,,,,,,,0.5,0.8044,,,,,,,155.8256,156.0804,156.9102,"[0.09804613508137883,0.1651977030472979]",4.0,"[0.14628286289759315,0.06878906414673215]",100.0,"[0.06270453226636685,-0.14725702184946896]",100.0,"[-0.13572701620035188,0.0360033409533473]",4.0,"[-0.09167134659294864,-0.11629170905951292]",100.0,"[-0.11996999183558105,-0.03579095511803286]",100.0,"[-0.021791072525365374,-0.06956890205967725]",100.0,"[0.18943615212137338,-0.004733942733579403]",100.0,"[-0.06091813649122342,0.011798365148131843]",4.0,"[0.05225264093194869,-0.09897832402629597]",100.0,"[-0.12474244008153038,0.1380226767235127]",4.0,"[-0.0503564267440416,0.15247758815606047]",4.0,"[0.020233773533151523,0.025898546053898873]",4.0,"[0.092041358587386,-0.04536629541634821]",4.0,"[-0.17126565492871854,-0.0038190089678784675]",4.0,"[-0.09769154523842603,0.1699292009471898]",100.0,"[-0.08102025683656938,0.11704351939745579]",4.0,"[0.13338836185207714,0.1422081382672431]",100.0,"[0.06147291304648244,0.09011838740016134]",100.0,"[0.027787416315406127,-0.027872758688696837]",100.0,"[0.1481085178785773,-0.13012901031671076]",100.0,"[0.007338401280659306,0.09340484798639628]",4.0,"[-0.008488483043384367,-0.13733176603531932]",100.0,"[-0.15699235506008682,0.08054159820743072]",4.0,"[0.13613856245690953,0.027665167766624976]",100.0,"[0.1541415102412269,-0.0818232328589283]",4.0,"[-0.1157154741337617,-0.15996900127431032]",4.0,"[0.137560177191521,-0.01285953674890181]",100.0,"[-0.045274272970818236,-0.1641966420528882]",4.0,"[-0.15298246104251534,-0.10595921879777043]",4.0,"[0.02234715485940338,0.16994036971989127]",100.0,"[-0.09516342910059852,0.06985639741839858]",4.0,"[0.02,0.02]",158.0096,0.0,33.0,33.0,104.0,1.0,,,,,,,
,,,,,,,616494f1ae4537c01914c758,6842bb06e7f0cc789c6605ea,2025-06-06_10h56.58.324,shape_ratio,2024.1.5,Win32,59.17159763,6842b561977af9ba9b0f87ca,,,,,,,,,,,158.0109,158.5097,,,158.7615,159.2445,right,,,,,,,,0.6,0.4673,,,,,,,158.5098,158.7614,159.2446,"[0.02535441906668342,0.05247404170510083]",4.0,"[0.16213263907717024,0.06366992991895727]",100.0,"[-0.07685810460576287,0.06395820797288732]",4.0,"[-0.11476568885561335,-0.12007456020234791]",100.0,"[0.10929262131004563,0.125690732779267]",100.0,"[0.12450130888993109,-0.025501614296467905]",4.0,"[-0.009943465490241839,0.19281271892719373]",4.0,"[0.07823071265498781,-0.09431772535960829]",100.0,"[-0.1496986550052205,0.002630512426318613]",100.0,"[0.09890402693913031,-0.14866902457265474]",100.0,"[-0.1768179626285394,0.05654126665588363]",100.0,"[0.01793734238048255,-0.01473023764291946]",100.0,"[-0.10730990864458705,0.15423952425059315]",4.0,"[-0.014068714351930047,-0.1595366888266846]",100.0,"[-0.00647838919556646,0.022783030132514953]",100.0,"[0.018517712230221417,-0.056185063483007856]",100.0,"[0.17968879218487963,-0.0008406616343635031]",4.0,"[-0.015673615247668672,-0.09759050427672913]",100.0,"[0.006147343297618274,0.14947299457125252]",4.0,"[-0.13545443080025338,0.08226508708517136]",4.0,"[-0.09376936034239941,-0.015887471631712193]",100.0,"[-0.0762962449422894,0.1818151255653237]",4.0,"[0.14916120331175944,-0.11595424859133466]",100.0,"[0.07104597226830879,0.16604419813215257]",4.0,"[-0.033336265971231065,-0.0132764598121249]",100.0,"[0.08847320935863309,-0.005019635339518401]",100.0,"[0.030550591285393565,-0.1469475229558558]",4.0,"[-0.07880698076040354,-0.09973575206002062]",4.0,"[-0.04373994169875782,-0.053195495416347306]",4.0,"[-0.04640527017553155,0.11049218628294875]",100.0,"[0.011932826361423992,-0.19484938821569706]",100.0,"[-0.03129684234588792,0.05471664786356195]",100.0,"[0.02,0.02]",160.343,0.0,34.0,34.0,50.0,1.0,,,,,,,
,,,,,,,616494f1ae4537c01914c758,6842bb06e7f0cc789c6605ea,2025-06-06_10h56.58.324,shape_ratio,2024.1.5,Win32,59.17159763,6842b561977af9ba9b0f87ca,,,,,,,,,,,160.3435,160.8444,,,161.0962,161.5957,left,,,,,,,,0.55,0.4726,,,,,,,160.8445,161.0961,161.5957,"[-0.10002393429081619,-0.012648480717554441]",100.0,"[-0.1857810806065517,-0.0028934746694921297]",100.0,"[0.14791598894622107,0.07952945170331897]",100.0,"[0.04069321197959919,-0.1415489638986911]",100.0,"[-0.06915639608961785,-0.11990489175799343]",4.0,"[-0.08543593106788885,-0.16001053602298523]",100.0,"[-0.13143943844124897,0.03229506272363105]",100.0,"[0.10685960157982943,0.1256078658251948]",4.0,"[0.057555900171247454,0.1500696570954819]",100.0,"[0.12388403622590961,-0.02804251690858364]",4.0,"[-0.06036818945423801,0.13579041290919325]",4.0,"[0.1538415908491427,-0.08356582324331646]",100.0,"[0.09184318191023104,-0.12442213643259012]",4.0,"[0.044069065394507875,0.0012975312770227502]",100.0,"[-0.16165533086445316,-0.09756643264672316]",4.0,"[0.10677776657355406,0.08472567578748724]",100.0,"[-0.1208701721844589,0.15028511032686062]",100.0,"[-0.12116560696738082,-0.11705130065081616]",4.0,"[0.10728033367258043,0.0232149050899279]",100.0,"[-0.04005491212592604,0.059220085490776855]",4.0,"[0.037975216673858656,0.05741234131450764]",4.0,"[-0.022776086778878546,0.10161229394270406]",100.0,"[-0.09770779288599281,0.10301957438527527]",4.0,"[-0.18226966120611215,0.058674428914621934]",100.0,"[0.002442014246613578,-0.035791578308609254]",100.0,"[-0.1595104597882272,-0.0359377077774476]",4.0,"[-0.026228510536428103,-0.13314263494333148]",100.0,"[-0.013525466019944034,-0.19661593004538397]",4.0,"[-0.0783787241436385,-0.07571387390079178]",4.0,"[0.13331722518146932,-0.1476353076228424]",100.0,"[0.01510067814786068,-0.09471171886413458]",4.0,"[-0.05017672472788404,-0.03350116021287387]",100.0,"[0.02,0.02]",162.6952,0.0,35.0,35.0,89.0,1.0,,,,,,,
,,,,,,,616494f1ae4537c01914c758,6842bb06e7f0cc789c6605ea,2025-06-06_10h56.58.324,shape_ratio,2024.1.5,Win32,59.17159763,6842b561977af9ba9b0f87ca,,,,,,,,,,,162.6972,163.1956,,,163.4453,163.8631,right,,,,,,,,0.6,0.4031,,,,,,,163.1957,163.4453,163.8634,"[-0.005558465009975709,-0.1414290400237292]",100.0,"[0.05445480822669971,0.17869177763326538]",100.0,"[0.06246322975366042,0.08424965182703488]",100.0,"[-0.037343151989321456,0.059548589891414885]",100.0,"[0.02679620905801637,-0.09905937320822254]",4.0,"[0.14092334811412524,0.07207279919071974]",100.0,"[0.12660126557084925,-0.0006230795486719673]",4.0,"[-0.002589402810861787,0.18019142464662027]",4.0,"[0.11260928967405244,-0.1319994261433376]",4.0,"[0.02957142884296081,-0.19644748296405012]",4.0,"[0.1281606001716966,-0.06305139753211146]",100.0,"[-0.08993605900451147,0.16269651003808097]",4.0,"[-0.034735596408076254,-0.005429475245453739]",4.0,"[0.18903391900243577,-0.06336091328135965]",100.0,"[-0.1641816794697613,-0.021770675958295897]",100.0,"[-0.07383685148185641,0.00966569963093118]",4.0,"[0.022575966596654746,-0.026874248748765033]",100.0,"[0.05417777282541058,0.02818716705050866]",100.0,"[-0.15947797242199432,0.12007814990908688]",4.0,"[-0.128788412571813,-0.06320711009457765]",100.0,"[-0.014148663363652465,-0.18972308224044837]",100.0,"[0.10276810944581781,0.04983919040012408]",4.0,"[0.06934373349260328,-0.10798383270637346]",4.0,"[0.16702372053341433,0.021463360396822406]",100.0,"[-0.022078566915602702,0.1307963268997999]",100.0,"[-0.19589831520075268,0.02344513391287653]",100.0,"[0.08609051383216729,-0.16782425662134237]",100.0,"[-0.05671030589008156,-0.10696392377613341]",100.0,"[-0.1476098811223768,0.04407814187140292]",100.0,"[-0.08375953948206825,0.048819444511376944]",4.0,"[0.111162769991434,0.12135570737630828]",100.0,"[-0.12283292454737416,-0.11800885720014763]",4.0,"[0.02,0.02]",164.963,0.0,36.0,36.0,30.0,1.0,,,,,,,
,,,,,,,616494f1ae4537c01914c758,6842bb06e7f0cc789c6605ea,2025-06-06_10h56.58.324,shape_ratio,2024.1.5,Win32,59.17159763,6842b561977af9ba9b0f87ca,,,,,,,,,,,164.9644,165.4632,,,165.7183,166.0645,right,,,,,,,,0.9,0.3291,,,,,,,165.4633,165.7181,166.0648,"[0.09060897422803377,0.02091499960220463]",100.0,"[0.0856103574537965,-0.13467129629926478]",100.0,"[-0.0609596259940405,-0.09115952375878911]",100.0,"[0.13468382780262927,-0.11102253689590266]",100.0,"[-0.12534944214542365,-0.1478239913515332]",100.0,"[-0.11658906935276421,-0.08774958348577307]",100.0,"[-0.17584614409762178,0.0486896661221231]",100.0,"[-0.05093857169584815,0.13190959044447192]",100.0,"[0.009542857610002032,-0.0563070300318353]",100.0,"[0.07990044828112557,0.1777178366778496]",100.0,"[-0.0007405297519765628,-0.15655958784406324]",100.0,"[0.04158651864927343,-0.02720236074667235]",100.0,"[-0.08265106505545607,-0.0006625203927547198]",100.0,"[0.13174481283458447,-0.04348791143567057]",100.0,"[0.06903581382171375,0.08054551109993675]",100.0,"[0.00014757051944644175,0.11743727697240929]",100.0,"[0.13793400345476195,0.09175036147640264]",100.0,"[0.03412389872593793,-0.12659001710627396]",100.0,"[-0.1454929878303099,-0.0013337202008713057]",100.0,"[0.17846189428956005,0.009874397717583088]",4.0,"[-0.1318401706600674,0.11080900185616756]",100.0,"[0.06499068117018719,-0.06739142891705259]",100.0,"[0.03855478267494908,0.14179730894296813]",100.0,"[0.01807252408764371,0.060229894303167816]",100.0,"[-0.05789291617583979,-0.13267253582346938]",100.0,"[-0.04786426213908163,0.02553829083864567]",100.0,"[-0.03085790370510752,0.06439295796042449]",4.0,"[-0.08630576369486694,0.08174456900586899]",100.0,"[-0.13294597458377203,0.040369473830167625]",100.0,"[0.0008087840861830556,-0.010871218282605337]",100.0,"[0.1378470277186609,0.03368291171885213]",100.0,"[0.07748469528921319,0.12137453302532848]",4.0,"[0.02,0.02]",167.1636,0.0,37.0,37.0,1.0,1.0,,,,,,,
,,,,,,,616494f1ae4537c01914c758,6842bb06e7f0cc789c6605ea,2025-06-06_10h56.58.324,shape_ratio,2024.1.5,Win32,59.17159763,6842b561977af9ba9b0f87ca,,,,,,,,,,,167.1649,167.6678,,,167.9195,168.2357,right,,,,,,,,0.9,0.3006,,,,,,,167.6683,167.9193,168.2359,"[0.07331465859496447,-0.0590414665181729]",100.0,"[-0.055494694445702916,0.0963167368201454]",100.0,"[0.12058354792780585,-0.06775549933171289]",100.0,"[-0.11927341717452676,-0.11668777025818765]",100.0,"[-0.008422121722956902,-0.01807757225846925]",100.0,"[-0.1285960201237655,-0.004536470626701909]",4.0,"[-0.04538726055092373,-0.1016832690265616]",100.0,"[-0.1374090989412353,-0.06948752221387076]",100.0,"[-0.1714076816075436,0.06960061273968529]",100.0,"[0.04951926526484039,-0.1060652137938639]",100.0,"[0.01717382025737642,0.15036834386630982]",100.0,"[-0.10512183233688557,-0.041950052517143]",100.0,"[-0.034105653871858384,-0.185377756763932]",100.0,"[-0.005496499859248574,-0.14670809750628144]",100.0,"[0.18870238326724031,0.04392362647031063]",100.0,"[0.19838714213052974,0.00464294162987626]",100.0,"[0.06110176709181463,0.0662172074511761]",4.0,"[-0.01591376551651453,0.08963213391827071]",100.0,"[-0.17383578577813558,-0.009952919049335675]",100.0,"[0.017111838847284767,-0.07579435695007994]",100.0,"[0.04239339920705113,0.10800798344497156]",4.0,"[-0.026961156484478707,0.14241427815888053]",100.0,"[-0.19295194498450918,0.035821698563457176]",100.0,"[0.06364917309794726,0.14244713564059047]",100.0,"[0.16543691661998855,-0.026220012830024123]",100.0,"[-0.09953098151141843,0.05166545520667272]",100.0,"[0.09331677769805605,-0.14407798808844616]",100.0,"[-0.13952588895590282,0.040055778960341196]",100.0,"[-0.014456618639448228,0.03409037248476515]",100.0,"[-0.0836969626840951,0.14927095078082964]",100.0,"[0.09796341698984172,-0.014141903079640136]",100.0,"[-0.17938982624887923,-0.08819603639985793]",100.0,"[0.02,0.02]",169.3345,0.0,38.0,38.0,23.0,1.0,,,,,,,
,,,,,,,616494f1ae4537c01914c758,6842bb06e7f0cc789c6605ea,2025-06-06_10h56.58.324,shape_ratio,2024.1.5,Win32,59.17159763,6842b561977af9ba9b0f87ca,,,,,,,,,,,169.3358,169.8319,,,170.0831,170.7997,left,,,,,,,,0.5,0.6889,,,,,,,169.8321,170.083,170.7999,"[-0.03419865066488691,-0.0666071507564497]",4.0,"[-0.12422348519240221,0.14025281564766123]",100.0,"[-0.02153379349261837,-0.00929144505554604]",100.0,"[0.1162110199163804,-0.12627674703084799]",100.0,"[0.11300033168954157,-0.023989085048047348]",100.0,"[0.027690533647382932,0.13767298217003304]",4.0,"[0.03527167863829698,-0.0935932929931858]",4.0,"[-0.07989051946837918,-0.08601269575363991]",100.0,"[0.15456298800578042,0.039192381866313616]",4.0,"[0.14621082555620035,-0.07226111139748596]",100.0,"[0.05583068556700843,-0.021319984819886076]",100.0,"[-0.07939356242393812,0.04076970630498776]",4.0,"[-0.030670961836882515,-0.14391205129917375]",100.0,"[-0.12168843216066334,-0.07349135440233676]",4.0,"[-0.08356310413134842,0.09900479500359675]",100.0,"[-0.021160256603618876,0.04041216300472606]",100.0,"[-0.11585628548676735,-0.1332467622108117]",4.0,"[-0.04640896806386109,0.15532208627689317]",4.0,"[0.022875778134010514,-0.1790416135794241]",100.0,"[-0.17225028520155497,-0.03335179827763561]",4.0,"[-0.021208075735946935,0.19424356347004976]",4.0,"[-0.13533518798268754,0.05912474111797151]",4.0,"[0.1617722614794666,-0.110780132628196]",4.0,"[0.005557267968011245,-0.05754010074672792]",100.0,"[-0.09881551148397191,-0.040063639673890934]",100.0,"[0.10963989754757215,0.16035122459452025]",4.0,"[-0.17475361415765198,0.06853279353883039]",4.0,"[-0.01007099141717412,0.11287593393780398]",100.0,"[0.0784865716033249,-0.057564933490218226]",4.0,"[0.1620317344998591,-0.024349938776633245]",100.0,"[0.11022891617073624,0.021466218370057223]",100.0,"[-0.11515175284779014,0.004775591331993181]",4.0,"[0.02,0.02]",171.8994,0.0,39.0,39.0,96.0,1.0,,,,,,,
,,,,,,,616494f1ae4537c01914c758,6842bb06e7f0cc789c6605ea,2025-06-06_10h56.58.324,shape_ratio,2024.1.5,Win32,59.17159763,6842b561977af9ba9b0f87ca,,,,,,,,,,,171.9008,172.3989,,,172.6517,173.0185,right,,,,,,,,0.55,0.3406,,,,,,,172.399,172.6516,173.0186,"[-0.03589989135618256,0.1942325918011868]",100.0,"[0.03291560277672837,0.15806773338607052]",100.0,"[-0.08264195623290115,0.012575175757551573]",100.0,"[0.0672037930320195,0.014632004522728146]",4.0,"[-0.012778856969552223,0.0084343488600961]",100.0,"[0.08190294271386876,0.139058230012494]",4.0,"[0.1913629195276982,0.05384215271047392]",4.0,"[0.05299666911084956,0.1019435526829569]",100.0,"[0.12274267475335261,0.0800259211206573]",4.0,"[-0.1347306800304204,-0.01379598407753594]",4.0,"[-0.041149499736451364,-0.0604648351644911]",100.0,"[-0.1676143682896766,0.013385582344044003]",100.0,"[0.04193817385559573,-0.08893323332159947]",4.0,"[0.1452357238936938,-0.06138095794432506]",4.0,"[-0.05181346692695431,-0.1623126629505383]",100.0,"[0.03497373118962149,-0.19368795019771806]",4.0,"[-0.06856730797090585,0.10297015491869062]",100.0,"[-0.01823070713006144,0.06699141824268692]",100.0,"[0.017078324652806388,-0.15394344959279146]",4.0,"[-0.07156540846426739,0.14548219968294104]",100.0,"[-0.13720410214383152,0.09162162500386636]",4.0,"[0.1230472983895755,0.037362964231817744]",4.0,"[0.008411232736573128,-0.06625412986327178]",100.0,"[-0.12205005333422161,-0.08992230439514788]",100.0,"[-0.01002760179741729,-0.10345484451597046]",4.0,"[-0.13409054810345322,-0.1384156459654728]",4.0,"[0.18685176134735265,-0.06231457509919281]",100.0,"[0.17442212291888162,-0.014019158922294585]",100.0,"[-0.1567445838236411,-0.06573915042891579]",100.0,"[-0.09443817510413838,-0.04112510700527923]",100.0,"[0.09657793542015569,-0.15573282348048756]",100.0,"[0.12364646683327603,-0.005331332121728867]",4.0,"[0.02,0.02]",174.1173,0.0,40.0,40.0,82.0,1.0,,,,,,,
,,,,,,,616494f1ae4537c01914c758,6842bb06e7f0cc789c6605ea,2025-06-06_10h56.58.324,shape_ratio,2024.1.5,Win32,59.17159763,6842b561977af9ba9b0f87ca,,,,,,,,,,,174.119,174.6177,,,174.8687,175.3511,left,,,,,,,,0.55,0.4648,,,,,,,174.6179,174.8686,175.3513,"[0.14054494611496537,0.11873417776899942]",100.0,"[-0.15842954776954815,-0.06936125480723697]",100.0,"[-0.042217483392792535,-0.18533150853022826]",4.0,"[0.04325986426812222,-0.025533412569868207]",100.0,"[-0.02765590761344334,-0.008455161533577962]",4.0,"[-0.022595544272937907,0.06315689794701679]",4.0,"[-0.09780676242333716,-0.09532038947633702]",100.0,"[0.07706482326403534,-0.07115270957800568]",100.0,"[-0.14538893188677904,0.06801878151564898]",100.0,"[-0.054501083789472556,0.02184833704855778]",4.0,"[-0.02713316968524937,0.11075611625424779]",100.0,"[0.16331242373703844,-0.09666957227847582]",4.0,"[0.10740268729990222,0.0039576179590455314]",100.0,"[0.1282420687345412,-0.036623601004209846]",4.0,"[0.0334973191699405,0.17071631734010262]",100.0,"[0.040097679422285884,0.08855636165872188]",4.0,"[0.006155719104414197,-0.10220301133544754]",4.0,"[-0.116649831461135,-0.0396203293586486]",4.0,"[-0.06447415191990097,0.13949113133985544]",100.0,"[0.12209746504906206,0.06235209627295666]",100.0,"[-0.13149888803608864,-0.1215245710088778]",4.0,"[0.018162495259577985,0.051945654090892926]",100.0,"[-0.05724187568683563,-0.13437305615950623]",4.0,"[-0.10052126318012564,-0.16194296213928727]",100.0,"[-0.13690911686768809,0.1262280308719255]",100.0,"[-0.09780125550544898,-0.004060474310889159]",100.0,"[-0.019569725069900734,-0.05978189979274564]",4.0,"[-0.19176392445466822,-0.03831977860886421]",4.0,"[0.061214301280160636,-0.12281942359131864]",100.0,"[0.08900366178294553,0.15261619347032843]",100.0,"[-0.06418360707064105,0.06300645556661305]",4.0,"[0.1830274180519288,-0.04873555348462523]",100.0,"[0.02,0.02]",176.4517,0.0,41.0,41.0,71.0,1.0,,,,,,,
,,,,,,,616494f1ae4537c01914c758,6842bb06e7f0cc789c6605ea,2025-06-06_10h56.58.324,shape_ratio,2024.1.5,Win32,59.17159763,6842b561977af9ba9b0f87ca,,,,,,,,,,,176.453,176.9512,,,177.2029,177.7196,right,,,,,,,,0.55,0.502,,,,,,,176.9515,177.2028,177.7198,"[0.14116055550562998,0.11283110750914803]",100.0,"[0.044710211009418126,-0.07183211656398901]",4.0,"[0.12420016166543897,-0.05226644063546084]",4.0,"[0.047373297164604304,-0.013676510597355213]",100.0,"[-0.017035890372322244,0.13806815465983968]",4.0,"[0.1634414793628215,-0.04322802308006647]",100.0,"[0.06749426736705337,-0.11022469392642391]",100.0,"[0.07365721662160592,0.10282727903064956]",4.0,"[0.05142174773653023,0.1866524721099383]",4.0,"[-0.023337338468697413,0.03948890597046643]",100.0,"[-0.1227884234747093,-0.13717931067571212]",100.0,"[0.18187104188847802,0.07861300596434231]",4.0,"[-0.0022584744325797185,-0.1503627330751208]",100.0,"[-0.08916495337345967,0.026792690819138296]",4.0,"[0.029117871150648508,0.088058767503865]",4.0,"[-0.08275153997449208,0.11882612334594664]",100.0,"[-0.17580756774987563,-0.07026873544407097]",4.0,"[-0.025213254412267135,-0.09453392331880996]",100.0,"[0.16205005523358182,0.038053800731425697]",100.0,"[-0.014246275901159953,-0.1910257723265773]",100.0,"[-0.13131304384099518,0.006638760891806492]",4.0,"[-0.06983689995275667,0.07720684507070144]",4.0,"[0.1805211219273511,-0.08126886778568153]",4.0,"[-0.15031986348250692,0.09835926949033089]",100.0,"[-0.004027614987758342,-0.058686502854274916]",4.0,"[-0.06050259550370786,0.16502262925134772]",100.0,"[-0.18509297312630393,0.05225753088223932]",100.0,"[-0.03912842504044767,-0.028692719333734084]",100.0,"[-0.09828926773337932,-0.07060119271162353]",4.0,"[-0.06422419065030385,-0.12219523635197434]",100.0,"[-0.16171845531267182,-0.11517293961939779]",100.0,"[-0.1500488208005357,-0.03753576185734789]",100.0,"[0.02,0.02]",178.8187,0.0,42.0,42.0,66.0,1.0,,,,,,,
,,,,,,,616494f1ae4537c01914c758,6842bb06e7f0cc789c6605ea,2025-06-06_10h56.58.324,shape_ratio,2024.1.5,Win32,59.17159763,6842b561977af9ba9b0f87ca,,,,,,,,,,,178.8197,179.3189,,,179.5698,180.3713,right,,,,,,,,0.6,0.7943,,,,,,,179.3189,179.5697,180.3714,"[-0.048028039026388934,-0.09599689013429345]",4.0,"[0.11901593873884894,-0.09073098354421952]",4.0,"[0.13732301202496486,0.05046142800211383]",4.0,"[0.0021688098031321665,-0.03081902353934813]",100.0,"[0.023554868430486573,0.07691476145542424]",4.0,"[0.15587989822087767,0.10253342944379971]",100.0,"[0.10054522215924248,-0.04384988017202541]",100.0,"[-0.1003936281332527,0.08926142813661973]",4.0,"[-0.1938258473557071,0.039532692931120245]",100.0,"[0.14751630820468087,0.003964774046682921]",100.0,"[0.060656322510905296,-0.05554310483313441]",100.0,"[0.02617889370878865,0.012270783233739226]",100.0,"[0.06920202698338551,0.0704374005609986]",100.0,"[-0.055671258393313584,0.1545085555213663]",4.0,"[0.18471975429446202,0.05334831535460647]",100.0,"[-0.17237149611421063,0.09911113321157061]",100.0,"[-0.1382912719669267,-0.07153427835408846]",4.0,"[-0.08562901855165347,-0.04560283408698422]",100.0,"[-0.06985230471826474,-0.1840570975308319]",4.0,"[-0.05592819178264952,0.0008714906882423242]",100.0,"[0.04949480337430493,-0.16957421678456752]",100.0,"[0.17161048008550098,-0.044813804711760136]",100.0,"[0.0708580143690687,0.17096025143801935]",100.0,"[-0.13177430134914153,0.11802167156483859]",100.0,"[-0.01482441500634395,-0.12678123648183193]",4.0,"[-0.037523981172648116,-0.03679778005669771]",100.0,"[-0.1325465647649932,0.014472567471630617]",4.0,"[-0.048122742054301476,0.06742967573493774]",4.0,"[0.002532944006422303,-0.08899257467314754]",100.0,"[0.0227309815908966,0.19522967374695555]",4.0,"[-0.0005847700846458146,-0.16541199824778177]",4.0,"[0.09349956506083933,-0.13523410116704546]",100.0,"[0.02,0.02]",181.4691,0.0,43.0,43.0,35.0,1.0,,,,,,,
,,,,,,,616494f1ae4537c01914c758,6842bb06e7f0cc789c6605ea,2025-06-06_10h56.58.324,shape_ratio,2024.1.5,Win32,59.17159763,6842b561977af9ba9b0f87ca,,,,,,,,,,,181.4693,181.9694,,,182.2206,183.4048,right,,,,,,,,0.6,1.1678,,,,,,,181.9694,182.2205,183.405,"[-0.08092935669683556,0.18204275629428468]",100.0,"[-0.0436651810963539,-0.07908192425934635]",4.0,"[-0.050441653665619056,-0.03632999379047573]",4.0,"[0.0986543487868782,0.16232340619490968]",4.0,"[0.01990720002611987,-0.10659385055594352]",100.0,"[0.07393097557585263,-0.03009099953673945]",100.0,"[0.0890156753219076,0.023309856771482576]",4.0,"[-0.14927151112309048,-0.0399314904599498]",4.0,"[0.10429866639647876,-0.13805187298154134]",4.0,"[-0.03507701110517404,-0.13044885129368983]",4.0,"[-0.08539375637773702,-0.1449760822114326]",100.0,"[0.06255007742790258,0.07898691711813947]",4.0,"[-0.07258821061350502,0.13467555338045445]",100.0,"[0.013810006395098247,0.19943135174630267]",100.0,"[0.14345252750929133,-0.11088976475556378]",100.0,"[-0.00769659735511329,0.044843840993602946]",4.0,"[-0.19561988119317875,0.011693344186228477]",100.0,"[-0.13759936230267264,-0.10671966131361012]",4.0,"[-0.006154823843280516,0.14747990618065085]",4.0,"[0.1702671638805997,0.05040874928349508]",100.0,"[0.19008249343401062,-0.01476289461959381]",4.0,"[-0.14710333774762632,0.004874711806099316]",100.0,"[-0.11459626176309351,0.10524249275078058]",100.0,"[-0.057300212929479635,0.04008103748786626]",100.0,"[0.1312054996768634,0.02543455772195789]",100.0,"[-0.11709904900746322,0.06010390179654712]",100.0,"[0.09016513081932737,-0.09873626709463584]",100.0,"[0.10263622620641194,0.08354577319068673]",100.0,"[0.06685695180170921,-0.18220952810418742]",4.0,"[0.1404401258570916,0.10519185339872518]",100.0,"[0.17671572369848793,-0.07589695419177428]",100.0,"[-0.0040553630260725245,-0.05457199747442772]",100.0,"[0.02,0.02]",184.504,0.0,44.0,44.0,59.0,1.0,,,,,,,
,,,,,,,616494f1ae4537c01914c758,6842bb06e7f0cc789c6605ea,2025-06-06_10h56.58.324,shape_ratio,2024.1.5,Win32,59.17159763,6842b561977af9ba9b0f87ca,,,,,,,,,,,184.5045,185.005,,,185.256,185.9727,right,,,,,,,,0.45,0.6998,,,,,,,185.0051,185.2559,185.973,"[-0.11551438544745742,-0.053631394610059564]",4.0,"[0.10495308824266779,-0.13364461666552238]",4.0,"[-0.026985120935043433,0.17776182862753084]",100.0,"[-0.06104207301029963,-0.028942889660769987]",100.0,"[-0.1823474330083291,0.01920230601046724]",4.0,"[-0.0750966293146519,-0.17021409841433432]",4.0,"[0.06413364145233497,-0.05710982047342347]",4.0,"[-0.07766789905808327,-0.07054047003550859]",100.0,"[0.10809125270968437,0.15784869011960753]",4.0,"[-0.04828947696254168,0.1378178812543594]",4.0,"[0.10279622039469057,-0.08778145283789024]",100.0,"[0.009670073792452862,0.0035729820655227367]",100.0,"[-0.15469863084067292,0.09633177884401571]",4.0,"[0.13714114758043766,0.06772014794813938]",4.0,"[0.0934371576399132,0.010625629531379703]",4.0,"[0.020509446448041452,0.0937291144552234]",4.0,"[-0.12698906974089189,0.1375255861153812]",4.0,"[-0.14558967663485758,-0.08526051346262005]",100.0,"[-0.11430129783882471,0.06334631902500916]",100.0,"[0.1850316489481158,0.06563634215827621]",100.0,"[0.06868983281203299,-0.16745832931850801]",4.0,"[0.05252327270497106,-0.01089752445671062]",100.0,"[0.05117578678178251,0.04026097479211203]",4.0,"[-0.005424176389990843,-0.04594718146575921]",100.0,"[-0.015060130589846751,-0.11470020975684843]",100.0,"[-0.07984690128220474,0.04248994156764552]",100.0,"[0.18178465704045907,0.013758624184445149]",4.0,"[-0.11075333420019992,-0.005563395244384512]",100.0,"[0.04825931260685614,-0.11236884251370842]",4.0,"[-0.14152078927302675,-0.13076690231841614]",4.0,"[0.12296857633308213,-0.04117735577250736]",4.0,"[-0.03211000803234647,0.06932425958265619]",100.0,"[0.02,0.02]",187.073,0.0,45.0,45.0,133.0,1.0,,,,,,,
,,,,,,,616494f1ae4537c01914c758,6842bb06e7f0cc789c6605ea,2025-06-06_10h56.58.324,shape_ratio,2024.1.5,Win32,59.17159763,6842b561977af9ba9b0f87ca,,,,,,,,,,,187.074,187.5726,,,187.8243,187.9746,left,,,,,,,,0.6,0.1428,,,,,,,187.5727,187.8241,187.9747,"[0.06980801916876311,0.09592652927721278]",100.0,"[0.11636231978908759,0.061506404610426425]",4.0,"[-0.15035070892165844,0.03221009161834953]",4.0,"[-0.03011471952898204,0.02373779845846415]",100.0,"[-0.0797909708101884,0.024396054604806938]",100.0,"[-0.04899806005776624,-0.1098125482198398]",4.0,"[-0.045597369350701765,-0.030116607601957272]",100.0,"[0.029420285713117004,0.10489681769568504]",100.0,"[0.053258708541739475,0.023525970448950325]",4.0,"[0.08330943735797351,0.1627396479743253]",100.0,"[-0.12745009518624473,0.14122322261601705]",4.0,"[0.08604895934345609,-0.09168254959939086]",4.0,"[-0.11784610088418725,0.09361857175925926]",100.0,"[0.007864263096094847,-0.022359811190409886]",4.0,"[0.11618128537943559,0.1209203582118027]",100.0,"[0.1487834485175562,-0.01847465992241523]",100.0,"[-0.003645922551685801,-0.10863791231902775]",100.0,"[0.009557107321211749,0.15421940115667743]",100.0,"[-0.08377889413194019,0.12198918048389436]",100.0,"[0.1706464960266788,0.09050750448665242]",4.0,"[0.0214500104084063,-0.0707924024842829]",100.0,"[0.08585903288167651,-0.14066356831107343]",4.0,"[0.12288826223966778,-0.110718018281928]",100.0,"[-0.16803187472535278,-0.10718054779083737]",4.0,"[0.1420881999759525,0.03045429679910708]",100.0,"[-0.14787093842124513,-0.07216663043643239]",4.0,"[-0.13200623300709655,-0.13729986186926424]",100.0,"[-0.032736156449552196,-0.18999069878486832]",4.0,"[-0.07336675639067042,-0.1524480428618181]",100.0,"[0.18082653820846195,-0.04597601554840833]",100.0,"[0.01580722506439312,0.04423795522588572]",100.0,"[-0.011550400227562532,0.19559405988851047]",4.0,"[0.02,0.02]",189.0739,0.0,46.0,46.0,57.0,1.0,,,,,,,
,,,,,,,616494f1ae4537c01914c758,6842bb06e7f0cc789c6605ea,2025-06-06_10h56.58.324,shape_ratio,2024.1.5,Win32,59.17159763,6842b561977af9ba9b0f87ca,,,,,,,,,,,189.0753,189.5741,,,189.8248,190.7415,left,,,,,,,,0.45,0.9012,,,,,,,189.5743,189.8247,190.7418,"[0.020867627293446156,-0.1726032113567156]",100.0,"[0.1162361136736118,0.030776446438131266]",100.0,"[0.02900148569228558,0.1607715296448195]",4.0,"[-0.12995741454601498,0.04660217602803839]",4.0,"[-0.08839517221320753,0.1702432456416087]",4.0,"[-0.10832101467307327,-0.025125549388356646]",4.0,"[0.11648120492756385,-0.060003899944333666]",100.0,"[-0.14319859057744855,-0.08600698631448357]",100.0,"[-0.06900053718895509,-0.0536393584698691]",4.0,"[-0.061785228899985487,-0.16780006283543783]",100.0,"[0.06534055808645158,0.03463148011615992]",4.0,"[-0.18245692816214334,-0.03751179033944915]",4.0,"[-0.12309980562301777,0.10148370215655889]",100.0,"[0.15474091404524887,0.08314523163544785]",100.0,"[-0.07991095600387184,0.10075055913613355]",4.0,"[0.01376357933339093,0.03637656630768304]",4.0,"[-0.11273057054417647,-0.1583712297004899]",4.0,"[0.057183006323589296,-0.04601596906253447]",100.0,"[-0.10138117253861346,-0.08453942601442128]",4.0,"[-0.09249854759670229,0.027996682526911138]",4.0,"[-0.06053489584175971,-0.009028498937333146]",100.0,"[0.07531626269305233,0.1061415904701351]",100.0,"[0.15235124558465907,0.12837120942379215]",4.0,"[0.09851783214936286,0.16279516736191332]",4.0,"[0.06817080034898318,-0.1465255399903112]",100.0,"[0.04361316187398388,-0.11007072966483611]",100.0,"[-0.0005449364782149692,0.19358141492086606]",100.0,"[0.13604935432653617,-0.12928572152140091]",4.0,"[-0.018168957967818554,-0.08940124089579168]",4.0,"[-0.02139650716784568,0.1439853420365791]",4.0,"[-0.02236746488599801,-0.180276298792771]",4.0,"[0.10645129813520691,-0.011452226910739166]",100.0,"[0.02,0.02]",191.8414,0.0,47.0,47.0,132.0,1.0,,,,,,,
,,,,,,,616494f1ae4537c01914c758,6842bb06e7f0cc789c6605ea,2025-06-06_10h56.58.324,shape_ratio,2024.1.5,Win32,59.17159763,6842b561977af9ba9b0f87ca,,,,,,,,,,,191.8422,192.3415,,,192.5955,193.2429,left,,,,,,,,0.1,0.6208,,,,,,,192.3416,192.5954,193.2431,"[-0.07996270043140832,-0.10174261219238113]",100.0,"[0.04959514756972446,0.13182632865727886]",4.0,"[-0.11506113943001303,0.06911816953686996]",4.0,"[0.1197230999071776,0.12782760622795486]",4.0,"[-0.037370565540212466,0.001584085555823811]",4.0,"[-0.032673091537678965,-0.16529860531345514]",4.0,"[0.14095992590177803,0.0421694268832046]",4.0,"[0.01006620282504367,-0.12260771875091901]",4.0,"[0.09876176904465124,-0.11619290059735225]",100.0,"[0.04158240817961047,-0.18070788010979008]",4.0,"[0.06718761296993724,-0.0308315525733393]",4.0,"[0.01571635225629446,-0.010268862641218467]",4.0,"[0.16841852280255623,-0.029325576665314858]",4.0,"[-0.1553459931085408,0.07045286235808779]",4.0,"[-0.19007017217652034,-0.03709576767900379]",4.0,"[0.08810769704300928,0.020764296311246013]",4.0,"[-0.00786403805779492,0.061554266404456943]",100.0,"[0.1131544006333587,-0.022415572739349708]",4.0,"[0.13134778746606127,-0.08973601995912776]",4.0,"[-0.14763253472166943,0.1097830050793188]",4.0,"[-0.15031473622547198,-0.012425602507566235]",4.0,"[-0.0683084804810562,0.04859545651367371]",4.0,"[-0.10693157514923364,-0.02307608733054818]",4.0,"[-0.029496411428298838,0.17816440316789922]",4.0,"[0.061689758684266544,0.18343222797403352]",4.0,"[-0.050009711395796276,-0.060404833529862235]",4.0,"[-0.07376832510327473,-0.16245367880538472]",4.0,"[0.01226286848450082,-0.06504234621696156]",4.0,"[-0.10068044830415815,0.02347178730443768]",4.0,"[-0.11719786973375736,-0.1218814495410392]",4.0,"[-0.17238700645492747,-0.09309281733749775]",4.0,"[-0.006796211663824882,0.10519642555373726]",4.0,"[0.02,0.02]",194.3428,0.0,48.0,48.0,192.0,1.0,,,,,,,
,,,,,,,616494f1ae4537c01914c758,6842bb06e7f0cc789c6605ea,2025-06-06_10h56.58.324,shape_ratio,2024.1.5,Win32,59.17159763,6842b561977af9ba9b0f87ca,,,,,,,,,,,194.3444,194.843,,,195.0943,195.8777,right,,,,,,,,0.5,0.7696,,,,,,,194.8432,195.0943,195.8779,"[0.03543782485785427,0.1788674433737092]",4.0,"[-0.0011354970164194943,0.04887441613149056]",100.0,"[-0.059979851251257085,-0.10533745000536486]",4.0,"[0.05558676844084811,-0.02735928954104991]",4.0,"[0.006162808286885515,-0.09744025815904417]",100.0,"[0.16055407106226993,0.07358923761699677]",4.0,"[0.09966648469197906,0.13136916043078853]",100.0,"[-0.09310901504453926,0.11005232109590059]",100.0,"[0.014900270972697326,0.13801480195483576]",4.0,"[-0.15158878162420908,-0.06854657099314533]",4.0,"[-0.10798082977272282,0.0628023265289644]",100.0,"[0.12309570861268376,-0.020010094406714907]",100.0,"[-0.09955112463032752,-0.008470200172021485]",100.0,"[-0.029036898832971253,-0.07362419368241001]",100.0,"[-0.047435272164021006,0.02153207477548863]",4.0,"[-0.17145792200154278,0.017477503712572555]",100.0,"[0.010829102668057554,-0.05417352966181538]",4.0,"[-0.1837379890724289,-0.04213229252376732]",100.0,"[-0.025257827587130497,-0.1838429193019773]",4.0,"[-0.08376254175248969,0.16973832525778956]",4.0,"[0.18003119293863729,-0.026200984366531475]",100.0,"[0.1393799531123306,0.031256975128377086]",100.0,"[-0.10382829137644055,-0.14655977129652673]",4.0,"[0.05607123678401192,0.023540268199596464]",100.0,"[0.1748623489622723,-0.08166456246210772]",4.0,"[0.04887009244868879,0.07773607816728902]",4.0,"[0.003505804687137931,0.09272267667083543]",100.0,"[-0.14740464387586713,-0.01626798892346184]",100.0,"[-0.045295108009485725,0.08603488784470643]",4.0,"[0.14921435747515696,-0.13280281224112925]",100.0,"[-0.09255509980673697,-0.07480026860211883]",4.0,"[0.13315384276897513,-0.09210946698563649]",4.0,"[0.02,0.02]",196.9783,0.0,49.0,49.0,102.0,1.0,,,,,,,
