right,left,explain.started,explain.stopped,key_resp_3.keys,key_resp_3.rt,key_resp_3.duration,participant,session,date,expName,psychopyVersion,OS,frameRate,study_id,explain_2.started,explain_2.stopped,key_resp_4.keys,key_resp_4.rt,key_resp_4.duration,explain_3.started,explain_3.stopped,key_resp_5.keys,key_resp_5.rt,key_resp_5.duration,fixation.started,fixation.stopped,practice.started,practice.stopped,response.started,response.stopped,key_resp.keys,key_resp.rt,key_resp.duration,feedback.started,feedback.stopped,trials_2.thisRepN,trials_2.thisTrialN,trials_2.thisN,trials_2.thisIndex,trials_2.ran,dot_ratio,explain_4.started,explain_4.stopped,key_resp_6.keys,key_resp_6.rt,key_resp_6.duration,dotDisplay.started,dotDisplay.stopped,ITI.started,polygon_1.pos,polygon_1.edges,polygon_2.pos,polygon_2.edges,polygon_3.pos,polygon_3.edges,polygon_4.pos,polygon_4.edges,polygon_5.pos,polygon_5.edges,polygon_6.pos,polygon_6.edges,polygon_7.pos,polygon_7.edges,polygon_8.pos,polygon_8.edges,polygon_9.pos,polygon_9.edges,polygon_10.pos,polygon_10.edges,polygon_11.pos,polygon_11.edges,polygon_12.pos,polygon_12.edges,polygon_13.pos,polygon_13.edges,polygon_14.pos,polygon_14.edges,polygon_15.pos,polygon_15.edges,polygon_16.pos,polygon_16.edges,polygon_17.pos,polygon_17.edges,polygon_18.pos,polygon_18.edges,polygon_19.pos,polygon_19.edges,polygon_20.pos,polygon_20.edges,polygon_21.pos,polygon_21.edges,polygon_22.pos,polygon_22.edges,polygon_23.pos,polygon_23.edges,polygon_24.pos,polygon_24.edges,polygon_25.pos,polygon_25.edges,polygon_26.pos,polygon_26.edges,polygon_27.pos,polygon_27.edges,polygon_28.pos,polygon_28.edges,polygon_29.pos,polygon_29.edges,polygon_30.pos,polygon_30.edges,polygon_31.pos,polygon_31.edges,polygon_32.pos,polygon_32.edges,dot_size,ITI.stopped,trials.thisRepN,trials.thisTrialN,trials.thisN,trials.thisIndex,trials.ran,break_2.started,break_2.stopped,trials_3.thisRepN,trials_3.thisTrialN,trials_3.thisN,trials_3.thisIndex,trials_3.ran
subject chose dot,subject chose diamond,0.0005,246.0704,space,231.0651,,63cfee94707bca4ddee3eb05,6842bb005d29339130edc8bd,2025-06-06_10h58.36.698,shape_ratio,2024.1.5,Win32,30.03003003,6842b561977af9ba9b0f87ca,,,,,,,,,,,,,,,,,,,,,,,,,,,,,,,,,,,,,,,,,,,,,,,,,,,,,,,,,,,,,,,,,,,,,,,,,,,,,,,,,,,,,,,,,,,,,,,,,,,,,,,,,,,,,,,,,
,,,,,,,63cfee94707bca4ddee3eb05,6842bb005d29339130edc8bd,2025-06-06_10h58.36.698,shape_ratio,2024.1.5,Win32,30.03003003,6842b561977af9ba9b0f87ca,246.0707,278.065,space,1.9646,,,,,,,,,,,,,,,,,,,,,,,,,,,,,,,,,,,,,,,,,,,,,,,,,,,,,,,,,,,,,,,,,,,,,,,,,,,,,,,,,,,,,,,,,,,,,,,,,,,,,,,,,,,,,
,,,,,,,63cfee94707bca4ddee3eb05,6842bb005d29339130edc8bd,2025-06-06_10h58.36.698,shape_ratio,2024.1.5,Win32,30.03003003,6842b561977af9ba9b0f87ca,,,,,,278.0652,282.6985,space,1.5884,,,,,,,,,,,,,,,,,,,,,,,,,,,,,,,,,,,,,,,,,,,,,,,,,,,,,,,,,,,,,,,,,,,,,,,,,,,,,,,,,,,,,,,,,,,,,,,,,,,,,,,,
,,,,,,,63cfee94707bca4ddee3eb05,6842bb005d29339130edc8bd,2025-06-06_10h58.36.698,shape_ratio,2024.1.5,Win32,30.03003003,6842b561977af9ba9b0f87ca,,,,,,,,,,,282.7241,283.2318,283.2322,283.4675,283.4676,284.2314,left,0.6986,,284.2315,285.3314,0.0,0.0,0.0,1.0,1.0,0.8,,,,,,,,,,,,,,,,,,,,,,,,,,,,,,,,,,,,,,,,,,,,,,,,,,,,,,,,,,,,,,,,,,,,,,,,,,,,,,,,,,,,,,
,,,,,,,63cfee94707bca4ddee3eb05,6842bb005d29339130edc8bd,2025-06-06_10h58.36.698,shape_ratio,2024.1.5,Win32,30.03003003,6842b561977af9ba9b0f87ca,,,,,,,,,,,285.3321,285.8313,285.8313,286.0651,286.0652,287.4314,right,1.3468,,287.4314,288.5313,0.0,1.0,1.0,0.0,1.0,0.2,,,,,,,,,,,,,,,,,,,,,,,,,,,,,,,,,,,,,,,,,,,,,,,,,,,,,,,,,,,,,,,,,,,,,,,,,,,,,,,,,,,,,,
,,,,,,,63cfee94707bca4ddee3eb05,6842bb005d29339130edc8bd,2025-06-06_10h58.36.698,shape_ratio,2024.1.5,Win32,30.03003003,6842b561977af9ba9b0f87ca,,,,,,,,,,,,,,,,,,,,,,,,,,,,288.5319,291.6654,space,0.0902,,,,,,,,,,,,,,,,,,,,,,,,,,,,,,,,,,,,,,,,,,,,,,,,,,,,,,,,,,,,,,,,,,,,,,,,,,,,,,,,,,
,,,,,,,63cfee94707bca4ddee3eb05,6842bb005d29339130edc8bd,2025-06-06_10h58.36.698,shape_ratio,2024.1.5,Win32,30.03003003,6842b561977af9ba9b0f87ca,,,,,,,,,,,291.6953,292.2048,,,292.4321,293.7646,left,1.2674,,,,,,,,,0.45,,,,,,292.2053,292.4321,293.7652,"[0.11567293404065493,-0.04549904317922431]",100.0,"[0.1016012723001946,0.008166672823062104]",4.0,"[0.08121361990020035,-0.11820750084973365]",4.0,"[0.027653115620920224,-0.11517953143458015]",4.0,"[0.09965868260600463,0.12547231440707415]",100.0,"[-0.07472470169707231,0.16873562489238478]",4.0,"[-0.09720723327414292,-0.08472740138143164]",4.0,"[0.04489399421254105,0.005869186595224966]",100.0,"[0.008844245631267312,0.1084392637369964]",100.0,"[-0.138186628443808,-0.021375444681983685]",4.0,"[-0.09655343541521644,0.09006428890448641]",4.0,"[-0.15215608382763243,-0.08585707073065112]",4.0,"[-0.034939322850457664,-0.10784898705611076]",4.0,"[-0.050805804189298115,-0.042372237078031116]",4.0,"[-0.005231682609268194,-0.19826645071273]",100.0,"[-0.14830289334027216,0.022578258825249834]",100.0,"[-0.11348222065878896,-0.1264592516131921]",4.0,"[-0.043991856424148795,0.14132029889474199]",4.0,"[0.04444196834664349,0.054893141151540446]",4.0,"[0.14052879033461277,0.07052432497301792]",100.0,"[0.07945042302964982,0.16694214484913306]",4.0,"[0.0652555577725221,0.09699645467588605]",4.0,"[0.15990166864442887,-0.03479711133656761]",100.0,"[-0.003729241721513715,-0.037422933883149316]",100.0,"[0.015117592694771469,-0.15414686575482348]",100.0,"[0.1735982759771966,0.007036537423268041]",100.0,"[-0.08934517724753992,0.039645532785561766]",4.0,"[0.06166454750563351,-0.05807694878997448]",4.0,"[-0.023081598594718745,0.05830923019858184]",100.0,"[0.025712296458900864,0.15927278672561673]",100.0,"[-0.14406789751535948,0.11081833302933408]",100.0,"[0.1458139315914826,0.12955553240158546]",4.0,"[0.02,0.02]",294.8647,0.0,0.0,0.0,125.0,1.0,,,,,,,
,,,,,,,63cfee94707bca4ddee3eb05,6842bb005d29339130edc8bd,2025-06-06_10h58.36.698,shape_ratio,2024.1.5,Win32,30.03003003,6842b561977af9ba9b0f87ca,,,,,,,,,,,294.8655,295.3646,,,295.6007,296.3645,right,0.7394,,,,,,,,,0.9,,,,,,295.3646,295.6007,296.3646,"[0.024039231414722678,-0.12389494898865848]",100.0,"[0.014688410940833728,0.13564155900462901]",100.0,"[0.10633376512296824,0.09062494128470107]",100.0,"[0.0664910233657281,-0.11379367819771752]",100.0,"[0.07063864313895057,-0.035154551507828105]",100.0,"[0.01197000048947001,-0.07100347253318895]",100.0,"[-0.1408712836012618,0.044275199808521674]",100.0,"[-0.06804451939700343,0.05171305159061387]",4.0,"[-0.063259694557816,0.13518457371168946]",100.0,"[-0.18192494194939302,0.024700876323737648]",100.0,"[-0.030463378500947453,-0.13929887452991746]",100.0,"[-0.115903735791583,-0.04050411671301083]",100.0,"[-0.17396213849142464,-0.09271129072476272]",4.0,"[-0.022218958935719672,0.165746173792967]",100.0,"[-0.16356253669934562,0.0773588717463145]",100.0,"[-0.1543343303679395,-0.014661593046516439]",100.0,"[0.16714495070085397,0.09010529836335533]",100.0,"[0.04256215580551004,0.009464753536849701]",100.0,"[-0.03206231505956048,-0.009182143483512983]",4.0,"[0.13485961183359613,0.14108661362420588]",100.0,"[-0.10546978042756897,0.11021190507758469]",100.0,"[0.12564956436764813,-0.06904458885942713]",100.0,"[-0.0599224202975615,-0.10641207319844828]",100.0,"[0.16765116171369246,-0.028833545349064064]",100.0,"[0.14219186904100128,0.004865016199819594]",100.0,"[0.020137943205897138,0.1849936725031715]",100.0,"[-0.10144461712567737,-0.09634426851917047]",100.0,"[0.08986638535260813,0.1272319165526252]",100.0,"[-0.022774566830645084,-0.17994156378534645]",100.0,"[0.05931696080625492,0.0990590390687128]",100.0,"[0.1394232811357086,-0.12156486839190526]",100.0,"[0.06186579423358946,0.1855779788628484]",100.0,"[0.02,0.02]",297.4645,0.0,1.0,1.0,10.0,1.0,,,,,,,
,,,,,,,63cfee94707bca4ddee3eb05,6842bb005d29339130edc8bd,2025-06-06_10h58.36.698,shape_ratio,2024.1.5,Win32,30.03003003,6842b561977af9ba9b0f87ca,,,,,,,,,,,297.4652,297.9645,,,298.2424,298.8744,left,0.6012,,,,,,,,,0.1,,,,,,297.9645,298.2423,298.8744,"[-0.06487159126613229,0.0885206200727474]",4.0,"[0.0348434600538304,-0.008711646077154418]",4.0,"[-0.01966607152987227,-0.11373233612232804]",4.0,"[-0.07942777192225493,-0.14719058623095577]",4.0,"[-0.15248385960053662,0.1070120242577876]",4.0,"[0.03762288874275614,0.06921811410090138]",4.0,"[-0.002642067789731973,0.016486436212069293]",4.0,"[0.13614346995092627,0.14252899373382638]",4.0,"[0.1148120652108891,-0.14422385056849368]",4.0,"[-0.1795726604520624,0.0748789288753176]",4.0,"[-0.09839770220268285,-0.06166474591816535]",4.0,"[0.09287982653610492,0.04186432019601647]",4.0,"[-0.014921543132873225,0.17729062529143652]",4.0,"[0.14775894194543407,0.05580232312566062]",4.0,"[-0.12335531605258947,-0.12270974799315358]",100.0,"[-0.14375213218716673,-0.05987328550877329]",4.0,"[0.09468630511475287,-0.045728480865141946]",4.0,"[0.10004227743500788,0.16261879873318813]",4.0,"[0.018407107872748192,0.11193799388922365]",4.0,"[-0.10675212833955829,0.1554913615655618]",4.0,"[-0.1528147411436519,0.03476869411836827]",4.0,"[0.17128306289674008,-0.06375884924295813]",100.0,"[-0.02682568585042635,-0.16740495023795793]",4.0,"[-0.02263376753944397,0.10145149442414109]",4.0,"[-0.18251451786194006,-0.025641284019646354]",4.0,"[0.0011952545638594242,-0.07846653486072612]",4.0,"[-0.03939846189231407,0.14425590044448663]",4.0,"[0.15218379147279731,-0.12673822547779756]",100.0,"[-0.01821237290585747,-0.022107368449071678]",4.0,"[-0.0791974080885237,-0.013993276572858846]",4.0,"[0.0654256345749737,-0.10884735033758176]",4.0,"[-0.06869073522470968,0.036857817036475206]",4.0,"[0.02,0.02]",299.9645,0.0,2.0,2.0,184.0,1.0,,,,,,,
,,,,,,,63cfee94707bca4ddee3eb05,6842bb005d29339130edc8bd,2025-06-06_10h58.36.698,shape_ratio,2024.1.5,Win32,30.03003003,6842b561977af9ba9b0f87ca,,,,,,,,,,,299.9649,300.4651,,,300.6982,301.6314,left,0.8792,,,,,,,,,0.5,,,,,,300.4651,300.6981,301.6315,"[0.08866205800070213,-0.06474714892553254]",100.0,"[-0.0007047798114486994,0.06678922017178282]",4.0,"[0.07945959515169884,-0.14384502738633495]",4.0,"[-0.1576321382769536,0.07533186614376362]",100.0,"[0.15991279840135827,0.10733447151817826]",4.0,"[-0.01671274905654377,0.14216633155571967]",4.0,"[0.16122648798663247,-0.010259153767781814]",4.0,"[0.10544013077958818,0.08820923522048112]",100.0,"[-0.019167306722878592,-0.11663179782195425]",100.0,"[-0.07865784106810536,-0.10825504770591926]",100.0,"[-0.08641457366742843,-0.05021095067339877]",100.0,"[0.03640445277360089,-0.1198464335125481]",4.0,"[-0.10446205571545883,0.02181314479307404]",4.0,"[-0.07496891277985146,-0.008872440426967568]",4.0,"[0.030604852718113314,0.004220986762478738]",100.0,"[-0.08408765084776887,0.16049221468563848]",4.0,"[-0.010593066702912914,0.18258465769454976]",4.0,"[0.05608742979646268,0.036736638910825604]",4.0,"[0.178668250639085,-0.07252505045434506]",100.0,"[-0.16288959012593965,-0.030380175492068565]",100.0,"[-0.051765970705761916,-0.14240150881216596]",100.0,"[0.1926278867824079,0.05365327999089507]",100.0,"[0.0017142520764887596,-0.17206935651414293]",100.0,"[0.0576350273170098,0.08285977474845932]",100.0,"[-0.08035144346207922,0.10392235958675726]",4.0,"[0.005822392988638622,-0.03234035006143576]",4.0,"[0.03214881449318582,0.1832527109347948]",100.0,"[0.10414160271529344,0.041608928730717545]",100.0,"[-0.05199125177278804,0.059473189536348905]",4.0,"[-0.16477052503105255,-0.07493600170340906]",4.0,"[0.15842707372766313,-0.10945996897639473]",100.0,"[0.0924484880152423,0.1738496569782279]",4.0,"[0.02,0.02]",302.735,0.0,3.0,3.0,96.0,1.0,,,,,,,
,,,,,,,63cfee94707bca4ddee3eb05,6842bb005d29339130edc8bd,2025-06-06_10h58.36.698,shape_ratio,2024.1.5,Win32,30.03003003,6842b561977af9ba9b0f87ca,,,,,,,,,,,302.7356,303.2311,,,303.4647,304.3644,right,0.859,,,,,,,,,0.9,,,,,,303.2312,303.4647,304.3644,"[-0.050892140524119535,0.014773913742580323]",4.0,"[-0.1352852436926306,0.092577451292674]",100.0,"[0.12095620173925029,-0.14099569381437257]",100.0,"[-0.024036683833054507,0.0903867736597818]",100.0,"[0.1425928121966316,-0.005072315637707046]",100.0,"[0.058401250902135465,0.04967188154966624]",100.0,"[-0.13621181644537508,-0.0861059120370109]",100.0,"[-0.08302195756309036,0.12642661735899655]",100.0,"[0.18642196728797567,-0.047975832160830484]",100.0,"[-0.12564919525580234,-0.03595892790207426]",100.0,"[0.005329434600773757,-0.08263142175421284]",100.0,"[0.1369410939641983,0.04143404944091203]",100.0,"[0.1235826511310195,0.1462342426987395]",100.0,"[0.06759252299930608,-0.16611536832132182]",100.0,"[-0.18228368394585498,0.026964383370584176]",100.0,"[0.009087637719472248,0.14873458548138677]",100.0,"[-0.0939160464617922,-0.13781941898155395]",100.0,"[0.1135476054217239,-0.03768191727100257]",100.0,"[-0.027765913590233504,0.17140187976008098]",100.0,"[0.03935898691886792,-0.13648812782064634]",100.0,"[0.07238898925598612,-0.07205193748087724]",100.0,"[0.04082598808979386,-0.04420202420612118]",100.0,"[0.1704979574386179,-0.096150017353193]",100.0,"[0.05468750267671149,0.17562988691691472]",4.0,"[-0.1831013776778539,-0.04529072687023626]",4.0,"[-0.057959364295976985,-0.17395590370476147]",100.0,"[-0.036396820486074184,-0.09904004665363397]",100.0,"[-0.05837101396953858,-0.026047549094117148]",100.0,"[0.02679756151194781,0.0775022198776768]",100.0,"[-0.003957310383092706,-0.02110816918364192]",100.0,"[-0.008418436370418616,-0.1678219387166606]",100.0,"[0.09190388051696569,0.11693148709126207]",100.0,"[0.02,0.02]",305.4643,0.0,4.0,4.0,21.0,1.0,,,,,,,
,,,,,,,63cfee94707bca4ddee3eb05,6842bb005d29339130edc8bd,2025-06-06_10h58.36.698,shape_ratio,2024.1.5,Win32,30.03003003,6842b561977af9ba9b0f87ca,,,,,,,,,,,305.4646,305.9645,,,306.1983,307.0978,right,0.8342,,,,,,,,,0.55,,,,,,305.9645,306.1982,307.0979,"[0.10546983701024573,0.045775338027954124]",4.0,"[-0.007678071071531243,0.01733900155658891]",4.0,"[-0.015624937558589125,0.15010788808909054]",100.0,"[-0.024695766561246005,-0.16874214641511015]",100.0,"[0.12122477002100845,-0.03281148168983768]",100.0,"[-0.1541403240628873,-0.10584334938828759]",4.0,"[0.12417617599376071,0.15078565323207574]",100.0,"[0.03076241344490993,0.07057672455629847]",100.0,"[0.06849558412759067,0.17564033693313313]",100.0,"[0.12297192341550416,-0.11143841408409925]",4.0,"[0.1555631549387142,0.06178488836190565]",100.0,"[-0.06945277401528215,-0.07442906629601903]",100.0,"[-0.08486282879653421,0.1571008827974067]",100.0,"[0.04008871331938815,-0.17723644840908206]",100.0,"[0.036180647918894575,0.1468324782227095]",100.0,"[-0.028869007186801066,0.06487215490631283]",4.0,"[0.061942361863254476,0.008339850462052812]",4.0,"[-0.052550473441484925,-0.013825271689022749]",100.0,"[-0.1693770152938754,0.01020792013895183]",4.0,"[-0.018059576386650945,-0.1208117656797427]",100.0,"[0.14716903221011238,-0.07247174557051214]",4.0,"[-0.10813943911803288,-0.1484930138331259]",100.0,"[0.0838500364865838,-0.0985408188981532]",100.0,"[-0.05124982806546078,0.026540218825601748]",100.0,"[-0.0989438261407941,0.11608894946471314]",4.0,"[-0.022225983628023704,-0.05871531551468806]",4.0,"[0.05775310089192623,-0.05426261500131946]",4.0,"[0.13058480428474506,0.01086135554524363]",100.0,"[-0.13031022242893633,-0.03924634984940393]",4.0,"[0.07554667486164417,0.08339603940907767]",4.0,"[0.18266532937010674,-0.01507712336189975]",100.0,"[0.0812910642196893,-0.14585744702087075]",4.0,"[0.02,0.02]",308.2391,0.0,5.0,5.0,64.0,1.0,,,,,,,
,,,,,,,63cfee94707bca4ddee3eb05,6842bb005d29339130edc8bd,2025-06-06_10h58.36.698,shape_ratio,2024.1.5,Win32,30.03003003,6842b561977af9ba9b0f87ca,,,,,,,,,,,308.2393,308.7312,,,308.9727,309.6733,right,0.6706,,,,,,,,,0.55,,,,,,308.7312,308.9727,309.6733,"[0.08246488354729688,0.13791108207659433]",4.0,"[0.15569641722117353,0.08158440728021817]",100.0,"[0.037180883086757884,-0.007671080369153572]",100.0,"[0.03591590134305738,0.0759629830026564]",100.0,"[0.01310478593451669,-0.04305912765026483]",100.0,"[-0.09429122464884089,-0.15697170419482584]",100.0,"[-0.15402342417579498,0.006518683136854148]",100.0,"[0.10243405116666338,-0.02427518434200967]",4.0,"[-0.08226154880472315,-0.009196995821751838]",100.0,"[0.030897635611854882,-0.16211179398142542]",4.0,"[0.11661735857300355,0.03445858845895928]",100.0,"[-0.131201928535371,-0.06350644147157732]",100.0,"[0.1014914085635554,0.08163603394731382]",4.0,"[-0.0026059657949294318,0.10131705396630847]",100.0,"[-0.17756960896572122,0.05398500811654037]",4.0,"[-0.06088285452143634,0.13846897875483474]",4.0,"[0.0860924260541274,-0.12593568552554024]",4.0,"[0.17262774424796895,-0.03084944267285546]",100.0,"[0.17946619378501324,-0.07216042303998159]",4.0,"[0.03382728472469677,0.11997085541322643]",4.0,"[-0.019113188109516305,-0.10867974815616749]",100.0,"[0.04487117717041327,-0.09583529130209831]",100.0,"[0.17311247659149764,0.01944095212477624]",100.0,"[-0.1674222888612664,-0.031413700753481044]",4.0,"[-0.158302285994876,0.10397585165104399]",4.0,"[-0.0899953251046241,0.10028227452204998]",100.0,"[-0.19388087932904688,0.01249206129652401]",100.0,"[-0.038748251200218825,-0.14666109194289753]",100.0,"[-0.04718856003794959,-0.035132813692396986]",4.0,"[-0.009869808038585353,-0.19471800363859249]",4.0,"[-0.052658319157908376,-0.18689254327167612]",100.0,"[0.12621418167692922,-0.12026330513183547]",4.0,"[0.02,0.02]",310.7643,0.0,6.0,6.0,80.0,1.0,,,,,,,
,,,,,,,63cfee94707bca4ddee3eb05,6842bb005d29339130edc8bd,2025-06-06_10h58.36.698,shape_ratio,2024.1.5,Win32,30.03003003,6842b561977af9ba9b0f87ca,,,,,,,,,,,310.7647,311.2643,,,311.4981,312.1683,left,0.6286,,,,,,,,,0.1,,,,,,311.2644,311.498,312.1684,"[-0.1360037931379908,0.09309070569036172]",4.0,"[0.12230946537047181,0.04594552891655947]",4.0,"[-0.1283000693930179,0.05184551745991429]",100.0,"[-0.06219810063455531,0.032734302148615994]",4.0,"[0.15150835727437442,-0.07324915426346507]",4.0,"[0.0632910302945556,-0.16864606667687748]",4.0,"[-0.03246018174174932,-0.02238827701522005]",4.0,"[0.16546563791409843,0.04832712099656516]",4.0,"[0.014133286709251701,0.030769614531998443]",4.0,"[0.010299837625540173,-0.11938330704799988]",4.0,"[-0.0838589200871793,-0.07610134563933678]",100.0,"[-0.08277612957843747,-0.009631127595358868]",4.0,"[0.09234364822210463,0.10815784341513092]",4.0,"[-0.11534678166997102,-0.14648987065565525]",4.0,"[0.19649038915041314,-0.006113892488055393]",4.0,"[0.0032426455990942826,0.1172731074208056]",4.0,"[0.01388021228957316,-0.1940654957172513]",4.0,"[0.01624127161828417,-0.04487773803987534]",4.0,"[-0.030304185457382667,-0.1133712372476487]",100.0,"[0.06852648636278952,0.060123298695482434]",4.0,"[-0.11069429588554987,0.1304647887788972]",4.0,"[0.14698205327632463,0.09351302138304253]",4.0,"[0.06125453180828956,0.007851676329149017]",4.0,"[0.06284541076987701,0.18639559348381918]",4.0,"[-0.030508969856147924,-0.1959319765130859]",4.0,"[0.11042322826457525,-0.14022380762858175]",4.0,"[0.022318936568978334,0.1945665617732501]",4.0,"[-0.0911625959502285,0.06807313185324575]",4.0,"[0.12897245421040557,0.13679731346056304]",4.0,"[0.12640191289421346,-0.011558218326702133]",4.0,"[-0.14044185118041222,-0.10039552098759001]",4.0,"[-0.16049699596982275,-0.059482011039246954]",4.0,"[0.02,0.02]",313.2646,0.0,7.0,7.0,197.0,1.0,,,,,,,
,,,,,,,63cfee94707bca4ddee3eb05,6842bb005d29339130edc8bd,2025-06-06_10h58.36.698,shape_ratio,2024.1.5,Win32,30.03003003,6842b561977af9ba9b0f87ca,,,,,,,,,,,313.265,313.7643,,,313.998,315.3979,left,1.3582,,,,,,,,,0.1,,,,,,313.7643,313.998,315.3979,"[-0.0321122945262616,0.07447302856737935]",4.0,"[-0.09015349988370071,0.11623693768658507]",4.0,"[0.07283217196339627,-0.03215756629503504]",4.0,"[0.06637172764804683,0.13485139428250845]",100.0,"[-0.19408037877472123,-0.010210869503262943]",4.0,"[0.18687593019154344,-0.054253943616135614]",4.0,"[0.009784806243943034,0.0612628750307311]",4.0,"[-0.17229471274191843,0.09132290045021246]",4.0,"[-0.05157574672687095,-0.07868782657758125]",4.0,"[-0.10863737285008762,0.07029610919947143]",4.0,"[-0.04242614740223417,0.001061468452014872]",100.0,"[-0.051593086030434526,-0.13593381103883695]",4.0,"[-0.003038848309006389,-0.04460673840765897]",4.0,"[0.056035335475257984,-0.1377793761702586]",4.0,"[-0.114414639555805,0.010783893717575108]",4.0,"[0.10522603781896553,-0.07439516795528169]",4.0,"[-0.06544217634168926,0.14855084357151777]",4.0,"[0.13786903307879217,0.07175127522207028]",4.0,"[0.07350948046817384,0.056023022946681426]",4.0,"[-0.1655588696324396,-0.06928915402602781]",4.0,"[0.019830830097429853,-0.08332084079437713]",4.0,"[-0.11460811070108924,-0.1344914813954958]",4.0,"[0.12196050007549712,-0.14889164184615497]",100.0,"[-0.10852292691567243,-0.05970144480485322]",4.0,"[0.03581936800682156,0.01484386391572648]",4.0,"[0.15313600966974392,0.016252995361174236]",4.0,"[0.1917375698207091,0.0017801390224206981]",4.0,"[0.006909270734412985,0.1048002703265115]",4.0,"[0.007480197817655933,-0.16394145392443266]",4.0,"[0.14378890410839756,0.12537531513559244]",4.0,"[0.027624568030216422,0.18252164003845245]",4.0,"[-0.17231215778215758,0.048078998355012434]",4.0,"[0.02,0.02]",316.5043,0.0,8.0,8.0,186.0,1.0,,,,,,,
,,,,,,,63cfee94707bca4ddee3eb05,6842bb005d29339130edc8bd,2025-06-06_10h58.36.698,shape_ratio,2024.1.5,Win32,30.03003003,6842b561977af9ba9b0f87ca,,,,,,,,,,,316.5047,316.9978,,,317.2313,318.5311,left,1.2393,,,,,,,,,0.4,,,,,,316.9978,317.2313,318.5312,"[-0.0043427054572851296,-0.006677943311005975]",4.0,"[-0.014853436103139316,-0.1629771737035752]",4.0,"[0.026608034433141862,0.07953511010679909]",100.0,"[0.1575292738757132,-0.07215555335168182]",100.0,"[-0.16380072388224598,-0.024110088230154113]",100.0,"[0.11620223076248543,-0.13825651215791387]",4.0,"[-0.13642429126969738,0.13231894265006874]",4.0,"[0.05574293588179382,0.1849233668750479]",4.0,"[-0.15020461622183068,-0.12330483269907265]",100.0,"[-0.08088255248857332,-0.14239111101875684]",4.0,"[0.11248870109436429,0.018350340160922806]",4.0,"[-0.06259210990908957,0.16393196623890516]",4.0,"[-0.0665775802836597,-0.18401828864963507]",4.0,"[-0.18785927886485831,0.018953832673423647]",4.0,"[0.0866635524970224,-0.1011756916798042]",4.0,"[0.032634541114302404,-0.16738392924232087]",4.0,"[-0.06312125542547337,-0.05388105784426544]",4.0,"[0.16154973996947913,0.00416723225608168]",100.0,"[-0.11259355926563895,-0.09579437349384547]",4.0,"[0.03614346421842131,-0.10147150946719466]",100.0,"[0.18971283571407968,0.047691529267464776]",4.0,"[0.04534902587705426,-0.05780525841506919]",100.0,"[0.09858357950294049,0.10823919546746155]",4.0,"[-0.006251016201142821,0.1599071956983512]",100.0,"[0.1379851285231951,0.05259117205796087]",100.0,"[-0.05662584535653088,0.08746882236514628]",4.0,"[-0.09594452282626055,-0.01502123087722276]",100.0,"[-0.1366083948604923,0.08517763036418216]",100.0,"[0.14908107863379744,0.1235154986779787]",4.0,"[0.1011968913754577,-0.04232223489850195]",100.0,"[-0.06765059527591553,0.023489130570259042]",4.0,"[-0.04833202081433747,-0.09577252430432256]",100.0,"[0.02,0.02]",319.6309,0.0,9.0,9.0,159.0,1.0,,,,,,,
,,,,,,,63cfee94707bca4ddee3eb05,6842bb005d29339130edc8bd,2025-06-06_10h58.36.698,shape_ratio,2024.1.5,Win32,30.03003003,6842b561977af9ba9b0f87ca,,,,,,,,,,,319.6313,320.1309,,,320.3715,321.131,right,0.701,,,,,,,,,0.6,,,,,,320.1309,320.3715,321.131,"[-0.00361454617281565,-0.004586633761055386]",100.0,"[-0.11970783201778055,0.06427507582205982]",100.0,"[0.12380996444843394,-0.026566863858698636]",100.0,"[0.003253758195867533,0.14520503916294972]",100.0,"[-0.1625819483879242,0.07260376801568533]",100.0,"[-0.10528462363449828,-0.0719069649733074]",4.0,"[0.06980431162743482,0.08701313464313537]",4.0,"[0.0908729980923247,0.12590111029139428]",100.0,"[0.179109849805986,-0.012690970828186392]",100.0,"[-0.18640803567761582,0.011034168981243295]",100.0,"[0.15145701207667417,0.11634150649328318]",100.0,"[0.06664727184577086,0.1632489559150646]",4.0,"[-0.0412461408841326,0.13808125301485283]",4.0,"[-0.07029639337356722,0.17214165579618868]",100.0,"[-0.076375981456452,-0.0010906764869182688]",4.0,"[-0.004427727803370401,-0.05641049608997065]",4.0,"[0.026426402147873153,-0.1298393416854915]",100.0,"[-0.010571360426129347,-0.18094662312796395]",100.0,"[-0.14295388714834054,0.011414651539881266]",4.0,"[0.16065707867157816,0.06759649552424878]",100.0,"[-0.06714329786120715,-0.0878410520299948]",100.0,"[-0.07284074929970244,0.05458915603882593]",4.0,"[-0.0662896932347905,-0.04579894831242243]",100.0,"[-0.12751676455126423,-0.14235344169469638]",100.0,"[0.05876811500960095,-0.09268745197748224]",100.0,"[0.04942145582126278,0.01622274317902321]",4.0,"[0.10790866521132385,-0.08737627193951016]",4.0,"[0.11977904249920196,0.0869352014874679]",100.0,"[0.05282838841807782,-0.17348270687329137]",4.0,"[-0.11353773780945295,0.141057762084548]",4.0,"[0.08371730713409738,-0.12507952709107178]",4.0,"[0.014570976629687517,0.09258987237154982]",100.0,"[0.02,0.02]",322.2312,0.0,10.0,10.0,50.0,1.0,,,,,,,
,,,,,,,63cfee94707bca4ddee3eb05,6842bb005d29339130edc8bd,2025-06-06_10h58.36.698,shape_ratio,2024.1.5,Win32,30.03003003,6842b561977af9ba9b0f87ca,,,,,,,,,,,322.2317,322.7309,,,322.9648,324.1313,right,1.1137,,,,,,,,,0.6,,,,,,322.731,322.9648,324.1313,"[0.03158277515863131,-0.08517407452934732]",100.0,"[-0.10965621416534223,0.14973744319406246]",100.0,"[0.06858529538918179,-0.17904388215928407]",4.0,"[-0.1774670099547832,0.03405734820616075]",100.0,"[-0.011960000876336346,0.09791853373015712]",100.0,"[0.01981693256605003,0.14413969150750464]",100.0,"[-0.0174640347189082,0.19663060720051745]",100.0,"[-0.15623387178059098,-0.04110110381997278]",4.0,"[-0.09605141758363188,-0.03537861321090084]",100.0,"[-0.10960510888706024,-0.1524890035754217]",100.0,"[0.15753331477129692,-0.08101723021072955]",100.0,"[0.015732395144464454,-0.15714176719906894]",4.0,"[-0.13427602417364107,0.07901908651876766]",4.0,"[-0.0500215234616222,0.13764126723841233]",4.0,"[0.15416617614529407,0.004092368686097961]",100.0,"[0.057357095723018524,0.17593283060026138]",100.0,"[-0.003776335609284595,-0.0067750567867977275]",4.0,"[0.07194956166200896,-0.05642603461183468]",100.0,"[0.0007782176353811046,-0.058408755820093805]",100.0,"[-0.0707274269279349,0.040935981141928146]",100.0,"[0.10644028990576043,0.155576634478389]",4.0,"[-0.06258909786584291,-0.0941817092891539]",4.0,"[0.036619440683559476,-0.020668702294349982]",4.0,"[0.07736878873122004,0.03815035078491039]",4.0,"[-0.10462736477060425,-0.10294457972956891]",4.0,"[-0.15508482416370148,-0.12080729661528945]",4.0,"[-0.028616846327620554,-0.1702830037324545]",100.0,"[0.09628127825197737,-0.09823105295638543]",100.0,"[0.09781233441175237,-0.14008202843401718]",100.0,"[0.12409153044203965,-0.046838209836810925]",100.0,"[0.05328573396695706,-0.14013935403698716]",4.0,"[0.0015320129411002402,-0.11334384352297525]",100.0,"[0.02,0.02]",325.231,0.0,11.0,11.0,58.0,1.0,,,,,,,
,,,,,,,63cfee94707bca4ddee3eb05,6842bb005d29339130edc8bd,2025-06-06_10h58.36.698,shape_ratio,2024.1.5,Win32,30.03003003,6842b561977af9ba9b0f87ca,,,,,,,,,,,325.2313,325.7309,,,325.9735,326.5646,right,0.5378,,,,,,,,,0.55,,,,,,325.731,325.9735,326.5647,"[0.02786783874064678,-0.13318381035773355]",100.0,"[0.07338663144247146,0.057011633570001025]",4.0,"[0.18010038563172318,0.07446333617114513]",4.0,"[-0.15328045707053667,0.08028760120242875]",4.0,"[-0.08775327667735022,0.13758429158889512]",100.0,"[0.11820317485384108,0.1520981166481001]",100.0,"[-0.070251765961125,-0.06935399838444367]",100.0,"[0.09237313422058209,-0.07549712336570864]",100.0,"[-0.03413236513052718,0.06690599203163818]",100.0,"[0.00240374009597556,-0.087691643534501]",100.0,"[-0.044069536226974966,-0.12620230538417523]",4.0,"[0.04881220836593092,-0.052164564626091606]",4.0,"[-0.05534391867814372,-0.0019382934892854759]",100.0,"[0.14706506807210246,-0.0161104321364461]",100.0,"[0.029464630950666978,0.13101352519138504]",4.0,"[-0.046097994871182726,0.1924554528156985]",4.0,"[0.07689901213383267,-0.00916579265923492]",100.0,"[-0.12094521938485774,0.029196921946688548]",100.0,"[-0.1286245728012664,-0.11198835318818265]",4.0,"[0.13307430873736836,-0.07310286611288193]",4.0,"[-0.025069323018438266,-0.028310689636192272]",100.0,"[0.019902313019470437,0.17731703699952095]",4.0,"[-0.04334512633223289,0.13270450645593915]",100.0,"[-0.10566204707709397,0.09354093981206883]",100.0,"[-0.1836082574281768,-0.021617152260226837]",100.0,"[0.157525482068574,0.11990266582746505]",4.0,"[-0.09082230395612298,-0.021969704150046898]",100.0,"[-0.13774988813005393,0.12877178790847163]",4.0,"[0.08728622665660658,-0.16442891605067816]",4.0,"[-0.1797567361471869,-0.06668044307515142]",100.0,"[0.04546354180024949,0.015698530216735868]",100.0,"[-0.031702146648351776,-0.18183089015155945]",4.0,"[0.02,0.02]",327.6643,0.0,12.0,12.0,77.0,1.0,,,,,,,
,,,,,,,63cfee94707bca4ddee3eb05,6842bb005d29339130edc8bd,2025-06-06_10h58.36.698,shape_ratio,2024.1.5,Win32,30.03003003,6842b561977af9ba9b0f87ca,,,,,,,,,,,327.6648,328.164,,,328.4043,328.9644,right,0.5007,,,,,,,,,0.55,,,,,,328.1641,328.4043,328.9645,"[0.13070895269499902,0.07399460691153655]",100.0,"[0.06755235721982734,0.032732246579174305]",100.0,"[-0.04621465265552893,-0.0372481879872244]",4.0,"[0.18142282262314985,0.05884361820022018]",4.0,"[0.10755046849252563,-0.006551091197653958]",100.0,"[0.037023664458936185,0.09241873136772388]",4.0,"[-0.06316024727049988,0.13457268838922432]",100.0,"[0.12490105700305289,-0.06608716881715525]",100.0,"[0.08382061702756148,-0.16679817034755662]",100.0,"[-0.10404564915094099,-0.0038688349257202203]",4.0,"[0.18370514119435447,-0.0591885011772306]",100.0,"[-0.19244163495651784,-0.01233946917525048]",100.0,"[0.08685183360703964,0.15204738447731803]",100.0,"[0.01562202240694962,-0.033934697511870775]",4.0,"[-0.05969828540189084,0.052584922362602954]",100.0,"[-0.04525652136016253,0.0032436871586583992]",100.0,"[0.03986207755623082,0.14890342353006095]",4.0,"[-0.1278639899833905,-0.0750236244633321]",100.0,"[0.176250409922219,-0.014148465123664071]",100.0,"[-0.11405279804976412,-0.12563861264560114]",100.0,"[0.01520465961012518,-0.11219071672800585]",4.0,"[0.04418207818400033,-0.19280915128769355]",4.0,"[-0.01805459913888825,0.16563106998058535]",4.0,"[-0.12323244967859988,0.05139409408705668]",4.0,"[0.01799094747803578,0.03387554758667579]",100.0,"[-0.11761291528308078,0.09221454252283597]",100.0,"[0.13073576318056587,0.13033618868759758]",4.0,"[0.05431741451468864,-0.0870679870409569]",100.0,"[-0.06206538437700595,0.17959069369956715]",4.0,"[-0.0215268262817674,-0.07548961139166672]",4.0,"[-0.072008975259169,-0.14151555925471287]",4.0,"[0.028192999967355806,0.18718456157299682]",100.0,"[0.02,0.02]",330.0643,0.0,13.0,13.0,66.0,1.0,,,,,,,
,,,,,,,63cfee94707bca4ddee3eb05,6842bb005d29339130edc8bd,2025-06-06_10h58.36.698,shape_ratio,2024.1.5,Win32,30.03003003,6842b561977af9ba9b0f87ca,,,,,,,,,,,330.0649,330.5643,,,330.7979,331.4643,left,0.6056,,,,,,,,,0.1,,,,,,330.5644,330.7978,331.4644,"[-0.0029368683065684265,-0.06568673527721867]",4.0,"[0.14803831972524792,-0.11795558185128614]",4.0,"[0.049199730076290846,-0.06208041425346961]",100.0,"[-0.08042204223541291,0.1381619609242965]",100.0,"[0.1639080820029991,0.052895678314145975]",4.0,"[0.09080988158439283,0.0887132681221078]",4.0,"[0.1211042796878885,-0.031760605337582945]",4.0,"[0.0436919289974814,-0.17657161666958196]",4.0,"[-0.06827113219766381,0.04243561009034826]",4.0,"[0.046712478680777374,-0.018655037198153836]",4.0,"[-0.039249678650398356,-0.1721493015818324]",4.0,"[-0.16710342787672097,-0.0533257969175426]",4.0,"[0.1545616458762744,0.11400736307892936]",4.0,"[0.0481308732697406,0.16367375515758298]",4.0,"[-0.18923470316681143,-0.01964036193605172]",100.0,"[0.08529305041497216,-0.10248230129501973]",4.0,"[0.09487806201764391,-0.15275190226155616]",4.0,"[-0.11676942750094893,-0.1487007686520346]",4.0,"[-0.03109706110775765,0.16010517439746477]",4.0,"[-0.1466242967156661,-0.00625971819555819]",4.0,"[-0.09100341289719222,-0.05882487882975827]",4.0,"[0.17876020749174606,-0.02826566818462587]",4.0,"[0.005494691510342088,0.024797164424074147]",4.0,"[-0.08200426577962369,0.17824439411795226]",4.0,"[-0.05693120622701114,0.08872608804903097]",4.0,"[-0.15499548613693523,0.053533598582327105]",4.0,"[-0.050524842569465905,-0.036974806415280885]",4.0,"[0.07590864370834109,0.047969232657048014]",4.0,"[-0.11220417211116966,0.0559298332411659]",4.0,"[-0.09793665864519031,-0.0031682837003245983]",4.0,"[-0.0026097332239033537,0.1967571449255659]",4.0,"[-0.020352377531935268,-0.12069869474728519]",4.0,"[0.02,0.02]",332.5642,0.0,14.0,14.0,209.0,1.0,,,,,,,
,,,,,,,63cfee94707bca4ddee3eb05,6842bb005d29339130edc8bd,2025-06-06_10h58.36.698,shape_ratio,2024.1.5,Win32,30.03003003,6842b561977af9ba9b0f87ca,,,,,,,,,,,332.5646,333.0643,,,333.2981,334.0642,right,0.7,,,,,,,,,0.45,,,,,,333.0644,333.298,334.0643,"[0.14898788547608546,-0.02672224305116972]",4.0,"[-0.02836387069478769,0.04854933565682721]",100.0,"[-0.06251634870859324,-0.04775424432355135]",100.0,"[0.10848467053629836,0.027180537035391916]",100.0,"[0.06945125492145098,-0.026806869243488223]",4.0,"[-0.012621112125877581,0.18398603353301052]",100.0,"[-0.1601266007915587,0.0518367263715344]",4.0,"[-0.1767776077123212,-0.028827597326551692]",4.0,"[-0.08077312524388477,0.010891928063406225]",100.0,"[0.06699564346104155,-0.18281053754068124]",4.0,"[-0.052413829685398136,0.17053192292693234]",4.0,"[0.08594820793632418,0.12259582285249054]",4.0,"[0.0011765992490817493,0.014114847710882724]",100.0,"[-0.09498327323173837,-0.12344585158480215]",4.0,"[-0.04214801044239687,0.09865084092710093]",4.0,"[0.17490887584402737,-0.07692943907043481]",4.0,"[0.02977891412699142,0.13656966139981525]",100.0,"[0.005299952970852372,-0.1001336931109973]",100.0,"[-0.17419483490493595,-0.07011010805690687]",4.0,"[0.13829412284001508,0.06066064632437872]",4.0,"[0.12965939163737372,-0.08145423678000555]",4.0,"[0.059941490498974244,-0.0996255998754774]",100.0,"[0.10063334852893693,-0.13737092526138878]",4.0,"[0.016630751244953387,0.06808988490582471]",4.0,"[0.15914561486330356,0.11359586239486208]",100.0,"[0.14637686192848093,-0.12716460009051314]",100.0,"[0.05718574274734843,0.16700633086086694]",100.0,"[-0.02906218246678412,-0.1404021684446161]",4.0,"[-0.14478816268598352,0.1321845122595787]",100.0,"[0.07298399107046882,0.06491542575301376]",4.0,"[-0.19217950052812488,0.01757810902568779]",4.0,"[-0.12389125727379349,0.09762501178207555]",100.0,"[0.02,0.02]",335.1643,0.0,15.0,15.0,129.0,1.0,,,,,,,
,,,,,,,63cfee94707bca4ddee3eb05,6842bb005d29339130edc8bd,2025-06-06_10h58.36.698,shape_ratio,2024.1.5,Win32,30.03003003,6842b561977af9ba9b0f87ca,,,,,,,,,,,335.165,335.6642,,,335.9045,336.5309,right,0.5893,,,,,,,,,0.9,,,,,,335.6642,335.9045,336.5309,"[0.1970955916752012,0.022027369588964403]",4.0,"[0.13958623226123018,0.0549504593615563]",4.0,"[0.05467021854793183,0.021643131157615025]",100.0,"[0.10661363939942263,-0.05578036355605275]",100.0,"[-0.07063172626088135,0.15012326368303452]",100.0,"[0.07958908709757362,0.06973001282552069]",100.0,"[-0.10248996410018482,-0.11754074513852511]",100.0,"[-0.10642901002673082,-0.039851780220162177]",100.0,"[-0.1435146796373498,0.048474741444455176]",100.0,"[-0.03546378792618954,0.009206122441094103]",100.0,"[-0.15690508419223897,-0.022891932407351972]",100.0,"[-0.022143719178540414,0.06198474561970211]",100.0,"[0.04804812507326062,-0.072179999937991]",100.0,"[-0.11429422397401545,0.1113194742514379]",100.0,"[-0.08702117907921654,0.052304002908366655]",100.0,"[-0.03979113662145388,-0.12294912060523373]",100.0,"[0.10729959876102559,-0.013149819846237783]",100.0,"[0.027696883783797397,0.14541140349550685]",100.0,"[0.1273755105850875,0.14365584184442592]",100.0,"[0.03936445949817636,-0.1138765079637973]",100.0,"[-0.04748335382303773,0.18803048487365356]",100.0,"[0.11094079225973016,-0.1310959017077256]",100.0,"[0.15297578117661198,-0.0021210340269359777]",100.0,"[-0.09525524662816819,0.0016261663397833662]",100.0,"[0.15682000836632004,-0.10306754239209809]",4.0,"[-0.15393393390785373,-0.08590012867027777]",100.0,"[-0.1997980552938451,-0.008903640295734969]",100.0,"[-0.03382681164453764,-0.06746841715869513]",100.0,"[0.025243107141423138,-0.007838445394437864]",100.0,"[-0.16287855822788716,0.09088428860799892]",100.0,"[-0.00008067032672610717,-0.12985013681767557]",100.0,"[-0.13412146344984108,-0.14651735047488654]",100.0,"[0.02,0.02]",337.6308,0.0,16.0,16.0,15.0,1.0,,,,,,,
,,,,,,,63cfee94707bca4ddee3eb05,6842bb005d29339130edc8bd,2025-06-06_10h58.36.698,shape_ratio,2024.1.5,Win32,30.03003003,6842b561977af9ba9b0f87ca,,,,,,,,,,,337.6313,338.1393,,,338.3713,338.9309,right,0.5137,,,,,,,,,0.9,,,,,,338.1393,338.3712,338.931,"[-0.069628192917951,0.10298866731510921]",100.0,"[-0.14141402113259463,-0.0021997714175966674]",100.0,"[0.08068342619462257,-0.057337946316774344]",100.0,"[0.18745930761060242,-0.06915992462925037]",100.0,"[-0.11962378422477114,0.15261270879928548]",100.0,"[-0.042651347303993635,0.009775358129441492]",100.0,"[-0.17429579517658764,0.024896081362075682]",100.0,"[-0.10116923341422983,-0.15277906789422083]",100.0,"[-0.07203522184306821,0.17324551931450213]",100.0,"[0.11960952551725502,-0.008292637245445543]",100.0,"[-0.05932089344352918,-0.1354598277523056]",4.0,"[-0.07204418105716072,-0.1837289597827145]",100.0,"[0.09997176988250574,0.15201000720786925]",100.0,"[0.053816323547676556,-0.10181346381053664]",4.0,"[-0.08028874682998091,-0.07735849206529959]",100.0,"[0.05502335083516447,0.007452533866552251]",100.0,"[-0.16557515120746769,-0.10667697937417855]",100.0,"[-0.007988179440900717,-0.04525723191473823]",100.0,"[0.11259179735795487,0.0841089796440335]",100.0,"[0.1228311382650946,-0.14229887383786663]",100.0,"[0.007828328680990534,-0.1857367116539353]",100.0,"[0.1703714154354351,0.05366488176337171]",100.0,"[-0.15439118637807478,0.09864324748359636]",100.0,"[0.16082674505318506,0.10299044896014986]",100.0,"[0.03770324439554912,0.1488133484162241]",100.0,"[-0.035641876754728435,0.07952938018842122]",100.0,"[0.13565283044421,-0.07666189146748524]",100.0,"[-0.05959274351101817,-0.04154821631035604]",100.0,"[0.01319397816668149,0.0974938467570396]",100.0,"[-0.18880356520071226,-0.05066349354966218]",100.0,"[0.08015861284527155,-0.1492171749128254]",100.0,"[0.005017513601694754,-0.13149922807175482]",4.0,"[0.02,0.02]",340.0338,0.0,17.0,17.0,9.0,1.0,,,,,,,
,,,,,,,63cfee94707bca4ddee3eb05,6842bb005d29339130edc8bd,2025-06-06_10h58.36.698,shape_ratio,2024.1.5,Win32,30.03003003,6842b561977af9ba9b0f87ca,,,,,,,,,,,340.0343,340.531,,,340.7644,341.3977,left,0.5827,,,,,,,,,0.6,,,,,,340.531,340.7644,341.3977,"[-0.056746266195894964,-0.16027077037036808]",100.0,"[0.17477666535479203,-0.026443589972790563]",4.0,"[0.06555215677639929,-0.10744047830332554]",100.0,"[0.0869723626914285,0.15014379984111353]",100.0,"[-0.054106052565893493,-0.017352763060349122]",100.0,"[-0.04048666085151986,-0.05537719567128931]",4.0,"[0.10377325586735119,-0.13643358205310713]",4.0,"[0.015158827267109548,-0.07102966153086727]",100.0,"[0.10175354893004014,-0.08616293902129485]",100.0,"[0.05156261764047307,-0.18945483456768572]",100.0,"[-0.1589036768920875,-0.10934653514909133]",100.0,"[-0.12588236366688746,0.02071654538885296]",100.0,"[0.003987239943631267,0.059443462887461]",4.0,"[0.05819143951934353,0.1028839690058788]",100.0,"[0.0323182319557129,0.0015891533648469242]",100.0,"[0.036203586060157486,0.15547736855491426]",100.0,"[-0.043242594404149265,0.02349813978668074]",4.0,"[0.13214203046458295,-0.04995099250585703]",4.0,"[0.15043916233931795,0.09695744842164793]",4.0,"[0.009542081658743314,-0.11128365120866984]",100.0,"[-0.06444597552260137,0.16968231691110863]",100.0,"[-0.03591320451429875,0.14071543093281158]",4.0,"[0.1620917751719483,0.0118141583241473]",100.0,"[-0.13853746791475555,0.07695851944981287]",4.0,"[0.0672137191409274,0.03113756153506118]",4.0,"[-0.1831011765233685,-0.04183743885632164]",4.0,"[-0.04257946747751954,-0.09931814457309841]",100.0,"[0.1676832155014363,-0.09391320804517946]",4.0,"[-0.08370872693556299,0.11835528819679032]",4.0,"[-0.17582052849373953,0.0005708414979515965]",100.0,"[-0.13546494172973142,-0.02014795786675301]",100.0,"[-0.11336962489267081,-0.05783206662744732]",100.0,"[0.02,0.02]",342.4974,0.0,18.0,18.0,41.0,1.0,,,,,,,
,,,,,,,63cfee94707bca4ddee3eb05,6842bb005d29339130edc8bd,2025-06-06_10h58.36.698,shape_ratio,2024.1.5,Win32,30.03003003,6842b561977af9ba9b0f87ca,,,,,,,,,,,342.4978,342.9973,,,343.2384,343.8726,right,0.5986,,,,,,,,,0.6,,,,,,342.9974,343.2384,343.8726,"[-0.09539234540303515,-0.172616236166625]",4.0,"[0.1504818413631278,-0.01761595705695647]",4.0,"[-0.04168014473450507,0.08295321894601781]",100.0,"[0.04254457392124564,0.18271817707727647]",4.0,"[0.12932404255830676,0.0316847634016621]",100.0,"[-0.0830052568137605,0.15874106302508056]",4.0,"[0.05292984232099669,-0.18742795177597488]",100.0,"[-0.12716266629325446,-0.030666431276223222]",100.0,"[0.01615106294333311,0.12562802992591096]",4.0,"[0.062494028084704834,-0.1250215258770766]",100.0,"[0.0653019906816445,0.020402291442991678]",100.0,"[0.0919266894479301,-0.04539984457026399]",100.0,"[-0.08931636016100301,0.026647080391873388]",4.0,"[0.11435226195872607,0.12312047118381027]",4.0,"[0.10166057777753146,-0.0015205341213222494]",100.0,"[0.15603121992992597,-0.08607932841569337]",100.0,"[0.006946062273979081,-0.0023739029279684666]",100.0,"[-0.1917902545504948,-0.03613465102184415]",4.0,"[-0.04725699650472282,-0.13393137246419531]",4.0,"[-0.012876246541096406,0.04053975468340658]",100.0,"[0.015624635399993599,-0.11659687000841408]",100.0,"[-0.05260522509913177,-0.07769748672373401]",4.0,"[0.06798333284415864,0.0920311389233529]",100.0,"[-0.04321490758643364,0.0018879534819314645]",100.0,"[-0.012267204137528563,-0.08070033636387135]",100.0,"[-0.17609337261915167,-0.07814244916546974]",4.0,"[-0.03450916689567182,0.12758795095123343]",4.0,"[-0.1385001655019474,0.11095893975758507]",100.0,"[-0.11620505486458063,-0.09745977879795835]",100.0,"[-0.02329634979249032,0.16944021228687411]",100.0,"[-0.125983798248635,-0.13826401852940548]",4.0,"[0.18979682113793,0.04528054315357549]",100.0,"[0.02,0.02]",344.9677,0.0,19.0,19.0,45.0,1.0,,,,,,,
,,,,,,,63cfee94707bca4ddee3eb05,6842bb005d29339130edc8bd,2025-06-06_10h58.36.698,shape_ratio,2024.1.5,Win32,30.03003003,6842b561977af9ba9b0f87ca,,,,,,,,,,,344.9683,345.464,,,345.6977,346.5008,left,0.768,,,,,,,,,0.6,,,,,,345.4641,345.6977,346.5009,"[-0.03905733694344475,0.13373257956382]",100.0,"[-0.004632477919852503,-0.038160095851420474]",100.0,"[0.04782520955627204,-0.04143928131616469]",4.0,"[-0.11383160201613264,0.009404436678861932]",4.0,"[0.10232469546698886,0.05579797889195513]",100.0,"[-0.07819390533394223,0.15465671682196072]",4.0,"[-0.01122025999854251,0.07558864326957349]",4.0,"[-0.1492421213377003,0.05375974156736649]",100.0,"[0.030301270712970618,0.06524926177904795]",4.0,"[0.03720970492193523,-0.1745064320315168]",100.0,"[0.05872714791759075,0.10516216231518198]",4.0,"[0.1440062149590691,0.1034582712663934]",100.0,"[-0.03661686325050661,-0.10002332828848202]",4.0,"[0.10682118774002998,-0.15160526638793045]",100.0,"[0.05358499678743505,0.14517067954662152]",100.0,"[-0.10282546909407855,-0.07743339456651437]",100.0,"[0.014386144152953476,0.010751626852223278]",100.0,"[0.04151731686982816,-0.11579908684172516]",100.0,"[0.19499916394527558,0.032532302638777405]",100.0,"[-0.05128830784810368,-0.007238308122582456]",100.0,"[0.13761783877677602,-0.11371487274805542]",4.0,"[-0.08923301943947583,-0.03415117952440458]",4.0,"[-0.05337832509739859,0.04875591264817084]",4.0,"[0.005028146819941633,0.11586100261538232]",4.0,"[0.09582238228288545,-0.07291805078449452]",100.0,"[-0.0011805880465384857,0.19692372686062265]",100.0,"[-0.045789740366419966,-0.1537636963909726]",4.0,"[-0.19439398350707598,0.021108053345447596]",100.0,"[0.09674119478133576,0.16320953397126473]",100.0,"[-0.15791273338025724,-0.05699717676277492]",100.0,"[0.14573091271550553,-0.029787683085474165]",4.0,"[-0.15690709894650245,0.0028603158304517083]",100.0,"[0.02,0.02]",347.5973,0.0,20.0,20.0,46.0,1.0,,,,,,,
,,,,,,,63cfee94707bca4ddee3eb05,6842bb005d29339130edc8bd,2025-06-06_10h58.36.698,shape_ratio,2024.1.5,Win32,30.03003003,6842b561977af9ba9b0f87ca,,,,,,,,,,,347.5977,348.1046,,,348.3385,349.1309,left,0.7855,,,,,,,,,0.6,,,,,,348.1046,348.3385,349.1309,"[0.15583030663946723,0.04305771305641892]",100.0,"[-0.05676403583872387,-0.10900147576329655]",4.0,"[-0.015011321983336535,-0.15390918022656883]",4.0,"[-0.04385194069390251,0.08285510755593506]",100.0,"[-0.0576612540467888,0.18194518021814354]",100.0,"[-0.1690229003624975,0.022772541613732628]",100.0,"[0.043363420975997054,0.10656617175442341]",100.0,"[-0.1863438779520138,-0.01790989238235769]",4.0,"[0.0297914020811171,-0.19507851667682508]",4.0,"[0.09564156677266968,0.06756431522318596]",100.0,"[-0.11748386264822669,-0.021229045793812025]",4.0,"[0.08713786237893893,-0.10056530626279193]",100.0,"[-0.08152768094600346,-0.06303760072973871]",100.0,"[0.03244391050163391,-0.05149602690577875]",100.0,"[0.1780129700547107,-0.05162425395654962]",4.0,"[-0.012522731767713386,-0.04132774272158349]",4.0,"[-0.0939275161040089,0.04994663903473546]",100.0,"[0.0032467074711985127,0.025280515430370704]",4.0,"[0.14216155802269767,0.08734019284977813]",4.0,"[0.0027570986719340244,-0.09410980772213867]",100.0,"[-0.14209663476541848,-0.10318954028810234]",100.0,"[0.14641682192087557,-0.12018818124998858]",100.0,"[0.0703640274102407,0.0029846045186166857]",4.0,"[0.09398411580658175,0.15636896548904453]",100.0,"[0.009146399269600647,0.15067310216293459]",100.0,"[-0.12536581232081268,0.12874504900451997]",100.0,"[0.10250542322017833,-0.15282468788976375]",4.0,"[-0.16202291484259976,0.1077820431131211]",4.0,"[-0.1442310258574529,0.06215370107232856]",100.0,"[0.011945396691359049,0.19497611705165646]",100.0,"[-0.13765320484478952,-0.06284130644004453]",4.0,"[0.11169987529186479,-0.03835808132229703]",100.0,"[0.02,0.02]",350.2308,0.0,21.0,21.0,43.0,1.0,,,,,,,
,,,,,,,63cfee94707bca4ddee3eb05,6842bb005d29339130edc8bd,2025-06-06_10h58.36.698,shape_ratio,2024.1.5,Win32,30.03003003,6842b561977af9ba9b0f87ca,,,,,,,,,,,350.2311,350.7307,,,350.9751,351.8644,right,0.8496,,,,,,,,,0.5,,,,,,350.7308,350.9751,351.8644,"[0.01341763385590276,-0.09977826807417219]",4.0,"[0.0058755246996213244,-0.05977726558342293]",100.0,"[0.0290930632387476,0.18692758187031572]",4.0,"[0.1251713917279988,-0.11288161485422835]",100.0,"[-0.07212704505296873,-0.13122920336717947]",4.0,"[-0.08727725002265953,0.015567785054211454]",4.0,"[-0.12040087453761286,0.06665863346724155]",100.0,"[-0.14809757215364786,-0.0895590098288566]",4.0,"[-0.05321378593370963,0.1276992922292956]",4.0,"[-0.010367311175583531,-0.008522638396743207]",100.0,"[-0.0877659536584595,-0.08938162928215075]",4.0,"[0.092535286419745,0.02334413723438797]",4.0,"[-0.15745511588921668,0.012318948342802838]",100.0,"[-0.11274879501844125,0.13287419460320607]",4.0,"[0.0941703834736768,-0.05498385272702016]",4.0,"[0.05547000737139216,0.1270469081223271]",100.0,"[0.14837786654710103,-0.03716172257952468]",4.0,"[-0.00017926685233147826,0.08315350856786953]",4.0,"[-0.15904066045987533,0.08820732636033114]",100.0,"[-0.04634231579970944,0.16742650371659804]",4.0,"[-0.023869535386881906,-0.15496669965815485]",100.0,"[-0.11694967341695658,-0.05186533597507707]",100.0,"[0.1837270317624236,0.03615419597102923]",100.0,"[0.058380859982845264,0.060806817646264805]",4.0,"[0.17789667961150332,-0.00663841476879761]",100.0,"[0.03316992617466154,-0.1706513320097334]",100.0,"[-0.050483123755177675,-0.012543230678640688]",100.0,"[0.11814412673379338,0.09945458363859981]",100.0,"[0.18173893004306868,0.08074261678916445]",100.0,"[-0.041100630565889855,0.04238645867407866]",4.0,"[0.08491333287969355,-0.14962188373968408]",4.0,"[0.15569521239321749,-0.07828869805190969]",100.0,"[0.02,0.02]",352.9639,0.0,22.0,22.0,117.0,1.0,,,,,,,
,,,,,,,63cfee94707bca4ddee3eb05,6842bb005d29339130edc8bd,2025-06-06_10h58.36.698,shape_ratio,2024.1.5,Win32,30.03003003,6842b561977af9ba9b0f87ca,,,,,,,,,,,352.9644,353.4641,,,353.6978,354.3306,right,0.5891,,,,,,,,,0.55,,,,,,353.4641,353.6978,354.3307,"[-0.14887118635168234,0.1205359880601692]",100.0,"[-0.058894561443673964,-0.1717146752393095]",100.0,"[0.1242973778787872,0.12693122117050673]",4.0,"[-0.1552522627550976,0.06259703298376439]",4.0,"[-0.030563713085127224,-0.13618165418761652]",4.0,"[-0.14608521208493827,-0.01812680530660947]",100.0,"[0.089461199851825,0.03162338300567171]",4.0,"[-0.10820810133757602,-0.15701143530123365]",4.0,"[0.010890497345863592,-0.0644556345327141]",100.0,"[0.05759630300025918,-0.025462673927519396]",4.0,"[0.15055276264119136,0.012187385777119402]",4.0,"[-0.08484342703417158,0.13336636418967002]",4.0,"[-0.04663607665061184,0.1784524430569613]",100.0,"[-0.05412370976751209,-0.06979310415725778]",100.0,"[-0.18715762836744343,-0.027701436275292077]",100.0,"[-0.027589069999605725,0.0649800721600365]",4.0,"[0.11949832875830137,-0.07616342632591486]",4.0,"[-0.11092011001237559,-0.1113626219775737]",4.0,"[0.08787190146315932,0.15425462900365475]",100.0,"[-0.0805864155610517,0.0662220383113053]",100.0,"[0.04366393004591019,0.16397835574625186]",100.0,"[-0.06035824355484814,-0.02079918604703125]",100.0,"[-0.021411372842774664,-0.19355136055293345]",100.0,"[0.19613790762975045,-0.0027656057737704006]",100.0,"[0.08449574618731741,-0.17631713199440094]",4.0,"[0.08613707767907708,-0.11109268815370676]",4.0,"[0.040895761345873555,-0.17749296473510046]",100.0,"[-0.014938401580949112,0.017169603053178294]",100.0,"[0.12902687387203862,-0.15244761465743864]",100.0,"[0.12179159300464218,-0.0313069217249702]",100.0,"[-0.15695507927643104,-0.08878965609646722]",100.0,"[0.03366824371663804,0.014790711309038184]",4.0,"[0.02,0.02]",355.4307,0.0,23.0,23.0,88.0,1.0,,,,,,,
,,,,,,,63cfee94707bca4ddee3eb05,6842bb005d29339130edc8bd,2025-06-06_10h58.36.698,shape_ratio,2024.1.5,Win32,30.03003003,6842b561977af9ba9b0f87ca,,,,,,,,,,,355.4311,355.9308,,,356.1761,356.9643,right,0.7578,,,,,,,,,0.6,,,,,,355.931,356.1761,356.9644,"[-0.17280037376220028,-0.06366031075053342]",100.0,"[0.12086685332703925,-0.0497322832519818]",100.0,"[0.07302586665139695,-0.025868059885786977]",4.0,"[0.03238086320376477,0.07485475306299047]",4.0,"[0.04039129794764472,-0.1534816298400105]",4.0,"[-0.055460554830664685,-0.16545259119909453]",100.0,"[-0.029866254241119633,0.14752170722901572]",100.0,"[0.09574514985300521,0.011604177561166296]",100.0,"[0.0319375599168065,-0.05606013241090182]",4.0,"[0.12402435365408788,0.11060536783278971]",4.0,"[-0.11792268037263125,-0.13172127645950055]",100.0,"[-0.061712805153983766,0.17641403025648403]",4.0,"[-0.022129120960335095,0.1899395404398044]",100.0,"[0.05941067299973285,0.13135028075640628]",4.0,"[-0.03933453402617211,-0.05715719289519891]",100.0,"[-0.008078895355573788,-0.15304298535996014]",100.0,"[-0.014941758242582297,0.0980765120558229]",4.0,"[-0.14434375836910648,-0.024798099072618245]",100.0,"[0.08640273160445729,-0.14483991528885795]",4.0,"[-0.09786308725419107,-0.02419533918662189]",100.0,"[-0.041384606572063394,0.050530494475209714]",100.0,"[-0.0701224121731819,0.1304287446543495]",100.0,"[-0.11192782671451662,0.05947580755396128]",4.0,"[0.1423100943138115,-0.13862401105145447]",100.0,"[0.03212855943120049,0.17367458507045633]",100.0,"[0.1623879653584039,-0.04006862618814625]",100.0,"[-0.15965478635483785,0.052162597505682064]",100.0,"[0.10382164633469057,0.17031647466611305]",100.0,"[0.016095673182706525,-0.11862885725868041]",4.0,"[-0.08107804144714602,0.028414042461195242]",4.0,"[0.19295039198329,0.04864292988412254]",100.0,"[-0.06836003679052695,-0.0983588906858829]",4.0,"[0.02,0.02]",358.0674,0.0,24.0,24.0,33.0,1.0,,,,,,,
,,,,,,,63cfee94707bca4ddee3eb05,6842bb005d29339130edc8bd,2025-06-06_10h58.36.698,shape_ratio,2024.1.5,Win32,30.03003003,6842b561977af9ba9b0f87ca,,,,,,,,,,,358.0677,358.5639,,,358.7975,359.4308,right,0.5831,,,,,,,,,0.6,,,,,,358.5639,358.7975,359.4308,"[-0.098606272631921,-0.06705282799545541]",4.0,"[0.07499966324346807,0.13614398478844736]",4.0,"[0.016628344288136337,-0.048502635645166076]",4.0,"[-0.05186191135778307,-0.08071232461006865]",100.0,"[-0.14089038986441133,0.06826147269146322]",4.0,"[-0.00900660516629964,0.030388131050138496]",4.0,"[-0.03072615642785806,0.1704694550097484]",4.0,"[0.0990075840876172,0.02893618767676115]",4.0,"[-0.12280701481485705,0.03215569723795931]",100.0,"[0.02812762935151932,-0.16418544850920824]",100.0,"[-0.1010786839817028,0.17094576702975695]",100.0,"[0.1847638591909656,-0.0585264718442427]",100.0,"[-0.10595142834009061,0.1181981491192591]",100.0,"[0.12140706094445866,-0.04963684753920767]",4.0,"[0.14283440701253336,0.054177932372546235]",4.0,"[-0.07476483749384048,-0.12252615647778657]",100.0,"[-0.07212476322864185,0.003528718163832732]",100.0,"[-0.06976451593786864,0.06466699004618055]",100.0,"[0.14165914394084894,-0.11398287514122958]",100.0,"[0.1411773377424372,0.11047872879231053]",100.0,"[0.03932081881638088,0.05364823225189263]",100.0,"[-0.01619020470613761,0.12792464910082896]",100.0,"[-0.1668136306988469,-0.060167925462909035]",100.0,"[0.057900605844336,-0.036552450677714024]",4.0,"[0.08957351731100427,0.07621037714573511]",100.0,"[0.07215457501303597,0.18344534715760885]",4.0,"[0.029183339348915927,0.013249307697702736]",100.0,"[0.01959649063726953,0.1909006176477039]",100.0,"[-0.11316565673162665,-0.10913750242204685]",100.0,"[-0.15534186334680372,-0.1181957180552814]",4.0,"[0.1207662779514894,0.1470248250394937]",4.0,"[-0.1347674634608858,-0.01594424531660102]",100.0,"[0.02,0.02]",360.5308,0.0,25.0,25.0,37.0,1.0,,,,,,,
,,,,,,,63cfee94707bca4ddee3eb05,6842bb005d29339130edc8bd,2025-06-06_10h58.36.698,shape_ratio,2024.1.5,Win32,30.03003003,6842b561977af9ba9b0f87ca,,,,,,,,,,,360.5313,361.0305,,,361.2715,362.0309,left,0.7017,,,,,,,,,0.55,,,,,,361.0305,361.2714,362.0309,"[0.06297222479637692,-0.08791904909694753]",100.0,"[-0.0025293222821123926,0.16817336997675594]",4.0,"[0.14987234716332368,0.09251374540230153]",4.0,"[-0.11302687643218155,-0.009381900337207847]",100.0,"[-0.04796195096732767,0.1224167282401441]",100.0,"[-0.0539647219316227,0.0033747526291136665]",4.0,"[-0.07309628340125245,-0.06514806580475017]",100.0,"[-0.08865107355869213,0.1265537356797318]",100.0,"[-0.07947820176003087,0.054345209404529624]",100.0,"[0.12122597511479132,0.018392823621874922]",4.0,"[0.01540066855315242,0.07698973367202583]",4.0,"[0.1899653831366468,-0.05566396172207876]",100.0,"[0.09673928822707024,0.11101660127959556]",4.0,"[0.06582832242593492,0.07438395812698355]",100.0,"[-0.07148272417285158,0.16975797286766517]",4.0,"[-0.13725253748626126,-0.13691006715744497]",100.0,"[0.07904793320869336,-0.15926174067801738]",4.0,"[-0.14591190093187836,0.09494967399208634]",4.0,"[-0.029939501564571258,-0.09932514165884766]",100.0,"[0.02018973037603399,-0.09299204903336472]",100.0,"[-0.0005964289311396957,-0.16250567991911125]",100.0,"[0.12135963798757586,-0.12048263757140705]",4.0,"[-0.1676216871931105,0.017660062459028746]",100.0,"[0.0927979910704216,-0.050307008186829295]",100.0,"[-0.06068593697240047,-0.14851875557326807]",100.0,"[0.04132396982773154,-0.019404697945007723]",4.0,"[-0.019258865775240944,-0.054618651468671106]",4.0,"[0.07630961912790686,0.008178525922647055]",4.0,"[-0.09476971145673792,-0.11147684565960783]",100.0,"[0.06558684367630142,0.17318236171041826]",4.0,"[-0.16881232878696725,-0.06385315745658399]",100.0,"[-0.09734642426610535,-0.17102295041106555]",100.0,"[0.02,0.02]",363.1305,0.0,26.0,26.0,61.0,1.0,,,,,,,
,,,,,,,63cfee94707bca4ddee3eb05,6842bb005d29339130edc8bd,2025-06-06_10h58.36.698,shape_ratio,2024.1.5,Win32,30.03003003,6842b561977af9ba9b0f87ca,,,,,,,,,,,363.1308,363.6121,,,363.8646,364.6061,right,0.6999,,,,,,,,,0.45,,,,,,363.6121,363.8646,364.6061,"[-0.15304833827160416,-0.032334020937329275]",100.0,"[-0.007706342166965981,0.013790220647219277]",4.0,"[-0.18912074970053927,0.05690820444640877]",4.0,"[0.1018435457521386,-0.07432555670337536]",4.0,"[0.15632628181301975,0.09736438147381167]",100.0,"[-0.10105507313883512,-0.019540174115765134]",100.0,"[0.14299295888309888,-0.015185924706000891]",4.0,"[0.14956501135759165,-0.11318106716914451]",4.0,"[0.0865799931074135,0.08055753557944416]",100.0,"[-0.19584291121769545,-0.01927646355162817]",100.0,"[-0.042876350421309585,-0.0972318047836038]",100.0,"[0.026510631014299426,0.1496190601496215]",100.0,"[-0.10090790605810358,-0.06827288590801617]",4.0,"[-0.018144535554505768,0.06816264611190716]",4.0,"[-0.08471789686130016,0.13245122279858906]",4.0,"[0.09152361336200948,-0.019956225559404992]",100.0,"[-0.07352233695562894,0.022130538115223367]",4.0,"[0.009139833169627664,-0.10430545174481093]",100.0,"[0.02095365145191377,-0.06059348047072933]",4.0,"[0.0748105558811514,0.17954386426771277]",4.0,"[0.12879716027683505,0.12828358837664403]",4.0,"[0.05914975429770749,-0.11359867895590797]",100.0,"[-0.02556952122882899,0.17739923195205845]",100.0,"[0.03327068756745003,-0.19408019920042707]",100.0,"[0.17458012582725355,-0.0810891431297091]",100.0,"[0.17912229072633915,-0.04016959141256168]",4.0,"[-0.14099379674208873,-0.1172750772762618]",4.0,"[-0.14188682604345776,0.13431424037624543]",4.0,"[-0.02951273747461314,-0.1942658703143415]",100.0,"[0.03426744534262927,0.08487729276455432]",4.0,"[-0.08756266963423548,-0.17671000016093036]",4.0,"[-0.18298009657831327,-0.07253801864049125]",4.0,"[0.02,0.02]",365.6974,0.0,27.0,27.0,145.0,1.0,,,,,,,
,,,,,,,63cfee94707bca4ddee3eb05,6842bb005d29339130edc8bd,2025-06-06_10h58.36.698,shape_ratio,2024.1.5,Win32,30.03003003,6842b561977af9ba9b0f87ca,,,,,,,,,,,365.6978,366.1971,,,366.431,367.4306,right,0.9484,,,,,,,,,0.45,,,,,,366.1971,366.431,367.4306,"[0.0493641103711247,-0.0639543199060667]",4.0,"[-0.073056268290639,-0.10165351381403383]",4.0,"[0.12718705345137135,-0.005325153176704321]",4.0,"[0.0021028426986107692,-0.10312170055126217]",100.0,"[-0.11025274113607814,-0.07336099855892354]",100.0,"[-0.01253182605268321,0.15904634581362284]",4.0,"[-0.04467191688177896,0.07553628313978596]",100.0,"[-0.06556700178261281,-0.047389902957901936]",4.0,"[-0.11667892180844364,-0.15415463253170916]",100.0,"[0.04543887393665789,-0.17809350543971017]",100.0,"[-0.018619379724414187,0.04305382486615729]",4.0,"[0.17154138137390115,0.10135697702258446]",100.0,"[-0.11131818801136872,0.15936403550016648]",4.0,"[0.0197073327135381,0.13362558254766588]",100.0,"[0.15743590622549516,-0.06310614430418582]",4.0,"[0.07456780200224356,0.15441948105855133]",100.0,"[0.07002452463825651,0.09405896912146464]",100.0,"[0.1231817159798681,-0.15678672940870267]",4.0,"[-0.11432373673567675,0.029054231623798728]",4.0,"[-0.008438350324019078,-0.05698001806918251]",100.0,"[0.11991977972758983,0.11428997175553093]",4.0,"[-0.14207949911398227,-0.039040442541156344]",4.0,"[0.053311466613675765,-0.1276713338322027]",100.0,"[-0.1701321239421179,0.08406156560421718]",100.0,"[0.035541485086583446,0.051672012333766774]",4.0,"[0.0012292786801014202,0.08360561871675973]",100.0,"[0.19459034157154917,0.01334248112819636]",4.0,"[-0.07710473440179223,0.13527511358934377]",4.0,"[-0.03433132275864211,-0.015731473257067842]",4.0,"[0.11406944253675402,0.03273941637603816]",4.0,"[-0.09597841844474655,-0.018864856021983636]",100.0,"[-0.11646693175324178,0.11156438220967407]",4.0,"[0.02,0.02]",368.5307,0.0,28.0,28.0,146.0,1.0,,,,,,,
,,,,,,,63cfee94707bca4ddee3eb05,6842bb005d29339130edc8bd,2025-06-06_10h58.36.698,shape_ratio,2024.1.5,Win32,30.03003003,6842b561977af9ba9b0f87ca,,,,,,,,,,,368.5311,369.0311,,,369.2643,369.8638,right,0.549,,,,,,,,,0.9,,,,,,369.0312,369.2643,369.8638,"[-0.15038761214515045,0.04079316904998008]",4.0,"[-0.04215314679195314,-0.050482500114033074]",100.0,"[0.18669254347206213,-0.044145948241583695]",100.0,"[0.12978272846675426,0.029437292115334603]",100.0,"[-0.05841879548701538,0.14954979336759927]",100.0,"[-0.05422488867706043,-0.1607168019972521]",100.0,"[-0.10485563750543479,-0.10818348863140348]",100.0,"[0.03741446120023932,-0.0648051299241496]",100.0,"[0.05219696638812069,0.05583533473116098]",100.0,"[0.09811152102206061,-0.0366611037211002]",100.0,"[-0.09231563047480831,0.01895736393717461]",100.0,"[-0.024519443679948207,-0.011554722607028632]",100.0,"[0.08653601718288692,0.09740884485757213]",100.0,"[-0.13878338048261485,-0.001808564882116073]",100.0,"[0.017090860998354614,-0.014520876990290334]",100.0,"[-0.0340579890166067,0.03237026332343435]",100.0,"[0.03364510453680879,-0.14463224823139822]",100.0,"[-0.1012218969543014,0.15190702320866967]",100.0,"[-0.10842573209694553,0.08247843123642117]",4.0,"[-0.015912625251677866,-0.10620545700439485]",100.0,"[0.1226457612073246,0.14176618001794244]",100.0,"[-0.17832530974976377,-0.07481892408330887]",100.0,"[-0.114117284120929,-0.14891064028297593]",100.0,"[-0.01409751051468419,0.07127077838787438]",100.0,"[0.03224017658037016,0.15261510557673805]",100.0,"[0.08723128550698235,-0.10389268460469485]",100.0,"[0.1477700245433335,-0.12497140954153022]",4.0,"[-0.06380285150911398,0.0993364693346243]",100.0,"[0.07520775982791414,-0.1672192950042083]",100.0,"[-0.15131507015827975,-0.11322439183125636]",100.0,"[0.1363084911428499,0.06963157253271957]",100.0,"[-0.035285961949700684,0.18687543785841512]",100.0,"[0.02,0.02]",370.9637,0.0,29.0,29.0,13.0,1.0,,,,,,,
,,,,,,,63cfee94707bca4ddee3eb05,6842bb005d29339130edc8bd,2025-06-06_10h58.36.698,shape_ratio,2024.1.5,Win32,30.03003003,6842b561977af9ba9b0f87ca,,,,,,,,,,,370.9641,371.4638,,,371.6976,372.2974,left,0.5403,,,,,,,,,0.1,,,,,,371.4638,371.6975,372.2974,"[-0.18162924475170714,-0.02230140793120385]",4.0,"[0.09054438143345522,-0.05808409188254204]",4.0,"[0.00756286238516837,-0.06390165894619787]",100.0,"[-0.1588494446120094,0.03696803005978779]",4.0,"[-0.02345255349681114,0.12183607826108346]",4.0,"[-0.10838984841091995,0.033924547186580854]",4.0,"[0.11926079991230198,-0.10165827912999316]",4.0,"[0.01894956515918162,0.12287604512252187]",4.0,"[0.17983211855933878,-0.0333782851981513]",4.0,"[-0.01378176997798472,-0.016111711046103518]",4.0,"[0.05205335822894384,-0.16975851895017802]",4.0,"[-0.010724669004938013,0.03458092620120829]",4.0,"[-0.06478462002505912,-0.11654340943226563]",4.0,"[-0.07948962701017052,0.004921686143462347]",4.0,"[-0.07616444438690587,0.18183380112226077]",4.0,"[0.01098963280362811,0.07164004541800303]",4.0,"[-0.10187429694052316,-0.0859342085995497]",100.0,"[-0.11967858956616151,0.09181479867183105]",4.0,"[0.13937054402178892,-0.0508406200115106]",4.0,"[-0.06729865939534724,0.0717894380204889]",4.0,"[0.11619267592535353,0.03343990770248822]",4.0,"[-0.11108399844559774,-0.12970620764716922]",4.0,"[0.10301596676048069,-0.14272601221391418]",4.0,"[-0.057541160553378885,-0.032640603757802276]",4.0,"[-0.07502674548339688,0.12705545965971266]",4.0,"[0.0015640253882576551,-0.15795536654609357]",4.0,"[0.05531643108932381,-0.021956907100702264]",100.0,"[0.05848119039368528,0.09915074598104587]",4.0,"[-0.128162752689886,0.13619069922458454]",4.0,"[0.134325863138309,0.09658350166579131]",4.0,"[-0.15965364627447406,-0.1201129131076814]",4.0,"[0.07389267673159743,0.17107810195499817]",4.0,"[0.02,0.02]",373.397,0.0,30.0,30.0,196.0,1.0,,,,,,,
,,,,,,,63cfee94707bca4ddee3eb05,6842bb005d29339130edc8bd,2025-06-06_10h58.36.698,shape_ratio,2024.1.5,Win32,30.03003003,6842b561977af9ba9b0f87ca,,,,,,,,,,,373.3973,373.8971,,,374.1393,374.7307,right,0.5351,,,,,,,,,0.9,,,,,,373.8972,374.1393,374.7308,"[0.10248046783479624,-0.046379054276547246]",100.0,"[-0.08726434637630556,0.054479404564671007]",100.0,"[0.017931131205227203,-0.16819261175939257]",100.0,"[0.11480704801643533,0.04263060464723147]",100.0,"[-0.11114024517883166,0.14768500600222914]",100.0,"[-0.09693986719616915,-0.04536260151826756]",100.0,"[0.07587080165139166,-0.1627292191867625]",100.0,"[-0.02819144384904237,0.12446269354501865]",100.0,"[-0.13451660925285622,-0.07087200955559976]",100.0,"[-0.07158149296356393,-0.11598197988212017]",4.0,"[0.003416009730853868,-0.06270340022698963]",4.0,"[0.0510246879610067,0.08959371944929606]",100.0,"[0.014993919264628192,-0.11456771294301914]",100.0,"[0.15015468787792982,-0.06899135106402111]",100.0,"[-0.151739925203915,-0.023792109981999782]",100.0,"[-0.10998236601646046,-0.15131492997624643]",100.0,"[0.17872211713333058,0.08737788543652181]",100.0,"[0.05615071309746589,-0.10194922263153337]",100.0,"[0.18044084215219033,0.006838816479701997]",100.0,"[0.13208540823070739,0.13447644778143295]",100.0,"[-0.04310835378974018,-0.016822224397431525]",100.0,"[0.07632211853950316,0.17120801843393366]",100.0,"[0.03901094080637292,0.0484307224227416]",100.0,"[-0.17958939090448756,-0.063704430220392]",100.0,"[0.15754097423661392,0.045395557195840514]",4.0,"[0.03404033009050885,0.12892852640269578]",100.0,"[-0.040831552919602374,0.06772942256229426]",100.0,"[0.10802214536762378,-0.10041979286154583]",100.0,"[-0.06829778050843481,0.14237086435293386]",100.0,"[0.09288702025853522,-0.004236385023930947]",100.0,"[-0.11474806358043989,0.1076467102072163]",100.0,"[0.08779116117974349,0.10801317781239997]",100.0,"[0.02,0.02]",375.8307,0.0,31.0,31.0,11.0,1.0,,,,,,,
,,,,,,,63cfee94707bca4ddee3eb05,6842bb005d29339130edc8bd,2025-06-06_10h58.36.698,shape_ratio,2024.1.5,Win32,30.03003003,6842b561977af9ba9b0f87ca,,,,,,,,,,,375.8311,376.3305,,,376.5672,377.4972,left,0.8783,,,,,,,,,0.5,,,,,,376.3306,376.5672,377.4973,"[-0.09394001263807618,0.14796279150111838]",4.0,"[0.1592675747461125,-0.10187445217778075]",4.0,"[-0.1477796804283167,-0.0772776716495678]",100.0,"[0.09548844818550044,0.1014575357815937]",4.0,"[0.1226138811077018,0.13486292522113213]",100.0,"[0.021071208238307066,0.1234084835645042]",100.0,"[-0.18140028541564032,0.022400546709153545]",4.0,"[0.12711526721622368,-0.1488346783632773]",4.0,"[-0.055984731809850835,0.10993965060110054]",100.0,"[0.17643647551781394,-0.0057370265441712915]",4.0,"[-0.04222497892482111,-0.04704597584982258]",4.0,"[0.05329498363513495,0.1747817398202049]",4.0,"[-0.04367969533015868,0.07075833383807663]",4.0,"[-0.00666856442088725,0.15478010245928767]",100.0,"[0.04889121226400264,-0.1882743651084073]",100.0,"[0.09617568723561541,-0.07534886858577822]",100.0,"[-0.02779099098130897,-0.17600699172952247]",4.0,"[-0.053361014243056226,0.16083744724353147]",4.0,"[-0.13952779126048317,0.10109428592373068]",4.0,"[-0.09263342223714595,-0.08136648270037342]",4.0,"[0.07723190974460623,-0.1209022436922056]",100.0,"[0.057225946209298766,-0.03148971962576965]",4.0,"[0.027684739271643877,-0.1504056099523289]",100.0,"[-0.12393031724090299,0.04733518787925049]",100.0,"[-0.05521372259108471,0.003930907322812072]",4.0,"[0.16893336577294887,0.07828693176248784]",4.0,"[0.10424416144880586,0.03306826845053933]",100.0,"[0.1306050263459639,-0.03064686885289823]",100.0,"[-0.08935091649639118,-0.14979586832404604]",100.0,"[-0.0839218810748783,-0.04053059004302703]",100.0,"[-0.007086776300872248,-0.11259501629488775]",100.0,"[0.04085455186697608,-0.09636901871180667]",100.0,"[0.02,0.02]",378.5971,0.0,32.0,32.0,92.0,1.0,,,,,,,
,,,,,,,63cfee94707bca4ddee3eb05,6842bb005d29339130edc8bd,2025-06-06_10h58.36.698,shape_ratio,2024.1.5,Win32,30.03003003,6842b561977af9ba9b0f87ca,,,,,,,,,,,378.5974,379.0972,,,379.3337,379.8637,right,0.4966,,,,,,,,,0.5,,,,,,379.0972,379.3337,379.8638,"[0.032704168145729365,0.029431376304767262]",4.0,"[0.07512469092619051,-0.08212059381609288]",4.0,"[0.11234836956375839,0.005292732618260084]",4.0,"[-0.07895740514409082,-0.04176941841203413]",4.0,"[0.017941156685241502,-0.07685851902066447]",100.0,"[-0.013222681309171374,-0.1890388736982708]",100.0,"[-0.08887853397985045,-0.14638407921649824]",4.0,"[-0.04249567945817601,0.12816759349855486]",4.0,"[0.15819598260804976,0.08116717524560157]",100.0,"[-0.16547236531955437,0.10143437496347303]",4.0,"[-0.02227860398143324,-0.12272295721307505]",100.0,"[0.1658890577611706,-0.028094822310045776]",4.0,"[0.06947980414231962,-0.13841666142391815]",100.0,"[-0.19764216173786545,0.007595751268039878]",100.0,"[-0.14440815252856617,-0.07594709976554626]",100.0,"[-0.07007607643004356,0.0060012299170029105]",100.0,"[0.1464106467237044,0.040574653832929825]",100.0,"[-0.03254038688130928,0.07686794305907205]",100.0,"[0.11227720001586076,0.15648929096624875]",4.0,"[0.06724496288400965,0.10561254977461469]",4.0,"[0.10377213663809799,0.06796742667273752]",100.0,"[-0.16792404037568257,0.060285644415533614]",100.0,"[0.10703512852382024,-0.11309255624397346]",4.0,"[0.015220470714762282,0.11975028108170911]",4.0,"[-0.08785172427775755,0.14025910146714624]",4.0,"[-0.093257742308147,0.03998372366699539]",100.0,"[0.026374532324722835,0.18365149977592718]",100.0,"[-0.13420390800737242,0.024276529405244794]",100.0,"[-0.02044489090017324,0.17724304771968305]",4.0,"[-0.13297066331574112,-0.12254636985346172]",4.0,"[-0.04841989758995152,-0.0749351551791806]",100.0,"[0.1437190612873946,-0.0779598332561518]",4.0,"[0.02,0.02]",380.9637,0.0,33.0,33.0,108.0,1.0,,,,,,,
,,,,,,,63cfee94707bca4ddee3eb05,6842bb005d29339130edc8bd,2025-06-06_10h58.36.698,shape_ratio,2024.1.5,Win32,30.03003003,6842b561977af9ba9b0f87ca,,,,,,,,,,,380.9643,381.4636,,,381.7061,382.5638,left,0.8206,,,,,,,,,0.55,,,,,,381.4637,381.706,382.564,"[-0.18611349201818692,-0.06943478362789482]",100.0,"[0.011988876552839036,0.021099221630541766]",4.0,"[-0.05282769765832057,-0.15309761867408472]",4.0,"[0.1257879054627595,0.0877492184994438]",4.0,"[-0.14429507818373952,0.02865160217662144]",4.0,"[0.16415385144765246,0.0628303389106647]",4.0,"[0.04458108411231084,0.11780567662618656]",100.0,"[-0.16684244456662842,0.09830461466076917]",100.0,"[0.09516187791541371,0.1586242482290101]",4.0,"[0.11234941629352144,-0.08588616592036902]",100.0,"[-0.04401151857810413,-0.1032743379132979]",4.0,"[-0.11744236245233088,0.08812051755429626]",100.0,"[-0.06656108654919492,0.09299062491547216]",100.0,"[0.1629201873256409,-0.0659086593979497]",4.0,"[0.11094891519999067,-0.13048578501410937]",100.0,"[0.09210019433539958,0.003204655390443004]",100.0,"[0.11161905825985696,0.04200336066524576]",100.0,"[0.1621159476662243,0.10720311227274121]",4.0,"[-0.008859348316836605,0.18648764490901537]",100.0,"[0.029402609073868997,-0.1226195140955944]",4.0,"[0.05240879210519552,-0.06239414070186967]",4.0,"[0.030915905216353325,0.07796148785922291]",4.0,"[-0.08442914671414614,-0.02913626265503987]",100.0,"[-0.1229144484390992,-0.13417181243232054]",100.0,"[-0.12959004719476327,-0.07995213989053725]",100.0,"[0.13220536000985603,-0.019018944309997215]",4.0,"[-0.011696942937940965,0.09967526804767066]",100.0,"[-0.06554624334461667,0.052647593514697125]",4.0,"[0.18817982814021722,-0.0074902684202611015]",100.0,"[0.08090031546219749,-0.16185808246088326]",100.0,"[0.012233496151987084,-0.19437221368665758]",100.0,"[-0.0022641802385006027,-0.08034732016442972]",100.0,"[0.02,0.02]",383.6638,0.0,34.0,34.0,67.0,1.0,,,,,,,
,,,,,,,63cfee94707bca4ddee3eb05,6842bb005d29339130edc8bd,2025-06-06_10h58.36.698,shape_ratio,2024.1.5,Win32,30.03003003,6842b561977af9ba9b0f87ca,,,,,,,,,,,383.6641,384.1636,,,384.3974,385.1987,right,0.7988,,,,,,,,,0.1,,,,,,384.1637,384.3973,385.1987,"[-0.06920881899649498,0.12139462127254287]",4.0,"[-0.007209271693272713,0.054742951735186965]",4.0,"[0.1412841075016445,-0.10526262765403609]",4.0,"[0.1828659381528292,0.06362025006211988]",4.0,"[-0.08075222693511047,-0.15187735155383958]",4.0,"[0.06636569861108854,0.09024251681245853]",4.0,"[-0.15155528679432528,-0.09438624888491733]",4.0,"[-0.029214015996107356,0.0123721438857361]",4.0,"[0.0956657458466696,-0.11805016307151106]",4.0,"[-0.08400010349069288,0.17362585823429819]",4.0,"[-0.12659593907337702,0.08976560894441935]",4.0,"[0.019987114634117342,-0.026526928555894783]",4.0,"[0.06727651984588837,-0.1646961843839394]",4.0,"[0.034987521537761954,0.18154292936899769]",4.0,"[-0.12348730182316608,0.03321400963298166]",100.0,"[0.13868994792029113,0.04137601491832515]",4.0,"[-0.09556777745091248,-0.03729931370806416]",4.0,"[-0.16804046184992316,-0.05143225543906526]",4.0,"[0.19808110481283803,0.00894263783503159]",4.0,"[0.11629736946223725,0.004202029280944237]",4.0,"[-0.16028688175135464,0.05871184551316094]",4.0,"[-0.08526872192576088,0.00664041120716559]",4.0,"[0.06374032278299491,0.1416905692944485]",100.0,"[0.1514500760484453,-0.06410000325937047]",4.0,"[0.05133740832616961,0.004498357664513306]",4.0,"[0.019377503251595353,-0.16481650327501754]",4.0,"[-0.08860976501530805,-0.07939027441552678]",4.0,"[-0.017662019103322723,-0.1481220511548026]",100.0,"[0.07856180797461056,-0.028567907874829976]",4.0,"[-0.00436534661577212,-0.09214643944751123]",4.0,"[-0.14680406717802988,0.12730253813495765]",4.0,"[-0.01033365352848334,0.1579141713553175]",4.0,"[0.02,0.02]",386.2971,0.0,35.0,35.0,201.0,1.0,,,,,,,
,,,,,,,63cfee94707bca4ddee3eb05,6842bb005d29339130edc8bd,2025-06-06_10h58.36.698,shape_ratio,2024.1.5,Win32,30.03003003,6842b561977af9ba9b0f87ca,,,,,,,,,,,386.2976,386.7972,,,387.0313,387.897,right,0.8212,,,,,,,,,0.55,,,,,,386.7972,387.0312,387.8971,"[0.1296027621082486,-0.0428132781856472]",100.0,"[-0.02280112264086001,-0.011534897035713006]",100.0,"[-0.0786641954113049,0.07583007909429383]",100.0,"[0.06905355653180635,-0.18609020706057866]",4.0,"[0.06623187205118529,0.09054543319074328]",4.0,"[-0.035484013066052186,0.1610288824153573]",100.0,"[-0.11318384879029049,-0.0629387691986137]",100.0,"[0.02758307331621347,-0.12437546143423468]",100.0,"[0.11392072629197852,-0.08905550177857781]",4.0,"[0.17079579204453083,0.0324338537237671]",4.0,"[0.06829305881878897,0.1390121003028584]",4.0,"[-0.1211940497947661,0.08900936657937461]",100.0,"[-0.10331824580036333,0.017364453797737732]",4.0,"[-0.05185911795798243,-0.10160306893892021]",100.0,"[-0.014966183165249907,-0.15749815759818087]",4.0,"[0.008015873921199929,0.09737690311959388]",4.0,"[-0.14980480132670895,0.04336987228350253]",4.0,"[0.12845534037173661,0.08274127875939452]",100.0,"[0.07364527383885675,0.008219890450699388]",100.0,"[-0.03417617806866481,0.10195057197188657]",100.0,"[0.12706268116406438,0.03781915854923011]",100.0,"[0.1766914450923909,-0.022611446189676306]",4.0,"[-0.1542356778246224,-0.056794065554593286]",100.0,"[0.04621883406183199,0.1900571562851723]",100.0,"[-0.19726518832856152,-0.005769725815293309]",100.0,"[-0.03997529972359586,0.0335349194595851]",4.0,"[0.04792413055127619,-0.028150267685979176]",100.0,"[0.008914514349868645,-0.07750109264175027]",4.0,"[0.11153980811531054,-0.16481770776519072]",4.0,"[-0.161609989263799,-0.09665658981176507]",100.0,"[0.018433085295201844,0.0234761952741335]",4.0,"[0.13369440827965665,0.13547111337571002]",100.0,"[0.02,0.02]",388.9969,0.0,36.0,36.0,78.0,1.0,,,,,,,
,,,,,,,63cfee94707bca4ddee3eb05,6842bb005d29339130edc8bd,2025-06-06_10h58.36.698,shape_ratio,2024.1.5,Win32,30.03003003,6842b561977af9ba9b0f87ca,,,,,,,,,,,388.9972,389.497,,,389.7306,390.5016,left,0.7296,,,,,,,,,0.45,,,,,,389.4971,389.7305,390.5017,"[0.1905788753205708,0.010600475844518387]",4.0,"[0.1168341865084228,0.07563580429914928]",100.0,"[0.10181151741493377,-0.1628119450182563]",4.0,"[-0.04861074637580512,-0.08793115643170715]",4.0,"[0.0810200241911659,0.12759757301155075]",100.0,"[-0.10305940746881788,0.11037848792855477]",100.0,"[0.03333813172967923,-0.0868779122174575]",100.0,"[0.022866284155612277,-0.17298464493976717]",4.0,"[-0.008201513033303093,0.048218546971561846]",100.0,"[-0.10424838953227479,0.005873828821418134]",4.0,"[0.04021415475816982,0.019742310183994614]",4.0,"[-0.028804002966818034,0.10858461132763716]",4.0,"[-0.06748029175630647,-0.1325123634073531]",4.0,"[-0.15506882282250442,-0.08958120707533962]",4.0,"[-0.17520453080914267,0.0012501806545139656]",4.0,"[-0.027802283732102875,0.1923700766659061]",100.0,"[0.16702974609516716,-0.04581051911615929]",4.0,"[-0.012705011229255317,-0.0019007038684459017]",4.0,"[0.10957887053914529,-0.04254367317865995]",100.0,"[0.05683433129969727,0.05948724162755628]",100.0,"[0.11671989853444142,-0.1204347943438689]",4.0,"[0.04363962143977493,0.11320803577723666]",100.0,"[-0.13427388415753694,0.06466256890431421]",100.0,"[0.05535090239404142,-0.13765667097895376]",100.0,"[-0.08362389162751131,-0.03673039112443419]",4.0,"[0.07933236793618734,-0.08281293238659812]",4.0,"[-0.009759179063300016,-0.058897051897339146]",4.0,"[-0.1731555941772184,0.04654465128102104]",4.0,"[0.09537800726099435,0.009225669586326174]",4.0,"[-0.026847637905268132,-0.1758933988176242]",100.0,"[-0.09021566806754801,-0.0803471404112632]",100.0,"[0.009602554496638688,0.17317468019026433]",100.0,"[0.02,0.02]",391.5969,0.0,37.0,37.0,133.0,1.0,,,,,,,
,,,,,,,63cfee94707bca4ddee3eb05,6842bb005d29339130edc8bd,2025-06-06_10h58.36.698,shape_ratio,2024.1.5,Win32,30.03003003,6842b561977af9ba9b0f87ca,,,,,,,,,,,391.5972,392.097,,,392.3334,393.0317,left,0.6654,,,,,,,,,0.55,,,,,,392.0971,392.3334,393.0317,"[-0.18546991937369664,0.006550593580804481]",100.0,"[0.01110633052319712,-0.10547068058877737]",100.0,"[-0.04129629477847173,0.10930903800557393]",100.0,"[0.051973235308936064,-0.04817101413996876]",4.0,"[-0.12834051463194163,-0.07363970607907416]",100.0,"[0.024251863374308756,0.16663013117154074]",100.0,"[-0.06756907621580122,0.016440660006947768]",100.0,"[0.18799736161463756,-0.03840911848174839]",4.0,"[-0.0648392788698091,-0.18855962136186738]",100.0,"[0.12220602540496243,0.10221317653305698]",4.0,"[-0.15120202591216653,0.04357620514057955]",4.0,"[0.1249790453422255,-0.1518613638606762]",100.0,"[-0.03281297730046431,-0.060238181086553134]",100.0,"[0.10091748112360743,0.005108773991899969]",100.0,"[0.08810176066400635,-0.16747389172056223]",100.0,"[-0.09419169770384134,0.13740686346455414]",4.0,"[0.06619924346046824,0.11520077641822536]",4.0,"[0.1213923823262821,0.05876816580018382]",100.0,"[-0.0671762332269836,-0.03617020262526611]",100.0,"[-0.07829053578062173,0.07788745546210285]",4.0,"[0.08208023681458573,0.16458832164272938]",4.0,"[0.028843047467050218,-0.0005874716691038932]",4.0,"[0.130770708797864,-0.0998333904032344]",4.0,"[-0.020748739413441197,0.15675363439635115]",100.0,"[-0.05954947601079837,-0.10310158367125365]",100.0,"[-0.10868785262215047,-0.11262294081808832]",100.0,"[0.012537934760298129,0.06635297766498009]",100.0,"[0.03605071766853575,-0.18075437095090835]",4.0,"[-0.1219240795126948,0.09970547882131547]",4.0,"[-0.030945699847684117,0.06567881924759503]",100.0,"[-0.10872341790891939,-0.01691380807296669]",4.0,"[-0.15600200141704315,-0.029547608199401356]",4.0,"[0.02,0.02]",394.1303,0.0,38.0,38.0,86.0,1.0,,,,,,,
,,,,,,,63cfee94707bca4ddee3eb05,6842bb005d29339130edc8bd,2025-06-06_10h58.36.698,shape_ratio,2024.1.5,Win32,30.03003003,6842b561977af9ba9b0f87ca,,,,,,,,,,,394.131,394.6303,,,394.8727,395.5304,right,0.5995,,,,,,,,,0.9,,,,,,394.6303,394.8727,395.5304,"[-0.13244814360933355,0.13408795004443513]",100.0,"[-0.09550523525254062,-0.052398753199225684]",100.0,"[-0.10288977072421379,-0.12165902272152304]",100.0,"[-0.06819435345645072,0.10987394048022267]",100.0,"[0.08452904541954155,0.09774460807459982]",100.0,"[0.01898917359630065,0.131499612375879]",100.0,"[0.15269482548733407,-0.02002621534850841]",100.0,"[0.13382369470000038,-0.14591384577621275]",100.0,"[-0.18466346537962297,-0.03881916298669481]",100.0,"[0.018954032149030457,-0.184749241704204]",100.0,"[0.07994557858094731,-0.13774094552529656]",4.0,"[-0.1234988446809435,-0.016180503938221007]",100.0,"[0.01389160621917126,-0.08953929686087463]",100.0,"[0.013181688586343925,0.08212279244242551]",100.0,"[-0.12382693669581227,0.07711278512252542]",100.0,"[0.09341265243898861,0.03392160150010624]",100.0,"[-0.06676044981118455,-0.09347941780779245]",100.0,"[0.04914143151453429,0.004306772883087737]",4.0,"[0.05403833972909925,-0.06970245071161632]",100.0,"[0.0755764022971111,-0.0288942531306658]",100.0,"[-0.01366943204644694,-0.004065866120126733]",100.0,"[-0.08712137232736081,0.15763076896074937]",4.0,"[0.1335743973471808,0.09889764838105734]",100.0,"[0.02751370615151609,-0.03204162305784657]",100.0,"[-0.04408048214528822,0.1654447989572841]",100.0,"[-0.022239338785592866,-0.11363027502523426]",100.0,"[0.04757123102802064,0.16933391059526115]",100.0,"[-0.05440807431516036,-0.17331017363447307]",100.0,"[-0.18853495356665048,0.058618092051853074]",100.0,"[0.10867042932227923,-0.0709976364373329]",100.0,"[-0.15892441050216075,0.09809663355760785]",100.0,"[-0.1322365445131845,0.03275864711600337]",100.0,"[0.02,0.02]",396.6304,0.0,39.0,39.0,2.0,1.0,,,,,,,
,,,,,,,63cfee94707bca4ddee3eb05,6842bb005d29339130edc8bd,2025-06-06_10h58.36.698,shape_ratio,2024.1.5,Win32,30.03003003,6842b561977af9ba9b0f87ca,,,,,,,,,,,396.6308,397.1301,,,397.364,398.5971,left,1.1726,,,,,,,,,0.5,,,,,,397.1302,397.3639,398.5971,"[0.18780850028939483,-0.03971970802811814]",100.0,"[0.03150760340441141,0.10315710690414172]",4.0,"[0.05882283176958451,0.1669433061439836]",100.0,"[0.13147743788937813,0.12358887880381686]",100.0,"[-0.03348688216234744,-0.10070002454048359]",100.0,"[-0.09981595043605257,0.11785421684296786]",4.0,"[-0.11298675989994225,-0.06762364842513198]",4.0,"[0.1722283406927254,0.014984411185705477]",100.0,"[0.005129138259168192,0.14657737946970945]",100.0,"[0.10737658279316048,-0.1501929180936246]",4.0,"[-0.07016522395012754,-0.01671438020653961]",100.0,"[0.16547888134719255,-0.09096710921424858]",100.0,"[0.04581727129178186,-0.02142951647746133]",4.0,"[-0.16110137871194816,-0.020145919288407397]",4.0,"[0.0012399830653575415,-0.1237937524872183]",4.0,"[0.16533456807173888,0.0939634398860858]",100.0,"[0.0109399312954451,-0.17987019034203505]",100.0,"[-0.1773451954785948,0.08450757558620846]",100.0,"[0.052759556818225826,-0.1497160626426802]",4.0,"[0.08541464428650747,-0.03238256595149218]",100.0,"[-0.0914963430071196,0.045583861521723036]",4.0,"[0.0849756215207255,0.03882820242097425]",4.0,"[-0.10641381452817782,-0.13121244030318716]",100.0,"[-0.037821237927268186,-0.1757459564379144]",4.0,"[-0.17245322147706446,-0.06972167219916568]",100.0,"[0.12460037007845028,-0.023780326689942666]",4.0,"[-0.043121648969170395,0.12216768252579784]",100.0,"[0.04721447610719019,0.023630196203339834]",4.0,"[0.07999198395619393,0.12574410545714282]",4.0,"[-0.00001163265955131724,-0.047026243968084566]",4.0,"[-0.018253163160306136,0.05004927935393905]",100.0,"[-0.12975477447983805,0.018649205391845922]",4.0,"[0.02,0.02]",399.6971,0.0,40.0,40.0,90.0,1.0,,,,,,,
,,,,,,,63cfee94707bca4ddee3eb05,6842bb005d29339130edc8bd,2025-06-06_10h58.36.698,shape_ratio,2024.1.5,Win32,30.03003003,6842b561977af9ba9b0f87ca,,,,,,,,,,,399.6974,400.1969,,,400.4305,401.2969,left,0.8592,,,,,,,,,0.45,,,,,,400.1969,400.4305,401.297,"[-0.10541125360833736,-0.0410084120602357]",4.0,"[-0.10598666489626478,0.043237154456145746]",4.0,"[-0.09590303212919807,0.113157193808048]",4.0,"[0.06211169108596578,-0.03348964973171746]",100.0,"[0.051286861189211316,0.03359602141084265]",4.0,"[-0.018734986870344424,0.09527555215611822]",100.0,"[-0.057616649109987296,0.04822668575708319]",4.0,"[0.030165411073283296,0.06978592358361316]",4.0,"[-0.03666135843966844,-0.11755570837560074]",4.0,"[0.0014359756808087784,-0.15451857238261504]",4.0,"[0.003807407209491667,0.16367791788267663]",100.0,"[0.059707726015559466,-0.09131959004390897]",4.0,"[-0.1731795626531395,0.0727174289706541]",4.0,"[0.13751072795566438,-0.05716356227991359]",4.0,"[0.10321833201164678,0.12520565289989458]",100.0,"[-0.021790169293297128,-0.03397148642021247]",4.0,"[-0.10513722759453892,-0.13136031706264528]",4.0,"[0.05183690328038122,0.14551497696467247]",4.0,"[0.0669257654459576,-0.13408498396577181]",4.0,"[0.11735565826093505,-0.11886762901267725]",100.0,"[0.14404354899775595,0.0058202337338433266]",100.0,"[-0.1594566178908664,-0.07296070323621567]",100.0,"[-0.07286978392946232,0.15971562084682933]",4.0,"[-0.14301225811543236,0.11315229929892348]",100.0,"[-0.16467358405381669,0.008224036206065514]",100.0,"[0.07932203215268968,0.07707785548840455]",100.0,"[0.150615230196703,0.0638675443042883]",4.0,"[0.15084788874251642,0.11923185044040727]",100.0,"[-0.06584284122157485,-0.0022692518504187132]",100.0,"[0.10099013324382848,0.024070808366807403]",100.0,"[-0.03504715409341027,0.1370258958142864]",4.0,"[0.022333741037171125,-0.016599078842286768]",100.0,"[0.02,0.02]",402.3971,0.0,41.0,41.0,124.0,1.0,,,,,,,
,,,,,,,63cfee94707bca4ddee3eb05,6842bb005d29339130edc8bd,2025-06-06_10h58.36.698,shape_ratio,2024.1.5,Win32,30.03003003,6842b561977af9ba9b0f87ca,,,,,,,,,,,402.3974,402.8975,,,403.1399,403.8653,right,0.6936,,,,,,,,,0.5,,,,,,402.8975,403.1399,403.8654,"[-0.1012823531140597,-0.06238534259947639]",4.0,"[0.09096237743698209,0.14051608831109266]",4.0,"[-0.04589396632232412,-0.15482049192217853]",4.0,"[0.0595890908397433,-0.12161179792274815]",4.0,"[0.03809256472949853,0.09593552415103358]",4.0,"[-0.1103091586168067,0.06376902104285982]",100.0,"[-0.026160163040152593,0.08266045548975544]",100.0,"[0.11051688966695077,-0.05620527933968436]",100.0,"[0.14615578234818496,0.03541518456153957]",4.0,"[0.10834100608262155,0.08808453976801177]",4.0,"[0.001445227831438136,-0.13530776473940656]",4.0,"[0.15565785083257738,-0.1125458073569814]",4.0,"[-0.1261034329951697,-0.14022971490422587]",100.0,"[-0.045091032012107964,-0.06507282369579408]",4.0,"[-0.1218417015581963,0.10589252433896292]",100.0,"[0.03663224805056184,-0.1724954490613604]",4.0,"[-0.10914037124311939,0.15660054944615048]",100.0,"[-0.10388916365082958,-0.012380765218571817]",100.0,"[-0.024775277431932908,-0.016524178984552145]",100.0,"[-0.15166192416875374,-0.0027712228473785253]",100.0,"[-0.02649121647361048,0.13798528416281508]",100.0,"[-0.07648057927629251,0.11857047563502715]",100.0,"[-0.13888336715775082,-0.08337050531200135]",100.0,"[0.004646937947268074,-0.04451133549562529]",4.0,"[-0.07149339834416356,0.18113747107521602]",100.0,"[-0.01744649807390839,-0.1958098783809478]",100.0,"[0.1274325443210752,-0.1490665545119678]",100.0,"[0.033073844339841535,0.14227046924998907]",100.0,"[0.08072089738899943,0.1809751997883936]",4.0,"[-0.09795337249815547,-0.17007363023398692]",4.0,"[-0.169235912200922,0.10542361494613571]",4.0,"[0.1860855556296053,-0.003558645962670525]",4.0,"[0.02,0.02]",404.9635,0.0,42.0,42.0,91.0,1.0,,,,,,,
,,,,,,,63cfee94707bca4ddee3eb05,6842bb005d29339130edc8bd,2025-06-06_10h58.36.698,shape_ratio,2024.1.5,Win32,30.03003003,6842b561977af9ba9b0f87ca,,,,,,,,,,,404.9638,405.4635,,,405.6973,406.6635,left,0.9009,,,,,,,,,0.4,,,,,,405.4635,405.6972,406.6636,"[0.11164446771411478,-0.016467649322584495]",100.0,"[0.12990727729395726,-0.054526039067218604]",4.0,"[-0.1105027447325853,-0.013049382365833584]",4.0,"[-0.12295272825096289,0.08917403424171494]",4.0,"[0.09237228861292794,0.13016838350575766]",4.0,"[0.017512569926490883,0.09940111578415294]",100.0,"[0.15733700266917688,0.09035388430519911]",100.0,"[-0.020418381711687205,0.05429548703881577]",4.0,"[0.0019887858350416507,-0.11746097512344267]",100.0,"[-0.01639613464180711,-0.1921169369515472]",4.0,"[0.03478185262280078,0.13968811159695715]",100.0,"[0.03176662070951869,-0.01680672056831682]",100.0,"[0.04688820948223773,-0.12486524339752803]",4.0,"[-0.03571959140833764,-0.010710637728435274]",4.0,"[-0.11030422415725581,0.13565343857890788]",100.0,"[0.12036644259360618,-0.15648015010230001]",4.0,"[-0.14592317826861934,-0.056089453058572235]",100.0,"[0.06192295051806573,-0.16463746675183152]",4.0,"[-0.1615137979763858,-0.09981044839142046]",100.0,"[0.010481844551308793,-0.07409211013036271]",4.0,"[0.19032253871330473,0.060434739451091235]",4.0,"[-0.04284996495709184,0.16134652449783846]",4.0,"[0.07451074690316606,-0.04735070297941078]",100.0,"[-0.06166442918500335,0.076496000802019]",100.0,"[-0.08794829063591654,-0.0618039357949457]",4.0,"[0.014723348521233243,-0.1655156956262005]",4.0,"[-0.06893963836146047,0.035536761996401205]",100.0,"[-0.15075037840664582,0.027667853152987927]",4.0,"[0.18139935152720904,-0.017038299330252006]",4.0,"[0.05048943484242167,0.06290755224430845]",100.0,"[0.1563492005490947,0.039156170824069296]",4.0,"[-0.042565012024452294,-0.10883763473198564]",4.0,"[0.02,0.02]",407.7634,0.0,43.0,43.0,173.0,1.0,,,,,,,
,,,,,,,63cfee94707bca4ddee3eb05,6842bb005d29339130edc8bd,2025-06-06_10h58.36.698,shape_ratio,2024.1.5,Win32,30.03003003,6842b561977af9ba9b0f87ca,,,,,,,,,,,407.7637,408.2635,,,408.4997,409.1303,right,0.5861,,,,,,,,,0.5,,,,,,408.2635,408.4997,409.1303,"[0.10626513132250498,0.08737348690204291]",100.0,"[0.09657918884833996,-0.05782043181954833]",4.0,"[-0.008425957850301246,0.11724522072350595]",4.0,"[-0.015462337847397714,-0.09348890477154866]",4.0,"[-0.08659561511154813,0.018551505322743134]",100.0,"[0.17581806080495682,-0.043923948649190206]",4.0,"[-0.17466236390459933,-0.03446619758441408]",100.0,"[0.051558342384483875,-0.19109568744944194]",4.0,"[-0.002349623783485965,-0.1454723657691616]",100.0,"[-0.15889860603100509,-0.08913347796507406]",100.0,"[0.16554305159684116,0.00031894203575031]",4.0,"[0.014328013704154995,0.04449851386057067]",100.0,"[-0.13948437982870546,0.11372053787512437]",4.0,"[-0.044286997327438,-0.050412336192520356]",100.0,"[0.08676167468549587,0.1322641613556668]",4.0,"[0.05961357268075299,-0.1507586186183757]",4.0,"[-0.0001440197088910259,0.002275677853633261]",100.0,"[0.0527365969532786,0.030953117570469202]",4.0,"[0.0365777683991733,-0.05385585842596386]",100.0,"[0.16503510531357854,0.04478912768817537]",100.0,"[-0.18606185524859287,0.03734269039362372]",100.0,"[-0.1272531441162691,-0.15228146784923843]",4.0,"[0.1005452237983903,-0.1419594592050391]",4.0,"[0.0792102395366929,0.1791442222288923]",100.0,"[-0.0015200149422376448,0.17081716343197897]",4.0,"[-0.052748753555115796,0.11145497447662803]",100.0,"[0.11948640505785596,-0.017933277212795817]",4.0,"[0.061593654073965,0.09954778038242289]",100.0,"[-0.0423617491228105,0.16184671320837438]",4.0,"[-0.07848650569582366,-0.16953583827487323]",100.0,"[-0.02257415897556088,-0.19177069143189435]",100.0,"[0.15218372531022753,-0.12723232117994962]",4.0,"[0.02,0.02]",410.2302,0.0,44.0,44.0,105.0,1.0,,,,,,,
,,,,,,,63cfee94707bca4ddee3eb05,6842bb005d29339130edc8bd,2025-06-06_10h58.36.698,shape_ratio,2024.1.5,Win32,30.03003003,6842b561977af9ba9b0f87ca,,,,,,,,,,,410.2307,410.7301,,,410.9669,411.7302,left,0.7194,,,,,,,,,0.5,,,,,,410.7301,410.9669,411.7303,"[0.02697772929190814,-0.1489112561562876]",100.0,"[0.07338553848564341,0.06373188437945626]",4.0,"[-0.01698349243260894,-0.08485996637327539]",4.0,"[0.03721233585859993,-0.07739570266750219]",100.0,"[0.19351205336312674,0.027413747015459476]",100.0,"[-0.17357283693391193,-0.06613121089311909]",100.0,"[-0.08492401501204677,-0.08196918870173976]",100.0,"[0.003054272180283937,0.16010075597717513]",100.0,"[0.02809634127916806,0.03226674404918224]",4.0,"[0.10491495992002098,-0.14469750977231713]",4.0,"[-0.09065940404848796,0.141230262380585]",4.0,"[-0.15690316044972616,0.024254583363305535]",4.0,"[-0.061236739893391935,-0.004072797694870077]",4.0,"[0.11302759725125636,0.1588182166827859]",100.0,"[0.11702710166526069,0.026983634378711537]",100.0,"[-0.14071771807214997,-0.1384710559662836]",4.0,"[-0.0839239041060654,0.08682680259347667]",100.0,"[-0.011499271275740389,0.04496124617070994]",4.0,"[-0.1091946749724817,-0.028016024634965275]",100.0,"[0.003488371151112012,-0.010528058976244732]",100.0,"[-0.07085595974149744,0.18700118055058595]",4.0,"[0.12517451161545728,-0.03104064220841505]",100.0,"[-0.0875887935261507,-0.12560759430256419]",4.0,"[0.0772403432247357,0.11955636798805579]",100.0,"[0.15938515336130848,-0.09396831423519927]",4.0,"[0.08406358006404983,-0.10398369773745414]",100.0,"[0.11819432711837426,0.10371527127877522]",4.0,"[0.05883758781245867,-0.03599365268200489]",100.0,"[0.16699967950050287,0.07427137562855214]",100.0,"[-0.15817232082079982,0.07046719068913306]",4.0,"[-0.025849675086526466,-0.16625942060956855]",4.0,"[0.06838843849864941,0.020799429681910443]",4.0,"[0.02,0.02]",412.8301,0.0,45.0,45.0,98.0,1.0,,,,,,,
,,,,,,,63cfee94707bca4ddee3eb05,6842bb005d29339130edc8bd,2025-06-06_10h58.36.698,shape_ratio,2024.1.5,Win32,30.03003003,6842b561977af9ba9b0f87ca,,,,,,,,,,,412.8304,413.3302,,,413.5715,414.1301,right,0.5011,,,,,,,,,0.9,,,,,,413.3302,413.5714,414.1302,"[-0.07854109899899497,-0.110410433315492]",100.0,"[0.03544155956581813,0.188114761778504]",100.0,"[-0.0770271184658545,-0.010914491168747972]",100.0,"[-0.14389210929961513,-0.009988353802860997]",100.0,"[0.1027870301210685,0.07564057970753311]",100.0,"[0.028508172255798107,-0.015241039160552031]",100.0,"[-0.035094962085618714,-0.15349972695683034]",100.0,"[0.0054698793623796085,-0.15962424756924304]",100.0,"[0.056033110040680324,0.11173567675623569]",100.0,"[-0.11038272538991893,0.06827605738824763]",100.0,"[-0.0958258801276051,-0.148293940579702]",100.0,"[-0.013589250964649484,0.10168178985720833]",100.0,"[0.07930564448732094,-0.13773125520413607]",100.0,"[-0.024609957316779802,-0.025708875158433064]",100.0,"[-0.12270600509205247,-0.09932348797203613]",100.0,"[-0.134613335506694,0.11747024048285802]",4.0,"[0.181938727231529,-0.07851689739230583]",100.0,"[-0.14286862160659744,0.035943329419197846]",100.0,"[-0.0756446434705523,0.11079747373558473]",100.0,"[0.024625338352241087,0.04946868931354586]",100.0,"[0.12701701292882298,0.11210696790258852]",100.0,"[-0.044468422375948995,0.17928650392704382]",4.0,"[0.14287731913350957,0.023492389380937093]",100.0,"[-0.09687704928133667,0.1493915430406371]",100.0,"[0.15251415593848522,-0.039317969842107156]",100.0,"[-0.18495854974300557,0.06329582447241942]",100.0,"[-0.1708638603207654,-0.0868747351044959]",100.0,"[0.08540222285419202,0.016228598988922885]",100.0,"[0.1011391743260678,-0.09164753340505821]",100.0,"[-0.07104891817211975,-0.05679958295443665]",100.0,"[0.0038451005947627544,0.15807021543431984]",4.0,"[0.07908648233541717,-0.04734158970060581]",100.0,"[0.02,0.02]",415.2302,0.0,46.0,46.0,27.0,1.0,,,,,,,
,,,,,,,63cfee94707bca4ddee3eb05,6842bb005d29339130edc8bd,2025-06-06_10h58.36.698,shape_ratio,2024.1.5,Win32,30.03003003,6842b561977af9ba9b0f87ca,,,,,,,,,,,415.2304,415.73,,,415.9638,416.8302,left,0.8019,,,,,,,,,0.55,,,,,,415.73,415.9636,416.8302,"[-0.055292094969176295,-0.07298760182142255]",4.0,"[0.1737102531631472,0.0819263904277542]",100.0,"[-0.10716548541987692,0.0026778190916527823]",4.0,"[-0.1681867008603696,-0.0452695496557224]",4.0,"[0.05133332018350095,0.1743024416443607]",100.0,"[0.07772464708652585,-0.14011072707942088]",100.0,"[0.15342121406138898,-0.07010858238091722]",100.0,"[-0.011939765186566509,0.16017728955751426]",4.0,"[-0.06326954889994034,0.12358255014343039]",100.0,"[0.1777826941513793,-0.03582736386505324]",100.0,"[-0.1058271795021066,0.04835462474380843]",100.0,"[-0.0044229484737168265,0.012864226561874283]",4.0,"[0.05491374227452334,0.09925544144852978]",100.0,"[-0.1445109920095811,0.017831127648355285]",100.0,"[-0.05366062710506283,-0.12016585567476652]",100.0,"[0.050517914544427535,-0.18796162581916312]",4.0,"[0.10561938614612154,-0.04261590530846595]",4.0,"[0.004123603763355572,-0.09536423021447457]",100.0,"[0.09946424244995229,0.11860575040963302]",4.0,"[-0.060411308955383734,0.1679021577109215]",100.0,"[-0.19504548039360844,-0.006036386400471393]",100.0,"[0.01501321276077937,0.08519237671114079]",4.0,"[0.1454038578487317,0.12072920060956165]",4.0,"[-0.10791349978645713,-0.06376065767929263]",100.0,"[-0.09777687276438907,-0.10574608577678163]",100.0,"[0.06511793965718653,0.05946552719715397]",100.0,"[0.15200446203901505,0.04346200136810098]",4.0,"[-0.05841319198605502,-0.16405654869281003]",4.0,"[0.10694747755006888,0.02254333096325583]",100.0,"[-0.16222944552883492,-0.11129957691915227]",4.0,"[-0.011681774617212735,-0.17642042594474103]",100.0,"[-0.1241962276086191,0.15644317890697948]",4.0,"[0.02,0.02]",417.9301,0.0,47.0,47.0,71.0,1.0,,,,,,,
,,,,,,,63cfee94707bca4ddee3eb05,6842bb005d29339130edc8bd,2025-06-06_10h58.36.698,shape_ratio,2024.1.5,Win32,30.03003003,6842b561977af9ba9b0f87ca,,,,,,,,,,,417.9306,418.43,,,418.6637,419.397,right,0.6699,,,,,,,,,0.5,,,,,,418.43,418.6636,419.3971,"[0.0018753630655067347,0.17827012636671238]",100.0,"[0.005654521685026822,0.11053348410574859]",4.0,"[-0.022304978202691728,-0.13554920037503504]",4.0,"[0.04036081697971242,0.1899945080635324]",4.0,"[0.15369961204478833,0.005878247148759268]",4.0,"[0.13710356715222916,-0.1292799361593559]",100.0,"[0.09322372693090054,-0.03694447546120704]",4.0,"[-0.0650491704715142,0.06744816291293709]",100.0,"[-0.10639030000211314,0.03982811031375686]",100.0,"[0.011002554575036926,0.0022827458943397386]",4.0,"[0.1576384961020424,0.0861274417604179]",100.0,"[0.0752184412106956,0.05617706284814148]",4.0,"[-0.15185938941629432,-0.10745530098508926]",100.0,"[0.05766240926129879,-0.16106134069255446]",4.0,"[-0.08759231446129695,-0.1689546104792123]",4.0,"[0.03346689389790465,-0.056749169005767756]",100.0,"[0.07088030778984897,-0.001987582559932462]",100.0,"[-0.041191687241409945,0.10451662277213718]",100.0,"[-0.06144701727921325,0.15187164692277808]",100.0,"[0.11460606082556186,-0.08769248499661007]",100.0,"[-0.0896451685826189,0.10315101405543502]",100.0,"[-0.07784563284523739,-0.08467694884821435]",4.0,"[0.14244263911846386,0.1348301022449833]",4.0,"[0.16484721759376797,-0.09297267197742402]",100.0,"[0.0008176848346552571,-0.17362109685107235]",4.0,"[0.12075207099348068,0.045955901554901556]",4.0,"[-0.11844468934942227,-0.08250528985543207]",100.0,"[-0.14116086769448716,0.010396981852982122]",100.0,"[-0.13840530732919012,-0.036582728548072645]",100.0,"[-0.1471400697699392,0.08027239454072274]",4.0,"[0.022881931426836623,-0.1188581499651703]",4.0,"[-0.01849618743237283,0.04900272007122932]",4.0,"[0.02,0.02]",420.497,0.0,48.0,48.0,100.0,1.0,,,,,,,
,,,,,,,63cfee94707bca4ddee3eb05,6842bb005d29339130edc8bd,2025-06-06_10h58.36.698,shape_ratio,2024.1.5,Win32,30.03003003,6842b561977af9ba9b0f87ca,,,,,,,,,,,420.4973,420.9968,,,421.2304,422.0634,left,0.7728,,,,,,,,,0.1,,,,,,420.9969,421.2304,422.0634,"[0.048596380912094526,0.16939779710019243]",4.0,"[-0.17275639179272903,-0.019983783719902816]",4.0,"[0.12828090574095186,-0.055606630792961624]",4.0,"[-0.008806859236435028,0.02921390598465828]",4.0,"[-0.1520800956102261,0.020998722535411806]",4.0,"[0.07529824701504073,0.012936798510291874]",4.0,"[-0.0687430500146407,-0.09302625041102686]",4.0,"[-0.15208746721705593,-0.10114475265890872]",4.0,"[-0.07758164456591844,0.15296662760263327]",4.0,"[-0.020337864292574455,0.08006617130468824]",4.0,"[0.08323957347793141,-0.14170792656938286]",4.0,"[0.04168917463739868,-0.0818431608421425]",4.0,"[-0.12729592974558643,0.12151549339064471]",100.0,"[0.10995738401591568,0.14685339799359007]",4.0,"[0.13013104981061022,0.07188176241745556]",4.0,"[-0.007787174258593867,-0.11641267410127375]",4.0,"[0.162215178125766,0.003561425394776885]",4.0,"[0.07752005435213025,-0.04986188071410931]",4.0,"[-0.12309468309276973,0.07174048184625954]",100.0,"[-0.0036117847133029755,0.12813284829211144]",4.0,"[-0.08339653776262253,-0.14026118831988005]",4.0,"[-0.08845348165004219,0.09323691882200842]",4.0,"[0.18646236094064159,-0.06579702292363059]",4.0,"[-0.10001250332595447,0.024342712115258455]",4.0,"[0.06814580144440269,0.09303317903353604]",4.0,"[0.05032353165731584,0.05699664089074976]",4.0,"[-0.19706981007939817,0.02938729155223453]",4.0,"[-0.108560287359687,-0.05059310478335989]",4.0,"[-0.044759809780388515,-0.022660297173601775]",4.0,"[-0.017427856112868952,-0.161835416773393]",4.0,"[-0.057817703983017284,-0.18259975449231694]",4.0,"[0.17271071466206156,0.07310386508713829]",100.0,"[0.02,0.02]",423.1634,0.0,49.0,49.0,181.0,1.0,,,,,,,
