right,left,explain.started,explain.stopped,key_resp_3.keys,key_resp_3.rt,key_resp_3.duration,participant,session,date,expName,psychopyVersion,OS,frameRate,study_id,explain_2.started,explain_2.stopped,key_resp_4.keys,key_resp_4.rt,key_resp_4.duration,explain_3.started,explain_3.stopped,key_resp_5.keys,key_resp_5.rt,key_resp_5.duration,fixation.started,fixation.stopped,practice.started,practice.stopped,response.started,response.stopped,key_resp.keys,key_resp.rt,key_resp.duration,feedback.started,feedback.stopped,trials_2.thisRepN,trials_2.thisTrialN,trials_2.thisN,trials_2.thisIndex,trials_2.ran,dot_ratio,explain_4.started,explain_4.stopped,key_resp_6.keys,key_resp_6.rt,key_resp_6.duration,dotDisplay.started,dotDisplay.stopped,ITI.started,polygon_1.pos,polygon_1.edges,polygon_2.pos,polygon_2.edges,polygon_3.pos,polygon_3.edges,polygon_4.pos,polygon_4.edges,polygon_5.pos,polygon_5.edges,polygon_6.pos,polygon_6.edges,polygon_7.pos,polygon_7.edges,polygon_8.pos,polygon_8.edges,polygon_9.pos,polygon_9.edges,polygon_10.pos,polygon_10.edges,polygon_11.pos,polygon_11.edges,polygon_12.pos,polygon_12.edges,polygon_13.pos,polygon_13.edges,polygon_14.pos,polygon_14.edges,polygon_15.pos,polygon_15.edges,polygon_16.pos,polygon_16.edges,polygon_17.pos,polygon_17.edges,polygon_18.pos,polygon_18.edges,polygon_19.pos,polygon_19.edges,polygon_20.pos,polygon_20.edges,polygon_21.pos,polygon_21.edges,polygon_22.pos,polygon_22.edges,polygon_23.pos,polygon_23.edges,polygon_24.pos,polygon_24.edges,polygon_25.pos,polygon_25.edges,polygon_26.pos,polygon_26.edges,polygon_27.pos,polygon_27.edges,polygon_28.pos,polygon_28.edges,polygon_29.pos,polygon_29.edges,polygon_30.pos,polygon_30.edges,polygon_31.pos,polygon_31.edges,polygon_32.pos,polygon_32.edges,dot_size,ITI.stopped,trials.thisRepN,trials.thisTrialN,trials.thisN,trials.thisIndex,trials.ran,break_2.started,break_2.stopped,trials_3.thisRepN,trials_3.thisTrialN,trials_3.thisN,trials_3.thisIndex,trials_3.ran
subject chose dot,subject chose diamond,0.0005,100.7108,space,85.6605,,63d13c076dd249ca3a6bffbb,6842bbe0184dac4344fb6e1a,2025-06-06_10h59.20.905,shape_ratio,2024.1.5,Win32,29.93205424,6842b561977af9ba9b0f87ca,,,,,,,,,,,,,,,,,,,,,,,,,,,,,,,,,,,,,,,,,,,,,,,,,,,,,,,,,,,,,,,,,,,,,,,,,,,,,,,,,,,,,,,,,,,,,,,,,,,,,,,,,,,,,,,,,
,,,,,,,63d13c076dd249ca3a6bffbb,6842bbe0184dac4344fb6e1a,2025-06-06_10h59.20.905,shape_ratio,2024.1.5,Win32,29.93205424,6842b561977af9ba9b0f87ca,100.7111,174.9935,space,44.2702,,,,,,,,,,,,,,,,,,,,,,,,,,,,,,,,,,,,,,,,,,,,,,,,,,,,,,,,,,,,,,,,,,,,,,,,,,,,,,,,,,,,,,,,,,,,,,,,,,,,,,,,,,,,,
,,,,,,,63d13c076dd249ca3a6bffbb,6842bbe0184dac4344fb6e1a,2025-06-06_10h59.20.905,shape_ratio,2024.1.5,Win32,29.93205424,6842b561977af9ba9b0f87ca,,,,,,174.9942,181.1685,space,3.162,,,,,,,,,,,,,,,,,,,,,,,,,,,,,,,,,,,,,,,,,,,,,,,,,,,,,,,,,,,,,,,,,,,,,,,,,,,,,,,,,,,,,,,,,,,,,,,,,,,,,,,,
,,,,,,,63d13c076dd249ca3a6bffbb,6842bbe0184dac4344fb6e1a,2025-06-06_10h59.20.905,shape_ratio,2024.1.5,Win32,29.93205424,6842b561977af9ba9b0f87ca,,,,,,,,,,,181.2366,181.6767,181.6771,181.9354,181.9356,182.7546,left,0.7767,,182.7551,183.8559,0.0,0.0,0.0,1.0,1.0,0.8,,,,,,,,,,,,,,,,,,,,,,,,,,,,,,,,,,,,,,,,,,,,,,,,,,,,,,,,,,,,,,,,,,,,,,,,,,,,,,,,,,,,,,
,,,,,,,63d13c076dd249ca3a6bffbb,6842bbe0184dac4344fb6e1a,2025-06-06_10h59.20.905,shape_ratio,2024.1.5,Win32,29.93205424,6842b561977af9ba9b0f87ca,,,,,,,,,,,183.8579,184.3504,184.3505,184.5734,184.5736,185.9068,left,1.2954,,185.907,187.006,0.0,1.0,1.0,0.0,1.0,0.2,,,,,,,,,,,,,,,,,,,,,,,,,,,,,,,,,,,,,,,,,,,,,,,,,,,,,,,,,,,,,,,,,,,,,,,,,,,,,,,,,,,,,,
,,,,,,,63d13c076dd249ca3a6bffbb,6842bbe0184dac4344fb6e1a,2025-06-06_10h59.20.905,shape_ratio,2024.1.5,Win32,29.93205424,6842b561977af9ba9b0f87ca,,,,,,,,,,,,,,,,,,,,,,,,,,,,187.0072,192.3084,space,2.2803,,,,,,,,,,,,,,,,,,,,,,,,,,,,,,,,,,,,,,,,,,,,,,,,,,,,,,,,,,,,,,,,,,,,,,,,,,,,,,,,,,
,,,,,,,63d13c076dd249ca3a6bffbb,6842bbe0184dac4344fb6e1a,2025-06-06_10h59.20.905,shape_ratio,2024.1.5,Win32,29.93205424,6842b561977af9ba9b0f87ca,,,,,,,,,,,192.3631,192.8149,,,193.0597,193.6805,left,0.5934,,,,,,,,,0.1,,,,,,192.8156,193.0596,193.6814,"[0.1809653480917436,0.068236600801487]",4.0,"[0.13841162250195416,-0.006268101036274849]",100.0,"[0.06532073624232966,-0.17944588925151259]",4.0,"[-0.02298747227021609,0.19761140134335803]",4.0,"[0.07514031828384259,-0.015483272727962731]",4.0,"[0.17181469235265112,-0.07922251574534342]",4.0,"[-0.07444429826391698,-0.04408368386710086]",4.0,"[-0.08326579808211097,0.11751245355334135]",4.0,"[0.009842448156518684,0.04037462600284298]",100.0,"[0.028898536999779897,-0.14634081834525195]",4.0,"[-0.1332064790038626,-0.014953663046672125]",4.0,"[-0.006466097768238748,0.09725531738774428]",4.0,"[0.1190573374396924,-0.06602008105824968]",4.0,"[0.07533836665671745,-0.11411580573061858]",4.0,"[-0.18222482734719717,0.03104363770904885]",4.0,"[0.14793469085670613,-0.12169961349549434]",4.0,"[-0.0011408278584461482,0.14841635432353534]",4.0,"[0.004520777040473131,-0.09366520270012263]",4.0,"[-0.034412408415803133,0.005179982793782956]",4.0,"[-0.03200969260761716,0.06359944881074785]",4.0,"[0.08122049389485819,0.0317965896658061]",4.0,"[-0.10828274033632755,-0.08219018625374812]",4.0,"[-0.0461160990174071,-0.08340817030405186]",4.0,"[-0.11935284401416697,0.03024963021159727]",4.0,"[-0.07350031045841038,-0.1308865921872801]",4.0,"[0.042974300503522786,0.15335939899574932]",4.0,"[0.1724946816810184,0.016438481627280982]",4.0,"[-0.06302335693314022,-0.18026850749513812]",4.0,"[-0.1798756628122232,0.08422451232701213]",4.0,"[0.0804460373327702,0.13367486475128024]",100.0,"[0.13669841810723155,0.08120492785395911]",4.0,"[-0.10799807985674702,0.16281145234353284]",4.0,"[0.02,0.02]",194.758,0.0,0.0,0.0,207.0,1.0,,,,,,,
,,,,,,,63d13c076dd249ca3a6bffbb,6842bbe0184dac4344fb6e1a,2025-06-06_10h59.20.905,shape_ratio,2024.1.5,Win32,29.93205424,6842b561977af9ba9b0f87ca,,,,,,,,,,,194.7591,195.26,,,195.5123,196.3008,left,0.7644,,,,,,,,,0.5,,,,,,195.26,195.5121,196.3009,"[-0.07843509070500204,-0.11432830471736197]",4.0,"[0.05282755617688992,-0.1376980396299145]",100.0,"[0.16976699216836363,0.08815828973517822]",4.0,"[-0.12896793633777592,-0.04922090534151348]",4.0,"[-0.1582161240486722,0.023101404980708604]",4.0,"[0.17209902517057396,-0.09345641300736243]",100.0,"[-0.16154738378578593,0.11038769948390344]",4.0,"[0.004461616680375772,-0.18798282567579935]",100.0,"[0.1853999485046376,0.015105954054643404]",4.0,"[-0.06610786094582877,-0.022215353747422176]",4.0,"[-0.0516836041378465,0.1291043646011519]",100.0,"[-0.009277688426910673,-0.07961018524196796]",4.0,"[0.039667598540515214,0.18540986606427093]",4.0,"[0.13823822697800758,-0.1205009459795744]",100.0,"[0.16635657703939594,-0.027093489691936045]",4.0,"[0.00290580695331243,0.04054437112794677]",100.0,"[-0.1663513900555756,-0.07269473989289373]",100.0,"[0.13356118017904448,0.1332952258771155]",4.0,"[0.03632471331998486,-0.09260622946966865]",100.0,"[0.0935352558150574,-0.08431227425759198]",4.0,"[-0.01294290904559488,0.19426365388679373]",100.0,"[0.06977485184742256,0.07980548085310687]",100.0,"[0.13876299565243558,0.04501769445595897]",100.0,"[-0.06574188899345751,0.07825153474548359]",100.0,"[-0.08302772318566497,-0.1727300329002689]",100.0,"[-0.1236435858124992,0.15503155373260796]",4.0,"[0.11988369413461208,-0.156262816684155]",100.0,"[0.13817683124713795,-0.07196608107313346]",4.0,"[0.07982238417352942,0.1266419676207894]",100.0,"[-0.12026324976234475,0.08553063477627185]",4.0,"[0.011452344326820458,0.09194353760045382]",4.0,"[-0.15059085430405167,-0.12632598311665605]",100.0,"[0.02,0.02]",197.3924,0.0,1.0,1.0,116.0,1.0,,,,,,,
,,,,,,,63d13c076dd249ca3a6bffbb,6842bbe0184dac4344fb6e1a,2025-06-06_10h59.20.905,shape_ratio,2024.1.5,Win32,29.93205424,6842b561977af9ba9b0f87ca,,,,,,,,,,,197.3929,197.8754,,,198.1171,199.2781,left,1.1349,,,,,,,,,0.5,,,,,,197.8754,198.1169,199.2784,"[-0.004930305263450279,0.16445187593015217]",100.0,"[0.15525530142185345,-0.11183975374644767]",100.0,"[-0.06247298899780489,0.020504442579745426]",100.0,"[-0.18429808438676507,-0.018879364108818214]",100.0,"[-0.03687595132151585,-0.18240704395937643]",4.0,"[0.03864126608086012,0.15320043838715555]",100.0,"[-0.017691863150606384,0.09426095411771808]",100.0,"[-0.15313109881168732,0.006753200646999505]",100.0,"[-0.06645466698371125,-0.11049803968512115]",4.0,"[0.1634925274134313,-0.015951158617451867]",100.0,"[0.03963940119783598,0.01030206466311213]",4.0,"[0.04796228194413067,-0.11769927414644085]",4.0,"[0.05848018473735563,-0.055970268558645744]",100.0,"[-0.06954648736322991,0.1757544826478352]",4.0,"[0.06511983747652386,0.18561255651350278]",4.0,"[0.07833574594330106,-0.016583441412565923]",100.0,"[0.07700042500291761,-0.17683701911685443]",4.0,"[0.11044807449450963,0.11905888726925506]",4.0,"[0.1263411454343597,0.028396870905357054]",4.0,"[-0.11532927922613463,-0.0266515123077199]",100.0,"[-0.08234407630372087,0.1273902955865024]",4.0,"[-0.04598078497460471,-0.06733364128592235]",4.0,"[0.0625146992236667,0.0657738437944008]",4.0,"[0.17564630230912834,-0.07717209874929733]",4.0,"[-0.12752317729237786,-0.11638498651312115]",4.0,"[0.10216924202921712,-0.1264531187031711]",100.0,"[-0.02305967380382522,0.04973385932442592]",4.0,"[-0.11904818424060808,0.04419896042441754]",100.0,"[-0.06936213818829895,0.06489413196111361]",4.0,"[-0.11299038816761489,0.1634669521026655]",100.0,"[-0.1289277939819834,0.08627737071998051]",100.0,"[-0.08455538313870274,-0.16508077108775765]",100.0,"[0.02,0.02]",200.3552,0.0,2.0,2.0,118.0,1.0,,,,,,,
,,,,,,,63d13c076dd249ca3a6bffbb,6842bbe0184dac4344fb6e1a,2025-06-06_10h59.20.905,shape_ratio,2024.1.5,Win32,29.93205424,6842b561977af9ba9b0f87ca,,,,,,,,,,,200.3557,200.8501,,,201.1077,201.5366,right,0.4055,,,,,,,,,0.45,,,,,,200.8502,201.1076,201.5369,"[-0.03279013549733683,0.08964512910534346]",100.0,"[-0.09577912477516322,0.011567713123748592]",4.0,"[0.04616550617305226,-0.014777904441340394]",4.0,"[0.08200624574182509,-0.07625142480406358]",4.0,"[0.055486714376131833,0.05581073627240889]",4.0,"[0.14647815970905634,-0.11907111032225559]",100.0,"[-0.12337176338227776,0.11413584843889633]",4.0,"[-0.013968768443549738,0.16291607630289798]",100.0,"[0.1693840433753627,-0.03231577786320441]",100.0,"[-0.09186254283273423,-0.11488896783514882]",4.0,"[-0.15323499052181724,0.0647888946106953]",4.0,"[-0.16555493941285793,-0.08772606104773067]",100.0,"[0.0001034487652534465,0.004966279464709154]",100.0,"[-0.04927858477171362,-0.1910957439276193]",100.0,"[0.0016128928053475223,-0.1356978250864458]",100.0,"[0.007190036790991056,0.0854794599266886]",100.0,"[-0.07518400434839599,0.07515741852243522]",4.0,"[0.028544420649437775,-0.07548376001571801]",4.0,"[0.030797822425785184,0.17416353709756535]",100.0,"[-0.1764648498367392,0.026612565241503256]",4.0,"[0.096439240006046,0.02749427252901494]",4.0,"[-0.05197332283109639,-0.050072941581603324]",4.0,"[0.10971102231777112,0.14808634432811288]",4.0,"[0.1498910340787693,0.0703123420190869]",4.0,"[-0.13131467568411267,-0.025062605683147714]",100.0,"[0.07032348174234275,-0.17652016847510427]",100.0,"[-0.03549591306941154,-0.11397759859320165]",4.0,"[0.041247477921085345,0.1257971568755134]",100.0,"[0.17499418979497797,0.03759640348329666]",100.0,"[0.10652367307163553,-0.011760939284396905]",4.0,"[-0.07832911820182736,0.1466308793464512]",4.0,"[-0.057178626964020034,-0.005146376847016723]",4.0,"[0.02,0.02]",202.6285,0.0,3.0,3.0,142.0,1.0,,,,,,,
,,,,,,,63d13c076dd249ca3a6bffbb,6842bbe0184dac4344fb6e1a,2025-06-06_10h59.20.905,shape_ratio,2024.1.5,Win32,29.93205424,6842b561977af9ba9b0f87ca,,,,,,,,,,,202.6291,203.1355,,,203.368,203.8919,right,0.4951,,,,,,,,,0.6,,,,,,203.1356,203.3679,203.892,"[-0.027967563678343795,0.10515399753369047]",4.0,"[0.08277677538712096,-0.1763810473624145]",100.0,"[-0.0034909773291062537,0.19086476249203185]",4.0,"[0.1590471966843532,-0.01952552351414409]",100.0,"[0.08739279337230119,-0.09083958759037866]",100.0,"[-0.021532233089766723,-0.020036317176909024]",4.0,"[0.025428886705345047,-0.05481868897104738]",100.0,"[0.0205975780722312,0.05118622012234588]",4.0,"[-0.1288786559360164,-0.09187860720257368]",4.0,"[-0.1779085413285607,0.07613054346639418]",100.0,"[0.12375920219792114,0.06620145421814067]",100.0,"[0.12830622989815832,-0.11107467392438482]",4.0,"[0.020831618086865508,-0.19714170761570707]",100.0,"[-0.1206429142383419,0.043008271232042]",100.0,"[-0.04844721112232326,0.15835641319067364]",100.0,"[-0.07554409864779402,-0.05704441310471117]",100.0,"[-0.18116826406871617,0.025417840296070686]",100.0,"[0.039368376319682694,0.013847127458712425]",100.0,"[0.05559826714551595,-0.13632380136340647]",100.0,"[-0.014848568334908593,-0.17654276441828456]",4.0,"[0.1596409561176795,0.02835033881752183]",4.0,"[-0.12370763946933871,-0.1347729356274464]",4.0,"[0.10469257354493257,0.15784632205796673]",4.0,"[0.11112759461963773,-0.021783674756838525]",100.0,"[-0.0772016589987551,0.07529047093571178]",100.0,"[-0.10932780154850477,0.1453199937587833]",4.0,"[0.06811485592792463,0.08284513653832011]",4.0,"[0.01133333397115603,-0.11734324152009316]",100.0,"[-0.07255632407005222,-0.10465187629006954]",100.0,"[-0.05159894392560092,0.02244237997333592]",4.0,"[-0.02464262760596623,-0.07472713102162026]",100.0,"[0.03511865240281607,0.11047319939825244]",100.0,"[0.02,0.02]",204.9709,0.0,4.0,4.0,31.0,1.0,,,,,,,
,,,,,,,63d13c076dd249ca3a6bffbb,6842bbe0184dac4344fb6e1a,2025-06-06_10h59.20.905,shape_ratio,2024.1.5,Win32,29.93205424,6842b561977af9ba9b0f87ca,,,,,,,,,,,204.9716,205.4591,,,205.7155,206.1518,right,0.4069,,,,,,,,,0.9,,,,,,205.4592,205.7155,206.152,"[0.18346957982480883,0.06954203313240558]",100.0,"[0.008819365518339329,-0.11733927192385889]",4.0,"[-0.1820635351578792,-0.008431059590111414]",100.0,"[0.10190195200961577,0.13480499333090762]",100.0,"[-0.04752574394940589,-0.0733486753366956]",100.0,"[0.03383661417871241,0.05105456783651533]",100.0,"[0.1265874399867172,-0.007521208466386806]",100.0,"[0.041232176538558,0.11953514682232066]",100.0,"[0.13032572804794923,0.09474189386749421]",100.0,"[-0.07765922813192594,0.1650798149858383]",100.0,"[0.16265173737730554,0.011502174115455243]",100.0,"[-0.11525665256966935,0.08439953267728192]",100.0,"[-0.13397764424214706,-0.014289182556778687]",100.0,"[0.07533661910455233,-0.12169168999931748]",100.0,"[0.10274550934997599,-0.06005288713694059]",100.0,"[-0.062267361175839794,0.05257720085402697]",100.0,"[0.08107370566011364,-0.02326649193474357]",100.0,"[-0.05417455502886493,-0.12874028660931625]",100.0,"[0.10719961174806636,-0.16573042624475515]",100.0,"[-0.047082932839868134,-0.008494391352494473]",100.0,"[-0.11105780457192434,-0.09009433911106265]",100.0,"[-0.09742779252420804,-0.15873355121849886]",100.0,"[-0.1790400606299618,0.073452103523269]",100.0,"[0.11622364489454894,0.046582225804525194]",100.0,"[-0.08131631075026959,0.11328858208086125]",100.0,"[-0.10148474691294167,0.04038641019741877]",100.0,"[0.032203289379719585,-0.03063095937920823]",4.0,"[0.008059957704601209,0.01947230671131848]",100.0,"[0.022895401354172812,0.1981877711284173]",4.0,"[0.15108602213554095,-0.13030320594029754]",100.0,"[-0.00794746074612505,0.10373066823120382]",100.0,"[0.11309155144162819,-0.10713072642347035]",100.0,"[0.02,0.02]",207.2451,0.0,5.0,5.0,1.0,1.0,,,,,,,
,,,,,,,63d13c076dd249ca3a6bffbb,6842bbe0184dac4344fb6e1a,2025-06-06_10h59.20.905,shape_ratio,2024.1.5,Win32,29.93205424,6842b561977af9ba9b0f87ca,,,,,,,,,,,207.246,207.7284,,,207.9714,208.8912,right,0.8956,,,,,,,,,0.1,,,,,,207.7284,207.9711,208.8913,"[-0.056658218953801034,0.09057361884534601]",4.0,"[-0.03958115972541752,0.0461812832069825]",4.0,"[-0.057807187895252986,-0.0051615622939605475]",4.0,"[0.15556621152698016,0.024984330029244016]",4.0,"[0.07048801066577369,0.07188055148091056]",4.0,"[-0.1066019755469681,0.025763357226977732]",4.0,"[-0.15094556972726006,-0.01918778463740474]",4.0,"[-0.17556658277373702,0.06647200116594383]",100.0,"[-0.09215867972823748,0.11175009757194097]",4.0,"[0.09527274349019405,0.1380427044413389]",4.0,"[0.041327152432622465,-0.10823539412203778]",4.0,"[0.09389138272338321,-0.07906190335425774]",4.0,"[-0.13450490495968975,-0.05914621801259885]",4.0,"[-0.06725738953872916,-0.07069882894744867]",4.0,"[0.10972363873537752,-0.033819660295276145]",4.0,"[0.031532654562248345,0.052608319378440946]",4.0,"[-0.08973891512759288,0.15910362218698165]",4.0,"[0.002717381699267284,-0.019317425820941293]",4.0,"[0.002694419183402113,-0.17023472305625423]",4.0,"[0.04985791518901166,0.15422782519061654]",100.0,"[-0.08828258540388123,-0.12487707661158484]",100.0,"[0.14543909778650982,-0.12707134661728114]",4.0,"[0.18101818433839528,-0.007215464958477707]",4.0,"[0.14909741386318381,-0.08477761638326245]",4.0,"[0.1666380441032596,0.08600767047064745]",4.0,"[-0.1446983868980794,0.11327829881054606]",4.0,"[-0.19529569753357254,0.01147709058203682]",4.0,"[0.02667378713579299,0.19395456514305365]",4.0,"[0.08933784099986349,0.0334408688399692]",4.0,"[0.054750932435598955,-0.04841258094325103]",4.0,"[-0.08033502023618413,-0.1668809718831242]",4.0,"[-0.028524781992295845,-0.12727323102913385]",4.0,"[0.02,0.02]",209.9806,0.0,6.0,6.0,205.0,1.0,,,,,,,
,,,,,,,63d13c076dd249ca3a6bffbb,6842bbe0184dac4344fb6e1a,2025-06-06_10h59.20.905,shape_ratio,2024.1.5,Win32,29.93205424,6842b561977af9ba9b0f87ca,,,,,,,,,,,209.9814,210.4514,,,210.6852,211.9161,left,1.1924,,,,,,,,,0.5,,,,,,210.4514,210.6851,211.9161,"[0.059708823801902684,-0.07217861618145159]",100.0,"[-0.04959760247635852,-0.12044772897287549]",100.0,"[0.09582329176265898,0.04012976706464107]",4.0,"[-0.15091034372967418,0.0667837854493742]",4.0,"[0.148609136531429,0.08472582595091407]",100.0,"[-0.12643567876434048,-0.1127316179330682]",4.0,"[0.14115340070356278,0.0022144923368312914]",4.0,"[0.14568752004236382,-0.10442333316392007]",100.0,"[0.07682658068759113,-0.16311586129650502]",4.0,"[0.07220696194936083,-0.11438225302693747]",4.0,"[0.12967120887710679,-0.0418728392886099]",4.0,"[0.0030068975115814236,-0.12269972056402324]",100.0,"[-0.04503360691343368,0.05120452662525382]",4.0,"[0.03451131108025502,-0.015421335099256838]",4.0,"[0.0931317015879779,0.1734306148009946]",4.0,"[0.041828212681264756,0.050908241466476385]",100.0,"[-0.18735831910317402,0.009061646069396238]",4.0,"[-0.004554773239997343,0.07220614904159758]",100.0,"[0.1993372884713265,-0.002311775881248809]",4.0,"[0.01910611355003594,-0.08133748980874796]",100.0,"[-0.1033307200420956,0.08277548325836144]",100.0,"[-0.02473247298131646,0.0000979165114634481]",100.0,"[-0.09891778511662265,-0.1587038904004803]",4.0,"[0.1698050267125622,0.036178159856028534]",100.0,"[0.010182294223829042,0.13734480607599614]",100.0,"[-0.04811802149273874,0.14250777048984634]",4.0,"[-0.06727780640480581,-0.025401834080963717]",4.0,"[0.0855555647470793,0.11794763530461057]",4.0,"[0.02577547384587538,0.18436160884008915]",100.0,"[0.17288900633987292,-0.04591743514432566]",100.0,"[-0.07367358303333961,0.018945218360715946]",100.0,"[-0.16292519840053432,-0.07091340453800304]",100.0,"[0.02,0.02]",213.0325,0.0,7.0,7.0,105.0,1.0,,,,,,,
,,,,,,,63d13c076dd249ca3a6bffbb,6842bbe0184dac4344fb6e1a,2025-06-06_10h59.20.905,shape_ratio,2024.1.5,Win32,29.93205424,6842b561977af9ba9b0f87ca,,,,,,,,,,,213.0332,213.529,,,213.7628,214.3173,right,0.5244,,,,,,,,,0.5,,,,,,213.5291,213.7627,214.3173,"[-0.0008226271481967983,-0.1654526998135765]",100.0,"[0.0780324118716066,-0.0017811774034363096]",100.0,"[-0.07613638140208208,-0.08458731765887133]",4.0,"[0.1407979197864545,-0.10623002085478932]",100.0,"[0.021061929347282057,0.06370727154720728]",4.0,"[-0.15709672345595987,-0.05742358085463489]",100.0,"[0.07929641021269974,-0.09813444456375484]",100.0,"[-0.16068279056591236,0.0852566814921194]",100.0,"[-0.14384224008959037,-0.012298582347951833]",4.0,"[-0.0772028496336738,-0.043956506549510256]",4.0,"[-0.005914576987217294,-0.1138626652267513]",4.0,"[-0.08972197671135995,-0.13605502913213818]",100.0,"[0.11922003475289725,0.15391697058507994]",100.0,"[0.13257105254338084,-0.026479288925093557]",100.0,"[0.08868278266850312,-0.04160428603314179]",4.0,"[0.054635010993589396,-0.16934028094037215]",4.0,"[-0.048914464132671205,-0.15523066703254337]",4.0,"[-0.08504084382711131,0.00219714325764755]",100.0,"[-0.04328443131417631,0.08746858275763002]",4.0,"[-0.07671523990649938,0.1407098816267934]",100.0,"[0.11029418311487701,0.103556399414411]",4.0,"[-0.039964925880189364,0.17952580614198232]",100.0,"[0.024870176978485925,-0.009223821995997385]",4.0,"[0.16246909638435034,0.03727011499315877]",100.0,"[-0.05371049558128936,0.040657506992355125]",100.0,"[0.035098912543368666,-0.13027746872489948]",100.0,"[0.027512337004119335,-0.06183284285919454]",4.0,"[-0.11074536321650039,0.05073989184075136]",4.0,"[-0.1955601699502125,-0.022075231608819794]",4.0,"[-0.18811515316604735,0.02258389586879567]",100.0,"[-0.12053812444506655,0.10749230861141366]",4.0,"[0.058639213834407976,0.04722382303382716]",4.0,"[0.02,0.02]",215.4176,0.0,8.0,8.0,112.0,1.0,,,,,,,
,,,,,,,63d13c076dd249ca3a6bffbb,6842bbe0184dac4344fb6e1a,2025-06-06_10h59.20.905,shape_ratio,2024.1.5,Win32,29.93205424,6842b561977af9ba9b0f87ca,,,,,,,,,,,215.4187,215.9172,,,216.1457,217.0807,left,0.8812,,,,,,,,,0.1,,,,,,215.9173,216.1456,217.0808,"[0.0811439492976067,-0.1812366232557679]",4.0,"[-0.12217947922666714,0.06836848595972492]",4.0,"[-0.08863556338931756,-0.15831593174182867]",4.0,"[0.1297552634009008,0.03351410404556096]",4.0,"[0.16374802342033767,-0.02844111971832338]",4.0,"[-0.044925632716646104,-0.0034370729521935465]",100.0,"[-0.11424719687652084,0.14586978886105542]",4.0,"[0.08684694680590076,0.009473033734317392]",4.0,"[0.10079393375588803,0.08171468597382216]",4.0,"[-0.08365033789560358,-0.0417039376678265]",4.0,"[-0.07173474819550994,-0.09442418586694631]",4.0,"[0.0430594677582593,-0.15742349035368539]",4.0,"[-0.10027348142331698,0.029080074994029162]",4.0,"[0.12924988044470564,-0.12151073054552439]",4.0,"[-0.1513837511621671,-0.010360789878111086]",100.0,"[-0.012110986672880504,0.15021260678382395]",4.0,"[0.034279565273769776,0.13701174268412109]",4.0,"[-0.013869893016735357,0.19771612203185635]",4.0,"[0.030258381691970194,0.0888353814825973]",4.0,"[0.07517148515456361,0.13789176302318973]",4.0,"[-0.026478115912987356,0.05411857927220111]",4.0,"[-0.0840736638362479,0.11155666088451133]",4.0,"[0.07425205117794682,0.18207153312605623]",4.0,"[0.05281440362899045,0.0382816493873874]",100.0,"[0.11387292831502015,-0.0667498235975713]",4.0,"[-0.16328399789324716,0.07307628001186617]",4.0,"[-0.026932834965118,0.09695236197852865]",4.0,"[0.039595459182645246,-0.08940045930559644]",4.0,"[0.12712289091148893,0.14598581155499132]",4.0,"[-0.006752744279224176,-0.032781030870514635]",4.0,"[0.17088513757099918,0.07408675845524318]",4.0,"[-0.13720159391873263,0.11153602731585144]",4.0,"[0.02,0.02]",218.1764,0.0,9.0,9.0,199.0,1.0,,,,,,,
,,,,,,,63d13c076dd249ca3a6bffbb,6842bbe0184dac4344fb6e1a,2025-06-06_10h59.20.905,shape_ratio,2024.1.5,Win32,29.93205424,6842b561977af9ba9b0f87ca,,,,,,,,,,,218.1997,218.7041,,,218.9338,219.6038,right,0.6335,,,,,,,,,0.55,,,,,,218.7041,218.9336,219.6038,"[-0.04169070211202567,-0.08905553199945275]",100.0,"[0.08284797988567806,0.00443456370967106]",100.0,"[0.013506076824408731,-0.029902205607579925]",4.0,"[-0.157261193186707,0.07444424053552277]",4.0,"[0.09231252854349406,0.13441974627945183]",4.0,"[0.07301954543020993,-0.11323278629462838]",100.0,"[0.1221179054402169,0.05227025548090713]",4.0,"[-0.054756710712704236,0.1284179438139372]",100.0,"[-0.08872442064166933,-0.027491515262149744]",100.0,"[-0.03470630766802136,0.006974021327188205]",4.0,"[-0.1453906346450082,-0.09339265338012605]",4.0,"[0.18419410174254994,-0.036340607919671926]",100.0,"[0.1381495129750183,-0.03381787256151165]",100.0,"[-0.14654598385945178,-0.03625999421267645]",4.0,"[-0.051037729177277856,0.0882198934320059]",100.0,"[-0.147767802789027,0.11718985413672398]",100.0,"[-0.04849465152541273,-0.03379476214713788]",4.0,"[0.0049447872441447495,0.046811010458505324]",100.0,"[0.14881267373107734,0.08313972775960829]",4.0,"[0.01711079745026925,-0.18952574513355275]",4.0,"[0.08424649942268204,-0.038412510488518764]",100.0,"[0.14755120167211994,-0.10163470854325347]",4.0,"[-0.10721769162982457,0.0896012001263775]",100.0,"[-0.01811187988544384,-0.12155934226392141]",4.0,"[-0.12513045152327534,0.046536645217540404]",100.0,"[-0.03327045501854211,-0.17028255522837454]",4.0,"[-0.18109251705375853,0.028571389667604245]",100.0,"[-0.08155439197282333,-0.10729207430822535]",4.0,"[0.02282800720778103,0.18125192929241515]",100.0,"[-0.007515488544036573,-0.06762746180907185]",100.0,"[-0.01117398664622977,0.12262796141186051]",100.0,"[0.06958676035911474,0.06985438281435913]",100.0,"[0.02,0.02]",220.7151,0.0,10.0,10.0,73.0,1.0,,,,,,,
,,,,,,,63d13c076dd249ca3a6bffbb,6842bbe0184dac4344fb6e1a,2025-06-06_10h59.20.905,shape_ratio,2024.1.5,Win32,29.93205424,6842b561977af9ba9b0f87ca,,,,,,,,,,,220.7158,221.2145,,,221.4536,222.9489,,,,,,,,,,,0.6,,,,,,221.2145,221.4536,222.9491,"[-0.14122562521102214,0.0946629981042756]",100.0,"[-0.07690611953802463,0.12934963879835168]",100.0,"[-0.13410368759460517,0.022065016216315913]",4.0,"[0.19480863410446353,-0.03375704158682008]",100.0,"[-0.180375572927234,0.061086777031807524]",100.0,"[0.11643851778231097,0.14237794256521882]",4.0,"[-0.1032040006559307,-0.02436541517954768]",100.0,"[-0.045671348943129644,-0.07955013910481339]",4.0,"[0.1306781378442923,0.09590929597576307]",100.0,"[-0.07538530993403042,0.02135141881686138]",100.0,"[0.009121141244834588,0.1682169030919843]",4.0,"[0.05808204965081539,0.12434468302316878]",4.0,"[0.05129029429192418,-0.090107419579479]",100.0,"[0.015289242125600972,-0.1251145741048067]",100.0,"[0.0030163052825991445,-0.02633224924412893]",100.0,"[0.11494854638171889,-0.021134337364406966]",100.0,"[-0.09595328865674121,0.07059506968663529]",100.0,"[0.17555136805741228,0.07606765242998056]",4.0,"[0.012474107376645144,-0.1834801732010179]",4.0,"[0.046893576882372286,-0.041294765284591514]",4.0,"[-0.04574783322232814,0.05408750532395005]",100.0,"[0.09702525879869862,0.03084609482609859]",4.0,"[-0.014824883465223232,0.1146747017760525]",4.0,"[0.11100240748697729,-0.09310430116171182]",4.0,"[-0.08501072268573633,-0.17220873130129452]",100.0,"[-0.031404245289025835,-0.19693568659458208]",100.0,"[0.0943920151012941,-0.13606936519321974]",100.0,"[-0.1575527298051634,-0.06831039630227653]",100.0,"[0.020891386927082246,0.029123891815488245]",4.0,"[-0.09955079916809985,-0.0742772427447459]",100.0,"[0.172359291877005,0.02306280947867318]",100.0,"[0.17766361358172225,-0.0700048777426985]",4.0,"[0.02,0.02]",224.0444,0.0,11.0,11.0,37.0,1.0,,,,,,,
,,,,,,,63d13c076dd249ca3a6bffbb,6842bbe0184dac4344fb6e1a,2025-06-06_10h59.20.905,shape_ratio,2024.1.5,Win32,29.93205424,6842b561977af9ba9b0f87ca,,,,,,,,,,,224.0449,224.5303,,,224.7624,225.281,right,0.4923,,,,,,,,,0.55,,,,,,224.5303,224.7623,225.2811,"[-0.11488529784472294,0.0017812475256834758]",100.0,"[-0.05152225119295871,-0.0389651466990897]",4.0,"[-0.10562333003179897,-0.054136925700023375]",100.0,"[0.06799426451696008,-0.0032662495917130255]",100.0,"[0.010294115155162898,0.0530140145928279]",100.0,"[-0.00929061643161535,0.0017173078814997033]",4.0,"[-0.05253995635152563,0.06919104114025844]",100.0,"[-0.01569946256809099,-0.15006310445664298]",4.0,"[0.09723893648259914,0.1004811627391861]",100.0,"[0.025590031708807845,0.17791731434981728]",4.0,"[-0.1232693985574187,0.06245496355189284]",4.0,"[-0.18873408260459745,-0.025539154195744363]",4.0,"[0.16430471081858225,0.10490107900973207]",4.0,"[0.0304422369870153,-0.039408614365574565]",100.0,"[0.02743266875765045,-0.14177943294115689]",4.0,"[-0.06567838108182769,0.020692348296201504]",100.0,"[-0.08251156426507086,0.1178116900343851]",100.0,"[0.017876983178958146,-0.18706616236465612]",4.0,"[0.15781089486403568,-0.10448056016770452]",4.0,"[0.04117825416658737,0.08696380694780873]",100.0,"[-0.0639313919451714,-0.08108214306323833]",100.0,"[0.18064229608011442,0.0582209944222558]",100.0,"[0.13349603853640987,0.016285617721380284]",100.0,"[0.11850219515885316,-0.07043928150219268]",100.0,"[-0.15536628704505867,0.013084892933423253]",4.0,"[-0.16208570730985367,-0.1161542723144579]",4.0,"[-0.17991629059444783,0.046683326993505816]",100.0,"[0.07624305934264516,-0.05859634452489733]",100.0,"[0.09257375050892676,0.17312989441410187]",4.0,"[-0.12181177224948976,0.14063586775696796]",100.0,"[-0.16889829799506315,-0.06939030553980878]",4.0,"[0.10724719670153146,-0.11132752862217228]",100.0,"[0.02,0.02]",226.3607,0.0,12.0,12.0,72.0,1.0,,,,,,,
,,,,,,,63d13c076dd249ca3a6bffbb,6842bbe0184dac4344fb6e1a,2025-06-06_10h59.20.905,shape_ratio,2024.1.5,Win32,29.93205424,6842b561977af9ba9b0f87ca,,,,,,,,,,,226.3614,226.873,,,227.1062,227.7615,right,0.6334,,,,,,,,,0.45,,,,,,226.873,227.1061,227.7616,"[0.10437809366400955,0.16923465528633289]",4.0,"[0.040540009749203895,0.024012668813414934]",100.0,"[0.05613952360639885,-0.15413979753404558]",4.0,"[-0.052002808210773244,-0.15187989068523694]",4.0,"[-0.0014414065605568049,-0.18400169228318583]",100.0,"[-0.09854857230404332,0.16997774297223123]",4.0,"[-0.035287308886908474,0.1500194794894919]",100.0,"[-0.18057907739238147,-0.041071264584210364]",4.0,"[0.11613905365940236,-0.11797286143305229]",100.0,"[0.03773567380601032,-0.03653074167137465]",100.0,"[0.06341555236658807,0.08746523998878718]",100.0,"[0.1649711604910639,0.04665870127445711]",4.0,"[-0.0032461664843462497,-0.10340308391254213]",100.0,"[0.0825510117064105,-0.06410066194437428]",4.0,"[0.02739765827380183,0.11208634275918801]",4.0,"[-0.10234301829180578,-0.05710593221027442]",4.0,"[-0.05813306265773418,0.06794156928950817]",100.0,"[0.03567786489281014,0.19101128177201807]",4.0,"[-0.17025221464691784,-0.08886573401880196]",4.0,"[0.004449140066029087,0.05421746439116139]",100.0,"[0.1568444549450447,-0.04287316368259393]",4.0,"[0.1038463475434045,0.03172758415300033]",100.0,"[-0.0965635286734404,-0.1583056143801825]",4.0,"[-0.19610480230616095,-0.0019077437070249502]",4.0,"[-0.18494308754321861,0.041240322135829226]",100.0,"[-0.09240916386359588,0.03186057071061664]",100.0,"[-0.11439629528878181,0.1051388682217466]",4.0,"[0.10164749910081186,-0.15663623832271073]",4.0,"[-0.03529819756458096,-0.028544939259517982]",100.0,"[0.06349015048510538,0.1610457869222489]",100.0,"[0.004389320635752699,0.006806143410967271]",4.0,"[0.003947292972478102,0.1650720821529753]",4.0,"[0.02,0.02]",228.8646,0.0,13.0,13.0,147.0,1.0,,,,,,,
,,,,,,,63d13c076dd249ca3a6bffbb,6842bbe0184dac4344fb6e1a,2025-06-06_10h59.20.905,shape_ratio,2024.1.5,Win32,29.93205424,6842b561977af9ba9b0f87ca,,,,,,,,,,,228.865,229.3769,,,229.619,230.1868,right,0.5431,,,,,,,,,0.9,,,,,,229.3769,229.6188,230.187,"[0.08701739706381902,-0.1407338150014348]",100.0,"[-0.08143565554232057,0.14520792576383112]",100.0,"[0.17077508882339518,0.034930208492725406]",100.0,"[0.15329593267473968,0.12629862246280923]",100.0,"[-0.1432542574904597,-0.04175942463204315]",100.0,"[0.12635436779918433,-0.02146681866297281]",100.0,"[0.0012463897412960505,0.11758416739032049]",100.0,"[-0.1540905862762491,-0.10227820147956937]",100.0,"[0.032624922600624766,0.029481117675730865]",4.0,"[0.008488594094821255,0.1666593155376984]",100.0,"[-0.054525939916944925,0.09368734416997451]",100.0,"[-0.10231452584998131,0.08892216170281661]",100.0,"[0.10850708669748445,0.1523422130493091]",100.0,"[-0.03875621770203515,-0.06292455387314749]",100.0,"[0.09522341540966735,-0.07917508934992615]",100.0,"[0.0687039595429256,0.13137840984167426]",100.0,"[-0.015804233612563615,0.01575753683402182]",100.0,"[0.1124786143940218,0.0775799106523725]",100.0,"[-0.06087179510872585,0.04755161175993214]",100.0,"[-0.0223669821457645,0.19487721255992044]",100.0,"[-0.1602221252821153,0.03394739250250528]",100.0,"[-0.07926106744352647,-0.04641114129795]",4.0,"[-0.0803239655043268,-0.10612941259371629]",100.0,"[-0.036643656350695906,-0.12413157685864432]",100.0,"[0.012831618867008046,-0.1807656288486973]",100.0,"[-0.081163665441983,-0.14816924399377718]",100.0,"[0.016501584193727686,0.07069204333000112]",100.0,"[0.05529567935040726,-0.08194195689876474]",100.0,"[0.026829945864344097,-0.0430215884098711]",100.0,"[0.1955922251920146,-0.020229311022940875]",100.0,"[0.15449208756562344,-0.08486817376644458]",4.0,"[0.08194677459014087,-0.04028069310256542]",100.0,"[0.02,0.02]",231.2879,0.0,14.0,14.0,19.0,1.0,,,,,,,
,,,,,,,63d13c076dd249ca3a6bffbb,6842bbe0184dac4344fb6e1a,2025-06-06_10h59.20.905,shape_ratio,2024.1.5,Win32,29.93205424,6842b561977af9ba9b0f87ca,,,,,,,,,,,231.2882,231.7823,,,232.0106,232.6427,right,0.6033,,,,,,,,,0.6,,,,,,231.7823,232.0105,232.6428,"[0.160252737742545,-0.07677567442522744]",4.0,"[-0.05026580899792968,0.10741395690908537]",4.0,"[0.14281146790752958,0.037391238142450475]",100.0,"[-0.07858492467968739,-0.07076528504987549]",100.0,"[0.07024396173211797,0.08437033413334782]",100.0,"[-0.14738955411023227,-0.08670276941912572]",100.0,"[-0.14369928264237689,0.1052395346525362]",100.0,"[0.032588697900124634,-0.05609938499711696]",4.0,"[0.011069753893701349,0.030342222786178562]",100.0,"[-0.016477132420704584,-0.188121655322163]",4.0,"[-0.07640783589505754,0.15663243206424024]",4.0,"[-0.050152166808632506,-0.02873725920835296]",100.0,"[-0.1158238472046439,-0.004900800418522896]",100.0,"[0.06162758599473882,0.13718723750798162]",4.0,"[0.11603373522127222,-0.10217910987337298]",100.0,"[-0.07189320228453418,-0.13295260317956004]",100.0,"[0.056011183334830454,-0.12246369691632288]",100.0,"[0.1356314013100127,0.11672140686292957]",100.0,"[-0.16657607520063084,-0.0017259676419333723]",4.0,"[-0.011659158243261284,-0.11011270858756624]",100.0,"[0.10515493098955864,0.1603236535640013]",100.0,"[0.027042145773143754,0.10010364626375888]",100.0,"[-0.07230897078933525,0.010431368853750593]",4.0,"[0.07781254100682164,-0.07699245430318402]",4.0,"[-0.0310632431870244,0.15357027882641547]",4.0,"[0.1168282589671472,0.00665562585456147]",100.0,"[0.19348038506640672,-0.010180736552147455]",100.0,"[-0.13211958722826503,-0.14043881102630942]",4.0,"[-0.012182121024791881,0.08615144370419944]",4.0,"[0.05910480935485607,0.031417234654638325]",100.0,"[0.03746737743221787,0.17366645081000537]",4.0,"[-0.08660913178830643,0.051996808771223584]",100.0,"[0.02,0.02]",233.7405,0.0,15.0,15.0,57.0,1.0,,,,,,,
,,,,,,,63d13c076dd249ca3a6bffbb,6842bbe0184dac4344fb6e1a,2025-06-06_10h59.20.905,shape_ratio,2024.1.5,Win32,29.93205424,6842b561977af9ba9b0f87ca,,,,,,,,,,,233.741,234.2339,,,234.4819,235.0282,right,0.5234,,,,,,,,,0.55,,,,,,234.2339,234.4819,235.0283,"[0.08685384973272824,0.05599262170191838]",4.0,"[-0.15013341993017718,-0.008082190443133066]",4.0,"[-0.07758264951560694,0.04646011903058923]",4.0,"[-0.09680160938474297,0.1499484209642688]",100.0,"[0.004554831002747457,-0.13656995363977262]",4.0,"[0.04957857715668734,-0.1627137274439867]",4.0,"[0.0682421775225954,-0.10493583602720509]",100.0,"[0.014778158662434088,-0.06724468340858619]",4.0,"[0.11178134703246223,0.14125243947973812]",4.0,"[-0.03933801101771703,-0.09192587028866767]",100.0,"[0.17402778139240427,0.013144259159097497]",100.0,"[0.05470237672774329,-0.043118391113040326]",100.0,"[0.10547381923896049,-0.168362133263295]",100.0,"[-0.11133939973700402,-0.02034370450004678]",4.0,"[0.17137565709734792,0.07607551485678819]",100.0,"[0.18994115452160684,-0.027872021305743316]",100.0,"[0.012224915583194147,0.16513300982204018]",100.0,"[-0.09751135859830366,0.0883057600392198]",4.0,"[-0.04942799535087025,0.0066349296695457916]",100.0,"[0.0014032247282752533,0.04774153922372254]",4.0,"[-0.028364351674597048,0.1662115686543334]",4.0,"[-0.1489027163495669,-0.10955992791959747]",4.0,"[-0.09464437655767757,-0.09099170174064226]",4.0,"[0.12979673031018088,0.051882369662930986]",100.0,"[-0.041828543144186145,0.1126420582648059]",100.0,"[0.10779695032071551,0.017345513203866673]",4.0,"[0.16190506699738633,-0.06608948248994198]",100.0,"[-0.10859389114367794,-0.1317729408665819]",100.0,"[0.06809373826311735,0.1349998377851374]",100.0,"[-0.1793860825207876,-0.07963292177522066]",100.0,"[-0.040236431424348996,-0.16247938709989027]",100.0,"[-0.03483550260861786,-0.03798838876092373]",100.0,"[0.02,0.02]",236.132,0.0,16.0,16.0,77.0,1.0,,,,,,,
,,,,,,,63d13c076dd249ca3a6bffbb,6842bbe0184dac4344fb6e1a,2025-06-06_10h59.20.905,shape_ratio,2024.1.5,Win32,29.93205424,6842b561977af9ba9b0f87ca,,,,,,,,,,,236.1325,236.6202,,,236.8636,237.2903,right,0.4039,,,,,,,,,0.9,,,,,,236.6202,236.8636,237.2903,"[-0.11467943627331532,-0.07569424436917149]",4.0,"[-0.0662953071549122,-0.14929339171439512]",100.0,"[-0.10173740216500189,0.11232474109425614]",100.0,"[0.07904238505471493,0.14450086146627758]",100.0,"[0.1340483679627223,-0.09427233082514369]",4.0,"[-0.0046842730375542315,0.1859263429356147]",100.0,"[-0.17312012803336216,0.01756593473533914]",100.0,"[-0.029902623015049073,-0.018813996916726316]",100.0,"[0.11091651599459963,0.03079696934991836]",100.0,"[0.046217693728343986,-0.18298815636165683]",100.0,"[-0.1418409393174425,0.05891030463228786]",100.0,"[-0.1438666699956538,-0.04609984293221131]",100.0,"[-0.08614448342863137,-0.0036916332659299674]",100.0,"[0.06155196962156692,0.06759467550967248]",100.0,"[0.006825951212733379,-0.11736601215360105]",100.0,"[-0.1446270105166101,0.10440104716389774]",4.0,"[0.022563426728612865,0.12312687390178811]",100.0,"[0.056311624039118616,-0.12047115595039416]",100.0,"[-0.060031945818648846,0.1037160662557425]",100.0,"[0.053216261234348,-0.024016177234433087]",100.0,"[0.13080160813457653,-0.05194298590467547]",100.0,"[0.17791426929899046,0.004800428219644765]",100.0,"[0.12507891870447016,-0.13505095813965112]",100.0,"[0.002351558980163264,-0.06879362658718564]",100.0,"[0.003409440969950932,-0.1593693107750353]",100.0,"[-0.053853183943562144,0.031113627749136456]",100.0,"[-0.08284491730550067,0.15323090404002335]",100.0,"[-0.03313421238966358,-0.18170342137917828]",100.0,"[0.17976806442520368,0.08025394760125897]",100.0,"[0.17720646696147743,-0.0825325980861457]",100.0,"[0.02195122565109244,0.038666768294368395]",100.0,"[0.12049489739115767,0.13358708196832153]",100.0,"[0.02,0.02]",238.3664,0.0,17.0,17.0,10.0,1.0,,,,,,,
,,,,,,,63d13c076dd249ca3a6bffbb,6842bbe0184dac4344fb6e1a,2025-06-06_10h59.20.905,shape_ratio,2024.1.5,Win32,29.93205424,6842b561977af9ba9b0f87ca,,,,,,,,,,,238.3668,238.8576,,,239.1059,239.7921,right,0.6564,,,,,,,,,0.4,,,,,,238.8577,239.1058,239.7922,"[0.03786574213084164,0.04352064215377052]",4.0,"[0.08463705859845493,-0.13605701091992586]",4.0,"[-0.13805105248739158,0.09911885390600703]",4.0,"[0.016384466748271036,-0.11210045001691114]",4.0,"[-0.024723526670290333,0.0425841495697535]",4.0,"[-0.0450907478740592,-0.0954626507932981]",4.0,"[-0.08061805075573863,-0.12872365181008982]",100.0,"[0.15491265355807451,0.05257408758151145]",100.0,"[-0.1111348736912484,0.05994969746236153]",100.0,"[0.01069423304446286,0.0018917927830107365]",100.0,"[-0.039672325779366885,0.12466039376482697]",4.0,"[-0.12957014867203984,-0.11831922970619281]",4.0,"[0.00043833793247461165,0.12469345463133347]",100.0,"[0.07449387111176874,0.1070371953235706]",4.0,"[0.16780201327498254,-0.04347559938949558]",4.0,"[-0.079490249640645,0.1791098904311977]",4.0,"[-0.143376478378871,-0.0190669488290775]",100.0,"[-0.0884653269589213,-0.17735168043634836]",4.0,"[0.13759966974021406,-0.1129975410525053]",4.0,"[0.05258692468725032,0.0026520561859437386]",100.0,"[0.12075798307692891,0.13006870261510775]",100.0,"[0.10766276239331539,0.033708497840286504]",4.0,"[0.16113716276077247,-0.0017752496277778302]",4.0,"[0.12727333879460104,-0.039217385985434394]",100.0,"[-0.0851045523215441,-0.039805601377206574]",4.0,"[-0.11097627048083324,0.008497931564793067]",4.0,"[-0.023615679214522237,0.1639025590723211]",100.0,"[-0.07909163191120548,0.1097032998722752]",100.0,"[-0.191701937070117,0.030069802918043724]",4.0,"[-0.02490975131196618,-0.04828807746392605]",100.0,"[0.19907501109186698,-0.017748706569682533]",100.0,"[0.06352928538379356,0.15067495400908285]",4.0,"[0.02,0.02]",240.8801,0.0,18.0,18.0,169.0,1.0,,,,,,,
,,,,,,,63d13c076dd249ca3a6bffbb,6842bbe0184dac4344fb6e1a,2025-06-06_10h59.20.905,shape_ratio,2024.1.5,Win32,29.93205424,6842b561977af9ba9b0f87ca,,,,,,,,,,,240.8808,241.3709,,,241.6249,242.1019,right,0.4518,,,,,,,,,0.4,,,,,,241.3709,241.6249,242.1021,"[0.1539623713719942,0.06239701621950406]",4.0,"[-0.0038383983640593615,-0.05042410691389662]",4.0,"[-0.17862888097362142,-0.05660671211133885]",4.0,"[0.029153441743078747,-0.1712154407848479]",4.0,"[0.08891948446574215,-0.14772676034075147]",4.0,"[-0.08206773586817599,0.1434869337170233]",4.0,"[0.005785789593949548,0.12132916323763063]",100.0,"[0.13051906409545067,0.1150051469288627]",4.0,"[-0.06041547486051009,0.013319586758075033]",4.0,"[-0.10240634727996042,-0.030341604858268582]",4.0,"[0.08792707236376206,0.0037816275993888537]",100.0,"[0.0653543508111722,-0.07245856061640263]",100.0,"[-0.12670700759298154,-0.095584987850738]",4.0,"[0.07129467139216243,0.1809736456127739]",100.0,"[0.15701539961360886,-0.11119574224046896]",4.0,"[-0.18330297258378722,0.02804803799531787]",4.0,"[0.004388842148180703,-0.09331173627244413]",100.0,"[-0.09434902318122411,0.04862159174983659]",100.0,"[-0.0442698230558043,-0.06394157283538221]",100.0,"[-0.08644558412786887,-0.11425528577529416]",100.0,"[0.029074827774741175,0.19391006492942905]",4.0,"[0.021207606845190716,-0.013706841615369017]",4.0,"[-0.15125352942973913,-0.022153675210590716]",4.0,"[0.1570253861159589,-0.05781323603449345]",4.0,"[0.05723257954473842,0.04858886538813583]",4.0,"[-0.04217051320826305,0.13000395193107553]",100.0,"[-0.014141016802933282,0.040201836312240856]",100.0,"[-0.07758972365137581,-0.16862004216917623]",100.0,"[0.15286535159895787,0.009782955892214635]",4.0,"[0.08333177016348572,0.08246691920362041]",100.0,"[-0.1385211960138411,0.14106782332772386]",100.0,"[0.11578047937202912,0.04433550161113341]",4.0,"[0.02,0.02]",243.1777,0.0,19.0,19.0,157.0,1.0,,,,,,,
,,,,,,,63d13c076dd249ca3a6bffbb,6842bbe0184dac4344fb6e1a,2025-06-06_10h59.20.905,shape_ratio,2024.1.5,Win32,29.93205424,6842b561977af9ba9b0f87ca,,,,,,,,,,,243.1782,243.6911,,,243.9406,244.3842,left,0.4208,,,,,,,,,0.4,,,,,,243.6911,243.9405,244.3842,"[-0.164596545444907,-0.03896907372076462]",100.0,"[-0.03866825445853842,0.18467072630616752]",100.0,"[0.04896769470819591,0.09813003795819791]",4.0,"[-0.04750420821071173,0.09988652053893407]",4.0,"[0.09826516546108353,0.149836417358545]",100.0,"[0.004917247539049508,-0.14160207812980502]",4.0,"[-0.03010857288474547,-0.02704760630157731]",4.0,"[-0.19425282886739406,0.000184917145242526]",100.0,"[-0.10996099606966561,-0.15266673307883827]",4.0,"[0.1595502293633455,0.08749446843209378]",100.0,"[0.14912740900164373,-0.006541769814396684]",4.0,"[-0.09402793818179547,0.07101479061778457]",100.0,"[-0.1854667827487971,0.05658916521621769]",4.0,"[0.10531285558412339,-0.13750557299566388]",100.0,"[-0.10585790089283932,0.018817280358848495]",4.0,"[0.10782000848300816,0.027514979724761107]",4.0,"[-0.13641069261570982,-0.0859744524298182]",4.0,"[0.1557868075526826,-0.07529627281700876]",100.0,"[-0.07369718625533864,0.13179707025982923]",100.0,"[-0.03660971328483318,0.04111726002244497]",4.0,"[0.11440667916336691,-0.052445239261475846]",4.0,"[0.05855316706670689,-0.10164010855060589]",4.0,"[-0.04731743320577649,-0.18589351376329988]",100.0,"[0.060598403510260204,-0.03479661730220499]",4.0,"[0.04451713698856999,0.03708009461522807]",4.0,"[0.08973537973413817,0.08024377430975527]",4.0,"[-0.15253816252196606,-0.12732226680940958]",4.0,"[0.03451638871817244,-0.06840527712596334]",4.0,"[0.016347471091263135,0.13404110795651528]",100.0,"[-0.11592176443378716,-0.02905573021578207]",100.0,"[0.009760063287718756,0.18037602933483293]",100.0,"[-0.028871821105577747,-0.08187661427216379]",4.0,"[0.02,0.02]",245.4727,0.0,20.0,20.0,174.0,1.0,,,,,,,
,,,,,,,63d13c076dd249ca3a6bffbb,6842bbe0184dac4344fb6e1a,2025-06-06_10h59.20.905,shape_ratio,2024.1.5,Win32,29.93205424,6842b561977af9ba9b0f87ca,,,,,,,,,,,245.4732,245.9525,,,246.217,246.6929,right,0.4467,,,,,,,,,0.45,,,,,,245.9525,246.2169,246.693,"[-0.1743947161060759,-0.05245115120281907]",100.0,"[-0.09869057818146151,0.12320527670142511]",4.0,"[0.016626145417866344,0.08498811457711115]",100.0,"[0.03986306031310512,-0.11759628556769407]",100.0,"[0.06417991673334378,-0.07315856961816739]",4.0,"[0.12136067577767395,-0.022581547363648438]",100.0,"[0.07325357136298195,0.1848277139086107]",100.0,"[-0.12642222125618205,0.03171956933452255]",4.0,"[-0.01133977345107233,0.020555159509410628]",4.0,"[0.02664830858667278,-0.15928273835851878]",4.0,"[-0.046795894634861473,-0.08993214187982397]",4.0,"[0.08088370978223601,0.1077741065662981]",4.0,"[-0.023518583606661474,0.14695225404598528]",4.0,"[-0.04488193299774996,-0.043697546998186856]",100.0,"[-0.04471031805253949,-0.13818525493058503]",100.0,"[-0.13066294954790802,-0.04066866465603805]",4.0,"[-0.07996558245970384,0.011891159145909928]",4.0,"[-0.1584571330435073,0.1122661655963712]",100.0,"[0.0978828817418295,0.021848372499073312]",4.0,"[0.06702590041803796,-0.01926421302764621]",4.0,"[-0.03194503738812523,0.09717683820084233]",100.0,"[-0.1434318005085681,-0.11997170693304535]",4.0,"[0.017697035912239936,0.13315634816021552]",100.0,"[-0.08174351797150814,-0.11610069872067313]",100.0,"[0.014613052698268965,-0.03184708151158098]",4.0,"[-0.19617742295349086,0.03245383245388328]",4.0,"[0.153508681026368,-0.05255917432472267]",100.0,"[-0.05947710084135683,-0.19014103066289784]",100.0,"[-0.10238926903253973,0.16357222461478776]",4.0,"[-0.007412710742033952,-0.12234592507612221]",100.0,"[0.1371922759095051,0.09974092378347481]",4.0,"[0.18204664027779463,0.03359347411429644]",4.0,"[0.02,0.02]",247.7738,0.0,21.0,21.0,145.0,1.0,,,,,,,
,,,,,,,63d13c076dd249ca3a6bffbb,6842bbe0184dac4344fb6e1a,2025-06-06_10h59.20.905,shape_ratio,2024.1.5,Win32,29.93205424,6842b561977af9ba9b0f87ca,,,,,,,,,,,247.7743,248.2733,,,248.5264,249.0772,right,0.5248,,,,,,,,,0.4,,,,,,248.2733,248.5264,249.0773,"[-0.034016209603829284,-0.006083818811757373]",100.0,"[0.16961416168068186,-0.027815831963868602]",4.0,"[-0.09697250064687525,0.16443175414229225]",100.0,"[0.13550701591486664,-0.09184869726349255]",4.0,"[0.02071263608528976,0.12240188510128779]",4.0,"[-0.13027917093440278,0.03740279280277278]",100.0,"[0.00628139730794653,0.04148162954992293]",4.0,"[0.061625853199414174,-0.11589022649898426]",100.0,"[-0.1568261833425757,-0.015026019759222095]",4.0,"[-0.1278852359367039,0.07824153063389609]",4.0,"[-0.11579699261009996,-0.020808170458734447]",100.0,"[-0.02025488470301372,0.15827584798670924]",4.0,"[0.09779294006609257,0.16782368408005766]",100.0,"[-0.0802805313857691,-0.145482012635174]",100.0,"[-0.13279546994948,-0.12617261972285682]",4.0,"[-0.026642480019481194,0.1176948991571137]",4.0,"[0.055598312615947935,0.012101848391773024]",4.0,"[0.04665346701409682,-0.15500334805072016]",4.0,"[-0.047646932003853684,-0.06166446355631492]",100.0,"[-0.025821064705242716,-0.16630473708211027]",4.0,"[-0.06182755152714125,0.03403635397057615]",4.0,"[-0.16512103488304858,-0.08879960595435465]",4.0,"[-0.07106304503182835,0.11317794121938798]",4.0,"[0.055559401093246724,0.1003462537845262]",100.0,"[0.1310108723060802,-0.012245878328622466]",100.0,"[-0.1614981082464079,0.10030377681506009]",4.0,"[0.04935679383912544,0.18152498959023383]",4.0,"[0.1756867505770545,0.06816862981311912]",100.0,"[0.0929952267489907,-0.058566081631875495]",100.0,"[-0.014031914745602532,-0.099050911216651]",4.0,"[0.09185108910601898,-0.1602652532038643]",100.0,"[0.13944942945857128,0.14073161046090998]",4.0,"[0.02,0.02]",250.1577,0.0,22.0,22.0,168.0,1.0,,,,,,,
,,,,,,,63d13c076dd249ca3a6bffbb,6842bbe0184dac4344fb6e1a,2025-06-06_10h59.20.905,shape_ratio,2024.1.5,Win32,29.93205424,6842b561977af9ba9b0f87ca,,,,,,,,,,,250.1581,250.6354,,,250.8861,251.6709,left,0.762,,,,,,,,,0.6,,,,,,250.6354,250.886,251.6711,"[0.0038442699899431773,-0.14915833163148612]",100.0,"[0.0846102195841461,-0.09948742730829731]",4.0,"[-0.09240742811491488,-0.14899069283321964]",100.0,"[0.1022859372218276,0.15720271951418593]",4.0,"[-0.05727428888154467,-0.09904078515844808]",100.0,"[-0.12329930039174918,-0.08781674099028908]",4.0,"[0.16718538588009468,0.06763850190843256]",100.0,"[0.1302146216165464,-0.12389690194480044]",100.0,"[0.16578649746064644,-0.018600403126995582]",4.0,"[-0.06670610225811102,-0.18792550617976536]",4.0,"[-0.04206569915351815,-0.02898881663209355]",4.0,"[0.0009534007997392334,0.15483469180655207]",100.0,"[-0.043111272632302494,0.11078993536283793]",100.0,"[-0.10542751174089705,0.042234672607490316]",100.0,"[0.055552733717421025,0.1904578526089974]",4.0,"[0.05635970669790338,0.06082460006069674]",4.0,"[-0.11791867631148009,0.09067175361854903]",100.0,"[0.08679810379095926,-0.04564377329069259]",4.0,"[0.004337803681517133,-0.07292715148308401]",100.0,"[-0.1253065211302842,-0.014293433079247382]",4.0,"[0.018717324376510358,0.09882350428198994]",100.0,"[0.10376462435606773,0.10801705544392227]",100.0,"[0.0970768799544311,0.022137959513371455]",100.0,"[-0.0854073125227175,-0.03483405372276921]",100.0,"[0.05726459428153678,-0.12983471993065893]",100.0,"[0.17586852599430508,-0.08368122732695275]",4.0,"[-0.059805493449684735,0.06302077488958469]",4.0,"[-0.06591370641187122,0.00542291222912565]",100.0,"[-0.10615638456482435,0.15777396886465478]",100.0,"[0.1225774008177319,-0.01524702280031466]",4.0,"[0.17950550681098934,0.020066342090111162]",100.0,"[0.01844777267736707,0.034230652055308126]",100.0,"[0.02,0.02]",252.7751,0.0,23.0,23.0,42.0,1.0,,,,,,,
,,,,,,,63d13c076dd249ca3a6bffbb,6842bbe0184dac4344fb6e1a,2025-06-06_10h59.20.905,shape_ratio,2024.1.5,Win32,29.93205424,6842b561977af9ba9b0f87ca,,,,,,,,,,,252.7914,253.2709,,,253.5229,254.1277,right,0.5808,,,,,,,,,0.55,,,,,,253.2709,253.5229,254.1278,"[-0.08692916933774486,-0.09573706568755774]",4.0,"[-0.04222782074601297,-0.021584346891636123]",100.0,"[0.1507817860606206,-0.11642158062898957]",100.0,"[-0.17573181504997296,0.03054736862184081]",100.0,"[-0.1279345363841071,-0.08768538813629596]",4.0,"[0.019845950402039514,0.14471881535901898]",4.0,"[0.06344938943062947,0.020331855696559313]",4.0,"[0.042368242681956665,-0.18645829977858935]",100.0,"[0.09095856475431957,-0.14195801643272238]",100.0,"[-0.09652861403776183,-0.04465488710591633]",100.0,"[-0.027521119031508952,-0.17134086523545286]",4.0,"[-0.16230456936011065,0.08261539019156562]",4.0,"[0.14605108683624105,-0.05643880714944537]",100.0,"[0.1301857714098169,-0.011513610717888477]",100.0,"[0.16291741996429399,0.08559745713283386]",100.0,"[-0.013726682824228086,-0.061319529996618924]",100.0,"[-0.04411337844087404,0.15855916123208644]",4.0,"[-0.008586874150891901,0.19582096718063494]",4.0,"[-0.0015493127259862114,-0.13278870089444056]",4.0,"[0.10795872405044284,0.1351566332978179]",100.0,"[0.18448157089569625,0.020628773094552973]",100.0,"[0.04328182231468406,0.06761886419463971]",4.0,"[0.09497580505357188,-0.040196959020852484]",100.0,"[-0.04400197225176517,-0.1266232935614722]",100.0,"[-0.14120769273280748,-0.011594803643534405]",100.0,"[-0.008457633446134226,0.04131006518555005]",100.0,"[-0.1677273101012604,-0.04966092738670284]",4.0,"[-0.0928240827974315,0.06886716648050718]",100.0,"[-0.07854892794502714,0.13660518887582884]",4.0,"[-0.10391223298274509,-0.16833609846658365]",100.0,"[0.04839078277109258,-0.13614937139531907]",4.0,"[0.11880952447220838,0.030721595914493527]",4.0,"[0.02,0.02]",255.204,0.0,24.0,24.0,67.0,1.0,,,,,,,
,,,,,,,63d13c076dd249ca3a6bffbb,6842bbe0184dac4344fb6e1a,2025-06-06_10h59.20.905,shape_ratio,2024.1.5,Win32,29.93205424,6842b561977af9ba9b0f87ca,,,,,,,,,,,255.2043,255.7046,,,255.9372,256.8919,right,0.9261,,,,,,,,,0.1,,,,,,255.7046,255.9372,256.892,"[-0.006221033984997247,-0.1833119248485506]",4.0,"[0.03584461242014749,-0.010992010399631276]",100.0,"[0.07323938835916223,-0.11452629255785138]",4.0,"[-0.02161457996034957,0.13465915141085352]",4.0,"[0.1617358646155497,-0.10932401980356878]",4.0,"[-0.07885596224263051,0.06329421337573579]",4.0,"[0.18525894990144648,-0.0041692485967916885]",100.0,"[-0.0012380041673163346,-0.061568093989540475]",4.0,"[-0.06277254993306668,-0.015669709806847495]",4.0,"[-0.06691307712980181,0.11284192499096159]",4.0,"[0.11100886621004011,0.08668169093151722]",4.0,"[0.12851634425306768,-0.01912159109632578]",4.0,"[0.09143550891509265,0.027395734130157688]",4.0,"[0.07633684273143952,0.17818729863018168]",4.0,"[-0.02217297250481435,-0.022171767197549486]",4.0,"[-0.19884999392284247,-0.01689122221015703]",4.0,"[-0.1565941394730239,-0.09797434263725106]",4.0,"[-0.13631894952257095,-0.14233972706232542]",100.0,"[-0.10768704992228019,-0.10193116074676661]",4.0,"[-0.12011937852484576,0.13471769718961799]",4.0,"[-0.1738178464682946,0.04879611928228183]",4.0,"[0.138934559990567,0.12369322877909714]",4.0,"[-0.11710717243710744,-0.046729385712086194]",4.0,"[0.02427991981087466,-0.09835966192888268]",4.0,"[-0.015464617047172214,0.07426824797465419]",4.0,"[-0.1791166593407683,-0.060203653622673374]",4.0,"[0.029329529692493136,0.08293743742724279]",4.0,"[-0.15754486030292025,0.0056459441455569085]",4.0,"[0.07494105058277017,0.1065399748099005]",4.0,"[0.05554086119349101,-0.057457762849888405]",4.0,"[0.11133735548088695,-0.13545115796996224]",4.0,"[-0.04389217802403569,-0.16633203583988815]",4.0,"[0.02,0.02]",257.9692,0.0,25.0,25.0,188.0,1.0,,,,,,,
,,,,,,,63d13c076dd249ca3a6bffbb,6842bbe0184dac4344fb6e1a,2025-06-06_10h59.20.905,shape_ratio,2024.1.5,Win32,29.93205424,6842b561977af9ba9b0f87ca,,,,,,,,,,,257.9695,258.4662,,,258.6938,259.1084,right,0.3868,,,,,,,,,0.6,,,,,,258.4662,258.6937,259.1086,"[-0.008708680519644478,0.16492118048864488]",100.0,"[-0.11133381201138,0.13610183784460098]",4.0,"[0.029609928031736746,0.059430033044718125]",4.0,"[-0.17832326242959018,-0.001953543758287635]",4.0,"[0.122329081038091,0.09216657173932505]",100.0,"[0.1502386349792131,-0.11552434830555341]",100.0,"[-0.0009518954441860752,-0.12680447662426478]",4.0,"[0.17937380016861557,0.04682206279188498]",4.0,"[-0.06661485790683007,-0.052054195647417006]",4.0,"[0.16964252832233384,-0.04231656384549176]",4.0,"[0.04072539856940885,-0.1193166458654389]",100.0,"[-0.017080992612628874,-0.18138582382670107]",100.0,"[-0.03269304582715006,0.0755140573669831]",4.0,"[0.0583237796059705,-0.02330988343125824]",100.0,"[-0.05056388634722226,0.03562717766012443]",100.0,"[-0.12417786983521253,-0.038482266099233824]",100.0,"[0.05942057209074941,0.1074003486642003]",100.0,"[-0.038062719895239246,-0.10051138264257332]",100.0,"[-0.15705426934406982,-0.10312538953327317]",4.0,"[-0.09065210998808089,0.03671654043026749]",4.0,"[-0.14349437999675585,0.021638575671688084]",100.0,"[-0.03157203391214417,0.12026597954002015]",100.0,"[0.07709995267602691,0.1787467883404701]",100.0,"[0.09262544488793216,-0.09232083701361149]",4.0,"[0.10120424700158999,-0.15497914949985697]",4.0,"[0.008377531319342532,0.095770707417994]",100.0,"[-0.0680590032879595,-0.16208980361448294]",100.0,"[0.05350676790048049,-0.1574283960590411]",100.0,"[0.11595803160176286,0.14555386004826656]",100.0,"[-0.004291277910624094,-0.008207786043608223]",100.0,"[-0.10436424481531925,-0.08476851876668394]",100.0,"[0.08835844680168813,0.00313204615803532]",4.0,"[0.02,0.02]",260.195,0.0,26.0,26.0,36.0,1.0,,,,,,,
,,,,,,,63d13c076dd249ca3a6bffbb,6842bbe0184dac4344fb6e1a,2025-06-06_10h59.20.905,shape_ratio,2024.1.5,Win32,29.93205424,6842b561977af9ba9b0f87ca,,,,,,,,,,,260.1954,260.6726,,,260.9039,261.2765,right,0.3493,,,,,,,,,0.6,,,,,,260.6726,260.9039,261.2766,"[0.04184450598575973,-0.08170225244095788]",100.0,"[0.14747581876655988,0.038879637927243936]",100.0,"[-0.1307507090278499,0.11476749680546]",4.0,"[-0.03340081363630762,0.0954937970560341]",100.0,"[-0.06515317305602258,0.127645441126649]",100.0,"[-0.1364374940703083,0.07146392797396553]",100.0,"[0.13214089236971183,-0.1054313707284134]",4.0,"[-0.03456805615550797,-0.1370835133619102]",4.0,"[0.08324927993517044,-0.047970087171798494]",100.0,"[0.003980510195283808,-0.022654597139030216]",100.0,"[-0.0259783271712156,0.01901948342855025]",100.0,"[-0.11835631342163964,-0.05720397887380763]",4.0,"[0.1659489738110488,0.08450931888632307]",100.0,"[-0.07397130404901137,-0.16720289813050632]",100.0,"[-0.00024935864983134914,-0.16726405804712852]",4.0,"[-0.17235438437265024,0.033230607675237535]",100.0,"[0.049302374538175035,0.1749101899099665]",4.0,"[-0.10574662038560433,-0.11504281358160257]",100.0,"[0.04886043901240043,-0.14747789566653696]",100.0,"[0.08675184706220232,0.14959107486515646]",4.0,"[0.08177847955871177,0.053916960176135446]",100.0,"[0.024841458518719443,0.07432600048783358]",100.0,"[0.05239483023422171,0.10508915867224121]",4.0,"[0.09163288758494852,-0.1451272811042308]",100.0,"[0.03575646493429504,0.011595804762079191]",4.0,"[-0.0735206378361998,-0.050815040949608585]",4.0,"[0.19067415085184677,-0.04073371305256618]",4.0,"[-0.018103063004833705,-0.06799235512814474]",4.0,"[-0.15971575059277648,-0.1086146385291694]",4.0,"[-0.10217865349460979,0.001129653710035098]",100.0,"[-0.19108930823465378,-0.026867504121990314]",100.0,"[0.008373761511495803,0.14402596212017327]",100.0,"[0.02,0.02]",262.3562,0.0,27.0,27.0,33.0,1.0,,,,,,,
,,,,,,,63d13c076dd249ca3a6bffbb,6842bbe0184dac4344fb6e1a,2025-06-06_10h59.20.905,shape_ratio,2024.1.5,Win32,29.93205424,6842b561977af9ba9b0f87ca,,,,,,,,,,,262.3567,262.8727,,,263.1062,263.5157,right,0.3801,,,,,,,,,0.9,,,,,,262.8727,263.1061,263.5157,"[-0.006872936423603498,-0.0184425430730797]",100.0,"[-0.059957233214195285,-0.1429184175651977]",100.0,"[0.15158457027791994,-0.12802016822000095]",100.0,"[0.13319309783379238,0.05512847987862469]",100.0,"[0.06425343310507106,0.1874349334065825]",100.0,"[0.056400985260364474,0.14232773464396994]",100.0,"[0.02242713842847903,-0.1197860986441769]",100.0,"[0.1818643780196918,-0.010858093384656566]",100.0,"[-0.18290868346450295,0.012178675008126276]",100.0,"[-0.11181085759870014,-0.011026530012060706]",100.0,"[0.043252308315260404,0.09385769827965201]",100.0,"[-0.10127806972012399,0.033443697433675354]",100.0,"[0.06574907284514511,-0.07050015832549865]",100.0,"[0.08906041808160653,0.0019330149804014545]",100.0,"[-0.049743392100773685,-0.005164078950859398]",100.0,"[-0.0907377429418617,0.1691165320799306]",4.0,"[0.15009110502802878,0.11152798678423927]",100.0,"[-0.01536882863804927,0.14313410939397198]",100.0,"[-0.1571954616027277,0.06205541251001473]",100.0,"[0.02401406985730559,0.18712498652558573]",100.0,"[0.034433909739877935,0.007375726130739669]",100.0,"[-0.14169837925508547,0.1400329223710255]",100.0,"[0.17502087116992437,0.06622906375035387]",100.0,"[-0.0017029386587741465,-0.07282363149466692]",4.0,"[-0.1382877177981851,-0.07045381990566796]",100.0,"[-0.042190025649789506,0.17520429518071529]",100.0,"[-0.16739829931456945,-0.02827877252624292]",4.0,"[0.13250709148697007,-0.05692894814412136]",100.0,"[0.05830721013598036,-0.17154141527229153]",100.0,"[-0.0702678060542921,-0.051620277898067564]",100.0,"[0.015400377761423013,-0.16557259795228638]",100.0,"[0.09572548663515204,0.0784330229185154]",100.0,"[0.02,0.02]",264.6173,0.0,28.0,28.0,24.0,1.0,,,,,,,
,,,,,,,63d13c076dd249ca3a6bffbb,6842bbe0184dac4344fb6e1a,2025-06-06_10h59.20.905,shape_ratio,2024.1.5,Win32,29.93205424,6842b561977af9ba9b0f87ca,,,,,,,,,,,264.6177,265.1072,,,265.3737,265.7197,right,0.3173,,,,,,,,,0.9,,,,,,265.1072,265.3736,265.7198,"[0.09732169007578928,-0.1204237701604609]",100.0,"[-0.011063465575340575,0.07698553171782704]",100.0,"[0.18970376989364549,-0.04566197534826838]",100.0,"[-0.16764471545630136,0.054462093218429486]",100.0,"[0.1415693593628644,-0.08014438779941199]",100.0,"[-0.032812388574276506,0.02912570757437973]",100.0,"[0.012423616401088697,0.11147189292321269]",100.0,"[-0.11106656604378512,0.13221200745499334]",100.0,"[0.027332032614224358,-0.13205804396212675]",100.0,"[0.10550794081038957,-0.010026349531523218]",100.0,"[-0.010092133257746487,-0.0984531398921767]",100.0,"[-0.17377486720408594,-0.07168772875340639]",100.0,"[0.12479752701352867,0.08522466718615164]",4.0,"[-0.12900044379548126,0.03876241781296336]",100.0,"[0.012249835764229416,0.18164019558941377]",100.0,"[0.15967768027667661,0.03954636390445552]",100.0,"[-0.14783761011821814,0.11314924595875074]",4.0,"[-0.10902171905333267,-0.061472018090052115]",100.0,"[0.022241806838270747,0.05429943125465114]",100.0,"[0.15205974580493073,-0.026389889284053166]",100.0,"[0.17466954839667345,0.08508920850568281]",100.0,"[0.03844997011378118,-0.0676286330333736]",100.0,"[0.07649047931996601,0.09006495256495857]",100.0,"[0.012765204941449323,-0.012927564586554202]",4.0,"[0.07365207791696733,-0.17697767953975796]",100.0,"[0.08829936709655559,0.1556078734035831]",100.0,"[-0.18487690616768052,-0.002731548499169396]",100.0,"[-0.05115450060670729,-0.06776398305529194]",100.0,"[-0.043866181999562555,0.18222476208433838]",100.0,"[0.11198915413446237,-0.05142868652752999]",100.0,"[-0.05597504171907904,-0.01476069689460234]",100.0,"[-0.035029353606349775,-0.17654339208276368]",100.0,"[0.02,0.02]",266.8182,0.0,29.0,29.0,28.0,1.0,,,,,,,
,,,,,,,63d13c076dd249ca3a6bffbb,6842bbe0184dac4344fb6e1a,2025-06-06_10h59.20.905,shape_ratio,2024.1.5,Win32,29.93205424,6842b561977af9ba9b0f87ca,,,,,,,,,,,266.8188,267.3215,,,267.5648,267.9422,right,0.3484,,,,,,,,,0.9,,,,,,267.3215,267.5647,267.9422,"[0.16538753324540983,0.010383710690654543]",4.0,"[0.003773552770125699,0.04072016047913718]",100.0,"[0.06669907182671099,-0.11268277614515324]",100.0,"[-0.011814358457167357,-0.01738018949831219]",100.0,"[0.11336604745292156,0.06312761914536902]",4.0,"[-0.07494877107111192,-0.13184314070599665]",100.0,"[-0.09436949408002632,-0.007639265292597001]",100.0,"[0.1305962782328426,-0.11083519085072846]",100.0,"[-0.1878491289266523,0.00496250680808917]",100.0,"[0.0021508631176913435,-0.1806239972518313]",100.0,"[-0.16051179330903023,0.05781524971984737]",100.0,"[0.03775274586159245,0.010519943152195455]",100.0,"[-0.14568028658422744,-0.03539235160828305]",100.0,"[0.09116872114683532,-0.17393683546503222]",100.0,"[-0.06153646098167953,0.015267225550751107]",100.0,"[-0.11015035253399387,-0.06643512761098473]",100.0,"[0.09676999310828077,0.17358723782039595]",100.0,"[-0.002720186680896539,0.16461094182299071]",4.0,"[-0.020258407279885572,0.1160805490815184]",100.0,"[0.15759672913318218,0.07887621181463735]",100.0,"[0.0887097209912346,-0.030313724294841367]",100.0,"[0.06028719884419742,0.1537996856126479]",100.0,"[0.16901016101796462,-0.07471790255018759]",100.0,"[0.018854375538650707,-0.10802480162149866]",100.0,"[-0.1444087730622308,0.10305223531445165]",100.0,"[-0.019412374478997994,-0.07657352355958258]",100.0,"[0.025197516140694792,-0.051852491884220385]",100.0,"[-0.04981286783313064,0.16931435906090433]",100.0,"[0.10459189374351748,0.11635425802880646]",100.0,"[-0.16840980096280855,-0.09302814770609744]",100.0,"[-0.10370886869380078,0.062243245718959166]",100.0,"[0.11619431070240883,-0.0627218011207572]",100.0,"[0.02,0.02]",269.0349,0.0,30.0,30.0,6.0,1.0,,,,,,,
,,,,,,,63d13c076dd249ca3a6bffbb,6842bbe0184dac4344fb6e1a,2025-06-06_10h59.20.905,shape_ratio,2024.1.5,Win32,29.93205424,6842b561977af9ba9b0f87ca,,,,,,,,,,,269.0357,269.5214,,,269.747,270.1922,left,0.4193,,,,,,,,,0.1,,,,,,269.5214,269.747,270.1923,"[-0.10430650231094005,-0.0009441782018033778]",4.0,"[0.05643622508709105,0.03940468920647013]",4.0,"[0.11033396977587526,-0.14699191177566284]",4.0,"[-0.10666958543363181,0.13759942773934028]",4.0,"[-0.0114706402320466,-0.07284149266151185]",4.0,"[-0.007144191678358155,-0.144653970246632]",4.0,"[0.11472598624790462,-0.023139490543476728]",4.0,"[0.07401574232430548,-0.02631164877548856]",4.0,"[0.10055751201621015,-0.10172803314072236]",4.0,"[0.16504597613020586,-0.033080657264414545]",4.0,"[0.13335620544162946,0.06092237448720046]",4.0,"[-0.04097067314449587,0.13804694551050548]",4.0,"[-0.1778359855167,-0.076220698919305]",4.0,"[0.02144664631419219,-0.1861280660152132]",4.0,"[0.005456344536757272,0.19079641184808968]",100.0,"[-0.1467603297020078,0.05025087471343413]",4.0,"[0.1483281619298845,0.12168358282992005]",4.0,"[-0.0022433471103172997,0.008529848247369945]",4.0,"[0.15030358321506707,-0.07918494278441564]",4.0,"[0.05247539196239918,-0.1542856041532208]",100.0,"[0.030505688084973174,-0.06622159308683843]",4.0,"[0.09682624508502212,0.08888859793503369]",4.0,"[0.06029661960999106,0.16976470208685032]",4.0,"[-0.16316464734531871,-0.013166384848704759]",4.0,"[0.031836638276242335,-0.021749517353996453]",4.0,"[0.10024086651661061,0.1631273682148015]",4.0,"[-0.08491972559722502,-0.05859770247266028]",4.0,"[-0.002391810984731839,0.09683763700079016]",4.0,"[0.01580009591268423,0.044636469842624454]",4.0,"[-0.06782068903626438,0.030419827029206085]",100.0,"[-0.07701549342164171,-0.12274586197900524]",4.0,"[-0.07298806517448785,0.11007717817319349]",4.0,"[0.02,0.02]",271.284,0.0,31.0,31.0,200.0,1.0,,,,,,,
,,,,,,,63d13c076dd249ca3a6bffbb,6842bbe0184dac4344fb6e1a,2025-06-06_10h59.20.905,shape_ratio,2024.1.5,Win32,29.93205424,6842b561977af9ba9b0f87ca,,,,,,,,,,,271.2861,271.7801,,,272.044,272.7053,right,0.6032,,,,,,,,,0.5,,,,,,271.7802,272.0439,272.7055,"[-0.012298091811748488,-0.0788416554397544]",4.0,"[0.048023352409946436,0.03672520633491734]",4.0,"[-0.036007388727250574,-0.15957310910553255]",4.0,"[-0.18738154431852558,-0.02009849895757616]",100.0,"[-0.07709216904659308,-0.12525981643131295]",100.0,"[0.1416583473110891,0.14035004970424544]",100.0,"[0.096994648366139,0.16216215707252687]",100.0,"[-0.11909460322410097,-0.1300445201723824]",100.0,"[0.028362317085871332,0.13375198631538696]",100.0,"[-0.06705269573076808,-0.018958322016343145]",4.0,"[-0.08374993752168733,0.14573427420232396]",4.0,"[-0.10994401903890128,-0.03663756474002981]",4.0,"[0.08681375893274948,-0.08408506291251328]",100.0,"[0.0991880470034565,0.07181727212158656]",4.0,"[0.055781819478517014,-0.14261227030481113]",4.0,"[0.131944966600866,0.033703987385603616]",4.0,"[0.14731655219118642,-0.058334046110742145]",4.0,"[0.06204832569062448,0.1875055067573571]",100.0,"[-0.17495859241453793,-0.09374242592092698]",100.0,"[0.10113646084311606,-0.13158875729120942]",100.0,"[0.1666405797429991,0.10035211654814942]",100.0,"[-0.1857881446386383,0.03530039959476339]",4.0,"[0.1682367428715568,0.009504915753347182]",4.0,"[-0.012950221661807574,0.19262875873202812]",100.0,"[-0.13331873545880168,0.06828466091065823]",4.0,"[-0.16556547423711368,0.09660123182928168]",100.0,"[0.19428917144667773,-0.04274114890549844]",4.0,"[0.04783958265242484,-0.020593650182970106]",100.0,"[-0.04729067555340144,0.10908758038212939]",100.0,"[-0.14969160745915555,-0.005382603318692528]",4.0,"[0.06863348220849388,0.13028497707028192]",4.0,"[0.059131313229881216,0.08259289785182224]",100.0,"[0.02,0.02]",273.7893,0.0,32.0,32.0,97.0,1.0,,,,,,,
,,,,,,,63d13c076dd249ca3a6bffbb,6842bbe0184dac4344fb6e1a,2025-06-06_10h59.20.905,shape_ratio,2024.1.5,Win32,29.93205424,6842b561977af9ba9b0f87ca,,,,,,,,,,,273.79,274.272,,,274.5023,275.2515,left,0.7105,,,,,,,,,0.45,,,,,,274.2721,274.5023,275.2517,"[0.012568176014429158,-0.0402096989433394]",100.0,"[-0.023665954623346,-0.16009708903341857]",4.0,"[0.18367764481690207,0.01732964943020934]",100.0,"[0.12328193480883294,-0.10808840911848505]",4.0,"[-0.152613446340006,0.08180341021392847]",4.0,"[-0.007975097663971552,0.16547643568069825]",100.0,"[0.13074252083829818,0.10308025921341347]",4.0,"[0.09309653645261541,0.1739947740529815]",4.0,"[0.04087915045549745,-0.0727899084581625]",4.0,"[-0.021498439863129555,0.1245320683573065]",100.0,"[-0.06633427559525448,-0.0705313483981823]",100.0,"[0.11443609016716808,-0.06735990229829418]",4.0,"[-0.01588181017299292,-0.07154589099252721]",4.0,"[0.0438807686770207,0.1917791521693617]",100.0,"[0.024936116769004743,-0.12347252559082612]",4.0,"[0.13769920121380527,0.03321156754569535]",4.0,"[0.051406303117948124,0.09823655010516379]",4.0,"[-0.07234892051618529,-0.1496597188695554]",100.0,"[-0.057020504654171154,0.025195221024708777]",4.0,"[-0.06743191107612305,0.13343043846627925]",100.0,"[0.15923180142111626,-0.042608200816601535]",100.0,"[-0.12926603488655597,0.11847942598848298]",100.0,"[-0.049908563240667586,0.0749830673126506]",4.0,"[-0.1810824043901808,-0.05654715736040386]",4.0,"[-0.13871802761275906,-0.11633127073326208]",100.0,"[-0.11411589590613061,-0.06337681043536596]",100.0,"[-0.01881636476904862,0.042092739940159316]",100.0,"[0.1661299914659398,-0.10736793618514333]",4.0,"[-0.16307980263094812,0.037509782358120976]",4.0,"[0.07366562005992322,-0.03490049702331229]",4.0,"[0.02455555471268928,-0.19562135208491538]",4.0,"[-0.09095576256764175,-0.021875096003475404]",100.0,"[0.02,0.02]",276.3438,0.0,33.0,33.0,125.0,1.0,,,,,,,
,,,,,,,63d13c076dd249ca3a6bffbb,6842bbe0184dac4344fb6e1a,2025-06-06_10h59.20.905,shape_ratio,2024.1.5,Win32,29.93205424,6842b561977af9ba9b0f87ca,,,,,,,,,,,276.3442,276.8428,,,277.0811,277.5766,right,0.4708,,,,,,,,,0.4,,,,,,276.8429,277.0811,277.5767,"[-0.06969230752054861,0.09227604328736924]",4.0,"[0.0019877653727325725,-0.07895794760036218]",4.0,"[-0.012909469980265398,0.12234800860809292]",4.0,"[0.1451670985804673,-0.04604698021243301]",100.0,"[0.10642056490676818,0.10157479292140426]",100.0,"[-0.10488727421175739,-0.09214881814316492]",4.0,"[-0.14934567795755085,0.059966559251800264]",4.0,"[0.11861969975153559,-0.15264047655917992]",4.0,"[-0.10617722902605586,0.0375674775081443]",4.0,"[0.00987278946408962,-0.17840731258181397]",100.0,"[0.05905588457389493,0.014292033490974947]",100.0,"[0.1286775461057067,0.14939393560471328]",100.0,"[-0.07057659690585942,-0.13116410805609838]",100.0,"[0.056618782997233025,-0.1356465992332595]",4.0,"[0.15770425059064797,-0.11101507655619748]",4.0,"[-0.02633637994518082,-0.13560404259399964]",100.0,"[-0.14543894709531446,-0.05316561472695625]",4.0,"[-0.07655788405485361,-0.0377725377334675]",4.0,"[-0.045853741426483206,0.02568969305269046]",4.0,"[-0.13835308184867295,0.12909083871426208]",4.0,"[-0.1335427682725457,-0.14769586525025713]",100.0,"[0.06683007672413914,0.18459099520138564]",4.0,"[0.04131649577868592,0.10403996252655812]",4.0,"[-0.014456668557005874,0.07320909974533997]",100.0,"[-0.08250121681581692,0.13045339526780453]",100.0,"[0.0456960785140661,-0.07432858208483563]",4.0,"[0.0036201364350144714,-0.0037203189607916526]",4.0,"[0.10400143118493836,-0.022484607748597986]",4.0,"[0.15059183996029007,0.004615941251779576]",100.0,"[-0.17822874658873816,0.025321555153678003]",4.0,"[0.18801655508966228,0.03285480969276857]",100.0,"[-0.050729947719409835,-0.1821258318096984]",100.0,"[0.02,0.02]",278.6759,0.0,34.0,34.0,150.0,1.0,,,,,,,
,,,,,,,63d13c076dd249ca3a6bffbb,6842bbe0184dac4344fb6e1a,2025-06-06_10h59.20.905,shape_ratio,2024.1.5,Win32,29.93205424,6842b561977af9ba9b0f87ca,,,,,,,,,,,278.6763,279.157,,,279.3891,279.5758,right,0.1613,,,,,,,,,0.6,,,,,,279.1571,279.3889,279.576,"[0.05652684807217546,0.1084388853675276]",4.0,"[-0.05198692735348482,-0.024950224298454338]",100.0,"[-0.010966605390593694,-0.02739852799309815]",100.0,"[-0.17859793979181704,-0.020047349989770542]",4.0,"[0.028105192087232615,0.1668581214648268]",4.0,"[0.09968800616048154,-0.13034235496696767]",4.0,"[0.08361846311030767,0.031145734668521427]",100.0,"[-0.06570011934158328,0.12463813222173813]",100.0,"[-0.03220443445814489,0.011211806953945809]",4.0,"[0.12951392308567516,0.13611205647853022]",4.0,"[-0.1114495440396731,-0.05029700666926553]",100.0,"[-0.00414530809572626,-0.13679920667447237]",100.0,"[-0.14688871640147994,0.02807793397053676]",4.0,"[-0.014674673635800335,0.13572021824965763]",100.0,"[0.1204723007557898,-0.037633341110684296]",100.0,"[0.1936146917053273,-0.021776285438721486]",4.0,"[-0.12653141803105394,-0.11260662413423501]",100.0,"[-0.0730481517921586,0.18524288401896982]",100.0,"[-0.01895665643708322,-0.17537380072905095]",100.0,"[-0.07699972886165307,-0.07754289137331609]",4.0,"[0.1020258087633246,0.10503263430543736]",100.0,"[0.12247271714301515,0.06567045277000347]",100.0,"[0.18577859915759742,0.06261615037118441]",100.0,"[0.03427487729265026,-0.021883543845135522]",100.0,"[0.009663780782445815,0.06926549229612103]",100.0,"[0.17192451097618042,-0.09960534954149927]",4.0,"[0.1650651854888883,0.11244900868084744]",4.0,"[-0.08044295059387424,0.058917797845289596]",4.0,"[0.0358476868714036,0.020325572811257173]",100.0,"[-0.026768033257313542,0.09567698715730368]",4.0,"[0.1180659320523239,-0.08278693707742703]",100.0,"[0.132094303415641,0.011510892866259517]",100.0,"[0.02,0.02]",280.6714,0.0,35.0,35.0,48.0,1.0,,,,,,,
,,,,,,,63d13c076dd249ca3a6bffbb,6842bbe0184dac4344fb6e1a,2025-06-06_10h59.20.905,shape_ratio,2024.1.5,Win32,29.93205424,6842b561977af9ba9b0f87ca,,,,,,,,,,,280.6719,281.1481,,,281.3758,281.7339,right,0.3245,,,,,,,,,0.9,,,,,,281.1483,281.3758,281.734,"[0.08883807972675138,0.14608308130804318]",100.0,"[-0.12448722324445666,0.033397873546365656]",100.0,"[0.12585809661853786,0.10937443951831857]",100.0,"[-0.109562354678982,-0.14773660501403044]",100.0,"[0.18860356015420812,-0.02959231649863647]",100.0,"[-0.0591590956150765,0.14792043253270884]",100.0,"[-0.000711239374307739,-0.19534388192849683]",4.0,"[-0.02344417950447592,-0.08657381609307312]",100.0,"[-0.1620008806295579,-0.08564363400512531]",100.0,"[0.020184626688590047,0.020841956419746368]",100.0,"[-0.14726477650591768,0.09834654410002525]",4.0,"[-0.023592580577092726,0.024851559101732795]",100.0,"[0.013551762960742914,0.08413776559061374]",100.0,"[0.07999419610759044,-0.1159975568952655]",100.0,"[0.006121041057328521,0.1252900810279895]",100.0,"[-0.07175262322344492,-0.0640757655563323]",100.0,"[0.15069253491724724,-0.11941217571664431]",100.0,"[-0.005548338619407085,0.1686094524864088]",100.0,"[0.07893864071384904,-0.003973763688615421]",100.0,"[-0.10431419168509577,-0.023168491998642283]",100.0,"[-0.15592266653811954,-0.03908073376560916]",100.0,"[0.16216215310014717,-0.06780026481929333]",100.0,"[0.05679375812373551,0.10694990415036588]",100.0,"[0.0024682708935968418,-0.15517613863655483]",100.0,"[0.043735880920495414,-0.16745358891235168]",100.0,"[0.10723306961774352,0.05155116223789851]",100.0,"[0.023372734733771314,-0.10340171604500825]",100.0,"[-0.17770700871793943,0.040837369892398466]",100.0,"[0.05941482620118434,0.04381047628618179]",4.0,"[-0.08456888854099304,-0.17903681806842855]",100.0,"[-0.107957281141885,0.1357027411994384]",100.0,"[0.12212024760206326,-0.040981615862325405]",100.0,"[0.02,0.02]",282.8177,0.0,36.0,36.0,26.0,1.0,,,,,,,
,,,,,,,63d13c076dd249ca3a6bffbb,6842bbe0184dac4344fb6e1a,2025-06-06_10h59.20.905,shape_ratio,2024.1.5,Win32,29.93205424,6842b561977af9ba9b0f87ca,,,,,,,,,,,282.8185,283.3169,,,283.55,283.8749,right,0.2789,,,,,,,,,0.5,,,,,,283.317,283.5499,283.875,"[0.07806604915834303,-0.07038777915622856]",4.0,"[-0.1264289996025926,0.11879742147843489]",4.0,"[0.00662844868834852,0.18241338398851126]",4.0,"[0.1285842524584528,-0.14095878447875773]",4.0,"[0.056111657043588004,0.17331857527746722]",100.0,"[0.04480836388406412,-0.031084843669238162]",100.0,"[-0.027712351176904907,-0.029828436873181704]",100.0,"[-0.05320590278766144,0.11485570177457323]",4.0,"[-0.06797719125881523,-0.005324060706868574]",4.0,"[-0.14057645315790107,0.03378024272873402]",4.0,"[0.1448757636303597,-0.005285122793576289]",100.0,"[-0.11837513935846154,-0.011925160676853532]",100.0,"[-0.02866944840309914,0.02422289437819144]",4.0,"[-0.18160104713658626,0.014704430320214578]",4.0,"[0.09456180119132557,-0.01622402793804961]",4.0,"[-0.11252086199892748,-0.13752960665755043]",100.0,"[-0.012391640615628466,-0.17381590829316892]",100.0,"[0.11034629595986115,0.12412047856515324]",100.0,"[0.024987898736565036,-0.10898924504943072]",4.0,"[0.1879807190326265,-0.054937244270431514]",100.0,"[-0.06934246181449583,-0.04879497311827534]",4.0,"[0.058272482051911934,-0.18930581253394196]",100.0,"[0.13845459980541713,0.05496731871448836]",100.0,"[-0.06823926157850252,-0.1544216328452137]",100.0,"[0.04038025604205666,0.023175835146002292]",100.0,"[0.028722409607367473,0.08616302708524867]",100.0,"[-0.12689893651080641,-0.06889083159615483]",4.0,"[-0.18010553895753723,-0.07875109301911819]",4.0,"[0.0010471015374912231,0.1212377475725841]",4.0,"[-0.015072622715793849,-0.12866418924866257]",100.0,"[-0.19269210325531294,-0.029200446304489334]",4.0,"[-0.04314987870156418,-0.08127601735196084]",100.0,"[0.02,0.02]",284.9846,0.0,37.0,37.0,98.0,1.0,,,,,,,
,,,,,,,63d13c076dd249ca3a6bffbb,6842bbe0184dac4344fb6e1a,2025-06-06_10h59.20.905,shape_ratio,2024.1.5,Win32,29.93205424,6842b561977af9ba9b0f87ca,,,,,,,,,,,284.9857,285.4662,,,285.702,286.2585,left,0.5206,,,,,,,,,0.4,,,,,,285.4662,285.702,286.2586,"[0.05101971616582433,-0.00887021652580364]",100.0,"[0.09044523705173999,-0.0830605217374442]",4.0,"[-0.13227848035675646,0.0924125441843209]",100.0,"[0.18108215395810195,-0.07525361998485192]",4.0,"[0.049871878714002595,0.18577343183770872]",100.0,"[0.015278478440100322,0.11990822178516754]",4.0,"[-0.1203652585676806,-0.045821008128188]",4.0,"[-0.13121188490873797,0.1341604633593629]",100.0,"[0.15848763482342013,0.012906972104270052]",100.0,"[0.023792812053121466,-0.19328965134580367]",4.0,"[-0.18823033568938943,0.040659937329536315]",4.0,"[0.11090836094539448,0.0892442442530452]",4.0,"[-0.017651966651604442,-0.07418690182926257]",4.0,"[-0.16715177024337763,-0.002851698944787353]",100.0,"[-0.004236436256018668,-0.000605338852783017]",100.0,"[0.1484707085052109,0.1109884569908776]",100.0,"[-0.04435044663597375,-0.1087188083337718]",4.0,"[-0.14751688626700266,0.039852092070389866]",100.0,"[-0.09701048352013926,0.05576961848984776]",100.0,"[-0.09009525052128343,0.15724486635536106]",4.0,"[0.09929891540666153,0.04935338687550669]",100.0,"[-0.07360149311478253,0.022465071145778334]",4.0,"[-0.1359509574222618,-0.12993829943156782]",100.0,"[-0.020084252998828104,0.19727743051115337]",4.0,"[0.02430533292466413,0.07939685816115055]",4.0,"[0.04281124864596698,-0.06135496778823427]",4.0,"[0.11134022847157259,-0.14528335866488115]",4.0,"[0.07838449818539685,0.14940269230533293]",100.0,"[0.09937792363708961,-0.005661224196231836]",4.0,"[0.02996671448808209,-0.1515372928177786]",4.0,"[-0.04168107162948783,-0.027054186427879056]",4.0,"[0.13139221270180024,-0.09373095070024964]",4.0,"[0.02,0.02]",287.3361,0.0,38.0,38.0,151.0,1.0,,,,,,,
,,,,,,,63d13c076dd249ca3a6bffbb,6842bbe0184dac4344fb6e1a,2025-06-06_10h59.20.905,shape_ratio,2024.1.5,Win32,29.93205424,6842b561977af9ba9b0f87ca,,,,,,,,,,,287.3366,287.8577,,,288.1167,288.5245,right,0.3763,,,,,,,,,0.5,,,,,,287.8577,288.1167,288.5245,"[-0.14736296440904542,-0.04330213526474878]",4.0,"[0.043683599746554606,-0.13512744285003409]",100.0,"[0.006097370178375887,-0.1774122297867289]",4.0,"[0.18308216739831454,-0.048950888446635386]",4.0,"[0.10648657336207257,0.13173488752097745]",4.0,"[-0.1854608020952296,0.021232688192959457]",4.0,"[0.1505902505665267,0.013129190753619627]",100.0,"[-0.12262830786135016,-0.08123903817707843]",4.0,"[0.02722669071018995,-0.04612083121866944]",100.0,"[0.13151993877751222,-0.04319006291944019]",4.0,"[-0.1703032907254027,0.07178821016273064]",4.0,"[0.03382843454119691,0.01647771731497123]",4.0,"[0.0428056643634536,0.10278075462917387]",4.0,"[-0.11023296541592958,0.09082737855119563]",4.0,"[0.14181930967809167,0.06479564293638353]",100.0,"[-0.12701060822139731,0.025496167494538553]",4.0,"[-0.07613391483899033,-0.04439637521483808]",100.0,"[-0.023769038647156848,0.009638186070491155]",4.0,"[0.05905299656315937,-0.01648970671124215]",100.0,"[0.09140608294499201,-0.1566917087049302]",100.0,"[-0.031022342449448046,0.1549599251279749]",100.0,"[0.19686170492267732,0.02810362753586236]",100.0,"[0.002049969924546108,0.1854487588128812]",4.0,"[-0.02670743937048122,0.09017534615857571]",100.0,"[-0.11853401620158953,0.15860251893506297]",100.0,"[-0.10701807138850244,-0.1437306599612265]",100.0,"[-0.025091382487292632,-0.14915604014527634]",100.0,"[-0.06978487729882303,0.0734455981900467]",100.0,"[0.13254001559190742,-0.09511866344303269]",100.0,"[-0.029013066284632946,-0.08104914262911536]",100.0,"[-0.17231750350882755,-0.07945914956643486]",4.0,"[0.06699509326105971,0.17460948891137426]",4.0,"[0.02,0.02]",289.6037,0.0,39.0,39.0,93.0,1.0,,,,,,,
,,,,,,,63d13c076dd249ca3a6bffbb,6842bbe0184dac4344fb6e1a,2025-06-06_10h59.20.905,shape_ratio,2024.1.5,Win32,29.93205424,6842b561977af9ba9b0f87ca,,,,,,,,,,,289.6042,290.0919,,,290.3176,291.0848,right,0.7376,,,,,,,,,0.9,,,,,,290.0919,290.3176,291.0848,"[0.12940195428411702,0.10011222096940511]",100.0,"[-0.05343787275392225,0.16713360669331878]",100.0,"[-0.1765965186617439,-0.08621871649745216]",4.0,"[-0.15563424845298462,-0.014588803678553131]",100.0,"[-0.12716693540073967,0.10297883150197389]",100.0,"[0.034963126876420364,-0.11442567619588857]",100.0,"[-0.1178046790290847,-0.09229111440429423]",100.0,"[-0.013386514056526692,-0.11605683303117975]",100.0,"[0.05350072968678223,0.06298163780418335]",100.0,"[-0.04225923247530961,0.12014626389015182]",100.0,"[-0.020119902359309976,-0.004413900153359197]",100.0,"[-0.07898736290376078,0.02921985206632402]",100.0,"[-0.14397493609020012,0.03662598339931993]",100.0,"[0.00023122815661834415,-0.17119240128709542]",100.0,"[-0.09346064990298072,-0.04622686595712841]",100.0,"[0.059118225849302326,0.1245652361969625]",100.0,"[0.16676245304074921,-0.03556769137223291]",100.0,"[0.10933255574422156,-0.04657050929876451]",100.0,"[0.12511485112579612,0.004392795961719795]",100.0,"[-0.00020238921291853803,-0.05969246752051832]",100.0,"[-0.05577853802257511,-0.02751907930584719]",4.0,"[0.039333209897554115,-0.04836486749253483]",100.0,"[0.17433053367385973,-0.08283219671521541]",100.0,"[-0.19679374567720598,0.016826826153278157]",100.0,"[0.13488292319367506,-0.10448968961656249]",100.0,"[-0.06539338205066102,0.0701398202352593]",4.0,"[0.07839594158023012,-0.14643257103748197]",100.0,"[0.17714277131377024,0.02088724002894155]",100.0,"[0.12988498235081958,-0.15053889375957627]",100.0,"[0.03306795086176952,0.15946197516822752]",100.0,"[0.03883360997424758,0.0142418457136773]",100.0,"[0.1698417431525266,0.08335226185491668]",100.0,"[0.02,0.02]",292.1934,0.0,40.0,40.0,8.0,1.0,,,,,,,
,,,,,,,63d13c076dd249ca3a6bffbb,6842bbe0184dac4344fb6e1a,2025-06-06_10h59.20.905,shape_ratio,2024.1.5,Win32,29.93205424,6842b561977af9ba9b0f87ca,,,,,,,,,,,292.1945,292.6749,,,292.9289,294.0282,right,1.0468,,,,,,,,,0.4,,,,,,292.6749,292.9287,294.0283,"[-0.07590048874611188,-0.107243602488905]",4.0,"[0.09882049136880361,0.04043581502600755]",4.0,"[-0.17540041760967282,-0.01301800412545026]",4.0,"[-0.13581207606365697,-0.11700970106765969]",100.0,"[-0.03899161654382983,0.192995657488953]",100.0,"[-0.029856443050410575,0.07787444483929135]",4.0,"[0.08452010672080652,0.12311560781412441]",4.0,"[0.05238981954235673,-0.034672768797853325]",100.0,"[0.1712526472027339,0.06843122256519354]",100.0,"[0.03308010562529671,-0.18100009790456786]",4.0,"[-0.09170615355204294,-0.14578527677461417]",4.0,"[0.07726126829722367,-0.17216419195731875]",4.0,"[0.031678075913349965,-0.07578680933873519]",100.0,"[0.18430505663684418,0.013467890713838592]",4.0,"[-0.05758696706390753,0.03686520840319336]",100.0,"[-0.0859447857591563,0.15161800178689042]",4.0,"[0.15071873978585087,0.1247951135138107]",4.0,"[-0.015726365941469676,-0.020425000913412577]",100.0,"[0.1323572682039163,-0.14141508613848688]",4.0,"[-0.11203790940703799,0.03141435197179826]",4.0,"[0.08006072971814043,0.16728775219670525]",4.0,"[-0.16509057469431204,0.02971459375825717]",100.0,"[-0.09343807627393122,0.07431320740262787]",4.0,"[0.041392275953711526,0.014415910454047425]",4.0,"[-0.0007337983805122969,-0.12114914019963809]",4.0,"[-0.11227655842909225,0.12018372488553948]",4.0,"[0.0932856855448089,0.08345255508732313]",4.0,"[0.08869167608212243,-0.07068773480552173]",100.0,"[0.009837447520302682,0.11261464020605054]",100.0,"[0.05754102881617417,0.0652795710213401]",100.0,"[-0.04129842290631107,0.14283026874354052]",100.0,"[0.07496799005486526,-0.10881337264313869]",100.0,"[0.02,0.02]",295.13,0.0,41.0,41.0,153.0,1.0,,,,,,,
,,,,,,,63d13c076dd249ca3a6bffbb,6842bbe0184dac4344fb6e1a,2025-06-06_10h59.20.905,shape_ratio,2024.1.5,Win32,29.93205424,6842b561977af9ba9b0f87ca,,,,,,,,,,,295.1306,295.6152,,,295.8666,296.2962,right,0.3936,,,,,,,,,0.9,,,,,,295.6153,295.8665,296.2963,"[0.01974060894965423,-0.13565965183754514]",100.0,"[-0.016994570346903746,-0.06108293666031332]",100.0,"[0.10256574048854068,0.10349350373750645]",100.0,"[-0.006826358884361849,0.1609679325123914]",100.0,"[-0.12331845310123145,0.0011617028891173012]",100.0,"[0.07377577474391937,-0.06668604964111823]",100.0,"[0.03453708878118099,0.16640966011447517]",4.0,"[-0.0983149423661899,0.13775373661185147]",100.0,"[0.055531281228461134,-0.0020994558933710365]",100.0,"[0.19368021264101254,-0.01969914956962872]",100.0,"[-0.06709191767786142,-0.02246962533597429]",100.0,"[-0.17803611969153543,-0.02730024908475031]",100.0,"[-0.07587215744330272,0.06403820192563746]",100.0,"[0.11686954197252666,-0.10124949048533173]",100.0,"[0.029217412508931225,-0.18759165399506372]",4.0,"[-0.08168183447900824,-0.08915777673995698]",4.0,"[0.0977807331936512,0.162457827761818]",100.0,"[-0.027814176016054164,0.03273867591149315]",100.0,"[0.17379379067481462,-0.05505307583216562]",100.0,"[0.018849011724310496,0.03049928889651002]",100.0,"[-0.15306921155909972,0.10291271666648012]",100.0,"[0.07584554655363665,-0.10794596562766545]",100.0,"[-0.13240374164644433,-0.0844136630343011]",100.0,"[0.17056282003912773,0.04719577124553805]",100.0,"[-0.1874307688951582,0.027268984629555543]",100.0,"[-0.08815368635518384,-0.13117741585839054]",100.0,"[0.019096402938865657,0.07361285521230357]",100.0,"[0.06990823955952369,0.05819786236412031]",100.0,"[-0.024707599554148835,0.10832567740519186]",100.0,"[-0.07423212290283797,-0.17286669809398603]",100.0,"[-0.14583878459151262,0.055238442617094166]",100.0,"[0.021776298446245245,-0.034715349393134975]",100.0,"[0.02,0.02]",297.396,0.0,42.0,42.0,27.0,1.0,,,,,,,
,,,,,,,63d13c076dd249ca3a6bffbb,6842bbe0184dac4344fb6e1a,2025-06-06_10h59.20.905,shape_ratio,2024.1.5,Win32,29.93205424,6842b561977af9ba9b0f87ca,,,,,,,,,,,297.397,297.8789,,,298.1166,298.7313,left,0.5748,,,,,,,,,0.4,,,,,,297.8791,298.1166,298.7314,"[0.17581819182929928,0.08944452410350652]",100.0,"[-0.019716145950364316,0.019945090406076837]",4.0,"[0.11688532884588802,-0.037340038986259795]",4.0,"[0.12399494366423847,0.11956278544345135]",4.0,"[0.04669286006480722,0.08837692812436565]",4.0,"[0.16641654558295937,0.017996927986406765]",4.0,"[0.023192595295307893,-0.1737318875418846]",4.0,"[-0.19263519088606254,0.031905201698730436]",4.0,"[-0.020704949397200526,0.17428923326594178]",100.0,"[-0.13665456632666073,0.06667114399627636]",4.0,"[-0.0406530817110692,-0.07861302399875737]",4.0,"[0.07613362171539566,0.16634946218883767]",100.0,"[-0.09062595236861336,-0.003297685870602176]",100.0,"[0.06869459872295229,-0.08400517811281627]",100.0,"[-0.026892794811577463,0.09902194740352648]",4.0,"[-0.08263763598727973,-0.06133743968252375]",4.0,"[0.10698905965538968,0.04624135333154412]",100.0,"[0.023015030243246287,-0.13026918746128238]",100.0,"[0.16372232733094716,-0.03629687960934083]",4.0,"[-0.028930357898030338,-0.020766469049493183]",100.0,"[-0.12011061148552128,-0.15255897877908142]",4.0,"[0.011054840373088919,-0.08546646835285403]",4.0,"[-0.07446404360007758,0.1605233558833948]",100.0,"[0.06419970850777934,-0.1737939929996621]",4.0,"[0.0417644060725439,0.0008106072457866065]",100.0,"[-0.10816751205997506,0.12260028721971457]",4.0,"[-0.06327880952974911,-0.14301144005922006]",4.0,"[-0.08661482672045034,0.0555202810039842]",4.0,"[-0.1340027577527653,-0.04043276613135421]",100.0,"[0.1982302799177907,-0.015581469627929462]",4.0,"[0.17092735847616558,-0.09660404177441817]",100.0,"[-0.15618443940050927,0.10290712924050403]",100.0,"[0.02,0.02]",299.8146,0.0,43.0,43.0,165.0,1.0,,,,,,,
,,,,,,,63d13c076dd249ca3a6bffbb,6842bbe0184dac4344fb6e1a,2025-06-06_10h59.20.905,shape_ratio,2024.1.5,Win32,29.93205424,6842b561977af9ba9b0f87ca,,,,,,,,,,,299.8151,300.3235,,,300.5662,301.6509,right,1.0603,,,,,,,,,0.5,,,,,,300.3236,300.5662,301.6509,"[-0.15329017219105862,0.09545817068213623]",4.0,"[0.05915698158502564,0.12161215375164866]",100.0,"[0.17242354416738584,-0.0563620450183227]",100.0,"[-0.05637808260883608,0.014348975985515409]",4.0,"[0.05008064235931238,0.07536838252617288]",100.0,"[-0.04511929841560803,0.09622615920432287]",100.0,"[0.07315981485294537,-0.15957955979382094]",4.0,"[0.014806079040820765,-0.18271647463925203]",4.0,"[-0.1974166566843318,0.021009668427955496]",4.0,"[-0.0023720304468726936,-0.11379159321210232]",4.0,"[0.1080853395794426,-0.0866675046610668]",4.0,"[0.1199301592819079,0.054442004143895356]",100.0,"[0.002062323968364694,0.1774110096097227]",100.0,"[-0.04894182883348771,-0.1600369027447396]",4.0,"[0.1836757488812558,0.020746620902759458]",4.0,"[-0.16140770350517467,-0.09281544418819092]",4.0,"[-0.09800193884832097,-0.09385100361168104]",100.0,"[0.11669938112209033,-0.0444641994027512]",100.0,"[-0.15902210848732845,-0.008579009334000472]",100.0,"[0.08152412882294405,0.011983564828153829]",100.0,"[0.11597643649365638,-0.16261411192034397]",100.0,"[0.018790055458135196,-0.026755837009475314]",4.0,"[0.060729477747520896,-0.09625703925648653]",4.0,"[-0.0888921201584866,-0.029381617935287853]",4.0,"[-0.09121747028985454,-0.14587989047979352]",4.0,"[0.1448485973186363,0.11724408860283467]",100.0,"[-0.08352136488904958,0.04679777517762248]",100.0,"[-0.11974514897686335,0.020287980512049997]",100.0,"[0.07283153373477426,0.18606437092294217]",4.0,"[-0.1358797343305019,0.13944286790434782]",100.0,"[-0.05010928871153735,-0.06210146265782131]",100.0,"[-0.01668014980420601,0.1389218855483186]",4.0,"[0.02,0.02]",302.748,0.0,44.0,44.0,109.0,1.0,,,,,,,
,,,,,,,63d13c076dd249ca3a6bffbb,6842bbe0184dac4344fb6e1a,2025-06-06_10h59.20.905,shape_ratio,2024.1.5,Win32,29.93205424,6842b561977af9ba9b0f87ca,,,,,,,,,,,302.7487,303.2262,,,303.4712,304.2616,left,0.7639,,,,,,,,,0.6,,,,,,303.2262,303.4712,304.2617,"[0.0032807692088821176,-0.10691307931513272]",4.0,"[0.0831313658035155,0.08734897110613217]",100.0,"[0.14919053118531814,0.07665989941479918]",100.0,"[-0.0481456588110174,0.02224730037815187]",100.0,"[-0.1521604790388949,0.11960172514752555]",100.0,"[0.11723348551856254,-0.132225220550074]",100.0,"[-0.11964050613704279,-0.10906243874057545]",100.0,"[-0.18385902688879283,0.004760945234237257]",4.0,"[-0.10547210325670167,-0.02416065594173612]",100.0,"[0.010250977996220755,0.1754585201607338]",100.0,"[-0.08352838724875625,0.16497275523108798]",4.0,"[-0.07560374493999165,-0.12317162249444928]",100.0,"[-0.07799381955074301,0.12346322173104536]",4.0,"[0.04148217107082176,-0.14249421608489274]",100.0,"[0.07613138839932204,-0.10880931467161198]",100.0,"[-0.03655262200656555,-0.1949502967303489]",100.0,"[0.039139232151808444,0.1379174802123217]",100.0,"[-0.1902832429741992,0.05788716249491215]",4.0,"[0.03657492176428607,-0.014715387790217438]",4.0,"[0.1454680946199651,0.03235258328325054]",4.0,"[-0.08933451534440545,-0.06473169417575966]",100.0,"[0.14296328789937748,-0.021169123614001525]",4.0,"[-0.007733759001040051,-0.05031587737289775]",100.0,"[0.03133941855332312,0.040637061418572845]",4.0,"[-0.024700802171579845,0.1096222878179862]",4.0,"[-0.031755753597585534,0.16289287317846846]",100.0,"[-0.15575094055602537,-0.08981437806825875]",4.0,"[-0.09597214078356074,0.05929204751914176]",4.0,"[-0.1508487632397294,0.07251468867056661]",100.0,"[-0.05037863288392468,-0.07679624476094875]",100.0,"[0.039522534005132066,-0.060634099675869614]",100.0,"[0.10545639275286683,-0.038654731542702395]",4.0,"[0.02,0.02]",305.3493,0.0,45.0,45.0,41.0,1.0,,,,,,,
,,,,,,,63d13c076dd249ca3a6bffbb,6842bbe0184dac4344fb6e1a,2025-06-06_10h59.20.905,shape_ratio,2024.1.5,Win32,29.93205424,6842b561977af9ba9b0f87ca,,,,,,,,,,,305.3511,305.8504,,,306.0969,306.661,left,0.5405,,,,,,,,,0.4,,,,,,305.8504,306.0968,306.661,"[0.10230645120887287,0.02217599152561852]",4.0,"[0.07699157525947146,-0.17569297505552003]",100.0,"[-0.04987320427885791,-0.18461511198633324]",100.0,"[0.0975176326968128,0.17178260935746986]",100.0,"[-0.05723822613811473,-0.005507323031542082]",100.0,"[-0.1636535836913639,-0.00122004816788022]",4.0,"[0.1149281033784638,0.11963749368880863]",4.0,"[-0.130302869866904,0.06506723541550495]",4.0,"[-0.14577666132277695,-0.07009152079685298]",4.0,"[0.1514917330255333,0.07995788126796692]",100.0,"[0.015442749677736282,0.033489196152432586]",4.0,"[0.037762326251770575,-0.06960142530302552]",4.0,"[-0.15236902535461455,0.12865538894537482]",4.0,"[-0.03426255627487118,-0.0659568135676112]",100.0,"[-0.003928228192444396,0.0720332653953764]",4.0,"[-0.02313837364002848,0.1457237359811816]",100.0,"[-0.1034488298942313,0.017453810048730433]",100.0,"[-0.04088598949640699,0.10912829305909807]",100.0,"[0.042960224539859725,0.11523942187797143]",100.0,"[-0.1953889629160066,0.02497352815297179]",4.0,"[0.09685963556705945,0.06921682824751059]",4.0,"[-0.11531788728748105,-0.11985107537955857]",4.0,"[0.054987154253763895,0.05498333228698673]",100.0,"[0.17854016103345,-0.04915237188344317]",4.0,"[0.10695221035228746,-0.042535343938760836]",4.0,"[-0.005641029209328829,-0.1940346705444729]",4.0,"[0.0004205186871218868,-0.043641893807797275]",4.0,"[-0.10745378948653626,-0.05256176439747008]",100.0,"[-0.10003104533535898,-0.16913097516098394]",100.0,"[-0.004998349768644736,-0.11088024040163952]",4.0,"[0.035879959238589686,-0.13239413817440743]",4.0,"[0.08570475433589526,-0.13130207338522518]",4.0,"[0.02,0.02]",307.7456,0.0,46.0,46.0,161.0,1.0,,,,,,,
,,,,,,,63d13c076dd249ca3a6bffbb,6842bbe0184dac4344fb6e1a,2025-06-06_10h59.20.905,shape_ratio,2024.1.5,Win32,29.93205424,6842b561977af9ba9b0f87ca,,,,,,,,,,,307.7461,308.2248,,,308.4726,308.8978,left,0.3966,,,,,,,,,0.1,,,,,,308.2248,308.4726,308.8979,"[-0.17616746638336997,0.03528569178638601]",100.0,"[-0.09896699647357032,-0.07977467841344053]",4.0,"[0.10257781179465005,-0.07696457953709261]",4.0,"[-0.14135279960237376,-0.0781313997041426]",4.0,"[0.16948363264583194,0.10597988513663746]",4.0,"[-0.1252347428560679,0.020235322101741393]",4.0,"[0.04414826853201075,-0.15822300427401173]",4.0,"[-0.15106669682398258,0.06852207487234799]",4.0,"[0.0947343712867431,-0.14453021447392547]",4.0,"[0.16083761772566402,0.040361189866491086]",4.0,"[0.025522743813350644,-0.042556616814256355]",4.0,"[0.11549369903459054,0.08563321166373968]",4.0,"[-0.08252809799832957,-0.177618250740499]",4.0,"[-0.04322421429192258,0.02794512784920448]",4.0,"[0.12961771029439828,0.006578423190721594]",4.0,"[0.06381505814459744,0.06583205565163919]",4.0,"[0.17395671922364747,-0.07493234834459336]",4.0,"[-0.06412333986974766,0.08693926080202591]",4.0,"[-0.04000636827642155,-0.10651425121747823]",4.0,"[-0.010470870166813027,-0.14054167285828373]",4.0,"[-0.08990207693887957,0.1302808444224084]",4.0,"[0.08183451121967068,0.02681907509681979]",4.0,"[-0.028177079828995436,-0.18226213108258701]",4.0,"[-0.0325793543281726,0.12041761640339536]",4.0,"[0.08455256181012832,0.17053920930753472]",4.0,"[-0.140529526256029,-0.11864926056125162]",4.0,"[0.04871663416820052,-0.00867146693128965]",100.0,"[0.01310541161510677,0.15931397542230893]",4.0,"[-0.1557683879529396,-0.012786313207305213]",4.0,"[-0.09905526532491069,-0.12861214606913524]",100.0,"[0.019342708481668115,0.023065626105120952]",4.0,"[0.014116643507306527,-0.09552399441707679]",4.0,"[0.02,0.02]",309.9839,0.0,47.0,47.0,197.0,1.0,,,,,,,
,,,,,,,63d13c076dd249ca3a6bffbb,6842bbe0184dac4344fb6e1a,2025-06-06_10h59.20.905,shape_ratio,2024.1.5,Win32,29.93205424,6842b561977af9ba9b0f87ca,,,,,,,,,,,309.9844,310.4712,,,310.7159,311.0206,right,0.2787,,,,,,,,,0.55,,,,,,310.4712,310.7153,311.0208,"[-0.015515688502460276,0.049320064208930835]",100.0,"[0.07552462308888404,-0.0751475837167612]",4.0,"[-0.15196765127983367,-0.03250390488626139]",4.0,"[-0.03313893453711086,-0.1440334292173044]",4.0,"[0.1223241685007096,0.04281296087589272]",4.0,"[-0.1925792321998378,-0.03048503357011996]",100.0,"[0.12411523621353837,-0.026293844035348526]",100.0,"[0.005094523998465122,-0.06336465498094573]",100.0,"[0.017175282053073795,-0.0035800735444523365]",100.0,"[-0.035856554115269376,-0.06573749417157829]",4.0,"[-0.0266989728524198,0.008735180029196796]",100.0,"[0.08922832084648971,0.010886631346556722]",4.0,"[-0.07095828193719797,0.06234844315055094]",100.0,"[0.15127601300679397,-0.062129282422511534]",4.0,"[-0.08777809508997181,-0.1401718229829371]",100.0,"[0.05313937661173208,-0.1454704039955074]",4.0,"[-0.04962779497835088,0.1819475714883393]",100.0,"[0.1855235379918458,0.04107403560865938]",4.0,"[0.11995113651360803,-0.11452639667671606]",4.0,"[-0.06312666767484262,0.14102409032824856]",4.0,"[-0.12730926749685254,-0.06578088768868808]",100.0,"[-0.13101437379484446,0.09225485230771122]",100.0,"[-0.051281785692359104,-0.19125392760487497]",4.0,"[0.1928765513622509,-0.03284470214841218]",100.0,"[0.0424866438295752,0.10476756859609927]",100.0,"[0.06018334968512476,0.1725758884339846]",100.0,"[0.1317253817235743,0.09378854549090296]",100.0,"[-0.173919418637522,0.0641662413045851]",4.0,"[-0.06408155308760073,-0.030910826559484184]",4.0,"[-0.10299582257810297,0.010342482248260057]",100.0,"[-0.01861002989947322,0.1396341112240945]",100.0,"[0.02129407050788304,0.14398888279493843]",100.0,"[0.02,0.02]",312.0997,0.0,48.0,48.0,66.0,1.0,,,,,,,
,,,,,,,63d13c076dd249ca3a6bffbb,6842bbe0184dac4344fb6e1a,2025-06-06_10h59.20.905,shape_ratio,2024.1.5,Win32,29.93205424,6842b561977af9ba9b0f87ca,,,,,,,,,,,312.1001,312.5859,,,312.8168,313.5695,left,0.7286,,,,,,,,,0.55,,,,,,312.586,312.8165,313.5695,"[0.18812200941075297,0.0038546045560309446]",100.0,"[0.059063841367757636,-0.08712273967750868]",100.0,"[0.17111768681093759,-0.07819200658244113]",100.0,"[-0.11524341479374542,0.1537628425997271]",100.0,"[-0.0524012650707969,-0.016400760777644866]",4.0,"[-0.07494912533689478,0.1157703977694986]",4.0,"[0.04941912552671823,-0.027320222941532104]",4.0,"[0.10209946838820222,0.11219298453906368]",100.0,"[-0.042123520533480965,0.18319771836257492]",100.0,"[-0.04361515537884234,0.08517146928956115]",100.0,"[-0.0022091833502521085,-0.0505753300468384]",100.0,"[-0.01898289465996648,0.1479851896600932]",4.0,"[-0.11217605821841145,-0.10836677817700809]",100.0,"[0.04725232311631368,-0.14727200821129768]",4.0,"[0.03377603092128376,0.08401374835454518]",100.0,"[0.01684261426607863,-0.19792052997803922]",4.0,"[-0.02367669690797586,-0.19652022072459166]",4.0,"[-0.12256603606756847,-0.026390737740167508]",4.0,"[0.04359799979574365,0.1336315768362075]",100.0,"[-0.14432455808176733,-0.08252339872452592]",100.0,"[0.051584963988555006,0.04092090020379823]",4.0,"[-0.18355125903284805,-0.01828827286017204]",4.0,"[0.08411677027231948,-0.1748779826079727]",100.0,"[-0.07021004751596537,-0.1679458683488399]",4.0,"[0.0010914048278062945,0.043800469936424134]",4.0,"[0.11234991838595279,-0.00757368269155722]",100.0,"[0.10673231552371633,0.07025065507435406]",4.0,"[-0.1295848511965677,0.06348187095815205]",100.0,"[-0.12549135889016874,0.1140151809164077]",100.0,"[0.13384138951724603,0.031167826510640265]",4.0,"[-0.11001075095748074,0.02147544396948683]",100.0,"[-0.05992022878002175,-0.061466455253022766]",100.0,"[0.02,0.02]",314.6459,0.0,49.0,49.0,85.0,1.0,,,,,,,
