right,left,explain.started,explain.stopped,key_resp_3.keys,key_resp_3.rt,key_resp_3.duration,participant,session,date,expName,psychopyVersion,OS,frameRate,study_id,explain_2.started,explain_2.stopped,key_resp_4.keys,key_resp_4.rt,key_resp_4.duration,explain_3.started,explain_3.stopped,key_resp_5.keys,key_resp_5.rt,key_resp_5.duration,fixation.started,fixation.stopped,practice.started,practice.stopped,response.started,response.stopped,key_resp.keys,key_resp.rt,key_resp.duration,feedback.started,feedback.stopped,trials_2.thisRepN,trials_2.thisTrialN,trials_2.thisN,trials_2.thisIndex,trials_2.ran,dot_ratio,explain_4.started,explain_4.stopped,key_resp_6.keys,key_resp_6.rt,key_resp_6.duration,dotDisplay.started,dotDisplay.stopped,ITI.started,polygon_1.pos,polygon_1.edges,polygon_2.pos,polygon_2.edges,polygon_3.pos,polygon_3.edges,polygon_4.pos,polygon_4.edges,polygon_5.pos,polygon_5.edges,polygon_6.pos,polygon_6.edges,polygon_7.pos,polygon_7.edges,polygon_8.pos,polygon_8.edges,polygon_9.pos,polygon_9.edges,polygon_10.pos,polygon_10.edges,polygon_11.pos,polygon_11.edges,polygon_12.pos,polygon_12.edges,polygon_13.pos,polygon_13.edges,polygon_14.pos,polygon_14.edges,polygon_15.pos,polygon_15.edges,polygon_16.pos,polygon_16.edges,polygon_17.pos,polygon_17.edges,polygon_18.pos,polygon_18.edges,polygon_19.pos,polygon_19.edges,polygon_20.pos,polygon_20.edges,polygon_21.pos,polygon_21.edges,polygon_22.pos,polygon_22.edges,polygon_23.pos,polygon_23.edges,polygon_24.pos,polygon_24.edges,polygon_25.pos,polygon_25.edges,polygon_26.pos,polygon_26.edges,polygon_27.pos,polygon_27.edges,polygon_28.pos,polygon_28.edges,polygon_29.pos,polygon_29.edges,polygon_30.pos,polygon_30.edges,polygon_31.pos,polygon_31.edges,polygon_32.pos,polygon_32.edges,dot_size,ITI.stopped,trials.thisRepN,trials.thisTrialN,trials.thisN,trials.thisIndex,trials.ran,break_2.started,break_2.stopped,trials_3.thisRepN,trials_3.thisTrialN,trials_3.thisN,trials_3.thisIndex,trials_3.ran
subject chose dot,subject chose diamond,0.0003,25.6706,space,10.6449,,63f77dc98bfabd95812edc2c,6842bb14e92beec218b6796a,2025-06-06_10h55.50.214,shape_ratio,2024.1.5,Win32,59.88023952,6842b561977af9ba9b0f87ca,,,,,,,,,,,,,,,,,,,,,,,,,,,,,,,,,,,,,,,,,,,,,,,,,,,,,,,,,,,,,,,,,,,,,,,,,,,,,,,,,,,,,,,,,,,,,,,,,,,,,,,,,,,,,,,,,
,,,,,,,63f77dc98bfabd95812edc2c,6842bb14e92beec218b6796a,2025-06-06_10h55.50.214,shape_ratio,2024.1.5,Win32,59.88023952,6842b561977af9ba9b0f87ca,25.6718,56.5773,space,0.8943,,,,,,,,,,,,,,,,,,,,,,,,,,,,,,,,,,,,,,,,,,,,,,,,,,,,,,,,,,,,,,,,,,,,,,,,,,,,,,,,,,,,,,,,,,,,,,,,,,,,,,,,,,,,,
,,,,,,,63f77dc98bfabd95812edc2c,6842bb14e92beec218b6796a,2025-06-06_10h55.50.214,shape_ratio,2024.1.5,Win32,59.88023952,6842b561977af9ba9b0f87ca,,,,,,56.5783,63.2268,space,3.6298,,,,,,,,,,,,,,,,,,,,,,,,,,,,,,,,,,,,,,,,,,,,,,,,,,,,,,,,,,,,,,,,,,,,,,,,,,,,,,,,,,,,,,,,,,,,,,,,,,,,,,,,
,,,,,,,63f77dc98bfabd95812edc2c,6842bb14e92beec218b6796a,2025-06-06_10h55.50.214,shape_ratio,2024.1.5,Win32,59.88023952,6842b561977af9ba9b0f87ca,,,,,,,,,,,63.2754,63.7439,63.7462,63.9965,63.9972,64.5781,left,0.5022,,64.5796,65.6776,0.0,0.0,0.0,1.0,1.0,0.8,,,,,,,,,,,,,,,,,,,,,,,,,,,,,,,,,,,,,,,,,,,,,,,,,,,,,,,,,,,,,,,,,,,,,,,,,,,,,,,,,,,,,,
,,,,,,,63f77dc98bfabd95812edc2c,6842bb14e92beec218b6796a,2025-06-06_10h55.50.214,shape_ratio,2024.1.5,Win32,59.88023952,6842b561977af9ba9b0f87ca,,,,,,,,,,,65.6806,66.177,66.1773,66.4304,66.4305,66.8099,right,0.3672,,66.8101,67.9109,0.0,1.0,1.0,0.0,1.0,0.2,,,,,,,,,,,,,,,,,,,,,,,,,,,,,,,,,,,,,,,,,,,,,,,,,,,,,,,,,,,,,,,,,,,,,,,,,,,,,,,,,,,,,,
,,,,,,,63f77dc98bfabd95812edc2c,6842bb14e92beec218b6796a,2025-06-06_10h55.50.214,shape_ratio,2024.1.5,Win32,59.88023952,6842b561977af9ba9b0f87ca,,,,,,,,,,,,,,,,,,,,,,,,,,,,67.9131,72.5802,space,1.6434,,,,,,,,,,,,,,,,,,,,,,,,,,,,,,,,,,,,,,,,,,,,,,,,,,,,,,,,,,,,,,,,,,,,,,,,,,,,,,,,,,
,,,,,,,63f77dc98bfabd95812edc2c,6842bb14e92beec218b6796a,2025-06-06_10h55.50.214,shape_ratio,2024.1.5,Win32,59.88023952,6842b561977af9ba9b0f87ca,,,,,,,,,,,72.6249,73.0959,,,73.3501,73.7637,left,0.4016,,,,,,,,,0.1,,,,,,73.0984,73.35,73.7663,"[-0.0013379136216274314,0.16328538356956554]",4.0,"[0.11244211326909997,-0.13790727227915672]",4.0,"[-0.1565983991956736,-0.01610697923454537]",4.0,"[-0.02114172958530098,-0.06566963651123144]",4.0,"[0.08851170906097347,0.07124183939735122]",4.0,"[0.0496515652922472,0.08815475534397182]",4.0,"[0.0789982713494915,0.15543647118840395]",4.0,"[-0.039171190388837346,-0.1403808466324696]",4.0,"[0.13444135198951065,-0.0249157957121931]",4.0,"[-0.15318391760947855,0.09492386107931516]",4.0,"[-0.08694601804753825,-0.0038338346702810615]",4.0,"[0.03906339602082797,0.030700608673641407]",100.0,"[0.034100261415589625,-0.06568308284744387]",4.0,"[0.08731092762673846,0.01351035398617269]",4.0,"[-0.010757816564169465,-0.187990441900398]",4.0,"[-0.11089801621327786,-0.1192272617739654]",4.0,"[-0.0979393759339386,0.1468405650437006]",4.0,"[0.07205252260699999,-0.1275040591456613]",4.0,"[-0.11619540219542815,0.03351844821989086]",4.0,"[0.1362032084673546,-0.08417033761116774]",4.0,"[0.07112789975163186,-0.05017639680319633]",4.0,"[0.01598593805016186,-0.13342455799754208]",100.0,"[0.15352220028350272,0.09410052621027214]",4.0,"[0.18696005358841197,0.06125289109038295]",4.0,"[-0.0013948131555018843,0.11087856501108073]",4.0,"[-0.13665273494892316,-0.05769985315501348]",4.0,"[-0.02980575175265702,0.021417580010889337]",4.0,"[0.044688568534084434,-0.017020373647402002]",4.0,"[0.053218331142943734,0.19238397573195884]",4.0,"[0.18896381534569825,-0.048501290670772385]",4.0,"[-0.04679478938556161,0.1849885398938579]",4.0,"[-0.09805520767825263,0.07297448922090254]",100.0,"[0.02,0.02]",74.8639,0.0,0.0,0.0,194.0,1.0,,,,,,,
,,,,,,,63f77dc98bfabd95812edc2c,6842bb14e92beec218b6796a,2025-06-06_10h55.50.214,shape_ratio,2024.1.5,Win32,59.88023952,6842b561977af9ba9b0f87ca,,,,,,,,,,,74.8654,75.3638,,,75.6158,76.2136,right,0.5854,,,,,,,,,0.4,,,,,,75.3642,75.6157,76.2139,"[0.12732200944236496,-0.07240946005107579]",100.0,"[-0.10371985847008763,-0.0190803754447812]",4.0,"[-0.06300278930157803,0.091514724516505]",4.0,"[-0.024421491390306898,-0.0923394479044858]",4.0,"[0.0409402027747214,0.11630874219625993]",4.0,"[-0.12836209042829602,0.09364136840172835]",4.0,"[-0.11288725583851751,0.15192409641194182]",4.0,"[-0.02924119740863767,0.0574182742249982]",100.0,"[-0.027294665216328926,-0.01235077494240181]",100.0,"[0.13673284192595805,-0.014724056157049114]",100.0,"[-0.02249126834249579,0.1469132335304691]",4.0,"[0.0982112404339482,0.03114296934615147]",4.0,"[-0.06930467356334373,0.011265933455380132]",100.0,"[0.010742130305205363,-0.05348497281893779]",4.0,"[-0.06766889466081175,-0.17847325147406443]",4.0,"[0.035848388601702294,-0.0027377295115082402]",4.0,"[0.13067169015029975,-0.11722598961367514]",100.0,"[-0.06834128746042008,0.13127658797001002]",100.0,"[0.13550195424052575,0.11987250969266852]",4.0,"[-0.17192989254869778,0.03970382283528662]",4.0,"[0.10249801091151042,0.08643614008147417]",4.0,"[-0.11539400352106283,-0.13544944771584722]",100.0,"[0.07772714866321831,-0.09326606169869905]",4.0,"[0.08712088035072411,0.171269268985377]",100.0,"[0.1335551928795012,0.05351385574960241]",4.0,"[-0.004189578562955675,-0.16183649724906635]",100.0,"[0.19000609969285004,-0.03589345221852775]",100.0,"[0.040497243033039525,-0.1856107822210956]",4.0,"[-0.1390988180974694,0.0023803292978962]",100.0,"[0.17830877893536332,0.055283289877283225]",4.0,"[-0.05856595534158928,-0.12454091120129672]",100.0,"[0.07111188889261434,-0.15919588512339541]",4.0,"[0.02,0.02]",77.3136,0.0,1.0,1.0,161.0,1.0,,,,,,,
,,,,,,,63f77dc98bfabd95812edc2c,6842bb14e92beec218b6796a,2025-06-06_10h55.50.214,shape_ratio,2024.1.5,Win32,59.88023952,6842b561977af9ba9b0f87ca,,,,,,,,,,,77.3158,77.8139,,,78.0649,78.5977,right,0.5191,,,,,,,,,0.55,,,,,,77.8141,78.0648,78.5981,"[-0.15455240909070225,0.010127211958316434]",4.0,"[0.07786922658614394,0.11460783893886237]",4.0,"[0.025850551574160385,-0.012028766552613623]",100.0,"[0.09897178525209427,0.15223058880213533]",4.0,"[0.16589300065194335,-0.08573611347949449]",100.0,"[-0.09304910771420136,0.058716411271146275]",4.0,"[-0.16438200122444066,-0.08841156372690717]",100.0,"[-0.07487977100809273,0.104314456763063]",100.0,"[0.018548384671501855,-0.07565946908694748]",100.0,"[0.0296311233610724,0.08302377285474848]",100.0,"[0.11055271974915364,0.06398923126037695]",100.0,"[-0.09529864185116388,-0.011151481584080958]",100.0,"[-0.021134236636552707,0.03594586914862463]",100.0,"[-0.04887621020134645,-0.021403994473594593]",4.0,"[0.14839498432005313,0.09432165422565032]",4.0,"[-0.14915923666045397,-0.04777226696037861]",100.0,"[-0.1471615791449027,0.11681249701438907]",100.0,"[0.1713460247272643,0.0483125626319457]",100.0,"[-0.11769337821886178,-0.10675882391250809]",4.0,"[0.06796122516020715,0.007380943767162543]",4.0,"[-0.004926637822898549,-0.13113912392479476]",4.0,"[0.07638909241874038,-0.05274943600817911]",4.0,"[-0.01682149964552207,0.16601412247916675]",100.0,"[-0.13361714773576777,0.06722135335628455]",4.0,"[-0.1125460863930913,-0.06398938429962327]",100.0,"[0.1673444359000412,-0.038626346944660175]",4.0,"[0.0534973228137721,-0.10643783884338008]",4.0,"[-0.05050610989297007,-0.19220173499626703]",100.0,"[0.06856606193248616,-0.14474981185542624]",100.0,"[0.013127071416911251,-0.18510017229257542]",4.0,"[0.030575797974872004,0.14479616410184895]",100.0,"[0.19623070745601764,-0.0024038165550354924]",100.0,"[0.02,0.02]",79.6978,0.0,2.0,2.0,72.0,1.0,,,,,,,
,,,,,,,63f77dc98bfabd95812edc2c,6842bb14e92beec218b6796a,2025-06-06_10h55.50.214,shape_ratio,2024.1.5,Win32,59.88023952,6842b561977af9ba9b0f87ca,,,,,,,,,,,79.7001,80.1981,,,80.4506,80.9987,right,0.5347,,,,,,,,,0.9,,,,,,80.1981,80.4504,80.999,"[0.026422776115344566,-0.02029520104767746]",100.0,"[-0.07360224952822753,0.0672288837296429]",4.0,"[0.06646754704345527,0.024500083921961745]",100.0,"[0.13491095807672016,-0.1225371858542287]",100.0,"[-0.1049201370267974,0.027127287068456653]",100.0,"[0.0038072890085178754,-0.12280288874398775]",100.0,"[-0.0812836917633056,0.12795374902343168]",100.0,"[0.08270530416107735,-0.019330297285550573]",4.0,"[-0.058660611205033686,-0.17912982301726965]",100.0,"[0.06446691320666764,-0.15105690859748616]",100.0,"[-0.008263830055630375,0.03477075565525315]",100.0,"[0.19015323426587244,-0.037961946142152043]",100.0,"[0.15002665650834635,0.06765320978391476]",100.0,"[0.022141335455511887,0.19826109622958285]",100.0,"[-0.025679165640060668,-0.040514134027953105]",100.0,"[-0.08454611911461397,-0.10511847473097073]",100.0,"[-0.0633137666399354,0.1782454090487043]",100.0,"[0.09677887058332556,-0.09270781602998303]",4.0,"[0.03864628300143465,-0.18214283585558663]",100.0,"[-0.032505956414078274,0.12926452118471451]",100.0,"[-0.07115477579481891,-0.061841991800391787]",100.0,"[0.06745165183270233,0.175902645684128]",100.0,"[-0.01030504683759148,0.16713188878122637]",100.0,"[0.1446373038693839,-0.008368017613819822]",100.0,"[-0.08170684164656125,-0.01975207147876173]",100.0,"[-0.14693950558935667,-0.07619154084810602]",100.0,"[0.009367857807393274,0.08307316248910918]",100.0,"[0.045601312104689984,-0.1045674737471359]",100.0,"[-0.031337648700883285,-0.09534429615035497]",100.0,"[-0.162479446214438,0.08935930968530378]",100.0,"[0.005724521329861009,-0.0682245954547514]",100.0,"[0.11365065378173611,0.040990828025539036]",100.0,"[0.02,0.02]",82.0989,0.0,3.0,3.0,6.0,1.0,,,,,,,
,,,,,,,63f77dc98bfabd95812edc2c,6842bb14e92beec218b6796a,2025-06-06_10h55.50.214,shape_ratio,2024.1.5,Win32,59.88023952,6842b561977af9ba9b0f87ca,,,,,,,,,,,82.1011,82.5986,,,82.8504,83.4323,left,0.5666,,,,,,,,,0.6,,,,,,82.599,82.8502,83.4325,"[0.09878884220327928,-0.07089571102413082]",100.0,"[-0.08619430165321396,-0.16129992866148674]",4.0,"[0.13081346983258238,0.0744036824470838]",100.0,"[0.02377539064943619,0.1874112597918156]",100.0,"[-0.035297611251796326,-0.1556424014612376]",100.0,"[0.001007299618310739,-0.04587029077687449]",4.0,"[-0.03451797638267236,0.11075736234681237]",100.0,"[0.09199031323540104,-0.12988655782768335]",100.0,"[-0.14861889016222235,0.08275722318494612]",4.0,"[0.1041571038461976,0.020750268094110964]",100.0,"[0.05628607953053557,0.006819467852487533]",100.0,"[0.08013485423419223,-0.026821817544233302]",4.0,"[-0.05313181061876694,0.154434485687595]",100.0,"[0.05295820345586118,-0.10341604278188393]",100.0,"[0.0378628102583859,0.1257339825214469]",100.0,"[-0.14655923621411776,-0.09210596492239741]",4.0,"[0.1418670928022116,-0.03214813239321688]",4.0,"[0.14000347122609078,0.13640756654673192]",100.0,"[-0.10335490055958407,-0.03849784152951979]",4.0,"[-0.10300750618633454,0.027648164188729972]",4.0,"[-0.09863421298371798,0.15749420608838743]",4.0,"[-0.07177979431001946,-0.06671036810911345]",100.0,"[-0.03243097888366795,0.1960723951109494]",100.0,"[0.1473319813099648,-0.12076387950114904]",100.0,"[0.1743319032682897,0.05095501795349284]",4.0,"[-0.05632487774120735,0.004738679838179581]",100.0,"[-0.032808380717649126,-0.07816676612507557]",4.0,"[-0.06501398478877332,-0.11286754980269616]",100.0,"[0.05482139048937551,-0.19105819938414792]",4.0,"[0.09798400012623643,0.17130428422385183]",4.0,"[0.18480218847159682,-0.06136298544354978]",100.0,"[-0.018195863178020865,0.02584953691590584]",100.0,"[0.02,0.02]",84.5317,0.0,4.0,4.0,45.0,1.0,,,,,,,
,,,,,,,63f77dc98bfabd95812edc2c,6842bb14e92beec218b6796a,2025-06-06_10h55.50.214,shape_ratio,2024.1.5,Win32,59.88023952,6842b561977af9ba9b0f87ca,,,,,,,,,,,84.5324,85.0324,,,85.2879,85.6333,left,0.3331,,,,,,,,,0.1,,,,,,85.0324,85.2877,85.6335,"[-0.16640882659797027,0.039036909275942354]",4.0,"[0.06732656177703783,-0.16402935074890282]",4.0,"[-0.07919640914160368,-0.14010539323045124]",4.0,"[0.11600864073723019,-0.0221420541835621]",4.0,"[0.002500936666893038,-0.05335017327643448]",4.0,"[0.04619836872689245,0.07247709393418984]",4.0,"[0.01703805578099743,0.17448676598998764]",4.0,"[-0.0941004692330239,0.06059111478084284]",4.0,"[-0.1528779711959838,0.11094381081439089]",4.0,"[0.06248037118390156,0.14074507884962772]",4.0,"[-0.16529028301527787,-0.0828392724887437]",100.0,"[0.02656428072644266,-0.12368826267196434]",100.0,"[0.0834839709633552,0.004913684138871581]",4.0,"[0.004544557335735563,0.034183137358628206]",4.0,"[0.1346901999786305,0.047654884398902746]",4.0,"[0.10810794208413928,0.09781908880885198]",4.0,"[-0.10583194502692567,-0.0644833839900751]",4.0,"[-0.05342192795068363,0.03724636928672378]",4.0,"[-0.05483675228859354,0.16061811371041076]",4.0,"[-0.07937994392592608,0.1045860869350049]",4.0,"[0.07912065546355011,-0.05137553420830023]",100.0,"[0.13496578098562018,-0.09359292609471594]",4.0,"[0.18317902017109639,-0.06781654470612844]",4.0,"[-0.075130703962255,-0.03160096575135276]",4.0,"[0.19835177247781247,-0.021004936401908904]",4.0,"[-0.023360082984689553,-0.00994429115938063]",4.0,"[-0.06996174336954632,-0.09831470420413746]",4.0,"[-0.1080542470445489,0.1437371768367238]",4.0,"[0.015159261313443511,0.11968442698125785]",4.0,"[0.1186003219302378,0.1477249750136349]",4.0,"[-0.13952312603511646,0.007104848215569267]",4.0,"[-0.15158102304673451,-0.037858721842622796]",4.0,"[0.02,0.02]",86.7347,0.0,5.0,5.0,191.0,1.0,,,,,,,
,,,,,,,63f77dc98bfabd95812edc2c,6842bb14e92beec218b6796a,2025-06-06_10h55.50.214,shape_ratio,2024.1.5,Win32,59.88023952,6842b561977af9ba9b0f87ca,,,,,,,,,,,86.7366,87.2329,,,87.4837,88.0007,right,0.5031,,,,,,,,,0.6,,,,,,87.2329,87.4836,88.001,"[-0.0994599551640204,0.08160822100609125]",100.0,"[0.0013564910516074091,0.08705117645664799]",4.0,"[-0.04161383328975633,-0.09036251189423881]",100.0,"[0.0545014422554383,0.014083673381334589]",4.0,"[-0.029160972505826842,-0.1961795815901899]",100.0,"[0.06409346817148719,-0.1381957317560561]",100.0,"[0.051793459117823924,-0.18380200474951086]",100.0,"[-0.04987770325667432,-0.15518426440049504]",100.0,"[-0.17789751009996804,0.057105444238950594]",100.0,"[0.13036930340448558,-0.03736548435875002]",4.0,"[-0.07612435381344151,0.16935159524818827]",4.0,"[-0.08102237124307347,-0.11724763428677829]",4.0,"[-0.18935028137909404,-0.03046654221711632]",4.0,"[-0.11208193435608875,0.14164674487588713]",100.0,"[0.0552846007533167,-0.06585655472770231]",100.0,"[0.014372307493913473,0.197043484181068]",100.0,"[0.09805092138833457,0.03580286676630065]",4.0,"[-0.020086482678662334,0.0029214274984698425]",100.0,"[0.1189050697540001,-0.13078651498284713]",4.0,"[0.006996966614078758,-0.1560803564508458]",100.0,"[0.18837396691901057,0.0034004894434459237]",100.0,"[0.033089490998104716,-0.02879125579199777]",100.0,"[-0.13299076574066035,-0.0336246347799288]",100.0,"[0.0031701002530854726,-0.0689838230906869]",100.0,"[0.09665709865261393,-0.010497155338532809]",100.0,"[0.07315214993173318,0.13105587504641605]",100.0,"[0.14310822811013515,0.007077972065550642]",4.0,"[0.12405393303752417,0.07733625996417505]",100.0,"[-0.16177222117465115,-0.07126788205836747]",4.0,"[0.04605431040239897,0.16888543774210016]",4.0,"[0.15074132986477035,-0.09958199208857772]",4.0,"[-0.14460860751970236,0.016930554114810457]",4.0,"[0.02,0.02]",89.1022,0.0,6.0,6.0,37.0,1.0,,,,,,,
,,,,,,,63f77dc98bfabd95812edc2c,6842bb14e92beec218b6796a,2025-06-06_10h55.50.214,shape_ratio,2024.1.5,Win32,59.88023952,6842b561977af9ba9b0f87ca,,,,,,,,,,,89.1042,89.6014,,,89.8536,90.2676,left,0.4022,,,,,,,,,0.9,,,,,,89.6015,89.8535,90.2679,"[-0.16269047739642187,-0.08684383761856708]",100.0,"[0.011143878088582799,0.17244182078801704]",4.0,"[0.11489776398595794,0.15736622216779436]",100.0,"[-0.028058012194455025,-0.08622950530418912]",100.0,"[-0.049391343500205784,-0.18295568280355964]",100.0,"[0.07208287252138483,0.1626368445085191]",100.0,"[0.06529808444171732,0.07138080187699722]",100.0,"[0.17676081594637966,0.03711895450448451]",100.0,"[0.1430766164910467,0.07356957386007092]",100.0,"[-0.15223507548325219,-0.02153089952047939]",100.0,"[-0.10008329017269123,0.08448869748203991]",100.0,"[0.08065512908015221,-0.1729174907398161]",100.0,"[-0.16207998718589553,0.06044198198708693]",100.0,"[-0.09742370500862974,0.03868045816760606]",100.0,"[0.022980037236766844,-0.0060897746628992165]",100.0,"[-0.03014819405141361,0.1743780310240752]",100.0,"[-0.004412350386095054,0.09590902282152891]",100.0,"[-0.04616184057856411,0.027546678398849295]",100.0,"[0.09829162414111828,0.09562573522971447]",100.0,"[0.009691899680661887,-0.12914465642939196]",100.0,"[-0.058636888618970484,-0.1368690158890929]",100.0,"[-0.13719470331940378,0.10400313346542506]",100.0,"[0.025090353523612947,-0.16711916883281128]",4.0,"[0.09398995823045235,-0.02449321846984089]",4.0,"[-0.06302357093321342,-0.017388021479894454]",100.0,"[0.060656920917801546,-0.12778246409784202]",100.0,"[-0.07932582988034262,0.16157406499221172]",100.0,"[0.11773566490380807,0.03354179321896846]",100.0,"[-0.1928991696895633,-0.006229382784464455]",100.0,"[-0.0913913590740707,-0.16755822931650957]",100.0,"[0.025549804045316264,-0.08968678995064337]",100.0,"[0.1298365438168635,-0.07463637088112952]",100.0,"[0.02,0.02]",91.3683,0.0,7.0,7.0,2.0,1.0,,,,,,,
,,,,,,,63f77dc98bfabd95812edc2c,6842bb14e92beec218b6796a,2025-06-06_10h55.50.214,shape_ratio,2024.1.5,Win32,59.88023952,6842b561977af9ba9b0f87ca,,,,,,,,,,,91.3709,91.8686,,,92.1208,92.9013,right,0.7641,,,,,,,,,0.5,,,,,,91.8688,92.1207,92.9016,"[-0.015773652765237012,0.11502606541530631]",100.0,"[0.1461563514411089,0.13641381179124115]",100.0,"[-0.010471047129663905,-0.04314827118470453]",4.0,"[-0.14115177619613697,-0.12218771070841458]",4.0,"[0.1395088051447571,0.028649948350158622]",4.0,"[-0.14770846941870164,0.014955333722744466]",100.0,"[0.027314396759641164,0.04715342745283397]",100.0,"[-0.07114100740607582,-0.16295747655538576]",100.0,"[0.036559835340727355,-0.0926179951410636]",100.0,"[-0.16647263032476473,-0.02805296084260156]",100.0,"[-0.06592255618585473,0.10833490931175181]",4.0,"[-0.0028482325995372857,0.016915373468986965]",4.0,"[-0.11721370462089155,0.14112225942764955]",100.0,"[0.07847172494223706,0.15706350438256855]",4.0,"[0.1619736726968022,0.06924540875598409]",100.0,"[-0.13930453225837414,-0.0748716576959938]",100.0,"[0.16578069520541186,-0.024328825210716783]",100.0,"[-0.10947566368851869,0.0601705984319573]",100.0,"[-0.05316036590725047,0.04967099036897977]",100.0,"[0.06443493309631025,-0.1357302880137238]",4.0,"[-0.0841768467409016,-0.00502362940138855]",100.0,"[-0.15446460690652336,0.060584755861969465]",4.0,"[0.09077722331995762,-0.09216193045577081]",4.0,"[0.008562310149218424,-0.15255328531144152]",100.0,"[0.09109100875019287,0.08116048393222984]",4.0,"[0.13023247146510808,-0.05723617858873322]",4.0,"[0.14671140560053214,-0.11533728426826044]",4.0,"[0.02930616809378879,-0.051285766650296556]",4.0,"[0.010227317852643627,0.16246109548148785]",100.0,"[-0.023440497847781492,-0.12349177792772463]",4.0,"[0.09377326414987547,0.027684815441608685]",4.0,"[0.10194765801607245,-0.16272209665466988]",4.0,"[0.02,0.02]",94.0019,0.0,8.0,8.0,101.0,1.0,,,,,,,
,,,,,,,63f77dc98bfabd95812edc2c,6842bb14e92beec218b6796a,2025-06-06_10h55.50.214,shape_ratio,2024.1.5,Win32,59.88023952,6842b561977af9ba9b0f87ca,,,,,,,,,,,94.004,94.5014,,,94.7529,95.169,left,0.4007,,,,,,,,,0.1,,,,,,94.5014,94.7529,95.169,"[0.03349401680223484,0.0847966694181691]",4.0,"[-0.1504058593744148,0.08882266141117795]",4.0,"[-0.052034898656107734,0.04020582582317452]",4.0,"[0.07820303385157229,0.07961065744167489]",4.0,"[-0.06247325335637945,0.12905906027833502]",4.0,"[0.03564442521216628,-0.0243097491892133]",100.0,"[-0.07271816927457407,-0.026266048411226386]",4.0,"[0.05590921984986538,0.14424504194673393]",4.0,"[0.10992369187565043,-0.07922589733560406]",4.0,"[-0.15428271664364673,-0.05888762897881844]",4.0,"[-0.07659121428696898,-0.10581477250271865]",4.0,"[-0.1990914056531877,-0.00871756332060194]",4.0,"[-0.1416739943143653,0.03948405278437238]",4.0,"[0.16752565598454147,-0.07577623120472848]",100.0,"[-0.19114407038341769,0.05685963533157122]",4.0,"[-0.1232839112325615,-0.004299128590675305]",4.0,"[-0.008339150521194584,0.07622109027738734]",4.0,"[-0.025484930388925894,-0.15276738333955245]",4.0,"[-0.08713313691559126,0.09130321411588962]",4.0,"[0.11382598081262006,0.00355047572320325]",4.0,"[0.018649487458118123,-0.07571512412957042]",4.0,"[-0.026905864927868398,-0.028112143894142197]",4.0,"[0.07000000608041279,-0.17481380568543436]",4.0,"[-0.04459299191717049,0.17541137436889495]",4.0,"[0.01472319650287172,0.020520109727974797]",4.0,"[0.13749481575371708,-0.11131859286253089]",4.0,"[0.02522809404813716,-0.18493422581410615]",4.0,"[0.07879102892287182,-0.041506362895376764]",4.0,"[0.1789916844007784,0.07488766262254759]",100.0,"[-0.0397598660338917,-0.19026740160564073]",4.0,"[0.10754344167375854,0.15866346412210847]",4.0,"[0.1534110083549859,0.10691785062418288]",4.0,"[0.02,0.02]",96.2697,0.0,9.0,9.0,185.0,1.0,,,,,,,
,,,,,,,63f77dc98bfabd95812edc2c,6842bb14e92beec218b6796a,2025-06-06_10h55.50.214,shape_ratio,2024.1.5,Win32,59.88023952,6842b561977af9ba9b0f87ca,,,,,,,,,,,96.272,96.7699,,,97.0224,97.5033,right,0.4663,,,,,,,,,0.6,,,,,,96.7699,97.0223,97.5035,"[-0.030534112946525527,0.1665186237575457]",4.0,"[-0.07101336027316354,0.0964848802695288]",4.0,"[-0.008328374103831991,-0.17340269731822594]",100.0,"[0.1353335083115572,-0.06393631660384877]",100.0,"[0.08188317158377373,-0.08431978098956451]",100.0,"[0.051485616789006296,0.17923407164933047]",100.0,"[-0.15795836608818004,-0.08063212284523856]",100.0,"[-0.07702661072471295,0.03381914140134535]",4.0,"[-0.15780995847467483,0.08312691835521148]",100.0,"[0.1496042562457688,0.10491943465820813]",100.0,"[0.10165984874586033,0.12415680736917543]",4.0,"[0.1009572901504742,0.03636547551890449]",100.0,"[-0.003285274964819397,0.11974720411113741]",4.0,"[0.06683562328229796,-0.1833216503583082]",100.0,"[0.022299186303223164,0.03347541418591989]",4.0,"[-0.12005858919817046,0.1490925067764173]",4.0,"[0.005749843095943001,-0.08395150270100364]",100.0,"[0.031427748434140194,0.0811047093257613]",100.0,"[0.10102105133906317,0.08390682404794357]",4.0,"[-0.03485304689985118,-0.13239918119029462]",4.0,"[0.1017795638714001,-0.1356106725193118]",100.0,"[-0.16957778483704808,-0.03253917553188308]",100.0,"[-0.01216368531636342,-0.01701978135066423]",100.0,"[0.17856045507217513,-0.05039828900607666]",100.0,"[-0.0652378153718728,-0.048505962374191615]",4.0,"[0.15012438271240686,-0.014462866004781758]",100.0,"[0.08115976765232359,-0.01123133063398317]",100.0,"[-0.03928607501972009,0.049475911798995416]",100.0,"[-0.13510732468022799,0.011316854672496912]",4.0,"[0.17769009885701992,0.03739890063168626]",4.0,"[0.009274157251549583,0.18068727906674295]",4.0,"[-0.1922467327974748,0.04111169573403626]",100.0,"[0.02,0.02]",98.6035,0.0,10.0,10.0,44.0,1.0,,,,,,,
,,,,,,,63f77dc98bfabd95812edc2c,6842bb14e92beec218b6796a,2025-06-06_10h55.50.214,shape_ratio,2024.1.5,Win32,59.88023952,6842b561977af9ba9b0f87ca,,,,,,,,,,,98.6057,99.1037,,,99.3569,100.1231,right,0.7527,,,,,,,,,0.6,,,,,,99.1038,99.3566,100.1233,"[0.10472897506450106,-0.1699619808485686]",4.0,"[0.15231293111149172,0.11645166552803105]",4.0,"[-0.0216547622991426,-0.10486892782492177]",100.0,"[0.031223475886811815,-0.16693122841880112]",100.0,"[-0.13026042945235713,-0.03797251080822594]",100.0,"[-0.030949661777044044,0.13382137075505632]",100.0,"[0.058720738865226614,0.1905387251764737]",4.0,"[0.04833439126351343,0.10809784040397746]",100.0,"[0.19546395845283634,-0.011103266807400161]",4.0,"[0.09883789576652022,0.0701541153210268]",100.0,"[-0.11088288920676685,0.07484530246069555]",4.0,"[0.09044134001327285,0.03005593719105277]",100.0,"[-0.0763429607186019,-0.08995048409815921]",100.0,"[-0.1845716578606663,-0.03724400936946171]",100.0,"[-0.038546262576086954,-0.03579845545128838]",4.0,"[-0.05610507968086275,0.0062137709485641885]",100.0,"[-0.023610519620765793,-0.15277520276724954]",4.0,"[-0.19091313433124155,0.047933534732227195]",100.0,"[0.11880150945110649,-0.13114959641364796]",100.0,"[0.011829977992483594,0.021589703356867506]",100.0,"[0.03629933516655814,-0.07439158389847866]",4.0,"[-0.055912245878125266,0.187355727164143]",4.0,"[-0.07716235455771811,0.05167277056319189]",100.0,"[-0.059404929818419654,-0.18537062226143944]",100.0,"[-0.16297718032502517,0.008980024223227693]",100.0,"[0.1084735007632923,0.14379655033433322]",4.0,"[0.12358655693991001,-0.08946554125357357]",4.0,"[-0.12730908041520067,-0.07828471181653712]",100.0,"[0.0761388333591712,-0.11240707137571147]",100.0,"[-0.017944643220983682,0.17216826081645897]",4.0,"[-0.07348092497296164,-0.14104111885983298]",100.0,"[-0.1228881696284273,-0.14862968656654418]",4.0,"[0.02,0.02]",101.2214,0.0,11.0,11.0,57.0,1.0,,,,,,,
,,,,,,,63f77dc98bfabd95812edc2c,6842bb14e92beec218b6796a,2025-06-06_10h55.50.214,shape_ratio,2024.1.5,Win32,59.88023952,6842b561977af9ba9b0f87ca,,,,,,,,,,,101.2239,101.7212,,,101.9747,102.5558,right,0.5688,,,,,,,,,0.55,,,,,,101.7212,101.9746,102.5559,"[0.11779156083504898,0.10013140816350558]",4.0,"[-0.16678320439499617,0.09368718352862161]",100.0,"[-0.13243749000315516,-0.09230083209635384]",4.0,"[-0.10208553338067923,0.043764966623856566]",100.0,"[0.0802582628479472,0.11579398592130836]",4.0,"[-0.1083041842828936,-0.051318435449378134]",100.0,"[-0.10619346624826652,-0.14398501901525848]",100.0,"[0.086483790786716,-0.10540798934527044]",4.0,"[0.09750043833316295,-0.044349586129027674]",100.0,"[0.1400806310243639,0.03534081618522112]",4.0,"[0.0020965829859892872,-0.16643841115593216]",100.0,"[-0.18581547371810866,0.04371205677304054]",100.0,"[0.007223566160581811,0.11297095339370267]",100.0,"[0.19079913651417804,-0.00393529924724332]",100.0,"[0.10215560287871707,-0.15601015800270138]",4.0,"[-0.17663726465297602,-0.022548646960066497]",100.0,"[-0.11710499001714955,0.15105320812430972]",4.0,"[-0.06936600178748542,0.01604954080461908]",4.0,"[0.14258127309780141,-0.020127088032696895]",4.0,"[0.16443862706373558,-0.09920504134596611]",4.0,"[0.06276673047329319,-0.012999111439865612]",100.0,"[-0.059222319775030965,-0.17582395049942245]",100.0,"[-0.029213784261482974,0.14529932043548202]",4.0,"[-0.05088898915033272,0.09336258406391683]",100.0,"[-0.03599144528253396,0.05227969480609317]",4.0,"[0.0590286904534697,0.028422799385741583]",100.0,"[0.01954998907086785,-0.036853971360527704]",4.0,"[0.0203545606066449,0.04006456893467264]",100.0,"[-0.09222245040938547,-0.0901140643411572]",100.0,"[0.02428813591565905,-0.09006736252277675]",100.0,"[-0.18495913810527714,-0.07367522513145464]",4.0,"[0.12954491175246977,0.14220709915126584]",100.0,"[0.02,0.02]",103.6554,0.0,12.0,12.0,84.0,1.0,,,,,,,
,,,,,,,63f77dc98bfabd95812edc2c,6842bb14e92beec218b6796a,2025-06-06_10h55.50.214,shape_ratio,2024.1.5,Win32,59.88023952,6842b561977af9ba9b0f87ca,,,,,,,,,,,103.6579,104.1551,,,104.4068,104.9918,right,0.5685,,,,,,,,,0.4,,,,,,104.1552,104.4067,104.9919,"[-0.008999882030226737,-0.15506100640549056]",4.0,"[-0.11086897579671237,-0.14704930907193386]",100.0,"[-0.06858058012747628,0.05988421206013248]",4.0,"[0.012743426810623718,0.10918633098353957]",4.0,"[0.0874031914098217,0.05290522867913904]",4.0,"[0.10560808025832571,-0.0760584098578994]",100.0,"[0.05893448119451614,0.0228407529130895]",100.0,"[-0.12647579287354985,0.13360276225856363]",4.0,"[-0.09528943746346143,-0.08800430013075108]",100.0,"[-0.03827682650167854,-0.12307169240876692]",100.0,"[-0.12441624952793666,-0.01947717244262379]",4.0,"[-0.07525731374942794,-0.046431800719113916]",100.0,"[-0.033826060225035315,0.15675148844854575]",4.0,"[0.18573806002990711,0.04193466531416426]",100.0,"[0.0009712745302657588,-0.09505189399484688]",100.0,"[-0.19186849491840255,-0.01402659804754771]",100.0,"[0.07966757039355102,-0.11436752092980715]",4.0,"[0.03544664744651278,-0.18905500302633926]",100.0,"[-0.08990979019402584,0.16477723822368237]",100.0,"[-0.09355349822023244,0.09854755442840386]",100.0,"[0.022236310269154676,-0.03327275577581529]",4.0,"[-0.024621630697784398,-0.06253243613703005]",4.0,"[0.08007599659777975,-0.031103170642499397]",4.0,"[-0.15656909554870344,-0.0746966603467377]",4.0,"[0.06886713601214048,0.16487696319737338]",4.0,"[-0.04665616937313186,0.02137359283235884]",4.0,"[-0.0038368335649934127,0.02736490925932947]",4.0,"[0.02034376626351471,0.16518157729304134]",4.0,"[0.11304843422757181,0.11093740208857607]",4.0,"[0.15232446178269085,0.0862766459171907]",100.0,"[0.12472085711415115,-0.012445475947910994]",4.0,"[0.16507193880125648,-0.0410907247672395]",4.0,"[0.02,0.02]",106.0894,0.0,13.0,13.0,179.0,1.0,,,,,,,
,,,,,,,63f77dc98bfabd95812edc2c,6842bb14e92beec218b6796a,2025-06-06_10h55.50.214,shape_ratio,2024.1.5,Win32,59.88023952,6842b561977af9ba9b0f87ca,,,,,,,,,,,106.0915,106.5896,,,106.8324,107.1726,left,0.328,,,,,,,,,0.1,,,,,,106.5896,106.8323,107.1728,"[0.06551030164048934,0.13950431291405305]",4.0,"[-0.16439034750473072,-0.049529840403243215]",4.0,"[0.03986197184720629,0.17163878918446102]",100.0,"[-0.010555528780587515,-0.18190663583336103]",4.0,"[-0.18808687246069528,0.006431532105129292]",4.0,"[-0.12037491844072364,0.04663422567305318]",4.0,"[0.1040421437443171,-0.044695339342126494]",4.0,"[-0.008961971136905713,-0.065954234436033]",4.0,"[0.02554812819219758,-0.008659000364680095]",4.0,"[0.11544430047004736,0.036840950985666164]",4.0,"[0.02327556082089215,-0.10966974553828009]",4.0,"[-0.03023023223059451,0.12273498353996865]",4.0,"[-0.10324933333781494,-0.004049026926749504]",4.0,"[0.06813090727660903,-0.10479806183150518]",4.0,"[-0.08181016743510919,0.09179243968699118]",4.0,"[0.0617269530187928,-0.027529568054116386]",4.0,"[0.14871864677394595,-0.11959148376319517]",4.0,"[0.15647127997914242,0.10493230766887765]",4.0,"[0.10643216422457166,-0.08830857488178559]",4.0,"[-0.09005500528262815,0.13792152069703198]",4.0,"[-0.06309275161231001,-0.041091677354108375]",4.0,"[-0.05447875325194264,0.0042900109557013994]",4.0,"[0.18965538480652405,0.02187443150954077]",4.0,"[-0.02434479404158836,-0.11990042128362317]",4.0,"[0.17045063351632073,-0.06100000145497385]",4.0,"[-0.14791058930530362,0.12867331200462565]",100.0,"[0.09819028495772422,-0.15381789990418218]",4.0,"[-0.12253171650766466,-0.14011261472427114]",4.0,"[-0.005674741149257046,0.1882624727316453]",4.0,"[0.050120647012953656,0.09197214632278497]",4.0,"[-0.07846481291817936,-0.13394003730218798]",4.0,"[-0.010040366530013303,0.02068515546908127]",100.0,"[0.02,0.02]",108.2732,0.0,14.0,14.0,199.0,1.0,,,,,,,
,,,,,,,63f77dc98bfabd95812edc2c,6842bb14e92beec218b6796a,2025-06-06_10h55.50.214,shape_ratio,2024.1.5,Win32,59.88023952,6842b561977af9ba9b0f87ca,,,,,,,,,,,108.2754,108.7734,,,109.0259,109.9571,right,0.9175,,,,,,,,,0.6,,,,,,108.7735,109.0258,109.9572,"[-0.050985182495174045,-0.1677392798999997]",100.0,"[0.025491698272626942,-0.0584394899163964]",100.0,"[-0.16398905468153666,-0.09783896447175072]",4.0,"[-0.17998448207997098,0.023671693147188824]",4.0,"[0.06804991225164887,-0.1763359321944488]",100.0,"[0.1212020821845123,-0.0823831314192053]",4.0,"[0.1298949767076571,-0.15021418777706624]",100.0,"[0.10612717541763457,0.05613756339207855]",100.0,"[-0.057943900320669296,0.06621200460228062]",4.0,"[0.09229496103838983,-0.02655880234564572]",4.0,"[0.02878147585226319,0.07844305769702303]",100.0,"[-0.13881434170778675,0.09719265181448047]",100.0,"[0.016461712876482428,-0.1830778199717957]",100.0,"[0.0018775061215184575,0.15881504315189787]",4.0,"[-0.0870144028859324,-0.10800271847081735]",100.0,"[-0.022768578264831578,0.10257127542481687]",100.0,"[0.1847231005468802,-0.07238239052370829]",4.0,"[0.07057866513526939,0.07757124657965446]",100.0,"[-0.08415783651974859,-0.015996959812816937]",100.0,"[-0.0489702869934624,0.16127966490205964]",4.0,"[-0.1776784968495514,-0.054959131498375925]",4.0,"[0.16407957269341858,-0.029532595291579884]",100.0,"[-0.11776294950520869,0.1424770155701525]",4.0,"[-0.010930300399421071,-0.024065577828622127]",100.0,"[0.1428841780199592,0.09782319663070389]",4.0,"[0.02539457247469002,-0.11679475932711701]",100.0,"[0.057515310492368035,0.1692417561713282]",100.0,"[0.1306010680496316,0.000658478540940434]",100.0,"[0.00017310000024914633,0.02199317032407524]",4.0,"[-0.050600162704532596,-0.07076352481817534]",100.0,"[-0.10920998919159625,-0.0506430467719934]",100.0,"[-0.09956230654915983,-0.15204074773427168]",4.0,"[0.02,0.02]",111.0573,0.0,15.0,15.0,53.0,1.0,,,,,,,
,,,,,,,63f77dc98bfabd95812edc2c,6842bb14e92beec218b6796a,2025-06-06_10h55.50.214,shape_ratio,2024.1.5,Win32,59.88023952,6842b561977af9ba9b0f87ca,,,,,,,,,,,111.0595,111.5575,,,111.8093,112.1749,left,0.3514,,,,,,,,,0.45,,,,,,111.5576,111.8093,112.175,"[0.1012696129269289,0.041683309658044516]",100.0,"[0.10740586148980497,-0.12392828968498627]",100.0,"[0.07017357817408303,0.1325318532075704]",4.0,"[0.0667300562510382,-0.08478843588951186]",100.0,"[-0.12421142293667714,0.06558395825056897]",100.0,"[0.13662519526239314,-0.04078633661880249]",100.0,"[-0.018307169881830575,0.011951603190382938]",4.0,"[-0.14898216658092456,-0.1283198240709966]",100.0,"[0.12168071761753446,0.1154302926875461]",4.0,"[0.14953000687616436,0.009180208075174771]",4.0,"[-0.0863592045172694,0.14569842338594766]",4.0,"[0.024896233157397685,-0.17430140097613428]",4.0,"[-0.017438615711238774,0.18137032475084394]",4.0,"[0.013194186542442444,0.06486630914747883]",4.0,"[-0.0386415192339813,-0.0621828892039849]",100.0,"[-0.17752300079668445,-0.09163431105589037]",4.0,"[0.04954380327089008,0.16732447539508924]",4.0,"[-0.12396015288847291,-0.02216533858963031]",4.0,"[-0.01879747165886876,0.12355290706414816]",4.0,"[-0.13656067811419964,-0.07883920262843948]",4.0,"[-0.17317247197079377,0.021530581442604103]",100.0,"[0.09046582999838199,-0.02089801155143902]",100.0,"[0.053654475095514416,0.06176031088919926]",4.0,"[-0.1681838680295424,0.07314680782273429]",100.0,"[-0.09029370248901178,-0.1494736212905624]",4.0,"[0.19307826768486464,-0.04831932135341438]",4.0,"[-0.05070504183159391,0.04793327575872693]",4.0,"[-0.09184204717887991,-0.08789602863342627]",100.0,"[-0.07115876059295254,0.010581083756014525]",100.0,"[0.17505764659164488,0.0863144498870409]",4.0,"[0.01493891266056996,-0.12840846586826682]",100.0,"[0.0889524401954943,0.08662692994414051]",100.0,"[0.02,0.02]",113.2753,0.0,16.0,16.0,132.0,1.0,,,,,,,
,,,,,,,63f77dc98bfabd95812edc2c,6842bb14e92beec218b6796a,2025-06-06_10h55.50.214,shape_ratio,2024.1.5,Win32,59.88023952,6842b561977af9ba9b0f87ca,,,,,,,,,,,113.2767,113.7754,,,114.0262,114.542,right,0.5055,,,,,,,,,0.55,,,,,,113.7755,114.0258,114.5421,"[0.187116498812916,0.006751469527901756]",4.0,"[0.10687334816897065,0.1672729479023463]",4.0,"[0.13412838012397363,0.07522682990322645]",100.0,"[-0.005734149926232819,-0.18570444374938583]",100.0,"[-0.029030527913541163,-0.11334542829724377]",100.0,"[-0.09560037711382903,-0.11582596534771286]",4.0,"[-0.026048541770417898,0.15729062105110245]",4.0,"[-0.07999499916626307,-0.021840563905223036]",100.0,"[-0.1775476899540862,0.0201123224459522]",100.0,"[0.06642496581376905,0.12080315840359257]",4.0,"[-0.13790999521868325,-0.037526277204992874]",100.0,"[-0.10460104716241626,0.14808835944388907]",100.0,"[-0.1002874333510069,0.022467796831350615]",100.0,"[0.12798027719030736,-0.05325920871408403]",100.0,"[0.061609027643820244,-0.05956184947280445]",100.0,"[-0.05630665844225012,0.08667172364215758]",4.0,"[-0.01692546955898667,-0.03950226489023779]",100.0,"[0.1472547270994827,0.1342657007851049]",100.0,"[0.14202617892881347,0.02814079325385678]",100.0,"[0.12220786645554514,-0.10846610355861265]",100.0,"[0.11167047023178962,0.001715035077379645]",100.0,"[0.16322391102468056,-0.09547447693671804]",100.0,"[-0.1414560723180017,0.07823579716728347]",100.0,"[0.05560611378045608,0.19122053118585192]",4.0,"[0.06509679482307755,0.0789006495858021]",4.0,"[0.025697274137254335,0.10651767278637375]",4.0,"[0.0365926797814972,0.01268659709718768]",100.0,"[-0.037602678948119736,0.045287177002754885]",4.0,"[0.10455516464871419,0.04284075404902324]",4.0,"[-0.13813528273792774,-0.08793662896613628]",4.0,"[0.07274038420308838,-0.16367790627775988]",4.0,"[0.035351021361876615,-0.1143771582439493]",4.0,"[0.02,0.02]",115.6423,0.0,17.0,17.0,67.0,1.0,,,,,,,
,,,,,,,63f77dc98bfabd95812edc2c,6842bb14e92beec218b6796a,2025-06-06_10h55.50.214,shape_ratio,2024.1.5,Win32,59.88023952,6842b561977af9ba9b0f87ca,,,,,,,,,,,115.6436,116.1424,,,116.3951,116.794,right,0.3881,,,,,,,,,0.5,,,,,,116.1425,116.3947,116.7942,"[-0.005038572932696158,0.14326249278608386]",100.0,"[0.04328883883823603,-0.11743494780010655]",4.0,"[-0.10884610461867492,-0.1014222023418668]",100.0,"[0.09059118923120751,0.03241945511971883]",4.0,"[0.18730808403166102,0.05937331179509289]",4.0,"[-0.08430234524819441,0.05528272928649061]",100.0,"[0.08583594551296285,-0.1391234165016128]",100.0,"[0.02108592894722879,-0.08299291883603022]",100.0,"[-0.14444199282710335,-0.011318977728681878]",4.0,"[-0.04075442848775181,-0.05064898009613088]",100.0,"[0.022482773102539988,-0.15590205280929498]",100.0,"[0.05367617488285552,-0.03427693616513325]",4.0,"[0.1188193867636785,-0.09039297888820134]",100.0,"[-0.10494025408793574,0.10707234700053513]",100.0,"[0.07273001727775895,0.09408075572555293]",4.0,"[-0.013999151373784623,0.10244247212657887]",4.0,"[-0.19272849530501485,0.02413346603179273]",4.0,"[0.06191554036622937,-0.0752254716886414]",100.0,"[-0.03883898998672025,-0.13609450278128482]",100.0,"[-0.0068448735402146105,0.18723306674811108]",100.0,"[0.12114202871536763,0.12005569050429855]",4.0,"[0.18674732487274404,-0.045983796839072597]",100.0,"[-0.1788416136782634,-0.08238374773592361]",4.0,"[0.06862184632060496,0.15946945560459702]",100.0,"[-0.04465180134310021,0.153882045016401]",4.0,"[-0.15514442838418424,0.0667153331173401]",100.0,"[0.09381084269559412,-0.02547235754127492]",4.0,"[0.14470330774983484,-0.12307173404355344]",4.0,"[0.015989520610970625,0.04456391100831604]",100.0,"[-0.016409170455243736,0.01605485450086389]",4.0,"[0.14705302430789005,-0.03595042943638221]",4.0,"[-0.0803387723736768,0.012274284898956139]",4.0,"[0.02,0.02]",117.8922,0.0,18.0,18.0,104.0,1.0,,,,,,,
,,,,,,,63f77dc98bfabd95812edc2c,6842bb14e92beec218b6796a,2025-06-06_10h55.50.214,shape_ratio,2024.1.5,Win32,59.88023952,6842b561977af9ba9b0f87ca,,,,,,,,,,,117.8933,118.3937,,,118.6449,119.31,left,0.6533,,,,,,,,,0.6,,,,,,118.3937,118.6447,119.3101,"[-0.03641312641529846,0.1841799377252568]",4.0,"[-0.01747145075689258,-0.12093128903330674]",100.0,"[0.07806555121398695,0.1293863821078537]",4.0,"[0.15620863674640248,-0.01692627032054404]",4.0,"[-0.11904107528789032,-0.03585936764724154]",100.0,"[0.09704320427970149,-0.06785831386886604]",100.0,"[-0.14109120259269928,0.09495047184306911]",4.0,"[-0.019161269413152614,0.04005846969408606]",100.0,"[0.02085613357883862,0.16067402430455233]",100.0,"[-0.12401400930410472,-0.12493567900540306]",100.0,"[0.0034639224606822323,-0.0070957452722759]",4.0,"[0.03678559764714874,0.06535583834983817]",4.0,"[0.024539664523025924,-0.09617159400348511]",4.0,"[-0.07990717784214749,0.15075343087009105]",4.0,"[-0.15348676496837232,0.037110246105930285]",4.0,"[0.0205935526265845,-0.1557209275334516]",100.0,"[0.13840727834065755,0.05285624137817716]",4.0,"[-0.07416159093277762,0.07271108325788124]",100.0,"[-0.0653679352373556,-0.18751084421789369]",100.0,"[0.18493897862964787,-0.0495098696443291]",100.0,"[-0.0056113235885929995,-0.1937436936169938]",4.0,"[0.19398718966105957,0.01259099585666314]",100.0,"[0.08960701118943956,-0.012172601316473968]",100.0,"[0.14632801843564672,-0.1229983049220904]",100.0,"[-0.19651733892616707,0.02637244034264369]",100.0,"[0.07419539377993292,0.04821308164717611]",100.0,"[0.08741613440981144,-0.16982797282081769]",4.0,"[0.1117839310415997,0.09922051727801985]",100.0,"[0.18092114875917287,0.059668442077781374]",100.0,"[-0.0580061740557084,-0.07318304374041759]",100.0,"[0.008298160359026583,-0.04946202082274206]",100.0,"[-0.0068661091288367,0.1051676399783699]",4.0,"[0.02,0.02]",120.4103,0.0,19.0,19.0,51.0,1.0,,,,,,,
,,,,,,,63f77dc98bfabd95812edc2c,6842bb14e92beec218b6796a,2025-06-06_10h55.50.214,shape_ratio,2024.1.5,Win32,59.88023952,6842b561977af9ba9b0f87ca,,,,,,,,,,,120.4127,120.9101,,,121.163,121.6277,left,0.451,,,,,,,,,0.1,,,,,,120.9102,121.1628,121.6279,"[0.16864489042484251,0.039719596724626244]",4.0,"[-0.06571844423109376,-0.16834013154972347]",4.0,"[0.0874909977639335,0.06191543044296476]",4.0,"[-0.16414231332836046,-0.07947250991693186]",4.0,"[-0.03987697414232368,-0.12019143218882626]",4.0,"[-0.07862971971666184,0.0420229391883286]",4.0,"[-0.018742406526151292,-0.06487312004017291]",4.0,"[-0.11236980166412552,-0.014427628744951532]",4.0,"[0.1695430774073514,-0.08191127687830617]",4.0,"[0.04681504667243607,-0.1565519190660981]",100.0,"[0.10330338532176589,0.13968676259382062]",4.0,"[-0.04940478294656642,0.009912295568537443]",4.0,"[-0.13143717027292667,0.11797704624170867]",4.0,"[-0.014986826288100146,0.04766723461947541]",4.0,"[-0.1752338563819709,0.054064354764753464]",4.0,"[-0.050959542471054935,0.08098616577820354]",4.0,"[-0.0032646231338963445,-0.19597295033908158]",4.0,"[-0.07869161719776062,-0.1000254769832177]",4.0,"[-0.03714756778835622,0.1347478915228449]",100.0,"[-0.11441420987930537,0.07382868553231586]",4.0,"[0.02900190866898585,0.0031347732857625694]",100.0,"[0.06866828095995049,0.10666831929710728]",4.0,"[0.12048707383926067,0.028482871798809112]",4.0,"[0.023224495889941583,0.18123454239053427]",4.0,"[-0.13314037059414313,-0.12717947422122577]",4.0,"[-0.10533367265802496,0.16031256123091264]",4.0,"[-0.1937750649089503,0.0006558506278164589]",4.0,"[-0.019223343319255175,-0.01771176314771049]",4.0,"[0.1252482081193813,-0.02719497952081889]",4.0,"[0.015031499180649397,-0.10344380229085537]",4.0,"[0.1145900260591461,-0.10534022698311124]",4.0,"[0.03173899147927199,0.14121918866652866]",4.0,"[0.02,0.02]",122.7273,0.0,20.0,20.0,192.0,1.0,,,,,,,
,,,,,,,63f77dc98bfabd95812edc2c,6842bb14e92beec218b6796a,2025-06-06_10h55.50.214,shape_ratio,2024.1.5,Win32,59.88023952,6842b561977af9ba9b0f87ca,,,,,,,,,,,122.7286,123.2279,,,123.4787,124.3284,right,0.8354,,,,,,,,,0.5,,,,,,123.228,123.4785,124.3286,"[-0.13713538009733364,-0.10786314625156349]",100.0,"[0.11930680912380941,-0.0850183782155079]",4.0,"[-0.03652199028838235,-0.08493894846458792]",100.0,"[-0.03878332453756378,-0.163510829652838]",100.0,"[-0.09570545552755262,0.016266140360230462]",100.0,"[0.10209661659979634,0.03415280190659956]",100.0,"[0.04275317225847095,0.021459810382535603]",4.0,"[0.12311970820367518,0.13752631490309708]",4.0,"[-0.09162948915151536,0.13392352525979676]",100.0,"[0.1370427982988593,0.011662455247317535]",100.0,"[-0.1624352753745132,0.025386928203206146]",4.0,"[0.15649368619724316,0.09067798658685668]",4.0,"[0.05415750401307022,0.12564237770071468]",4.0,"[-0.11069943825954177,0.060194860179340275]",4.0,"[0.10656042073224155,0.07493507241089642]",100.0,"[-0.15181833819423027,0.08561756215948425]",100.0,"[0.18334996992018754,-0.021655856736362344]",4.0,"[0.08770424911186615,-0.020397343625667877]",4.0,"[-0.036939374695767115,-0.03290817181141316]",100.0,"[-0.02434471638009234,0.17592617059980467]",100.0,"[0.08036667034537484,-0.11703899298734301]",4.0,"[0.00671034629011314,-0.02336003801738717]",4.0,"[0.01758544189192966,0.17734901470239683]",4.0,"[0.038872720267952666,-0.08867057340735011]",100.0,"[-0.052256296373871976,0.051629452479683466]",100.0,"[-0.17167853041970044,-0.02843725628122059]",4.0,"[0.09184771814216229,0.16876143725867385]",4.0,"[-0.007009167257004597,-0.198898916167624]",100.0,"[0.03270349473798158,-0.17024020551815106]",4.0,"[-0.08229197197512234,-0.15703355654477918]",100.0,"[-0.12213487097092618,-0.1473558758068647]",100.0,"[-0.0233324055500905,0.08196776562158593]",4.0,"[0.02,0.02]",125.4285,0.0,21.0,21.0,116.0,1.0,,,,,,,
,,,,,,,63f77dc98bfabd95812edc2c,6842bb14e92beec218b6796a,2025-06-06_10h55.50.214,shape_ratio,2024.1.5,Win32,59.88023952,6842b561977af9ba9b0f87ca,,,,,,,,,,,125.4308,125.9289,,,126.1803,126.5788,left,0.3847,,,,,,,,,0.1,,,,,,125.9289,126.18,126.5791,"[-0.024497043784609263,0.06309396242768388]",4.0,"[-0.16858103850702352,-0.04715697384115003]",4.0,"[-0.06728578677964851,-0.08434400277325194]",4.0,"[-0.16216834921247725,0.007484788691430749]",4.0,"[0.16431241805807098,-0.08294711120102745]",100.0,"[0.07510381649933502,0.087242902256021]",4.0,"[-0.0018928991251529112,-0.17553543553652537]",4.0,"[0.15100154534618332,0.12924374646628403]",4.0,"[0.025256547021033166,0.08241472743272081]",4.0,"[0.060188435007310276,-0.013096632953223023]",4.0,"[0.06418097060789943,-0.15287918342177995]",4.0,"[0.002291037000305465,0.19973983220607525]",4.0,"[0.1408721758438665,-0.023809856399131076]",4.0,"[-0.09619848582532425,0.16006665217301302]",4.0,"[-0.10372596726347705,-0.061843550215595754]",4.0,"[0.18711299965474673,-0.019379378265279336]",4.0,"[0.06282278512057014,0.1284820775753035]",4.0,"[0.16748204011269957,0.0869817711085194]",4.0,"[0.14583926105849787,-0.13347088690290482]",4.0,"[-0.036896269755303586,0.17993762595859764]",4.0,"[-0.026682767304121474,-0.029276249211983803]",4.0,"[0.11963685877104263,0.026810328363951252]",4.0,"[-0.09612777554884579,0.06751914264992454]",100.0,"[0.06889870052589268,-0.06709949054048052]",4.0,"[-0.056003832913081336,-0.16345997834228448]",4.0,"[0.016957851537269513,-0.00872269706245149]",4.0,"[-0.14313435819017015,0.0687669140632645]",100.0,"[0.05751753071329664,0.045536882033475765]",4.0,"[-0.13258909986530368,-0.1493442416488955]",4.0,"[0.04746705982737006,0.19276072369505295]",4.0,"[-0.0592946010240322,-0.0048713497055588575]",4.0,"[-0.03785790679478965,-0.1145812174246034]",4.0,"[0.02,0.02]",127.6793,0.0,22.0,22.0,200.0,1.0,,,,,,,
,,,,,,,63f77dc98bfabd95812edc2c,6842bb14e92beec218b6796a,2025-06-06_10h55.50.214,shape_ratio,2024.1.5,Win32,59.88023952,6842b561977af9ba9b0f87ca,,,,,,,,,,,127.6815,128.1789,,,128.432,129.1462,right,0.6982,,,,,,,,,0.9,,,,,,128.179,128.4318,129.1463,"[0.10592699958653748,0.0013570769848965493]",100.0,"[-0.1749466684031876,-0.06781537900997803]",100.0,"[-0.020403051237677126,-0.17391813854648921]",4.0,"[0.03465169422386102,-0.12685029372891532]",100.0,"[-0.025473847024024818,0.16693178870367903]",100.0,"[-0.0883824119410441,0.013221048166137634]",100.0,"[-0.17576898019768353,0.04789330806570817]",4.0,"[-0.0036517352173217285,0.06689756616098692]",100.0,"[-0.04451678804945736,-0.1344958616835157]",4.0,"[0.00931242441823301,0.010172916752509184]",100.0,"[0.09271172502103264,-0.11434917684756132]",100.0,"[-0.063040843382756,-0.06398141761033228]",100.0,"[0.10816282246572742,0.09684310443153488]",100.0,"[-0.07686953763452371,-0.1023266901501261]",100.0,"[0.0694626952017239,-0.057049110822172684]",100.0,"[-0.1308843747063124,-0.0207324764753177]",100.0,"[-0.10313773891140258,0.10437211219587152]",100.0,"[0.05004320694448864,-0.16681802354856604]",100.0,"[0.17504392296330037,0.031220109006896833]",100.0,"[-0.13622024041324302,-0.12063548100788915]",100.0,"[0.05238204674860296,0.021912359627367286]",100.0,"[0.14993334561794913,-0.06381720222024313]",100.0,"[-0.0090479656901522,-0.0544041285464329]",100.0,"[-0.1376527421709803,0.07447437507208751]",100.0,"[0.16675393817236026,-0.012223764530107064]",100.0,"[-0.06265054220083795,0.0449676314440295]",100.0,"[-0.004815354006006117,-0.1079604582634012]",100.0,"[0.0521629072800331,0.11010790583011405]",100.0,"[0.03361659521572398,0.14840354670987513]",100.0,"[-0.10482188905595909,-0.06596132485369913]",100.0,"[-0.0834240347164891,-0.16034554267239212]",100.0,"[0.11514966899537873,0.054547532288651425]",100.0,"[0.02,0.02]",130.2465,0.0,23.0,23.0,19.0,1.0,,,,,,,
,,,,,,,63f77dc98bfabd95812edc2c,6842bb14e92beec218b6796a,2025-06-06_10h55.50.214,shape_ratio,2024.1.5,Win32,59.88023952,6842b561977af9ba9b0f87ca,,,,,,,,,,,130.2487,130.7474,,,130.9987,131.7304,right,0.7183,,,,,,,,,0.5,,,,,,130.7475,130.9986,131.7306,"[0.044605248979794246,0.011760616654254324]",100.0,"[-0.12626938008812788,-0.07486179856240027]",4.0,"[-0.07656361355682291,-0.07171222975141107]",100.0,"[0.05173810217619163,0.06666245399160942]",100.0,"[-0.07534353584305704,0.13653482539449732]",4.0,"[0.19181742373515898,-0.006475009678702333]",100.0,"[0.054858362143114764,-0.09409969167356995]",4.0,"[-0.17707608703135322,0.01947110253850546]",4.0,"[-0.031185871395436895,0.011245616741252634]",100.0,"[0.09463737373273057,-0.14859034003461824]",100.0,"[-0.008376770752779813,-0.10060272781891726]",100.0,"[0.0027589723441047995,0.13085511568807082]",100.0,"[0.014763594354046467,-0.1949453280942049]",4.0,"[0.05813892545898863,0.16833036133050988]",100.0,"[-0.0755198425842886,-0.11583837825302286]",4.0,"[-0.13186359105162343,0.11134226140456956]",4.0,"[-0.14947384380267315,-0.03245259610018379]",100.0,"[0.15030683895468297,-0.06737285174204953]",4.0,"[-0.09424986790748138,0.06126257490122731]",4.0,"[-0.055455460197495275,-0.034502046054331506]",4.0,"[0.09158204670019447,-0.042589656198385464]",4.0,"[0.13254513218156574,0.11873910109022963]",4.0,"[-0.11307967459110228,0.004456363085669111]",4.0,"[-0.11206640974359748,-0.16431521981198746]",100.0,"[-0.024727887807605792,0.07734810292573596]",4.0,"[-0.06349669127809794,0.09399759675428258]",4.0,"[0.14565717030133862,0.07937109520706202]",4.0,"[-0.005327424477357437,-0.032163964347453125]",100.0,"[0.0929569981391755,0.08137213338948178]",100.0,"[-0.1722432593398313,0.07757277412731753]",100.0,"[0.16847332859665412,-0.1043955177659241]",100.0,"[-0.027018759578624,0.159771578590615]",100.0,"[0.02,0.02]",132.8303,0.0,24.0,24.0,100.0,1.0,,,,,,,
,,,,,,,63f77dc98bfabd95812edc2c,6842bb14e92beec218b6796a,2025-06-06_10h55.50.214,shape_ratio,2024.1.5,Win32,59.88023952,6842b561977af9ba9b0f87ca,,,,,,,,,,,132.832,133.3307,,,133.5822,134.0316,right,0.4365,,,,,,,,,0.55,,,,,,133.331,133.5821,134.0318,"[-0.0427605667735394,-0.10787988109578289]",100.0,"[0.09888006870671057,0.012628304385728244]",4.0,"[-0.10752238665565339,0.00951601562337146]",100.0,"[-0.008582147925062397,0.16268110326134394]",4.0,"[-0.06307032663610919,-0.019328162020902474]",4.0,"[0.11300839943374545,0.12171012590187265]",4.0,"[-0.1040711236150077,0.1586556801136418]",100.0,"[-0.09110607879553576,0.05641807061598101]",100.0,"[0.0026013223127233473,0.04535568069783263]",100.0,"[0.05974141797183788,-0.007354054563206806]",100.0,"[-0.1294927160756098,-0.055874732730791174]",4.0,"[0.18469947701519598,0.044438680601734434]",4.0,"[-0.10775293912521894,-0.16077344502913196]",4.0,"[0.07383537770178746,0.1452190186691927]",100.0,"[0.10221864594438133,-0.11542936277538426]",100.0,"[-0.04517537442592297,0.09494953461232582]",4.0,"[-0.18654858155375156,-0.03216248223114395]",100.0,"[-0.1671227759615031,0.0828743912079562]",4.0,"[-0.16344402537140126,0.007427628281628342]",100.0,"[-0.14767713333623783,0.12034051442781786]",4.0,"[0.15124717825179002,-0.1209791248253866]",100.0,"[0.12286404060005039,-0.06622853254636664]",100.0,"[-0.043932046433997604,0.19161915498480434]",4.0,"[0.019304853263530656,-0.08958379091985895]",100.0,"[0.08779972119771995,0.06259019300016459]",100.0,"[0.01810571097195858,-0.17804581691459478]",4.0,"[0.07937790681746512,-0.051022493866222915]",100.0,"[0.14799216706260213,0.026816887534998904]",100.0,"[0.14447657564245237,-0.02370555359034315]",4.0,"[0.19826615742879877,0.006697758316800924]",100.0,"[-0.014553469465822956,-0.03836488637345061]",4.0,"[-0.04519316903007773,0.14339345543308937]",100.0,"[0.02,0.02]",135.1316,0.0,25.0,25.0,76.0,1.0,,,,,,,
,,,,,,,63f77dc98bfabd95812edc2c,6842bb14e92beec218b6796a,2025-06-06_10h55.50.214,shape_ratio,2024.1.5,Win32,59.88023952,6842b561977af9ba9b0f87ca,,,,,,,,,,,135.1342,135.6316,,,135.8832,136.532,right,0.6351,,,,,,,,,0.55,,,,,,135.6317,135.8831,136.5323,"[-0.1349528193148297,0.11300074136533403]",100.0,"[-0.12113143857800286,-0.06772918060859012]",100.0,"[-0.01655776250806867,0.1793208580975833]",4.0,"[-0.1512434421795161,0.07542200129585243]",100.0,"[-0.02405270151967283,-0.018570975925145276]",100.0,"[-0.18339658282783802,-0.07354900149306033]",100.0,"[-0.10270239267310956,0.07547523518729574]",100.0,"[-0.004432198267009713,0.05637169957659962]",100.0,"[-0.00012035817222726744,-0.17579077342126798]",100.0,"[0.17475219481093576,0.006011940761435698]",4.0,"[0.016628445844486053,-0.0606244019359348]",4.0,"[0.12403245605790142,-0.13236127379889626]",4.0,"[-0.10310791235763071,-0.012902702311418976]",100.0,"[-0.16761506882752836,-0.03666957977602409]",100.0,"[0.03563411566122817,-0.1082166554430605]",4.0,"[0.04693528685412092,0.06250765458357935]",4.0,"[-0.06610120693697354,0.11998182394972326]",4.0,"[-0.047473524618037694,-0.1523257786887215]",100.0,"[0.1343925063864565,-0.04704400302022855]",4.0,"[0.09289884562931155,0.011477089484751478]",4.0,"[-0.11215233906192226,-0.10791523326408897]",100.0,"[0.010736076748721715,0.12192023750719605]",100.0,"[0.024759045693203287,0.19453682264155353]",4.0,"[0.13737132995909082,0.04602522001806102]",100.0,"[0.1577169550704042,0.0932793131794442]",4.0,"[-0.050242386368372575,0.04380443893762462]",100.0,"[-0.024319992458100178,-0.09482780628772612]",4.0,"[0.07098781269085046,0.11243283722580155]",4.0,"[0.1635992096998623,-0.10561273564072006]",100.0,"[0.11515021564039536,0.08601071139695923]",100.0,"[-0.1924779972803523,0.04385568882568551]",4.0,"[0.09338466199332783,0.05167426221998786]",100.0,"[0.02,0.02]",137.6322,0.0,26.0,26.0,87.0,1.0,,,,,,,
,,,,,,,63f77dc98bfabd95812edc2c,6842bb14e92beec218b6796a,2025-06-06_10h55.50.214,shape_ratio,2024.1.5,Win32,59.88023952,6842b561977af9ba9b0f87ca,,,,,,,,,,,137.6342,138.1325,,,138.3855,138.7171,left,0.3184,,,,,,,,,0.1,,,,,,138.1325,138.3854,138.7173,"[-0.06728468902326262,-0.06527039637428385]",4.0,"[-0.01663575076601428,-0.11407068597742188]",4.0,"[0.0005339345394862081,0.061385485922047164]",4.0,"[-0.01752886044743806,-0.03429659772847802]",4.0,"[0.154733912236858,-0.0869547261557115]",4.0,"[-0.000934894813720548,-0.1579099515450689]",4.0,"[-0.13927157951912494,-0.09065326142456155]",4.0,"[-0.13930783812952835,-0.04919797448626045]",100.0,"[0.006613279733602404,0.1753850107262063]",4.0,"[0.03398568214056506,-0.10890471632248286]",4.0,"[0.12493766409500434,-0.13860111872834827]",4.0,"[-0.030759360987130852,0.19441408820323025]",4.0,"[-0.17313568226688564,0.06986477347653484]",4.0,"[0.05859301944096911,0.005051140726636863]",100.0,"[-0.09667052577746038,-0.14110351826113707]",4.0,"[0.14629689938342952,0.019231903997290505]",100.0,"[0.07405185552270602,0.09518951025488204]",4.0,"[0.09229302517545061,-0.047742254061283664]",4.0,"[-0.07271406102865324,0.01767769165270451]",4.0,"[0.06467283312061585,-0.1364442197453869]",4.0,"[-0.1910444455592262,-0.010813330017179837]",4.0,"[0.035509264906804984,-0.056317843074610435]",4.0,"[-0.06778446077397689,-0.11255192136804261]",4.0,"[0.1759730521587526,0.054183179391549284]",4.0,"[0.12438393263436029,0.06540944371610262]",4.0,"[0.13262419170557568,0.12932209736152542]",4.0,"[-0.06585422959902967,-0.024169623123966068]",4.0,"[-0.07800545765948805,0.17134796653129164]",4.0,"[0.03195097001615317,-0.19159757138488184]",4.0,"[-0.06945016438128895,0.11998053965565755]",4.0,"[-0.1431077235256148,0.1357828030566204]",4.0,"[-0.05394728501023356,0.07676446394301777]",4.0,"[0.02,0.02]",139.8167,0.0,27.0,27.0,205.0,1.0,,,,,,,
,,,,,,,63f77dc98bfabd95812edc2c,6842bb14e92beec218b6796a,2025-06-06_10h55.50.214,shape_ratio,2024.1.5,Win32,59.88023952,6842b561977af9ba9b0f87ca,,,,,,,,,,,139.8182,140.3168,,,140.568,140.9827,right,0.3994,,,,,,,,,0.9,,,,,,140.3169,140.5678,140.9827,"[-0.02441841452947037,0.00961031192769078]",100.0,"[0.1402030413412634,0.058373434201585125]",100.0,"[0.15026743630296352,0.0183699466627067]",100.0,"[0.0196845926898836,0.031021388709923783]",100.0,"[-0.04542899740894309,-0.0796515934755266]",100.0,"[0.0901267732149215,0.045950915882391884]",100.0,"[0.06594974703538255,-0.10466899159889928]",100.0,"[-0.09082373851190574,-0.15775071062914944]",100.0,"[0.10499742217028614,-0.16950113688288673]",100.0,"[-0.1318705722813075,-0.11225309135559333]",100.0,"[0.03412989786460308,-0.1372939369468104]",100.0,"[0.10930782434861233,-0.08797746818466991]",100.0,"[-0.05022353039469859,0.1729444914418584]",100.0,"[-0.11028899021621835,-0.01692057592178003]",100.0,"[0.18289030206899967,-0.056899547520328615]",100.0,"[-0.15093027695859806,0.07641847180312882]",4.0,"[0.08019881914047945,0.09957904111985795]",100.0,"[0.13824830566833457,0.09984325726029128]",100.0,"[0.05443664576535544,0.1455001770899414]",100.0,"[-0.17936855515346242,-0.03602058164282627]",100.0,"[-0.010421956172602454,-0.047958498476991004]",100.0,"[0.015054072511624144,0.07590289448542598]",100.0,"[-0.08593253877589774,0.10479084988506324]",100.0,"[-0.09143219048888027,0.039441341882327445]",100.0,"[-0.16783405991542924,0.0360626825137371]",100.0,"[0.026734713445379567,-0.02856486693074131]",100.0,"[0.13336369707087212,-0.13920819697167325]",4.0,"[-0.05116289794558987,-0.03375226846304491]",100.0,"[0.013076681281178688,-0.1885200645156376]",4.0,"[0.17436762783949664,-0.09696212527229824]",100.0,"[-0.03672963512491208,-0.15225492538331756]",100.0,"[0.1899636343091107,-0.00905198746919656]",100.0,"[0.02,0.02]",142.0838,0.0,28.0,28.0,26.0,1.0,,,,,,,
,,,,,,,63f77dc98bfabd95812edc2c,6842bb14e92beec218b6796a,2025-06-06_10h55.50.214,shape_ratio,2024.1.5,Win32,59.88023952,6842b561977af9ba9b0f87ca,,,,,,,,,,,142.0855,142.584,,,142.8357,143.3196,left,0.4686,,,,,,,,,0.1,,,,,,142.5841,142.8356,143.3203,"[0.006133335816717492,-0.1954917247626057]",4.0,"[-0.04833559838181429,0.003053457084104886]",4.0,"[-0.12704828017560155,0.14852215093254562]",4.0,"[0.12880286583761094,0.07144172389421186]",4.0,"[-0.1401325154185926,0.03004649464105473]",4.0,"[0.18120496261193034,-0.019102322302312517]",4.0,"[0.018235862299212147,0.03217999862891806]",4.0,"[0.08036635390425076,0.01373117890909386]",4.0,"[-0.16924947711523325,-0.054682754258659906]",100.0,"[0.0753481429267158,0.10588223525721371]",4.0,"[-0.0988117095459865,-0.10317486040394704]",4.0,"[-0.0910825125716455,0.09431753534146418]",4.0,"[-0.06523102036140002,-0.05086047527132764]",4.0,"[0.03385689478664766,-0.04617913861562987]",4.0,"[-0.0011712767510765928,-0.088120367062313]",4.0,"[-0.07939881186517933,-0.16404245602780962]",4.0,"[0.12686130726244146,-0.08723641377394385]",4.0,"[0.16489896038166982,0.025401688714555868]",4.0,"[0.09374456107779239,-0.055585832417095825]",4.0,"[0.11503601910577523,0.14168880821985871]",4.0,"[0.11444288578265296,-0.15096229171248715]",4.0,"[-0.1688411812676532,0.07578302800884802]",4.0,"[0.16647449728513303,-0.10070369594642198]",4.0,"[0.02921478817413452,0.08591081944255638]",4.0,"[-0.05988331757248986,0.15252111733497228]",4.0,"[0.045675830557424815,-0.14456330684484175]",4.0,"[-0.030400294435976204,0.19232628902733986]",4.0,"[-0.03920460405783091,0.06499929008808816]",4.0,"[-0.036489942279133256,-0.16976457337172154]",100.0,"[0.042845317363350344,0.15757516911415467]",4.0,"[-0.1265424610879473,-0.05289060022729201]",100.0,"[0.07295817659469486,0.060822796342079426]",4.0,"[0.02,0.02]",144.4176,0.0,29.0,29.0,180.0,1.0,,,,,,,
,,,,,,,63f77dc98bfabd95812edc2c,6842bb14e92beec218b6796a,2025-06-06_10h55.50.214,shape_ratio,2024.1.5,Win32,59.88023952,6842b561977af9ba9b0f87ca,,,,,,,,,,,144.419,144.9181,,,145.1692,145.753,right,0.5711,,,,,,,,,0.9,,,,,,144.9182,145.169,145.7534,"[0.1870467810129292,0.06576044222379522]",100.0,"[-0.04218319749758498,-0.04121816869241024]",100.0,"[-0.13498737792598875,-0.06956708521081596]",100.0,"[-0.13212247659880688,0.09984645978889536]",4.0,"[0.1396969101507569,-0.01722934623182285]",100.0,"[0.05473912233796574,-0.05031998286943772]",100.0,"[0.008199319800848962,0.01039978405279566]",100.0,"[0.061640313667792004,0.025018067724823543]",100.0,"[-0.15399374116790202,0.05308263135068476]",100.0,"[-0.18513065856699476,-0.0455193175727692]",100.0,"[-0.1522522281390982,-0.11373972323721301]",100.0,"[0.10605555328396221,0.14761355424012412]",100.0,"[0.051473928346772856,0.19253430506323893]",100.0,"[0.05221209839094011,0.12722957650891104]",100.0,"[0.09064374262719575,-0.10675155561852727]",100.0,"[-0.0407720867436974,0.0027070947938884985]",100.0,"[-0.07259925006159097,0.154945431726408]",100.0,"[-0.08148859366427179,-0.11550752349192861]",100.0,"[0.027161056115177846,0.05380800529732004]",100.0,"[0.06792930939642293,-0.1622683861621584]",100.0,"[-0.022874410933732582,-0.1433461439412517]",100.0,"[-0.005229785276333896,-0.09720491817579965]",4.0,"[0.09093912332640468,0.10407951376302814]",100.0,"[0.15880382757195408,0.03311327608073993]",4.0,"[0.19634441003024888,-0.017757379982518924]",100.0,"[-0.000574665593459753,-0.1839750316630103]",100.0,"[0.0995150501647476,-0.06623182606963272]",100.0,"[0.15918081417056779,0.1150838446552388]",100.0,"[0.13722031563311318,0.07672994265660077]",100.0,"[-0.027746870631708134,0.17982375643166576]",100.0,"[-0.03833052603243994,0.04603443909101609]",100.0,"[-0.04740402886593308,-0.18873583693801005]",100.0,"[0.02,0.02]",146.8518,0.0,30.0,30.0,13.0,1.0,,,,,,,
,,,,,,,63f77dc98bfabd95812edc2c,6842bb14e92beec218b6796a,2025-06-06_10h55.50.214,shape_ratio,2024.1.5,Win32,59.88023952,6842b561977af9ba9b0f87ca,,,,,,,,,,,146.8543,147.352,,,147.6028,147.9853,right,0.3676,,,,,,,,,0.9,,,,,,147.3521,147.6027,147.9856,"[0.01846043178297938,0.13201492155715897]",100.0,"[0.054088626229645616,-0.0026707341691139305]",100.0,"[-0.1451833186706049,-0.06553520992359481]",100.0,"[0.09820240040139974,0.16942357313730938]",4.0,"[0.10374009238933696,0.06459715867800382]",100.0,"[-0.037514099845111136,0.19408737940942813]",100.0,"[0.1584620327205487,0.0732160944435089]",100.0,"[0.0933783130668517,0.11386347503249225]",4.0,"[-0.028153444644536625,-0.10544949210771475]",4.0,"[-0.10618497612887516,-0.12417421697380929]",100.0,"[-0.09156176560959303,-0.07437268575657599]",100.0,"[0.12779025576046116,-0.006576456288738975]",100.0,"[-0.17706734832185833,0.057087099276115855]",100.0,"[-0.05954899291600962,-0.01161571970596122]",100.0,"[0.13418765383319306,-0.11544164428971841]",100.0,"[0.015556533960315897,0.1873564339166822]",100.0,"[-0.10469221390289549,0.07358018356144004]",100.0,"[0.05380594417377723,0.038875398752164496]",100.0,"[-0.012416782929284324,-0.004599671282319832]",100.0,"[0.1815285670307653,-0.0342847731928029]",100.0,"[0.05881294347729434,0.15716174207716344]",100.0,"[0.09545267825533389,-0.1267197751324859]",100.0,"[-0.1430940040424286,0.03466930852833541]",100.0,"[-0.048841685860788915,0.0692141057795233]",100.0,"[0.16653918055745304,0.007029175123546936]",100.0,"[0.013759883365414562,0.0823702628115751]",100.0,"[-0.1070886916004826,0.1485874006587456]",100.0,"[0.06063098896913753,-0.08832681196265492]",100.0,"[-0.023605548146481695,0.14177537842736793]",100.0,"[-0.0046883096735047805,0.04070636575227384]",100.0,"[-0.08141285856948366,-0.15739691893604776]",100.0,"[0.12480744970945383,-0.06269217516694454]",100.0,"[0.02,0.02]",149.0858,0.0,31.0,31.0,28.0,1.0,,,,,,,
,,,,,,,63f77dc98bfabd95812edc2c,6842bb14e92beec218b6796a,2025-06-06_10h55.50.214,shape_ratio,2024.1.5,Win32,59.88023952,6842b561977af9ba9b0f87ca,,,,,,,,,,,149.0882,149.5859,,,149.8381,150.3194,right,0.4673,,,,,,,,,0.45,,,,,,149.586,149.8377,150.3195,"[-0.06826027006913973,0.13451141602701705]",4.0,"[0.05379184001186878,0.14896334117817078]",4.0,"[-0.05446450867113359,0.1830598240891114]",100.0,"[-0.010772140700968226,-0.15838546034002798]",100.0,"[-0.0001869786485195049,-0.08476052064342784]",4.0,"[-0.09998849628789391,0.04671080354549868]",4.0,"[-0.1675610514503872,-0.057052437497874024]",4.0,"[-0.09977419728560737,-0.07783093762561719]",4.0,"[0.07980988439487458,-0.13078596242228496]",100.0,"[-0.13769788863878651,-0.12061864130570916]",100.0,"[0.13576090000478938,-0.048813149373871954]",4.0,"[-0.031246801843760826,-0.005440598674258758]",100.0,"[0.09762505653750228,-0.06300475651566878]",100.0,"[-0.041226560994613456,0.0996424445949525]",4.0,"[0.1306159829331556,0.11240865300155724]",4.0,"[0.14899691281939725,-0.005800876250376064]",4.0,"[-0.143235329125872,0.045570725657916644]",100.0,"[0.0719595024679972,-0.17195653528590862]",4.0,"[-0.08485226479348651,0.008416933514131314]",100.0,"[0.18533838008468245,0.04306081939193613]",100.0,"[0.18452878539192294,-0.03687131202038906]",100.0,"[0.11977528024347776,-0.14419776185305935]",4.0,"[-0.05103784951467753,-0.16354463084883972]",4.0,"[0.019272333856395506,0.04384885295995176]",100.0,"[-0.1711117554220421,0.008968251063207049]",4.0,"[0.025012805044391528,0.10963453365315924]",4.0,"[0.09232873707700373,0.049708754269672126]",100.0,"[0.03924320799310823,-0.03438669833203243]",4.0,"[-0.00030495850308995075,0.1880885149324448]",4.0,"[0.17641303375441655,0.08737408190048301]",100.0,"[-0.12890776264596,0.1403981548241828]",100.0,"[-0.06387253323564154,-0.03222926538481268]",4.0,"[0.02,0.02]",151.4201,0.0,32.0,32.0,130.0,1.0,,,,,,,
,,,,,,,63f77dc98bfabd95812edc2c,6842bb14e92beec218b6796a,2025-06-06_10h55.50.214,shape_ratio,2024.1.5,Win32,59.88023952,6842b561977af9ba9b0f87ca,,,,,,,,,,,151.4227,151.9192,,,152.1725,152.6371,left,0.4516,,,,,,,,,0.4,,,,,,151.9192,152.1723,152.6374,"[-0.000516362406761079,0.0015263402518991013]",100.0,"[-0.05035347927823288,-0.16570520415251622]",4.0,"[0.09455825594390936,-0.08932388382862014]",4.0,"[-0.12613716472424225,-0.09374078583683058]",100.0,"[-0.09777460930941123,0.1692438458837123]",100.0,"[-0.014780893707033707,-0.07957853800918657]",100.0,"[-0.06623344221523177,0.02446834538646439]",100.0,"[-0.14579222988006538,-0.055672055101440084]",4.0,"[0.13638962124920775,-0.08336430890888005]",4.0,"[-0.03325829335494841,0.1879163278324128]",4.0,"[-0.05845887269689739,0.0974783760003122]",4.0,"[0.0913051330158232,-0.010174247219137287]",100.0,"[0.140763481159756,-0.03893307744336325]",4.0,"[-0.007784920289957154,0.14827279284354278]",100.0,"[0.04182662585497049,-0.1034237956382359]",4.0,"[-0.17688824100087325,0.029932293769886736]",4.0,"[0.057187137866171224,0.0691307791832718]",4.0,"[0.1865981064310779,0.055957077989835215]",4.0,"[0.03028627591425452,-0.16321434462024273]",4.0,"[0.0455199806654146,0.11394826333405199]",100.0,"[0.07622990448197396,0.17132101794702156]",4.0,"[0.14487509070165697,0.05369166882243965]",100.0,"[0.13275220488720466,-0.14882416788170322]",100.0,"[-0.0759116860823724,-0.04379926887576376]",4.0,"[-0.1013861802357771,0.0659534843576664]",4.0,"[0.1370219432721725,0.14216733523787103]",100.0,"[-0.12902232036534872,0.030270856687912857]",100.0,"[0.024519223430232436,0.19301120447443462]",4.0,"[0.05104510777269302,0.028276509083109327]",4.0,"[-0.07823142081128366,-0.09313144847558162]",4.0,"[0.11589874117264323,0.09092731971128303]",100.0,"[0.1742480847502952,0.0028825041661535464]",4.0,"[0.02,0.02]",153.7371,0.0,33.0,33.0,167.0,1.0,,,,,,,
,,,,,,,63f77dc98bfabd95812edc2c,6842bb14e92beec218b6796a,2025-06-06_10h55.50.214,shape_ratio,2024.1.5,Win32,59.88023952,6842b561977af9ba9b0f87ca,,,,,,,,,,,153.7385,154.2374,,,154.4892,155.0541,right,0.5531,,,,,,,,,0.45,,,,,,154.2375,154.4891,155.0543,"[-0.09177883896139154,-0.008469070020733218]",4.0,"[0.028872077137751914,0.011244635802313831]",4.0,"[0.029824873966965457,-0.028982977558432488]",4.0,"[0.13956059214696312,-0.13854739061122645]",100.0,"[-0.14025222151261857,0.07988275038802008]",100.0,"[-0.002448915648482442,-0.1171135973568659]",4.0,"[-0.045396448063403795,-0.02716099679285081]",100.0,"[-0.18425235233415152,0.025035778471232478]",100.0,"[0.06152771205753108,-0.1450216671473989]",4.0,"[0.17774608441408782,0.014143957846324025]",100.0,"[-0.12759845155786145,-0.14327054642194165]",100.0,"[-0.005969728524751237,-0.011087861037469048]",4.0,"[-0.1579281366864528,-0.021383988680484536]",100.0,"[0.11887576608716552,0.10261688669722858]",100.0,"[-0.029430953913806044,0.19687254315390257]",4.0,"[-0.018888326926976198,-0.18552354569865395]",100.0,"[-0.15246600709593727,0.12625785337830517]",4.0,"[-0.05435165944393013,-0.1404128680270448]",100.0,"[-0.028055389427404317,0.11839079609643181]",4.0,"[0.13189791126772774,-0.045477557944841485]",4.0,"[0.07942437685894146,0.15464490970967373]",4.0,"[0.16431532959294337,0.11161839705951156]",4.0,"[0.11102338132442234,0.005439428871715439]",100.0,"[-0.1721769855455799,-0.07618096808339622]",4.0,"[-0.01587023414356721,0.07795412499053986]",100.0,"[0.04110630835629704,0.05259723906662356]",4.0,"[-0.09147550280503806,-0.09840388754455115]",4.0,"[-0.08296841215888066,0.0675290546854976]",100.0,"[0.1407345348124707,0.0523351678196938]",4.0,"[0.09989689489419296,-0.10038797844652392]",100.0,"[0.1798912656816099,-0.04104392416811742]",4.0,"[0.023015740992173857,0.14770770857923843]",4.0,"[0.02,0.02]",156.1544,0.0,34.0,34.0,135.0,1.0,,,,,,,
,,,,,,,63f77dc98bfabd95812edc2c,6842bb14e92beec218b6796a,2025-06-06_10h55.50.214,shape_ratio,2024.1.5,Win32,59.88023952,6842b561977af9ba9b0f87ca,,,,,,,,,,,156.1563,156.655,,,156.9066,157.3211,right,0.4019,,,,,,,,,0.9,,,,,,156.6553,156.9064,157.3213,"[-0.09858999196928596,0.008290943046792228]",100.0,"[-0.148457646224079,0.017022247354653314]",100.0,"[0.07964941256764044,-0.14568316004173243]",100.0,"[-0.12679301143670904,0.07548431064238849]",100.0,"[0.021517339312614254,0.16412018908752335]",100.0,"[-0.17831300607647685,0.08723083707883668]",100.0,"[0.18398174713320603,-0.041196600923111094]",100.0,"[-0.19228898785191817,0.028447969775759068]",100.0,"[0.09191029179848195,0.03419232437920512]",100.0,"[0.06144824116049983,-0.029037093626370053]",100.0,"[-0.07507146727277891,0.06275448354108504]",100.0,"[-0.0862469565681567,-0.110461129613936]",4.0,"[-0.08344809619443629,-0.041380409234355334]",100.0,"[-0.018214504240720443,-0.175555758063586]",100.0,"[0.06416179784935871,0.12813750085485148]",100.0,"[-0.046996849500529785,-0.06423230827726198]",100.0,"[0.16957675592609478,0.029116301275844917]",100.0,"[-0.12612155454972182,-0.15398868296425894]",100.0,"[-0.11138781556630367,0.15685380305197258]",100.0,"[-0.03664922541291774,0.00863567580938759]",100.0,"[0.01428786497020031,-0.0660688910929241]",100.0,"[-0.18309201327081684,-0.038663400175536815]",100.0,"[0.1654576413301433,-0.11156184377927147]",100.0,"[0.04285191539883614,0.015765187890156157]",100.0,"[0.04602962533971227,-0.11739429901248416]",100.0,"[0.09039933926526561,0.07725085963164831]",4.0,"[-0.13716159102536266,-0.03380100667780106]",4.0,"[-0.04217163662944519,0.13078519454912896]",100.0,"[0.0051846199265440365,-0.1396220704178532]",100.0,"[0.15454610061823829,0.07311886768638591]",100.0,"[0.08485680689115827,-0.09758051147469764]",100.0,"[-0.029407306293743055,-0.11658441454402596]",100.0,"[0.02,0.02]",158.4222,0.0,35.0,35.0,0.0,1.0,,,,,,,
,,,,,,,63f77dc98bfabd95812edc2c,6842bb14e92beec218b6796a,2025-06-06_10h55.50.214,shape_ratio,2024.1.5,Win32,59.88023952,6842b561977af9ba9b0f87ca,,,,,,,,,,,158.4244,158.922,,,159.1729,159.5724,left,0.3877,,,,,,,,,0.1,,,,,,158.9221,159.1726,159.5727,"[-0.017454729810297456,-0.15648138068630552]",4.0,"[0.12054358278890928,-0.04120491993653879]",4.0,"[0.16270862698839575,0.012928049923176716]",4.0,"[-0.09100698605863186,-0.0730935590851548]",100.0,"[-0.11549069735017949,0.12466723780876783]",4.0,"[-0.0978170255679288,-0.11567510945667518]",4.0,"[-0.003584854602675726,0.11050307070369232]",4.0,"[-0.09584444371306639,0.05948550464292595]",4.0,"[0.07610795388109985,0.140950905374072]",4.0,"[0.1076523620755046,0.09452562761069114]",4.0,"[0.07539618189757756,0.04428934138963996]",4.0,"[0.14727508536643552,0.08707440655711127]",4.0,"[-0.0730730381576031,0.01970876454246189]",4.0,"[-0.012205133236720362,-0.10281187856708675]",4.0,"[0.03203923837167616,0.1555740235288894]",4.0,"[0.09133352246494883,-0.11955226664079596]",4.0,"[0.13760016638952105,-0.09352070709165516]",100.0,"[-0.1143639360469042,-0.161786324749786]",4.0,"[-0.05505612028285655,0.1756433481249467]",4.0,"[0.06369764499256016,-0.17674342120927303]",4.0,"[0.12541781600347773,0.05075138813149774]",4.0,"[-0.01556152783279839,0.16819327919258562]",4.0,"[-0.008609173446488557,-0.005012848696840373]",4.0,"[0.09239604404747909,-0.0009034720212622576]",100.0,"[-0.06898689216146034,-0.026813801199754014]",4.0,"[-0.11612956604990947,-0.01704651388361739]",4.0,"[0.062320978854613684,-0.05601003969075113]",4.0,"[-0.18993115210965797,-0.034461141182208076]",4.0,"[-0.16133377682237712,0.0999357357135127]",4.0,"[-0.032567765961049475,0.05472869159968846]",4.0,"[-0.1642520570920813,-0.07330589944464935]",4.0,"[-0.0314944340558624,-0.060657360580800755]",4.0,"[0.02,0.02]",160.6725,0.0,36.0,36.0,182.0,1.0,,,,,,,
,,,,,,,63f77dc98bfabd95812edc2c,6842bb14e92beec218b6796a,2025-06-06_10h55.50.214,shape_ratio,2024.1.5,Win32,59.88023952,6842b561977af9ba9b0f87ca,,,,,,,,,,,160.6746,161.1727,,,161.4258,162.207,left,0.7696,,,,,,,,,0.45,,,,,,161.1729,161.4256,162.2071,"[-0.08020169148851473,-0.043621103290976224]",4.0,"[-0.06003104609063765,0.18144723173907834]",100.0,"[0.008236083945493682,0.19843457700441733]",4.0,"[0.14169111304912138,0.005646774539759944]",4.0,"[0.0028920492749952504,0.08771756621439808]",100.0,"[0.01703013439254315,0.14551791816943171]",100.0,"[-0.16908997135078932,-0.048681342993216595]",4.0,"[0.11499278420199568,0.10024099802337803]",4.0,"[-0.005180090805648984,-0.056188636393701266]",100.0,"[0.08407616623492865,-0.03013043007629752]",100.0,"[0.10754561433646324,-0.12927734689557374]",100.0,"[0.104590903272604,0.06079744084189583]",4.0,"[0.1834101242247006,-0.00806436584394188]",100.0,"[-0.1329184407878076,0.04494885467681107]",4.0,"[0.1629768880478957,-0.05752129674258106]",100.0,"[0.03205249559398187,-0.10645625759127397]",100.0,"[-0.048672856484560635,-0.18614616420726782]",4.0,"[-0.05963540251911444,-0.1027546636531052]",4.0,"[0.014262681755046447,-0.0034140999172758437]",4.0,"[-0.16306237650492214,0.09295365209908014]",100.0,"[-0.16969200323922315,0.003995568442186245]",4.0,"[0.042597358908748446,-0.06414322911846808]",4.0,"[-0.06364839285774906,0.004059950442619894]",100.0,"[-0.11928110739808422,-0.013859107572370358]",4.0,"[0.18922191696057475,0.05736365608887542]",100.0,"[-0.05263771842851514,0.13411098175651248]",100.0,"[-0.11125753887175897,0.13320335817879334]",4.0,"[0.07825982578869914,0.16099324838156406]",4.0,"[0.07994268982687883,0.11980278359366195]",4.0,"[0.006234718627738966,-0.16837753034703806]",4.0,"[0.09779806315481089,-0.1697244984616239]",4.0,"[-0.09885578055080795,0.0847852949282772]",100.0,"[0.02,0.02]",163.3068,0.0,37.0,37.0,145.0,1.0,,,,,,,
,,,,,,,63f77dc98bfabd95812edc2c,6842bb14e92beec218b6796a,2025-06-06_10h55.50.214,shape_ratio,2024.1.5,Win32,59.88023952,6842b561977af9ba9b0f87ca,,,,,,,,,,,163.3098,163.8071,,,164.0579,164.5406,left,0.47,,,,,,,,,0.4,,,,,,163.8073,164.0576,164.5409,"[0.10709288205286568,0.049550044853623014]",100.0,"[-0.087107767151729,0.15743301047833805]",4.0,"[-0.04850928663763091,0.1777202825310017]",4.0,"[0.03164173350211987,0.14523637230879047]",4.0,"[0.08647077028950995,-0.1185231935953492]",100.0,"[-0.019620374537949018,0.003441291665616014]",4.0,"[0.028553768840623037,0.024611499851026217]",4.0,"[-0.07821629454228457,-0.03510622951476921]",100.0,"[-0.13752516511981874,-0.07542320960272249]",4.0,"[-0.07477772560380692,0.05271497687146342]",4.0,"[0.005699040285057812,-0.10266534989379295]",4.0,"[-0.12119498804529638,0.0024606704236457963]",100.0,"[-0.18396299036001504,0.058346894965139985]",4.0,"[-0.03720615260118859,-0.03373730754049566]",100.0,"[0.1893799139321463,0.01589815755633926]",100.0,"[-0.13507420849311352,0.08767544668804379]",4.0,"[0.15930455894174517,-0.021114830945228473]",4.0,"[-0.19335319824722166,-0.03554382844272954]",100.0,"[0.01692202327348039,-0.017733328884619252]",4.0,"[0.1302296486987733,0.11167355287999242]",100.0,"[-0.010322602390188809,-0.15072404507154646]",100.0,"[-0.1642606308457956,-0.10721870609562428]",100.0,"[0.17613210241799637,0.0780917643354545]",4.0,"[0.07195936384045389,0.09137743713670102]",4.0,"[-0.031349288634587275,0.06114715702379229]",100.0,"[0.02886406476138519,0.06865596817918766]",100.0,"[-0.1585459965167832,-0.012048182412780635]",4.0,"[0.11771055344795896,-0.09295795739143366]",4.0,"[-0.08676262322504902,-0.15567787576563782]",100.0,"[-0.013080370172179284,0.1039578111680323]",4.0,"[-0.058138145095475206,0.11000911625999557]",4.0,"[0.08468104749461663,-0.1598182994921291]",4.0,"[0.02,0.02]",165.6414,0.0,38.0,38.0,150.0,1.0,,,,,,,
,,,,,,,63f77dc98bfabd95812edc2c,6842bb14e92beec218b6796a,2025-06-06_10h55.50.214,shape_ratio,2024.1.5,Win32,59.88023952,6842b561977af9ba9b0f87ca,,,,,,,,,,,165.6438,166.1414,,,166.3933,166.7911,right,0.383,,,,,,,,,0.45,,,,,,166.1416,166.3929,166.7912,"[0.01701680875358085,-0.1757745931858442]",4.0,"[0.08554655606073401,0.09682827410055862]",4.0,"[-0.1198601735639082,-0.11621938347471975]",4.0,"[-0.02533228770695489,0.03549476807872072]",4.0,"[-0.17000677827574076,0.052666787114261156]",4.0,"[0.08528790456336723,-0.14499330787248418]",100.0,"[-0.0016616056579315983,-0.09763677433700188]",100.0,"[0.14179121643489015,0.0511512589067633]",4.0,"[0.14270163485756857,0.13102235850022326]",100.0,"[-0.05152000676771238,-0.0006282650053822371]",100.0,"[0.07509928336576334,0.18512606714075858]",100.0,"[0.11405235555687114,-0.07680168976663652]",4.0,"[-0.19274408451396133,-0.025415176563047166]",4.0,"[-0.06720013166883405,-0.03983142279798386]",100.0,"[0.15584110450697103,-0.10570463857237263]",4.0,"[-0.06284613495091558,-0.10592808022635886]",4.0,"[-0.1345525454792078,0.025104731854321116]",100.0,"[0.022483255569112154,0.18309830036300145]",100.0,"[-0.022597758856851752,-0.19633091100795905]",4.0,"[-0.0568060137797951,0.1282390069124145]",4.0,"[0.009303324044074473,0.10898395856991847]",100.0,"[-0.11291021856484265,-0.019923946542169495]",4.0,"[0.057638782126485086,0.014083799316266084]",4.0,"[0.05390990043994866,0.15017404997483547]",4.0,"[0.11043749006176128,-0.010898231407360582]",100.0,"[-0.17336945916538052,-0.08199993405556474]",4.0,"[0.012801221308731198,0.06740572828595584]",4.0,"[0.08704421112093626,0.0460727930122193]",100.0,"[0.01905618152335642,-0.1331564447497034]",100.0,"[-0.034538061363019276,0.1892069883545289]",100.0,"[-0.0529516043294798,-0.16091063116330004]",100.0,"[0.18685246618951706,0.012682989379705007]",4.0,"[0.02,0.02]",167.8915,0.0,39.0,39.0,131.0,1.0,,,,,,,
,,,,,,,63f77dc98bfabd95812edc2c,6842bb14e92beec218b6796a,2025-06-06_10h55.50.214,shape_ratio,2024.1.5,Win32,59.88023952,6842b561977af9ba9b0f87ca,,,,,,,,,,,167.8936,168.3916,,,168.6428,169.0089,right,0.3532,,,,,,,,,0.5,,,,,,168.3918,168.6423,169.0091,"[0.12643702483555405,0.017394311254977566]",4.0,"[0.057248792006079956,-0.16451213463908235]",4.0,"[-0.08043617544728991,-0.1300991429447921]",4.0,"[0.04033017078649844,-0.08551159819049178]",4.0,"[0.015473435734995546,-0.1415288553587174]",100.0,"[0.1778913501401966,-0.03913362321329736]",100.0,"[0.08015700921439659,-0.07406721482179271]",100.0,"[-0.029999578771391845,-0.10449367932367319]",4.0,"[-0.09744641183910484,0.07881734678422085]",4.0,"[0.015530964088080954,-0.0031245609123240134]",100.0,"[-0.04121368348044481,0.10755948592151715]",100.0,"[-0.003161302594590038,-0.07349280509216752]",100.0,"[0.1735605874384531,0.06702311586006292]",100.0,"[-0.08303619191592304,0.15859222116995553]",4.0,"[0.17286553705621577,-0.09032594056063155]",4.0,"[0.08832855753392023,-0.13262125948625006]",4.0,"[-0.0009631042471391191,0.1606424280582011]",100.0,"[0.0884367012775634,0.14597779956319093]",4.0,"[0.09246392619629341,0.06879757672879416]",4.0,"[-0.11509042186552511,-0.007627013969564064]",4.0,"[0.05110174241258747,0.06118540974513166]",100.0,"[-0.13441678668593873,-0.13973440338851803]",100.0,"[-0.05876442878137074,-0.03709027448440995]",100.0,"[-0.11529863081991683,0.11538582069944948]",100.0,"[-0.16783050063478405,-0.06522692770648579]",4.0,"[0.12263723636083317,0.09717798197057756]",100.0,"[-0.02042021560355653,-0.1980903805365468]",100.0,"[0.1823801892721916,0.010491793787505305]",100.0,"[-0.020999222778495502,0.022020530241688447]",100.0,"[-0.06794730694310197,-0.1741251977693628]",4.0,"[-0.003032251423216843,0.09554465356188473]",4.0,"[-0.17033223075789142,-0.011958055312465906]",4.0,"[0.02,0.02]",170.1088,0.0,40.0,40.0,108.0,1.0,,,,,,,
,,,,,,,63f77dc98bfabd95812edc2c,6842bb14e92beec218b6796a,2025-06-06_10h55.50.214,shape_ratio,2024.1.5,Win32,59.88023952,6842b561977af9ba9b0f87ca,,,,,,,,,,,170.111,170.6088,,,170.8602,171.2592,right,0.3847,,,,,,,,,0.45,,,,,,170.6089,170.86,171.2594,"[-0.1459685654187928,0.08879134764963793]",100.0,"[0.16039200842908186,0.03179366285321483]",4.0,"[0.16219949504911227,0.09869042254367277]",4.0,"[-0.19958439902882905,-0.011730538614021381]",100.0,"[-0.02865991385970428,-0.054894726679069826]",100.0,"[-0.12771607806510896,-0.06464225692462251]",100.0,"[-0.026992957893595983,-0.140760668338765]",4.0,"[-0.13783573818105213,0.139608622088572]",4.0,"[-0.051463984168594025,0.19013399611647466]",4.0,"[-0.1736322375398247,0.030792033961748358]",100.0,"[0.08064664742387574,0.07631981459117429]",100.0,"[0.15797206026148194,-0.11971193083100251]",100.0,"[0.06420822591933406,-0.12535472702964212]",100.0,"[0.12579653267351276,-0.0013627788553915176]",4.0,"[-0.023460984961115344,0.012658937217372983]",100.0,"[-0.07564514081313163,-0.07624431042350248]",100.0,"[0.026696721403028523,0.1820269151174773]",4.0,"[0.13650169931896525,-0.07232781493898069]",4.0,"[0.06647913241048792,0.13064021000146236]",4.0,"[0.006219809024165082,0.12765768952505446]",4.0,"[-0.07037089347152657,-0.0018621088970830434]",100.0,"[0.018048461442890323,-0.09942745130149509]",4.0,"[-0.09697868145356191,-0.14428305611278688]",100.0,"[0.04058435097852731,-0.0037113932233342143]",4.0,"[0.044045010922903666,-0.17186339590868055]",4.0,"[-0.06502356237406659,0.14051854637679598]",4.0,"[-0.027799331434363087,-0.10059411423014658]",4.0,"[-0.04543900715591749,0.09393556397251224]",100.0,"[0.12110413922010703,0.11465331711397612]",4.0,"[0.038907642831169084,0.09060544390911499]",4.0,"[-0.1840020296019656,-0.057851212172890826]",100.0,"[-0.10976433124391083,0.04305302593492459]",4.0,"[0.02,0.02]",172.359,0.0,41.0,41.0,138.0,1.0,,,,,,,
,,,,,,,63f77dc98bfabd95812edc2c,6842bb14e92beec218b6796a,2025-06-06_10h55.50.214,shape_ratio,2024.1.5,Win32,59.88023952,6842b561977af9ba9b0f87ca,,,,,,,,,,,172.3604,172.8596,,,173.1112,173.4931,left,0.37,,,,,,,,,0.4,,,,,,172.8597,173.1111,173.4931,"[-0.07911003856886228,0.15877514806882015]",100.0,"[0.0778535110869503,0.17983310436420216]",4.0,"[-0.02032515024098487,0.10458869853063213]",4.0,"[-0.18801439844116455,-0.009161618151859294]",4.0,"[0.05332618164359336,-0.16733167747927727]",4.0,"[-0.045174725444681006,0.1916467944803444]",100.0,"[0.06644114014412422,0.03801579442727072]",100.0,"[-0.14884466850165065,0.12391267890969157]",4.0,"[-0.06186369763193255,-0.025737279565824032]",100.0,"[-0.06273762519088846,-0.07693266337372003]",4.0,"[0.07634303617549582,-0.13435643049532972]",100.0,"[0.0013161286844437532,-0.06402572951875787]",4.0,"[0.14192391427161644,-0.0371802633481257]",4.0,"[0.11630016281934921,0.028143826281604122]",100.0,"[0.011983207761907668,0.19476847874943726]",4.0,"[0.12280707059748378,-0.1046116239470786]",4.0,"[-0.07365432567206927,0.07227230560073647]",4.0,"[0.17729233028822305,-0.017407261867570432]",100.0,"[-0.052206819006095216,0.0276401703269238]",100.0,"[-0.182544685379466,0.05848252166347977]",4.0,"[-0.10083145792654319,0.11086005705705815]",4.0,"[0.07413126773677364,-0.07186995359920906]",4.0,"[-0.008129006884900071,-0.13039012343002185]",100.0,"[0.08947011497218725,0.1373564268851988]",4.0,"[0.022880959232384784,0.008598066577854219]",4.0,"[0.1276811866465673,0.08253845200502076]",100.0,"[-0.1475598333309499,0.08372069270641534]",4.0,"[0.042828916771824446,-0.046690055355086676]",100.0,"[0.1758399383488422,0.08171017563117647]",100.0,"[0.031058293430956764,0.1443357139303059]",4.0,"[-0.11899430866693908,-0.027681800649526935]",100.0,"[0.004080366133863785,-0.19758168842851187]",4.0,"[0.02,0.02]",174.5934,0.0,42.0,42.0,152.0,1.0,,,,,,,
,,,,,,,63f77dc98bfabd95812edc2c,6842bb14e92beec218b6796a,2025-06-06_10h55.50.214,shape_ratio,2024.1.5,Win32,59.88023952,6842b561977af9ba9b0f87ca,,,,,,,,,,,174.5952,175.0938,,,175.3449,175.7275,left,0.3679,,,,,,,,,0.1,,,,,,175.0939,175.3447,175.7275,"[0.17201818868853366,-0.06663856156840911]",4.0,"[-0.10245091304408784,-0.01266144977752251]",100.0,"[-0.008731650810912147,-0.17156272183727922]",4.0,"[0.06191013252018696,-0.06343895318664795]",4.0,"[-0.04930594841851179,-0.14707440980944822]",4.0,"[-0.011912455597526544,0.18173615045624328]",4.0,"[-0.10422825196710565,-0.14079215848514245]",4.0,"[-0.1307409561224507,-0.054622525584766594]",4.0,"[-0.004150632785791368,-0.001997949887719354]",4.0,"[-0.12361196622675483,0.14882212375751647]",4.0,"[0.010879779154512164,-0.11420668221315051]",4.0,"[0.05013215261438364,0.07323358353730125]",4.0,"[-0.007723934784674943,0.12835007507986054]",100.0,"[-0.07225395344192775,-0.06986549394199852]",4.0,"[-0.15985716769696487,-0.0853001481377596]",4.0,"[0.16517789177263514,0.007629376983138476]",4.0,"[-0.07833469636057924,0.17857700613834632]",4.0,"[-0.09856804766694333,0.03507200954509534]",4.0,"[0.11252994090152013,-0.1359226793025855]",4.0,"[-0.030159878049376622,0.045008316539892415]",4.0,"[0.06614667299123932,0.16283561994766999]",4.0,"[0.08655252272468109,-0.10505409671373747]",4.0,"[0.1404723853805687,0.08231090212744241]",4.0,"[-0.0861398117670612,0.08356982398424298]",100.0,"[-0.14280267049795173,0.011829584285821693]",4.0,"[0.07735778033600989,-0.000016224130547721253]",4.0,"[0.11109495209185635,-0.037015941472783254]",4.0,"[-0.1991578470418886,-0.008199997711130955]",4.0,"[-0.043828482275277095,0.09932661631067162]",4.0,"[0.04319098749097962,0.12848016229144885]",4.0,"[0.16563865794150348,0.04813749187561039]",4.0,"[0.0951288343768616,-0.17339710611386008]",4.0,"[0.02,0.02]",176.8274,0.0,43.0,43.0,197.0,1.0,,,,,,,
,,,,,,,63f77dc98bfabd95812edc2c,6842bb14e92beec218b6796a,2025-06-06_10h55.50.214,shape_ratio,2024.1.5,Win32,59.88023952,6842b561977af9ba9b0f87ca,,,,,,,,,,,176.8291,177.3276,,,177.5795,178.0779,left,0.4835,,,,,,,,,0.1,,,,,,177.3277,177.5792,178.0779,"[-0.16538186833095025,-0.018840559881469494]",4.0,"[0.03918782602416323,-0.13657932817520144]",4.0,"[-0.023699501844370762,-0.10722162732974733]",4.0,"[-0.07316470254564904,0.12862072957879364]",4.0,"[0.07519689818070009,-0.03184746394564225]",4.0,"[-0.07920413909784896,-0.0641186380635766]",100.0,"[-0.1087408745251529,-0.0024177323816494877]",4.0,"[-0.028758524320553952,0.03397759509493668]",4.0,"[0.11191655572519582,-0.11915090943198828]",4.0,"[-0.1432294256842609,-0.06560647383170094]",100.0,"[0.08834790827007702,0.11142845003444143]",4.0,"[-0.054142273619147724,-0.16143744313774858]",4.0,"[-0.1507210127316068,0.03185881546779877]",4.0,"[0.09171422521969808,0.007576268402411403]",4.0,"[0.01054171645009884,-0.17216272654772694]",4.0,"[0.008072712622649659,-0.0779016427525984]",4.0,"[0.03534114608292479,0.049603722105276325]",4.0,"[-0.12097921290386804,0.15014706799705166]",4.0,"[0.18584621084689593,0.034996530274526025]",4.0,"[0.15370585345095264,0.003678543277559184]",4.0,"[0.11991694750067741,0.1542578111516214]",4.0,"[0.05533829489849695,0.18390609786466242]",4.0,"[-0.17323089563712923,0.08981297890161177]",100.0,"[0.10935181796624899,-0.16295548343074767]",4.0,"[0.02523360836726408,0.111194692836466]",4.0,"[-0.10597376588052812,-0.09668753745876921]",4.0,"[-0.01598577287642204,-0.006317026625405452]",4.0,"[0.07210808818259547,0.06597867021604498]",4.0,"[-0.03381974094360112,0.09554273033777871]",4.0,"[-0.1933646832096668,0.03819368445400069]",4.0,"[0.16540355151450753,-0.11194124120746651]",4.0,"[0.023642038186006315,0.00008580333203677194]",4.0,"[0.02,0.02]",179.1783,0.0,44.0,44.0,209.0,1.0,,,,,,,
,,,,,,,63f77dc98bfabd95812edc2c,6842bb14e92beec218b6796a,2025-06-06_10h55.50.214,shape_ratio,2024.1.5,Win32,59.88023952,6842b561977af9ba9b0f87ca,,,,,,,,,,,179.1797,179.6785,,,179.9301,180.4954,left,0.5528,,,,,,,,,0.55,,,,,,179.6786,179.93,180.4955,"[0.15183926512774482,-0.10562927158155008]",4.0,"[-0.01705185477248733,0.07368628712037341]",100.0,"[-0.10650988147884927,-0.1511434691925352]",100.0,"[-0.04983804216160039,0.04326747229978403]",4.0,"[0.15282801275351054,0.027947137219993024]",100.0,"[-0.010681683877859956,-0.0737023817632087]",4.0,"[0.04426357263010312,-0.191228632306822]",100.0,"[-0.13187278896879331,0.10066314999040109]",4.0,"[0.07795883216108977,-0.007409704329966453]",4.0,"[-0.10091329850015605,0.029628669238966492]",4.0,"[-0.1889064333482409,0.008321501930350403]",4.0,"[-0.032177367481559,-0.146962094740811]",100.0,"[0.19773673164374034,-0.0013519918213256098]",4.0,"[0.09747683099849996,-0.15121052634803483]",4.0,"[-0.17007110402665152,-0.09486117660628034]",100.0,"[0.014638337074283563,0.12492193119944452]",100.0,"[0.052992275034085226,-0.11783793534798459]",4.0,"[-0.0958714633454342,0.07031296462864944]",100.0,"[0.09781795239527721,0.08193402344102071]",4.0,"[0.05270914740025197,-0.05894137106223017]",100.0,"[-0.16674464656691834,0.07847475687571638]",100.0,"[0.038854284936462015,0.08552505493489825]",100.0,"[0.12495636441231739,-0.022471281612621283]",4.0,"[-0.14295295956552037,-0.13206762828824767]",100.0,"[-0.09695106500646991,0.12940618177592797]",100.0,"[-0.06277088449986411,-0.054411887960886224]",4.0,"[0.09508299063894499,-0.08885202885976286]",100.0,"[-0.05810133499175233,0.14591691634178522]",100.0,"[-0.11609094289323985,-0.009509902660358057]",100.0,"[-0.08002990651826218,-0.1012616644731171]",100.0,"[0.009587623178603823,0.03982287080889552]",4.0,"[0.09068419226492563,0.14040962082639286]",100.0,"[0.02,0.02]",181.5958,0.0,45.0,45.0,66.0,1.0,,,,,,,
,,,,,,,63f77dc98bfabd95812edc2c,6842bb14e92beec218b6796a,2025-06-06_10h55.50.214,shape_ratio,2024.1.5,Win32,59.88023952,6842b561977af9ba9b0f87ca,,,,,,,,,,,181.5983,182.0959,,,182.3474,182.796,left,0.4342,,,,,,,,,0.1,,,,,,182.0961,182.3474,182.7961,"[-0.12136414916589838,-0.01573260690483443]",4.0,"[0.15738626119090818,0.08298765518231618]",4.0,"[0.02263086701676217,-0.1317244671331524]",4.0,"[-0.09318450775875393,-0.15285887887445773]",4.0,"[-0.0545045495501218,-0.07834598898792731]",4.0,"[-0.023974524652026086,-0.11853996787361548]",100.0,"[-0.0691541058717803,0.17167791313406533]",4.0,"[0.1841358829364382,-0.015748098400077112]",4.0,"[-0.0024226542282895997,0.1601690851319425]",4.0,"[0.13055928893440422,-0.10422134454371874]",4.0,"[0.011974187585161748,-0.04109829841985724]",4.0,"[0.08384402980610861,-0.14489885853916726]",4.0,"[-0.014121978958364848,0.0029827874883050767]",100.0,"[0.10191813311292855,0.022762001720058125]",4.0,"[-0.08212632058264913,-0.04397652685458075]",4.0,"[-0.038215346595109466,0.11764252915138415]",4.0,"[-0.1309162361559634,-0.10116708930534937]",4.0,"[0.02883956846602465,0.10983732178705893]",4.0,"[-0.16668455124972925,0.03638094122105674]",4.0,"[-0.16944712502572115,-0.06991923089462236]",4.0,"[0.02765988827938226,-0.17225089726530862]",4.0,"[0.09414023722558287,0.07115654039709872]",4.0,"[0.025859762863004242,0.040893606678715576]",100.0,"[-0.15477670704419103,0.11821452012006153]",4.0,"[-0.06758411558226217,0.03873165997291153]",4.0,"[-0.09816354125027214,0.13667716878312886]",4.0,"[0.1454261460062822,0.02981540793957808]",4.0,"[0.05219183189895698,0.17337986800345345]",4.0,"[0.0881662120477227,-0.018010088952689653]",4.0,"[-0.11944670453870793,0.0669171912789945]",4.0,"[0.1381127972006153,-0.040247594744174116]",4.0,"[0.17783899397556635,-0.08143006736730855]",4.0,"[0.02,0.02]",183.8963,0.0,46.0,46.0,201.0,1.0,,,,,,,
,,,,,,,63f77dc98bfabd95812edc2c,6842bb14e92beec218b6796a,2025-06-06_10h55.50.214,shape_ratio,2024.1.5,Win32,59.88023952,6842b561977af9ba9b0f87ca,,,,,,,,,,,183.8981,184.3963,,,184.6485,185.0302,right,0.3706,,,,,,,,,0.6,,,,,,184.3964,184.6483,185.0303,"[0.015658371412789907,-0.12724150705103196]",100.0,"[-0.10501804530725838,-0.01228588748162451]",4.0,"[-0.10752553036354577,0.06968562496501975]",100.0,"[-0.16443870152106915,0.09755814768716708]",100.0,"[-0.023907063530779184,0.03678082053739418]",100.0,"[0.09948643842746935,0.000987281304835689]",4.0,"[-0.0519911582484961,-0.10254165832907317]",100.0,"[0.11927131065273144,-0.10112886529814691]",100.0,"[-0.0021087542258343534,0.16348499575192446]",4.0,"[-0.05062658039876161,-0.1824873339414724]",100.0,"[0.09668822710145915,-0.05675562075427404]",100.0,"[-0.07205571861227264,-0.0409033234428923]",4.0,"[-0.10538568532456852,-0.12655890460879576]",4.0,"[0.13986023631603914,0.027754611565945286]",4.0,"[0.08736775197234452,0.10986019614361817]",100.0,"[-0.07068888048512321,0.03764422414249822]",100.0,"[0.02973092920392983,0.07604444706987624]",100.0,"[-0.06701813156350125,0.12375272552693982]",100.0,"[-0.17071525995760475,0.04737050930522751]",4.0,"[0.003656513552095855,-0.1933095650480351]",100.0,"[-0.0358108560338111,-0.012954715190830848]",100.0,"[0.008463907792030153,-0.029304017997914468]",4.0,"[0.06894130850431343,-0.0973591081955279]",100.0,"[0.053558671763771076,-0.014357985791805685]",4.0,"[0.13212380216094052,0.1267584817660719]",100.0,"[0.13849444167530325,0.08257329283605541]",4.0,"[0.17088380317656157,0.05476763424608073]",100.0,"[0.19033916422996985,-0.059901815452028655]",4.0,"[-0.1964868235354684,0.0011277905604338803]",4.0,"[0.051874544770927906,-0.18086763708003117]",100.0,"[-0.1142614870446716,-0.08365235639965889]",100.0,"[0.07309043504110417,0.06544901763123552]",4.0,"[0.02,0.02]",186.1303,0.0,47.0,47.0,59.0,1.0,,,,,,,
,,,,,,,63f77dc98bfabd95812edc2c,6842bb14e92beec218b6796a,2025-06-06_10h55.50.214,shape_ratio,2024.1.5,Win32,59.88023952,6842b561977af9ba9b0f87ca,,,,,,,,,,,186.132,186.6305,,,186.8827,187.1971,right,0.2968,,,,,,,,,0.55,,,,,,186.6306,186.8825,187.1972,"[0.009051838615996474,0.03275878707141502]",100.0,"[-0.07949449999903306,0.18287318201145097]",100.0,"[0.06612402154169512,-0.010365566981169479]",4.0,"[0.10729033657525273,0.0766021783463817]",4.0,"[-0.06736158442247192,0.025345383729909982]",4.0,"[-0.028535766468770124,-0.12715112366125034]",4.0,"[-0.08717967116291371,-0.05724102656871748]",100.0,"[-0.13399959781131435,0.12932114912914328]",4.0,"[0.09713733075810747,0.11775941321496504]",100.0,"[0.03137528360050344,-0.04683399828911733]",100.0,"[-0.05591017023257487,0.13377471024600376]",100.0,"[0.12041657820272614,0.006434233171379119]",4.0,"[-0.14379930842466424,0.04348441800326369]",100.0,"[0.02199008830937218,0.10025004917814385]",100.0,"[-0.17772608800018566,-0.048387289092243574]",100.0,"[-0.06401269026258195,-0.09621847166276526]",4.0,"[0.0022698495047522326,-0.1541709984791818]",4.0,"[-0.08127983377426638,-0.14745571579701244]",100.0,"[-0.1404629089809293,-0.012704584142751696]",100.0,"[-0.19786458919545655,0.013303307235397296]",100.0,"[-0.08325831088710084,0.0715517249123274]",100.0,"[-0.009898980904013624,-0.06752388594269772]",100.0,"[0.16614136266900376,0.10951628520697416]",4.0,"[0.13170081646269277,-0.05191255245681595]",4.0,"[0.008838266421335091,0.16522547776480184]",4.0,"[0.19121231053888307,-0.039594905557584076]",100.0,"[0.07165730415240402,-0.17446485532742695]",100.0,"[-0.1267501337717275,-0.11376765014079615]",100.0,"[0.19496207550044656,0.0015634619146272766]",4.0,"[-0.16648663691148452,0.07786974377114697]",4.0,"[0.07240705805724058,-0.0709535700875222]",4.0,"[0.001678861224909082,-0.00703848872340878]",100.0,"[0.02,0.02]",188.2977,0.0,48.0,48.0,73.0,1.0,,,,,,,
,,,,,,,63f77dc98bfabd95812edc2c,6842bb14e92beec218b6796a,2025-06-06_10h55.50.214,shape_ratio,2024.1.5,Win32,59.88023952,6842b561977af9ba9b0f87ca,,,,,,,,,,,188.2997,188.7981,,,189.0498,189.5995,right,0.5389,,,,,,,,,0.5,,,,,,188.7982,189.0494,189.5996,"[0.008357963932143149,-0.18655788361578038]",100.0,"[0.07708206236926653,-0.1815436486111657]",4.0,"[0.12791666541400698,0.020022145762803267]",100.0,"[0.16163680227017613,-0.10807230948996052]",4.0,"[0.11392714215578013,-0.06451735870355839]",100.0,"[-0.12850194811965956,-0.09044656714741668]",100.0,"[0.08209297144293996,-0.12220666479114535]",100.0,"[-0.039843788328973305,-0.053220267097074614]",100.0,"[0.18254993937182848,0.026541157094139355]",4.0,"[-0.1521711266773052,0.0584162932975067]",100.0,"[0.07484625839549837,-0.0822776870751404]",4.0,"[-0.09512037498550084,0.030175426866952033]",100.0,"[-0.08043145512161422,0.1766763936373306]",100.0,"[0.023420173200142565,0.05593984667813234]",100.0,"[-0.027651631459916292,-0.1637737330442704]",4.0,"[-0.1791430727935897,-0.008331465422502172]",100.0,"[0.13403188844697006,-0.1471891680861993]",4.0,"[-0.07557576945865364,0.13182537619671497]",4.0,"[-0.12250766057542423,-0.012091309743479677]",4.0,"[0.1180415817472556,0.13489575893805988]",4.0,"[0.008923123291611247,0.12316581356494766]",4.0,"[0.07409550498369366,0.05788750474638499]",100.0,"[0.03500233379657706,0.16394032206754353]",100.0,"[0.012137751181064943,-0.06470981657544511]",4.0,"[-0.03560136677149676,0.1289861372389729]",4.0,"[0.06859061256045719,-0.00925663285895114]",4.0,"[-0.03378683186362332,0.08313126879649457]",4.0,"[-0.003185910577829503,-0.015554172384496724]",4.0,"[0.0771815623902025,0.1535479088278062]",100.0,"[0.15829504982717246,0.1217100299946156]",100.0,"[-0.10209693702901837,0.07861557876620662]",4.0,"[-0.12320215703450471,-0.1484706189129164]",100.0,"[0.02,0.02]",190.6985,0.0,49.0,49.0,102.0,1.0,,,,,,,
