right,left,explain.started,explain.stopped,key_resp_3.keys,key_resp_3.rt,key_resp_3.duration,participant,session,date,expName,psychopyVersion,OS,frameRate,study_id,explain_2.started,explain_2.stopped,key_resp_4.keys,key_resp_4.rt,key_resp_4.duration,explain_3.started,explain_3.stopped,key_resp_5.keys,key_resp_5.rt,key_resp_5.duration,fixation.started,fixation.stopped,practice.started,practice.stopped,response.started,response.stopped,key_resp.keys,feedback.started,feedback.stopped,trials_2.thisRepN,trials_2.thisTrialN,trials_2.thisN,trials_2.thisIndex,trials_2.ran,dot_ratio,key_resp.rt,key_resp.duration,explain_4.started,explain_4.stopped,key_resp_6.keys,key_resp_6.rt,key_resp_6.duration,dotDisplay.started,dotDisplay.stopped,ITI.started,polygon_1.pos,polygon_1.edges,polygon_2.pos,polygon_2.edges,polygon_3.pos,polygon_3.edges,polygon_4.pos,polygon_4.edges,polygon_5.pos,polygon_5.edges,polygon_6.pos,polygon_6.edges,polygon_7.pos,polygon_7.edges,polygon_8.pos,polygon_8.edges,polygon_9.pos,polygon_9.edges,polygon_10.pos,polygon_10.edges,polygon_11.pos,polygon_11.edges,polygon_12.pos,polygon_12.edges,polygon_13.pos,polygon_13.edges,polygon_14.pos,polygon_14.edges,polygon_15.pos,polygon_15.edges,polygon_16.pos,polygon_16.edges,polygon_17.pos,polygon_17.edges,polygon_18.pos,polygon_18.edges,polygon_19.pos,polygon_19.edges,polygon_20.pos,polygon_20.edges,polygon_21.pos,polygon_21.edges,polygon_22.pos,polygon_22.edges,polygon_23.pos,polygon_23.edges,polygon_24.pos,polygon_24.edges,polygon_25.pos,polygon_25.edges,polygon_26.pos,polygon_26.edges,polygon_27.pos,polygon_27.edges,polygon_28.pos,polygon_28.edges,polygon_29.pos,polygon_29.edges,polygon_30.pos,polygon_30.edges,polygon_31.pos,polygon_31.edges,polygon_32.pos,polygon_32.edges,dot_size,ITI.stopped,trials.thisRepN,trials.thisTrialN,trials.thisN,trials.thisIndex,trials.ran,break_2.started,break_2.stopped,trials_3.thisRepN,trials_3.thisTrialN,trials_3.thisN,trials_3.thisIndex,trials_3.ran
subject chose dot,subject chose diamond,0.0004,28.4224,space,13.4105,,6452b900ed79e166aaf26970,6842bb9393916ab8b4bc3b71,2025-06-06_11h57.54.759,shape_ratio,2024.1.5,Win32,59.88023952,6842b561977af9ba9b0f87ca,,,,,,,,,,,,,,,,,,,,,,,,,,,,,,,,,,,,,,,,,,,,,,,,,,,,,,,,,,,,,,,,,,,,,,,,,,,,,,,,,,,,,,,,,,,,,,,,,,,,,,,,,,,,,,,,,
,,,,,,,6452b900ed79e166aaf26970,6842bb9393916ab8b4bc3b71,2025-06-06_11h57.54.759,shape_ratio,2024.1.5,Win32,59.88023952,6842b561977af9ba9b0f87ca,28.4228,62.3532,space,3.9124,,,,,,,,,,,,,,,,,,,,,,,,,,,,,,,,,,,,,,,,,,,,,,,,,,,,,,,,,,,,,,,,,,,,,,,,,,,,,,,,,,,,,,,,,,,,,,,,,,,,,,,,,,,,,
,,,,,,,6452b900ed79e166aaf26970,6842bb9393916ab8b4bc3b71,2025-06-06_11h57.54.759,shape_ratio,2024.1.5,Win32,59.88023952,6842b561977af9ba9b0f87ca,,,,,,62.3536,67.6202,space,2.2414,,,,,,,,,,,,,,,,,,,,,,,,,,,,,,,,,,,,,,,,,,,,,,,,,,,,,,,,,,,,,,,,,,,,,,,,,,,,,,,,,,,,,,,,,,,,,,,,,,,,,,,,
,,,,,,,6452b900ed79e166aaf26970,6842bb9393916ab8b4bc3b71,2025-06-06_11h57.54.759,shape_ratio,2024.1.5,Win32,59.88023952,6842b561977af9ba9b0f87ca,,,,,,,,,,,67.6371,68.1371,68.1378,68.388,68.3882,69.8863,,69.8867,70.987,0.0,0.0,0.0,1.0,1.0,0.8,,,,,,,,,,,,,,,,,,,,,,,,,,,,,,,,,,,,,,,,,,,,,,,,,,,,,,,,,,,,,,,,,,,,,,,,,,,,,,,,,,,,,,,,
,,,,,,,6452b900ed79e166aaf26970,6842bb9393916ab8b4bc3b71,2025-06-06_11h57.54.759,shape_ratio,2024.1.5,Win32,59.88023952,6842b561977af9ba9b0f87ca,,,,,,,,,,,70.9886,71.4862,71.4864,71.7367,71.7368,72.7534,left,72.7536,73.852,0.0,1.0,1.0,0.0,1.0,0.2,0.999,,,,,,,,,,,,,,,,,,,,,,,,,,,,,,,,,,,,,,,,,,,,,,,,,,,,,,,,,,,,,,,,,,,,,,,,,,,,,,,,,,,,,,,
,,,,,,,6452b900ed79e166aaf26970,6842bb9393916ab8b4bc3b71,2025-06-06_11h57.54.759,shape_ratio,2024.1.5,Win32,59.88023952,6842b561977af9ba9b0f87ca,,,,,,,,,,,,,,,,,,,,,,,,,,,,73.8522,79.1542,space,2.2898,,,,,,,,,,,,,,,,,,,,,,,,,,,,,,,,,,,,,,,,,,,,,,,,,,,,,,,,,,,,,,,,,,,,,,,,,,,,,,,,,,
,,,,,,,6452b900ed79e166aaf26970,6842bb9393916ab8b4bc3b71,2025-06-06_11h57.54.759,shape_ratio,2024.1.5,Win32,59.88023952,6842b561977af9ba9b0f87ca,,,,,,,,,,,79.1659,79.6691,,,79.9198,80.6527,right,,,,,,,,0.6,0.7199,,,,,,,79.6697,79.9197,80.6538,"[0.05195246522665591,0.18707884164146418]",4.0,"[0.14529503000514762,-0.07314267755463065]",100.0,"[-0.031028429575291238,-0.19088156947232318]",4.0,"[-0.020044162717775635,-0.13460537302786243]",100.0,"[0.13354215137247438,0.0020302421617274563]",100.0,"[-0.03411621995947057,0.04571797347502919]",4.0,"[-0.15497073928499142,0.07927708838302021]",4.0,"[-0.16407533767284968,-0.04030481062415681]",4.0,"[0.07553824920293732,-0.16134542828145726]",4.0,"[-0.06828396874588115,-0.17494919405914522]",100.0,"[0.11093312528934803,0.049922865289497576]",100.0,"[0.0622063638219036,-0.06098079115736217]",100.0,"[-0.05224500534370857,-0.04105823551419268]",100.0,"[-0.016420592117068575,-0.07859680973643178]",4.0,"[0.1769241770783261,0.020612023680877233]",100.0,"[0.005639548974790929,0.056223119844240964]",100.0,"[-0.0619359009590527,0.10199118237133725]",100.0,"[0.03126820702661583,-0.18140211790009955]",100.0,"[-0.11410222267751154,0.019813732484915778]",4.0,"[-0.049345350385374145,0.1815104735370698]",100.0,"[-0.035458793772211325,0.13619925137247205]",100.0,"[0.15016220167390296,-0.11661144759881188]",100.0,"[-0.14789457729747282,-0.12413841598648284]",4.0,"[0.04781296581968358,0.004179020672462032]",4.0,"[0.1896094512044723,0.05873926110348646]",4.0,"[0.026789588121129197,0.13307446846093643]",100.0,"[-0.10880251722216672,0.11366683339492718]",4.0,"[0.10057574406731563,0.15134850719816503]",100.0,"[-0.1206719613617876,-0.025679611655805]",4.0,"[0.15382978271265665,0.12589627959885544]",100.0,"[0.0831200962256202,-0.10050255456064897]",100.0,"[0.003635547124194355,0.18374437292306814]",100.0,"[0.02,0.02]",81.7525,0.0,0.0,0.0,53.0,1.0,,,,,,,
,,,,,,,6452b900ed79e166aaf26970,6842bb9393916ab8b4bc3b71,2025-06-06_11h57.54.759,shape_ratio,2024.1.5,Win32,59.88023952,6842b561977af9ba9b0f87ca,,,,,,,,,,,81.7535,82.2524,,,82.5028,83.0697,left,,,,,,,,0.45,0.5516,,,,,,,82.2524,82.5027,83.0698,"[0.07942744432167137,0.035283413317749146]",100.0,"[-0.16144951280086453,0.05018551196387276]",4.0,"[0.06555871518216798,-0.0930097003998684]",4.0,"[0.026123749608903128,-0.13244500509032586]",4.0,"[-0.19267017853488622,-0.0317437683179601]",100.0,"[0.005917956282534294,0.10538427437240672]",4.0,"[-0.004812988195944735,0.16237169920545624]",4.0,"[0.13842835575754378,0.02865799226489173]",100.0,"[-0.02102026051261973,0.050187401100386116]",100.0,"[-0.05978001513484099,0.11563025755443143]",4.0,"[-0.13507668376453336,-0.0924885313340308]",100.0,"[0.04786478995444888,-0.18058998826497305]",100.0,"[0.1106491626220453,-0.04650228987054389]",4.0,"[-0.11291837076766324,-0.029998792690027535]",4.0,"[-0.13024572805779347,0.10574244430937413]",100.0,"[-0.023187720973626334,-0.043056807440688516]",100.0,"[-0.08365580404226118,0.011474921956682378]",100.0,"[-0.02338946338429455,-0.12079213207461083]",100.0,"[0.1728096682665824,0.07169631506734568]",100.0,"[0.08124662150773544,0.08884120840504714]",4.0,"[0.14598571015505304,-0.12687688557193164]",100.0,"[0.18054016468349612,-0.02083035986686702]",4.0,"[0.02419683689875133,-0.05398798031492311]",4.0,"[-0.1083246234383083,0.05280059767722096]",4.0,"[-0.17925610886407323,0.008932221083306982]",100.0,"[0.15222233414926625,0.1260399560271869]",4.0,"[0.029735293478934305,0.0028657415221698497]",4.0,"[-0.0684538782031476,0.1844484805476466]",4.0,"[-0.11100540074600837,0.14934610868915277]",4.0,"[0.06790301740122044,-0.13459678030269778]",100.0,"[0.06837945311400555,-0.016915788093486463]",4.0,"[-0.06434189284275439,-0.04970658200850508]",4.0,"[0.02,0.02]",84.1702,0.0,1.0,1.0,140.0,1.0,,,,,,,
,,,,,,,6452b900ed79e166aaf26970,6842bb9393916ab8b4bc3b71,2025-06-06_11h57.54.759,shape_ratio,2024.1.5,Win32,59.88023952,6842b561977af9ba9b0f87ca,,,,,,,,,,,84.1708,84.6692,,,84.9194,85.3861,left,,,,,,,,0.1,0.454,,,,,,,84.6692,84.9193,85.3862,"[0.12692190126258257,0.03097353936254363]",100.0,"[-0.08985951874298036,-0.13269575456217914]",4.0,"[-0.15592555505913,-0.043852897013055434]",4.0,"[0.08227446445245724,-0.11151500937952312]",4.0,"[-0.003261189816991583,0.007914447760787606]",4.0,"[0.0793808292288278,0.16003570871650202]",4.0,"[0.05563815242063909,0.08462161762365929]",4.0,"[0.04765249519698092,0.13127194416874421]",4.0,"[-0.11682713467150993,0.003806076832429455]",4.0,"[0.10955211164398909,-0.052880583138853715]",4.0,"[-0.15823545178294157,0.10453991096196472]",4.0,"[-0.005367873124951904,0.12607325759370527]",4.0,"[-0.18628361471274582,0.017705283485797692]",100.0,"[0.009531520618709216,0.07589524720444334]",4.0,"[-0.0359001158647729,-0.1140373206666165]",4.0,"[-0.05783701880883862,0.1441725083132881]",4.0,"[-0.15926855100194315,-0.09861756316750937]",100.0,"[0.03322636243971811,-0.12419524610742017]",4.0,"[-0.0008413818280904728,-0.049597800118637014]",4.0,"[-0.11903039578152463,-0.07676014394314168]",4.0,"[0.12562197462063096,-0.10467479372836208]",4.0,"[0.08239857253488479,-0.1801717798021407]",4.0,"[-0.03312858451812349,-0.17999945624501038]",4.0,"[0.16925189404119584,-0.09891883583127735]",4.0,"[-0.043727735957851746,0.013624099856869822]",4.0,"[-0.18309069205811668,0.07118981975524273]",4.0,"[0.17954006580848472,0.04590813905743155]",4.0,"[0.04185349128513337,0.042034305740725995]",4.0,"[0.0543098660946785,-0.025177822502045075]",4.0,"[0.1276114915318255,0.13590490530772822]",4.0,"[-0.1361916495595514,0.04580081078720005]",4.0,"[0.1546975978166421,0.10498337698462859]",4.0,"[0.02,0.02]",86.4854,0.0,2.0,2.0,181.0,1.0,,,,,,,
,,,,,,,6452b900ed79e166aaf26970,6842bb9393916ab8b4bc3b71,2025-06-06_11h57.54.759,shape_ratio,2024.1.5,Win32,59.88023952,6842b561977af9ba9b0f87ca,,,,,,,,,,,86.4856,86.9865,,,87.2366,87.7867,left,,,,,,,,0.1,0.537,,,,,,,86.9866,87.2365,87.787,"[0.10633478744345172,-0.15507733812315647]",4.0,"[-0.11836190600274116,-0.02285310178717151]",4.0,"[0.006372872396229331,-0.12758716052295851]",4.0,"[-0.0012347725384235586,0.05193439743092076]",100.0,"[0.09177897455073258,0.1038272026329829]",4.0,"[0.1513744478901307,-0.11810474247563524]",4.0,"[0.08166570086680379,-0.12179182560291724]",4.0,"[0.0026996243475641934,0.19561568567748214]",4.0,"[0.09000603666557072,-0.02345376872692722]",4.0,"[-0.16745440579672083,0.04809873623525302]",4.0,"[-0.08282313346177389,0.02190258217639522]",4.0,"[0.028479689133018612,-0.08293263917282091]",4.0,"[0.17130168867504977,-0.020583833544103345]",4.0,"[0.17954996046668414,0.05517748954053734]",4.0,"[0.08423172038542241,0.15929337814525335]",4.0,"[-0.03948565261699795,-0.07193811645361711]",4.0,"[-0.14765352131471562,-0.0928138524501166]",4.0,"[0.06241860091360557,0.005618307922421085]",4.0,"[-0.005886663473755494,-0.02751948127262862]",4.0,"[-0.10238106228393093,0.05822745019734424]",4.0,"[0.11702965445359557,0.13563937699656473]",4.0,"[-0.0024737650745950677,-0.19367807059811987]",4.0,"[0.12735490639184768,-0.06808707666972483]",4.0,"[-0.0612031295948006,0.12114016910800687]",100.0,"[-0.016103329630897646,0.09694931944311454]",4.0,"[0.13046750096178938,-0.0002006395662274773]",4.0,"[-0.116649644739248,-0.13913142964668204]",4.0,"[-0.06993939350097647,-0.024580346144559097]",4.0,"[0.050103527906944605,0.18136018381327138]",100.0,"[0.04996870206741649,0.0934610237329054]",4.0,"[-0.13900277285280443,0.07929351552852516]",4.0,"[0.053471150186059635,-0.18561645300337182]",4.0,"[0.02,0.02]",88.8866,0.0,3.0,3.0,203.0,1.0,,,,,,,
,,,,,,,6452b900ed79e166aaf26970,6842bb9393916ab8b4bc3b71,2025-06-06_11h57.54.759,shape_ratio,2024.1.5,Win32,59.88023952,6842b561977af9ba9b0f87ca,,,,,,,,,,,88.8875,89.386,,,89.6413,90.1195,right,,,,,,,,0.9,0.4715,,,,,,,89.3861,89.6412,90.1196,"[-0.07395884990890783,0.00700189556876676]",100.0,"[-0.12001994756968869,0.06448486306757242]",100.0,"[-0.13983942910412386,0.019455274916027793]",100.0,"[0.05876389801604538,-0.15474838503293115]",100.0,"[-0.0696311052143165,-0.12540440303507522]",100.0,"[0.1519652799930223,0.004955521195111704]",100.0,"[0.15926318913374432,-0.10805583674846428]",100.0,"[0.15502352607064293,0.06262207788654411]",100.0,"[0.18890871695271388,0.03607536969736261]",100.0,"[-0.0036565183883841557,-0.02826022482893157]",4.0,"[-0.11721617862038772,-0.11451677331981434]",100.0,"[0.1562673650073208,-0.05493686405202561]",4.0,"[0.10479278882625231,0.02058600998616707]",100.0,"[-0.07950835838937914,0.14058293100143457]",100.0,"[-0.013078043240054403,0.1555814116792522]",100.0,"[-0.15258964109386985,-0.043599111718615614]",100.0,"[-0.12260575384972834,-0.1565463179475677]",100.0,"[0.11576470177844644,0.07201037798840772]",100.0,"[0.021224963140735523,0.05323344921292362]",100.0,"[0.05843620807428033,-0.08964709415486642]",100.0,"[-0.053669576299828964,0.19231942854139508]",100.0,"[-0.04913969977149922,0.054101614333065005]",100.0,"[0.07664783019496034,0.17206625170589213]",100.0,"[0.08725147385361304,0.12889293995721915]",100.0,"[0.0004947891236781642,-0.08603436278400428]",100.0,"[0.03487972279112261,0.11117500257077331]",100.0,"[-0.12670149530395614,0.10494935680236245]",4.0,"[-0.0534954465530095,-0.035305161134537896]",100.0,"[-0.03933225452473781,-0.07681855468497509]",100.0,"[0.03582301220455606,-0.04261642040264686]",100.0,"[0.03127201245389103,0.00019566144592533778]",100.0,"[-0.15704005328827836,-0.09824577388452284]",100.0,"[0.02,0.02]",91.2201,0.0,4.0,4.0,18.0,1.0,,,,,,,
,,,,,,,6452b900ed79e166aaf26970,6842bb9393916ab8b4bc3b71,2025-06-06_11h57.54.759,shape_ratio,2024.1.5,Win32,59.88023952,6842b561977af9ba9b0f87ca,,,,,,,,,,,91.2222,91.7255,,,91.9758,92.5527,left,,,,,,,,0.1,0.5648,,,,,,,91.7256,91.9757,92.5528,"[-0.1209291700233844,0.00014528021077268418]",4.0,"[0.15378332239547055,0.02765758053791748]",4.0,"[-0.029675231691359112,0.13641678692509437]",4.0,"[-0.11904408922762284,-0.04148997883867547]",100.0,"[-0.021503048931501158,0.07936111375164305]",4.0,"[0.13608814387080284,-0.057661115938571636]",4.0,"[0.13216942940855525,-0.11762604264316172]",4.0,"[0.10773478308353028,0.02707276034578921]",4.0,"[-0.07578202855756996,0.1442106480889523]",4.0,"[0.11701608832952232,0.15781909927558146]",4.0,"[0.18103177879214175,-0.008048672005466667]",4.0,"[-0.17055099583850955,-0.022089303009105672]",4.0,"[-0.14466212253029445,0.08557040574404824]",4.0,"[0.047277668736854545,0.09375457250061016]",4.0,"[-0.13975415883738632,0.13648677445453108]",4.0,"[0.00908175815557891,-0.13270300332960094]",4.0,"[0.08180033743765977,-0.03379663995026762]",4.0,"[0.078459205583486,-0.08541762548461888]",100.0,"[0.037827106533322594,-0.07376752729910438]",4.0,"[0.014735212375628802,0.023082097896509123]",4.0,"[0.010452525748204548,0.17027688438058783]",4.0,"[0.09825220104551809,0.09302854965788278]",4.0,"[-0.03759560224051777,-0.13571706350591656]",4.0,"[0.06604642814777036,0.13696814316210462]",4.0,"[-0.008323036486078012,-0.08158400626765042]",4.0,"[-0.04785222158798648,-0.03800683627501547]",4.0,"[-0.06938790702218822,0.013881199444048456]",4.0,"[0.061430802145858936,-0.1663471008415058]",4.0,"[-0.10782690481551295,0.054823958184089534]",100.0,"[-0.07916217118730232,-0.14714873585376217]",4.0,"[-0.09846943103182348,-0.09774459894588619]",4.0,"[0.17142162930106833,-0.0878003536853604]",4.0,"[0.02,0.02]",93.6426,0.0,5.0,5.0,186.0,1.0,,,,,,,
,,,,,,,6452b900ed79e166aaf26970,6842bb9393916ab8b4bc3b71,2025-06-06_11h57.54.759,shape_ratio,2024.1.5,Win32,59.88023952,6842b561977af9ba9b0f87ca,,,,,,,,,,,93.643,94.1364,,,94.3755,95.1034,right,,,,,,,,0.45,0.7122,,,,,,,94.1365,94.3752,95.1035,"[-0.14845217665832217,0.10962296158872901]",100.0,"[0.1623542474225509,0.07445711490607654]",4.0,"[-0.0025812221701394878,0.03479973185656772]",4.0,"[-0.0980473573458065,-0.007107103883356092]",100.0,"[-0.13840806986111878,-0.11147737078150699]",100.0,"[-0.02875391656649173,-0.050070584888811755]",4.0,"[-0.13581509768575858,-0.06649673459738653]",100.0,"[0.06906990186908231,-0.05425246771489523]",4.0,"[-0.19360280299526297,-0.027995808746387154]",4.0,"[0.03632647810716222,0.19409367785200235]",4.0,"[0.18851417624553662,-0.027963845760234075]",100.0,"[0.05554036150770226,0.08282179994279458]",100.0,"[-0.08767336338503559,-0.0485470708650987]",4.0,"[-0.0987407976489204,0.17030200649216812]",4.0,"[-0.059628521746763086,-0.10124328578097545]",100.0,"[0.05046370694437294,-0.16487550102775134]",4.0,"[0.14918006956468963,0.1204727131004406]",4.0,"[-0.023671595587577466,-0.1590760600791291]",4.0,"[-0.06615840028089015,0.05243415977132077]",100.0,"[0.041856740619551136,-0.1256039076240281]",4.0,"[-0.013876431584911846,0.10008274949542442]",100.0,"[0.14450317783186306,-0.039712195737520745]",4.0,"[0.11573225237704618,0.09076603634684635]",100.0,"[0.1320489136699095,0.0034003118079367956]",4.0,"[-0.1366571265640025,0.003426495174233498]",100.0,"[0.05818291147769211,-0.00899245154606862]",4.0,"[0.118160403986379,-0.10530069130541334]",100.0,"[-0.047984832083318794,0.18704920767289926]",4.0,"[-0.1501409798059167,0.04554914657550598]",4.0,"[0.003794059404141291,-0.08496951261952379]",4.0,"[0.08122671513202531,0.1398813693253244]",100.0,"[-0.06338261492481664,0.13112192193829908]",100.0,"[0.02,0.02]",96.2032,0.0,6.0,6.0,135.0,1.0,,,,,,,
,,,,,,,6452b900ed79e166aaf26970,6842bb9393916ab8b4bc3b71,2025-06-06_11h57.54.759,shape_ratio,2024.1.5,Win32,59.88023952,6842b561977af9ba9b0f87ca,,,,,,,,,,,96.2041,96.7024,,,96.9412,97.7527,right,,,,,,,,0.55,0.7831,,,,,,,96.7026,96.9412,97.7527,"[-0.024441185818398808,-0.13025925243272318]",100.0,"[0.0681478444521588,-0.06078678407838176]",4.0,"[-0.03848967706644577,0.09774509842418473]",4.0,"[-0.09336895064664545,-0.16175471453119272]",100.0,"[-0.04306392911275499,-0.05927726681344799]",100.0,"[0.12823394011354172,0.0000706738431868532]",100.0,"[0.04598301745372247,-0.12316197911040733]",100.0,"[-0.10712289737831703,0.08002784637782691]",100.0,"[-0.06042843374503816,0.17341156703990604]",100.0,"[0.15005515365184183,-0.035006297778320226]",4.0,"[-0.1588327197735933,0.10039688237113849]",4.0,"[0.06347732025703068,0.046096439585417114]",4.0,"[0.07599952646068855,0.1058049343430152]",100.0,"[-0.13467578398245633,-0.10293260474850131]",100.0,"[0.0913505500925209,0.1503361388499054]",4.0,"[-0.08250943125388689,-0.08916966076699731]",4.0,"[-0.07758497858691596,-0.03537139045663248]",100.0,"[-0.015169145874188734,0.1395799255481583]",4.0,"[-0.1530609497862561,-0.038401729685251684]",100.0,"[0.12053311744858088,-0.14845730958761644]",4.0,"[-0.19506261427280897,-0.012091980566595703]",4.0,"[-0.13587434426185052,0.017452337490410703]",100.0,"[-0.00002854585061622999,-0.050770591626954124]",100.0,"[0.020210772688209335,-0.19412852080364018]",4.0,"[0.11282036334255237,-0.08007300365282799]",100.0,"[0.03450880096937605,0.13607778525582565]",100.0,"[0.025758111690333013,0.06409370956781744]",4.0,"[0.10802311401698012,-0.03984196358969866]",100.0,"[0.19487176420986727,0.012046934107919316]",100.0,"[0.1095590538977858,0.04831808488114538]",4.0,"[-0.13927301972598227,0.13844915776496278]",100.0,"[0.16363823678248315,0.11032572173100633]",4.0,"[0.02,0.02]",98.8584,0.0,7.0,7.0,66.0,1.0,,,,,,,
,,,,,,,6452b900ed79e166aaf26970,6842bb9393916ab8b4bc3b71,2025-06-06_11h57.54.759,shape_ratio,2024.1.5,Win32,59.88023952,6842b561977af9ba9b0f87ca,,,,,,,,,,,98.8592,99.3531,,,99.6078,100.1532,right,,,,,,,,0.9,0.5219,,,,,,,99.3531,99.6077,100.1533,"[-0.12886697193866375,0.11816562419456274]",100.0,"[0.0022903619532280515,0.18847537517402885]",100.0,"[0.1038580520750368,0.08571692739508992]",100.0,"[0.18623202362851368,0.021286412501634402]",100.0,"[-0.1947325669928794,-0.0350092948777084]",100.0,"[-0.07896093870285763,0.12371583038675031]",100.0,"[-0.0476911036366115,0.04461655574398216]",100.0,"[0.16169675075308965,0.07165592801296983]",100.0,"[0.027622166675617975,0.15369517624541779]",100.0,"[-0.020209869838779187,0.12696979999437832]",100.0,"[-0.10095479170335639,-0.08488695415998398]",100.0,"[0.15706704332595178,-0.0786795644665577]",100.0,"[0.05412991638957179,0.11202175902444896]",4.0,"[-0.14105301944760548,-0.07816972215733414]",4.0,"[0.11208532976162676,-0.14900005288078882]",100.0,"[-0.019351553214562684,-0.02366520561792907]",100.0,"[-0.11384030461440724,-0.12842548534001672]",100.0,"[0.010008467866679933,0.09186492623381455]",100.0,"[-0.10198726590985953,-0.031301234153589395]",100.0,"[-0.1852744478252546,0.02705950112964522]",100.0,"[-0.06638276613477241,0.004849741458101175]",100.0,"[-0.029991636976671947,-0.15771479240649802]",100.0,"[0.010981208898872023,0.019147573661307992]",100.0,"[0.08318038017711224,0.16780767468389898]",100.0,"[0.15195005898643485,-0.038225283379586694]",100.0,"[-0.10121205093468623,0.16512637256571244]",100.0,"[0.13019446638491872,0.004621513505018025]",4.0,"[0.05872481296679488,0.010960294362894555]",100.0,"[-0.046555102966173746,0.18608414096310924]",100.0,"[0.0819914046217512,-0.027665257589466398]",100.0,"[0.10030286007167319,-0.09504671695449518]",100.0,"[-0.03317744790768918,-0.06764500146114386]",100.0,"[0.02,0.02]",101.2527,0.0,8.0,8.0,6.0,1.0,,,,,,,
,,,,,,,6452b900ed79e166aaf26970,6842bb9393916ab8b4bc3b71,2025-06-06_11h57.54.759,shape_ratio,2024.1.5,Win32,59.88023952,6842b561977af9ba9b0f87ca,,,,,,,,,,,101.2543,101.7526,,,102.0092,102.5025,left,,,,,,,,0.1,0.4841,,,,,,,101.7526,102.0091,102.5026,"[0.011206834750529695,-0.14109698713982555]",4.0,"[-0.04327027394878124,-0.18761747404688953]",100.0,"[-0.06911925902035093,-0.08825020188142647]",4.0,"[-0.14353169832777474,0.11726755647214542]",4.0,"[0.02661809003333096,0.042574244545698]",4.0,"[-0.07549443658920872,0.15924361704914153]",4.0,"[0.06489272463407782,-0.15914128951624304]",4.0,"[0.013248799600209235,-0.19059881002590537]",4.0,"[-0.1095330616282662,-0.0898519050045042]",4.0,"[-0.09439790319759062,0.11547687343943605]",4.0,"[0.022945360416629156,0.18148241794642694]",4.0,"[0.028941957750169552,0.09748386859315523]",4.0,"[0.15021400978666286,-0.0879305948082326]",100.0,"[0.18372546484999855,-0.05338929148483924]",4.0,"[0.0432890280091629,-0.08395826669891952]",4.0,"[0.14942160070687768,0.06754107206408855]",4.0,"[0.06069956169726457,0.146860044230322]",4.0,"[0.09017863537139355,-0.02602695641077577]",4.0,"[-0.01617549327516243,-0.01695473676294223]",4.0,"[-0.13367325828444346,-0.011098145825783471]",4.0,"[-0.1895477850567352,0.05701812173404112]",4.0,"[0.037772257005194224,-0.037480346028859815]",4.0,"[-0.09232405284620993,0.041146890772942236]",4.0,"[0.1614865040206669,-0.014822748213443595]",4.0,"[-0.18971278665195299,-0.02125454026606045]",100.0,"[0.08639957312780655,0.07028896449791316]",4.0,"[-0.05355770813513741,0.11283877978786597]",4.0,"[0.14813169271877613,0.025437434372773245]",4.0,"[-0.10181961969604697,-0.04012626881472593]",4.0,"[-0.17955812194117818,-0.0821744643765046]",4.0,"[-0.03482891484156787,0.051607022873590314]",4.0,"[-0.059342528803517036,0.01384532239331202]",4.0,"[0.02,0.02]",103.6083,0.0,9.0,9.0,206.0,1.0,,,,,,,
,,,,,,,6452b900ed79e166aaf26970,6842bb9393916ab8b4bc3b71,2025-06-06_11h57.54.759,shape_ratio,2024.1.5,Win32,59.88023952,6842b561977af9ba9b0f87ca,,,,,,,,,,,103.6089,104.1029,,,104.3596,105.1923,left,,,,,,,,0.6,0.8174,,,,,,,104.103,104.3594,105.1924,"[0.00928179780033634,0.05158156940971964]",100.0,"[0.012255712700172072,-0.008625709416524128]",100.0,"[0.04683712690480456,0.17053249737547604]",100.0,"[0.05401784898684077,-0.18243083071237354]",100.0,"[0.1083840464400332,0.006386471867712056]",100.0,"[-0.082714288113196,0.02468914148766607]",4.0,"[0.09199581771627816,-0.14608548917784092]",100.0,"[0.18427597560042733,-0.06273072003718834]",4.0,"[-0.03640260536882431,0.09980729733474963]",4.0,"[0.031724552185233415,-0.13341599115396913]",4.0,"[-0.08313354623083669,-0.13195483414388895]",4.0,"[-0.16720378366812272,-0.027338673799273527]",100.0,"[0.055016654031628934,-0.012339497396535682]",4.0,"[-0.03597232792370987,-0.08220784650663332]",100.0,"[-0.14048308909721405,-0.12614963880778424]",100.0,"[0.04831937746667024,0.0337678568594415]",100.0,"[-0.15081350714974232,0.09758385177066839]",100.0,"[0.10079253339933562,0.12683110916939347]",100.0,"[-0.053663757064811836,-0.03395222989920468]",4.0,"[0.1522882984244107,0.0016467233800562702]",100.0,"[-0.016140375590039138,0.16729416422708443]",100.0,"[-0.0165882361980271,-0.14222954701381063]",100.0,"[-0.1252070982462007,0.12857559255781356]",4.0,"[-0.1265950388887675,0.029954181051534554]",4.0,"[0.13740448862563104,-0.10894135624438427]",100.0,"[0.057642853512004655,0.07490631309570488]",4.0,"[-0.07023592956401171,-0.17815016750860896]",4.0,"[0.11013449395737647,-0.06212618418538069]",100.0,"[0.013072769842012168,-0.19015421967267335]",100.0,"[0.16365110088196314,0.06768488673030587]",4.0,"[0.021997539027457054,0.09593614881890063]",4.0,"[-0.08644954103307761,0.07409918383380382]",100.0,"[0.02,0.02]",106.2863,0.0,10.0,10.0,42.0,1.0,,,,,,,
,,,,,,,6452b900ed79e166aaf26970,6842bb9393916ab8b4bc3b71,2025-06-06_11h57.54.759,shape_ratio,2024.1.5,Win32,59.88023952,6842b561977af9ba9b0f87ca,,,,,,,,,,,106.2871,106.7869,,,107.0413,108.0369,left,,,,,,,,0.55,0.9694,,,,,,,106.787,107.0413,108.0369,"[-0.13490508031538026,-0.0017993835414344568]",100.0,"[0.10114037431876424,-0.02744515999467446]",100.0,"[-0.0799419388238803,-0.13081644963416983]",100.0,"[0.12250324631059077,0.03311469622507822]",4.0,"[0.19357620284859542,0.046261229940842225]",100.0,"[0.023243826795925522,0.10561201217420585]",100.0,"[-0.15021195053074715,-0.07526616205502513]",100.0,"[-0.08649837502640437,-0.028984456748554828]",100.0,"[0.009377311292216042,0.030228565284260493]",4.0,"[-0.16337853561894697,-0.11462521042287833]",4.0,"[0.05389698831047831,-0.10634914992137406]",4.0,"[0.09125893424084769,0.09916020420634171]",4.0,"[0.16295304216388515,-0.06844196435557176]",100.0,"[-0.08319515755813067,0.14717520456561986]",4.0,"[-0.09512415335290163,-0.08629168074821712]",100.0,"[-0.06025600334621666,0.01839662200638814]",100.0,"[-0.08233656640629089,-0.1734483037619423]",4.0,"[0.004774008880875275,-0.07638620157909977]",4.0,"[0.01578244844042028,-0.03121884300276324]",4.0,"[0.046237403118282734,-0.1540738791713214]",100.0,"[-0.05680015250092344,0.0906855664476227]",100.0,"[-0.045881677507715095,-0.07302295240729022]",4.0,"[-0.020691533662766083,-0.00887998663163007]",4.0,"[0.06964468710314284,-0.06806979540818572]",100.0,"[0.13219700820595964,-0.0977711365406625]",100.0,"[0.10637117379526828,0.14443899809507973]",4.0,"[0.13096151092846986,-0.14559171878297708]",4.0,"[-0.03855477862804043,-0.11981978862311202]",4.0,"[-0.15346052094140814,0.1012413505879643]",100.0,"[0.022306896310901957,-0.19342366937797545]",100.0,"[-0.01648119899831259,0.09177717332719972]",100.0,"[0.1636631292544773,-0.015683824192785686]",100.0,"[0.02,0.02]",109.1386,0.0,11.0,11.0,68.0,1.0,,,,,,,
,,,,,,,6452b900ed79e166aaf26970,6842bb9393916ab8b4bc3b71,2025-06-06_11h57.54.759,shape_ratio,2024.1.5,Win32,59.88023952,6842b561977af9ba9b0f87ca,,,,,,,,,,,109.1393,109.637,,,109.8876,110.303,right,,,,,,,,0.9,0.3926,,,,,,,109.6371,109.8875,110.303,"[0.16385905082393995,0.06781071026157469]",4.0,"[0.1568359576304574,-0.05498429068150039]",4.0,"[0.031501863218952,-0.11998549492220069]",100.0,"[-0.14275805591436666,0.000977098171644256]",100.0,"[-0.17472719791189278,-0.09138108056387137]",100.0,"[0.1208397275024898,0.04421911133818772]",100.0,"[0.10125636954926501,-0.14081880002192887]",100.0,"[0.10892555672305583,-0.08386329910306405]",100.0,"[0.05429197634469651,-0.05021864296776307]",100.0,"[0.04233420012892212,0.017838041226895193]",100.0,"[-0.13883222865597517,0.08130996027772391]",100.0,"[0.08460514795410806,0.06876817834205586]",100.0,"[0.12007604913233112,0.0936973070609924]",100.0,"[-0.08051737277782893,0.10782520396079197]",4.0,"[-0.099529234399084,-0.0013583557454951486]",100.0,"[-0.03299683571279567,0.16167568074183167]",100.0,"[-0.09004880095484179,-0.10458443717427884]",100.0,"[0.19609164230930481,-0.007433666017208685]",100.0,"[-0.1197719649648886,-0.06564363820119248]",100.0,"[-0.09268446279944949,0.17435446104781135]",100.0,"[0.018255419201386867,0.1604434872426227]",100.0,"[-0.03326950610292836,-0.08479649145238984]",100.0,"[-0.05853158652789014,0.012901278845436702]",100.0,"[0.006090559286677547,-0.038274579842084065]",100.0,"[-0.028842765113467346,-0.18083371936627185]",100.0,"[-0.17662245538575422,0.06506542453187124]",100.0,"[-0.0763372092944323,0.049510009428235253]",100.0,"[0.0034208127661822046,0.06390858076901569]",100.0,"[0.0973765343865399,0.00566447733881635]",100.0,"[0.008276852087402389,0.10966737918962885]",100.0,"[0.10506186648548309,0.13892859904926455]",100.0,"[-0.1672857938549801,-0.04516180368775552]",100.0,"[0.02,0.02]",111.4076,0.0,12.0,12.0,14.0,1.0,,,,,,,
,,,,,,,6452b900ed79e166aaf26970,6842bb9393916ab8b4bc3b71,2025-06-06_11h57.54.759,shape_ratio,2024.1.5,Win32,59.88023952,6842b561977af9ba9b0f87ca,,,,,,,,,,,111.4084,111.9027,,,112.1533,112.892,right,,,,,,,,0.45,0.7168,,,,,,,111.9028,112.1533,112.8921,"[0.03452617823051781,-0.1859556962135577]",4.0,"[-0.0018117917034122459,0.19036337435416575]",100.0,"[-0.055321496338143664,0.1561261927351589]",100.0,"[0.0011833670919519008,-0.012269531588495829]",100.0,"[0.1937916149170348,0.01246007494507543]",4.0,"[-0.12231913184286025,0.09573106951019893]",4.0,"[-0.11058108353928843,0.03704315890467704]",4.0,"[-0.10524912002418353,-0.1328345099976116]",4.0,"[0.11340328708715205,-0.014406151950058937]",4.0,"[-0.025321011323327,-0.09761651661680874]",4.0,"[-0.13127347498992742,-0.04084151618897095]",100.0,"[0.04338151883043827,-0.10417388251413177]",100.0,"[0.17437000393500235,0.07879840079997812]",4.0,"[0.047887418898559415,-0.052515230001776755]",4.0,"[0.017064403919911306,0.04049319144128865]",100.0,"[-0.01104732562443506,0.0793749029052499]",100.0,"[-0.07268288773367956,-0.057788264139244615]",4.0,"[-0.05813058796217584,-0.16128691634211467]",4.0,"[0.0630860059076344,-0.012026573754269663]",4.0,"[-0.15165500000059276,0.026198738402333308]",100.0,"[0.11403478429909178,0.1351388193536436]",100.0,"[0.14350954900116333,0.02544857420382465]",100.0,"[0.08635748063484593,-0.08026763231638916]",4.0,"[0.13650129155230462,-0.06302754877941498]",4.0,"[0.09526495443108486,0.05477269241537492]",4.0,"[-0.05270207368747394,0.09937130551187617]",100.0,"[0.06372831371246825,0.14923343617572207]",4.0,"[0.10233996988977465,-0.13100585140037427]",100.0,"[-0.17591168645859204,-0.08091330176275874]",4.0,"[0.149078407293568,-0.12292653395041701]",100.0,"[-0.049170915628648684,0.00249705896848128]",4.0,"[0.047198196428405045,0.09899926518282416]",100.0,"[0.02,0.02]",113.9916,0.0,13.0,13.0,149.0,1.0,,,,,,,
,,,,,,,6452b900ed79e166aaf26970,6842bb9393916ab8b4bc3b71,2025-06-06_11h57.54.759,shape_ratio,2024.1.5,Win32,59.88023952,6842b561977af9ba9b0f87ca,,,,,,,,,,,113.9925,114.4865,,,114.7372,115.5024,right,,,,,,,,0.4,0.735,,,,,,,114.4866,114.7372,115.5025,"[0.06138300627697693,-0.15571118572815323]",100.0,"[-0.037365973351427474,0.17804232872589315]",100.0,"[-0.08273723134779293,-0.03389713014235963]",4.0,"[0.1866898941337572,0.008320597949128487]",4.0,"[0.13916417910343817,-0.014984877939493326]",4.0,"[0.07290173134386435,0.14856232331315547]",100.0,"[-0.07140268279240304,0.09363813233401772]",100.0,"[-0.18748311451575175,0.06450536634110597]",4.0,"[0.12981733778344579,0.12103936148303153]",100.0,"[-0.0018957202848978699,-0.1888887541534264]",100.0,"[0.07842829036822382,-0.10005159781338509]",4.0,"[0.04351793863484626,0.17827188667642227]",4.0,"[0.13398225491992646,-0.09602366898070704]",100.0,"[0.01964876463510292,0.10672935367301672]",4.0,"[0.07260814890737666,0.053638753319642477]",100.0,"[-0.030956625750100074,-0.06374078569775479]",100.0,"[-0.10736664912871594,0.041630357436256406]",100.0,"[-0.15783303677855048,-0.0010547005022216664]",4.0,"[-0.05009412807066471,0.05725931466256952]",4.0,"[0.06470781040600077,0.1023209863582353]",4.0,"[-0.058882354140007157,-0.11645520897988818]",4.0,"[-0.12790352178992515,-0.08528869371354764]",4.0,"[0.1591415306900354,0.06102748724151331]",4.0,"[0.18941363401449393,-0.04479649987413882]",4.0,"[0.04556415610649214,0.021624957809474623]",100.0,"[0.02498261775334461,-0.06431402470541962]",100.0,"[0.024832924529825044,-0.016564693179376887]",4.0,"[-0.013104395486983157,0.031151705715375757]",100.0,"[-0.16676344796751302,0.10975797835208587]",4.0,"[0.11560704129456739,0.023578599395235534]",4.0,"[-0.05206611832211338,-0.17407998524278245]",4.0,"[0.09871329205033309,-0.05424425903758189]",4.0,"[0.02,0.02]",116.607,0.0,14.0,14.0,159.0,1.0,,,,,,,
,,,,,,,6452b900ed79e166aaf26970,6842bb9393916ab8b4bc3b71,2025-06-06_11h57.54.759,shape_ratio,2024.1.5,Win32,59.88023952,6842b561977af9ba9b0f87ca,,,,,,,,,,,116.6076,117.1029,,,117.3557,118.0929,left,,,,,,,,0.5,0.7328,,,,,,,117.103,117.3557,118.0929,"[-0.009336026843361395,-0.061206385077075]",100.0,"[-0.1946037987917227,-0.023135959226591916]",100.0,"[0.014996665912936758,0.16407195895387652]",4.0,"[-0.039959898978420394,-0.1464764668422844]",4.0,"[0.13893149067678434,0.00802005522946736]",4.0,"[0.12764851949924744,-0.11433964292703103]",100.0,"[-0.13725004506827895,-0.037295039955176454]",100.0,"[0.04357292243686926,0.08509824858440328]",4.0,"[-0.14758230499824976,0.06271337616299011]",4.0,"[0.0028564908005383424,-0.11999854028151909]",100.0,"[-0.07990619649182053,0.11636338643070283]",4.0,"[0.08186614598160112,-0.15570834306930825]",100.0,"[-0.19126874930691798,0.05161735679653717]",100.0,"[-0.0345978566591352,0.003857108427208099]",100.0,"[0.19708735512565945,0.008817165352640367]",100.0,"[0.11000505630500933,-0.053215194603458256]",4.0,"[0.03906935565120147,-0.03898089306288605]",4.0,"[0.17770083860509175,0.04965972335379715]",4.0,"[-0.033719242567142295,0.17248874417372947]",100.0,"[0.10468584543195364,0.1162393029921749]",100.0,"[-0.11624519994028772,0.09329977494596904]",4.0,"[-0.004816326161666552,-0.1896620977000691]",4.0,"[-0.0777369698232002,-0.07689910506190738]",4.0,"[0.15714443491260052,0.09448681455660417]",4.0,"[-0.11972087905223157,0.032734881791799696]",4.0,"[-0.023301328631148987,0.05341652834703905]",100.0,"[-0.09690341876330902,-0.16994534726607716]",4.0,"[0.012770884855120507,-0.007776736193773598]",100.0,"[0.18407321063758378,-0.05210049784522615]",100.0,"[0.03747908921750749,-0.19060775248773368]",100.0,"[-0.15314121342183631,-0.11998552553323259]",4.0,"[-0.10964276811512941,0.1488235641141756]",100.0,"[0.02,0.02]",119.1863,0.0,15.0,15.0,116.0,1.0,,,,,,,
,,,,,,,6452b900ed79e166aaf26970,6842bb9393916ab8b4bc3b71,2025-06-06_11h57.54.759,shape_ratio,2024.1.5,Win32,59.88023952,6842b561977af9ba9b0f87ca,,,,,,,,,,,119.1873,119.6868,,,119.9409,120.9864,left,,,,,,,,0.55,1.0373,,,,,,,119.6869,119.9408,120.9866,"[0.1557302214557638,-0.017963900190733115]",4.0,"[0.09044895236843678,0.10348720742937162]",4.0,"[0.1656720175686867,-0.07189363503422358]",100.0,"[-0.06717720319172502,-0.06294542605217061]",4.0,"[-0.1008957628635232,-0.00838952422347702]",100.0,"[0.07152153715915734,0.03832265318398069]",4.0,"[0.04091266892981852,0.06836628810475996]",100.0,"[0.06278481273655326,0.18860979072277323]",4.0,"[0.020987638762819633,-0.02112573963844262]",4.0,"[0.1430178496119512,0.073333689951978]",100.0,"[0.0911964154649228,-0.09821124737192027]",4.0,"[-0.06416974865674734,0.11222076979871501]",100.0,"[-0.014749244602288235,0.06330754350969862]",4.0,"[0.054398729568371586,-0.05507153047017068]",4.0,"[-0.013542393183078934,0.18417776030332345]",100.0,"[-0.1670195873846178,-0.006483991362306883]",4.0,"[-0.1144336989227863,0.09746369594491368]",100.0,"[-0.06412735313257069,0.173243628293513]",4.0,"[0.13557304968908362,0.1316550263336655]",100.0,"[0.03909559833840038,0.14768327893934977]",100.0,"[-0.17882091921484095,-0.08696929067776846]",100.0,"[-0.0141985975555234,-0.06686657673042712]",100.0,"[-0.13366994050004202,-0.11666445423716791]",100.0,"[0.11205338501405018,0.022478353780894217]",4.0,"[-0.024439895846695304,-0.11376408100623417]",100.0,"[0.02258769540387251,-0.10353264707405552]",100.0,"[-0.013246455157160608,-0.18887815252694926]",100.0,"[-0.14399567656455325,-0.05952352532191965]",100.0,"[0.0371999263408734,-0.15611660334499486]",4.0,"[-0.1782663573894036,0.039095992165825454]",100.0,"[0.10303093034539423,-0.15760093201914277]",4.0,"[-0.0380434404326478,0.00568382057241454]",100.0,"[0.02,0.02]",122.0875,0.0,16.0,16.0,77.0,1.0,,,,,,,
,,,,,,,6452b900ed79e166aaf26970,6842bb9393916ab8b4bc3b71,2025-06-06_11h57.54.759,shape_ratio,2024.1.5,Win32,59.88023952,6842b561977af9ba9b0f87ca,,,,,,,,,,,122.0876,122.5866,,,122.8405,124.0428,left,,,,,,,,0.5,1.1973,,,,,,,122.5866,122.8405,124.0429,"[0.07826329714797521,-0.15970718848558088]",100.0,"[-0.17491207990580945,0.034129467058746636]",4.0,"[0.16704813550097766,-0.06996353156685975]",100.0,"[0.04684778463221144,0.09089809344117786]",100.0,"[0.19225024607155003,0.014035988009369425]",100.0,"[-0.07911597908010297,-0.08952099375096022]",100.0,"[0.1530291925367312,0.11905953816304254]",100.0,"[-0.018347918367685376,-0.19002318148468966]",100.0,"[0.014863653951461395,-0.12232230243907793]",100.0,"[-0.1300124346462396,0.01634099548678959]",4.0,"[-0.008273048626196808,0.17170412839053653]",4.0,"[-0.058971617840498994,-0.15250872039141392]",100.0,"[0.1440332176471904,0.033081742300121265]",100.0,"[0.07574527093774401,-0.10565558390618843]",100.0,"[-0.05756075608273127,0.15133541673747375]",100.0,"[-0.011596818562627917,-0.07797569373785898]",4.0,"[-0.1549583056085077,-0.08892087956844574]",4.0,"[-0.03144272987070499,0.12040718147241505]",4.0,"[0.11384191288041864,-0.019962838414890886]",4.0,"[0.012369260578625073,0.053790672894569576]",4.0,"[0.11090255759424457,-0.07688330156731402]",100.0,"[0.1269354065874467,-0.12605448882122225]",100.0,"[-0.1372553391882906,-0.023173459392986175]",4.0,"[-0.11605964848376582,0.1478518325257574]",4.0,"[0.0567347056597085,0.012930560798085617]",4.0,"[0.07422118704777449,0.17034688998874187]",100.0,"[-0.19127065947298916,-0.0041499140140600355]",4.0,"[-0.06154238604260813,-0.04385823401090314]",100.0,"[-0.1531091134407902,0.11774239940039789]",4.0,"[-0.08962939870537298,0.08097711166014968]",4.0,"[-0.032836816905445404,0.013653333191072684]",4.0,"[0.038611388401029095,-0.06583385362128469]",4.0,"[0.02,0.02]",125.1363,0.0,17.0,17.0,108.0,1.0,,,,,,,
,,,,,,,6452b900ed79e166aaf26970,6842bb9393916ab8b4bc3b71,2025-06-06_11h57.54.759,shape_ratio,2024.1.5,Win32,59.88023952,6842b561977af9ba9b0f87ca,,,,,,,,,,,125.1372,125.626,,,125.8703,126.7868,right,,,,,,,,0.6,0.8855,,,,,,,125.6261,125.8701,126.7869,"[-0.035840213844191365,-0.13747353564979417]",4.0,"[-0.04504911423219363,-0.17869060654348043]",100.0,"[0.10972605363912821,-0.09092445689219067]",100.0,"[0.11781651446139958,-0.13098574509243374]",100.0,"[-0.16539460746667464,-0.012086018031932476]",100.0,"[0.05756770544263668,-0.16520987588800695]",100.0,"[0.18211982321845893,0.05313898892807956]",100.0,"[-0.19080742575712997,0.05077028341292318]",100.0,"[0.1890504317737056,-0.05080971434032918]",4.0,"[-0.09862308829559782,-0.11645314031277731]",100.0,"[-0.00969569518400003,0.18942144977589045]",4.0,"[-0.00492373593656228,-0.16368678930623687]",4.0,"[0.1455680299109409,-0.05043383911244688]",100.0,"[0.06055403744270573,-0.09973575238689111]",4.0,"[-0.0636262372519754,-0.06531778073575381]",100.0,"[-0.10642321956345767,0.10894531389250142]",100.0,"[0.036403225145347676,-0.05228041187814978]",4.0,"[-0.011441859196071852,-0.10501775718967592]",4.0,"[-0.03969133070826003,-0.0175099387745599]",100.0,"[0.03963877758193033,0.09798410492046174]",100.0,"[0.07535389231132868,0.1587934784064431]",100.0,"[-0.05335150592744482,0.0952803966596447]",4.0,"[0.022853655347722976,0.049985835258294024]",4.0,"[-0.08483205895125447,0.0004434629019827606]",4.0,"[0.10411313364602537,0.11141687499914381]",100.0,"[-0.10453634681427622,-0.05436210899762392]",4.0,"[-0.10995108277009259,-0.15576707030927145]",100.0,"[0.036790589364038825,0.17249584251200675]",100.0,"[-0.1487712046291091,-0.05473894840238082]",4.0,"[-0.040495173158782594,0.03045298982884755]",100.0,"[0.12343572924269704,0.03793362725538459]",4.0,"[0.04221109885504233,0.0032570499556376256]",100.0,"[0.02,0.02]",127.8757,0.0,18.0,18.0,51.0,1.0,,,,,,,
,,,,,,,6452b900ed79e166aaf26970,6842bb9393916ab8b4bc3b71,2025-06-06_11h57.54.759,shape_ratio,2024.1.5,Win32,59.88023952,6842b561977af9ba9b0f87ca,,,,,,,,,,,127.8762,128.3702,,,128.6204,129.2875,left,,,,,,,,0.6,0.6453,,,,,,,128.3702,128.6204,129.2876,"[0.04467244041259254,-0.14116306702381154]",100.0,"[0.054838622464124735,-0.07566855371394549]",100.0,"[0.07479381117340878,0.03670627994235962]",100.0,"[-0.16658915319731438,-0.09214776556386492]",100.0,"[-0.06386276338695414,-0.017325928401739042]",100.0,"[0.03500039003173107,0.1363565595364239]",100.0,"[0.08007633842683831,0.08267024448885386]",4.0,"[0.0894442442998459,-0.020865605365798807]",4.0,"[-0.12412645434185815,-0.13630547584965313]",100.0,"[-0.1664956564712267,0.04800094487271254]",100.0,"[0.1218199251877848,-0.1582624457681706]",100.0,"[0.19472809227885415,0.022205995092729126]",4.0,"[-0.11274567387245675,0.13036392868743082]",100.0,"[-0.08863331534746789,0.017213645781231832]",100.0,"[-0.013511824260278282,-0.0637717656190886]",4.0,"[-0.07221564257854769,0.13307375551617515]",100.0,"[-0.0660549228202638,-0.13145404446705752]",100.0,"[-0.13788712891097968,0.010471211102960586]",100.0,"[0.10009373256911601,0.12601477067319022]",4.0,"[0.06724941839706726,-0.1828890644359442]",100.0,"[0.15878754316626154,-0.09621837122401626]",4.0,"[0.12516203129806558,0.025163568538872833]",100.0,"[0.024482699033569998,0.09383171544504332]",4.0,"[-0.09673268240384554,0.07692310425914789]",4.0,"[-0.02735741229058324,0.09635892529765788]",100.0,"[-0.027398546518992862,-0.1912503827280454]",4.0,"[-0.022804629254736312,-0.01958132769182473]",4.0,"[0.0794286775816888,0.1740353407109323]",100.0,"[0.17611660933027187,0.08751407400702853]",100.0,"[0.025220927477542152,0.18622038277187478]",4.0,"[0.041388956618515056,-0.009702947450990507]",4.0,"[-0.019832383931611908,-0.1404660397109941]",4.0,"[0.02,0.02]",130.3863,0.0,19.0,19.0,57.0,1.0,,,,,,,
,,,,,,,6452b900ed79e166aaf26970,6842bb9393916ab8b4bc3b71,2025-06-06_11h57.54.759,shape_ratio,2024.1.5,Win32,59.88023952,6842b561977af9ba9b0f87ca,,,,,,,,,,,130.3871,130.8865,,,131.1403,131.8528,left,,,,,,,,0.4,0.6901,,,,,,,130.8865,131.1402,131.8529,"[0.1665009889827176,0.03810791390267374]",100.0,"[0.024771677205290426,-0.05066180272278914]",100.0,"[-0.0820262800903096,0.07314995940448413]",4.0,"[0.11664301085092131,0.04932016948379764]",100.0,"[0.06930696515013636,0.003607862158939516]",100.0,"[0.10725870811989921,-0.05653686805647342]",4.0,"[0.0984986777826238,-0.10353219566762942]",100.0,"[-0.05414262460228864,-0.179169887649779]",4.0,"[-0.16631657129117336,0.05359015651763]",4.0,"[0.06931980846566461,0.06348108973820372]",4.0,"[0.03984917184705031,0.09568959093927573]",100.0,"[-0.006187931686788625,-0.1750775245213901]",4.0,"[-0.023634366091717908,0.034670722522525184]",100.0,"[0.1388362619786107,-0.13358660602129882]",4.0,"[0.09459495811134101,0.15651699942875402]",4.0,"[-0.023457207203915816,-0.010815514887436336]",100.0,"[-0.12369549800009635,0.04938609366605897]",4.0,"[0.018736140571464534,0.01420661678298504]",4.0,"[-0.06135045337265436,-0.13894771664359556]",100.0,"[-0.14497499255700028,-0.07188515908496103]",4.0,"[-0.10099314394335697,0.16429825374637186]",4.0,"[0.13890011281119735,0.003874258232608486]",4.0,"[-0.059220481441509376,0.16996332872688327]",4.0,"[0.16231268237819452,-0.08761945710820655]",4.0,"[-0.0018247359199206374,-0.08093471097292394]",100.0,"[-0.1788407839794431,-0.010668681645036041]",4.0,"[-0.12999160345735508,-0.1303051047244625]",100.0,"[0.13383101344584217,0.11319074060232795]",4.0,"[0.04650393662953914,-0.15091025654920096]",100.0,"[0.0505269208988339,0.17885116321485556]",100.0,"[-0.02690096756968505,0.1285617665958572]",4.0,"[-0.08516514745745794,-0.010872947022789767]",4.0,"[0.02,0.02]",132.9526,0.0,20.0,20.0,150.0,1.0,,,,,,,
,,,,,,,6452b900ed79e166aaf26970,6842bb9393916ab8b4bc3b71,2025-06-06_11h57.54.759,shape_ratio,2024.1.5,Win32,59.88023952,6842b561977af9ba9b0f87ca,,,,,,,,,,,132.9532,133.4554,,,133.7031,134.3026,right,,,,,,,,0.45,0.5692,,,,,,,133.4554,133.7031,134.3027,"[-0.15643435494573538,-0.10631513379806458]",4.0,"[-0.0898789158214135,0.06642074535555686]",100.0,"[-0.05742726756953961,0.042489231829962504]",4.0,"[-0.06113415432743702,-0.12888428216453177]",100.0,"[-0.030836586888545747,-0.05496516161574276]",4.0,"[0.1513990341955736,0.03514452595630098]",4.0,"[-0.02166052183471872,0.09599594172721312]",4.0,"[0.016393734041199925,-0.010237080878334548]",100.0,"[0.10508452185290508,0.08292110196811145]",4.0,"[-0.0669345807379445,-0.16908696327390943]",4.0,"[-0.027632932240489443,0.19539438262806802]",4.0,"[0.018730947509141224,-0.13176100233739932]",4.0,"[0.16536756535336564,-0.10922647308513321]",100.0,"[-0.13815374658578414,0.013111258792772135]",4.0,"[0.06739216041404149,0.15896515619974996]",100.0,"[-0.17671049396508773,0.04739598438801832]",100.0,"[0.09332435684312472,-0.026899519745088543]",4.0,"[0.1841741019384855,-0.05471232806543321]",4.0,"[-0.01050597483949056,0.020601295231996043]",100.0,"[-0.11228825421486847,-0.10151679367816341]",4.0,"[0.0568657921725951,-0.08459651035112664]",100.0,"[0.11111775739503404,0.03139655498355465]",100.0,"[-0.10836799262686786,0.13213564297976754]",4.0,"[0.03161347657071946,0.18131542155395255]",4.0,"[0.1040386934452181,-0.06719003247850536]",4.0,"[0.030842075472162334,0.06751778666770747]",100.0,"[-0.08178973632974777,-0.053106127753334106]",4.0,"[0.08563715612951674,-0.12443795422841832]",100.0,"[-0.06705331394879133,0.1222530350481836]",4.0,"[0.028234323682904915,-0.05566847613544103]",100.0,"[0.16458279129633724,0.07467439652927316]",100.0,"[-0.0690325985850299,0.17290978263099438]",100.0,"[0.02,0.02]",135.391,0.0,21.0,21.0,130.0,1.0,,,,,,,
,,,,,,,6452b900ed79e166aaf26970,6842bb9393916ab8b4bc3b71,2025-06-06_11h57.54.759,shape_ratio,2024.1.5,Win32,59.88023952,6842b561977af9ba9b0f87ca,,,,,,,,,,,135.3917,135.8861,,,136.1407,136.736,left,,,,,,,,0.45,0.5824,,,,,,,135.8862,136.1406,136.7362,"[-0.05582588433433838,0.06663544006555877]",100.0,"[0.06231223985308829,-0.05745553343054053]",4.0,"[-0.055680337132753374,-0.1656884275544084]",4.0,"[-0.0008383035796743622,-0.13353151596582158]",100.0,"[-0.08613240975321916,0.1095388056653165]",100.0,"[0.02683161015800428,0.087576415817474]",4.0,"[-0.1873008670427771,0.06760617135000334]",100.0,"[0.1428690609660128,-0.12305608319082123]",100.0,"[-0.06204846757619405,0.15029339918120294]",4.0,"[0.03261353584007387,-0.02002594816220151]",4.0,"[-0.19241989700985385,0.010812190462855]",100.0,"[0.01995131428180955,-0.1710641065936397]",4.0,"[0.04943938866063861,0.1266494604291653]",100.0,"[0.024716475050713855,0.0444988709906358]",4.0,"[0.0464725091331837,0.17021379752859248]",100.0,"[0.1508391752541336,-0.0263810234485786]",4.0,"[-0.10113352068553834,-0.13672382108415998]",4.0,"[-0.1825362856579844,-0.04439308096326944]",100.0,"[0.1375465876053298,0.10402869703956798]",100.0,"[-0.15338101115271036,-0.00809699461262614]",100.0,"[-0.0864967335762615,0.01163730915539423]",4.0,"[-0.13904989941020168,-0.08135960113010145]",4.0,"[-0.10103666763115034,-0.028289337693265817]",100.0,"[0.10398662828405561,0.011977965726062247]",4.0,"[0.11617341718160319,-0.15731737191367284]",4.0,"[0.06487726452973201,-0.17369388936838684]",4.0,"[-0.005092071170790582,0.1802008544661918]",4.0,"[-0.006641327154428019,0.13630758187847095]",4.0,"[-0.01585944808226525,-0.05155108404211261]",100.0,"[-0.0688226120770791,-0.0609043611220722]",4.0,"[0.0782106767635972,0.09440292464189838]",4.0,"[0.17745659551507983,0.029241788592587113]",100.0,"[0.02,0.02]",137.841,0.0,22.0,22.0,128.0,1.0,,,,,,,
,,,,,,,6452b900ed79e166aaf26970,6842bb9393916ab8b4bc3b71,2025-06-06_11h57.54.759,shape_ratio,2024.1.5,Win32,59.88023952,6842b561977af9ba9b0f87ca,,,,,,,,,,,137.8415,138.3365,,,138.5872,139.103,right,,,,,,,,0.6,0.4911,,,,,,,138.3366,138.5871,139.1031,"[-0.12405649252440783,-0.029249583215556207]",100.0,"[0.12002119130112612,-0.15375503701689594]",4.0,"[0.07345998746745105,-0.17767700618915197]",4.0,"[-0.015592474203971368,-0.1555544915116101]",4.0,"[0.10347407876385697,0.11959147224611567]",4.0,"[-0.04853491055199402,-0.03344891096977107]",100.0,"[-0.07670000973049608,-0.18413402148173194]",100.0,"[-0.07981151795124078,-0.10249126739311956]",100.0,"[0.0919501037829692,-0.0984607253964689]",100.0,"[-0.12557690313346756,0.0994806891369015]",4.0,"[-0.11246824169565185,0.039410796780279755]",4.0,"[0.029691177821712583,0.16482978969613707]",4.0,"[-0.01283438230005727,0.14303509634278228]",4.0,"[0.04176958767064622,0.04040703916473975]",100.0,"[-0.05030796593330519,0.014395058415960147]",100.0,"[-0.17954753971323087,0.05011790600203659]",100.0,"[-0.11204819594120183,-0.07406921849199266]",100.0,"[-0.12541859105080344,-0.12382404620857028]",100.0,"[0.15093589300245608,0.05725360665493774]",4.0,"[-0.19585582337031393,-0.012402748883836433]",100.0,"[-0.157324475198235,-0.0905561443986135]",4.0,"[-0.07685568167720858,0.14765547227947745]",4.0,"[0.057487404606336466,0.11798526882404509]",100.0,"[-0.002843567778793414,-0.02362247149719044]",100.0,"[0.005772402225989573,-0.11538258340253556]",4.0,"[0.11179051038275249,-0.00897217333107019]",100.0,"[-0.01967074965507525,0.0753785332858236]",4.0,"[0.13298474225453183,-0.07592180435794502]",100.0,"[0.05238733336835262,-0.042832272099130334]",100.0,"[-0.07385587458340098,0.08120228404719068]",100.0,"[-0.05043830647536328,-0.13142155363957767]",100.0,"[0.1863745683456984,-0.023316748796430004]",100.0,"[0.02,0.02]",140.1915,0.0,23.0,23.0,44.0,1.0,,,,,,,
,,,,,,,6452b900ed79e166aaf26970,6842bb9393916ab8b4bc3b71,2025-06-06_11h57.54.759,shape_ratio,2024.1.5,Win32,59.88023952,6842b561977af9ba9b0f87ca,,,,,,,,,,,140.1923,140.6871,,,140.937,141.3529,right,,,,,,,,0.9,0.4027,,,,,,,140.6871,140.9369,141.353,"[-0.07120575034212148,-0.1598068461460005]",100.0,"[0.10955984599646006,0.10279743252463412]",100.0,"[-0.027585030168104693,-0.05322920498875597]",100.0,"[-0.16070707470839504,0.021813893012413762]",100.0,"[0.060858849751351835,-0.1596250977855674]",100.0,"[-0.09262213001097869,0.10671417543978613]",4.0,"[-0.09301534315124163,-0.057369997742981724]",100.0,"[0.01977812798084779,0.19832557390372707]",100.0,"[0.08218716369178296,0.13522696648031896]",100.0,"[0.07671451723100191,-0.07226978802890113]",100.0,"[0.11734189877886174,-0.1536338877824027]",100.0,"[0.0786432514830934,0.05174955067372779]",100.0,"[-0.10647224912185867,0.15110934696634237]",100.0,"[-0.10975412648084944,-0.00977200910398776]",100.0,"[0.15023405372548188,0.11153152473192215]",4.0,"[-0.037435091924895525,-0.12417150274089159]",100.0,"[0.016156679060643407,0.07717433838738719]",100.0,"[0.11590994572281899,-0.04702924235014396]",100.0,"[0.16364700705454358,0.03498453769407205]",4.0,"[0.12120243335398012,0.02598660910558891]",100.0,"[0.1938342679117503,-0.014819012560338223]",100.0,"[-0.04044403241653336,0.056286374816455736]",100.0,"[-0.13866836798890303,0.10826849577413632]",100.0,"[0.06344740691212183,0.09103775691953805]",100.0,"[0.1796338904682447,-0.056742537676509254]",100.0,"[0.12659669815137875,-0.10646038910337692]",100.0,"[0.16876947767554012,-0.10386652274338579]",100.0,"[-0.1884152765136128,-0.007411819226025034]",100.0,"[-0.013391955261618295,0.13577258713928547]",100.0,"[0.020248537433486802,-0.11220119760066284]",100.0,"[0.033780134545472594,-0.05169498682130721]",100.0,"[-0.125395744194165,0.061216328270011874]",100.0,"[0.02,0.02]",142.4531,0.0,24.0,24.0,2.0,1.0,,,,,,,
,,,,,,,6452b900ed79e166aaf26970,6842bb9393916ab8b4bc3b71,2025-06-06_11h57.54.759,shape_ratio,2024.1.5,Win32,59.88023952,6842b561977af9ba9b0f87ca,,,,,,,,,,,142.4547,142.9533,,,143.2082,143.77,right,,,,,,,,0.6,0.5382,,,,,,,142.9534,143.208,143.7701,"[-0.10613168918751612,0.16884394743742273]",4.0,"[0.08003652640186806,-0.01845190631396008]",4.0,"[-0.05432804830606664,-0.13348572068402975]",4.0,"[0.07466710925386323,-0.11185763339588904]",4.0,"[-0.1297942399710642,0.02766502913461961]",100.0,"[-0.020674072251555348,-0.07177246892618533]",100.0,"[-0.17949833292742035,0.002157813517273655]",100.0,"[0.1263485884585543,0.10820329512408931]",100.0,"[-0.13950099725615367,-0.017144185704019984]",100.0,"[0.07145547812648696,0.13142081800170405]",4.0,"[-0.021667668989328235,0.1634340504686342]",100.0,"[0.18938966918784256,0.011470050726147048]",4.0,"[0.13121918404159402,-0.034409270799371325]",4.0,"[0.13002367210374638,-0.1480956424413388]",100.0,"[-0.06454486824141506,-0.046792486026574695]",100.0,"[0.1485837796096219,0.013583262742839278]",100.0,"[-0.1663835043152415,-0.04872929447052389]",100.0,"[0.030243704494432724,0.008562608277444721]",100.0,"[-0.07919288878010915,-0.09981862978024185]",4.0,"[-0.03163475467507158,0.0066955562561915125]",100.0,"[-0.09450328872665024,-0.1405680945061468]",4.0,"[-0.13753082092261282,0.10820303259344115]",100.0,"[0.17851542581928284,0.058777470113850164]",4.0,"[-0.06744641594794974,0.0830118398923458]",4.0,"[-0.09766164072671035,0.002827064606292425]",100.0,"[0.011402549142370468,-0.17533165102384307]",100.0,"[0.007860005650613582,0.04964949973775746]",100.0,"[0.1295927790361773,0.15001379813276605]",4.0,"[0.04762870200306622,0.17903659988284693]",100.0,"[0.039850674835876045,-0.03113322442149944]",100.0,"[-0.06932576925019633,-0.17535902766511324]",100.0,"[0.0450876242505473,-0.07650367384915034]",4.0,"[0.02,0.02]",144.87,0.0,25.0,25.0,35.0,1.0,,,,,,,
,,,,,,,6452b900ed79e166aaf26970,6842bb9393916ab8b4bc3b71,2025-06-06_11h57.54.759,shape_ratio,2024.1.5,Win32,59.88023952,6842b561977af9ba9b0f87ca,,,,,,,,,,,144.8716,145.369,,,145.6251,146.3037,left,,,,,,,,0.5,0.6722,,,,,,,145.369,145.6251,146.3038,"[-0.011067904341772086,-0.1197899347049405]",100.0,"[0.05130910752465629,-0.14270953374702475]",100.0,"[0.014960166329585765,0.04207934491996102]",4.0,"[0.0014403774988941465,-0.003528589149454163]",100.0,"[-0.01619479362135827,0.17326318408798957]",100.0,"[-0.18353394772132764,0.04105143219409947]",4.0,"[0.1501154169718899,0.0013171282589402953]",100.0,"[0.02775579748920025,0.10130226348598458]",100.0,"[-0.08754947684520831,0.03794180752693685]",4.0,"[-0.10562892473869824,0.11221178568902293]",4.0,"[0.17167392502703,0.051162175664903484]",4.0,"[0.10118472890729188,0.10314796845632357]",4.0,"[0.08288842374146566,0.05466204497743315]",100.0,"[0.0808548317842851,-0.04905334201326531]",100.0,"[-0.13358845058709806,0.02435163794782332]",4.0,"[-0.12737844324381864,-0.07684041557110788]",100.0,"[0.1187921527771136,-0.09337343619644256]",100.0,"[-0.008327035952577232,-0.17095305001742214]",4.0,"[-0.10827483298269537,-0.025274193734558584]",4.0,"[-0.014296856521808121,-0.07715984235719169]",100.0,"[-0.07867342941671611,-0.06571394386578304]",100.0,"[-0.07129283834927798,-0.1797762414034975]",100.0,"[0.0728415769689671,-0.10335388961327936]",100.0,"[0.062226053944119564,0.00941429952421535]",4.0,"[-0.010805630155206601,0.07293404182773851]",4.0,"[0.1378373176222105,0.07330880601245254]",100.0,"[0.16126431655094023,-0.09877832487372834]",4.0,"[0.03532899407675117,-0.05462118239879583]",4.0,"[-0.15996601757607354,-0.03499646312724224]",4.0,"[0.1807358469641251,-0.053693771508231944]",100.0,"[0.10517809566488553,0.005444175206748884]",4.0,"[0.035374303024141115,0.14798970222679383]",4.0,"[0.02,0.02]",147.3919,0.0,26.0,26.0,102.0,1.0,,,,,,,
,,,,,,,6452b900ed79e166aaf26970,6842bb9393916ab8b4bc3b71,2025-06-06_11h57.54.759,shape_ratio,2024.1.5,Win32,59.88023952,6842b561977af9ba9b0f87ca,,,,,,,,,,,147.3925,147.8919,,,148.1375,148.6687,left,,,,,,,,0.4,0.5147,,,,,,,147.892,148.1371,148.6688,"[0.09741213303161268,0.1667388188974033]",100.0,"[0.09827507264952774,-0.12022714108517814]",4.0,"[-0.0394419766587075,-0.12480204408966834]",4.0,"[0.1723478454239343,-0.06529961352621326]",100.0,"[0.1590696539182713,0.10112797730861095]",100.0,"[-0.03623200442648486,-0.009425383836357108]",4.0,"[0.01699839581831468,-0.17872625293910047]",100.0,"[0.0994230947440048,0.06792354372125523]",100.0,"[-0.03414733084969115,0.18777085544315372]",100.0,"[-0.1569191029421609,-0.09783176892077307]",100.0,"[-0.08686828485412923,0.03804176735562101]",4.0,"[-0.11167835038949857,-0.026448688040815196]",4.0,"[0.03633447609048328,0.1760461315822326]",100.0,"[0.15575472906809135,0.00599034353293607]",4.0,"[-0.18638540724893488,-0.03208094735587181]",4.0,"[-0.04984243862097272,0.10963970048200908]",4.0,"[0.04268270808265314,0.06355330730374999]",4.0,"[-0.02049279097268928,0.06381055848789359]",4.0,"[-0.1748588421256295,0.057955371735423394]",100.0,"[0.09886841256012135,-0.07259024541966007]",4.0,"[-0.03901102138189215,-0.19240032104138133]",4.0,"[0.18891604517398916,0.05038337922411728]",100.0,"[-0.13298924208735682,0.052597923204079654]",4.0,"[0.006066468161047211,0.12459818436412862]",4.0,"[0.023536977604920004,-0.05772289112959105]",4.0,"[0.024304036294554396,0.01802169269240755]",4.0,"[0.053574479857265746,-0.11762734897461913]",4.0,"[0.11266902325991072,0.027626483266407317]",100.0,"[0.0010051082153057361,-0.1286944234667968]",100.0,"[-0.06615328282436445,-0.06278803874894363]",4.0,"[-0.08103574973361626,0.1524180020532407]",4.0,"[-0.0886199215124766,-0.14725181784070332]",100.0,"[0.02,0.02]",149.77,0.0,27.0,27.0,153.0,1.0,,,,,,,
,,,,,,,6452b900ed79e166aaf26970,6842bb9393916ab8b4bc3b71,2025-06-06_11h57.54.759,shape_ratio,2024.1.5,Win32,59.88023952,6842b561977af9ba9b0f87ca,,,,,,,,,,,149.7712,150.2698,,,150.52,150.9694,right,,,,,,,,0.5,0.4363,,,,,,,150.2698,150.5199,150.9695,"[-0.026342244603944034,0.06604830323598171]",4.0,"[0.08376552842604736,0.03612260406747841]",100.0,"[0.079517211475979,-0.0517239277559863]",100.0,"[-0.18137171294875468,-0.06851364399525899]",100.0,"[0.03940809429619788,-0.10689282702990362]",4.0,"[0.03769960895025033,-0.0005762821080695723]",100.0,"[0.007052798003822133,-0.036019032128838696]",100.0,"[0.09502431551317145,-0.11820137007230187]",100.0,"[0.07827389684275855,0.13371634427843332]",100.0,"[-0.031202727365371857,-0.05162861830020382]",4.0,"[-0.018616267710094784,-0.09701205047173779]",100.0,"[-0.04851956998099189,-0.006325005804726736]",100.0,"[0.16903880974977517,0.010438906857154562]",100.0,"[0.08423150811552714,0.17755474748191857]",4.0,"[-0.06367887369773938,-0.13415066023215216]",100.0,"[0.1298616348295158,0.06489974511942918]",4.0,"[0.17481489755742619,-0.05321595306191909]",4.0,"[-0.0798298687650569,0.08292245594920852]",4.0,"[-0.07920610113939225,-0.17421372321279419]",100.0,"[-0.12324509684941796,0.09826010736004516]",100.0,"[-0.15588910695104902,0.0029921306306461603]",4.0,"[0.007509850633205673,0.11524496765862625]",4.0,"[0.014871446547455267,0.05576630722426916]",4.0,"[-0.09740960499780554,-0.07762136462860193]",4.0,"[-0.10717094977018468,-0.011769570492686194]",100.0,"[-0.04207853539217121,0.185096318791835]",4.0,"[0.1031398890857887,-0.16838104860192596]",4.0,"[-0.00027180661738629566,-0.17099683394731552]",4.0,"[0.12922351491195397,0.00021542553649588251]",100.0,"[0.13083720281842648,-0.051966981943874314]",4.0,"[-0.17936104100293443,0.05099021283762049]",100.0,"[-0.11371389274953801,-0.15264596705286895]",4.0,"[0.02,0.02]",152.0688,0.0,28.0,28.0,100.0,1.0,,,,,,,
,,,,,,,6452b900ed79e166aaf26970,6842bb9393916ab8b4bc3b71,2025-06-06_11h57.54.759,shape_ratio,2024.1.5,Win32,59.88023952,6842b561977af9ba9b0f87ca,,,,,,,,,,,152.0698,152.5697,,,152.8236,153.5862,left,,,,,,,,0.4,0.7457,,,,,,,152.5697,152.8234,153.5863,"[-0.1630010373838823,-0.0008780693747148033]",4.0,"[-0.0006804444481738328,0.18827842297401434]",100.0,"[-0.023733475548972705,-0.008344531447066811]",4.0,"[-0.07973439290864455,-0.042463569860116075]",4.0,"[-0.1251901899877261,0.035032999131191137]",100.0,"[-0.16411570122089233,0.1102850707092401]",4.0,"[-0.003588139257973364,0.028653629036923]",4.0,"[0.008085708379860609,0.10197676713174623]",100.0,"[-0.1637372086947901,0.05475458742789765]",4.0,"[0.04654065156810803,-0.032309682099117894]",100.0,"[0.18708938435680664,-0.018611503171584307]",4.0,"[0.0009619090119894584,-0.18967432175424598]",4.0,"[-0.043116017347455564,0.09697749399658256]",100.0,"[0.1419304799943961,-0.03753115844788275]",4.0,"[0.1785578016918993,-0.08026863148380105]",4.0,"[-0.06448345981364884,-0.11200844485062603]",4.0,"[-0.08234501243612481,0.07558699352533829]",100.0,"[0.0666780839214491,-0.1400209446109416]",4.0,"[0.15969453747262613,0.08881264711328764]",100.0,"[-0.07772317319189018,-0.15653936231945806]",4.0,"[-0.07918533957357465,0.13710211132755507]",4.0,"[-0.010031244822015131,-0.12487347836239195]",100.0,"[0.09937472633966078,0.034518951848443086]",100.0,"[0.04599562279532368,-0.1852371779787161]",4.0,"[0.11249033101502785,-0.144724868797292]",4.0,"[0.06114908357752436,0.05486091366368585]",4.0,"[0.10699741416947114,0.1402408974161513]",100.0,"[0.07930167742479935,-0.07360679556341215]",100.0,"[-0.17624115047740513,-0.08064765578926528]",100.0,"[0.09514069248706175,0.08258452692885827]",4.0,"[0.14998575448946658,0.04675567029131958]",4.0,"[-0.010642951776594215,0.14547449694562467]",100.0,"[0.02,0.02]",154.6862,0.0,29.0,29.0,176.0,1.0,,,,,,,
,,,,,,,6452b900ed79e166aaf26970,6842bb9393916ab8b4bc3b71,2025-06-06_11h57.54.759,shape_ratio,2024.1.5,Win32,59.88023952,6842b561977af9ba9b0f87ca,,,,,,,,,,,154.6869,155.1864,,,155.441,155.8028,right,,,,,,,,0.9,0.3518,,,,,,,155.1865,155.4408,155.8029,"[-0.04169148679579578,-0.004277208045973868]",100.0,"[0.10008196613807879,0.11567414319268157]",100.0,"[0.14396011010457796,-0.010605653935413475]",100.0,"[0.11311257708983276,0.034666471759475875]",100.0,"[0.0057525765538359655,0.18327704964286035]",100.0,"[-0.011703426671874934,-0.1309897575921966]",100.0,"[-0.19481670992570468,0.026652658806803117]",100.0,"[-0.07030270534489338,0.0529419189142655]",100.0,"[-0.11031970454651426,-0.14798582534893567]",100.0,"[0.15586969743272328,-0.12030960217043415]",100.0,"[0.06166902064117677,0.18491025755212162]",100.0,"[0.02295402271458461,-0.09270517475155704]",100.0,"[0.1062516741175923,-0.1434721477924024]",100.0,"[0.15403812300758374,-0.05058005928356034]",100.0,"[-0.10744936196548098,0.08578411735465205]",4.0,"[0.059921996991460204,0.07875220280237841]",4.0,"[0.05053474399682222,-0.1221873480216745]",100.0,"[-0.06753394746670971,-0.04746697855796839]",100.0,"[-0.11380257687325879,-0.10395449052955952]",100.0,"[-0.14400961211169883,-0.03105672893656185]",100.0,"[0.015422693529269836,0.05551760930405862]",100.0,"[-0.03778485885147806,0.1112012594446364]",100.0,"[0.18913501202986463,0.0456668500572814]",100.0,"[0.1820723137280865,-0.07986605256933574]",100.0,"[-0.15018768060248885,0.11420593945815584]",4.0,"[0.035790288863484176,-0.165650244884367]",100.0,"[-0.018681632257126213,0.029729992885193065]",100.0,"[-0.028383279819784456,-0.18861952569049414]",100.0,"[0.10696290695300235,-0.05786057039627987]",100.0,"[0.05069681994001187,-0.03956919190263491]",100.0,"[-0.152577369281014,-0.08222670289211863]",100.0,"[-0.08725707116297225,0.01274419298961624]",100.0,"[0.02,0.02]",156.9026,0.0,30.0,30.0,20.0,1.0,,,,,,,
,,,,,,,6452b900ed79e166aaf26970,6842bb9393916ab8b4bc3b71,2025-06-06_11h57.54.759,shape_ratio,2024.1.5,Win32,59.88023952,6842b561977af9ba9b0f87ca,,,,,,,,,,,156.9033,157.3909,,,157.6372,158.353,right,,,,,,,,0.6,0.6863,,,,,,,157.3909,157.6372,158.3531,"[-0.11556850955836888,0.09691193727445503]",4.0,"[0.16687391743189428,-0.05181278792101272]",100.0,"[-0.01643888309364517,0.06296694429629321]",100.0,"[-0.07776670316204128,-0.016566515897565744]",4.0,"[-0.0008352910050358009,-0.17449096573764422]",100.0,"[0.0014537909641533563,0.1581571781249783]",100.0,"[0.01801814604717765,0.025378557165811076]",4.0,"[0.13282239734479495,-0.07649693248424626]",4.0,"[0.08964053418851246,-0.007659783825068116]",100.0,"[0.12652112830182258,0.12890999943760392]",100.0,"[-0.05318149797443174,0.02125435291203079]",100.0,"[0.0800568076352572,0.05200703114626712]",100.0,"[0.057310853182682496,0.1770773244394721]",4.0,"[0.015337175391474358,-0.05799506517500567]",100.0,"[-0.19098595719634714,-0.05156122641618528]",100.0,"[-0.18927182977821647,0.057674544438026644]",4.0,"[0.13205449065642574,0.029513186882365317]",4.0,"[-0.02111564355234788,-0.07598623911487142]",100.0,"[0.0687961834544583,-0.05160416688628758]",100.0,"[-0.04469715618613484,-0.1701798441586139]",4.0,"[0.0005938922678958332,-0.12104069981671549]",100.0,"[-0.11704274968739874,0.035873064558919185]",100.0,"[-0.13409521781395067,-0.1075245686258376]",100.0,"[-0.13866776187829719,-0.0058870335447558705]",4.0,"[0.05645314325443477,-0.14089372191156554]",4.0,"[-0.03751323047470526,0.12546211675106456]",4.0,"[-0.1123700635941699,-0.0735816381733713]",100.0,"[0.06359481528455793,0.1076791620807429]",4.0,"[-0.06378613019025751,0.1773048344702419]",100.0,"[-0.18311089415512646,-0.007748505072726589]",4.0,"[0.1527479444764126,-0.11323950481072326]",100.0,"[0.17220469761814963,0.01116849082994773]",100.0,"[0.02,0.02]",159.4555,0.0,31.0,31.0,48.0,1.0,,,,,,,
,,,,,,,6452b900ed79e166aaf26970,6842bb9393916ab8b4bc3b71,2025-06-06_11h57.54.759,shape_ratio,2024.1.5,Win32,59.88023952,6842b561977af9ba9b0f87ca,,,,,,,,,,,159.4561,159.953,,,160.2086,160.7864,left,,,,,,,,0.45,0.5623,,,,,,,159.9531,160.2085,160.7865,"[0.1659851042594126,0.04788430340758364]",100.0,"[-0.13607208983923458,-0.12408347409248638]",4.0,"[0.013666856732590485,-0.04780286184497389]",4.0,"[-0.04035192529080327,0.0719567642714161]",100.0,"[-0.06842154253691969,-0.15964880166711867]",100.0,"[0.08219799528408947,-0.013107888064410012]",4.0,"[-0.11607551731461253,0.09628713425753625]",4.0,"[0.06171372949771574,0.15717851897907847]",100.0,"[-0.1186348509102434,0.13641506509250143]",100.0,"[0.06748575800473015,-0.1551406622265592]",100.0,"[0.18517277849948463,-0.008383257816776762]",100.0,"[-0.018988800415620104,0.011502353836820377]",100.0,"[0.10482702061389457,0.14934219661787226]",4.0,"[0.10629554553550422,-0.08630466561088239]",4.0,"[0.13883930427312624,-0.12450007989973812]",100.0,"[0.14010393774843785,-0.05820324295234424]",4.0,"[-0.18294573733769634,0.06925561872625499]",4.0,"[0.11487823756461618,0.0894298414099508]",4.0,"[0.1599165043916066,0.11885997661205851]",4.0,"[-0.08670982505286594,-0.12258238416432442]",4.0,"[-0.0629084865461088,0.17247920776597533]",4.0,"[-0.10501173739385458,-0.025386662010813053]",4.0,"[-0.058558366685775104,-0.003708280859859475]",100.0,"[0.06713255985577288,0.060225062813079225]",4.0,"[-0.148146475405233,0.0020231003466571478]",4.0,"[-0.11088480616304115,0.03860012456560507]",100.0,"[-0.09878978480684003,-0.06572807538477657]",4.0,"[0.000780569820307577,-0.13737811797101016]",4.0,"[0.00518687915854072,0.10167703739675359]",100.0,"[0.023895402284969867,0.19463069679990377]",100.0,"[-0.18422281983762484,-0.02036708399289433]",4.0,"[-0.02606321783393099,-0.10389131212901637]",100.0,"[0.02,0.02]",161.8865,0.0,32.0,32.0,141.0,1.0,,,,,,,
,,,,,,,6452b900ed79e166aaf26970,6842bb9393916ab8b4bc3b71,2025-06-06_11h57.54.759,shape_ratio,2024.1.5,Win32,59.88023952,6842b561977af9ba9b0f87ca,,,,,,,,,,,161.8874,162.3865,,,162.6254,163.2918,left,,,,,,,,0.4,0.6608,,,,,,,162.3866,162.6253,163.2919,"[-0.02595742616330194,-0.06937456375709147]",4.0,"[-0.16298656809378897,-0.06726408545226631]",100.0,"[-0.07069531887104279,0.05955093726656718]",100.0,"[0.0404518296662733,-0.18608126645465606]",100.0,"[0.15034038987173112,-0.06260012265733612]",100.0,"[-0.030909740561616078,0.025898693990320142]",100.0,"[0.07237281783842638,-0.12982065053740324]",4.0,"[0.16831200366423296,0.029875115842790238]",4.0,"[-0.011085039275137695,-0.18869300160223546]",4.0,"[0.06742232800742502,0.11923810127233078]",4.0,"[-0.08970996689199652,-0.015716440916494136]",100.0,"[-0.12286325451714884,0.04680581340970716]",4.0,"[0.10456813505946222,-0.06308761831741097]",4.0,"[0.004815683789128242,0.14410354817569118]",100.0,"[-0.1525226752568426,0.09180151965671046]",100.0,"[0.0284222879840294,-0.04682896102681361]",100.0,"[0.06981677686771333,0.01932321177016113]",4.0,"[-0.10117285777132665,-0.0702069315533963]",4.0,"[0.15466069257333273,-0.12251497400453909]",100.0,"[-0.01352932904506295,-0.025081715591982058]",4.0,"[-0.13705855882508897,-0.12421656803421396]",4.0,"[0.08907933646901903,0.1735048168789281]",4.0,"[-0.1836546009308481,-0.010524154904398066]",4.0,"[-0.06748182286802734,0.1855310670484609]",4.0,"[-0.09054490788866713,0.10576192985784508]",4.0,"[0.16808624105427694,0.07516003664625687]",4.0,"[-0.13628276388292168,-0.008542407744162848]",100.0,"[-0.05694277305275479,-0.16930288580450248]",100.0,"[-0.04130481018068897,0.10794915365160668]",100.0,"[0.017694751641964167,0.0860545672028391]",4.0,"[-0.06364602575383523,-0.10924757254842248]",4.0,"[-0.10340873266320778,-0.16725319750936948]",4.0,"[0.02,0.02]",164.3852,0.0,33.0,33.0,164.0,1.0,,,,,,,
,,,,,,,6452b900ed79e166aaf26970,6842bb9393916ab8b4bc3b71,2025-06-06_11h57.54.759,shape_ratio,2024.1.5,Win32,59.88023952,6842b561977af9ba9b0f87ca,,,,,,,,,,,164.3857,164.8867,,,165.1412,166.0863,right,,,,,,,,0.55,0.93,,,,,,,164.8867,165.1412,166.0864,"[-0.05036297213273699,-0.028538424392032476]",100.0,"[0.0002785228374909022,-0.13327346110229832]",4.0,"[0.10631549194584629,-0.10111444574881405]",100.0,"[-0.009715975760942753,0.06771235033320287]",4.0,"[0.03665011357871565,0.04325457461436563]",4.0,"[-0.035900565910296674,0.13069089497100775]",4.0,"[0.029249075811907305,0.16846946680763844]",4.0,"[-0.18392113052190573,0.03449996719471859]",100.0,"[0.18570703420187176,-0.007032300777216954]",100.0,"[0.10249760196602568,0.07749526675165572]",4.0,"[0.016402328254174238,0.11415666777036908]",4.0,"[0.10381584919547775,-0.029833563243156083]",100.0,"[0.10743312828792172,0.1462872268817343]",100.0,"[0.08998393181274221,0.03210093191151386]",100.0,"[-0.07743297758339256,0.0810221533570583]",100.0,"[0.031168577897554374,-0.1787400011074202]",100.0,"[0.0026151007698659466,-0.04650195128378175]",100.0,"[-0.11688831046600864,0.027535240730123797]",100.0,"[0.05370971328161429,-0.12300340573928709]",100.0,"[-0.05648766859096618,0.18684092026509103]",100.0,"[-0.10900390484261091,-0.049121219557814295]",4.0,"[-0.1651185667583004,-0.05018561173287953]",4.0,"[0.10382985602057546,-0.15095225457645342]",100.0,"[-0.1195215416341604,-0.1585302920717485]",100.0,"[0.020788730056228256,-0.08847008032746723]",4.0,"[-0.06874450975495565,-0.15168443646328209]",100.0,"[0.013028648750158512,0.0007076105786331851]",100.0,"[0.14770853158067757,-0.06483946949528385]",4.0,"[-0.07545823077369164,0.14034372287935956]",4.0,"[-0.13207636801433278,-0.11191495655907295]",4.0,"[-0.11350214137158796,0.11646526695105398]",100.0,"[-0.023821077690090654,-0.17911760526971318]",4.0,"[0.02,0.02]",167.1864,0.0,34.0,34.0,74.0,1.0,,,,,,,
,,,,,,,6452b900ed79e166aaf26970,6842bb9393916ab8b4bc3b71,2025-06-06_11h57.54.759,shape_ratio,2024.1.5,Win32,59.88023952,6842b561977af9ba9b0f87ca,,,,,,,,,,,167.187,167.6913,,,167.9368,168.7366,left,,,,,,,,0.45,0.7699,,,,,,,167.6913,167.9368,168.7367,"[-0.07583104917794363,0.08466619595580156]",4.0,"[0.07684368820708905,0.011853048483410102]",100.0,"[0.052433961227736234,0.08247744920872165]",4.0,"[0.10948396378137126,0.1583688691494816]",4.0,"[0.06310736084336867,-0.049267501998641605]",100.0,"[0.035295688675990144,-0.0035423711506838416]",4.0,"[-0.05238877104832809,-0.1783683364959967]",100.0,"[-0.14238160488657217,-0.07480828203471546]",100.0,"[0.08215030696462451,-0.09879818378591723]",4.0,"[0.0016164262325757649,0.049255540308667925]",100.0,"[-0.07805129540648958,0.033933624314231005]",100.0,"[0.11683779170808224,-0.019168219500926075]",100.0,"[-0.10592637054385831,-0.0028082533409125752]",100.0,"[0.07303346812915013,-0.14095819845615462]",4.0,"[0.11097551433639545,0.04269712155555488]",4.0,"[-0.014478118648136327,-0.1520046605646257]",4.0,"[-0.17293152080760307,0.06728585248531892]",4.0,"[-0.030404476473254116,-0.07720308775517185]",4.0,"[-0.025795716185305437,0.008524660358980493]",4.0,"[0.17090185211136674,0.01694116892144171]",100.0,"[-0.07132884655875293,0.16247684421150918]",100.0,"[-0.17079724350139222,-0.043447528576370534]",100.0,"[-0.019002709765785095,0.1391140859708262]",100.0,"[0.028434107656117518,-0.10312354410901121]",100.0,"[0.16703852904139266,-0.024195144127181496]",4.0,"[0.1831642279852967,-0.061699079914425865]",4.0,"[-0.1398564732153242,-0.1243604532140324]",4.0,"[0.12792295304760748,0.1218078050815964]",4.0,"[0.06293892717617677,0.15856088037728305]",4.0,"[0.005177831829596466,0.19797420927517692]",4.0,"[-0.07882799260581837,-0.12997491328250993]",100.0,"[-0.05968576079601699,0.1220030071393129]",4.0,"[0.02,0.02]",169.8357,0.0,35.0,35.0,127.0,1.0,,,,,,,
,,,,,,,6452b900ed79e166aaf26970,6842bb9393916ab8b4bc3b71,2025-06-06_11h57.54.759,shape_ratio,2024.1.5,Win32,59.88023952,6842b561977af9ba9b0f87ca,,,,,,,,,,,169.8365,170.3365,,,170.5755,171.037,right,,,,,,,,0.1,0.446,,,,,,,170.3366,170.5755,171.037,"[-0.17314049638491466,-0.033180916568420774]",4.0,"[0.08840108951484302,-0.15787366162406674]",100.0,"[0.0899714973005943,-0.11580691488770274]",4.0,"[-0.076860122128831,-0.1510985816811706]",4.0,"[0.04772704847569744,-0.13571219207513738]",4.0,"[0.059245265038260914,0.15542027193739]",4.0,"[-0.12519891872351416,0.1286459392444686]",4.0,"[-0.03802299216386544,0.1789609062593799]",100.0,"[-0.13742333929381773,-0.11857343331694481]",4.0,"[-0.010502195785862905,0.0837317476428834]",4.0,"[0.08907982735796806,0.0032189680204174533]",4.0,"[0.007038480667478562,0.03628756204824377]",4.0,"[0.14615088238882729,-0.054467343302229874]",4.0,"[-0.0986977175601782,-0.0010250434229211727]",4.0,"[0.05377954638075157,-0.08733798099753295]",4.0,"[0.0027427569917578727,0.1257981815961244]",4.0,"[0.08480784425321151,0.07876736465462368]",4.0,"[0.17660080923452437,0.07514831810535452]",4.0,"[0.15143073528163972,0.0060345981986332725]",4.0,"[0.0025042551437540585,-0.1523352056318033]",100.0,"[0.049380530947168266,0.029563563626621873]",4.0,"[0.07020297810417195,-0.037693198314271016]",4.0,"[-0.09440992121608256,0.16890476440138932]",4.0,"[-0.06945437202304912,0.08023772158188087]",4.0,"[-0.11891120754091915,-0.04229928749354414]",4.0,"[-0.130343016523002,0.06903138334477292]",4.0,"[-0.09571647691437989,-0.10335725786114172]",4.0,"[-0.05800648497014633,-0.03080865625110042]",4.0,"[-0.03374086382559829,0.03296753781489837]",4.0,"[0.1175549683687589,0.1290493453241855]",4.0,"[0.13602024090364978,-0.1122797613171473]",4.0,"[-0.027679085990639896,-0.09118419232791095]",4.0,"[0.02,0.02]",172.1363,0.0,36.0,36.0,207.0,1.0,,,,,,,
,,,,,,,6452b900ed79e166aaf26970,6842bb9393916ab8b4bc3b71,2025-06-06_11h57.54.759,shape_ratio,2024.1.5,Win32,59.88023952,6842b561977af9ba9b0f87ca,,,,,,,,,,,172.1373,172.6362,,,172.8752,173.4583,right,,,,,,,,0.55,0.5768,,,,,,,172.6363,172.8751,173.4584,"[0.1659700808936498,0.0581285836076077]",100.0,"[-0.13328881027402503,-0.03581209053083531]",100.0,"[-0.09683115955439077,-0.08717108789738622]",100.0,"[0.0708619342523066,-0.07850031706607229]",4.0,"[0.021741775150073108,-0.09620712570458374]",100.0,"[-0.024845090624060748,0.05885027817253412]",100.0,"[0.15066724950541907,0.12345213292957302]",4.0,"[0.0650983166190744,0.16051287751821042]",4.0,"[0.17499700190000983,-0.05416327681780805]",100.0,"[0.10709834473375228,-0.04055948067958257]",4.0,"[-0.044173186438573986,-0.1804154543492248]",100.0,"[0.035805377162617856,0.1266006181817756]",4.0,"[-0.04335512138467999,-0.0277330550980433]",100.0,"[-0.09722166847235438,0.15892778674572508]",4.0,"[-0.08342249181983029,0.04140988208843862]",4.0,"[-0.05051345709497891,0.17411598491301497]",4.0,"[-0.1119496124494633,0.12134295473440854]",4.0,"[-0.09402292385977228,-0.1488101784353826]",100.0,"[-0.11409932907248824,0.0017485129463545432]",4.0,"[0.06239473147892696,-0.14995947707748739]",4.0,"[0.006156853161483663,0.1651452234739497]",100.0,"[-0.18754862144699655,-0.01977595822740164]",100.0,"[-0.17644999489718766,0.05873100332233432]",100.0,"[0.03291706243845725,0.08037888810195729]",100.0,"[-0.1647339700131483,-0.1005471434989138]",100.0,"[-0.05390158915263948,0.12827827800525748]",4.0,"[0.008444546200725229,0.006399083939482694]",4.0,"[0.1427519106314087,-0.1352862652817211]",100.0,"[-0.013408435362303107,0.12891371948581015]",100.0,"[-0.08967537878008404,-0.04081495049815505]",100.0,"[0.17678924290274278,-0.005373897686227039]",4.0,"[0.042730908581037584,-0.02291257221854521]",100.0,"[0.02,0.02]",174.5575,0.0,37.0,37.0,81.0,1.0,,,,,,,
,,,,,,,6452b900ed79e166aaf26970,6842bb9393916ab8b4bc3b71,2025-06-06_11h57.54.759,shape_ratio,2024.1.5,Win32,59.88023952,6842b561977af9ba9b0f87ca,,,,,,,,,,,174.5582,175.0524,,,175.3069,176.003,right,,,,,,,,0.6,0.6809,,,,,,,175.0526,175.3069,176.0031,"[0.015791552235146195,-0.07789065386018092]",100.0,"[0.018983398891319753,0.12644226743710976]",4.0,"[-0.09333753969128858,0.055367219401664634]",100.0,"[-0.028602909344209483,-0.11413536209990768]",4.0,"[0.020499803788415073,0.04871827784024727]",100.0,"[0.08507136595090149,0.17289444219201935]",100.0,"[-0.03473318733294379,0.049474570924872195]",4.0,"[-0.0700282982170972,0.16663184293272165]",4.0,"[-0.14537067404711848,0.1104984804102335]",100.0,"[-0.10008732153994064,-0.14629043715252502]",100.0,"[-0.05104704280155103,-0.1804772388650403]",100.0,"[-0.04210008162547886,-0.0307666469996102]",100.0,"[-0.13373651872872425,-0.036095834053644305]",100.0,"[0.1101649597474111,-0.10209800847104922]",100.0,"[-0.08054321526290172,-0.06193688429314804]",100.0,"[-0.038317988465811206,0.10441108631061964]",100.0,"[0.09399281496663642,0.0028634721898057897]",100.0,"[-0.1469358198188218,-0.12627888535125778]",100.0,"[0.19085581189396222,0.045146583761352145]",100.0,"[0.03367581906097688,0.1813777588148453]",4.0,"[-0.112167253357626,0.0052355159722523555]",100.0,"[0.03268322864452435,0.00009156773263665616]",4.0,"[-0.1623911409199529,0.04344764780834828]",100.0,"[-0.13159918582272956,-0.08732500882135831]",4.0,"[0.05467471111995144,-0.04463223158961223]",4.0,"[0.10866620444245777,-0.16566506329149297]",100.0,"[0.12301052186103331,0.04865335700783031]",4.0,"[0.06633377507750818,-0.0876898669500728]",100.0,"[-0.0016496920236186282,-0.18080189935197674]",4.0,"[0.19115383630226385,-0.03883755743848634]",4.0,"[0.12754088816321069,0.13712057694238547]",4.0,"[0.03590233259329913,0.08572847119011229]",4.0,"[0.02,0.02]",177.1037,0.0,38.0,38.0,37.0,1.0,,,,,,,
,,,,,,,6452b900ed79e166aaf26970,6842bb9393916ab8b4bc3b71,2025-06-06_11h57.54.759,shape_ratio,2024.1.5,Win32,59.88023952,6842b561977af9ba9b0f87ca,,,,,,,,,,,177.1043,177.6031,,,177.8413,178.8863,right,,,,,,,,0.55,1.0268,,,,,,,177.6031,177.8412,178.8864,"[0.12171815270131194,0.07647841842032285]",4.0,"[0.13426082973857803,-0.03654770796889866]",100.0,"[0.1805945553509912,-0.06009595236223462]",4.0,"[-0.11045031184713598,0.060006573313407856]",100.0,"[-0.0796255210946046,0.030531665760415435]",100.0,"[-0.031216343253168383,0.14727813595237654]",100.0,"[-0.0917600126364955,0.1652162256853499]",4.0,"[0.04580016699490439,-0.018931407495480057]",100.0,"[0.09626703909013004,-0.14307604832011322]",100.0,"[-0.1361471467219929,0.024336318105377508]",4.0,"[-0.12577682497667386,-0.12435297854247124]",4.0,"[0.013067898365832577,0.19166546984226057]",4.0,"[0.12017739997226884,0.019289188495918194]",4.0,"[-0.0280491426782386,-0.02501391609834824]",4.0,"[-0.13136597204939443,-0.06813138550405336]",100.0,"[-0.14127869209666957,-0.0243513671807086]",100.0,"[0.02926605503298237,0.0678110919280904]",4.0,"[-0.11342101547684647,0.12873383906322364]",100.0,"[-0.16733795592406178,0.08759125003641653]",4.0,"[0.19973020007261544,0.0022770056427917898]",100.0,"[0.1533735898168254,-0.11086181189599116]",100.0,"[0.0666091403363893,0.14901209356390752]",4.0,"[-0.07616957590465306,-0.055985962411348456]",4.0,"[0.06585703663750381,-0.07444481118834753]",100.0,"[-0.05387094570320426,0.07825199709926435]",100.0,"[0.03628947709140915,-0.14925532006898906]",100.0,"[-0.06828947366149311,-0.1688340539937879]",100.0,"[0.16095211937605935,0.013669450714963088]",4.0,"[0.0027384625921388316,-0.062052594380273295]",100.0,"[-0.053605989006414424,-0.12964888301376817]",100.0,"[-0.016078744982096736,-0.11169984924596182]",100.0,"[0.14727382810233336,0.12758242747433673]",4.0,"[0.02,0.02]",179.9862,0.0,39.0,39.0,63.0,1.0,,,,,,,
,,,,,,,6452b900ed79e166aaf26970,6842bb9393916ab8b4bc3b71,2025-06-06_11h57.54.759,shape_ratio,2024.1.5,Win32,59.88023952,6842b561977af9ba9b0f87ca,,,,,,,,,,,179.9877,180.491,,,180.737,181.2919,right,,,,,,,,0.9,0.5343,,,,,,,180.4911,180.737,181.2919,"[0.058518741948317785,0.10696080286389677]",100.0,"[0.11204673189892651,0.08633656847914775]",100.0,"[-0.13271479450636225,0.03103607689165175]",100.0,"[-0.11130385020475378,0.06569049981641628]",100.0,"[0.012684359952813907,0.16523855910381927]",100.0,"[0.17944474020047965,0.08342633420165826]",100.0,"[-0.1454420077641294,-0.03762438574739266]",100.0,"[-0.18841036012666598,0.017600057629992942]",100.0,"[0.060210656166844664,0.056819661413758216]",100.0,"[0.010235144167572012,-0.04222579016219234]",100.0,"[-0.08850816282630337,-0.14320095446543046]",100.0,"[0.03755210543177071,-0.17497101542417656]",100.0,"[0.13185895205656797,0.12145723122708099]",4.0,"[0.14003770032614668,-0.12334299570348202]",100.0,"[-0.16585214384254177,0.09115507466660955]",100.0,"[0.08072397254873749,0.1441352559320408]",100.0,"[0.06013484972408186,-0.10598404564079908]",100.0,"[-0.10232386098542193,0.1438078166955715]",100.0,"[0.12258490978488969,0.046934066301883716]",100.0,"[-0.049917976762838816,-0.09916680742547045]",100.0,"[-0.0381594415191516,0.05384545613875517]",100.0,"[0.07341920951329352,-0.15399183472728625]",100.0,"[-0.09519783239903333,-0.06385833655240651]",100.0,"[-0.13402800927325967,-0.13102800138067963]",100.0,"[0.0004705694770774247,-0.09038769034712034]",100.0,"[0.09508594693994754,-0.00801145773331925]",100.0,"[-0.05597484658877358,0.09081147834191293]",4.0,"[-0.0879052909293328,-0.01094553492940644]",100.0,"[-0.04123183563994612,-0.16998630307551077]",100.0,"[-0.0392448787234044,-0.008573554900246637]",100.0,"[0.006720823619167288,0.06013375557634353]",4.0,"[0.17368317940438832,0.03698041822350165]",100.0,"[0.02,0.02]",182.3907,0.0,40.0,40.0,27.0,1.0,,,,,,,
,,,,,,,6452b900ed79e166aaf26970,6842bb9393916ab8b4bc3b71,2025-06-06_11h57.54.759,shape_ratio,2024.1.5,Win32,59.88023952,6842b561977af9ba9b0f87ca,,,,,,,,,,,182.3915,182.8863,,,183.1373,183.9036,left,,,,,,,,0.4,0.7382,,,,,,,182.8864,183.1371,183.9037,"[0.0928930361396425,0.04831857833940983]",100.0,"[0.03314177922816875,0.012111906347632697]",4.0,"[0.1657721156165913,-0.04953696047456412]",100.0,"[0.09437567197944181,-0.017041774385118037]",4.0,"[-0.06978745742424558,-0.12685252906994662]",100.0,"[-0.03865146363659829,0.13842436115743467]",4.0,"[-0.0036221520168529986,0.16083850898871563]",100.0,"[-0.10886011748132708,-0.018266324762533433]",4.0,"[-0.1942866539606709,0.013012459246997154]",100.0,"[0.08098219797755095,0.11331944866559782]",4.0,"[0.011802746939518688,0.07964045943069535]",100.0,"[-0.07861256886987936,-0.17133038963187072]",4.0,"[-0.12084155466705422,0.06394803097568542]",100.0,"[-0.027959959094765195,-0.17128546245917903]",100.0,"[0.06969923979229542,-0.0921983919413568]",4.0,"[-0.18559594617354064,0.07218564213311363]",100.0,"[0.15498541085583026,0.10351138852863855]",100.0,"[0.01845724299116107,-0.07984976756817588]",4.0,"[0.1331434525179716,0.1445401773826977]",4.0,"[-0.16842691484989758,-0.06800359902241741]",4.0,"[0.1895758407441145,0.0457810957239151]",4.0,"[-0.08181758180670634,0.03410767820593088]",4.0,"[-0.1483103327313089,-0.12730836589675437]",4.0,"[0.017569740817896203,-0.1906858607705455]",100.0,"[0.1368890312853826,0.007204962312784823]",4.0,"[0.05723875445809262,-0.17303633506452037]",4.0,"[-0.09946416220507218,0.16345805991819898]",100.0,"[-0.10633636479154142,-0.06361933825343846]",4.0,"[0.06649977095988284,0.16754750686453276]",4.0,"[-0.029773771024241894,0.19718364239528102]",4.0,"[-0.044383422115274844,0.08055757324629254]",4.0,"[-0.14418934122821264,0.1313850308665123]",100.0,"[0.02,0.02]",185.0031,0.0,41.0,41.0,175.0,1.0,,,,,,,
,,,,,,,6452b900ed79e166aaf26970,6842bb9393916ab8b4bc3b71,2025-06-06_11h57.54.759,shape_ratio,2024.1.5,Win32,59.88023952,6842b561977af9ba9b0f87ca,,,,,,,,,,,185.0037,185.5027,,,185.7412,186.4922,left,,,,,,,,0.4,0.7452,,,,,,,185.5027,185.7412,186.4923,"[-0.052224374251223636,-0.09632938436807396]",4.0,"[0.10864517362809793,-0.1625514067056082]",100.0,"[-0.0765574649401625,0.17830749725727427]",100.0,"[0.05185664144731195,-0.16326824896185863]",4.0,"[0.06733872574217824,0.16332566647328928]",4.0,"[-0.0917857807209836,0.022740588570399303]",100.0,"[-0.009960950200455147,-0.08498975705147921]",4.0,"[0.0369342320160416,-0.05874975879068568]",100.0,"[0.1005115480491707,-0.11041116472450045]",4.0,"[0.09320921582482501,-0.03417624177719539]",4.0,"[-0.14547531106702621,0.11172885254988896]",100.0,"[0.12145863459662938,0.15493039827859645]",4.0,"[0.09069888088702202,0.03926475873760262]",4.0,"[-0.04219599096349824,0.09809408926990189]",100.0,"[-0.17254556758012882,-0.019035530025368348]",4.0,"[-0.10215244105197034,-0.056790533765722524]",4.0,"[-0.12312535233200825,-0.11723369351179284]",100.0,"[0.15588849061662258,-0.10374528279098677]",4.0,"[-0.012614293063362812,0.021493370882790953]",4.0,"[-0.18696355515721386,-0.06146388562709626]",100.0,"[-0.09629363011730324,0.07065915008652023]",4.0,"[0.16719651081547074,0.034230818729410625]",100.0,"[-0.03597680470268552,-0.01890663170857524]",100.0,"[0.05331653603021572,-0.11248472812364008]",4.0,"[-0.18536524432013446,0.05849766540796536]",100.0,"[0.049562587871126704,0.10237883073412467]",100.0,"[-0.07606261698160183,-0.1410478566573246]",4.0,"[0.130361166521797,-0.0681095088343629]",100.0,"[0.10467194468359453,0.08750272342685855]",4.0,"[-0.09711194382922447,0.11946663972395556]",4.0,"[0.18926522891039657,-0.029567519023123275]",4.0,"[-0.01016866675790979,0.14104322931153784]",4.0,"[0.02,0.02]",187.5866,0.0,42.0,42.0,171.0,1.0,,,,,,,
,,,,,,,6452b900ed79e166aaf26970,6842bb9393916ab8b4bc3b71,2025-06-06_11h57.54.759,shape_ratio,2024.1.5,Win32,59.88023952,6842b561977af9ba9b0f87ca,,,,,,,,,,,187.5872,188.0866,,,188.3424,188.858,left,,,,,,,,0.1,0.5098,,,,,,,188.0866,188.3423,188.8581,"[0.008210428391422721,-0.08247626323417726]",4.0,"[-0.0025048682846877434,-0.141155526982996]",100.0,"[-0.08040003924045305,-0.008333740869385115]",4.0,"[0.09264705609130448,0.08240651973672132]",100.0,"[-0.09392116878277985,0.05291862499875957]",4.0,"[0.08182543466126334,-0.1422892788064933]",4.0,"[-0.15443978354161705,-0.1176700064343399]",4.0,"[0.16723356418283686,-0.011648597082892419]",4.0,"[-0.07865330616582596,0.18027888171085835]",4.0,"[-0.11247503490090596,0.1383363547724806]",4.0,"[-0.1445632859289944,-0.011433463441264653]",4.0,"[-0.025069540854903812,0.11106963846052983]",4.0,"[-0.054223298953966576,0.07750485077285561]",4.0,"[-0.01612111473028495,0.034225655645833304]",4.0,"[-0.06992776878442157,-0.12935866923377967]",4.0,"[0.11157809857233761,-0.0760257837600143]",4.0,"[0.07731432298515366,0.12137967779076925]",4.0,"[0.04703364717326324,0.0466928062546954]",4.0,"[-0.056406929783795544,-0.055800230718669894]",4.0,"[-0.1238514651499397,-0.05018789044504578]",4.0,"[-0.19916759992817576,-0.007996181791255925]",4.0,"[0.07927412626859771,0.01372571378320102]",4.0,"[0.15454714683444074,0.04851239105567993]",4.0,"[-0.04775773466969909,0.14427190127266726]",4.0,"[-0.004802208825098006,0.191866063741241]",4.0,"[0.11824399084845218,0.13559834284164432]",4.0,"[-0.168925126298913,0.03104187325435493]",100.0,"[0.18095420208193666,-0.06430577021433945]",4.0,"[0.02569907649338072,-0.19445974813485983]",4.0,"[0.03228308840501765,-0.03158182379327693]",4.0,"[-0.12418701050448662,0.09217032743296738]",4.0,"[-0.16472425643033828,0.09434992392818918]",4.0,"[0.02,0.02]",189.9524,0.0,43.0,43.0,193.0,1.0,,,,,,,
,,,,,,,6452b900ed79e166aaf26970,6842bb9393916ab8b4bc3b71,2025-06-06_11h57.54.759,shape_ratio,2024.1.5,Win32,59.88023952,6842b561977af9ba9b0f87ca,,,,,,,,,,,189.9533,190.4537,,,190.7067,191.27,left,,,,,,,,0.1,0.5577,,,,,,,190.4537,190.7067,191.27,"[0.06815238224646132,0.17312361370930826]",4.0,"[0.042999902499248406,0.04943448289966277]",4.0,"[0.16944574150123268,0.015124929902419215]",4.0,"[0.00943367086096864,0.11722333147916619]",4.0,"[-0.19440220971751362,0.046734908909961924]",4.0,"[-0.020698770691944497,-0.17224897574675496]",100.0,"[0.08371732311933602,-0.0904196254092443]",4.0,"[0.16596430264091547,-0.029605887234425383]",4.0,"[0.17540847547817717,0.07781234521014094]",4.0,"[-0.06426313175866609,0.1014304440074325]",4.0,"[-0.00906307468157421,-0.08754945080435392]",4.0,"[0.009659897401130369,0.009947587098393435]",100.0,"[0.01821294381023122,-0.18176678676274086]",4.0,"[0.031446475933623444,-0.08977384585584197]",4.0,"[-0.16504479452941273,-0.012934489127571122]",100.0,"[-0.1605090167703204,0.08457699107650267]",4.0,"[-0.03719900600794141,0.14508566295782302]",4.0,"[0.05956805821720105,-0.030292923691784095]",4.0,"[0.10182824731404677,0.05351286016930227]",4.0,"[-0.019383008515079847,-0.02270209601440726]",4.0,"[-0.08628597655598937,0.06019134259587965]",4.0,"[-0.18057831339390476,-0.07260915964505806]",4.0,"[0.1773026739240007,-0.0749160483864976]",4.0,"[-0.13107937533225794,-0.14145836859919939]",4.0,"[-0.007834875017993568,0.07665619620302364]",4.0,"[0.054857416925995,-0.14823371064222537]",4.0,"[-0.122536272865255,-0.015033543944841245]",4.0,"[-0.14011385255547532,0.033114349390510604]",4.0,"[-0.14377920893493457,-0.054572979985231536]",4.0,"[0.009942868004769255,0.16378248947590543]",4.0,"[0.1022007200646658,-0.0524044253520973]",4.0,"[0.06755931891846315,0.017797115070907792]",4.0,"[0.02,0.02]",192.37,0.0,44.0,44.0,185.0,1.0,,,,,,,
,,,,,,,6452b900ed79e166aaf26970,6842bb9393916ab8b4bc3b71,2025-06-06_11h57.54.759,shape_ratio,2024.1.5,Win32,59.88023952,6842b561977af9ba9b0f87ca,,,,,,,,,,,192.3712,192.8697,,,193.1246,193.9054,left,,,,,,,,0.45,0.7756,,,,,,,192.8698,193.1246,193.9054,"[-0.03886838785407549,-0.07025885327856628]",100.0,"[-0.08953016152122165,0.16342274869648743]",4.0,"[0.03901161450351663,0.09370838412488787]",100.0,"[-0.02448447767239432,0.15375715078950442]",100.0,"[-0.14531314664799727,0.07079859459274755]",4.0,"[0.0654665522124594,0.05137344523073682]",4.0,"[0.18387006457472801,0.034983999238687405]",4.0,"[0.06164257136265082,0.1332051389243558]",4.0,"[0.01138420941444938,-0.04631890211904582]",4.0,"[0.14640733345405121,0.08176387681630595]",4.0,"[-0.12937733426866255,-0.06828805974536704]",100.0,"[-0.05915027672311821,-0.18733372976990442]",100.0,"[-0.06412782789944217,0.0015733443674357946]",4.0,"[-0.1066295676512245,-0.16471247905785322]",4.0,"[-0.08760326166239878,-0.1231623583072192]",4.0,"[-0.16569408446163214,0.012091513106331025]",100.0,"[0.09841174013548544,0.004716189395130179]",100.0,"[0.03409869846346874,0.16455613280935286]",4.0,"[0.1559513592790162,-0.11219894497034952]",100.0,"[0.18971147172015276,-0.047250648582971254]",100.0,"[0.011761529258949384,-0.18267349017059728]",100.0,"[0.09056250734246772,-0.15762073277245406]",4.0,"[-0.021499871759260377,0.19781292843833642]",100.0,"[0.014954426128851069,-0.0988560836427071]",100.0,"[-0.04939896803521022,0.07089863398553935]",4.0,"[-0.009023637949659267,0.11430463207905037]",4.0,"[-0.08985953661048157,0.034198671518634635]",4.0,"[-0.03484151306744321,-0.11442719826338843]",100.0,"[0.038046333747510895,-0.13959321999088722]",100.0,"[-0.1609781956417598,-0.09790070196910183]",4.0,"[-0.022242021838382194,0.020738075563533392]",4.0,"[0.12290321894302846,0.04782459650717749]",4.0,"[0.02,0.02]",195.0029,0.0,45.0,45.0,125.0,1.0,,,,,,,
,,,,,,,6452b900ed79e166aaf26970,6842bb9393916ab8b4bc3b71,2025-06-06_11h57.54.759,shape_ratio,2024.1.5,Win32,59.88023952,6842b561977af9ba9b0f87ca,,,,,,,,,,,195.0043,195.5029,,,195.7579,196.2915,left,,,,,,,,0.55,0.5267,,,,,,,195.503,195.7578,196.2916,"[0.05738720244832138,-0.08601415304086242]",100.0,"[-0.012558867051635832,-0.05033377586481682]",4.0,"[-0.03727227109515271,0.18619486520994766]",100.0,"[0.08505702947428406,0.17558399809778075]",4.0,"[-0.08674720799429658,-0.007096244026948672]",4.0,"[0.1300380766044475,0.10388254121223833]",4.0,"[-0.15101028294580493,0.10909852963124007]",100.0,"[0.17633264006506943,0.017352855561767126]",4.0,"[0.15268570072543194,-0.09331466506913957]",100.0,"[0.16781276521632474,0.0867837464233321]",100.0,"[0.00013168407542648946,0.16137335092233918]",100.0,"[-0.11173791839847337,-0.15337313142519138]",100.0,"[0.03819983174609037,0.1132136701237847]",4.0,"[-0.07228843485865709,0.12944426024536493]",4.0,"[-0.18707868228047045,-0.0251662243654329]",100.0,"[0.11251998705503839,-0.15649301983946554]",100.0,"[-0.03306473837662294,0.03163349867025615]",4.0,"[-0.06145631298996356,-0.14358362044377315]",100.0,"[-0.14097795349808803,-0.06354119383634867]",100.0,"[0.04138667835208299,0.05339455074304466]",100.0,"[-0.11216523534735486,0.15661603078752148]",100.0,"[0.0647813037770934,-0.1677278622450132]",100.0,"[0.030449113736217264,0.1970318228310297]",100.0,"[0.08483845887658346,0.055858309313209425]",4.0,"[0.12906387997817462,0.023607215370904044]",100.0,"[0.02057035302401572,-0.13678029226802985]",4.0,"[-0.13406429197679814,-0.02208870685532391]",4.0,"[0.09860712373604344,-0.08027303963643832]",100.0,"[-0.06809499788111867,-0.10014848408335833]",4.0,"[0.09002585662633938,-0.023502258951182704]",100.0,"[-0.06590299109518133,0.05687539762168397]",4.0,"[0.00038077830841580875,-0.1959355853174462]",4.0,"[0.02,0.02]",197.3868,0.0,46.0,46.0,84.0,1.0,,,,,,,
,,,,,,,6452b900ed79e166aaf26970,6842bb9393916ab8b4bc3b71,2025-06-06_11h57.54.759,shape_ratio,2024.1.5,Win32,59.88023952,6842b561977af9ba9b0f87ca,,,,,,,,,,,197.3877,197.8865,,,198.1251,198.6739,left,,,,,,,,0.1,0.5428,,,,,,,197.8865,198.1251,198.674,"[0.0709556078993497,0.04951063167079786]",4.0,"[0.12769300150074567,-0.01335225994068077]",4.0,"[0.004691128867416326,0.1700451722682192]",4.0,"[-0.06957497375557017,-0.09173590490848867]",4.0,"[0.03891412213779406,0.13717041146245948]",4.0,"[0.11350372938149522,0.026156538853670787]",4.0,"[0.03364301517162142,-0.011492293666945753]",4.0,"[0.15813761202994608,0.06246808152191424]",100.0,"[-0.01404657168737878,-0.16087303367633893]",100.0,"[0.039448396236006635,-0.1955928790521253]",4.0,"[0.15789883664699847,0.013820909781657646]",4.0,"[0.14488048719346044,0.11562629605959954]",4.0,"[-0.11003748523746876,-0.06495565067259879]",4.0,"[-0.000743721023425844,-0.08248494345260549]",4.0,"[0.10874629795157528,0.07577070435673638]",4.0,"[-0.02626289518951796,0.19656303372973025]",4.0,"[0.0977619113913735,-0.12921375938742583]",4.0,"[-0.12558849200251054,0.13903103615382112]",4.0,"[-0.0603724374454206,-0.017086592482294077]",4.0,"[-0.05075644051489879,0.05736214109091799]",4.0,"[0.006766945154709392,0.1088248378677604]",4.0,"[-0.16249302338015023,-0.03523943854802219]",4.0,"[0.04890665931149837,-0.12922747670295776]",4.0,"[-0.11946023810983233,-0.006540439459184278]",4.0,"[0.0579319616189687,0.18761910087403866]",4.0,"[-0.01353806059390215,-0.03222910009723905]",4.0,"[0.010030104804218577,0.03834878117919619]",4.0,"[0.17688679032318255,-0.04565987119669696]",4.0,"[-0.14759776757189194,0.07089250975059017]",4.0,"[-0.13129381952634117,-0.09902395532215814]",4.0,"[0.1406620970316267,-0.12381362960636617]",100.0,"[-0.058557559679281744,-0.1308315899318344]",4.0,"[0.02,0.02]",199.774,0.0,47.0,47.0,201.0,1.0,,,,,,,
,,,,,,,6452b900ed79e166aaf26970,6842bb9393916ab8b4bc3b71,2025-06-06_11h57.54.759,shape_ratio,2024.1.5,Win32,59.88023952,6842b561977af9ba9b0f87ca,,,,,,,,,,,199.7744,200.2698,,,200.5236,201.2421,right,,,,,,,,0.4,0.7123,,,,,,,200.2699,200.5235,201.2422,"[-0.009490839611626896,0.11565803745743462]",4.0,"[-0.06812242676125312,-0.16188360564390294]",100.0,"[-0.1441406710973469,-0.13211554966318254]",100.0,"[0.07567687022424542,0.12843219524157976]",100.0,"[0.08110964451272282,0.007789623296958576]",4.0,"[-0.04697445283054619,0.03200234519500303]",4.0,"[0.020948086181238928,-0.0371456932828022]",4.0,"[-0.004316307744628127,-0.13057457923490767]",100.0,"[-0.112189503670369,-0.02911287755446131]",100.0,"[-0.02394412332340631,-0.08522646162589691]",4.0,"[-0.16016327125913735,0.039943883351230766]",100.0,"[-0.10101572524818227,-0.12917985005352037]",100.0,"[-0.09613343749483529,0.15940442149782955]",100.0,"[-0.15288071775627976,0.10047826713830323]",4.0,"[0.14695941324941572,-0.02415235972859201]",4.0,"[0.019079710273635208,0.15407232146075373]",4.0,"[0.07195787060438245,-0.05214833998904341]",4.0,"[-0.1023667394454091,0.062443556208062356]",4.0,"[-0.019591198190231657,-0.0270367191774151]",100.0,"[0.09609348657123279,0.1753835696166105]",100.0,"[-0.052814043978426754,0.1696028546292008]",4.0,"[0.15408400920694082,0.11070193962146287]",4.0,"[0.10210025167343513,0.04593800647885597]",100.0,"[0.1920750238123872,-0.008925441908566697]",4.0,"[0.0048594419937913825,0.031349995432033984]",100.0,"[0.11830312272468935,0.13475231414064895]",4.0,"[0.08695806970664545,-0.15128148664013766]",4.0,"[0.06719583569124347,0.08732829896140265]",4.0,"[0.1800163297945133,0.03957861143743229]",100.0,"[0.04243250140546447,0.19356462448458547]",4.0,"[0.12667552089124517,-0.07990179594875776]",4.0,"[0.03718796566912644,-0.1793447405472878]",4.0,"[0.02,0.02]",202.3362,0.0,48.0,48.0,151.0,1.0,,,,,,,
,,,,,,,6452b900ed79e166aaf26970,6842bb9393916ab8b4bc3b71,2025-06-06_11h57.54.759,shape_ratio,2024.1.5,Win32,59.88023952,6842b561977af9ba9b0f87ca,,,,,,,,,,,202.3371,202.8417,,,203.087,203.8365,left,,,,,,,,0.6,0.7201,,,,,,,202.8418,203.0869,203.8366,"[0.08663132749901667,-0.11114782107530317]",4.0,"[-0.1471958103090011,0.06411864536775125]",100.0,"[-0.044938646966125456,0.19048851223514549]",4.0,"[0.09732345286838287,-0.0138371790013996]",100.0,"[-0.011107945319496233,0.10512688480751398]",100.0,"[-0.1074831084580171,0.10685751174274218]",4.0,"[-0.0941085640187614,0.02600926516111972]",100.0,"[0.00045918136395799993,-0.0009902824254879187]",100.0,"[-0.0701694606606609,0.080363905970158]",4.0,"[-0.1484362257515004,-0.0663754765176347]",100.0,"[-0.04431220329385325,-0.10349956228789074]",4.0,"[0.14905594104481892,-0.026064212001407808]",100.0,"[0.1726260914317501,-0.08518405675362639]",100.0,"[0.1063548496014624,0.12180398418831918]",4.0,"[0.08373881129569963,-0.06278527519006512]",4.0,"[0.06464317903672749,-0.16555294126295206]",100.0,"[-0.13241429006604455,-0.1436927550607495]",100.0,"[0.024192869808006813,0.045592555286416724]",100.0,"[0.011887499149002856,-0.15539561700924615]",100.0,"[-0.09467702787046867,-0.06073531384409074]",4.0,"[0.13533901938987333,0.08322683724564311]",4.0,"[0.18336610883221932,0.05336731605045176]",100.0,"[-0.08915232065310877,-0.14275877446164037]",4.0,"[0.1291492373851048,-0.08074177478983639]",100.0,"[-0.16084145312392098,-0.004166406195423426]",100.0,"[0.17779061387027964,0.013012077234888867]",100.0,"[-0.10840630886205363,-0.016273559608387646]",4.0,"[-0.01706302338332535,-0.05719923746764844]",4.0,"[0.1517744155238473,0.1293484177656508]",100.0,"[0.05660853258559891,0.10060529753972576]",100.0,"[-0.04585239911704389,-0.1729761934213065]",100.0,"[0.05256081406875603,0.14056009054419397]",4.0,"[0.02,0.02]",204.9393,0.0,49.0,49.0,40.0,1.0,,,,,,,
