right,left,explain.started,explain.stopped,key_resp_3.keys,key_resp_3.rt,key_resp_3.duration,participant,session,date,expName,psychopyVersion,OS,frameRate,study_id,explain_2.started,explain_2.stopped,key_resp_4.keys,key_resp_4.rt,key_resp_4.duration,explain_3.started,explain_3.stopped,key_resp_5.keys,key_resp_5.rt,key_resp_5.duration,fixation.started,fixation.stopped,practice.started,practice.stopped,response.started,response.stopped,key_resp.keys,feedback.started,feedback.stopped,trials_2.thisRepN,trials_2.thisTrialN,trials_2.thisN,trials_2.thisIndex,trials_2.ran,dot_ratio,key_resp.rt,key_resp.duration,explain_4.started,explain_4.stopped,key_resp_6.keys,key_resp_6.rt,key_resp_6.duration,dotDisplay.started,dotDisplay.stopped,ITI.started,polygon_1.pos,polygon_1.edges,polygon_2.pos,polygon_2.edges,polygon_3.pos,polygon_3.edges,polygon_4.pos,polygon_4.edges,polygon_5.pos,polygon_5.edges,polygon_6.pos,polygon_6.edges,polygon_7.pos,polygon_7.edges,polygon_8.pos,polygon_8.edges,polygon_9.pos,polygon_9.edges,polygon_10.pos,polygon_10.edges,polygon_11.pos,polygon_11.edges,polygon_12.pos,polygon_12.edges,polygon_13.pos,polygon_13.edges,polygon_14.pos,polygon_14.edges,polygon_15.pos,polygon_15.edges,polygon_16.pos,polygon_16.edges,polygon_17.pos,polygon_17.edges,polygon_18.pos,polygon_18.edges,polygon_19.pos,polygon_19.edges,polygon_20.pos,polygon_20.edges,polygon_21.pos,polygon_21.edges,polygon_22.pos,polygon_22.edges,polygon_23.pos,polygon_23.edges,polygon_24.pos,polygon_24.edges,polygon_25.pos,polygon_25.edges,polygon_26.pos,polygon_26.edges,polygon_27.pos,polygon_27.edges,polygon_28.pos,polygon_28.edges,polygon_29.pos,polygon_29.edges,polygon_30.pos,polygon_30.edges,polygon_31.pos,polygon_31.edges,polygon_32.pos,polygon_32.edges,dot_size,ITI.stopped,trials.thisRepN,trials.thisTrialN,trials.thisN,trials.thisIndex,trials.ran,break_2.started,break_2.stopped,trials_3.thisRepN,trials_3.thisTrialN,trials_3.thisN,trials_3.thisIndex,trials_3.ran
subject chose dot,subject chose diamond,0.0002,32.7029,space,17.6866,,64971e71ba666687996c6072,68399d6d22dd632142dc7829,2025-05-30_13h58.49.349,shape_ratio,2024.1.5,Win32,60.24096386,683853e18dae57a2147b65e0,,,,,,,,,,,,,,,,,,,,,,,,,,,,,,,,,,,,,,,,,,,,,,,,,,,,,,,,,,,,,,,,,,,,,,,,,,,,,,,,,,,,,,,,,,,,,,,,,,,,,,,,,,,,,,,,,
,,,,,,,64971e71ba666687996c6072,68399d6d22dd632142dc7829,2025-05-30_13h58.49.349,shape_ratio,2024.1.5,Win32,60.24096386,683853e18dae57a2147b65e0,32.7031,75.3514,space,12.6242,,,,,,,,,,,,,,,,,,,,,,,,,,,,,,,,,,,,,,,,,,,,,,,,,,,,,,,,,,,,,,,,,,,,,,,,,,,,,,,,,,,,,,,,,,,,,,,,,,,,,,,,,,,,,
,,,,,,,64971e71ba666687996c6072,68399d6d22dd632142dc7829,2025-05-30_13h58.49.349,shape_ratio,2024.1.5,Win32,60.24096386,683853e18dae57a2147b65e0,,,,,,75.3515,80.7345,space,2.3606,,,,,,,,,,,,,,,,,,,,,,,,,,,,,,,,,,,,,,,,,,,,,,,,,,,,,,,,,,,,,,,,,,,,,,,,,,,,,,,,,,,,,,,,,,,,,,,,,,,,,,,,
,,,,,,,64971e71ba666687996c6072,68399d6d22dd632142dc7829,2025-05-30_13h58.49.349,shape_ratio,2024.1.5,Win32,60.24096386,683853e18dae57a2147b65e0,,,,,,,,,,,80.7441,81.2347,81.2349,81.4847,81.4849,82.9845,,82.9847,84.084,0.0,0.0,0.0,1.0,1.0,0.8,,,,,,,,,,,,,,,,,,,,,,,,,,,,,,,,,,,,,,,,,,,,,,,,,,,,,,,,,,,,,,,,,,,,,,,,,,,,,,,,,,,,,,,,
,,,,,,,64971e71ba666687996c6072,68399d6d22dd632142dc7829,2025-05-30_13h58.49.349,shape_ratio,2024.1.5,Win32,60.24096386,683853e18dae57a2147b65e0,,,,,,,,,,,84.0844,84.5841,84.5841,84.8343,84.8343,85.6676,left,85.6677,86.7671,0.0,1.0,1.0,0.0,1.0,0.2,0.8198,,,,,,,,,,,,,,,,,,,,,,,,,,,,,,,,,,,,,,,,,,,,,,,,,,,,,,,,,,,,,,,,,,,,,,,,,,,,,,,,,,,,,,,
,,,,,,,64971e71ba666687996c6072,68399d6d22dd632142dc7829,2025-05-30_13h58.49.349,shape_ratio,2024.1.5,Win32,60.24096386,683853e18dae57a2147b65e0,,,,,,,,,,,,,,,,,,,,,,,,,,,,86.7675,93.5837,space,3.7915,,,,,,,,,,,,,,,,,,,,,,,,,,,,,,,,,,,,,,,,,,,,,,,,,,,,,,,,,,,,,,,,,,,,,,,,,,,,,,,,,,
,,,,,,,64971e71ba666687996c6072,68399d6d22dd632142dc7829,2025-05-30_13h58.49.349,shape_ratio,2024.1.5,Win32,60.24096386,683853e18dae57a2147b65e0,,,,,,,,,,,93.5931,94.0839,,,94.3342,95.0006,left,,,,,,,,0.55,0.6588,,,,,,,94.0843,94.3341,95.0009,"[0.018155148917766366,-0.1541785088442825]",4.0,"[0.07118180510107094,-0.1264424923364769]",100.0,"[0.09895004114717013,-0.169761872389032]",100.0,"[-0.055506496554008126,0.12697360980116357]",100.0,"[-0.016693304915477082,-0.1938444247046526]",100.0,"[0.07224174201851388,0.060006378357615464]",100.0,"[0.11165551623012598,-0.006947210672316066]",4.0,"[-0.05291345047143755,-0.01247272568948714]",100.0,"[-0.0006348439782252546,0.11521116460199603]",4.0,"[0.03251529597951446,0.08086040421268093]",4.0,"[-0.18716683893493352,0.048259439479871206]",100.0,"[0.019314648949761478,-0.06120946520723115]",4.0,"[0.12536799234995988,-0.09854621195719082]",100.0,"[0.0011201386436911597,0.0422328094767154]",4.0,"[0.1437546360092551,0.12019979591220134]",4.0,"[-0.14053416593879695,0.04983819596198936]",4.0,"[0.04209953293940201,0.02578449063748711]",4.0,"[0.14686298176744006,0.06865234491502337]",100.0,"[-0.15015147547035015,-0.07349348878536884]",100.0,"[-0.09170083311869531,0.14716658438982502]",4.0,"[0.16964268683281467,-0.007529507938460775]",4.0,"[0.08172321872190758,0.11738965952409246]",4.0,"[-0.010386373431112619,0.17921912926978278]",4.0,"[-0.09956318185589569,-0.10060962612936795]",100.0,"[-0.09810381841087751,-0.02028947717580864]",100.0,"[-0.005752688645270694,-0.1020711362677868]",4.0,"[-0.17622231587350604,-0.03197847014841794]",100.0,"[0.08065842264443565,-0.0605035382907431]",100.0,"[-0.061364043394577704,-0.06230695949587675]",100.0,"[0.13213528828619123,-0.1458886535047467]",100.0,"[-0.051079942250928254,-0.1527698750784923]",100.0,"[0.020040441410721966,-0.01337716306658884]",100.0,"[0.02,0.02]",96.1003,0.0,0.0,0.0,86.0,1.0,,,,,,,
,,,,,,,64971e71ba666687996c6072,68399d6d22dd632142dc7829,2025-05-30_13h58.49.349,shape_ratio,2024.1.5,Win32,60.24096386,683853e18dae57a2147b65e0,,,,,,,,,,,96.1007,96.6006,,,96.8507,97.5171,right,,,,,,,,0.9,0.6511,,,,,,,96.6006,96.8506,97.5172,"[0.14186213571353426,0.06918647887300877]",100.0,"[-0.13575455914025347,0.12151015903140916]",100.0,"[0.0885444989846639,0.05133519248592275]",100.0,"[-0.08863893052887929,0.17900474127625488]",100.0,"[-0.025115463626664686,0.029588787583308702]",100.0,"[0.06142901680501503,0.11390591427757461]",100.0,"[0.19985290548534548,-0.00275988364293761]",100.0,"[-0.08419083373584757,-0.16728315640222313]",4.0,"[0.04353730879195461,-0.04873540132298239]",4.0,"[-0.02855578144571283,-0.02162376941031221]",100.0,"[-0.10894106188704304,-0.08161695213418935]",100.0,"[-0.07554900799556559,0.13345368778412894]",100.0,"[0.008029471540256803,0.09468009235465877]",100.0,"[0.15089032886459117,0.12393917181239052]",100.0,"[0.03571163323759354,0.17682069100145945]",100.0,"[-0.00013133212022030402,-0.1977099283205049]",100.0,"[-0.010099593554670803,0.1524642466177149]",100.0,"[-0.06543505717153894,-0.04331498315484394]",100.0,"[-0.08744629567043792,0.00006380557078264632]",100.0,"[-0.18035276522195806,0.06196764993454732]",100.0,"[-0.04372769751504938,-0.17513894205633873]",100.0,"[-0.016530741370145517,-0.08410512012990491]",100.0,"[-0.16332616122021437,-0.08418258018552219]",100.0,"[-0.1833628556477828,-0.023682697945259762]",4.0,"[0.09698239402364536,-0.15499198234798267]",100.0,"[0.1670595269445666,-0.03371253438973785]",100.0,"[0.01797426502572398,-0.11560437809208687]",100.0,"[0.05896448666180109,0.016043402116251656]",100.0,"[-0.13117498247346132,0.07193342813116482]",100.0,"[0.18573457224443587,-0.07159837280747745]",100.0,"[-0.12267503224529229,-0.026268175834191915]",100.0,"[0.06348703281396877,-0.18647179390935467]",100.0,"[0.02,0.02]",98.6169,0.0,1.0,1.0,19.0,1.0,,,,,,,
,,,,,,,64971e71ba666687996c6072,68399d6d22dd632142dc7829,2025-05-30_13h58.49.349,shape_ratio,2024.1.5,Win32,60.24096386,683853e18dae57a2147b65e0,,,,,,,,,,,98.6176,99.1172,,,99.3673,99.7503,left,,,,,,,,0.1,0.3671,,,,,,,99.1173,99.3672,99.7503,"[0.024229176041527623,0.10457057990800817]",4.0,"[0.08861093233225405,-0.054829701844164073]",4.0,"[0.056953144595947115,0.04497944738565092]",4.0,"[0.0747042566745827,0.1482228782320883]",4.0,"[-0.007243376591948709,0.03251858495856813]",4.0,"[0.00835293518360451,0.17668847349515038]",4.0,"[-0.10614064700743511,-0.03796773750405017]",4.0,"[0.031134993303924732,-0.14723952392932502]",4.0,"[0.1146569344634792,0.1221620028627481]",4.0,"[0.0924082968068734,-0.10652732325085261]",4.0,"[-0.027825488792723754,0.09710960902727836]",4.0,"[0.08992261980282502,-0.010110319220606769]",4.0,"[-0.11377127427715085,-0.10915278174379159]",100.0,"[-0.03922189246290765,-0.160028976317534]",4.0,"[-0.15852408505758228,0.024886807191297256]",100.0,"[-0.008238307161865733,-0.013436770777486628]",4.0,"[0.12976424732083533,0.06627051595248418]",4.0,"[0.16154088549723689,0.10762778273392525]",4.0,"[-0.0004575982267133126,-0.06184289886696526]",4.0,"[-0.08898436526003085,0.09563093370048403]",4.0,"[-0.1069856068824097,0.1539520892932705]",4.0,"[0.18369311401159943,-0.01983485361472891]",100.0,"[0.030868602627574012,-0.0016051648172851932]",4.0,"[-0.035695240685542036,-0.08693919144009747]",4.0,"[0.005023906702372069,-0.11321001912649496]",4.0,"[0.1512202163093868,-0.04362915867073851]",4.0,"[-0.06017138194740678,0.1751887793892688]",4.0,"[-0.1401721393641457,0.09224148030556753]",4.0,"[0.07703595464382398,-0.16225174506280057]",4.0,"[-0.15820554148607227,-0.0590763943706359]",4.0,"[-0.13465531277815618,-0.14617551673457116]",4.0,"[-0.10557993677266841,0.0026536204345689205]",4.0,"[0.02,0.02]",100.8502,0.0,2.0,2.0,203.0,1.0,,,,,,,
,,,,,,,64971e71ba666687996c6072,68399d6d22dd632142dc7829,2025-05-30_13h58.49.349,shape_ratio,2024.1.5,Win32,60.24096386,683853e18dae57a2147b65e0,,,,,,,,,,,100.8505,101.3502,,,101.6004,102.0168,left,,,,,,,,0.1,0.4058,,,,,,,101.3502,101.6004,102.0169,"[0.18392981319437632,0.054660488250379995]",4.0,"[-0.13030843559127353,-0.09073247600150773]",4.0,"[-0.07302338370259422,0.004344178000266669]",4.0,"[-0.17172105259969822,0.055184405320836884]",4.0,"[0.12421340757753932,0.030211167758533542]",4.0,"[-0.06499126617335993,0.10389496886987946]",4.0,"[0.11495631208954671,-0.1449920282618107]",100.0,"[-0.15488866246801472,-0.016636075313129495]",4.0,"[0.03145982240848879,0.1159625276034633]",4.0,"[-0.008458461238378467,-0.04395145376710285]",4.0,"[0.1669516413717006,-0.07847258488039778]",4.0,"[0.17913616985190256,-0.0030331431365541723]",4.0,"[0.0840897352640337,-0.03764061973180989]",4.0,"[-0.02496879742057926,0.03226322189840523]",4.0,"[-0.058537005037309485,-0.0433207454326927]",4.0,"[0.0047985369896209815,-0.1384735620623197]",4.0,"[0.0573348525379482,-0.16410704645343366]",4.0,"[-0.1240697178438319,0.11816510765963341]",4.0,"[-0.10783339156096321,-0.15068018541212233]",4.0,"[-0.18952902999926735,-0.04720064771477814]",4.0,"[0.07871100223485882,-0.08698001059819724]",4.0,"[0.030919391555930705,0.18542737252380243]",100.0,"[0.03670195052124682,-0.04601504303639621]",4.0,"[0.019168234779515913,-0.19701606179278167]",4.0,"[-0.05526118702082274,0.1494937219970634]",4.0,"[-0.10662994283932486,-0.05546958593447059]",4.0,"[0.1632914482889039,0.1101034000306418]",4.0,"[0.11092572818966018,0.16104891417780753]",4.0,"[0.07938842847887534,0.05782706627785805]",4.0,"[0.02801567143436503,-0.09401509546039433]",4.0,"[-0.095660589765021,0.15232564562672918]",4.0,"[-0.11383054487917894,0.047036438467634084]",100.0,"[0.02,0.02]",103.1168,0.0,3.0,3.0,180.0,1.0,,,,,,,
,,,,,,,64971e71ba666687996c6072,68399d6d22dd632142dc7829,2025-05-30_13h58.49.349,shape_ratio,2024.1.5,Win32,60.24096386,683853e18dae57a2147b65e0,,,,,,,,,,,103.1172,103.6168,,,103.8671,104.2003,right,,,,,,,,0.45,0.3176,,,,,,,103.6169,103.867,104.2004,"[0.15144956246420319,0.023600663496987348]",100.0,"[-0.0025106917060576817,-0.03640113899456457]",4.0,"[-0.05293598696552852,0.16709921219871482]",100.0,"[-0.10767182451890772,0.1084695512159476]",100.0,"[0.006705552987434895,-0.0899993946141754]",4.0,"[-0.18031766139306632,0.061414140140376924]",100.0,"[0.15328596911733386,0.07291726155200672]",4.0,"[-0.056994786245662135,0.09425429104179814]",4.0,"[0.12386379923776394,0.11871398713451391]",4.0,"[0.07852745448906735,-0.061789370284108656]",100.0,"[0.10589466956517873,0.0046791642698938265]",100.0,"[0.005706962280770143,-0.15041078169342004]",100.0,"[-0.08967344774055269,-0.019014507618334224]",4.0,"[0.005224392249292514,0.11889330599187087]",4.0,"[0.04789474827004506,-0.16799189221198854]",100.0,"[0.11240634868881369,-0.1653193572577035]",4.0,"[0.07020184398019069,-0.10987990554083414]",4.0,"[-0.16353292369404285,-0.053872932202094964]",100.0,"[0.04664251786628404,0.1609602771748038]",4.0,"[0.1654794858855265,-0.06445536163922842]",4.0,"[-0.15560854444860422,0.012333481228947467]",4.0,"[0.06299422505955095,0.09127298507954892]",100.0,"[0.017368512046671072,0.0507230799967433]",4.0,"[-0.007321263362591473,0.18742515294607434]",100.0,"[-0.13404293431192377,0.05637949089957534]",4.0,"[-0.05763180903076145,-0.0848067723047561]",4.0,"[-0.061414129197676366,0.044756559531350715]",100.0,"[-0.11180608554942127,-0.10186620816691415]",100.0,"[-0.07850044091480604,-0.16861476153137978]",100.0,"[0.06100074319027623,0.02382396531816212]",4.0,"[0.134492839349355,-0.030767934191756316]",4.0,"[-0.10575897581128584,0.15778024192423792]",4.0,"[0.02,0.02]",105.2998,0.0,4.0,4.0,149.0,1.0,,,,,,,
,,,,,,,64971e71ba666687996c6072,68399d6d22dd632142dc7829,2025-05-30_13h58.49.349,shape_ratio,2024.1.5,Win32,60.24096386,683853e18dae57a2147b65e0,,,,,,,,,,,105.3003,105.8,,,106.05,106.2163,left,,,,,,,,0.9,0.1502,,,,,,,105.8001,106.05,106.2163,"[-0.04243543033033703,-0.18628162711803403]",100.0,"[0.008053687416487498,-0.17960212399519743]",100.0,"[0.029294250158763108,0.1416800663901737]",100.0,"[0.12055033935563367,0.1404838790906553]",4.0,"[0.007514926521349055,-0.01937662829101963]",100.0,"[0.1511362992794403,0.06755257138573917]",100.0,"[0.1256017033152079,-0.049483554299195404]",100.0,"[0.029139318392638922,-0.053811935725169194]",100.0,"[-0.08332157169369499,-0.014303131564657645]",100.0,"[-0.07603992255219773,0.12713724673808324]",100.0,"[-0.10418138161741783,0.05735169502151101]",4.0,"[0.14831684768558687,0.013482999805654126]",100.0,"[-0.1571989050002613,0.04613645115950285]",100.0,"[-0.15641775836078464,0.08749795520573757]",4.0,"[-0.008526635554999818,-0.08396028711072832]",100.0,"[0.02977056844658998,0.07559325295543448]",100.0,"[0.1886035871666415,0.03728755036664405]",100.0,"[0.1961732279456605,-0.011609241809566758]",100.0,"[-0.06513282871256848,-0.12514477422290698]",100.0,"[0.09414520865895747,-0.12548429986321324]",100.0,"[-0.08766344311547113,-0.17807037624677283]",100.0,"[-0.14827286500623954,-0.0919622632360828]",100.0,"[-0.11568104912683413,0.01118978374151844]",100.0,"[0.17328666728669068,-0.07714149933133799]",100.0,"[0.02878613883490624,0.19502259438220992]",100.0,"[0.0970720012304462,0.05789860613564446]",100.0,"[-0.18290828675962523,0.012102860220393967]",100.0,"[0.0951849536901099,0.015682431013711664]",100.0,"[0.05740520475030338,-0.08274809031372056]",100.0,"[-0.08124143741679449,-0.078632907277881]",100.0,"[0.014329074731287476,0.028331405436091115]",100.0,"[0.06879151591398995,-0.02351199183755371]",100.0,"[0.02,0.02]",107.3166,0.0,5.0,5.0,9.0,1.0,,,,,,,
,,,,,,,64971e71ba666687996c6072,68399d6d22dd632142dc7829,2025-05-30_13h58.49.349,shape_ratio,2024.1.5,Win32,60.24096386,683853e18dae57a2147b65e0,,,,,,,,,,,107.317,107.8168,,,108.0664,108.4335,left,,,,,,,,0.55,0.3576,,,,,,,107.8168,108.0664,108.4335,"[-0.1257976417479728,0.09482580834543922]",4.0,"[-0.07880286021359663,0.07243231308605473]",100.0,"[-0.19100275817007142,0.03448970727522111]",100.0,"[-0.1387266192423442,-0.06538833059607893]",100.0,"[-0.18105124461862449,-0.01962201498976263]",4.0,"[0.10323479490288315,0.020542216845671195]",4.0,"[-0.039955592652399764,-0.08205338853645501]",4.0,"[0.06748458373886035,-0.1311025173469743]",4.0,"[-0.018132197775786577,0.1731152616717497]",100.0,"[0.0673566558787432,-0.004629514647627705]",100.0,"[-0.06877125854091377,0.15144830257714167]",100.0,"[0.16548168128127502,-0.044812050865988856]",4.0,"[0.1576210435032833,0.07201559543540517]",100.0,"[-0.07656858935188299,-0.0382306950534598]",100.0,"[0.037392214896894586,-0.05689763165358519]",100.0,"[-0.10950899806263922,-0.1098300085879752]",4.0,"[0.037053244420577135,-0.1907765118784073]",100.0,"[-0.15179805596811388,0.01111360892971077]",100.0,"[0.08605786282522844,0.1463940937172094]",4.0,"[0.025997109097160884,0.18072189487910395]",100.0,"[-0.10035204025704272,-0.16446406491681947]",100.0,"[0.01121036681027078,0.1379866890180274]",4.0,"[0.016493457540873745,-0.004433736760452239]",4.0,"[0.030833565303808347,0.08148381819576175]",100.0,"[-0.037550841170620616,0.05250782784682253]",100.0,"[0.09574009137631466,-0.0962651670524837]",4.0,"[0.11310568326731044,0.07602109088556876]",4.0,"[0.137012779987298,-0.0817643839230793]",4.0,"[-0.07730742622933505,0.02094203703755831]",100.0,"[0.10872382628525877,-0.036491072695404476]",4.0,"[-0.11732407688019231,0.03411079024050671]",100.0,"[-0.05526623756411502,-0.12422645158405367]",100.0,"[0.02,0.02]",109.5333,0.0,6.0,6.0,74.0,1.0,,,,,,,
,,,,,,,64971e71ba666687996c6072,68399d6d22dd632142dc7829,2025-05-30_13h58.49.349,shape_ratio,2024.1.5,Win32,60.24096386,683853e18dae57a2147b65e0,,,,,,,,,,,109.5336,110.0329,,,110.2833,110.6162,right,,,,,,,,0.5,0.3191,,,,,,,110.0329,110.2833,110.6162,"[0.11933958456630264,-0.03613772039470258]",100.0,"[0.009195722287882476,0.1055089808158152]",100.0,"[0.0987016598177708,-0.15916649779362532]",4.0,"[0.1297439038798935,-0.13193034415042296]",4.0,"[-0.15369010680830622,0.0014623385343909088]",100.0,"[0.1101115699859168,-0.08186994383573842]",4.0,"[0.12875998728876697,0.007173081627836399]",4.0,"[0.06836116435907838,0.16000971881776838]",4.0,"[-0.08578633481309025,0.09906218041069978]",4.0,"[-0.03481251475152656,0.013245662418469716]",4.0,"[0.15851579382179784,-0.025743691382459567]",100.0,"[-0.027255789077423605,0.06462879430195445]",100.0,"[0.005565751192763635,-0.08955517451488726]",4.0,"[-0.09144880178492458,-0.13230867889802908]",100.0,"[-0.049264830546793786,0.16645385395521245]",100.0,"[0.05143353520250349,-0.07425709954615144]",4.0,"[0.19418610792423086,0.038629801122827566]",100.0,"[0.03318389482207938,-0.19664579489552517]",4.0,"[-0.0331585837766224,-0.12008423865720862]",100.0,"[-0.10744569189841927,-0.05509324450267617]",4.0,"[0.139573683405677,0.10682302517222486]",4.0,"[0.15860812719476114,-0.07375073754115505]",100.0,"[-0.020021645361805472,-0.04898174202754488]",100.0,"[-0.17321241919262373,0.06113419964508332]",4.0,"[0.029315395364894407,0.053564457712020494]",100.0,"[0.040183870272559645,-0.01773141751253902]",100.0,"[-0.10684771591418704,-0.0030382260323742953]",4.0,"[0.010704666867710981,0.1547200233472986]",4.0,"[0.11428382044069232,0.14266209295755514]",100.0,"[-0.12062051043323578,-0.0964238761499958]",4.0,"[0.06919821572251532,0.05760414532247164]",100.0,"[-0.11183681078523618,0.05615371310858678]",100.0,"[0.02,0.02]",111.7166,0.0,7.0,7.0,92.0,1.0,,,,,,,
,,,,,,,64971e71ba666687996c6072,68399d6d22dd632142dc7829,2025-05-30_13h58.49.349,shape_ratio,2024.1.5,Win32,60.24096386,683853e18dae57a2147b65e0,,,,,,,,,,,111.7168,112.2159,,,112.4668,112.7669,right,,,,,,,,0.45,0.2856,,,,,,,112.2159,112.4668,112.767,"[0.15439174508797052,0.002710011214567345]",4.0,"[-0.06726792672750012,0.14888353298817164]",100.0,"[0.007973226040134566,-0.08367715411115706]",100.0,"[0.09563277613076412,-0.12524272735628778]",100.0,"[0.14387227105291936,0.12920915432072577]",4.0,"[-0.05814427019857027,-0.09257760458982522]",100.0,"[-0.011205046714241686,0.14187227838440938]",4.0,"[-0.06845291987088109,0.05571629253969791]",4.0,"[0.11280812473767818,0.035269781376809174]",4.0,"[-0.001595817278400966,-0.0010814416737655382]",100.0,"[0.07612826119123098,0.10931682507197292]",4.0,"[0.14468952588095016,0.07623748070710369]",4.0,"[0.07693804300744941,-0.05491904705838988]",4.0,"[-0.054867095685158934,0.0112331300195634]",4.0,"[-0.10054092708761303,0.013275081019766119]",100.0,"[-0.1142999092482909,-0.05072777146795103]",100.0,"[0.01898933589347979,0.09413362413678485]",4.0,"[-0.047987093370306974,-0.04369290988144154]",100.0,"[-0.04526477752360571,-0.13294680796789757]",100.0,"[-0.12437786717336341,0.08932657401171329]",4.0,"[-0.15889226956615857,-0.061248927614341385]",4.0,"[-0.018924042501001954,0.19317033880144766]",100.0,"[0.11589554352056822,-0.04253099311306705]",4.0,"[-0.11052629514781218,-0.15888311556203522]",100.0,"[0.09430478182945842,0.16539503378887224]",4.0,"[0.048676857902323234,-0.1851251187048347]",100.0,"[-0.12864821834243415,0.1433654810838892]",100.0,"[0.04851725067917169,0.0649106887790906]",4.0,"[0.05496943323880952,0.17429991587157415]",4.0,"[0.00879432273749364,-0.16300565397532793]",4.0,"[0.16997229587597212,-0.06039974090215983]",4.0,"[-0.17905006890129627,0.08427252191918395]",100.0,"[0.02,0.02]",113.8662,0.0,8.0,8.0,137.0,1.0,,,,,,,
,,,,,,,64971e71ba666687996c6072,68399d6d22dd632142dc7829,2025-05-30_13h58.49.349,shape_ratio,2024.1.5,Win32,60.24096386,683853e18dae57a2147b65e0,,,,,,,,,,,113.8664,114.3669,,,114.6167,114.7335,left,,,,,,,,0.4,0.1041,,,,,,,114.3669,114.6165,114.7336,"[0.04036556251654647,0.13606922377652944]",4.0,"[-0.040571693457506566,0.020662018691417497]",100.0,"[-0.06679487307341248,-0.10100152414448212]",4.0,"[0.11129347477350168,0.0846101734316218]",4.0,"[-0.16194445544970756,-0.010819056977209411]",4.0,"[0.018806559094226367,0.07053241036109469]",4.0,"[-0.07731003644255217,0.08906739196287018]",100.0,"[0.16271577260252534,0.046250026147354975]",4.0,"[-0.14032651526806603,0.1125102592107239]",100.0,"[-0.07651904829777939,0.0005190853960878195]",100.0,"[0.010384056774479877,-0.18056385736318134]",4.0,"[-0.01699319569513586,-0.01583180941171342]",4.0,"[-0.02272123348364981,0.061397756497574965]",100.0,"[-0.06940214411278195,-0.17721499685502354]",4.0,"[-0.09954034540440838,0.14135381020912813]",100.0,"[-0.10234116356368678,-0.08169556381398049]",4.0,"[0.05023925676268676,-0.08080969954878432]",100.0,"[0.09476661565530428,-0.1730069204780455]",4.0,"[0.14977673942197223,-0.026290364095667915]",4.0,"[-0.07673258861355718,-0.043759458446705576]",4.0,"[-0.1422073601947349,0.0693630251475319]",4.0,"[0.1295917885998922,-0.10533138531045295]",4.0,"[-0.025939641810824473,0.12265727943285121]",4.0,"[-0.18909745278210247,-0.058459272528817836]",4.0,"[0.1066555843835815,-0.02479171508162255]",100.0,"[-0.11197068584878482,-0.16501907767594076]",100.0,"[0.009978834828684679,-0.07868862449455591]",100.0,"[0.19871560458220416,0.01258312010731318]",4.0,"[0.15848699722394244,0.11028165759079829]",100.0,"[0.09798028541983081,-0.1327309657767555]",100.0,"[-0.035604097784782934,0.18211269699540625]",4.0,"[0.16886064625008795,-0.07591979216271807]",100.0,"[0.02,0.02]",115.8331,0.0,9.0,9.0,171.0,1.0,,,,,,,
,,,,,,,64971e71ba666687996c6072,68399d6d22dd632142dc7829,2025-05-30_13h58.49.349,shape_ratio,2024.1.5,Win32,60.24096386,683853e18dae57a2147b65e0,,,,,,,,,,,115.8336,116.3329,,,116.5846,116.767,right,,,,,,,,0.4,0.1662,,,,,,,116.3329,116.5846,116.7672,"[-0.12921917077172718,-0.10337091034689613]",100.0,"[-0.078482586612016,0.03057973241216784]",4.0,"[0.05246752459878358,-0.019886737768402576]",100.0,"[0.049440410503160316,0.07087228843603244]",4.0,"[0.03769320758546326,-0.062262022487604]",4.0,"[0.014111875840865198,0.15099811474734662]",4.0,"[-0.08238696881780921,-0.06071492723210977]",4.0,"[0.001365447927954411,-0.1014964307606371]",100.0,"[0.07570519358562398,-0.17738350611157677]",4.0,"[0.1174541195956731,0.04874497578152347]",100.0,"[-0.1553318525073111,-0.0676319576681299]",100.0,"[0.016717809244322125,-0.18414283887780408]",4.0,"[-0.049220642646198534,-0.0033906675191673038]",4.0,"[-0.04768700153021287,-0.166537344107517]",4.0,"[-0.0601112008875962,0.07876470021970686]",100.0,"[0.06739533324714075,-0.1300591353873381]",4.0,"[0.15106844465115835,0.12776988590295207]",100.0,"[-0.12767200033893134,0.03289577161881098]",100.0,"[0.1629204814865358,-0.11462829348175624]",100.0,"[-0.017831410090785333,0.06053821681760303]",4.0,"[-0.14952717492785933,0.09178921198868963]",100.0,"[0.12284502115964593,-0.128019834839316]",4.0,"[0.14572784434219763,-0.054842300532909456]",4.0,"[0.0013278705968060261,-0.04045343441603047]",4.0,"[0.10284410045919704,0.11838604013905958]",4.0,"[0.18526465575645887,-0.030981520042612835]",4.0,"[0.08571379571281992,-0.048818213475787804]",4.0,"[0.1094801667351732,-0.0022326510980002967]",100.0,"[0.16506133848002685,0.008287693156844347]",4.0,"[0.05842555930821902,0.030763475794810504]",4.0,"[0.1664966654895527,0.06545768219387017]",100.0,"[0.099279704756955,0.16910099535531267]",100.0,"[0.02,0.02]",117.8663,0.0,10.0,10.0,159.0,1.0,,,,,,,
,,,,,,,64971e71ba666687996c6072,68399d6d22dd632142dc7829,2025-05-30_13h58.49.349,shape_ratio,2024.1.5,Win32,60.24096386,683853e18dae57a2147b65e0,,,,,,,,,,,117.8665,118.3671,,,118.6171,118.75,left,,,,,,,,0.9,0.1177,,,,,,,118.3672,118.617,118.7501,"[0.1271834458209029,0.1418537950995411]",100.0,"[0.10322384757726778,0.04678295081627952]",100.0,"[-0.1449727230513203,0.08233776047762816]",100.0,"[-0.19317192879040423,0.007984323038327643]",100.0,"[-0.12081889594278625,0.12708064207566172]",100.0,"[0.0038275762962238467,-0.08525315974625663]",100.0,"[0.13064695260488254,-0.042583345127210036]",4.0,"[0.0773214452048521,-0.03564079973088203]",100.0,"[-0.08915980196076244,-0.092740277607734]",100.0,"[0.044530243159354596,0.07890367549150208]",100.0,"[0.13274092506997354,-0.13886435465135238]",4.0,"[0.07872015113132774,0.13954610199457493]",100.0,"[0.09780407024123586,-0.10471731866001603]",100.0,"[0.08847639619647857,-0.14387301775394895]",4.0,"[-0.07137253670731686,0.14763341260614957]",100.0,"[-0.05874665062401655,-0.16273697913449287]",100.0,"[-0.007909312752453273,0.14895033361622118]",100.0,"[-0.012807249801968765,-0.0013920280913525553]",100.0,"[-0.08106320762392158,0.057823306117145874]",100.0,"[-0.021238740138756897,0.08161863960751396]",100.0,"[-0.06572624699178548,-0.04413934401925437]",100.0,"[-0.06299443341724768,0.09439956497932399]",100.0,"[-0.01620893101948769,-0.19869845346220066]",100.0,"[0.18306385156300745,-0.027365749234190537]",100.0,"[0.040473477036623004,0.17921528716403204]",100.0,"[0.16372847713563204,0.048653204916214096]",100.0,"[0.16916953679325686,-0.07821070188756432]",100.0,"[0.15654033403558523,0.109034945202019]",100.0,"[0.13118994275399448,0.011943249815637371]",100.0,"[0.04576688639959668,-0.07537500889483498]",100.0,"[-0.11944438524285231,0.005380682538301419]",100.0,"[0.06535024646373919,0.022935970871722833]",100.0,"[0.02,0.02]",119.8496,0.0,11.0,11.0,22.0,1.0,,,,,,,
,,,,,,,64971e71ba666687996c6072,68399d6d22dd632142dc7829,2025-05-30_13h58.49.349,shape_ratio,2024.1.5,Win32,60.24096386,683853e18dae57a2147b65e0,,,,,,,,,,,119.85,120.3493,,,120.5999,120.8333,right,,,,,,,,0.9,0.2185,,,,,,,120.3494,120.5999,120.8334,"[-0.05660298593892708,-0.030067271848579852]",100.0,"[0.05102632588645662,-0.04048814793943998]",100.0,"[0.03648842411652238,-0.1530286134752139]",100.0,"[0.010314572138120868,-0.044168955175582024]",100.0,"[-0.08057404161775564,0.1308667408983252]",100.0,"[0.055009196835061315,0.1487079663022888]",100.0,"[0.0925306092203232,0.07074480587431557]",100.0,"[0.0005092806596704919,-0.1862821085164816]",4.0,"[0.11836143638838512,0.11975677426355005]",100.0,"[0.15851711144432443,0.06940487670338041]",100.0,"[-0.1739935593760908,0.0966239065861545]",100.0,"[-0.14670646292833414,-0.11609272640664464]",100.0,"[0.03131779042619826,0.0743688993583417]",100.0,"[-0.06753540797425922,0.1852157383611643]",100.0,"[0.07872115222284379,-0.11920170255015944]",100.0,"[-0.17367452138183045,-0.009565749831164684]",100.0,"[-0.10008486563267584,-0.1364795256972001]",100.0,"[-0.07454289148432028,-0.0990304968828941]",100.0,"[0.114733230912759,0.015844280326404232]",100.0,"[-0.11815959101031154,0.03975765785628893]",100.0,"[-0.006742879661735115,0.14555567104048941]",100.0,"[-0.05118096008615399,-0.170711365817872]",100.0,"[0.15711899625299913,-0.04238628079325059]",100.0,"[-0.0015845639405355166,0.18551303839259775]",100.0,"[0.06821366887970162,0.036501683232189296]",100.0,"[0.1853984039998339,0.014185784437063028]",100.0,"[-0.12602139286737368,0.11806661332038844]",100.0,"[-0.04624564221933612,0.10771936740490524]",4.0,"[0.16238456630983136,-0.08600558003631653]",100.0,"[0.0785386627484054,0.10907056659681079]",100.0,"[-0.021839412693269476,0.07456977323575281]",4.0,"[-0.002406846394311925,0.0122652065967564]",100.0,"[0.02,0.02]",121.9331,0.0,12.0,12.0,18.0,1.0,,,,,,,
,,,,,,,64971e71ba666687996c6072,68399d6d22dd632142dc7829,2025-05-30_13h58.49.349,shape_ratio,2024.1.5,Win32,60.24096386,683853e18dae57a2147b65e0,,,,,,,,,,,121.9337,122.433,,,122.6834,122.9659,left,,,,,,,,0.6,0.2729,,,,,,,122.433,122.6834,122.966,"[0.016094010394821952,0.17638381942371872]",100.0,"[0.1142202532425477,0.07320663749571675]",4.0,"[-0.055478872036458016,0.15958201582027887]",100.0,"[0.09538133695336062,-0.164945644177254]",100.0,"[-0.004825440530420316,0.048257999831519946]",4.0,"[0.1124934867595232,-0.04121197572178629]",100.0,"[-0.15373920092192697,0.10426050185566722]",4.0,"[0.08351902244259221,-0.0900481342309242]",100.0,"[0.0649950291688601,0.04054094718459885]",4.0,"[-0.10861795671139475,-0.110533804239205]",100.0,"[-0.09517189432730866,-0.15734213275362877]",4.0,"[-0.10769380872494207,0.15943953551142231]",100.0,"[0.18907849581531733,0.03422385220350247]",4.0,"[0.15326720335460278,-0.08824680316401136]",100.0,"[0.13112253396760853,0.1438787911090889]",100.0,"[0.1317169463379671,0.02415905861474019]",4.0,"[-0.11620780114947955,0.07997651311725705]",100.0,"[0.0018609968038832074,-0.08380376922420234]",100.0,"[0.026138144748674527,0.08269563233033272]",100.0,"[-0.1473729417695,0.0352650227287915]",4.0,"[-0.03956962307227,-0.18097723880732516]",4.0,"[-0.16907727838856978,-0.034959302733350475]",4.0,"[0.04038920630507781,0.1445668952242399]",4.0,"[-0.01299725507941536,0.10196976500863417]",100.0,"[-0.0018872726657186906,-0.016605580712281603]",100.0,"[-0.06994446428590638,0.1079678401915192]",4.0,"[-0.1223797502313045,-0.06150479445146452]",100.0,"[-0.054937747691727365,-0.06370742144787635]",4.0,"[0.1879003813750792,-0.06111843472056463]",100.0,"[-0.11547979337930879,-0.01924594715210366]",100.0,"[0.02818697303065201,-0.1539220104313184]",100.0,"[0.047629155817009654,-0.03197013611700362]",100.0,"[0.02,0.02]",124.0664,0.0,13.0,13.0,36.0,1.0,,,,,,,
,,,,,,,64971e71ba666687996c6072,68399d6d22dd632142dc7829,2025-05-30_13h58.49.349,shape_ratio,2024.1.5,Win32,60.24096386,683853e18dae57a2147b65e0,,,,,,,,,,,124.0672,124.5664,,,124.8174,124.9496,right,,,,,,,,0.6,0.1167,,,,,,,124.5665,124.8173,124.9496,"[0.07339840563762562,-0.09941873020949211]",4.0,"[-0.03580688916880926,-0.0011816912166044064]",100.0,"[0.15677569775995462,-0.014616502943087197]",4.0,"[-0.008103293267423182,-0.11726307022182367]",4.0,"[-0.13175194859181705,0.050613429103654545]",4.0,"[0.05317490561986439,0.0618683095174224]",100.0,"[0.051476111316553406,0.0027937611572743312]",100.0,"[0.08596993644924374,-0.022763307967817826]",100.0,"[-0.05477078553939945,-0.06736062895763052]",100.0,"[-0.04867852671983902,0.13334348848492214]",100.0,"[0.062207910210679104,-0.1661508969912864]",100.0,"[-0.1786659213513611,-0.05840990512525847]",100.0,"[-0.1666712698897614,0.013524393623996687]",4.0,"[-0.023704429291509222,-0.15702180930254248]",100.0,"[-0.1357127467576498,-0.0892604905081259]",4.0,"[0.18343503808800457,0.056606616467443895]",100.0,"[0.1374070630929264,0.1297536663696073]",100.0,"[-0.11499246662549646,-0.032217865898037955]",100.0,"[0.04370670796192353,0.1255018676871091]",100.0,"[0.10540423663178389,0.15790428705755788]",100.0,"[0.05864353513392493,0.1822713436076056]",4.0,"[0.12965319298551523,0.020033744950913007]",100.0,"[-0.01180285717780907,0.19185318118598754]",4.0,"[-0.15071598162209568,0.08867907741334573]",100.0,"[-0.07926789718331706,0.16304311214481043]",4.0,"[0.143181882281296,-0.12688159394034]",4.0,"[-0.0027871520199176762,-0.06745548033056789]",4.0,"[0.08481898629310555,0.09176109505455934]",4.0,"[0.1816938986294255,-0.05391581911020052]",100.0,"[-0.07520100026953778,-0.013957468291500734]",100.0,"[-0.0347991263934528,0.0472681372109981]",4.0,"[-0.09177266999416953,-0.09517225172502335]",100.0,"[0.02,0.02]",126.0491,0.0,14.0,14.0,53.0,1.0,,,,,,,
,,,,,,,64971e71ba666687996c6072,68399d6d22dd632142dc7829,2025-05-30_13h58.49.349,shape_ratio,2024.1.5,Win32,60.24096386,683853e18dae57a2147b65e0,,,,,,,,,,,126.0496,126.5496,,,126.7994,127.0324,right,,,,,,,,0.6,0.2228,,,,,,,126.5497,126.7993,127.0324,"[-0.18306054229091287,0.058976677135850204]",100.0,"[0.07203948738246918,0.07353179906651731]",100.0,"[-0.027775199178853835,-0.12252975615971201]",4.0,"[0.17823728598847094,0.037815066322651324]",100.0,"[0.022197643384993887,-0.0849851749929921]",100.0,"[0.06398203496263281,-0.16150251954676295]",4.0,"[0.016399365721112794,0.12110490676546766]",100.0,"[-0.09317331434938436,0.014527959204890811]",100.0,"[0.13868385542240555,-0.00897013447943772]",4.0,"[-0.16177320471918363,0.10929558591230311]",100.0,"[0.1403985909646638,0.12248254004222711]",100.0,"[0.06872228644615741,0.11567192911943687]",4.0,"[-0.1299844905329037,-0.14123118712806065]",100.0,"[0.09777044002323965,-0.061219766294386704]",100.0,"[-0.1477254600267124,-0.02158894662417515]",4.0,"[-0.07917988490121668,-0.11700991102289171]",4.0,"[0.022962383504010815,-0.0232448941858033]",100.0,"[0.18713897590362066,-0.05914563179373539]",100.0,"[-0.08327722976885754,0.09634288051549271]",4.0,"[0.1148023064185132,0.025749056886226918]",100.0,"[-0.07641480368841827,0.17407848826189024]",4.0,"[-0.11796309067387174,-0.06785502583922559]",4.0,"[-0.042463628248412884,0.07695402105819021]",4.0,"[-0.03306583024272177,-0.06084733143782103]",4.0,"[-0.12450277282270636,0.13507487692975614]",100.0,"[-0.011624784163675683,-0.1882892913993609]",4.0,"[0.025475339343192877,-0.13979175674702518]",100.0,"[-0.08371386647103808,-0.0467455994830757]",4.0,"[0.07586379172873885,-0.11327766877435787]",100.0,"[0.11548657451508848,-0.15033020337570546]",100.0,"[-0.18312474867683107,0.012031198949864225]",100.0,"[-0.11874074082069265,0.06328314328486383]",100.0,"[0.02,0.02]",128.1331,0.0,15.0,15.0,33.0,1.0,,,,,,,
,,,,,,,64971e71ba666687996c6072,68399d6d22dd632142dc7829,2025-05-30_13h58.49.349,shape_ratio,2024.1.5,Win32,60.24096386,683853e18dae57a2147b65e0,,,,,,,,,,,128.1339,128.6333,,,128.8828,129.2659,left,,,,,,,,0.1,0.3679,,,,,,,128.6334,128.8828,129.266,"[0.0785378950254148,0.02398018601012374]",4.0,"[-0.07695770297711813,0.0036141029553082857]",100.0,"[0.0493071741218065,-0.1297397935405208]",4.0,"[0.11971573001705603,0.021824792049445818]",4.0,"[0.17746454022023267,0.05467161451326354]",4.0,"[-0.19193048351688452,0.006736616993727191]",4.0,"[-0.14424397916361742,0.13055989919575067]",4.0,"[0.16214010399811843,-0.09901101036056015]",4.0,"[-0.06143803523489524,0.13396778550169372]",4.0,"[0.07688398931085842,-0.05502370079970395]",4.0,"[0.08614036184965573,-0.16310982652227698]",4.0,"[0.039532829808243686,-0.1686204666009416]",4.0,"[-0.028213390736756667,-0.06808188298408313]",4.0,"[-0.09516190805144957,0.044211127775379]",100.0,"[-0.12924223110048144,0.06774699184388445]",4.0,"[0.044004795990474396,-0.07848585184429205]",4.0,"[0.14776832738620438,-0.0507219513731904]",4.0,"[-0.04626306522342835,-0.13480193215697955]",4.0,"[0.18560321134419694,0.010993451264778572]",4.0,"[-0.05848291659051009,0.07262152681470119]",4.0,"[-0.11822338731392572,-0.021065046033057377]",4.0,"[-0.14122773921492393,-0.09847508776255565]",4.0,"[-0.07927135471057649,-0.06539849048141966]",4.0,"[-0.0939434219522255,-0.10263834794593445]",4.0,"[0.020507132704431736,0.07798031282729903]",4.0,"[0.02316159308391145,0.015936063025738068]",4.0,"[0.12201496586458929,-0.14361909795063577]",4.0,"[0.10664428149417493,0.09501084627215374]",4.0,"[-0.00467589055816319,0.13107547209834186]",4.0,"[-0.006303044135438792,-0.10245210516226065]",4.0,"[-0.13447599381425823,-0.14216026289493047]",100.0,"[-0.02636706966000419,0.04852065662900668]",4.0,"[0.02,0.02]",130.3658,0.0,16.0,16.0,197.0,1.0,,,,,,,
,,,,,,,64971e71ba666687996c6072,68399d6d22dd632142dc7829,2025-05-30_13h58.49.349,shape_ratio,2024.1.5,Win32,60.24096386,683853e18dae57a2147b65e0,,,,,,,,,,,130.3661,130.8657,,,131.1156,131.2321,right,,,,,,,,0.1,0.1051,,,,,,,130.8657,131.1156,131.2321,"[0.025099740700156577,0.01089314141685318]",4.0,"[0.16747640366117475,-0.017781643412432886]",4.0,"[-0.016864388064664698,-0.09865112042147256]",4.0,"[0.1501670494696907,0.03117932832253801]",4.0,"[0.04682108386067176,-0.05674391852203117]",4.0,"[-0.1257709850833757,-0.06726194312707937]",4.0,"[-0.0025792667321709113,0.1878002296584291]",4.0,"[-0.07939432392121311,-0.1580689461984291]",4.0,"[0.10624529052440793,0.07583285065254812]",4.0,"[-0.11579944897717027,0.00668341379622731]",4.0,"[0.07964071323681847,-0.1379488689447276]",4.0,"[-0.05644230397292507,-0.06606245341770027]",4.0,"[0.17880644508245636,-0.057280888977429945]",100.0,"[0.06402279763133993,0.12994625599732015]",4.0,"[-0.15598269731895692,0.0070225127403427505]",4.0,"[-0.10230637807605045,0.12079888197692328]",4.0,"[0.030878709352391856,-0.11170898247771305]",4.0,"[0.10982666839712381,-0.1034844905048877]",4.0,"[-0.06077305226162876,0.18865344672979384]",4.0,"[0.07931990921087045,0.00714202316125967]",4.0,"[0.022882157543497914,0.11039288694904041]",4.0,"[-0.062046366124540404,0.143693159083852]",4.0,"[0.15839365235706698,-0.11881411217281121]",4.0,"[-0.02991710313268,-0.183847989229768]",4.0,"[-0.08674614897177102,0.08037696445268834]",4.0,"[-0.12971734905518936,0.044931984594998475]",4.0,"[-0.05640971574407245,0.046655708690296754]",4.0,"[0.02682174800435801,0.060265575782495764]",100.0,"[0.11088298209342616,0.15051949018216976]",4.0,"[-0.14608635673503306,0.0815452503207509]",100.0,"[-0.11223204848281762,-0.12988948203084175]",4.0,"[0.038459589787845534,-0.17199666545005285]",4.0,"[0.02,0.02]",132.3322,0.0,17.0,17.0,192.0,1.0,,,,,,,
,,,,,,,64971e71ba666687996c6072,68399d6d22dd632142dc7829,2025-05-30_13h58.49.349,shape_ratio,2024.1.5,Win32,60.24096386,683853e18dae57a2147b65e0,,,,,,,,,,,132.3327,132.8323,,,133.082,133.2985,left,,,,,,,,0.55,0.1992,,,,,,,132.8323,133.082,133.2985,"[-0.11950912503069218,0.07367332409858103]",4.0,"[0.15838970438762054,-0.05644585426069148]",100.0,"[-0.15328674740010145,-0.09266936974821025]",100.0,"[0.1083897562763322,-0.004911412508881542]",4.0,"[-0.012765582640045816,-0.007007641875314344]",100.0,"[0.030977018434123395,-0.12449181735123416]",100.0,"[0.16743718747477077,0.030483696978947202]",100.0,"[-0.13416141830012224,0.007970780076932875]",4.0,"[0.0633367620154348,0.11060576715290264]",4.0,"[-0.04760933088455196,0.15037936405983957]",4.0,"[-0.08675231092776198,-0.17327837423301434]",4.0,"[0.1706735110930768,0.083767059690695]",100.0,"[0.10485013395675993,0.04476563235678381]",4.0,"[0.12140991234475332,-0.10406342743300878]",100.0,"[0.07866774167742545,-0.09004882682134739]",4.0,"[-0.07630707217954831,0.009277193690673657]",100.0,"[0.11564577287332962,0.09366589451104565]",4.0,"[-0.08010273717978258,-0.042613043745023525]",100.0,"[-0.0024412282114853142,0.03208173650701632]",100.0,"[0.016887086098192262,0.10760454482767974]",100.0,"[0.01896650784192504,-0.06970121401757505]",4.0,"[-0.04595988281694661,-0.13660415099984927]",100.0,"[0.09705477031784172,-0.13845473344707196]",100.0,"[0.07534490159651862,-0.029594409394687524]",100.0,"[-0.049815133074125224,0.054860164000622665]",100.0,"[-0.11787724461761427,-0.064433482243822]",100.0,"[0.08531284263873659,0.17436342134235555]",4.0,"[-0.1580429892292852,-0.031170782618393365]",4.0,"[-0.07778438186452409,0.17853755593707532]",100.0,"[0.025244608389575908,-0.16864432530500392]",4.0,"[-0.07328056490743895,-0.10055426107280203]",4.0,"[-0.06144079963832076,0.10592504088349483]",100.0,"[0.02,0.02]",134.4,0.0,18.0,18.0,70.0,1.0,,,,,,,
,,,,,,,64971e71ba666687996c6072,68399d6d22dd632142dc7829,2025-05-30_13h58.49.349,shape_ratio,2024.1.5,Win32,60.24096386,683853e18dae57a2147b65e0,,,,,,,,,,,134.4006,134.8996,,,135.1499,135.2992,right,,,,,,,,0.5,0.1352,,,,,,,134.8997,135.1497,135.2992,"[0.18463295454425568,-0.07377597585409147]",100.0,"[-0.08775323393019029,0.06525071282651111]",100.0,"[0.06977194721391936,0.10300648122017264]",100.0,"[-0.07975384065854177,-0.14505388230407976]",100.0,"[0.038691586251512304,-0.04172106920679056]",4.0,"[-0.15653362107593194,-0.006640654656013729]",4.0,"[0.10148610086777449,0.16311071803215638]",4.0,"[0.08899154816064554,-0.1390366226124654]",4.0,"[-0.0008821218269546943,-0.1336329862007224]",100.0,"[-0.02628867667470898,0.0763363105192094]",4.0,"[0.029712551023327996,-0.17133570711216295]",100.0,"[0.045307914283811486,0.18092370753322506]",4.0,"[-0.0254097319584222,0.1483763384804896]",100.0,"[0.10546861019177033,-0.059218125621223694]",100.0,"[0.08807569618171025,-0.013452103190816097]",100.0,"[-0.056477924935040225,0.10753348311176539]",100.0,"[-0.11956499921012645,-0.030843432233744555]",4.0,"[-0.056436749834560235,0.19181951985511028]",4.0,"[-0.001421799406831825,0.042448174227743316]",4.0,"[-0.06247260056454392,-0.09018815434540799]",100.0,"[-0.09109931871930996,0.14048372036125822]",100.0,"[-0.005976244211353227,-0.09307291074376414]",100.0,"[0.0416092579189299,0.024818625281629064]",4.0,"[-0.06540757451308712,-0.018908880004331247]",100.0,"[0.14009858673006073,-0.01759045179857157]",4.0,"[0.113004035795447,0.06312132422499352]",100.0,"[0.17756131919118665,0.0148587891541374]",4.0,"[-0.042425555104206245,-0.125740872721745]",4.0,"[0.1376915795031008,0.031041825386802443]",4.0,"[-0.008108887788724397,-0.021327580992326844]",100.0,"[-0.15497793913881464,0.04606604386620193]",4.0,"[0.03704317186863472,-0.08522447101132444]",4.0,"[0.02,0.02]",136.3991,0.0,19.0,19.0,104.0,1.0,,,,,,,
,,,,,,,64971e71ba666687996c6072,68399d6d22dd632142dc7829,2025-05-30_13h58.49.349,shape_ratio,2024.1.5,Win32,60.24096386,683853e18dae57a2147b65e0,,,,,,,,,,,136.3996,136.8996,,,137.1495,137.3657,right,,,,,,,,0.4,0.1992,,,,,,,136.8996,137.1495,137.3658,"[-0.03537106515513603,0.12181204645056541]",100.0,"[-0.07711753235195735,-0.05117410897263967]",4.0,"[0.002691367254547348,-0.08475216513220614]",100.0,"[0.09677733921801882,0.028246963934824277]",100.0,"[-0.06320099613993059,0.15337163147985952]",4.0,"[-0.15275084014537155,-0.0813779385088713]",4.0,"[0.06956312091284256,0.09608761604440903]",100.0,"[-0.07797610319253778,-0.13638464539166048]",4.0,"[0.006185943526959254,0.03991788165432849]",4.0,"[0.08460749108530324,0.17674574952278133]",100.0,"[0.16938618307829467,-0.01692127836340298]",100.0,"[0.044846459515737395,-0.10955966862507735]",4.0,"[-0.08928930612119863,0.047050536384087474]",4.0,"[0.08286905753911807,-0.012668779129666224]",100.0,"[-0.1241056786754505,0.10294515734404726]",4.0,"[0.049934798990823,-0.05704896416400191]",4.0,"[0.1377592221830878,-0.09316333090475085]",4.0,"[0.06917155408847295,-0.1413799204796771]",4.0,"[0.04505268079624028,0.01737671546264562]",4.0,"[-0.11815751538593143,-0.15213874371053696]",4.0,"[-0.003279483392457638,0.1793589453810716]",4.0,"[-0.11691166359433555,-0.014516248065204568]",100.0,"[-0.18593418117743393,-0.02509984696838549]",100.0,"[0.009874928514400916,-0.1580501776819616]",100.0,"[-0.1671014755962824,0.08300478792802943]",4.0,"[0.12674883871942208,-0.0012966855781116947]",100.0,"[0.16434667011397205,0.057264248977977175]",4.0,"[-0.18816816489835486,0.017400184601306323]",4.0,"[-0.04244959475072176,0.02739526425324728]",100.0,"[0.02242316714173333,0.10045767365097392]",100.0,"[-0.07714236304739909,0.09302093784630724]",4.0,"[0.10889391477548355,-0.15653748869486026]",4.0,"[0.02,0.02]",138.4657,0.0,20.0,20.0,156.0,1.0,,,,,,,
,,,,,,,64971e71ba666687996c6072,68399d6d22dd632142dc7829,2025-05-30_13h58.49.349,shape_ratio,2024.1.5,Win32,60.24096386,683853e18dae57a2147b65e0,,,,,,,,,,,138.4663,138.9652,,,139.2155,139.4154,left,,,,,,,,0.4,0.1855,,,,,,,138.9652,139.2155,139.4155,"[-0.024266674235081578,0.19484084473987265]",4.0,"[0.10407502923054768,-0.09026866908590465]",100.0,"[-0.16434831479767006,-0.05890722208870954]",4.0,"[0.16957185980738979,0.08194947184050128]",4.0,"[0.14042914597772435,0.12594883282906172]",4.0,"[-0.1229534976222162,0.028329300255432014]",100.0,"[0.0624770485637024,0.1014373619062925]",4.0,"[0.11669066016126158,0.058720048899194036]",4.0,"[-0.10789350122522846,0.10211675290390693]",4.0,"[-0.025847514692876827,-0.09018636269512098]",4.0,"[-0.04895969379604804,-0.13914511073606747]",4.0,"[0.0038359666960102725,0.11553208803293319]",4.0,"[-0.09322387335419839,-0.03354013278463974]",100.0,"[-0.07602420137784291,0.13240850406177757]",100.0,"[0.08037310310464556,-0.17971287400601144]",100.0,"[0.04494442593265229,0.16441700390552985]",100.0,"[-0.08134793029996913,0.06599721976017621]",4.0,"[0.011563381911223575,-0.17834069472632286]",100.0,"[-0.031516141024782875,0.05857062753264563]",100.0,"[-0.16377426220507835,0.08829951788176786]",100.0,"[-0.04354578596916133,0.002045340672382409]",4.0,"[0.1474007149149097,-0.029575729165567596]",4.0,"[0.14365641529162088,-0.110285686331484]",100.0,"[-0.07203668939967237,-0.17524354821566202]",4.0,"[0.08792681728057575,-0.015125206069963494]",4.0,"[0.003903654221102951,0.02523349511842736]",100.0,"[-0.10135412436921493,-0.12768298881531892]",4.0,"[0.011795972567716594,0.07608003348155473]",100.0,"[0.09578717334592654,0.14867561144132313]",4.0,"[-0.14200649187728626,-0.10957869621326467]",4.0,"[0.16051861673218595,0.033565467465959994]",100.0,"[0.11923937546465527,0.011727526368332434]",4.0,"[0.02,0.02]",140.5159,0.0,21.0,21.0,167.0,1.0,,,,,,,
,,,,,,,64971e71ba666687996c6072,68399d6d22dd632142dc7829,2025-05-30_13h58.49.349,shape_ratio,2024.1.5,Win32,60.24096386,683853e18dae57a2147b65e0,,,,,,,,,,,140.5167,141.0149,,,141.265,141.6825,left,,,,,,,,0.4,0.405,,,,,,,141.0149,141.265,141.6826,"[0.1292310469460887,0.1497000127907155]",100.0,"[-0.0834179424903985,0.0436038738280678]",4.0,"[-0.019778736104072284,0.10918490322693561]",4.0,"[0.1694542617287022,0.034114044238239334]",4.0,"[0.10414340293155802,-0.10822909801320216]",100.0,"[-0.14295763929871771,0.015865613507847397]",4.0,"[0.0041114891521057675,-0.19933785153000863]",100.0,"[0.0438092417119232,-0.13769231533519147]",100.0,"[-0.06798477837831865,-0.043492314965510384]",100.0,"[0.013625738192192437,0.007123843396569497]",4.0,"[0.1357106068978972,0.009107516715525224]",4.0,"[-0.016750620102218818,-0.09339411833740766]",100.0,"[-0.1635395167420745,-0.10300794983779976]",4.0,"[0.0992922716864986,0.03685218173967156]",4.0,"[-0.18934163472969132,-0.015696062547673178]",100.0,"[-0.1808166873614308,0.04321555516502441]",4.0,"[0.14853473525512526,-0.04886411692395449]",4.0,"[-0.01851161081040077,0.1497353985979486]",100.0,"[-0.0010422350964506253,-0.1351912581663283]",100.0,"[0.016854642746630736,-0.06976752232931756]",4.0,"[-0.14127051597195295,-0.048377146099325787]",100.0,"[0.1341028441414011,-0.13482369875948746]",100.0,"[-0.07603369893509987,-0.08754270648587967]",4.0,"[0.05188229587507955,0.14030843667154072]",4.0,"[0.03733294325945493,0.19280186931121074]",100.0,"[0.05832319741684917,0.04368578142268157]",4.0,"[0.13896342679403073,0.10797872544551478]",100.0,"[-0.023905598372083867,0.05880195171559212]",4.0,"[-0.08618285920336438,-0.16074727595369692]",4.0,"[-0.14772633414108385,0.1324870655261497]",4.0,"[0.0848240387216183,-0.17647034150111363]",4.0,"[0.03260455662259391,0.08025266952986486]",4.0,"[0.02,0.02]",142.7823,0.0,22.0,22.0,173.0,1.0,,,,,,,
,,,,,,,64971e71ba666687996c6072,68399d6d22dd632142dc7829,2025-05-30_13h58.49.349,shape_ratio,2024.1.5,Win32,60.24096386,683853e18dae57a2147b65e0,,,,,,,,,,,142.7829,143.2826,,,143.5317,143.8321,left,,,,,,,,0.6,0.2864,,,,,,,143.2828,143.5316,143.8321,"[-0.17632757099846438,-0.08569146521188536]",100.0,"[0.04892658970741309,-0.018911917678260195]",100.0,"[-0.0919968835600473,-0.15596808355706548]",4.0,"[-0.028290122668717454,-0.06439297942737271]",100.0,"[-0.04672646327894318,0.15911589448972552]",100.0,"[0.019125806249081976,-0.07407576346580416]",4.0,"[0.16091390039644252,-0.09394285322360234]",100.0,"[-0.08527518776580931,-0.05040613973574423]",100.0,"[0.07187526467538075,0.17965848325869496]",4.0,"[0.14819273465702643,-0.029229547839395346]",100.0,"[0.030318720470389155,-0.18744059165457289]",4.0,"[-0.13274647915489082,-0.03956079710997916]",4.0,"[0.14194837740476762,0.12364684731769365]",100.0,"[0.1721541299779974,0.040569238383328925]",100.0,"[-0.0803425079718874,-0.006712887608894877]",100.0,"[0.11146463479721515,0.08754242348119332]",100.0,"[0.09177648885185898,0.14424455691050386]",4.0,"[-0.14331940174102992,-0.1296569000598546]",4.0,"[-0.18208352678600476,0.0349356812215905]",100.0,"[0.09587840592609796,-0.14930026199281055]",100.0,"[-0.08146266861904738,-0.11153676775775788]",4.0,"[0.08627120943466675,-0.09196164880648858]",100.0,"[-0.1163058353437278,0.16035962345736915]",4.0,"[-0.030454202138419876,0.06857167078289177]",100.0,"[-0.01733165782732929,0.0017898962819211117]",4.0,"[0.07073586332130331,-0.18126949449822694]",4.0,"[0.19762220873605182,-0.028057223155917053]",4.0,"[0.001949356965096117,-0.12434575495791372]",100.0,"[0.08301066930150432,-0.04072704296004745]",100.0,"[-0.10162421269772814,0.10291100744030306]",4.0,"[0.02849812198679827,0.12403095871979736]",100.0,"[0.046809891834419394,0.03249554312192881]",100.0,"[0.02,0.02]",144.9323,0.0,23.0,23.0,49.0,1.0,,,,,,,
,,,,,,,64971e71ba666687996c6072,68399d6d22dd632142dc7829,2025-05-30_13h58.49.349,shape_ratio,2024.1.5,Win32,60.24096386,683853e18dae57a2147b65e0,,,,,,,,,,,144.9328,145.4325,,,145.6824,145.9154,right,,,,,,,,0.45,0.2173,,,,,,,145.4325,145.6824,145.9155,"[0.05507482735316631,0.07714501671926827]",100.0,"[-0.09235163595363925,0.017413095928098483]",4.0,"[0.004436331004238025,-0.01130618134095987]",100.0,"[0.07378125739466417,-0.043941715850241515]",100.0,"[0.15125351751576818,-0.06437324917062762]",4.0,"[0.00732526665509464,-0.17317925952991453]",100.0,"[0.11928920479154047,0.0158896388913525]",4.0,"[0.10857912003366353,0.09275223777019016]",4.0,"[-0.17698716034719425,-0.03339693761129954]",4.0,"[-0.037166514073654795,0.07486191789798906]",100.0,"[0.07755558342426908,0.13184645058545835]",4.0,"[-0.04228374592896756,-0.01731163024877183]",100.0,"[-0.09973659452771284,-0.09547881194305145]",4.0,"[-0.13390690077111034,0.05751957088891403]",4.0,"[0.07852297924678246,0.03536349825538467]",4.0,"[0.009318706516962707,0.08240332746148137]",4.0,"[-0.005287394638298304,0.15875618869099944]",4.0,"[0.02380789805672242,-0.12739948597660083]",100.0,"[-0.10305928775124716,0.12352416683848663]",100.0,"[-0.16593121223112758,0.09636010961725211]",100.0,"[-0.052045849004681434,-0.1356387915368479]",4.0,"[0.17613912595435982,0.014196076330325833]",4.0,"[0.11628942201880459,-0.031571801395043425]",4.0,"[0.13359010308250607,-0.11722396099096563]",100.0,"[0.19171624291075223,-0.025244650691660844]",4.0,"[-0.03400007049396365,-0.07325145941671855]",100.0,"[-0.04673835461512616,0.030110768809758093]",100.0,"[-0.1613063897970849,-0.11654618100702598]",4.0,"[-0.06068589920976754,0.11674296057403945]",100.0,"[0.169042631790483,0.10103880940992563]",100.0,"[0.03163151885643717,-0.04927303722486223]",4.0,"[-0.1474753434246298,-0.07406560107369421]",4.0,"[0.02,0.02]",147.0154,0.0,24.0,24.0,123.0,1.0,,,,,,,
,,,,,,,64971e71ba666687996c6072,68399d6d22dd632142dc7829,2025-05-30_13h58.49.349,shape_ratio,2024.1.5,Win32,60.24096386,683853e18dae57a2147b65e0,,,,,,,,,,,147.016,147.5147,,,147.7651,147.7989,right,,,,,,,,0.45,0.0235,,,,,,,147.5147,147.7651,147.7989,"[-0.004697462716033571,0.029037984421128777]",4.0,"[-0.017907419913453876,-0.18953349915890622]",100.0,"[0.17003482555103747,-0.011296337163464079]",4.0,"[0.12831823140580376,0.06976774663701528]",100.0,"[-0.019530379834105695,0.133003224718367]",100.0,"[-0.11125365315900852,-0.016216327723963156]",100.0,"[-0.12399465529453188,0.02981565368083746]",100.0,"[0.07026423292589166,-0.03046172229825516]",100.0,"[0.06217614058182424,0.06287535883407454]",4.0,"[0.09857296274229255,0.10832228376097086]",100.0,"[-0.08372583827971515,0.1782755804408655]",100.0,"[-0.17587499923523028,0.0570673711841833]",4.0,"[0.04201440010959181,-0.10282055022667447]",4.0,"[-0.03983935972259678,0.0811068361898951]",4.0,"[-0.044885071314957545,-0.10614763920536176]",100.0,"[-0.06354099907625939,0.13008246664136533]",4.0,"[-0.006617904320875369,-0.023740716029132993]",4.0,"[-0.10334663893958726,-0.11542434111731305]",4.0,"[0.14449876542933113,0.11612219609497773]",4.0,"[-0.09390940408199322,0.08023429287689247]",100.0,"[-0.106493477643502,-0.06365971867705104]",100.0,"[-0.05288946701683033,-0.047721563309359956]",100.0,"[0.01178172013574194,-0.1465620053998339]",4.0,"[-0.11894504055551379,0.1537620740873839]",4.0,"[-0.059959955833461226,0.03996528955413924]",4.0,"[0.11275521897919859,-0.08649419342427238]",4.0,"[-0.09436498012025908,-0.172228283720157]",4.0,"[-0.05156087689912781,-0.15656495151153318]",4.0,"[0.1338716411599391,-0.12146638623848728]",100.0,"[-0.18793167700096203,-0.046785702985604555]",100.0,"[0.1692938091666526,-0.06749634679772507]",4.0,"[0.007671618206171928,0.08128722193802125]",4.0,"[0.02,0.02]",148.8985,0.0,25.0,25.0,128.0,1.0,,,,,,,
,,,,,,,64971e71ba666687996c6072,68399d6d22dd632142dc7829,2025-05-30_13h58.49.349,shape_ratio,2024.1.5,Win32,60.24096386,683853e18dae57a2147b65e0,,,,,,,,,,,148.899,149.3991,,,149.6497,149.7819,left,,,,,,,,0.5,0.1152,,,,,,,149.3992,149.6495,149.782,"[0.0755295937303853,0.027065977192869285]",4.0,"[0.17323260116331715,0.004839877381186879]",100.0,"[0.010860787476896264,0.18372281070519247]",4.0,"[0.18275378192820455,-0.0632988290568845]",100.0,"[-0.02953477411685566,-0.07514351885766382]",100.0,"[-0.07575555130994208,0.15409889890849235]",4.0,"[0.05366312736772375,-0.127365824971153]",100.0,"[0.08995316755905819,-0.06314408583369019]",100.0,"[-0.06941338013917514,-0.11406992891382763]",4.0,"[0.00023797375711310327,-0.11194162624656727]",4.0,"[-0.15619731390454744,0.055540248425566985]",4.0,"[-0.0385773745367488,-0.02306794387197836]",100.0,"[-0.003356367543251435,-0.186891300512578]",100.0,"[-0.023426386694661055,0.1069465557372644]",100.0,"[0.02409243966858499,0.11684413503544838]",100.0,"[0.08735623495720611,0.17664607197819512]",100.0,"[0.0101966172107209,-0.05045264008626407]",4.0,"[0.014460313368037067,0.059127057945671094]",100.0,"[-0.15494712056239957,-0.11047662935135057]",4.0,"[-0.09897069110179219,0.10537011409006009]",100.0,"[-0.17824451828331955,-0.06789257696299161]",100.0,"[0.12458825333251641,0.14471450964701776]",4.0,"[0.1303607027553314,0.04152997638643089]",4.0,"[-0.0566499601018583,-0.15639307295814361]",4.0,"[-0.08323763659965978,0.0684715208199074]",4.0,"[-0.12046691379994393,-0.07718534415563255]",4.0,"[0.09953197753089475,-0.11276021792410533]",4.0,"[0.10025546128541468,0.08973183705227626]",100.0,"[0.10330933811164167,-0.00655862353808125]",100.0,"[0.03406321692387454,0.020274145508480335]",100.0,"[0.060585239313206495,-0.011839537386917318]",4.0,"[-0.02611087642865818,0.05077295699409815]",4.0,"[0.02,0.02]",150.8816,0.0,26.0,26.0,96.0,1.0,,,,,,,
,,,,,,,64971e71ba666687996c6072,68399d6d22dd632142dc7829,2025-05-30_13h58.49.349,shape_ratio,2024.1.5,Win32,60.24096386,683853e18dae57a2147b65e0,,,,,,,,,,,150.882,151.3812,,,151.6319,151.7652,right,,,,,,,,0.5,0.1176,,,,,,,151.3813,151.6319,151.7652,"[0.15678882876931782,-0.1118473336251161]",100.0,"[-0.025417691299998095,-0.0747908783878926]",4.0,"[-0.11632126979692874,-0.15094015928555615]",100.0,"[0.15382013858096052,0.026767552979512974]",100.0,"[0.028369814660034447,0.16556247992956855]",4.0,"[0.08683856597682936,-0.04657377410632859]",4.0,"[-0.1609343502201694,0.07674556517637746]",4.0,"[-0.023885921207117092,0.10837328542393537]",100.0,"[0.03231171914996636,-0.10372495364463566]",4.0,"[-0.061671451275304316,0.0478742556058601]",4.0,"[-0.007028171585378515,0.005064649310708044]",100.0,"[0.19330518921634066,-0.02557106847695874]",100.0,"[-0.04911882747954016,-0.15857753902536798]",4.0,"[0.02830492879453314,0.12489136941368802]",100.0,"[-0.005355966080098636,0.060686104374336095]",100.0,"[-0.09480994068556232,-0.11094068851146814]",4.0,"[0.07559507854761995,0.02443673466961327]",100.0,"[-0.1178629985077985,0.03297975222654484]",4.0,"[-0.17041366526398144,-0.017048137561739358]",4.0,"[-0.13604282297968273,-0.0747956752926287]",4.0,"[0.07875501358549201,-0.17259511264686794]",100.0,"[-0.19259887049517505,0.03568190140833837]",4.0,"[-0.07236270625758079,-0.07551522491728606]",4.0,"[0.02961586977768424,-0.03916988200196841]",100.0,"[0.1543712310523112,-0.06149951382170308]",100.0,"[0.08304942783586201,0.10924909931845751]",100.0,"[0.15662086090927346,0.07304615763436094]",4.0,"[-0.0968233090447498,0.16550190906378437]",100.0,"[0.10519836463386921,-0.1049808976786681]",100.0,"[-0.05213460101679474,0.17291125570608795]",100.0,"[0.10754120798153617,0.1508110941828863]",4.0,"[-0.10457147280902267,-0.025261818569409025]",4.0,"[0.02,0.02]",152.8647,0.0,27.0,27.0,90.0,1.0,,,,,,,
,,,,,,,64971e71ba666687996c6072,68399d6d22dd632142dc7829,2025-05-30_13h58.49.349,shape_ratio,2024.1.5,Win32,60.24096386,683853e18dae57a2147b65e0,,,,,,,,,,,152.865,153.3654,,,153.6155,153.7149,left,,,,,,,,0.55,0.0832,,,,,,,153.3654,153.6154,153.715,"[0.009604858644055678,-0.15866586168613248]",100.0,"[-0.08388928758348982,0.04059916596646856]",4.0,"[0.02415844805927345,-0.10794019725819569]",100.0,"[0.13628305276302605,0.018323993824054766]",100.0,"[0.09750285645294181,-0.003492025272419958]",100.0,"[0.007467077590683339,-0.06126918839423153]",4.0,"[-0.10166770261678584,-0.05341086056540159]",4.0,"[0.10153782130021483,0.1523235165092947]",4.0,"[-0.031406433412399314,-0.09209373296710639]",100.0,"[-0.09232249402388093,-0.0077306728265605215]",100.0,"[0.17878063850840828,-0.049839086553365]",100.0,"[-0.10056053397674565,-0.1547176189524621]",4.0,"[-0.14837051556815725,0.09430808623728666]",4.0,"[0.06536409325428674,0.12477761592642897]",100.0,"[0.1041574325480296,-0.04873555164554705]",4.0,"[0.13113494504751314,-0.12231014019579535]",100.0,"[-0.0942094703477902,0.16637666663816134]",4.0,"[-0.029483658045612957,0.07489865364957254]",4.0,"[-0.011122980245975456,-0.01767339165239141]",100.0,"[0.05261196201432104,0.02613814595535227]",100.0,"[-0.028437780653749488,-0.18940528067316023]",100.0,"[0.038284812004829645,-0.190602010758958]",4.0,"[-0.03340685092117844,0.16832312319334866]",4.0,"[0.007469249697715919,0.14123853208687787]",100.0,"[-0.15359482515208342,-0.08188248091335407]",100.0,"[-0.06502892241463804,0.12676355298798264]",100.0,"[0.06808071854893988,0.18485240256618024]",100.0,"[0.09809806696417306,0.04998677828208927]",4.0,"[0.04833541316467041,0.08312665374626145]",4.0,"[0.18944144711921745,0.0350146282619569]",100.0,"[0.10462468164691509,0.10884628195389924]",4.0,"[-0.07655043331592368,-0.09978893852567783]",100.0,"[0.02,0.02]",154.8153,0.0,28.0,28.0,76.0,1.0,,,,,,,
,,,,,,,64971e71ba666687996c6072,68399d6d22dd632142dc7829,2025-05-30_13h58.49.349,shape_ratio,2024.1.5,Win32,60.24096386,683853e18dae57a2147b65e0,,,,,,,,,,,154.8163,155.3153,,,155.5655,155.7321,left,,,,,,,,0.55,0.1502,,,,,,,155.3153,155.5654,155.7321,"[-0.13587964920032286,0.12493267507393802]",100.0,"[0.07002616752626219,-0.04557496369311361]",100.0,"[-0.08738932892776206,0.14454913918629075]",100.0,"[0.18208052571268768,-0.005972829064027843]",100.0,"[0.023542299517813017,-0.032467773498964264]",4.0,"[0.17809893767721477,0.0648137112574373]",100.0,"[0.15106849186175958,0.1284856222966663]",100.0,"[-0.055511530844007166,0.06280053428378576]",4.0,"[0.07192333212059666,0.1803229138957393]",4.0,"[-0.16219148624001845,0.06340006423631842]",100.0,"[0.10923857711164844,0.05254888707053509]",4.0,"[0.10617528018660344,-0.01593484002374161]",100.0,"[0.04776535556065051,0.055791649890813796]",4.0,"[-0.11569388756634277,-0.07920983485692312]",4.0,"[0.0360669184226389,0.12608454888038045]",4.0,"[-0.07463214788112316,-0.07946178186689283]",100.0,"[-0.1897793876817149,0.014210658881236758]",100.0,"[-0.021624931573302447,-0.035863507336751324]",4.0,"[0.17579785001264556,-0.058490188018279314]",100.0,"[-0.09891552145806122,0.05906867961487275]",100.0,"[0.00433107678968315,-0.09865304549979778]",100.0,"[0.0034779743607433367,-0.16053032621834842]",4.0,"[-0.0717260515031381,0.18578469836018058]",4.0,"[0.08786551402451781,0.09839378725816864]",100.0,"[-0.09966424995838258,0.01582248752134217]",100.0,"[-0.08288392077790026,-0.023951004319381377]",100.0,"[0.12277417913742926,-0.1276837179378523]",4.0,"[0.046253299021576696,-0.07937637884141187]",4.0,"[-0.022141271425033904,0.15765540638519607]",100.0,"[0.08416266670961761,-0.16166137725442553]",100.0,"[0.00886599937397633,0.02085308893092265]",4.0,"[-0.004358555207601842,0.08323630809182281]",4.0,"[0.02,0.02]",156.8319,0.0,29.0,29.0,85.0,1.0,,,,,,,
,,,,,,,64971e71ba666687996c6072,68399d6d22dd632142dc7829,2025-05-30_13h58.49.349,shape_ratio,2024.1.5,Win32,60.24096386,683853e18dae57a2147b65e0,,,,,,,,,,,156.8326,157.3319,,,157.5816,157.6317,right,,,,,,,,0.4,0.0344,,,,,,,157.3319,157.5816,157.6317,"[-0.05596461931167901,0.04701808033234571]",4.0,"[-0.13859808849011412,-0.02398239122305036]",100.0,"[-0.12687763125754892,-0.12616854732517654]",100.0,"[0.1026889955845111,0.13190147469715807]",100.0,"[0.006346958559613491,0.15785860603533267]",4.0,"[-0.06572708769562037,0.1650420274813115]",100.0,"[0.16061086481691586,0.07360879347035679]",4.0,"[0.11680656052561264,0.01417497579431235]",4.0,"[-0.0660145047298886,-0.11218973544556149]",4.0,"[-0.06550439114154516,0.10428106353998792]",100.0,"[0.05850141337427071,-0.08639462836820239]",100.0,"[0.05342293032267538,-0.13916241616428454]",4.0,"[-0.11223491564050098,0.08466297758715477]",4.0,"[0.013739987370626539,-0.039242779122486894]",4.0,"[0.030226061543432797,-0.19243871249722463]",4.0,"[-0.11615725003901296,0.02179886571916713]",4.0,"[-0.18865190906010595,-0.019992561602693647]",4.0,"[0.07641926958759643,0.000492135958542416]",4.0,"[-0.16193213341692297,0.09037028783728902]",4.0,"[-0.05728955624889292,-0.02022743426289551]",4.0,"[-0.08228304847125636,-0.16881665148773992]",100.0,"[0.1457233540130106,-0.0760575143451565]",4.0,"[-0.19064445237589964,0.05868156624041103]",4.0,"[-0.1470510351877393,-0.08352573618671318]",100.0,"[-0.10261412237728308,-0.0864424556033343]",100.0,"[0.16163230902396541,-0.019272427788442643]",100.0,"[-0.13383009243100644,0.12371388033955398]",100.0,"[0.0044476994873899845,0.019606429352760375]",100.0,"[-0.0327398719807156,-0.16907770854951215]",100.0,"[0.08383491886092827,0.05194314366872585]",4.0,"[-0.02311291776905711,-0.09981392739961797]",4.0,"[0.14320016119452553,-0.11605095013284128]",4.0,"[0.02,0.02]",158.7315,0.0,30.0,30.0,176.0,1.0,,,,,,,
,,,,,,,64971e71ba666687996c6072,68399d6d22dd632142dc7829,2025-05-30_13h58.49.349,shape_ratio,2024.1.5,Win32,60.24096386,683853e18dae57a2147b65e0,,,,,,,,,,,158.7318,159.2308,,,159.4823,159.5483,right,,,,,,,,0.45,0.0508,,,,,,,159.2308,159.4823,159.5483,"[-0.028168783164718218,0.16549929519505327]",100.0,"[0.05369379514091078,-0.08373039487144704]",4.0,"[0.02313165531447681,0.06092243140885581]",4.0,"[0.17884843991145918,0.03985651043116617]",4.0,"[0.09968199677858174,-0.15676485040611263]",4.0,"[-0.1463811980626586,0.13021537165187316]",4.0,"[-0.04688039215290215,-0.15615538550296892]",100.0,"[-0.06706040321495886,-0.10639144775004358]",4.0,"[0.13834849252774342,-0.1342557894787973]",100.0,"[0.12834447120838646,0.011598920158378873]",100.0,"[-0.12531130737979257,-0.04766876533958797]",4.0,"[-0.03563465476008013,0.0675713672082307]",100.0,"[-0.09054954836443908,0.1673790443357974]",100.0,"[0.18135489774697103,-0.04430776327767448]",100.0,"[-0.06117497456782832,-0.003392495674002722]",100.0,"[0.0878120107621216,-0.024885898297055165]",4.0,"[-0.05794124130816801,0.10403314655959042]",100.0,"[0.035048717098053406,0.14511031517952355]",100.0,"[0.09988548804816486,0.07613738284695884]",4.0,"[-0.026991838618344546,-0.11831005224784547]",4.0,"[-0.05937711240531457,-0.0656663036998149]",100.0,"[0.002235575768490574,0.10373019377861925]",4.0,"[-0.10371250324271158,-0.1605093505039535]",4.0,"[0.00853754474472489,-0.09866987207281616]",100.0,"[-0.14496038294655708,-0.11657720204472764]",4.0,"[-0.0153359250844444,0.021614559104749822]",100.0,"[-0.1045276118600512,0.019334490915199152]",4.0,"[-0.11075213422365754,-0.09191994815920711]",4.0,"[0.12863492795985826,-0.07861126527764395]",4.0,"[0.09775548547254319,0.1165128398291849]",4.0,"[0.04140695063291682,0.018581043090540355]",100.0,"[0.06439445955763885,-0.13098580907417048]",4.0,"[0.02,0.02]",160.648,0.0,31.0,31.0,132.0,1.0,,,,,,,
,,,,,,,64971e71ba666687996c6072,68399d6d22dd632142dc7829,2025-05-30_13h58.49.349,shape_ratio,2024.1.5,Win32,60.24096386,683853e18dae57a2147b65e0,,,,,,,,,,,160.6486,161.1481,,,161.3982,161.5981,right,,,,,,,,0.6,0.1834,,,,,,,161.1482,161.3982,161.5981,"[-0.1447977481247344,0.05830345925016904]",4.0,"[0.07830175871938949,0.1592142461897826]",4.0,"[0.16656274086649833,-0.09602107079039841]",4.0,"[-0.08373922607515882,-0.14679366120810872]",100.0,"[-0.05573376103527583,-0.010402740001511823]",4.0,"[-0.08672157396459877,0.10110634511858325]",4.0,"[0.03935959955729064,0.18163436468536678]",4.0,"[0.07481789450528288,-0.17008424638566264]",4.0,"[-0.18509242238747708,-0.07016117248524163]",4.0,"[0.15292037746210338,0.09958103448870258]",100.0,"[-0.0013452423788256841,0.0024189240460990493]",4.0,"[-0.041816861209562295,-0.05292790288331243]",100.0,"[0.11373253914429235,0.11851602896795456]",100.0,"[0.037044214362149656,0.09135106742986511]",100.0,"[0.06638575536948424,-0.007801922201334945]",100.0,"[0.031131053267458887,-0.1896338430399938]",100.0,"[-0.040521932208581884,-0.09943621368492266]",100.0,"[-0.17432465967524682,0.027978881365178194]",100.0,"[-0.07771820043735247,0.15603061458604497]",100.0,"[-0.14614487156313744,-0.02818456532365658]",100.0,"[-0.10457400497377738,0.003931902558331095]",4.0,"[0.1481836468464399,-0.13233092978995897]",100.0,"[0.12853583361211854,0.054366976548310963]",4.0,"[-0.030357119362814298,0.07714008421843191]",100.0,"[0.07835639751710972,-0.11594611119387273]",100.0,"[-0.0066466429532961654,0.1645178119041283]",4.0,"[-0.09946746034136346,-0.03720616605078189]",4.0,"[-0.03890029133024517,-0.14325620423443275]",100.0,"[0.11633719637056328,-0.04946581147837321]",100.0,"[-0.12700199579969143,-0.13813233851398743]",100.0,"[0.05856598341697236,0.048222369933786945]",100.0,"[-0.1346475488103258,-0.07989279656324971]",100.0,"[0.02,0.02]",162.6981,0.0,32.0,32.0,58.0,1.0,,,,,,,
,,,,,,,64971e71ba666687996c6072,68399d6d22dd632142dc7829,2025-05-30_13h58.49.349,shape_ratio,2024.1.5,Win32,60.24096386,683853e18dae57a2147b65e0,,,,,,,,,,,162.6985,163.1987,,,163.4485,163.5153,left,,,,,,,,0.55,0.0502,,,,,,,163.1988,163.4485,163.5153,"[0.10417999883852572,-0.14835340198406322]",4.0,"[-0.04662748700963655,-0.1463703669542947]",100.0,"[0.02267433249286834,0.09539344226993983]",4.0,"[-0.15375616589952418,-0.01730090407776681]",4.0,"[-0.10529818591303088,0.06891707427288192]",100.0,"[0.03787691840260117,0.18831440704735974]",100.0,"[0.06615062910632633,0.02704399702460016]",4.0,"[0.030928694517820012,-0.1593521445117899]",100.0,"[-0.007521842326115965,0.01839477024481628]",4.0,"[0.06389694984817364,0.06893317375610895]",100.0,"[0.17005219920279682,0.0076408846276082645]",100.0,"[-0.14994966148100763,0.10891743197027373]",100.0,"[-0.11047260450205339,0.003750860646070682]",4.0,"[-0.0666573984640707,0.08679204558078842]",4.0,"[0.1051570924124376,0.01107929051650212]",100.0,"[-0.04014713596727213,0.15720252310934438]",4.0,"[-0.18374063667386978,0.06577166134589552]",4.0,"[0.1452608753544154,0.07750814566616343]",100.0,"[0.09551699416562465,0.12599184808106337]",4.0,"[-0.11326983853841135,-0.12845810512669495]",100.0,"[-0.031856123198397666,-0.190453163350165]",100.0,"[-0.013230537481749375,-0.059860105688919904]",100.0,"[-0.07615912271717465,0.02492820069697838]",4.0,"[0.027091516956716858,-0.06519305320504755]",100.0,"[0.05354783783305304,-0.10920445465666005]",100.0,"[0.06664587254731817,-0.035513676048738056]",100.0,"[-0.1551171178356489,-0.11341878087190388]",100.0,"[0.14648107752647926,0.1335244719182501]",100.0,"[-0.0019806835234704155,0.1830630724089024]",4.0,"[-0.028484847705690704,-0.015893767978102484]",4.0,"[-0.09923477795048459,0.14454145370018312]",100.0,"[0.09336432438845747,-0.10480474644991657]",4.0,"[0.02,0.02]",164.6151,0.0,33.0,33.0,63.0,1.0,,,,,,,
,,,,,,,64971e71ba666687996c6072,68399d6d22dd632142dc7829,2025-05-30_13h58.49.349,shape_ratio,2024.1.5,Win32,60.24096386,683853e18dae57a2147b65e0,,,,,,,,,,,164.6156,165.115,,,165.3652,165.4311,right,,,,,,,,0.55,0.0507,,,,,,,165.115,165.3652,165.4311,"[0.06140632536094482,0.06350950652878061]",4.0,"[-0.006368742270510765,0.033385146620217555]",100.0,"[-0.1124315683009866,-0.1341866979159842]",4.0,"[-0.001580638739265083,0.0861817187981107]",100.0,"[-0.0011399909404595694,-0.008737860426027358]",100.0,"[-0.07730036999225556,0.06555277562618805]",100.0,"[0.02124388282245945,-0.14466849181894345]",100.0,"[-0.08405592262745447,-0.01805835478369549]",100.0,"[-0.13435692593795592,0.10424432405119342]",4.0,"[0.10388972230575681,0.042940679549301204]",100.0,"[0.014267325700789146,-0.18529719171392317]",4.0,"[0.13007387903413603,-0.05438032935125094]",4.0,"[-0.1626684889065464,0.009516474220602688]",100.0,"[0.08172004950688494,-0.11777890973042339]",100.0,"[-0.08800050353546987,0.15648483161477708]",100.0,"[-0.003497309341564834,-0.08412828488033856]",4.0,"[0.13812066247523763,-0.1346229400176478]",4.0,"[0.056232537327746135,-0.18869086564779]",100.0,"[0.086887145509014,-0.07025705741014367]",4.0,"[0.17244020705674973,0.013712191633531346]",100.0,"[0.04886163161535402,0.19257622831344892]",4.0,"[-0.05891055742528755,0.12781536527525683]",100.0,"[0.1522939423860306,0.11055216608779314]",4.0,"[-0.014886074417190323,0.1661631558385082]",4.0,"[0.08348004099270467,-0.013428372769770243]",4.0,"[-0.14336724054281832,-0.05776001239421534]",100.0,"[-0.1853635813643093,-0.03413282805850942]",100.0,"[-0.06207447420263073,-0.06140788229831236]",100.0,"[0.02866670169910955,-0.04218938713139909]",100.0,"[-0.08569877871343679,-0.10295272734823943]",4.0,"[0.11758578997643256,0.14900594166671466]",100.0,"[0.16782060712225783,-0.08081266671921461]",4.0,"[0.02,0.02]",166.5312,0.0,34.0,34.0,87.0,1.0,,,,,,,
,,,,,,,64971e71ba666687996c6072,68399d6d22dd632142dc7829,2025-05-30_13h58.49.349,shape_ratio,2024.1.5,Win32,60.24096386,683853e18dae57a2147b65e0,,,,,,,,,,,166.5316,167.031,,,167.2816,167.4649,right,,,,,,,,0.45,0.167,,,,,,,167.031,167.2815,167.465,"[0.058579106327933124,-0.11872977744140471]",4.0,"[-0.026193211413768017,0.07501609093617859]",100.0,"[-0.10595487118183858,-0.09074097400691392]",4.0,"[0.06269288396853566,-0.17755438268196383]",100.0,"[0.17815573241979352,0.0238089696379802]",4.0,"[-0.04336761139698699,-0.08046706683668411]",4.0,"[0.04741793034368522,0.1361409709074501]",4.0,"[0.1779708466308167,-0.036115084291853485]",100.0,"[0.07092469968109286,-0.04034316522996163]",4.0,"[0.03053559109350693,0.07908448138912752]",4.0,"[-0.06925406125217116,0.14747927751399004]",100.0,"[0.11836100602207236,0.06629063607938038]",100.0,"[0.05224181093185103,-0.0782789071891712]",100.0,"[0.11678282109720356,-0.09473966978026681]",100.0,"[0.01428249594866501,0.031187736324624408]",4.0,"[-0.07001472398867818,-0.03480628435309125]",4.0,"[-0.14589092067342077,0.010981471200228897]",100.0,"[0.1264915525836687,-0.010752326368878025]",4.0,"[-0.0013430567790444642,-0.18442653612899756]",100.0,"[-0.0701077909238024,-0.15736162392368094]",100.0,"[-0.12156350118001197,0.061801064123790814]",4.0,"[-0.15461243813465272,-0.12231880505934319]",4.0,"[-0.005463420144740892,-0.0602403196886836]",4.0,"[0.02524780860569204,0.1702160230318586]",4.0,"[0.14471285753166233,0.12927029742663654]",100.0,"[0.16197468114217137,-0.11156987732796601]",4.0,"[0.07223002104590918,0.08262850697414105]",4.0,"[-0.1841217227350399,-0.06051663661538656]",4.0,"[-0.0015916478857100373,-0.008530160333264817]",4.0,"[0.09830806858623645,0.13644537692657277]",100.0,"[-0.022678236394049978,0.13541629509480163]",100.0,"[-0.10127098057189428,0.10064182507666712]",100.0,"[0.02,0.02]",168.5645,0.0,35.0,35.0,131.0,1.0,,,,,,,
,,,,,,,64971e71ba666687996c6072,68399d6d22dd632142dc7829,2025-05-30_13h58.49.349,shape_ratio,2024.1.5,Win32,60.24096386,683853e18dae57a2147b65e0,,,,,,,,,,,168.5649,169.0645,,,169.3145,169.4651,left,,,,,,,,0.45,0.1353,,,,,,,169.0646,169.3145,169.4653,"[-0.13401972631260312,-0.11628943488579734]",100.0,"[-0.050370288135588304,-0.180890462662994]",4.0,"[0.15699503646474847,0.11415083140854133]",4.0,"[-0.09477710246785523,0.01330807396524841]",4.0,"[0.1911906276162279,-0.023314030037514744]",100.0,"[0.12968753758683474,-0.15190392593802354]",100.0,"[0.047354831459108196,0.051932254084528694]",100.0,"[-0.08183428116951619,0.10668776940060348]",4.0,"[-0.003546188718773386,0.02599380391170779]",4.0,"[-0.04792613518030475,0.16210939110609093]",4.0,"[0.10782671847125005,0.12174068687701697]",100.0,"[-0.04348901631176348,-0.08383888740158268]",4.0,"[-0.07385767203250064,-0.1300829999251426]",4.0,"[0.1769721047328141,0.07820607512448861]",100.0,"[-0.038550224278977724,-0.023372104958789542]",100.0,"[-0.041996120147526614,0.05767954537665064]",4.0,"[0.006019860617436917,-0.12305778038268256]",100.0,"[-0.11696491055875398,0.12781067432936388]",4.0,"[0.04206596763163732,0.11767905077157417]",100.0,"[0.09922488110711786,-0.02498082412781384]",100.0,"[0.035236861159529446,-0.02787681168311409]",4.0,"[-0.18677492662826867,-0.05408364215755375]",4.0,"[0.0692745578127867,-0.05546248115287243]",4.0,"[-0.010909502489793528,0.19280929459266358]",4.0,"[0.07959066924323578,0.17212856294960424]",100.0,"[0.09972084113169766,-0.08639090396273948]",4.0,"[-0.14697338027877643,0.07591917291212848]",4.0,"[-0.09143935651699275,-0.0838942031305229]",100.0,"[-0.007606401238909682,0.09433541903249039]",100.0,"[0.1492123746292949,-0.005976002259588948]",100.0,"[0.1394769025544028,0.05320615117033904]",4.0,"[0.0057389240066509604,-0.06707225420328593]",4.0,"[0.02,0.02]",170.5651,0.0,36.0,36.0,136.0,1.0,,,,,,,
,,,,,,,64971e71ba666687996c6072,68399d6d22dd632142dc7829,2025-05-30_13h58.49.349,shape_ratio,2024.1.5,Win32,60.24096386,683853e18dae57a2147b65e0,,,,,,,,,,,170.5657,171.0639,,,171.3147,171.3984,right,,,,,,,,0.1,0.0672,,,,,,,171.0639,171.3147,171.3984,"[-0.11862148717504417,0.05134052367205699]",4.0,"[0.10726182296182589,0.15811725845715793]",4.0,"[0.02704958100033799,0.17779257853765978]",4.0,"[0.13068211852729902,0.017681307378673662]",4.0,"[-0.09837099931658243,0.15579685010550692]",4.0,"[0.16714239391874933,0.04129599612661962]",100.0,"[0.05609184034990294,-0.16990990157511976]",4.0,"[-0.03833478433223145,0.08470842534124276]",100.0,"[0.036848411891968094,-0.006068842861283104]",4.0,"[0.10434829632375217,-0.16880993744425715]",4.0,"[-0.16739815148582418,-0.044335811352311294]",4.0,"[0.0029316020162928596,-0.036088252486638266]",4.0,"[-0.051887435438729625,-0.15588384714308154]",4.0,"[0.1923997276872873,-0.049410286685985585]",4.0,"[0.11158221548515918,-0.03004499065408592]",4.0,"[0.0010898834066963787,-0.10064428625796637]",4.0,"[-0.05722801646069686,0.19019734409291242]",4.0,"[0.04533955844931296,0.08418221213037824]",4.0,"[-0.04222380138995867,-0.10929229038912246]",4.0,"[-0.030740030628163557,-0.010874016353808188]",4.0,"[-0.14169178487746437,0.015212952494291842]",4.0,"[-0.09422182859310356,-0.03818569395040653]",4.0,"[0.00016112470815046956,0.09745830775116467]",4.0,"[0.1334856053134591,-0.133392892248179]",4.0,"[-0.18323623755851606,0.05146074036682889]",4.0,"[0.0830394134145168,-0.09988146591732328]",4.0,"[0.06426548390792185,-0.05520855863132898]",100.0,"[0.11121717518446307,0.06518504568205624]",4.0,"[-0.0031977326658582878,0.0484016610886064]",4.0,"[0.0652293846332769,0.15079369127304854]",4.0,"[-0.1251082424533876,-0.1029795786238843]",4.0,"[-0.14099421606633633,0.09849256238724846]",4.0,"[0.02,0.02]",172.4975,0.0,37.0,37.0,185.0,1.0,,,,,,,
,,,,,,,64971e71ba666687996c6072,68399d6d22dd632142dc7829,2025-05-30_13h58.49.349,shape_ratio,2024.1.5,Win32,60.24096386,683853e18dae57a2147b65e0,,,,,,,,,,,172.4982,172.9977,,,173.2482,173.3812,left,,,,,,,,0.4,0.1159,,,,,,,172.9977,173.2481,173.3812,"[-0.15640830309769088,-0.07102013809509651]",4.0,"[-0.07032950268295518,0.14480403487433324]",4.0,"[0.1554115649689069,0.02099810030480445]",4.0,"[0.013213388183930785,-0.0664089995116485]",100.0,"[-0.08441922427870964,-0.015792180491446144]",4.0,"[-0.08503859956387938,-0.0700516035968288]",100.0,"[-0.13832865355466972,0.015843924825162267]",4.0,"[0.024674734839141396,-0.009591831883637662]",4.0,"[0.002146884945970438,0.06340148526133199]",100.0,"[0.04098650473259996,-0.17376599119228842]",100.0,"[0.13226084966881016,0.08199499257106513]",4.0,"[-0.07673940608716463,-0.16508042919823612]",4.0,"[0.08883907168416946,-0.137150504565359]",100.0,"[0.03405670800686317,-0.1223451745211305]",4.0,"[-0.13094412205291925,0.1491440835466769]",4.0,"[0.07460427315725325,0.11130463356330737]",100.0,"[0.09071578926528565,-0.03192356686770842]",4.0,"[0.19694546752001857,-0.028997681496609487]",4.0,"[0.18321444310592008,0.06873576757768428]",4.0,"[-0.002029118388416631,0.16456677457121677]",100.0,"[0.1537551920044415,-0.12563821807651532]",4.0,"[0.1374630753579802,-0.04987962624266622]",100.0,"[-0.18344495732616203,-0.008676860826043428]",4.0,"[0.062475273348900455,0.06435685947293096]",100.0,"[0.08283758228883263,0.026526217711660933]",100.0,"[-0.05741823987643996,0.1854931752462325]",4.0,"[-0.1207364855993008,0.07339844563535763]",100.0,"[-0.037305542459455374,-0.07253265661849072]",4.0,"[-0.052074790949510764,0.06202603464754605]",4.0,"[-0.08616431772377732,-0.12276226648166344]",100.0,"[0.08969526047299034,0.15604623704159862]",4.0,"[-0.004452161999952574,0.10858386343212234]",100.0,"[0.02,0.02]",174.4807,0.0,38.0,38.0,172.0,1.0,,,,,,,
,,,,,,,64971e71ba666687996c6072,68399d6d22dd632142dc7829,2025-05-30_13h58.49.349,shape_ratio,2024.1.5,Win32,60.24096386,683853e18dae57a2147b65e0,,,,,,,,,,,174.4811,174.9807,,,175.2315,175.2648,right,,,,,,,,0.4,0.0188,,,,,,,174.9807,175.2314,175.2649,"[0.07984971220693643,-0.036828907547206476]",100.0,"[-0.10203927955456259,0.00016769844412302208]",4.0,"[-0.029187389196367687,-0.16878060018100277]",4.0,"[0.13522122859566776,-0.008185386411460726]",100.0,"[0.007053906543170169,0.1225385183535081]",100.0,"[0.13101471266064169,-0.0581423316777476]",100.0,"[0.1270115202279044,-0.11259815575896488]",4.0,"[0.002696154578979526,-0.13567775960484046]",4.0,"[0.11874128703332283,0.05598853493741713]",100.0,"[-0.029442651111913305,-0.08473266935127129]",4.0,"[-0.1880049092086663,-0.05548423516323913]",4.0,"[-0.05050264642808582,0.11839327316973274]",4.0,"[0.06412477704778624,0.13999180116479415]",4.0,"[-0.03481535555860817,0.07744309691730196]",4.0,"[0.18029721721485165,0.03919379190914522]",4.0,"[-0.12893055337439252,-0.07559089693964917]",100.0,"[-0.05304830960752293,-0.029737726507001225]",100.0,"[-0.015683420633015897,-0.013983549982455754]",4.0,"[0.17960270616314983,-0.044130489305918265]",4.0,"[0.14313290861569436,0.13446149974378432]",100.0,"[-0.14158980559076165,0.08162268166026924]",4.0,"[-0.11031192798233848,0.11989379074591087]",4.0,"[0.05552389887383924,0.09228520917810686]",100.0,"[0.044342657779518194,-0.11136866296524996]",4.0,"[-0.06117309376559595,-0.13934667399491724]",4.0,"[-0.11715826550746748,-0.1358782065590772]",100.0,"[0.010294274285981566,-0.0545027353625669]",4.0,"[0.030510307568255002,-0.19174393665308306]",100.0,"[-0.09312108248063682,-0.055909716877987084]",100.0,"[-0.15377540913631835,0.03597974489165844]",100.0,"[-0.004800929949827123,0.03897293440375624]",4.0,"[0.11386489417189892,0.09756002408804665]",4.0,"[0.02,0.02]",176.3643,0.0,39.0,39.0,168.0,1.0,,,,,,,
,,,,,,,64971e71ba666687996c6072,68399d6d22dd632142dc7829,2025-05-30_13h58.49.349,shape_ratio,2024.1.5,Win32,60.24096386,683853e18dae57a2147b65e0,,,,,,,,,,,176.3648,176.8646,,,177.1156,177.214,right,,,,,,,,0.6,0.0835,,,,,,,176.8646,177.1155,177.2141,"[0.14234059789443015,0.10596511795403035]",100.0,"[-0.07141634718040056,0.17913200333315285]",100.0,"[0.022049350798331244,0.07840515237120994]",100.0,"[0.03706158806988842,-0.11761558802587856]",100.0,"[0.09596696365072618,-0.11709686752644675]",4.0,"[-0.17055757941614536,-0.10306038556647429]",100.0,"[-0.12806315061794796,0.13143166643502474]",4.0,"[0.13413628192808452,0.020395013653184402]",4.0,"[0.02841799593299496,0.0018296590096859998]",100.0,"[-0.17604697246060783,-0.012822592928215224]",100.0,"[0.08920127275006061,0.0693340020508762]",4.0,"[0.00019515750869033007,0.031183418046132245]",4.0,"[-0.013415045517219469,-0.19273442264122329]",100.0,"[-0.03209241567326606,-0.05100698827641999]",4.0,"[0.016201487642822695,-0.07407784474205444]",100.0,"[-0.07512185526715352,0.07041114965279038]",100.0,"[-0.014887168047817442,0.1635967951678521]",100.0,"[0.06949111263537787,-0.1473835347764926]",4.0,"[-0.1637324104392531,0.10044241114852098]",4.0,"[0.05836434800868515,0.18672386511633884]",100.0,"[-0.04734041073750079,0.10599232551265779]",100.0,"[-0.12187579763991088,0.053280129847812774]",100.0,"[0.16774088415050178,-0.09912558159298775]",100.0,"[-0.14844765661480777,-0.042729427861886174]",100.0,"[-0.09694467453660312,0.006997118738591779]",4.0,"[-0.09488330043800984,-0.1512497717955026]",100.0,"[0.08725876661162313,-0.014546755879818692]",100.0,"[-0.10696588363068978,-0.03820772731406326]",100.0,"[0.1303179361739495,0.0670706891156556]",4.0,"[-0.055576860487331826,0.023485656148718104]",4.0,"[0.16257039626976483,-0.05242351207123098]",4.0,"[0.17299019054982712,0.07243040179225733]",4.0,"[0.02,0.02]",178.3146,0.0,40.0,40.0,48.0,1.0,,,,,,,
,,,,,,,64971e71ba666687996c6072,68399d6d22dd632142dc7829,2025-05-30_13h58.49.349,shape_ratio,2024.1.5,Win32,60.24096386,683853e18dae57a2147b65e0,,,,,,,,,,,178.3151,178.8139,,,179.0648,179.3141,left,,,,,,,,0.1,0.2379,,,,,,,178.814,179.0647,179.3142,"[-0.12641618349375902,-0.01171150191727142]",4.0,"[-0.07978192322584284,-0.07629587417111]",4.0,"[0.1663040628001415,0.0538153335340408]",4.0,"[0.11339087425986799,-0.02910151614290817]",4.0,"[-0.006279867174730364,0.04522387035880876]",4.0,"[-0.05228777359139729,-0.01983187135716673]",4.0,"[-0.1790787868307135,0.07876242175026929]",4.0,"[-0.1267615862008414,-0.13075343476097004]",100.0,"[0.05517958170492401,0.08975808533492065]",100.0,"[0.039401651096584896,-0.18201435226393473]",4.0,"[-0.011698848065613433,-0.19231342080600977]",4.0,"[-0.032843999780273934,-0.06651981106085432]",4.0,"[-0.019505753852804657,0.10844550668070155]",4.0,"[0.004400188900661162,0.16707269662774554]",4.0,"[-0.1517156893812588,-0.09164315226534943]",100.0,"[0.16063559816259315,-0.07667792742045679]",4.0,"[0.09813450810283698,-0.07835917190968059]",4.0,"[0.03242102808531161,0.02947076198494982]",4.0,"[-0.07040414211437959,-0.13118631954852705]",4.0,"[0.08026642007606967,0.17955946736739514]",4.0,"[-0.15104961202340217,0.028324301595222916]",4.0,"[0.18501237810738802,-0.016581427795843335]",4.0,"[-0.19670130125007826,0.017597287491916885]",4.0,"[0.04608007164767583,0.13809271275998677]",4.0,"[0.07761646844852318,-0.14899713864156877]",4.0,"[0.0685371210981092,0.048853930618820866]",4.0,"[0.012263179767046654,-0.1355556308103846]",4.0,"[-0.06823293873689551,0.1781853347497922]",4.0,"[-0.06625135846154219,0.13509199033668748]",4.0,"[0.13258708350812617,-0.11164465661091899]",4.0,"[0.02212609063157038,-0.07035714386408831]",4.0,"[0.05333249138052259,-0.1009967211544525]",4.0,"[0.02,0.02]",180.4144,0.0,41.0,41.0,204.0,1.0,,,,,,,
,,,,,,,64971e71ba666687996c6072,68399d6d22dd632142dc7829,2025-05-30_13h58.49.349,shape_ratio,2024.1.5,Win32,60.24096386,683853e18dae57a2147b65e0,,,,,,,,,,,180.4149,180.9145,,,181.1642,181.3976,right,,,,,,,,0.55,0.2187,,,,,,,180.9145,181.1642,181.3977,"[0.10360878241344491,-0.033165913036015765]",100.0,"[0.055001003127787204,-0.03003957774002119]",100.0,"[-0.13584634543905094,-0.0011221402141533472]",100.0,"[0.06337333497133447,0.043815385313076494]",4.0,"[-0.057126595280392344,-0.001369864235704032]",4.0,"[0.04863455402400709,0.18140697832057912]",100.0,"[0.018010723446467827,-0.05019288419327257]",100.0,"[0.03657491929185872,-0.1679308495947814]",100.0,"[-0.14132310177868088,-0.1163987476661862]",4.0,"[-0.07432274533321945,-0.14280009232040436]",4.0,"[0.08177523224070604,-0.07080708372124016]",4.0,"[0.0832828225138508,0.15238588014852827]",4.0,"[0.19764328288826133,-0.015243769568480142]",4.0,"[-0.08960758453867701,0.16941194614475802]",100.0,"[-0.12798279678749044,0.07861758317220137]",4.0,"[-0.10633581632725461,-0.05938542918740916]",4.0,"[0.15775431003313142,0.12135639242812514]",4.0,"[0.1528536653354669,0.04401347696666552]",100.0,"[0.05100196932355195,0.09161655950845676]",100.0,"[-0.002638353774030588,0.15849428735977097]",100.0,"[0.14838297696272537,-0.00972453784494976]",100.0,"[0.16719066739195712,-0.0779152819683594]",100.0,"[0.11258038369381779,-0.12405778524725175]",100.0,"[-0.1670519256030793,0.10917328190420346]",100.0,"[-0.01892396544763727,-0.1630427153991095]",100.0,"[-0.033086848269541023,0.030742304066733842]",4.0,"[-0.10978795925865863,0.11468177424367186]",4.0,"[-0.12088822464769602,0.03647865367296527]",4.0,"[-0.18125498115818103,0.007110656178889609]",100.0,"[0.0957964800528672,-0.16048381274854076]",100.0,"[-0.01869350112935749,-0.027658307783055343]",4.0,"[-0.07325912529448039,-0.08583191732402255]",100.0,"[0.02,0.02]",182.4972,0.0,42.0,42.0,61.0,1.0,,,,,,,
,,,,,,,64971e71ba666687996c6072,68399d6d22dd632142dc7829,2025-05-30_13h58.49.349,shape_ratio,2024.1.5,Win32,60.24096386,683853e18dae57a2147b65e0,,,,,,,,,,,182.4976,182.9976,,,183.247,183.3638,left,,,,,,,,0.55,0.1046,,,,,,,182.9976,183.2469,183.3638,"[0.13647035611380995,-0.08594869803660611]",100.0,"[0.18877717873208447,-0.060676493031701806]",100.0,"[0.018708257790450347,-0.17629898519679416]",100.0,"[0.09449036868927825,0.016224283503529408]",4.0,"[0.018315642615568593,0.07675266957526962]",4.0,"[-0.08646708845191056,0.1394244682647201]",100.0,"[-0.14093279011171586,-0.04523358004513636]",4.0,"[0.06042174963525639,0.14446125561062262]",100.0,"[0.04959840809803314,-0.058444243223732636]",100.0,"[-0.1301280307674409,0.025830698422834513]",4.0,"[0.11554855235036604,-0.12084801757844926]",4.0,"[0.13554994690061126,0.029042996535272755]",4.0,"[-0.007503846068771103,-0.12785679867123567]",100.0,"[-0.17535665713879162,0.014055485946769308]",100.0,"[-0.045478028788787025,-0.0650163996707859]",100.0,"[0.12147591214358422,-0.02408104222872834]",100.0,"[-0.04467360264569972,0.032990641032122514]",100.0,"[0.1674119436663429,0.09170348361709572]",100.0,"[0.11188808769011148,0.10471242439324623]",100.0,"[0.025068631811937102,0.11646460923133095]",100.0,"[-0.1764272089951674,0.054511607936158]",4.0,"[-0.12196633253806485,0.08083143008374533]",100.0,"[-0.06609799236131259,0.07749412246878334]",100.0,"[0.015149737952341626,-0.09236777868762605]",4.0,"[-0.0852883932449466,-0.03286870986524069]",4.0,"[0.008704791835714274,-0.026082417076421335]",4.0,"[0.009475260130975553,0.017215126277461763]",4.0,"[0.03152519823110297,0.19698305200603247]",100.0,"[-0.050784301983519756,0.1797963363553496]",4.0,"[0.06746104783260229,0.0676340742468969]",100.0,"[-0.15249666550414417,-0.09576897044262517]",4.0,"[0.18505997881844277,-0.006763136578578604]",4.0,"[0.02,0.02]",184.4632,0.0,43.0,43.0,60.0,1.0,,,,,,,
,,,,,,,64971e71ba666687996c6072,68399d6d22dd632142dc7829,2025-05-30_13h58.49.349,shape_ratio,2024.1.5,Win32,60.24096386,683853e18dae57a2147b65e0,,,,,,,,,,,184.4634,184.9643,,,185.2138,185.3477,right,,,,,,,,0.9,0.119,,,,,,,184.9643,185.2138,185.3477,"[0.15284665849781454,0.08318667241803666]",100.0,"[-0.1599036154837156,0.11730185191495406]",100.0,"[-0.03729689282655028,-0.11450924490938831]",100.0,"[-0.08925174552064047,-0.15048461032806815]",100.0,"[0.048233162880958115,0.0005026808057036918]",100.0,"[-0.02766628938411156,0.061028412867405776]",100.0,"[0.16506459779149144,-0.07708009443696087]",100.0,"[-0.03573025768073149,-0.16508689217102965]",4.0,"[-0.06207689345917451,-0.007179574182442887]",100.0,"[0.11594803762780245,-0.14320349503340574]",100.0,"[0.07324927613158601,0.05010473368242022]",100.0,"[-0.03714690150213311,0.10882611794435146]",100.0,"[-0.1200151944402927,0.14621071185109827]",100.0,"[0.15024792569311146,-0.11661127351456317]",100.0,"[0.037254041049252284,0.14335364508891035]",100.0,"[0.0565820041562903,-0.18142174362412863]",100.0,"[0.14906233533011332,-0.03156386668569419]",100.0,"[-0.12126815511923826,-0.08674149303379579]",4.0,"[-0.05296600846979283,0.18572579748825208]",4.0,"[-0.09260945063098397,0.05948020550459094]",100.0,"[-0.003719878772892044,-0.06359316448567733]",100.0,"[0.09530520508409976,0.01414503481656993]",100.0,"[-0.05411386717937643,-0.07237553770278976]",100.0,"[0.1621002170737836,0.03122220998774382]",100.0,"[0.012186594993501578,-0.13716421574382515]",100.0,"[0.1059547846989156,-0.06590879174388235]",100.0,"[-0.179507233748273,0.06710920107794549]",100.0,"[0.0072754119279737255,0.1759595451489371]",100.0,"[0.04780116865489567,-0.11166787536188955]",100.0,"[-0.1646648563903835,-0.06182651462214221]",100.0,"[-0.00896331897919222,-0.01979674941573589]",100.0,"[-0.1270742836826834,-0.0020861788492482197]",100.0,"[0.02,0.02]",186.4483,0.0,44.0,44.0,11.0,1.0,,,,,,,
,,,,,,,64971e71ba666687996c6072,68399d6d22dd632142dc7829,2025-05-30_13h58.49.349,shape_ratio,2024.1.5,Win32,60.24096386,683853e18dae57a2147b65e0,,,,,,,,,,,186.449,186.9463,,,187.1968,187.3638,right,,,,,,,,0.6,0.1508,,,,,,,186.9463,187.1968,187.3638,"[0.061778758906924386,-0.006701314371837694]",100.0,"[-0.0989566038954388,0.16550472787942863]",4.0,"[0.10187415781444327,0.100107200729462]",100.0,"[0.14639086816360514,0.12481728879070336]",100.0,"[-0.12057036114555839,0.05975334475376183]",4.0,"[0.03245078333961647,0.04228305632713091]",4.0,"[-0.07676578050815679,-0.18344804217814675]",100.0,"[-0.017995875713210988,-0.0815014953032262]",4.0,"[0.13934786308106098,-0.07216695302045245]",4.0,"[-0.17006165301129228,0.0884338267685164]",4.0,"[0.1035433541809965,-0.045288391434764055]",100.0,"[-0.01677574384880063,0.14488872124408403]",100.0,"[0.05203049074075856,0.1527307731827574]",4.0,"[0.0033987803108838912,-0.009724035494546129]",4.0,"[0.08426691358015956,-0.16542136772190408]",100.0,"[0.1475344704138078,0.010170888283700986]",100.0,"[0.11765280520964035,-0.13472467664149684]",100.0,"[-0.04193563668556553,-0.11814521184981806]",100.0,"[-0.10764446152092387,-0.1427411854696865]",100.0,"[-0.04893637480223334,-0.02686532723559748]",100.0,"[-0.0916707116246177,-0.05649116773549638]",4.0,"[0.03538130029301972,-0.05508972629545896]",100.0,"[-0.06136944081018472,0.14014498086814295]",100.0,"[0.1533991195963574,0.07872475437407345]",100.0,"[-0.025177868398841213,0.022923481823236235]",4.0,"[-0.0698473031754171,0.08645847145297227]",100.0,"[-0.10817770516151434,0.01699963900549514]",100.0,"[-0.10435651139621224,0.12214108948893057]",4.0,"[0.09473702240384504,0.1681465164133145]",4.0,"[-0.07967743575257734,-0.09572428590305568]",100.0,"[-0.1745537574579108,-0.09408448842787158]",100.0,"[0.02404028965964137,0.09849201545545413]",4.0,"[0.02,0.02]",188.4635,0.0,45.0,45.0,52.0,1.0,,,,,,,
,,,,,,,64971e71ba666687996c6072,68399d6d22dd632142dc7829,2025-05-30_13h58.49.349,shape_ratio,2024.1.5,Win32,60.24096386,683853e18dae57a2147b65e0,,,,,,,,,,,188.4638,188.9635,,,189.2141,189.5967,right,,,,,,,,0.55,0.3663,,,,,,,188.9635,189.2141,189.5967,"[-0.043087787244727074,0.0713644386537727]",4.0,"[0.07872572584495452,-0.17156170612021296]",100.0,"[-0.06617197919466698,-0.18784326756001055]",4.0,"[-0.08241655638831458,0.016831791278421073]",4.0,"[-0.03356117439388781,-0.013104708108078721]",100.0,"[-0.12161170657870718,-0.04393155380422053]",4.0,"[-0.11122599562764827,0.16566915366395527]",100.0,"[0.055008970481087605,0.015662074853478078]",100.0,"[0.11412977075265525,0.08300161139283081]",100.0,"[0.03312646383367164,0.10983038961034494]",100.0,"[0.010563202739581057,0.14306367815576637]",4.0,"[0.19056542962090803,-0.04631735294527578]",4.0,"[0.07415616600282947,-0.02055896476414599]",100.0,"[0.05649033308692159,-0.13572406147560911]",100.0,"[-0.08295044078746461,-0.10020535303893473]",100.0,"[-0.129722928215157,0.10091565092131215]",4.0,"[0.062478318896956694,0.08224759594665243]",4.0,"[0.02797839957140102,0.18170484608705142]",4.0,"[0.11038836195294445,-0.08501890801681518]",100.0,"[0.1429090694417901,0.014667659861166882]",100.0,"[0.09981040023222781,0.1625554891373388]",100.0,"[-0.05551098358295345,0.12331240636660655]",100.0,"[-0.17890909928934992,-0.03401737949091949]",4.0,"[-0.012375738938845677,-0.05955608870833224]",100.0,"[-0.08455311135623025,0.08893331795444163]",100.0,"[0.06362801753463598,-0.06124798780362158]",100.0,"[0.1369316452994306,0.12528472585189096]",100.0,"[-0.12427064424140631,0.006659382051635879]",4.0,"[-0.1571449824925745,-0.0698829485051008]",4.0,"[-0.03841112434992836,0.16089042303432277]",4.0,"[0.012058046279234924,-0.1746549179965713]",100.0,"[-0.001030684492459738,-0.12922522394208288]",4.0,"[0.02,0.02]",190.6967,0.0,46.0,46.0,81.0,1.0,,,,,,,
,,,,,,,64971e71ba666687996c6072,68399d6d22dd632142dc7829,2025-05-30_13h58.49.349,shape_ratio,2024.1.5,Win32,60.24096386,683853e18dae57a2147b65e0,,,,,,,,,,,190.6975,191.1974,,,191.4469,191.6969,left,,,,,,,,0.1,0.2345,,,,,,,191.1974,191.4469,191.6969,"[-0.011781683666654247,0.02511065118272433]",4.0,"[0.12578399154781278,0.004144672748395658]",4.0,"[-0.051494964665733764,0.08322736276418988]",4.0,"[-0.08175146617153695,-0.031454355971634956]",4.0,"[-0.09954449633342492,0.11223373444615285]",4.0,"[-0.13255997789776255,-0.1104287092825821]",4.0,"[-0.06298831335426025,0.15262843526167186]",4.0,"[0.045107517550611785,-0.0450596537173454]",4.0,"[-0.05055241348178813,0.012319592755122727]",4.0,"[0.030188448067601528,0.11314381306435035]",4.0,"[0.07590444083289839,-0.011626730077932215]",100.0,"[0.12511913310732597,0.08081175254169785]",4.0,"[-0.18460853644655753,-0.001969973338734203]",100.0,"[0.007057350731660695,-0.14719222042653593]",4.0,"[0.03782866526987976,0.036956681377932975]",4.0,"[0.057505621452644255,-0.11329583060055656]",4.0,"[-0.039678896359743324,-0.06784336792681268]",4.0,"[0.08202146456536358,-0.17175870352444886]",4.0,"[0.12422157889758113,-0.07907286021910077]",4.0,"[0.15448635607625247,0.1221122118975163]",4.0,"[-0.025432772392930594,-0.18050809289844372]",4.0,"[0.17814280050436182,0.03380550305795335]",4.0,"[0.11458880666684558,-0.12262948513647058]",4.0,"[0.09126466339942559,0.13804472924044864]",4.0,"[0.10631589036708748,0.04415231985733298]",4.0,"[0.15895289704142287,-0.10685333195841762]",4.0,"[-0.06704221336945955,-0.09992400842013197]",4.0,"[-0.16388603675710328,0.1023564409636693]",4.0,"[-0.17164488544563516,-0.053863643231790534]",100.0,"[-0.13054511518396233,-0.006014113627988844]",4.0,"[0.07751989786126576,0.07369807682388993]",4.0,"[-0.0100899287821033,0.19853950145143542]",4.0,"[0.02,0.02]",192.7972,0.0,47.0,47.0,201.0,1.0,,,,,,,
,,,,,,,64971e71ba666687996c6072,68399d6d22dd632142dc7829,2025-05-30_13h58.49.349,shape_ratio,2024.1.5,Win32,60.24096386,683853e18dae57a2147b65e0,,,,,,,,,,,192.7977,193.2971,,,193.5467,193.7305,right,,,,,,,,0.9,0.1675,,,,,,,193.2971,193.5467,193.7306,"[0.06283425056113073,0.1364392378644358]",100.0,"[-0.12174139297361283,-0.12735003051858185]",100.0,"[-0.09843128058913893,-0.0928097393211918]",100.0,"[-0.05701339201919821,-0.0991317684319578]",100.0,"[0.032559525430408624,0.0905347988100197]",100.0,"[-0.08690812043810507,0.13122558705390722]",100.0,"[-0.0029163956588951906,-0.0634752895994452]",100.0,"[0.09977005441913592,0.10469815218247873]",100.0,"[0.11983772405303911,0.13958297718127782]",100.0,"[0.07981976128285447,-0.007938899947806633]",4.0,"[0.11808393760996494,-0.14833191945974378]",100.0,"[0.006485237131941712,-0.11008829504637933]",100.0,"[-0.039559526899830326,0.06142675480349297]",100.0,"[0.011710475825926284,-0.19920993202867454]",100.0,"[0.024897427665433323,0.008406297116970139]",100.0,"[0.16747216864402398,0.05393936013769592]",100.0,"[-0.18502879358812185,0.03328979272969552]",100.0,"[-0.12910714968437373,0.14323847352646593]",100.0,"[-0.1594838405971038,-0.09622928327006598]",100.0,"[-0.06114974829948565,-0.03733747547581523]",4.0,"[-0.09099806210898924,0.054876558427705]",100.0,"[0.07720326543887575,0.1782736715078936]",100.0,"[0.17231531115134477,-0.002349737477486144]",4.0,"[0.1100776180226891,-0.08284349966245469]",100.0,"[-0.04834152456496465,0.17467435959556946]",100.0,"[-0.12692117980574694,-0.010051195202247393]",100.0,"[0.028066206905959536,-0.14513698052866286]",100.0,"[0.021402164812936414,0.17896621275748667]",100.0,"[-0.04151959378277046,0.12831964200278154]",100.0,"[-0.17322883344267978,0.08562093003964352]",100.0,"[0.10039372441768976,0.061362917634200854]",100.0,"[-0.05115425568715861,-0.15480950319619308]",100.0,"[0.02,0.02]",194.8301,0.0,48.0,48.0,6.0,1.0,,,,,,,
,,,,,,,64971e71ba666687996c6072,68399d6d22dd632142dc7829,2025-05-30_13h58.49.349,shape_ratio,2024.1.5,Win32,60.24096386,683853e18dae57a2147b65e0,,,,,,,,,,,194.8304,195.3305,,,195.5798,195.6971,right,,,,,,,,0.55,0.1019,,,,,,,195.3306,195.5798,195.6971,"[0.04681010549318563,0.06788637661033665]",100.0,"[-0.03274167097850948,-0.009870719167059287]",4.0,"[0.15160964950186143,-0.08721457403781807]",4.0,"[0.09519201931337001,0.0634859851355652]",4.0,"[0.13163374337161524,0.08331396968531762]",4.0,"[0.1564314795869974,0.016617599705118495]",4.0,"[-0.029333517538932517,0.13564209396058038]",4.0,"[-0.14090488342108462,-0.06038580448040899]",100.0,"[-0.1442716461614921,0.01693129059011641]",100.0,"[0.02782702345615167,0.17997051394375946]",100.0,"[-0.03426681316988768,-0.1435887597858371]",100.0,"[-0.028313787059626516,-0.10269234198795546]",100.0,"[0.1052809840037633,0.0148230934194205]",100.0,"[-0.12938812966036328,0.08412290751588221]",4.0,"[0.06115619004468732,0.1402972977744452]",100.0,"[0.11115226356435128,-0.03644555487251197]",4.0,"[0.033824783153245795,-0.13963834065546415]",100.0,"[-0.13117504875802288,0.14541206849362626]",4.0,"[0.13005223545754538,0.12538067700998673]",4.0,"[-0.07140295211216542,-0.03073678550425687]",100.0,"[-0.08725773543584275,0.15866432635552877]",100.0,"[-0.11694126228550208,-0.019519658889857294]",100.0,"[-0.10085565994947698,-0.1123786225694308]",100.0,"[-0.107211806758323,-0.16493174682462364]",4.0,"[0.07854881240452595,-0.16112188379027648]",100.0,"[0.003141023130332117,0.025257883714264732]",100.0,"[0.05755503856240901,-0.09569544827764757]",4.0,"[-0.11364225361761993,0.04427197931570034]",100.0,"[-0.03630729796988854,0.05280186170105779]",100.0,"[0.19524879430250383,0.039824421859260266]",4.0,"[0.005231730294367929,0.08033023561893654]",100.0,"[-0.1956604868384961,-0.009307701245377884]",4.0,"[0.02,0.02]",196.7969,0.0,49.0,49.0,69.0,1.0,,,,,,,
