right,left,explain.started,explain.stopped,key_resp_3.keys,key_resp_3.rt,key_resp_3.duration,participant,session,date,expName,psychopyVersion,OS,frameRate,study_id,explain_2.started,explain_2.stopped,key_resp_4.keys,key_resp_4.rt,key_resp_4.duration,explain_3.started,explain_3.stopped,key_resp_5.keys,key_resp_5.rt,key_resp_5.duration,fixation.started,fixation.stopped,practice.started,practice.stopped,response.started,response.stopped,key_resp.keys,feedback.started,feedback.stopped,trials_2.thisRepN,trials_2.thisTrialN,trials_2.thisN,trials_2.thisIndex,trials_2.ran,dot_ratio,explain_4.started,explain_4.stopped,key_resp_6.keys,key_resp_6.rt,key_resp_6.duration,dotDisplay.started,dotDisplay.stopped,key_resp.rt,key_resp.duration,ITI.started,polygon_1.pos,polygon_1.edges,polygon_2.pos,polygon_2.edges,polygon_3.pos,polygon_3.edges,polygon_4.pos,polygon_4.edges,polygon_5.pos,polygon_5.edges,polygon_6.pos,polygon_6.edges,polygon_7.pos,polygon_7.edges,polygon_8.pos,polygon_8.edges,polygon_9.pos,polygon_9.edges,polygon_10.pos,polygon_10.edges,polygon_11.pos,polygon_11.edges,polygon_12.pos,polygon_12.edges,polygon_13.pos,polygon_13.edges,polygon_14.pos,polygon_14.edges,polygon_15.pos,polygon_15.edges,polygon_16.pos,polygon_16.edges,polygon_17.pos,polygon_17.edges,polygon_18.pos,polygon_18.edges,polygon_19.pos,polygon_19.edges,polygon_20.pos,polygon_20.edges,polygon_21.pos,polygon_21.edges,polygon_22.pos,polygon_22.edges,polygon_23.pos,polygon_23.edges,polygon_24.pos,polygon_24.edges,polygon_25.pos,polygon_25.edges,polygon_26.pos,polygon_26.edges,polygon_27.pos,polygon_27.edges,polygon_28.pos,polygon_28.edges,polygon_29.pos,polygon_29.edges,polygon_30.pos,polygon_30.edges,polygon_31.pos,polygon_31.edges,polygon_32.pos,polygon_32.edges,dot_size,ITI.stopped,trials.thisRepN,trials.thisTrialN,trials.thisN,trials.thisIndex,trials.ran,break_2.started,break_2.stopped,trials_3.thisRepN,trials_3.thisTrialN,trials_3.thisN,trials_3.thisIndex,trials_3.ran
subject chose diamond,subject chose dot,0.001,66.03,space,50.891,0.099,64b4c078aeb3a03a356ce3b2,6844292707843a64e1c81f3c,2025-06-07_13h58.47.957,shape_ratio,2024.1.5,Win32,29.94011976,684250e4f00cb30b92d1fa88,,,,,,,,,,,,,,,,,,,,,,,,,,,,,,,,,,,,,,,,,,,,,,,,,,,,,,,,,,,,,,,,,,,,,,,,,,,,,,,,,,,,,,,,,,,,,,,,,,,,,,,,,,,,,,,,,
,,,,,,,64b4c078aeb3a03a356ce3b2,6844292707843a64e1c81f3c,2025-06-07_13h58.47.957,shape_ratio,2024.1.5,Win32,29.94011976,684250e4f00cb30b92d1fa88,66.03,98.266,space,2.204,,,,,,,,,,,,,,,,,,,,,,,,,,,,,,,,,,,,,,,,,,,,,,,,,,,,,,,,,,,,,,,,,,,,,,,,,,,,,,,,,,,,,,,,,,,,,,,,,,,,,,,,,,,,,
,,,,,,,64b4c078aeb3a03a356ce3b2,6844292707843a64e1c81f3c,2025-06-07_13h58.47.957,shape_ratio,2024.1.5,Win32,29.94011976,684250e4f00cb30b92d1fa88,,,,,,98.267,108.516,space,7.224,,,,,,,,,,,,,,,,,,,,,,,,,,,,,,,,,,,,,,,,,,,,,,,,,,,,,,,,,,,,,,,,,,,,,,,,,,,,,,,,,,,,,,,,,,,,,,,,,,,,,,,,
,,,,,,,64b4c078aeb3a03a356ce3b2,6844292707843a64e1c81f3c,2025-06-07_13h58.47.957,shape_ratio,2024.1.5,Win32,29.94011976,684250e4f00cb30b92d1fa88,,,,,,,,,,,108.623,109.019,109.02,109.292,109.292,110.777,,110.777,111.878,0.0,0.0,0.0,1.0,1.0,0.8,,,,,,,,,,,,,,,,,,,,,,,,,,,,,,,,,,,,,,,,,,,,,,,,,,,,,,,,,,,,,,,,,,,,,,,,,,,,,,,,,,,,,,,,
,,,,,,,64b4c078aeb3a03a356ce3b2,6844292707843a64e1c81f3c,2025-06-07_13h58.47.957,shape_ratio,2024.1.5,Win32,29.94011976,684250e4f00cb30b92d1fa88,,,,,,,,,,,111.879,112.368,112.368,112.615,112.615,114.096,,114.096,115.181,0.0,1.0,1.0,0.0,1.0,0.2,,,,,,,,,,,,,,,,,,,,,,,,,,,,,,,,,,,,,,,,,,,,,,,,,,,,,,,,,,,,,,,,,,,,,,,,,,,,,,,,,,,,,,,,
,,,,,,,64b4c078aeb3a03a356ce3b2,6844292707843a64e1c81f3c,2025-06-07_13h58.47.957,shape_ratio,2024.1.5,Win32,29.94011976,684250e4f00cb30b92d1fa88,,,,,,,,,,,,,,,,,,,,,,,,,,115.181,118.821,space,0.619,,,,,,,,,,,,,,,,,,,,,,,,,,,,,,,,,,,,,,,,,,,,,,,,,,,,,,,,,,,,,,,,,,,,,,,,,,,,,,,,,,,,
,,,,,,,64b4c078aeb3a03a356ce3b2,6844292707843a64e1c81f3c,2025-06-07_13h58.47.957,shape_ratio,2024.1.5,Win32,29.94011976,684250e4f00cb30b92d1fa88,,,,,,,,,,,118.865,119.338,,,119.566,120.793,left,,,,,,,,0.55,,,,,,119.34,119.566,1.196,,120.795,"[0.11450344908385847,-0.06594917705991249]",4.0,"[0.1428899162096382,0.006877632900544658]",4.0,"[0.1396536421234078,-0.12395710780295502]",100.0,"[-0.13784811757635135,-0.09843330016926026]",4.0,"[-0.024490624560142706,0.18181339375020705]",4.0,"[-0.14440775021818184,0.0906399053913154]",100.0,"[-0.08347640533883208,-0.019568657825618025]",4.0,"[0.0024732629815890257,-0.19354706816148615]",100.0,"[-0.03971042862654063,-0.14630702206861004]",100.0,"[0.059595326692793535,-0.1539221494155026]",4.0,"[0.06052703443315237,-0.03879922408328542]",100.0,"[0.04987572790868808,0.16942098273270267]",100.0,"[0.12002537582676912,0.06633811859445082]",100.0,"[-0.10399797270990577,0.08655547651415726]",4.0,"[-0.02534555942341999,0.019273677714365188]",4.0,"[-0.08064179303415152,-0.08111656754342143]",100.0,"[0.17363797495717972,0.05510469794220659]",100.0,"[0.0065779632303881105,0.06568889030441348]",100.0,"[-0.022120616854686755,-0.055900573066096686]",100.0,"[-0.06881310220233065,-0.17869372812939055]",100.0,"[0.07783672818919726,0.0474590055825476]",4.0,"[-0.08634195091892302,0.1334664151943145]",4.0,"[-0.15991681527492932,-0.00021965046312080383]",100.0,"[0.0030031542805948226,0.12284798519131396]",100.0,"[0.05516239354702336,0.12118745617136736]",4.0,"[0.15534894455314932,-0.04480929872665612]",100.0,"[-0.038309592546547526,0.1111260439594686]",4.0,"[0.10234341580642305,0.1568520247960058]",100.0,"[-0.1931558325477453,0.022266389661919236]",100.0,"[0.0880993436520317,0.09830662258189488]",100.0,"[-0.06454612964556314,0.04964382830331097]",4.0,"[-0.1165134686291089,0.16088495103015793]",4.0,"[0.02,0.02]",121.897,0.0,0.0,0.0,63.0,1.0,,,,,,,
,,,,,,,64b4c078aeb3a03a356ce3b2,6844292707843a64e1c81f3c,2025-06-07_13h58.47.957,shape_ratio,2024.1.5,Win32,29.94011976,684250e4f00cb30b92d1fa88,,,,,,,,,,,121.898,122.397,,,122.647,123.914,left,,,,,,,,0.9,,,,,,122.397,122.647,1.233,,123.914,"[0.08950019498183938,0.05283425187924705]",100.0,"[-0.0479932377589491,0.15673766205374437]",100.0,"[-0.013581235339684118,-0.17412627204278217]",100.0,"[-0.12138347651798116,-0.02411607078236336]",100.0,"[0.046749258270851905,0.04816521274553382]",4.0,"[0.06138097504822016,-0.0007671656720736425]",100.0,"[0.16771329759860834,-0.04900866932676818]",4.0,"[-0.03829425770296825,-0.11040941698804144]",100.0,"[0.09742105624914581,0.09537513809803291]",100.0,"[-0.1936077828313401,-0.034532827408756975]",100.0,"[0.034005322684368816,-0.10866862472285327]",100.0,"[0.1289701205172692,-0.08032337366535011]",100.0,"[-0.08520686017820565,0.020936663151405768]",100.0,"[0.12570914677732606,-0.017123703696233766]",100.0,"[-0.013456040175593492,0.0715696949292334]",100.0,"[0.09454481494399797,-0.05688999570299978]",4.0,"[0.18841556639620183,0.06196108240251439]",100.0,"[0.04012979973694642,0.13488403435965507]",100.0,"[-0.09499372329059547,-0.10483022117903197]",100.0,"[-0.07238222948723566,0.07668432439703761]",100.0,"[-0.03843106909915694,0.10776510579372277]",100.0,"[0.05992581790178328,-0.1886033575133139]",100.0,"[-0.11820584864659572,0.062490459177841726]",100.0,"[-0.15482786827298256,-0.055835409185607976]",100.0,"[0.14125959048397582,-0.13614510953174772]",100.0,"[-0.019972391741417874,0.02356574674354711]",100.0,"[-0.18652235781734805,0.06309261063454875]",100.0,"[-0.07262108456347055,-0.1760328842007739]",100.0,"[0.1231555745103853,0.13009292459449198]",100.0,"[-0.14904026340856458,0.1257411984866616]",100.0,"[-0.15582143684095773,-0.12212058244092096]",100.0,"[0.0006341220016285117,-0.024388838931129864]",100.0,"[0.02,0.02]",125.005,0.0,1.0,1.0,6.0,1.0,,,,,,,
,,,,,,,64b4c078aeb3a03a356ce3b2,6844292707843a64e1c81f3c,2025-06-07_13h58.47.957,shape_ratio,2024.1.5,Win32,29.94011976,684250e4f00cb30b92d1fa88,,,,,,,,,,,125.006,125.486,,,125.727,127.211,right,,,,,,,,0.4,,,,,,125.486,125.727,1.454,,127.211,"[0.09545689837465067,-0.046060316485190864]",100.0,"[0.09283345316563492,0.08092235259697897]",4.0,"[-0.06368401822657178,-0.08461441847700134]",4.0,"[-0.04617618692847811,-0.011059270460867921]",4.0,"[-0.025122155852785096,0.13671367455984215]",100.0,"[0.05533988451546063,0.16528443073445337]",4.0,"[0.1907740182906227,0.0466688496241817]",4.0,"[0.056221382581145625,-0.13036124541233646]",100.0,"[0.04351202282114433,-0.02819211084146584]",100.0,"[-0.1950579523068305,-0.02864891892813696]",100.0,"[0.08900028623050807,-0.16838599326439352]",4.0,"[-0.12680507121485435,-0.09670072906133999]",100.0,"[-0.05550976190143001,0.06756160621215385]",4.0,"[-0.07986461833335072,-0.12578061246277894]",4.0,"[0.12928483054713913,0.12204948656394626]",4.0,"[-0.003288233199907038,-0.08278119809866331]",4.0,"[0.02827363704550154,0.12738599539239287]",100.0,"[-0.10953469758866725,0.12895023989061766]",100.0,"[0.10804277636248034,0.035180489605424255]",4.0,"[-0.032358647160363956,-0.12364700875369507]",100.0,"[0.10725223165306597,-0.11411726533548329]",4.0,"[-0.11144798067261348,-0.03743499851582403]",100.0,"[0.13650737029875473,-0.04357015219386906]",4.0,"[0.17999316961144837,-0.026252624132063168]",4.0,"[0.0460431382737476,0.08915571687234537]",4.0,"[-0.1742081212613178,0.020937206885375897]",100.0,"[-0.10020796812453388,0.04978837049616305]",4.0,"[0.04175574229176957,-0.08390635356480843]",4.0,"[0.08208931145154452,0.1280094854746962]",100.0,"[-0.17556853251958726,-0.07344742765047332]",4.0,"[0.06832751305144405,0.013818841394937845]",100.0,"[0.13958183778472258,0.00739541787777822]",4.0,"[0.02,0.02]",128.326,0.0,2.0,2.0,170.0,1.0,,,,,,,
,,,,,,,64b4c078aeb3a03a356ce3b2,6844292707843a64e1c81f3c,2025-06-07_13h58.47.957,shape_ratio,2024.1.5,Win32,29.94011976,684250e4f00cb30b92d1fa88,,,,,,,,,,,128.326,128.805,,,129.051,130.254,left,,,,,,,,0.55,,,,,,128.807,129.051,1.171,,130.254,"[-0.014432741980032653,0.022514944761204723]",4.0,"[0.011289509437150333,0.09180592749320293]",100.0,"[-0.08442618405283131,0.04974266904454682]",100.0,"[0.03341247828750155,-0.056277271395599855]",100.0,"[-0.061557611487692544,-0.10451601626153478]",100.0,"[0.0813968967933094,-0.06562108031914007]",100.0,"[-0.022797970144034993,0.19074497342114732]",4.0,"[-0.01819397647994847,-0.13945981862912973]",4.0,"[0.11669255333277624,0.1261069251165555]",100.0,"[0.09595068880873547,0.046528441633190955]",100.0,"[0.14825757282071997,0.08950061397135427]",4.0,"[-0.14499420963155904,-0.021640412871150518]",100.0,"[-0.13749074459490293,0.06232490332572838]",4.0,"[0.10109358077794338,0.17180000888903504]",100.0,"[0.09654817568699424,-0.002334746023921082]",100.0,"[0.03367500597204036,0.19581414969412386]",100.0,"[0.1376210995438452,-0.09543205329099065]",100.0,"[-0.06597440252644919,-0.03193893254058969]",100.0,"[-0.06705104523274599,-0.15303702959008222]",4.0,"[0.017970549586536055,-0.11182947825894182]",4.0,"[0.10050322648950208,-0.15595781588369978]",100.0,"[0.031019506201888328,-0.1720290415522013]",4.0,"[-0.10394913350597218,0.1371074399183246]",4.0,"[0.1674786287198784,0.01434129965978323]",4.0,"[-0.1883360866466276,-0.03524321526502278]",100.0,"[-0.1881794261081541,0.03758830003736567]",4.0,"[-0.16906230742821624,-0.09351118105069191]",4.0,"[-0.01270446480798817,-0.055784446985175]",4.0,"[-0.12361373522639343,-0.14010070025231544]",4.0,"[0.061135692480568694,0.10770986297719547]",100.0,"[0.18541828068681512,-0.04464537926142563]",100.0,"[-0.09456142401042332,0.08986284196124382]",100.0,"[0.02,0.02]",131.357,0.0,3.0,3.0,85.0,1.0,,,,,,,
,,,,,,,64b4c078aeb3a03a356ce3b2,6844292707843a64e1c81f3c,2025-06-07_13h58.47.957,shape_ratio,2024.1.5,Win32,29.94011976,684250e4f00cb30b92d1fa88,,,,,,,,,,,131.357,131.837,,,132.074,133.004,right,,,,,,,,0.1,,,,,,131.837,132.074,0.899,,133.004,"[0.1974766225016332,0.01607634749858975]",4.0,"[0.021206598115617988,-0.1411063944394997]",100.0,"[0.012358693480506834,0.15970040617782016]",4.0,"[-0.04853593929146064,-0.15958781530612665]",4.0,"[0.056065148669527,0.1741980552082663]",4.0,"[-0.12434146479565898,-0.0834306121034525]",4.0,"[-0.04906608472018555,0.04649061915578538]",4.0,"[0.058421068514848254,0.03937840158151269]",100.0,"[-0.009630411695805008,0.03724452038496171]",4.0,"[0.0791151637191315,0.07532142319134554]",4.0,"[0.14906306423113347,-0.06176129605892751]",4.0,"[-0.14899468471582378,0.06450614460797152]",4.0,"[-0.15934303389088317,0.017836507517461152]",4.0,"[-0.15094096604149773,0.10792195089780585]",4.0,"[0.021987093673152533,-0.10083614896252341]",4.0,"[-0.016700987648819197,-0.193743794794675]",4.0,"[0.06002131368845139,-0.1278804621050813]",4.0,"[-0.10358163171931754,-0.1411300178090495]",4.0,"[0.027970231889250918,-0.017157077966905503]",4.0,"[-0.049996985626235675,-0.06204843341383753]",100.0,"[0.07852072751510968,0.12956063014137473]",4.0,"[-0.0636651008246753,-0.007680410729380105]",4.0,"[-0.0933654753361196,0.06191194163306694]",4.0,"[0.015643501632433332,0.11959939944201807]",4.0,"[-0.08127520588530925,-0.08991897794044973]",4.0,"[0.15952154448401923,0.04025792146223308]",4.0,"[0.15422634332587368,0.08259198853785953]",4.0,"[-0.1936575940387483,-0.015451245491340294]",4.0,"[-0.15209379384516167,-0.0439499341591639]",4.0,"[0.11627437784383284,0.1547964726198104]",4.0,"[0.11505386797459888,0.09441559588296501]",4.0,"[0.09457240041988269,0.016450061323069483]",4.0,"[0.02,0.02]",134.095,0.0,4.0,4.0,197.0,1.0,,,,,,,
,,,,,,,64b4c078aeb3a03a356ce3b2,6844292707843a64e1c81f3c,2025-06-07_13h58.47.957,shape_ratio,2024.1.5,Win32,29.94011976,684250e4f00cb30b92d1fa88,,,,,,,,,,,134.096,134.578,,,134.819,135.701,right,,,,,,,,0.45,,,,,,134.58,134.819,0.85,,135.701,"[-0.11784784652047174,-0.039541144341648]",100.0,"[0.19718149156413237,-0.031820634834772696]",4.0,"[-0.014246091812871136,-0.05720402403248881]",100.0,"[-0.06350986556467669,-0.11274129421983706]",4.0,"[-0.03996145494412902,-0.15977251146031363]",4.0,"[0.06466873864267468,0.06818591228004516]",4.0,"[0.07082866168280098,0.13374196256005347]",4.0,"[0.1707270690574054,-0.08019804802422466]",100.0,"[-0.06475870904926222,0.1323607880921275]",4.0,"[0.12753947454692816,-0.055207428275920595]",4.0,"[0.014115420308996218,-0.19585891203996053]",4.0,"[-0.02874386767175808,0.1633556103336124]",4.0,"[-0.1654575320249687,-0.04263055185770983]",4.0,"[0.17318975088781813,0.06782701316213485]",100.0,"[0.1330905991493269,-0.10062507481674483]",100.0,"[0.11827286535144138,0.04644236305404262]",100.0,"[-0.10339256581959937,0.1430878597265106]",4.0,"[-0.05396268933424822,-0.009917470610977601]",100.0,"[-0.14838704083844942,-0.10572373294388668]",4.0,"[0.13690684419538435,0.1333407165480382]",100.0,"[0.033482945397735116,0.18829183001711888]",100.0,"[-0.058481068412103626,0.030039448764145105]",100.0,"[-0.11523456618038662,0.08308563620156427]",4.0,"[-0.10671613260751367,-0.10151301787929905]",4.0,"[0.0966002601786437,-0.1726425178391093]",100.0,"[0.05559349900797783,-0.09316604829981667]",100.0,"[-0.17759647063055378,0.0024343696059109347]",4.0,"[0.026893015894507283,0.028590151076946797]",4.0,"[-0.1287232170027321,0.026502755279232623]",4.0,"[0.023119372054483806,-0.1283325600910538]",4.0,"[0.020626078833514954,0.13680492975810188]",100.0,"[-0.1801655170748569,0.06084471564004406]",100.0,"[0.02,0.02]",136.798,0.0,5.0,5.0,146.0,1.0,,,,,,,
,,,,,,,64b4c078aeb3a03a356ce3b2,6844292707843a64e1c81f3c,2025-06-07_13h58.47.957,shape_ratio,2024.1.5,Win32,29.94011976,684250e4f00cb30b92d1fa88,,,,,,,,,,,136.798,137.285,,,137.521,138.627,right,,,,,,,,0.5,,,,,,137.285,137.521,1.075,,138.627,"[0.12576077765111,-0.10912678313441034]",100.0,"[0.12158345368641245,0.011927364575856103]",4.0,"[-0.03111505079891729,0.019618131760342914]",100.0,"[0.02927000197681909,-0.18453353695050317]",4.0,"[0.03743236055472382,-0.027084183368189914]",100.0,"[-0.10535869912413878,-0.043455027668223116]",100.0,"[-0.0630640848539006,0.07683489907901869]",4.0,"[-0.11597424438389277,0.07525034578283002]",100.0,"[0.17478537306031552,0.02424284296035801]",100.0,"[-0.17511482430107153,-0.0683148300513302]",100.0,"[0.08183686824389477,0.14972816143733333]",4.0,"[0.009224072648126377,0.01345146300918128]",4.0,"[-0.12938965814211148,0.11407962112397897]",100.0,"[-0.01042751527410536,-0.032930353446447895]",4.0,"[-0.018916221320739238,0.1563940399900099]",100.0,"[0.14011818466266943,0.07053809011059782]",4.0,"[-0.11168289442638164,-0.10670861277962006]",100.0,"[-0.16900671265124365,0.08874768986383838]",4.0,"[0.08217028987178036,0.10664885274946263]",4.0,"[-0.069643227770895,-0.09371692858973515]",100.0,"[-0.11773401424987584,-0.1524651820588383]",100.0,"[0.14383792379218893,-0.0643199414406993]",4.0,"[-0.02682203731459621,-0.19076069508577834]",4.0,"[-0.061887280899107215,0.18895079553469935]",4.0,"[-0.08249344921636868,0.14812891527937033]",100.0,"[0.04757055568962663,0.04923853964037605]",4.0,"[-0.0019053025768644455,0.11598769580934379]",100.0,"[0.06388160517507079,-0.08063284077596924]",100.0,"[0.010334152750856545,-0.13910581242740486]",4.0,"[0.07834981053488788,-0.035349804062049]",4.0,"[-0.19042679882264174,0.02899835586550067]",100.0,"[-0.044434316968783874,-0.13381820259251007]",4.0,"[0.02,0.02]",139.724,0.0,6.0,6.0,113.0,1.0,,,,,,,
,,,,,,,64b4c078aeb3a03a356ce3b2,6844292707843a64e1c81f3c,2025-06-07_13h58.47.957,shape_ratio,2024.1.5,Win32,29.94011976,684250e4f00cb30b92d1fa88,,,,,,,,,,,139.724,140.236,,,140.479,141.802,right,,,,,,,,0.4,,,,,,140.238,140.479,1.293,,141.802,"[0.06583812249974116,-0.0474074031912459]",100.0,"[0.010475176969272172,-0.12406664049547698]",4.0,"[0.05515380067186094,0.038314513311705385]",100.0,"[0.0047823945590095744,-0.04824127744179218]",100.0,"[-0.15181373154459527,-0.10235616848980732]",4.0,"[0.12186799649799968,-0.0843692566805786]",4.0,"[0.1779190315848215,0.013384758027113478]",4.0,"[0.1643366301207714,-0.02853117709615124]",4.0,"[0.11581864504700468,-0.010879605965171025]",4.0,"[-0.10873694574928931,0.012599621907456247]",4.0,"[-0.023255265972463517,0.15402488425017663]",100.0,"[-0.15323749203257905,0.03777957792013964]",100.0,"[0.036392946105865284,0.13921084080437532]",100.0,"[0.026231918773703268,0.19023757700194302]",4.0,"[0.1518367267876158,0.12916664062851652]",4.0,"[-0.0584806043497616,0.003535988470739163]",4.0,"[0.052178789195360294,-0.1854725890709409]",100.0,"[-0.07928363485713465,-0.10972883813649215]",4.0,"[0.0019599702306006693,-0.17027844561733557]",100.0,"[-0.15869859149755183,-0.02869500644549222]",100.0,"[-0.046074211384842634,-0.052353956054462795]",4.0,"[-0.037862609813757504,0.048174777081379426]",4.0,"[0.07135934128888106,0.1836038309701636]",4.0,"[0.012799816714921594,-0.0026484601595498855]",4.0,"[0.13810133860745596,0.03592337219148325]",4.0,"[-0.1075114925545668,-0.03780098390374703]",100.0,"[0.05771522900150452,0.08178404791502948]",100.0,"[-0.1745446496795045,0.08361285447109747]",4.0,"[-0.0549265543968018,-0.1892549413042466]",4.0,"[-0.12765427428703127,0.11168398597582921]",100.0,"[0.003962270980907189,0.04031635559560463]",100.0,"[0.10275204177770651,0.05477985839174624]",4.0,"[0.02,0.02]",142.902,0.0,7.0,7.0,168.0,1.0,,,,,,,
,,,,,,,64b4c078aeb3a03a356ce3b2,6844292707843a64e1c81f3c,2025-06-07_13h58.47.957,shape_ratio,2024.1.5,Win32,29.94011976,684250e4f00cb30b92d1fa88,,,,,,,,,,,142.902,143.394,,,143.62,144.287,left,,,,,,,,0.6,,,,,,143.394,143.62,0.634,,144.289,"[0.09059096561915048,0.10780866465970655]",4.0,"[0.17388584727281883,0.015400526615228746]",100.0,"[0.08853364992701919,-0.118101721845817]",4.0,"[0.0717305107839795,-0.03307311246246674]",100.0,"[0.018242453978244307,0.09720578346586722]",4.0,"[0.05865482273167889,0.06679907006267558]",100.0,"[-0.13414311212876734,0.005707894842160514]",100.0,"[-0.026283143040944038,0.09206058884879523]",4.0,"[-0.06564265995876332,-0.15178412074103115]",100.0,"[-0.08728937409484958,0.17067285083853956]",100.0,"[0.1325419972167486,0.14190901538937362]",4.0,"[-0.01950239926032591,-0.06437002553569866]",100.0,"[0.1542606684930143,-0.06507144251680075]",4.0,"[-0.18088784697128263,-0.04038151077631686]",100.0,"[-0.029982686946487962,0.00204088415912971]",100.0,"[0.1291406639550461,0.09027886602700423]",100.0,"[-0.021735111210157584,-0.12646153302446297]",4.0,"[0.00868805303645721,0.17871188234329666]",4.0,"[0.03304648576879337,-0.10052598501620667]",4.0,"[-0.037604773455665576,0.18764352591398487]",100.0,"[-0.08520433068677487,0.030494485630921758]",100.0,"[-0.06791783339789084,0.10151835964528068]",100.0,"[0.035388695696239744,-0.1450785088015746]",4.0,"[0.024372357677193958,-0.1978022512288423]",4.0,"[0.1736767285684766,0.08009626318671635]",100.0,"[-0.08637584855813747,-0.04930389721843018]",100.0,"[0.05047829750090622,0.17231651791999728]",100.0,"[0.12939468968678644,-0.12826762969053812]",100.0,"[-0.13962392302939886,-0.05094785988758235]",4.0,"[-0.1439707139795227,0.09941690519343932]",4.0,"[-0.13083809700272286,-0.1444977488080896]",100.0,"[0.022564966191389216,-0.05177292622345921]",100.0,"[0.02,0.02]",145.391,0.0,8.0,8.0,32.0,1.0,,,,,,,
,,,,,,,64b4c078aeb3a03a356ce3b2,6844292707843a64e1c81f3c,2025-06-07_13h58.47.957,shape_ratio,2024.1.5,Win32,29.94011976,684250e4f00cb30b92d1fa88,,,,,,,,,,,145.393,145.887,,,146.131,147.059,right,,,,,,,,0.1,,,,,,145.887,146.131,0.897,,147.059,"[0.1591984011370627,0.0076022282430815305]",4.0,"[0.13805283478278996,0.09415579556005538]",4.0,"[0.016871000712636572,0.06377432844197603]",4.0,"[-0.13902257173826144,0.0606786189895228]",4.0,"[0.09491670876252756,-0.07156865146031534]",4.0,"[-0.1896564584466391,-0.0303454207898172]",100.0,"[-0.023987981448901893,-0.10661654683377081]",4.0,"[0.015108367549229456,-0.055318194907611105]",4.0,"[-0.014383320626922836,0.11594926206234953]",4.0,"[-0.12097273715950448,-0.062288721920214486]",4.0,"[0.17592418166564913,-0.046191502412332636]",4.0,"[0.07664063022286859,-0.17605593899454416]",4.0,"[0.07432155513266503,-0.02760474430791574]",4.0,"[-0.11678676647242733,0.12871352890475588]",100.0,"[0.07970391993855344,0.14864452150283503]",4.0,"[-0.18165501765868522,0.043927606168141904]",4.0,"[0.03253829448352018,-0.1475619098242716]",4.0,"[0.053472338393488014,0.19145015129551615]",4.0,"[-0.17340544691113746,-0.06808183365664014]",4.0,"[0.08673906979378296,0.07797197442503635]",4.0,"[-0.13860387568899854,-0.11968467089680351]",4.0,"[-0.0813642857363012,0.0005493674122073639]",4.0,"[-0.1687638876601328,0.0917806964142455]",4.0,"[-0.06876358572215924,0.08639972734457153]",4.0,"[0.11315175562230646,-0.11396936573764624]",100.0,"[0.18606588048343295,0.03737824303386688]",4.0,"[-0.06717889702586423,-0.05582083224206186]",4.0,"[-0.03129093476474819,0.16585833421536167]",4.0,"[-0.04975365500892877,-0.14589660001932583]",4.0,"[0.1374647001270964,0.048138385249710765]",4.0,"[0.009739517092047515,-0.18742222481179693]",4.0,"[0.01950399420326103,0.15469086556657552]",4.0,"[0.02,0.02]",148.138,0.0,9.0,9.0,180.0,1.0,,,,,,,
,,,,,,,64b4c078aeb3a03a356ce3b2,6844292707843a64e1c81f3c,2025-06-07_13h58.47.957,shape_ratio,2024.1.5,Win32,29.94011976,684250e4f00cb30b92d1fa88,,,,,,,,,,,148.138,148.62,,,148.866,149.629,right,,,,,,,,0.4,,,,,,148.622,148.866,0.732,,149.629,"[-0.11943365719595544,-0.031147903901520717]",4.0,"[-0.034100365575310196,0.14281344662370693]",100.0,"[0.1390075147737551,0.025704772316395275]",100.0,"[-0.15063920543216436,-0.07978738966888221]",4.0,"[-0.04554905745924449,0.06992338933769711]",100.0,"[0.13442712355701694,-0.12803874673035429]",100.0,"[-0.08327826291147092,-0.06850615938013513]",100.0,"[0.17207923229891098,-0.01255702127632639]",100.0,"[0.011595380719042142,-0.016823318931804207]",100.0,"[-0.03312447981887649,-0.015510101561358238]",4.0,"[-0.12647069506982922,-0.1456367883943389]",100.0,"[0.10492895343571287,0.06407585710213609]",4.0,"[-0.08606504394682282,0.05639737215470579]",4.0,"[-0.14517209153458965,0.09034905647704689]",100.0,"[0.03278220838270763,-0.08816665680685268]",4.0,"[-0.008250475598640998,0.03795736236188762]",4.0,"[0.08328786551343015,-0.06902750615154635]",100.0,"[0.03156592746699399,-0.17904273575236698]",4.0,"[-0.19647795645398225,0.026237363560169157]",4.0,"[-0.15014770275016034,0.04352330394025135]",4.0,"[-0.021767533692198342,-0.0870529866116402]",4.0,"[0.06336844593411792,-0.027785290403783504]",4.0,"[-0.008483264061522812,0.10881724954458137]",4.0,"[-0.17472553559390658,-0.04103814800276234]",4.0,"[-0.10403359774562088,0.011488067653450566]",100.0,"[-0.07330742739550525,0.1691375908250013]",100.0,"[-0.02864537491181163,-0.17282371211323427]",100.0,"[-0.12659470416938615,0.13531019498671554]",4.0,"[-0.08469231982889254,-0.11502296098029019]",4.0,"[0.15230035330737962,-0.07029581650402494]",4.0,"[0.049487670329881474,0.0806049105463675]",4.0,"[0.02509031190673202,0.13831132462844598]",4.0,"[0.02,0.02]",150.704,0.0,10.0,10.0,166.0,1.0,,,,,,,
,,,,,,,64b4c078aeb3a03a356ce3b2,6844292707843a64e1c81f3c,2025-06-07_13h58.47.957,shape_ratio,2024.1.5,Win32,29.94011976,684250e4f00cb30b92d1fa88,,,,,,,,,,,150.705,151.188,,,151.433,152.617,right,,,,,,,,0.6,,,,,,151.188,151.433,1.153,,152.617,"[-0.05840919566793479,0.13425169061832753]",100.0,"[0.06044779280852104,0.10285356027526132]",4.0,"[-0.12164100696151399,-0.07654226158219393]",4.0,"[0.06290814873419633,-0.02502561696594796]",4.0,"[0.1604427680090208,0.04446639148501497]",100.0,"[0.07660434089790448,-0.09190008052004889]",100.0,"[-0.1730694606717405,0.0007303311788376481]",4.0,"[0.04458264628477148,0.05613902506658971]",100.0,"[0.1024640318326381,0.15396158388294717]",100.0,"[-0.11916798233590363,0.12374985336676415]",100.0,"[-0.1826633375698863,-0.06400675238892661]",100.0,"[-0.1275198836238945,0.04192734639582877]",100.0,"[-0.12751811409321204,-0.005649149928765799]",4.0,"[0.13566216604771894,0.10758197780846268]",4.0,"[0.014290262435193829,-0.12592063397511843]",100.0,"[-0.017856337579736214,-0.1832049864734904]",4.0,"[0.12662398026286767,-0.09857529770512968]",100.0,"[-0.07182120221711474,0.17757409388700968]",100.0,"[0.15781948424311756,-0.009200421715750534]",100.0,"[-0.05933791222235477,-0.06678004898928491]",4.0,"[0.03417087409820754,0.17913185260743653]",100.0,"[0.05220711006821686,-0.16468688468794052]",100.0,"[-0.05910680754419896,-0.020441008086565727]",100.0,"[0.011733911697724362,-0.050771542014972415]",4.0,"[-0.17448617588402968,0.08982688933510274]",100.0,"[-0.008080757187716364,0.0012685686041831162]",4.0,"[-0.06928050685109369,-0.16342117292190467]",4.0,"[-0.08536119302393828,0.043532545102351314]",4.0,"[0.019647399199888296,0.14148761020075737]",4.0,"[-0.18067256246958338,0.04972896051323467]",100.0,"[0.10122770108329089,-0.03661803237652106]",100.0,"[-0.10653414501599824,-0.1434692570351261]",100.0,"[0.02,0.02]",153.714,0.0,11.0,11.0,55.0,1.0,,,,,,,
,,,,,,,64b4c078aeb3a03a356ce3b2,6844292707843a64e1c81f3c,2025-06-07_13h58.47.957,shape_ratio,2024.1.5,Win32,29.94011976,684250e4f00cb30b92d1fa88,,,,,,,,,,,153.716,154.199,,,154.451,155.171,left,,,,,,,,0.5,,,,,,154.199,154.45,0.689,,155.171,"[-0.17425583771348838,0.00016974413755816334]",100.0,"[-0.04292802886194903,-0.08204331343096592]",4.0,"[0.048154145036927165,-0.04548865298287297]",4.0,"[0.16423268716465192,0.04062739297418481]",100.0,"[0.14936324725494649,0.1012875028668054]",4.0,"[-0.0660410045930799,0.09626426768650061]",4.0,"[0.036407494862551126,0.18409085430742375]",4.0,"[0.032696010634143825,-0.1152808941806488]",4.0,"[-0.12730270808769376,0.1362605336897508]",4.0,"[0.1907411329469906,-0.0508698784234846]",100.0,"[-0.12669052297205574,0.02754428336848393]",100.0,"[-0.12409775372706819,-0.1272014137956063]",4.0,"[-0.09590109554953384,-0.058041059930779654]",100.0,"[0.0076188517231583226,0.06731971356229798]",100.0,"[-0.007396206786654895,-0.1590147739321261]",100.0,"[0.08611090407336536,-0.12480575609461408]",4.0,"[-0.007284109247521528,-0.01566751101087909]",4.0,"[-0.07219350678735391,0.16142903166664987]",4.0,"[-0.06391943873221011,-0.18296235562194046]",4.0,"[-0.042811729915660804,0.004645537714405893]",100.0,"[0.11630475030617023,0.027472463299620102]",100.0,"[-0.07574485164776512,-0.12192071814061221]",4.0,"[0.07694633284902519,0.09745370839486862]",100.0,"[0.11648129459956633,0.07319813338515448]",100.0,"[-0.18345838598350497,0.03941825779653103]",4.0,"[-0.14713366164274783,-0.08687939806819568]",100.0,"[0.10499297782671528,-0.06287279036599464]",100.0,"[0.056086192415642465,-0.15760467744465728]",100.0,"[-0.08804366162002122,-0.004283291522053962]",100.0,"[0.11975087101839325,0.15414816249149624]",4.0,"[0.06722439975017212,-0.008927305825954895]",100.0,"[0.07347574539912373,0.15789589987243305]",4.0,"[0.02,0.02]",156.258,0.0,12.0,12.0,96.0,1.0,,,,,,,
,,,,,,,64b4c078aeb3a03a356ce3b2,6844292707843a64e1c81f3c,2025-06-07_13h58.47.957,shape_ratio,2024.1.5,Win32,29.94011976,684250e4f00cb30b92d1fa88,,,,,,,,,,,156.26,156.743,,,156.994,158.491,,,,,,,,,0.9,,,,,,156.743,156.994,,,158.491,"[-0.014221590478832077,0.1632175950919885]",4.0,"[-0.03210599577656156,0.10026125897811126]",100.0,"[-0.18252270203348356,0.014796794883472474]",100.0,"[0.18856871210371884,-0.028999614662490278]",100.0,"[0.09187934128596027,-0.1364765350668066]",100.0,"[-0.07767894568166558,-0.04638645342447446]",100.0,"[0.04417920751467201,0.1728222120497724]",100.0,"[-0.13372010158558825,0.012714893784088318]",100.0,"[-0.06486463142257021,0.18688490823038026]",100.0,"[0.028231861263286896,-0.09395273690425883]",100.0,"[-0.09472506858175667,0.1040769826720398]",100.0,"[-0.15507590142209995,0.09771146548283331]",100.0,"[0.1933181557081207,0.026265723667261504]",100.0,"[-0.05142271675944839,0.022267002048343497]",100.0,"[-0.09225183710804423,0.024583440838060456]",4.0,"[-0.0021158568961558094,-0.13403175000478404]",100.0,"[0.1749732909174839,0.06342333163690082]",100.0,"[-0.14630948317523249,-0.055511334474850335]",100.0,"[0.13975728931972825,-0.02642993723833849]",100.0,"[0.047031721933071084,-0.03203065443283742]",100.0,"[0.027294979533709046,0.10455959849960497]",100.0,"[-0.1493577399477894,-0.09818741537531343]",100.0,"[-0.08057277291943837,-0.13636727335905927]",100.0,"[-0.0024710284254165,0.038805762012529686]",100.0,"[0.11345567312051356,0.14353433368098606]",100.0,"[-0.03891897296093617,-0.09665450433320236]",100.0,"[0.008955973934106238,-0.17881111428911195]",100.0,"[0.06951504435456031,-0.17401537321174163]",100.0,"[-0.12794781685493364,-0.14804210110831775]",100.0,"[-0.0495510117361967,-0.19347943948312293]",100.0,"[-0.13078188219563383,0.0636533902447242]",100.0,"[0.1226078771935277,-0.06802752695529729]",4.0,"[0.02,0.02]",159.583,0.0,13.0,13.0,18.0,1.0,,,,,,,
,,,,,,,64b4c078aeb3a03a356ce3b2,6844292707843a64e1c81f3c,2025-06-07_13h58.47.957,shape_ratio,2024.1.5,Win32,29.94011976,684250e4f00cb30b92d1fa88,,,,,,,,,,,159.584,160.067,,,160.312,161.101,right,,,,,,,,0.45,,,,,,160.067,160.312,0.759,,161.101,"[0.12733172259806252,-0.04898968060051485]",100.0,"[-0.1424526266814775,0.022540377216866282]",4.0,"[0.16265175946205454,-0.09815071925994644]",4.0,"[0.0006551893861986364,-0.08960364621681802]",100.0,"[0.10499566949380285,0.06948913738068187]",4.0,"[-0.08198248019866168,0.03003146063651846]",4.0,"[-0.19765547898425817,-0.007311072271347226]",4.0,"[0.015371103152022458,-0.16810317543907397]",4.0,"[0.17170250429749154,0.08762885553521281]",100.0,"[-0.09103396342995312,-0.08956527550940657]",100.0,"[0.07261794283680038,-0.11911425925731606]",100.0,"[0.17045745260378967,0.01137204351938775]",4.0,"[0.06157633680113056,0.0324479591019835]",4.0,"[0.04834858717707951,-0.19211874471917362]",4.0,"[-0.05778908359187413,0.08718593495635012]",100.0,"[-0.04564781497342349,0.18562992308553491]",100.0,"[-0.015270705435836229,0.023886229208482712]",100.0,"[0.09372561676914853,0.16200788307997033]",4.0,"[-0.012754707023419186,0.12452837050204134]",4.0,"[-0.14699706032697882,0.10330086766426846]",4.0,"[0.04444993911713418,0.1476912385228362]",100.0,"[0.011951496134131493,0.08141113474802227]",100.0,"[0.019343536058061897,-0.031446030059764624]",100.0,"[0.06445894078530333,-0.014497392915991456]",100.0,"[-0.15618991855407216,0.06269328690720309]",4.0,"[-0.04801644311704552,-0.040986910159473915]",4.0,"[-0.10245587646536847,-0.02344145151180498]",4.0,"[-0.12075159812139886,-0.1181840625366311]",4.0,"[-0.08123049617317721,-0.13309163946192012]",100.0,"[0.11150325067416444,0.1122868333645913]",4.0,"[-0.08222710236546661,0.13780937098765225]",4.0,"[0.1286887932881308,0.022947449390631165]",100.0,"[0.02,0.02]",162.199,0.0,14.0,14.0,142.0,1.0,,,,,,,
,,,,,,,64b4c078aeb3a03a356ce3b2,6844292707843a64e1c81f3c,2025-06-07_13h58.47.957,shape_ratio,2024.1.5,Win32,29.94011976,684250e4f00cb30b92d1fa88,,,,,,,,,,,162.199,162.683,,,162.929,164.274,left,,,,,,,,0.9,,,,,,162.683,162.929,1.313,,164.274,"[-0.16758907993332467,0.10634914621662166]",100.0,"[-0.004440186354676429,0.07932089902109012]",100.0,"[0.16030367046714616,0.01361111840520303]",100.0,"[-0.03524594469129331,0.16094453304304304]",100.0,"[0.10476324065314284,-0.05707203011640057]",100.0,"[-0.06762105687440649,-0.03535664218190248]",100.0,"[0.08634603399172933,-0.12135650763632883]",4.0,"[-0.1224289907284132,-0.10362661801706449]",100.0,"[-0.09944522887684593,0.1653795875753889]",100.0,"[-0.0652423915220669,0.00860852017234544]",100.0,"[-0.07154234418173394,-0.1120426052870346]",4.0,"[0.16888792002456532,-0.0731044339290608]",100.0,"[-0.001396599436407512,-0.08039820491297736]",100.0,"[-0.1390955322312197,0.035293121716857376]",100.0,"[-0.09111400522998855,0.057893853339660156]",100.0,"[0.0563429838817605,0.04697425110377004]",100.0,"[0.11641742706929846,0.016060706598393502]",4.0,"[0.01715199851775963,0.11716619030764161]",100.0,"[0.10200861261555091,0.07946103737615355]",100.0,"[0.16833448963947728,0.10276112223830353]",100.0,"[-0.0817108707771106,-0.17788797774585735]",100.0,"[-0.18990849473537852,0.06116553258045833]",100.0,"[0.04263897302027129,-0.055493854909345955]",100.0,"[0.19642709693173638,-0.01096730351117483]",100.0,"[0.09937832237372636,0.165126512351908]",100.0,"[0.13747248418273164,-0.12864897748295687]",100.0,"[0.04085493149785676,0.17453596489175943]",100.0,"[0.020246715349759914,-0.00104052383979635]",100.0,"[-0.05230600711142914,0.11412825975078585]",100.0,"[-0.03534513585216369,-0.19451150873902534]",100.0,"[-0.1621990666246797,-0.0460263236453265]",100.0,"[0.06673794209306147,-0.010188033552673427]",100.0,"[0.02,0.02]",165.368,0.0,15.0,15.0,14.0,1.0,,,,,,,
,,,,,,,64b4c078aeb3a03a356ce3b2,6844292707843a64e1c81f3c,2025-06-07_13h58.47.957,shape_ratio,2024.1.5,Win32,29.94011976,684250e4f00cb30b92d1fa88,,,,,,,,,,,165.37,165.848,,,166.085,166.985,right,,,,,,,,0.5,,,,,,165.848,166.085,0.867,,166.985,"[-0.0919822987263416,0.15381931121759967]",100.0,"[0.07034381382117968,-0.039202447497261324]",100.0,"[-0.09721863885850889,-0.07759540940576871]",100.0,"[0.0258362544779446,0.14931172764889514]",100.0,"[0.08132040990532745,-0.09690994671925084]",100.0,"[0.11305956497048597,-0.05717815591522284]",4.0,"[-0.09915117000877302,0.011092073209070514]",4.0,"[-0.014834751439658136,0.10077342000502888]",4.0,"[0.17826180986688836,0.037629281624816234]",4.0,"[0.15936634311879125,0.09870745035401768]",4.0,"[0.061743548860877163,0.027903453819965177]",4.0,"[-0.00786127823464616,-0.12137366693427988]",100.0,"[0.04720081745659988,-0.13158235083288897]",100.0,"[-0.033815442600537544,0.1855518601982376]",100.0,"[-0.03228377732432826,0.04210857025935474]",100.0,"[-0.10926412157452153,0.05487903651953263]",100.0,"[-0.04613100634148894,-0.053961920706527465]",4.0,"[0.03515375776728561,0.19190128518989186]",4.0,"[0.048941668476627974,0.09269737862782171]",100.0,"[0.1413444018300056,0.00010167862226173938]",4.0,"[0.11706573381850018,-0.12814077304874208]",100.0,"[0.015025985873603265,0.016374950510803506]",4.0,"[-0.11244148576755919,-0.12732764641532188]",100.0,"[-0.1672876872263694,-0.013405271577344603]",100.0,"[-0.1452502184698693,-0.07738399049292173]",4.0,"[0.00567375947918912,-0.168277799505076]",100.0,"[-0.05872811295281481,-0.13139965495953257]",4.0,"[-0.14404229165001584,0.1268477080162555]",4.0,"[0.125687669837555,0.06264620236208279]",4.0,"[0.10247478621675302,0.12128295324847821]",100.0,"[-0.18492241563019748,0.03848893294817877]",4.0,"[-0.18312017676962378,-0.05525912201587372]",4.0,"[0.02,0.02]",168.07,0.0,16.0,16.0,92.0,1.0,,,,,,,
,,,,,,,64b4c078aeb3a03a356ce3b2,6844292707843a64e1c81f3c,2025-06-07_13h58.47.957,shape_ratio,2024.1.5,Win32,29.94011976,684250e4f00cb30b92d1fa88,,,,,,,,,,,168.072,168.553,,,168.804,169.69,left,,,,,,,,0.5,,,,,,168.553,168.804,0.85,,169.69,"[0.06416850256415979,0.10913228959172146]",4.0,"[0.05953215801838865,0.16756289444664413]",4.0,"[-0.07886611391217135,0.11864112014899568]",100.0,"[-0.020016134576872423,-0.14437063563851338]",100.0,"[-0.09534656916558948,-0.07840024556069618]",4.0,"[0.14597987139022087,-0.13343111107623615]",4.0,"[-0.008337324236181547,-0.0978029899552953]",4.0,"[0.14706570246130324,0.06073086281796002]",4.0,"[0.10267156427784946,-0.128037468160016]",100.0,"[-0.05954527044747375,-0.03677825847523548]",100.0,"[0.19393846266795375,-0.009054602183284275]",100.0,"[0.11786784555307146,-0.0139881996985644]",4.0,"[-0.044468923133042494,0.149396914270239]",100.0,"[0.028658466787645057,-0.1373878751789417]",4.0,"[-0.026575700442208562,-0.19404965672349272]",4.0,"[-0.10866330240200461,-0.12980034787112435]",100.0,"[-0.06050150414194824,-0.13036965515814716]",100.0,"[-0.17002595371643123,0.07757724270499558]",4.0,"[0.10726761936084897,-0.06903625977958139]",4.0,"[-0.13521544669787944,0.03719007686582374]",100.0,"[0.08366667257226285,-0.17635620379103556]",4.0,"[0.024826808531885635,-0.06342752686074975]",100.0,"[-0.00553170470708814,0.035428619728712515]",4.0,"[0.03640454164462984,0.06430125925723969]",100.0,"[0.08521171232819108,0.029883821112245506]",4.0,"[-0.08773712008022332,0.006236365159215087]",100.0,"[0.10559464401887603,0.10232322910719166]",100.0,"[-0.014686871900739662,-0.03858529343602856]",100.0,"[-0.12296321284762878,0.13498914206167642]",100.0,"[-0.12558370604476818,-0.03962795304587522]",4.0,"[0.042961347374420936,-0.02069531407792022]",100.0,"[-0.10034108639966582,0.05755092375198426]",4.0,"[0.02,0.02]",170.782,0.0,17.0,17.0,95.0,1.0,,,,,,,
,,,,,,,64b4c078aeb3a03a356ce3b2,6844292707843a64e1c81f3c,2025-06-07_13h58.47.957,shape_ratio,2024.1.5,Win32,29.94011976,684250e4f00cb30b92d1fa88,,,,,,,,,,,170.783,171.264,,,171.5,172.359,left,,,,,,,,0.45,,,,,,171.264,171.5,0.829,,172.359,"[0.03465199158301222,-0.14135474670260068]",4.0,"[0.11377700751658555,0.04142175401213257]",100.0,"[-0.003585583872428112,0.19996741133315293]",100.0,"[0.06387935707579322,0.08800456289342683]",100.0,"[0.15827667545495744,0.09865036273826343]",100.0,"[0.09516122893427517,0.0028948979366292754]",4.0,"[0.12470540530674636,0.12615163526516374]",4.0,"[0.013915662198361786,0.09269979038019927]",100.0,"[-0.038030169740495307,0.13106166712805964]",100.0,"[0.036658910654694,-0.02648996188832022]",4.0,"[0.059415972065998905,-0.10977797957279414]",100.0,"[0.1304718959402627,-0.12066458838089614]",4.0,"[-0.10125675331539108,0.09873850013605202]",100.0,"[0.08805704655837418,-0.04889019022353517]",4.0,"[-0.1879422930582262,0.04477656380861567]",4.0,"[-0.15402893799055545,0.10977508509137626]",4.0,"[-0.07332223156199555,0.15643129042550258]",100.0,"[0.17133547702557447,0.023499233352171772]",100.0,"[-0.08362729549515725,0.05865124007376006]",4.0,"[0.015105766989879789,-0.09388233801193169]",4.0,"[0.16282337214589004,-0.08576990622630981]",4.0,"[-0.0347936554256117,-0.13844079664201367]",4.0,"[-0.11126222197652112,0.010708234208321657]",4.0,"[-0.06307482931372305,-0.022948915691306165]",100.0,"[-0.14964506719685988,-0.03534393388896329]",4.0,"[0.053170742707010415,0.032379090049487]",4.0,"[0.03475422976435367,-0.19299089954871942]",4.0,"[-0.014096068605799327,-0.18192915220365335]",100.0,"[-0.13836237795418294,0.0556296190882329]",100.0,"[0.005028733697860999,0.00998814069122138]",100.0,"[-0.04384016560607203,0.054335742277267216]",4.0,"[-0.012617484649845103,-0.03311721761540332]",4.0,"[0.02,0.02]",173.454,0.0,18.0,18.0,127.0,1.0,,,,,,,
,,,,,,,64b4c078aeb3a03a356ce3b2,6844292707843a64e1c81f3c,2025-06-07_13h58.47.957,shape_ratio,2024.1.5,Win32,29.94011976,684250e4f00cb30b92d1fa88,,,,,,,,,,,173.454,173.941,,,174.193,174.886,right,,,,,,,,0.45,,,,,,173.941,174.193,0.66,,174.886,"[-0.045845935315301206,-0.1764847266999368]",4.0,"[-0.11735024686151106,-0.11419252075134553]",4.0,"[0.10320760177060434,0.14202159678162718]",4.0,"[0.07143403845897309,-0.08793432579183454]",4.0,"[0.09036602861503994,0.07593297751746014]",100.0,"[0.057900953137568295,0.1350051174380199]",100.0,"[-0.18695474158638742,-0.04599120766848211]",100.0,"[0.07310205792415093,-0.13277390721860102]",4.0,"[-0.18389433916181122,0.060669329502051644]",100.0,"[0.13644099318230377,-0.06506708371121661]",100.0,"[-0.02420982783555826,-0.10787629846757119]",4.0,"[-0.09961406557365975,-0.015845873314402823]",4.0,"[0.02224928732610998,0.06607873786754881]",4.0,"[-0.02128002704614566,0.16769353611426133]",100.0,"[-0.03814924265603712,0.014438580056311497]",4.0,"[-0.13736843483087458,0.02082322961428575]",4.0,"[-0.02579570924012381,-0.04649713802053291]",100.0,"[0.06568540639535705,0.025742723169177154]",4.0,"[0.09077936042039453,-0.029574266251657846]",4.0,"[-0.12051502555396967,0.13151882627954323]",100.0,"[0.01632956368295227,-0.1240918101848182]",100.0,"[0.1432837060798138,-0.0028049080557534228]",100.0,"[0.10535378840970659,0.036660848467375655]",100.0,"[-0.06959600192453574,0.1728136177319251]",4.0,"[0.021032728690648813,0.1791891249814646]",4.0,"[-0.11750563363799994,0.05754342818496986]",4.0,"[-0.14693568805471838,-0.08308318395363098]",100.0,"[0.15448696998578387,0.07773638023841851]",100.0,"[-0.09232037834350583,-0.15654784062872207]",4.0,"[0.01959616752240266,-0.05146538701764157]",4.0,"[0.00465677112815983,0.10275838249582155]",100.0,"[-0.1800937463173161,-0.002182483912626531]",4.0,"[0.02,0.02]",175.984,0.0,19.0,19.0,126.0,1.0,,,,,,,
,,,,,,,64b4c078aeb3a03a356ce3b2,6844292707843a64e1c81f3c,2025-06-07_13h58.47.957,shape_ratio,2024.1.5,Win32,29.94011976,684250e4f00cb30b92d1fa88,,,,,,,,,,,175.986,176.485,,,176.745,177.727,right,,,,,,,,0.1,,,,,,176.485,176.745,0.945,,177.727,"[0.13180529498262,0.04572148511009235]",4.0,"[-0.02999651439945298,0.18500113442966554]",4.0,"[0.04001209425694537,0.03560594584169114]",4.0,"[-0.17773985641132573,-0.011294218542579938]",4.0,"[-0.03877701501642216,-0.08437016194596707]",4.0,"[-0.12608882051205397,0.13309558326992454]",4.0,"[0.04423747727583556,-0.05493362683454746]",4.0,"[0.12495742080983231,0.09924600534485009]",4.0,"[0.0864539680109993,-0.1389151569909534]",4.0,"[0.0035404199345124283,-0.05395329931203606]",4.0,"[-0.031467542756661186,-0.17313415923864267]",4.0,"[0.007902531052481628,-0.1918159164008797]",4.0,"[0.18606376011795223,-0.06680164760380577]",100.0,"[0.03776031830987308,-0.004537257784865147]",4.0,"[-0.10023242720547088,-0.1703115115291454]",4.0,"[-0.06464670682567393,0.1555380941915285]",4.0,"[0.0837455502872604,0.13601563353296872]",4.0,"[0.02373358453369773,0.13141128000676047]",4.0,"[-0.09805485670580992,0.09552096693760724]",4.0,"[-0.01907969506969586,0.02440634509168796]",4.0,"[0.17887889124571213,0.05149718732828836]",4.0,"[-0.15117207345564504,0.0793807416474239]",4.0,"[-0.06231226279744238,-0.03956680090180497]",4.0,"[0.025945948511296894,0.18045098993493705]",4.0,"[-0.18036783445458185,-0.06967650530869539]",4.0,"[-0.07637412650931379,-0.10304443657166348]",4.0,"[-0.1550635649795962,-0.11165099356808152]",4.0,"[-0.07743807610401988,0.04242341337144784]",4.0,"[0.06041692458382631,0.09893516111130625]",4.0,"[-0.11781087744006649,0.041204955987153215]",100.0,"[0.14141889051048578,-0.09153856209573982]",100.0,"[-0.10309779549578085,-0.014787225038704832]",4.0,"[0.02,0.02]",178.804,0.0,20.0,20.0,185.0,1.0,,,,,,,
,,,,,,,64b4c078aeb3a03a356ce3b2,6844292707843a64e1c81f3c,2025-06-07_13h58.47.957,shape_ratio,2024.1.5,Win32,29.94011976,684250e4f00cb30b92d1fa88,,,,,,,,,,,178.806,179.284,,,179.553,180.327,left,,,,,,,,0.45,,,,,,179.284,179.553,0.743,,180.327,"[0.0782344799678215,-0.06448335895586153]",4.0,"[0.028091837097100263,-0.0770395948567048]",4.0,"[0.03337546198660275,0.06420571693027614]",100.0,"[0.04749795400667609,0.013454226493280558]",100.0,"[-0.015989970044305444,-0.15953586647310702]",4.0,"[0.1684298166311678,0.09305274239522422]",4.0,"[-0.09440278574183002,0.10082251277189443]",100.0,"[-0.13099639902219165,-0.012385337974537475]",4.0,"[-0.06861956828772901,0.011517875044131803]",4.0,"[-0.03703568974556254,0.08457508312728482]",4.0,"[0.11975476818261373,-0.09275519929460424]",100.0,"[-0.0794018893173606,0.17491784498131824]",100.0,"[-0.09000575217675737,-0.07221652814003503]",4.0,"[0.07942523670200252,0.14299884237876564]",4.0,"[-0.11159720169124361,0.02543315140000751]",4.0,"[-0.19509991208845587,0.0325174396257443]",4.0,"[-0.07495306391073554,-0.14527993075777543]",4.0,"[-0.1340416843952426,-0.0687500130097312]",100.0,"[0.1434987294377509,0.1249992099084837]",4.0,"[-0.01722043731183479,0.13056826723051354]",4.0,"[-0.031962934454909143,-0.03959308007496541]",4.0,"[-0.15927240131904546,0.11037174264377757]",4.0,"[0.18118142501263246,0.02030116651503201]",4.0,"[-0.13843471694648024,-0.12487403383118628]",100.0,"[0.10571588797167604,0.053206790414455786]",100.0,"[-0.018295433503101297,0.03800614975148224]",100.0,"[-0.17969960132469429,0.07259377281064013]",100.0,"[-0.009581511545808368,0.19398603440702575]",100.0,"[0.042237541422679305,-0.03893847965592674]",100.0,"[-0.002425048732887696,-0.1166909793816778]",100.0,"[0.07482384542517416,-0.1546601415780579]",100.0,"[0.16580223078151657,-0.05131430327331457]",4.0,"[0.02,0.02]",181.417,0.0,21.0,21.0,135.0,1.0,,,,,,,
,,,,,,,64b4c078aeb3a03a356ce3b2,6844292707843a64e1c81f3c,2025-06-07_13h58.47.957,shape_ratio,2024.1.5,Win32,29.94011976,684250e4f00cb30b92d1fa88,,,,,,,,,,,181.417,181.896,,,182.142,182.999,right,,,,,,,,0.4,,,,,,181.896,182.141,0.827,,182.999,"[-0.025398559009268393,-0.12447464083471065]",4.0,"[-0.10309054815071093,0.07393099399721514]",4.0,"[0.07386966989939378,0.022655125951227484]",4.0,"[0.18166269497687065,-0.07436407523590637]",100.0,"[-0.16072233726491375,0.11130189112639638]",100.0,"[0.05016415076727126,0.08648249514788024]",4.0,"[-0.1809978359309431,0.05913606496924308]",4.0,"[0.1907660568588397,-0.020335752645401804]",100.0,"[-0.13325460027463829,-0.08488988564338376]",100.0,"[0.030082423794716356,-0.04660883657879931]",100.0,"[0.055711156447592954,0.15663641604931036]",4.0,"[-0.08408884358304802,0.12486251557724157]",4.0,"[-0.14342793803657916,0.0020809716788821506]",4.0,"[0.010800713229814247,0.027369084018334714]",100.0,"[-0.0901710249223038,-0.17465550070686914]",100.0,"[-0.14715922335644316,-0.042206971023634916]",100.0,"[0.07281992244727989,-0.030606755990393017]",4.0,"[-0.004281265845447666,-0.18182386365129619]",4.0,"[0.1583727667643607,0.047493404781445016]",4.0,"[0.13136162000247106,-0.0782543986760025]",4.0,"[0.04485577028858401,-0.18444221668495445]",4.0,"[0.0937972333763781,-0.12401080593585485]",4.0,"[-0.07076489935550477,-0.04893721773801844]",4.0,"[0.010019529524807187,-0.09930956001698292]",4.0,"[0.002910425655996152,0.1829312405904078]",100.0,"[0.11973393493747399,0.14977611325156995]",4.0,"[-0.04124708587940443,0.09979721536728697]",4.0,"[-0.054346470227649955,0.036634654479727795]",100.0,"[-0.010052799568144562,-0.026081328594248356]",100.0,"[0.1024590172662937,0.09616479466121206]",100.0,"[0.15060905625668974,0.11211828835093225]",100.0,"[0.049009108015431686,-0.12836120579516064]",4.0,"[0.02,0.02]",184.089,0.0,22.0,22.0,165.0,1.0,,,,,,,
,,,,,,,64b4c078aeb3a03a356ce3b2,6844292707843a64e1c81f3c,2025-06-07_13h58.47.957,shape_ratio,2024.1.5,Win32,29.94011976,684250e4f00cb30b92d1fa88,,,,,,,,,,,184.091,184.569,,,184.805,185.853,left,,,,,,,,0.45,,,,,,184.571,184.805,1.017,,185.853,"[-0.0653639332674114,0.12001008617050596]",4.0,"[-0.17333000809363722,0.03499726641089411]",4.0,"[-0.06663648675323339,-0.019881116166728677]",4.0,"[0.0724378890175463,0.03670797843453861]",100.0,"[0.00400379376724064,-0.0636615488037593]",4.0,"[-0.06202024009256185,0.06219203392717207]",100.0,"[-0.14981942174073065,-0.0555323262597794]",4.0,"[0.13546197297868418,0.060642487325323735]",100.0,"[0.12638895361124042,-0.07006491728494325]",100.0,"[-0.0028236487806230126,0.06354662628409594]",4.0,"[-0.04258972576480698,0.19303787327764568]",4.0,"[0.05256552929829323,-0.04967714958049066]",100.0,"[-0.17161512369046297,-0.009402114807314555]",4.0,"[-0.10803387676910159,-0.1517194168855067]",100.0,"[0.15742808733935368,0.004423034027074742]",4.0,"[0.02349418189922875,0.1158727295924842]",100.0,"[0.0701472500050445,0.15188621572656197]",4.0,"[-0.14540876299159672,0.06983713166807283]",4.0,"[-0.024323154255973124,-0.11550104642060763]",100.0,"[0.06165523957838472,-0.16708949418639427]",4.0,"[0.12452683756935136,0.10112303285238775]",4.0,"[-0.010123810111017999,-0.17276329031537527]",4.0,"[-0.049782888764435165,-0.15062010607174778]",100.0,"[0.18945852763659013,0.04632775676009209]",4.0,"[0.11155497125240992,-0.02982001874022633]",4.0,"[-0.11907447999847674,-0.10653531851536949]",100.0,"[0.001465886202852313,-0.007107672385548507]",100.0,"[-0.11462385766306062,-0.024104825650085492]",100.0,"[0.044433920305799963,-0.1251447810870675]",100.0,"[-0.09025406958505207,-0.07574120943546901]",4.0,"[-0.11510853309161707,0.017595930892767765]",100.0,"[0.09547826767913103,-0.1253445843391275]",4.0,"[0.02,0.02]",186.939,0.0,23.0,23.0,137.0,1.0,,,,,,,
,,,,,,,64b4c078aeb3a03a356ce3b2,6844292707843a64e1c81f3c,2025-06-07_13h58.47.957,shape_ratio,2024.1.5,Win32,29.94011976,684250e4f00cb30b92d1fa88,,,,,,,,,,,186.939,187.425,,,187.661,188.57,right,,,,,,,,0.4,,,,,,187.425,187.661,0.878,,188.57,"[0.09919829026758588,-0.11623262801862201]",4.0,"[0.08935771064110706,-0.0012127780605180154]",4.0,"[-0.11035475124450367,0.08251941909251764]",4.0,"[0.029437083839633425,-0.10180548956955328]",4.0,"[-0.16359037330004225,0.008070320663123487]",4.0,"[0.059165650284995985,0.08314772580670592]",4.0,"[-0.06308133365471211,-0.153026309349597]",4.0,"[-0.03488494325696615,0.16893948087961524]",100.0,"[-0.042593808812297934,0.0182200027761827]",100.0,"[-0.17532113710788308,-0.05413714515005264]",4.0,"[-0.12241297604253765,-0.1580069923536805]",100.0,"[0.10189367058395807,0.13699924518098244]",100.0,"[0.050695894197256515,-0.06169647160041015]",4.0,"[-0.145750646606193,0.11402203185022268]",100.0,"[0.0077315049361384005,0.17997578010881918]",100.0,"[0.025137462807853634,-0.025050265326399427]",4.0,"[-0.09395919884185105,0.15997260977865918]",4.0,"[-0.11218340663948716,-0.05896309628919679]",4.0,"[0.14463418699622227,0.07578350402294794]",100.0,"[-0.08039928165580243,-0.02357933214718074]",4.0,"[-0.006348371944501331,-0.15039361379117994]",100.0,"[0.10991124917086538,-0.04448364023234718]",4.0,"[-0.06554770395371756,0.06688076166977962]",4.0,"[0.168995918820386,0.030488018045151527]",100.0,"[-0.08537727073286279,-0.08890394118310654]",100.0,"[0.1512754927368544,-0.08989329299915332]",100.0,"[0.01308555061271361,0.040939945939607245]",100.0,"[0.13076538433668702,0.017977809731723967]",4.0,"[0.13363191654391854,-0.14545102170862043]",4.0,"[0.02151603786838948,0.11761407604080265]",4.0,"[0.06453947224127651,0.17728303601182285]",100.0,"[0.039610556785130806,-0.14944767670447864]",4.0,"[0.02,0.02]",189.663,0.0,24.0,24.0,175.0,1.0,,,,,,,
,,,,,,,64b4c078aeb3a03a356ce3b2,6844292707843a64e1c81f3c,2025-06-07_13h58.47.957,shape_ratio,2024.1.5,Win32,29.94011976,684250e4f00cb30b92d1fa88,,,,,,,,,,,189.665,190.145,,,190.389,191.327,left,,,,,,,,0.6,,,,,,190.145,190.387,0.906,,191.327,"[0.12533688256825887,0.11638272181809892]",100.0,"[0.04881771135783624,-0.13574732270314363]",100.0,"[-0.18387392333314917,-0.06004455852029166]",4.0,"[0.07281290096459053,-0.039114364744451645]",4.0,"[0.18589078382200738,0.07192298543096017]",100.0,"[-0.10088242946518176,-0.17112391623830533]",4.0,"[-0.07783138631441561,0.033830986770641475]",4.0,"[0.0872512940897792,0.08387963258767349]",100.0,"[0.06390189971897811,0.13944226325201362]",100.0,"[-0.04171417402870182,-0.1776578817433897]",4.0,"[-0.09067065349309789,-0.060853665753963254]",100.0,"[0.13920312892524958,-0.007134937032805658]",100.0,"[-0.009957088333772813,-0.02128655230081651]",4.0,"[-0.05921732558535625,-0.015664648331908494]",100.0,"[-0.1374577145565407,-0.14420934343996877]",4.0,"[-0.0536654772331033,-0.11634253303743396]",100.0,"[-0.07939944514599506,0.0893207092264096]",100.0,"[0.12458513461072422,-0.07833896383193335]",4.0,"[-0.010201999836548754,-0.10769736597199231]",100.0,"[-0.13456470919120686,-0.027747680504234207]",100.0,"[-0.1695100932752683,0.007220149901409382]",100.0,"[0.18081333725770993,-0.06715010695406091]",4.0,"[0.017339894878216307,0.08775392731912632]",4.0,"[0.18759924999501107,-0.021165573600912903]",100.0,"[-0.0652296196041407,0.16559205996851828]",100.0,"[-0.13748136334000216,-0.09646455328864051]",4.0,"[0.03758402362472648,0.19191828683867962]",100.0,"[0.012064245685580463,0.14634323426044088]",4.0,"[0.1384032192132933,0.049977992804688454]",100.0,"[-0.10300983828846241,0.1264180795667416]",100.0,"[-0.019337470431656734,0.10814875931399084]",4.0,"[-0.12054650672861365,0.07211299864626258]",100.0,"[0.02,0.02]",192.423,0.0,25.0,25.0,41.0,1.0,,,,,,,
,,,,,,,64b4c078aeb3a03a356ce3b2,6844292707843a64e1c81f3c,2025-06-07_13h58.47.957,shape_ratio,2024.1.5,Win32,29.94011976,684250e4f00cb30b92d1fa88,,,,,,,,,,,192.423,192.909,,,193.152,193.968,right,,,,,,,,0.5,,,,,,192.909,193.152,0.784,,193.968,"[0.139542792443588,-0.10020148166348666]",4.0,"[-0.02839445745135974,0.15258369330641997]",4.0,"[-0.05573702913128969,0.049458012995110025]",100.0,"[0.16076906211807335,-0.030233945542698017]",100.0,"[-0.008844128562037598,0.06244484027706893]",4.0,"[-0.07014408544527817,-0.11979821089347725]",4.0,"[0.10865588745582412,-0.02347709882104153]",100.0,"[-0.13301171338839923,0.08670567522814213]",4.0,"[0.06812609783478235,0.12603938752122396]",100.0,"[-0.010882679342956229,-0.15531567835507942]",4.0,"[-0.09397986362298938,0.1481484463739686]",4.0,"[0.15293478527498547,0.11903067887915758]",4.0,"[0.1124697007608179,0.06795604037672065]",100.0,"[0.027016410327181117,0.16186811055397426]",4.0,"[0.0440015959826398,-0.11006829220600313]",100.0,"[-0.14445059953796754,-0.07765952656319734]",100.0,"[0.061554777793312955,0.04221660167745131]",4.0,"[-0.07976217239195817,-0.07137862613466982]",100.0,"[0.0992574055070517,-0.07607192194842562]",4.0,"[-0.17415075532186036,0.03397306850054302]",100.0,"[-0.07395243361915235,0.1038224471766686]",100.0,"[0.16311870218749527,0.0774102297307445]",100.0,"[-0.10615879086169126,-0.10194834349413708]",100.0,"[0.0619127643735437,0.18678519927753984]",100.0,"[0.02671223344228299,-0.02645757613232083]",100.0,"[-0.09734481690004029,0.0016890408093184553]",4.0,"[-0.02966549683022602,-0.11530742804535993]",4.0,"[0.16521812897876265,0.034016767562350766]",4.0,"[-0.12029632757593665,0.048074351945260566]",100.0,"[0.16992162766455127,-0.07076883263374137]",100.0,"[-0.0723414118942459,-0.15981400297999024]",4.0,"[-0.028546445792163738,-0.05057874875520749]",4.0,"[0.02,0.02]",195.065,0.0,26.0,26.0,102.0,1.0,,,,,,,
,,,,,,,64b4c078aeb3a03a356ce3b2,6844292707843a64e1c81f3c,2025-06-07_13h58.47.957,shape_ratio,2024.1.5,Win32,29.94011976,684250e4f00cb30b92d1fa88,,,,,,,,,,,195.066,195.543,,,195.784,196.47,left,,,,,,,,0.55,,,,,,195.543,195.784,0.654,,196.47,"[0.019364705892263863,0.048506338553650385]",4.0,"[0.17881082977602555,-0.08137760827396837]",100.0,"[-0.06982369847073172,0.13901489386941324]",100.0,"[0.054554135375288866,0.13220215749391487]",100.0,"[-0.1506012502457475,0.01568468811111294]",4.0,"[-0.03281060990418806,-0.04160752131760382]",100.0,"[-0.043985089088833335,-0.0833971527546078]",4.0,"[-0.03989780517364886,-0.1755301808438037]",100.0,"[-0.1997929995599968,0.00011953678101653571]",100.0,"[0.1857174089554647,0.06216485618268204]",4.0,"[0.042413971316758635,-0.06388203446271619]",100.0,"[0.09680448704486871,0.0811262789864907]",100.0,"[0.055731991816657785,-0.12741019881835924]",100.0,"[0.06926283207897924,0.1705014411508389]",4.0,"[0.06669919399076171,-0.003992365046086464]",100.0,"[-0.023941788428795137,0.007774322536301166]",4.0,"[-0.11559807856420411,0.09041890970303468]",4.0,"[0.0264855001526328,-0.00010136730519680008]",100.0,"[-0.09085715269657635,-0.1191541506949763]",4.0,"[-0.08279065703282183,0.04499674771450655]",100.0,"[0.06627208193279456,-0.18769935010845262]",100.0,"[-0.1327484884916895,-0.106950169017279]",4.0,"[0.1700049935867301,0.01108445980525172]",100.0,"[0.08181801122251138,-0.08799232248830255]",100.0,"[-0.10803085180171079,-0.04403640101620611]",100.0,"[0.1362630627909697,-0.07119625174768697]",4.0,"[0.012420487516467852,-0.11071343902538586]",100.0,"[-0.18260878619150617,0.05010488202222815]",100.0,"[0.1343821942393145,0.05561989699642214]",4.0,"[-0.12703043294510827,0.14230208759378477]",4.0,"[-0.05586457471309809,0.185922115519452]",4.0,"[0.1435358208417916,0.113424956306035]",4.0,"[0.02,0.02]",197.573,0.0,27.0,27.0,80.0,1.0,,,,,,,
,,,,,,,64b4c078aeb3a03a356ce3b2,6844292707843a64e1c81f3c,2025-06-07_13h58.47.957,shape_ratio,2024.1.5,Win32,29.94011976,684250e4f00cb30b92d1fa88,,,,,,,,,,,197.575,198.091,,,198.326,199.077,right,,,,,,,,0.1,,,,,,198.091,198.326,0.719,,199.077,"[0.14023085255277046,-0.09152557437273921]",4.0,"[0.03546727413896538,-0.039598180080302636]",4.0,"[-0.11557273119503794,0.12938375817878556]",100.0,"[-0.045882857458456085,0.07227606904076159]",4.0,"[-0.0674914856309876,0.004376892238441712]",4.0,"[0.08977234221165281,-0.13963823810691967]",4.0,"[0.033931541514489086,-0.0805579674522496]",4.0,"[0.18088156403810632,0.0047334958184392754]",4.0,"[0.11452757795606518,-0.024083528374382244]",4.0,"[0.05544242126664422,0.16033586737270286]",4.0,"[-0.07799530331762117,-0.06730875689832526]",4.0,"[-0.01338728894815757,-0.0808904735432636]",4.0,"[0.1441676598499052,0.08689616307691966]",4.0,"[-0.024022114099698687,0.10841623750130601]",4.0,"[-0.18771785946226294,0.0319594018167398]",4.0,"[0.11050610530541659,0.06370175458990032]",4.0,"[-0.17080514880382022,-0.07160203088610632]",4.0,"[0.16906920505578624,-0.035376079957170244]",4.0,"[0.0641680549451107,0.08962694242857504]",4.0,"[0.09966316554875863,-0.06452831343410424]",100.0,"[0.0998292897750959,0.11463404533713478]",4.0,"[0.039352783839967605,-0.13838125849824248]",4.0,"[-0.13760024940593862,0.02998178368877408]",4.0,"[0.013260307017429206,-0.1929158319722333]",4.0,"[-0.0569095916428682,-0.1121535864865834]",4.0,"[-0.018161477398578037,0.1587962667322881]",4.0,"[0.028521442540403112,0.1968212399113396]",4.0,"[-0.11175864262001359,-0.08920238710418751]",4.0,"[-0.10110537379724446,-0.03167642248957179]",4.0,"[0.1110177371209266,0.16289122798015432]",100.0,"[-0.13021768378409013,-0.12581381193831206]",4.0,"[-0.13060758956508758,0.09164390576712049]",4.0,"[0.02,0.02]",200.176,0.0,28.0,28.0,194.0,1.0,,,,,,,
,,,,,,,64b4c078aeb3a03a356ce3b2,6844292707843a64e1c81f3c,2025-06-07_13h58.47.957,shape_ratio,2024.1.5,Win32,29.94011976,684250e4f00cb30b92d1fa88,,,,,,,,,,,200.176,200.66,,,200.898,201.615,left,,,,,,,,0.45,,,,,,200.66,200.898,0.687,,201.615,"[0.10033306225184946,-0.06028997508400585]",4.0,"[0.1347028049487607,0.10084520089213062]",100.0,"[-0.10857585499245276,-0.010417201811180608]",100.0,"[-0.14895261910562904,0.11508149172368878]",100.0,"[0.08683946700503907,0.009348228990967725]",4.0,"[-0.033981244093682514,0.03128559751183062]",100.0,"[-0.1066756629130448,0.13418548648611917]",4.0,"[0.08624120983196955,0.11172374560038795]",4.0,"[0.017004252331079554,-0.17134931801530628]",4.0,"[0.12408765026071714,-0.01595611019551791]",100.0,"[-0.08822207699191603,-0.10278429211299567]",4.0,"[-0.005356926337294204,0.09325450304506915]",100.0,"[-0.14628397992339753,-0.10771881221174336]",100.0,"[-0.02692042458006087,-0.1028933950103871]",4.0,"[0.04150533668757876,0.03382779996965575]",100.0,"[-0.15015788580210834,0.0384294979763093]",4.0,"[-0.025920291518441472,-0.04663300273524247]",100.0,"[0.07238131835445158,0.16685101023582252]",4.0,"[0.14858251437066128,-0.12187223102114231]",4.0,"[-0.09381928382259709,0.09532732238805496]",100.0,"[-0.08168836499498182,-0.1695405468510584]",4.0,"[0.030295834021981216,0.11997559118150272]",4.0,"[0.06264306895790339,-0.12106303954980206]",4.0,"[0.028671512190357285,-0.016757746888669992]",4.0,"[0.13791459904390443,0.047011748839735364]",4.0,"[-0.03307699589240949,0.13849456884020916]",4.0,"[-0.06847063606061765,-0.03288662131050295]",100.0,"[-0.19340674371285424,-0.027715872896421398]",4.0,"[0.07958968890175613,-0.18046037440986873]",100.0,"[-0.09558312400897441,0.03844375644413795]",4.0,"[0.035119820457273875,-0.08129022808398394]",100.0,"[-0.0036776647871259883,0.199772917053167]",100.0,"[0.02,0.02]",202.704,0.0,29.0,29.0,144.0,1.0,,,,,,,
,,,,,,,64b4c078aeb3a03a356ce3b2,6844292707843a64e1c81f3c,2025-06-07_13h58.47.957,shape_ratio,2024.1.5,Win32,29.94011976,684250e4f00cb30b92d1fa88,,,,,,,,,,,202.704,203.192,,,203.425,204.018,right,,,,,,,,0.1,,,,,,203.192,203.425,0.56,,204.018,"[-0.12756536692303796,0.13670726643874795]",4.0,"[0.14659586807612354,-0.10543396730720865]",4.0,"[0.08922171594217586,-0.10924016818703021]",4.0,"[0.11606427133056094,0.06589663241969279]",4.0,"[-0.0934597131635981,-0.00662777457205307]",4.0,"[-0.18786360624430493,0.0320297939254544]",4.0,"[-0.0968080201220585,-0.1017107903203551]",4.0,"[-0.09744544586993593,-0.15502778597129782]",4.0,"[-0.04182556479818299,0.13082243260392074]",4.0,"[-0.13686132023721354,-0.032497857876934315]",4.0,"[0.07037915155374028,0.12953483930092732]",100.0,"[0.0037444236544356673,-0.1081570757385568]",4.0,"[0.04443150616450796,-0.07649057185919121]",4.0,"[-0.041417317783351164,0.04031040736556621]",4.0,"[-0.0021733355292402647,0.07784562348987255]",100.0,"[0.13927827784131658,-0.026767474484125607]",4.0,"[0.12788743823593832,-0.1457509823247961]",4.0,"[-0.16313112920692704,-0.11488711288349847]",4.0,"[0.030137096512724112,0.1657092493716275]",4.0,"[0.14914871870580895,0.09545948891085451]",4.0,"[0.18112862486070122,-0.024967232380222904]",4.0,"[-0.048554461635638216,-0.026293947710709455]",100.0,"[0.0713761861867769,-0.011934077850851713]",4.0,"[0.19249693022383657,0.039779225012506025]",4.0,"[-0.09931919470016731,0.04070617327378824]",4.0,"[-0.039327719394190795,-0.10049961848175101]",4.0,"[-0.10448030847710373,0.10121511078761611]",4.0,"[0.006234003115124481,0.004263892539032467]",4.0,"[0.00705234424672273,-0.1632811524953857]",4.0,"[-0.1867325428472408,-0.059967164958642384]",4.0,"[0.042776589621050576,0.09812899854217509]",4.0,"[-0.08173866789483636,-0.058387094021828005]",4.0,"[0.02,0.02]",205.094,0.0,30.0,30.0,199.0,1.0,,,,,,,
,,,,,,,64b4c078aeb3a03a356ce3b2,6844292707843a64e1c81f3c,2025-06-07_13h58.47.957,shape_ratio,2024.1.5,Win32,29.94011976,684250e4f00cb30b92d1fa88,,,,,,,,,,,205.096,205.577,,,205.833,207.222,left,,,,,,,,0.45,,,,,,205.577,205.833,1.359,,207.222,"[-0.13561355809457074,0.012274078116207798]",4.0,"[0.08550384843107213,-0.050500871899836874]",4.0,"[0.028603918793271434,0.12541758557537863]",4.0,"[0.1788905909741355,-0.044485784347754805]",4.0,"[0.042745343978731726,-0.031446759546017646]",4.0,"[0.18437370056486782,0.020288685655479227]",100.0,"[0.11184587312317448,-0.0050806494993314195]",4.0,"[-0.17122320361708482,0.06964328958785798]",100.0,"[0.049186047413061845,0.1926205621894976]",4.0,"[0.08948388385290486,0.17141747213416808]",100.0,"[-0.02328536180920535,-0.013629171679074223]",100.0,"[-0.013871820484351031,-0.1860233735676864]",4.0,"[-0.04099038481867511,-0.0914078466298937]",4.0,"[0.09421731083585054,-0.1445345344275991]",100.0,"[-0.08528784489611653,-0.13998567025413297]",4.0,"[-0.06594888486673127,0.11062829219915679]",100.0,"[0.10420969370641886,0.10064612270343859]",4.0,"[-0.06862391621738415,0.01574580248056147]",4.0,"[-0.1398944142221082,-0.08800490506628136]",100.0,"[-0.10296396822880068,0.08454741398949564]",100.0,"[-0.17721050439665867,-0.04336026159952054]",4.0,"[0.009232128833246776,0.17173658265511288]",4.0,"[0.002401596497154142,0.05193816245822878]",4.0,"[0.05803821011021301,0.08236798779596095]",4.0,"[0.01394175673286873,-0.06665599245232513]",100.0,"[0.07199156578708785,-0.18375269107662637]",100.0,"[-0.0941671339598454,-0.0354866687541969]",100.0,"[0.03605237732292933,-0.13612518247948516]",100.0,"[0.06994381481558756,0.043160935741716686]",4.0,"[-0.054832381591796826,0.06312420999366869]",100.0,"[-0.0863090752576891,0.14804486968236516]",4.0,"[0.1663964855171122,-0.11095324666629824]",100.0,"[0.02,0.02]",208.316,0.0,31.0,31.0,133.0,1.0,,,,,,,
,,,,,,,64b4c078aeb3a03a356ce3b2,6844292707843a64e1c81f3c,2025-06-07_13h58.47.957,shape_ratio,2024.1.5,Win32,29.94011976,684250e4f00cb30b92d1fa88,,,,,,,,,,,208.318,208.797,,,209.035,209.65,left,,,,,,,,0.55,,,,,,208.797,209.035,0.584,,209.65,"[-0.12612953795065238,-0.12333891580264207]",100.0,"[0.011572828561098524,0.06017285482027047]",4.0,"[-0.05584411741925954,0.14562380936563232]",100.0,"[-0.1250781973875454,0.051623986270353174]",4.0,"[0.08992249499431705,-0.060271537516245914]",4.0,"[-0.008158947772148222,-0.12763726719871807]",100.0,"[0.1296187885407828,-0.048248821732851575]",4.0,"[0.016004755814317297,-0.19412509497190922]",4.0,"[0.1561191714539612,0.03431147588178385]",4.0,"[0.1183406111478496,0.15919787416868766]",4.0,"[-0.06381594410202611,0.06462079445931848]",100.0,"[-0.04191320736170265,-0.1674164616213731]",4.0,"[0.0107794155142123,-0.04343119943908232]",100.0,"[0.033234685049539255,0.12406992984310133]",100.0,"[-0.07186235978540205,-0.1275368727123829]",100.0,"[0.01226063203496897,0.007070893802194158]",100.0,"[0.0561726040725805,0.05931832412253064]",4.0,"[0.05795992320872222,-0.020743593765154573]",100.0,"[-0.07992880350466153,-0.07924864364973698]",100.0,"[0.09770823230749988,0.011678419648571317]",100.0,"[0.054663637752110514,-0.14231509512126228]",4.0,"[0.1763472739446334,-0.05178881616369592]",100.0,"[0.07267310400571429,0.14616090350163635]",100.0,"[0.025220054443159834,-0.10041137540945115]",100.0,"[-0.11232477712856201,-0.05160375382337919]",100.0,"[-0.07778289611124034,-0.018585856126489306]",100.0,"[-0.14554633070272055,0.08699537637455061]",100.0,"[0.12672089753599347,0.10724356478279021]",4.0,"[-0.14953330242475044,-0.08826779187057751]",4.0,"[0.1592759720794757,-0.09354173667882423]",100.0,"[0.11795932733852814,-0.09185074484892952]",4.0,"[-0.10396254113746585,-0.15953981881520626]",4.0,"[0.02,0.02]",210.742,0.0,32.0,32.0,72.0,1.0,,,,,,,
,,,,,,,64b4c078aeb3a03a356ce3b2,6844292707843a64e1c81f3c,2025-06-07_13h58.47.957,shape_ratio,2024.1.5,Win32,29.94011976,684250e4f00cb30b92d1fa88,,,,,,,,,,,210.744,211.224,,,211.465,211.984,left,,,,,,,,0.9,,,,,,211.224,211.465,0.487,,211.984,"[0.0683483006688629,0.02443397325465909]",100.0,"[0.019055734703147587,0.0011558593379253313]",100.0,"[-0.03161742114771948,-0.08427529740209075]",100.0,"[0.057926367137730625,-0.1861803618321735]",100.0,"[0.15563294989096443,0.037425396747678856]",100.0,"[0.10348358508156803,0.14001196097272894]",100.0,"[-0.14275280897735684,-0.04123196964190868]",100.0,"[0.13717058658770645,0.08345864199901175]",100.0,"[0.06027011886684755,0.1080921919295738]",100.0,"[-0.00553313130703877,0.08596221165856884]",100.0,"[0.037393568845060406,0.1808241393842123]",100.0,"[-0.05147404074079002,-0.14204243321281318]",100.0,"[0.17663383648009587,-0.07065133838626625]",4.0,"[-0.06612597555148766,0.14545875751657883]",100.0,"[-0.05681605688942889,0.10062884257021434]",100.0,"[-0.09723181080523974,0.00908110873345558]",100.0,"[-0.03401012061930805,0.17711407994159895]",100.0,"[-0.04542140992696695,-0.019773669596364465]",100.0,"[0.09275117318056712,-0.11540374868252802]",100.0,"[0.10508615653726638,-0.04428889692269876]",100.0,"[0.02548553646433191,-0.11250579086963967]",100.0,"[-0.12785303400422016,0.08050076761260481]",100.0,"[-0.1830048041694576,-0.06312748696302267]",4.0,"[0.0061711327472350344,-0.04809048338628766]",100.0,"[-0.05480171521004257,-0.18328369667041017]",100.0,"[-0.18472041732739136,0.013193871870870942]",100.0,"[-0.12642567857716064,-0.14390305056836333]",100.0,"[0.01610948627983916,0.12939469317528257]",100.0,"[-0.1264084219752249,0.12228551504008794]",100.0,"[-0.04253187557050677,0.03903849706864825]",4.0,"[0.06152104218656324,-0.08847715042635396]",100.0,"[0.19002164618953754,0.060384588133170033]",100.0,"[0.02,0.02]",213.067,0.0,33.0,33.0,16.0,1.0,,,,,,,
,,,,,,,64b4c078aeb3a03a356ce3b2,6844292707843a64e1c81f3c,2025-06-07_13h58.47.957,shape_ratio,2024.1.5,Win32,29.94011976,684250e4f00cb30b92d1fa88,,,,,,,,,,,213.069,213.552,,,213.784,214.286,left,,,,,,,,0.9,,,,,,213.552,213.784,0.463,,214.286,"[-0.10597984895439208,-0.005099338440118134]",100.0,"[0.11200454786638342,0.07234175034163508]",100.0,"[0.11458868088436022,0.11865203337838401]",100.0,"[0.1293116682467307,-0.08094580424534153]",100.0,"[-0.007958783512508023,0.06453140857513028]",100.0,"[-0.1940998555831781,0.008310863786355469]",100.0,"[-0.16389261454459841,0.11192253453691345]",100.0,"[0.05706075859778557,0.13910578358852035]",100.0,"[0.12463945379566763,-0.0003348083285877084]",100.0,"[-0.005086971079973902,0.19812700563115024]",100.0,"[-0.01830664412464586,-0.008425134833929484]",100.0,"[0.17440049508828473,-0.06730059589351567]",4.0,"[-0.09254087109022942,-0.11204956328686931]",100.0,"[-0.039250543333410506,0.1323391734691866]",4.0,"[-0.005511236573071834,-0.08554781017392102]",100.0,"[0.07561132546054508,-0.10183285326526978]",100.0,"[-0.08126444212892978,0.05442868183850472]",100.0,"[0.04008108695485704,-0.15654466483601537]",100.0,"[-0.1414037512698182,-0.03727413164235761]",100.0,"[-0.0302109442693105,-0.049616531179595295]",100.0,"[-0.10099692214467673,-0.1585959751636495]",100.0,"[0.02775818788541808,0.014937125211451314]",100.0,"[-0.08911985677770963,0.11218982881254433]",100.0,"[-0.15690278649532474,-0.08816327907005626]",100.0,"[0.005796598298166802,0.11821506254319868]",100.0,"[0.10614196073096545,-0.0480177501384044]",100.0,"[-0.059435367077695735,0.011714723158329127]",100.0,"[-0.06747319893194562,-0.18191797621862096]",100.0,"[-0.12494509255868555,0.03363044078673172]",100.0,"[-0.1388873724463842,-0.14004214816700378]",100.0,"[0.161746008098158,0.07716575771335268]",100.0,"[-0.0424543737686597,-0.10615401166237742]",4.0,"[0.02,0.02]",215.38,0.0,34.0,34.0,13.0,1.0,,,,,,,
,,,,,,,64b4c078aeb3a03a356ce3b2,6844292707843a64e1c81f3c,2025-06-07_13h58.47.957,shape_ratio,2024.1.5,Win32,29.94011976,684250e4f00cb30b92d1fa88,,,,,,,,,,,215.381,215.86,,,216.095,216.976,left,,,,,,,,0.5,,,,,,215.86,216.095,0.851,,216.976,"[0.03577633727237235,-0.11500359623180482]",4.0,"[-0.05030704346793919,0.11736158603695347]",4.0,"[-0.013756508636406923,0.17484618870195828]",4.0,"[-0.10836463722988776,0.02585589089301583]",100.0,"[-0.07337558565380208,0.15558093130314052]",4.0,"[-0.02319299589672317,-0.1327298188755565]",100.0,"[0.08812176383737526,0.04470955695493222]",100.0,"[-0.03129937071350183,-0.08516636998711617]",100.0,"[0.026644209480227027,0.1205842782001257]",4.0,"[0.11737958167448484,-0.08853447781421009]",4.0,"[-0.07587657510211246,0.06904147235736706]",100.0,"[0.15192479985278,-0.11596059415254638]",4.0,"[0.03353016988805112,0.0720822949309644]",4.0,"[-0.170103483838781,-0.09341841778713411]",100.0,"[-0.17810168021546866,-0.04310933549311657]",100.0,"[0.1036304233618454,-0.020265313794940287]",100.0,"[0.1677215476573495,0.005427583888749906]",4.0,"[-0.04481858116541947,-0.18767781205368073]",4.0,"[-0.15125385206181216,0.023475836861795128]",4.0,"[0.14122207471979167,0.0861320263745208]",100.0,"[0.08396632432389779,-0.13361955026502365]",4.0,"[-0.13747070721432342,0.07662122906676445]",100.0,"[0.03318068465997456,0.16946914450634748]",100.0,"[-0.027836567879220883,0.006611318171228979]",100.0,"[0.036555871777304315,-0.19638677293533424]",100.0,"[-0.0901175532785328,-0.1463037236168605]",100.0,"[0.11807866666471666,0.13383130275750788]",4.0,"[-0.12084340805243654,-0.10641294772094746]",100.0,"[0.010717766639232428,-0.009424801071401128]",4.0,"[0.07196561387954505,-0.06725298974606124]",4.0,"[-0.08134944938845146,-0.02053672496865903]",100.0,"[0.16676233388634992,-0.07616026950530529]",4.0,"[0.02,0.02]",218.063,0.0,35.0,35.0,117.0,1.0,,,,,,,
,,,,,,,64b4c078aeb3a03a356ce3b2,6844292707843a64e1c81f3c,2025-06-07_13h58.47.957,shape_ratio,2024.1.5,Win32,29.94011976,684250e4f00cb30b92d1fa88,,,,,,,,,,,218.065,218.55,,,218.786,219.271,left,,,,,,,,0.9,,,,,,218.55,218.786,0.45,,219.271,"[-0.08460157381405332,0.0627826045007746]",100.0,"[0.08630562992805865,-0.17599477387904208]",100.0,"[-0.026841051940082322,0.016905320279989228]",4.0,"[-0.09294019799261516,-0.05699036362341869]",100.0,"[-0.10465775146606657,0.1556826901733843]",4.0,"[0.07213175582835057,0.042831225704794196]",100.0,"[0.08269918687114577,-0.07058356987827914]",100.0,"[0.0697789443031603,-0.03230533456546964]",100.0,"[-0.1619901084411148,0.03381387481206289]",100.0,"[-0.03193394136526899,-0.08195745889372782]",100.0,"[0.022053550270393886,-0.06218973249395207]",100.0,"[-0.17318300662133956,-0.09758377915073142]",100.0,"[0.08415063341304156,0.09670209294953057]",100.0,"[0.004774531946601888,-0.1299613259646515]",100.0,"[0.18558503463501771,-0.0007721315238139023]",100.0,"[-0.0799704124193481,0.006519010777556378]",100.0,"[-0.11156997998019381,-0.0948122573752352]",4.0,"[0.0684282408290596,0.18546939568182205]",100.0,"[-0.18105162071974182,-0.009285817898441663]",100.0,"[-0.01986354447637221,0.14115712696850624]",100.0,"[-0.04347906994753735,-0.17989321657315124]",100.0,"[-0.122195548490724,0.08819883784918936]",100.0,"[-0.0516722386082628,0.16944758050577174]",100.0,"[-0.11826873536958503,-0.13443777299680423]",100.0,"[-0.05195496448302406,0.1067290722134247]",100.0,"[0.03450571804434566,-0.17265243235882427]",100.0,"[-0.08115491415606046,-0.1582220118376042]",100.0,"[0.014581093093435252,0.19329198530936725]",100.0,"[0.15855561565748816,0.04819510368273225]",100.0,"[0.18141893617012456,-0.07266702106676946]",100.0,"[0.1512761688635944,0.11373973042724492]",100.0,"[0.13058809704980823,-0.017481491877786984]",100.0,"[0.02,0.02]",220.356,0.0,36.0,36.0,5.0,1.0,,,,,,,
,,,,,,,64b4c078aeb3a03a356ce3b2,6844292707843a64e1c81f3c,2025-06-07_13h58.47.957,shape_ratio,2024.1.5,Win32,29.94011976,684250e4f00cb30b92d1fa88,,,,,,,,,,,220.356,220.843,,,221.074,221.533,left,,,,,,,,0.9,,,,,,220.843,221.074,0.428,,221.533,"[0.11324350976650595,0.14656836475136767]",100.0,"[-0.015114666192890848,-0.08356590078474627]",100.0,"[0.14107308365418328,0.08287147251800647]",4.0,"[0.02753184977458725,-0.1596991050765996]",100.0,"[0.0767212867464565,-0.17010605227284817]",100.0,"[0.1567340286975146,-0.10431862340358558]",100.0,"[-0.05005024666520991,0.039233753297143056]",100.0,"[0.034284269152702634,0.1271304444843343]",100.0,"[-0.12022467234714726,-0.08531438076860266]",100.0,"[-0.05034779536021224,0.18139104651688195]",100.0,"[-0.014832121805153486,-0.1895890068546991]",100.0,"[0.1711312920399229,-0.028419581369798587]",100.0,"[-0.1545259497538491,0.03613455395257444]",100.0,"[0.040543773149910096,-0.029522604472320055]",100.0,"[0.10053330237147252,-0.073598275480353]",100.0,"[-0.17001663938119738,-0.04027167487543699]",100.0,"[-0.0603304101223863,-0.10890237477945827]",100.0,"[0.07387433126330016,-0.0029188086199614318]",100.0,"[0.17463136795710515,0.014488177850420449]",100.0,"[0.1847048421580944,0.07460866874631575]",100.0,"[0.08564232178800468,0.06842459690838529]",100.0,"[-0.016810464687271376,0.14570157426302802]",4.0,"[-0.06094543639515718,-0.0155945577215722]",100.0,"[-0.008409956160132225,-0.12356488594292935]",100.0,"[-0.17185617459888414,0.08287879965240759]",4.0,"[-0.09576004141914488,0.07096265585703851]",100.0,"[0.15026888583841272,0.12398214266427901]",100.0,"[-0.08557587619005094,0.12638402495874299]",100.0,"[-0.017938509730692248,0.07611982393168666]",100.0,"[0.02921617425282875,0.02183647076235894]",100.0,"[-0.04147733523113353,-0.1468871138829207]",100.0,"[0.05446359386333863,0.17772609456467103]",100.0,"[0.02,0.02]",222.62,0.0,37.0,37.0,25.0,1.0,,,,,,,
,,,,,,,64b4c078aeb3a03a356ce3b2,6844292707843a64e1c81f3c,2025-06-07_13h58.47.957,shape_ratio,2024.1.5,Win32,29.94011976,684250e4f00cb30b92d1fa88,,,,,,,,,,,222.62,223.129,,,223.38,223.747,left,,,,,,,,0.6,,,,,,223.129,223.38,0.337,,223.747,"[-0.04044872944051915,-0.06564353238867116]",4.0,"[0.11487864073175522,0.11955411049522796]",4.0,"[0.14198426750290025,0.06377240059793683]",100.0,"[0.07822070333140736,0.07177793601955165]",4.0,"[0.03833200589532361,-0.07564953168596913]",100.0,"[-0.14156123294462195,0.09019792155496618]",4.0,"[0.03501665648935225,-0.16957829416682685]",100.0,"[-0.06805935707250772,-0.01950937221223527]",100.0,"[0.06565246078892534,-0.11205462087623909]",4.0,"[-0.09289342796497502,0.022466085671465016]",4.0,"[-0.09350638005189772,-0.15791389653176388]",100.0,"[-0.09018989926437401,0.12052508870768251]",100.0,"[-0.04003665925814506,0.06140890355151959]",4.0,"[-0.029253595475965413,0.14294939448989807]",100.0,"[-0.010354170946923306,-0.194423696326065]",100.0,"[0.09764890457924486,-0.011440650525309728]",4.0,"[0.009738106589516685,-0.11199303186763471]",4.0,"[0.0114592887460277,-0.02159401142437074]",100.0,"[-0.13002540329813686,-0.07241705500626462]",100.0,"[-0.158123336289472,0.00017967311081484497]",100.0,"[0.14014885210042788,-0.04681912610359187]",100.0,"[-0.0035060139005241484,0.09477289777818869]",4.0,"[0.1063239750786331,-0.11740788171988358]",100.0,"[0.1483868699494098,-0.11849121222962565]",100.0,"[-0.07239429056452658,0.1744226329473155]",4.0,"[-0.1830474648198188,-0.04481074832726484]",100.0,"[0.17234802926892476,-0.011099871968960987]",100.0,"[0.08056026884130098,-0.07386562302420328]",100.0,"[0.036881000711081816,0.09670650407112667]",4.0,"[0.07685317185453368,0.15000686735311505]",4.0,"[-0.14404218899674073,-0.12093418435605092]",100.0,"[0.14801055241114758,0.021601208294227278]",100.0,"[0.02,0.02]",224.844,0.0,38.0,38.0,51.0,1.0,,,,,,,
,,,,,,,64b4c078aeb3a03a356ce3b2,6844292707843a64e1c81f3c,2025-06-07_13h58.47.957,shape_ratio,2024.1.5,Win32,29.94011976,684250e4f00cb30b92d1fa88,,,,,,,,,,,224.844,225.352,,,225.6,225.987,left,,,,,,,,0.9,,,,,,225.352,225.599,0.357,,225.987,"[-0.08122897903943824,0.16297807817202759]",100.0,"[-0.12871607804336585,0.020780299503755262]",100.0,"[0.13703864109358482,0.057674523815822595]",100.0,"[-0.14785094832778956,-0.05533883788305074]",100.0,"[0.026624442390854233,0.07895365366798249]",100.0,"[-0.10389718600132841,-0.07302080739156075]",100.0,"[-0.043918048546541584,-0.013368093457398188]",100.0,"[0.007246617486159467,0.1912187247394616]",100.0,"[-0.18965944040608085,-0.026275429920075935]",100.0,"[0.019549034098796592,-0.027846217622371595]",100.0,"[-0.09449193214180532,-0.14900493946652682]",100.0,"[0.055971099200274994,-0.061896964349759186]",100.0,"[0.01612684670005636,0.14453454491200368]",4.0,"[0.18999822033361602,-0.04182974173264608]",100.0,"[-0.16170491906138776,0.056434430217639296]",100.0,"[0.08665761061801554,-0.1462840709167879]",100.0,"[0.1236592360630755,0.1487627527724139]",100.0,"[-0.037638977231334074,0.0433846583800041]",100.0,"[0.08275877232880881,0.0855286136186421]",4.0,"[0.09157780400340722,0.019312366314560934]",100.0,"[0.005858756682636689,-0.19639568247159286]",100.0,"[-0.03455416178174495,0.1489449553438641]",100.0,"[-0.1254912329618655,0.12855648891484417]",100.0,"[-0.005842504818577805,-0.09817610839405116]",100.0,"[0.06799289614910252,0.18696991917802544]",100.0,"[-0.0863207533022568,-0.03436396270839871]",100.0,"[-0.08333783243596377,0.06091610263218888]",100.0,"[0.1183639390558951,-0.025970680239164236]",100.0,"[0.1279274794278329,-0.09920363689283032]",100.0,"[0.05998556554663415,0.1458606862187232]",100.0,"[0.15869028412340888,0.11052105476556455]",4.0,"[0.00894858946782493,-0.13846403579844582]",100.0,"[0.02,0.02]",227.082,0.0,39.0,39.0,28.0,1.0,,,,,,,
,,,,,,,64b4c078aeb3a03a356ce3b2,6844292707843a64e1c81f3c,2025-06-07_13h58.47.957,shape_ratio,2024.1.5,Win32,29.94011976,684250e4f00cb30b92d1fa88,,,,,,,,,,,227.082,227.561,,,227.798,228.094,left,,,,,,,,0.55,,,,,,227.561,227.798,0.265,,228.094,"[0.13691195711253254,-0.06591098241730349]",100.0,"[-0.025236531465101446,0.19692236392520263]",4.0,"[-0.10682838119988769,0.10759309758354976]",100.0,"[0.09584943253122606,0.1271650001178492]",100.0,"[0.0032369521298679193,0.13744249843541662]",100.0,"[0.04394138279560942,0.054881195338905]",100.0,"[-0.0246401073879282,-0.17295122529012438]",100.0,"[-0.12312688821960606,0.061633868528609845]",4.0,"[-0.11523392703719312,-0.0014291380583085285]",4.0,"[-0.1070291618709563,0.15251481500182537]",100.0,"[-0.049882301516532,-0.0016672453848047214]",4.0,"[0.01675234170712142,-0.04733583621422817]",100.0,"[0.15072609392763944,0.1309291851720583]",100.0,"[0.07386506877740838,0.17393162652862126]",100.0,"[0.0710561432025586,-0.11908733808401109]",4.0,"[0.046234142787754985,0.007178984762289705]",100.0,"[0.13598714489947406,0.09155435033050319]",4.0,"[-0.053250314909015904,0.08877053509064751]",100.0,"[-0.03872073147427098,-0.11708903927976587]",100.0,"[-0.08214102542376135,-0.1156948975646844]",100.0,"[-0.16042868058710807,0.0797583496298785]",100.0,"[0.11881843750401844,0.01839640031737145]",4.0,"[-0.13407111124070845,-0.13112275471121956]",4.0,"[-0.1509466492062957,0.12908802456199414]",100.0,"[-0.07145357747211693,0.179716645315373]",4.0,"[-0.1807344249631216,-0.028870204831064353]",4.0,"[-0.1380109481373751,-0.07020962400526079]",4.0,"[0.1565940464432347,-0.00838410004117442]",4.0,"[-0.01248302542993271,0.058300715731839106]",4.0,"[-0.0699468345305344,0.04331049837003615]",100.0,"[0.04395708339116751,-0.07717402994965133]",4.0,"[0.13851927178941473,-0.14259941238930032]",100.0,"[0.02,0.02]",229.192,0.0,40.0,40.0,79.0,1.0,,,,,,,
,,,,,,,64b4c078aeb3a03a356ce3b2,6844292707843a64e1c81f3c,2025-06-07_13h58.47.957,shape_ratio,2024.1.5,Win32,29.94011976,684250e4f00cb30b92d1fa88,,,,,,,,,,,229.193,229.671,,,229.913,230.399,right,,,,,,,,0.1,,,,,,229.671,229.913,0.454,,230.399,"[0.157808211870667,0.015850178356565436]",4.0,"[0.16940873598941003,0.08321159727262731]",4.0,"[0.02042365851446189,-0.13632894536604728]",4.0,"[-0.03388262088685764,-0.06878151110781236]",4.0,"[-0.07301547727085234,0.08335435859836152]",4.0,"[-0.06356762891937379,-0.18314164481955153]",4.0,"[-0.14080839763305175,0.0023191542862991627]",4.0,"[0.10994272909918183,-0.10681477453593499]",4.0,"[0.08320782839969035,0.03803614532237234]",4.0,"[-0.04535854953560989,0.11369129225911154]",4.0,"[0.00784085040033205,-0.005183487728148841]",4.0,"[0.01637485403139187,-0.04703559024628394]",100.0,"[0.0849075729138712,0.11748510314025068]",4.0,"[0.07474232874399189,-0.004027997721710637]",4.0,"[-0.11373110379073773,0.150612274976296]",4.0,"[0.013177528838281787,0.05116028105258234]",4.0,"[0.12793744699648618,-0.050361139381006094]",100.0,"[0.1929065974738812,-0.02736445995020367]",4.0,"[-0.14873999133619756,-0.11097030742482072]",4.0,"[-0.10193335611328128,-0.13246022321455686]",4.0,"[-0.1971497538312332,-0.002066078060021734]",4.0,"[0.07426977249232898,0.1801280541641703]",4.0,"[-0.0017013123123185321,0.15284263814346394]",4.0,"[-0.16722528406114184,0.03685383143926714]",4.0,"[-0.130979209154395,0.08003011839275327]",4.0,"[0.11628542710907953,-0.16101105734044924]",4.0,"[0.012624600740679401,0.1075280989416296]",4.0,"[-0.03858393520239541,0.033180381361062376]",4.0,"[0.12851029961462362,0.05760322529538243]",100.0,"[-0.08400157150357608,0.013534739159708598]",4.0,"[0.06189302167310777,-0.1880619676746561]",4.0,"[-0.15555406109838965,0.1133745470599274]",4.0,"[0.02,0.02]",231.5,0.0,41.0,41.0,193.0,1.0,,,,,,,
,,,,,,,64b4c078aeb3a03a356ce3b2,6844292707843a64e1c81f3c,2025-06-07_13h58.47.957,shape_ratio,2024.1.5,Win32,29.94011976,684250e4f00cb30b92d1fa88,,,,,,,,,,,231.502,232.009,,,232.257,232.782,left,,,,,,,,0.9,,,,,,232.009,232.257,0.492,,232.782,"[0.08688528757564057,0.08993717885549582]",100.0,"[-0.08901504101357315,-0.09029160087107986]",100.0,"[0.029317828183428638,-0.17570764638649905]",100.0,"[-0.05831945179949483,0.036793892509581524]",100.0,"[0.1336444327655209,-0.129149757528311]",100.0,"[0.01681572740157949,0.11344354031065919]",100.0,"[-0.06527993295424658,0.17831435696831907]",100.0,"[0.16229841482712393,0.036006436948660514]",100.0,"[-0.09709252672998088,0.07419019824786817]",100.0,"[-0.042638631053674735,-0.1684229707529946]",100.0,"[-0.018509849092264753,-0.0772497364723804]",100.0,"[-0.12206553868799588,0.02857746209824801]",4.0,"[0.002040094172506087,0.044694979415379324]",100.0,"[-0.1780979828450049,0.08322556168253945]",100.0,"[-0.18418075087730965,0.010843872723154482]",4.0,"[0.16838860405934403,-0.07778305827048645]",100.0,"[-0.10441133490920852,0.1585428692304342]",100.0,"[-0.14837402380500694,0.12569991415120985]",100.0,"[0.07127316891872898,-0.164541966610293]",100.0,"[0.07488390084842393,-0.06454572930404069]",100.0,"[-0.17039249638349677,-0.09183945949016617]",100.0,"[0.04354668046909795,0.17635645315840892]",4.0,"[0.11637081148966825,0.03427391651165024]",100.0,"[-0.19331149943299955,-0.030212360348529713]",100.0,"[0.036161914079242144,-0.04813220746776057]",100.0,"[0.10768518844647532,0.144585093950206]",100.0,"[-0.09928250147335821,-0.021923631421424616]",100.0,"[0.19195141129881307,0.0031405107604811217]",100.0,"[-0.0005799032667337972,0.1921304383343015]",100.0,"[-0.03966158076491492,0.09373642694520386]",100.0,"[-0.02049516474225349,0.15671739582111321]",100.0,"[0.12460545343830075,-0.0832925378430371]",100.0,"[0.02,0.02]",233.891,0.0,42.0,42.0,19.0,1.0,,,,,,,
,,,,,,,64b4c078aeb3a03a356ce3b2,6844292707843a64e1c81f3c,2025-06-07_13h58.47.957,shape_ratio,2024.1.5,Win32,29.94011976,684250e4f00cb30b92d1fa88,,,,,,,,,,,233.891,234.374,,,234.609,235.035,left,,,,,,,,0.45,,,,,,234.374,234.609,0.396,,235.037,"[-0.11368532698128121,0.009159762963177458]",100.0,"[0.09188906394957869,-0.11407828805206242]",4.0,"[-0.15800125357092912,0.12061508281617815]",4.0,"[0.10714387046027384,0.16681262543214842]",4.0,"[-0.02871706758624669,-0.01754567866785747]",4.0,"[-0.04744501544794309,-0.10030092934170357]",4.0,"[0.014303685070339031,0.05533150377199074]",4.0,"[-0.044411321864646566,0.030436272568136063]",100.0,"[-0.10706552376840492,0.0906301606103086]",100.0,"[0.18758599389918623,-0.02273174367796301]",100.0,"[0.017598735812522734,0.15744576774551908]",4.0,"[-0.1653217292212302,-0.0204757922729096]",4.0,"[0.14845853542672607,-0.07512247196943063]",4.0,"[-0.08401229200056112,-0.15755456695241593]",4.0,"[0.06065007022280178,0.17493061100534832]",4.0,"[0.12576501063263354,0.054095978592914956]",100.0,"[0.12526221514799196,-0.0037972905784708954]",4.0,"[-0.19323084178772496,-0.04935785628430236]",100.0,"[0.08199037497502798,-0.17036591945222504]",100.0,"[-0.14993076224149668,-0.08511561494713615]",100.0,"[-0.06474675462174749,-0.041609419589712544]",100.0,"[0.035676187826830484,-0.02609417839731726]",100.0,"[0.08139396551845356,0.005938690220658991]",100.0,"[0.019570404824552877,-0.0963598182088771]",100.0,"[0.04362658992843876,-0.1367380622899071]",100.0,"[0.0043624405032162685,0.11511147448923388]",100.0,"[-0.11780372108958274,-0.03069313335600171]",4.0,"[-0.009083284493718155,0.18728684874980348]",4.0,"[-0.02598651395068936,-0.14315434877762792]",4.0,"[-0.058615209005966604,0.15217435544916832]",4.0,"[-0.0366633525171126,0.09019310311479932]",4.0,"[0.1696653890427966,0.020382100002385224]",4.0,"[0.02,0.02]",236.116,0.0,43.0,43.0,145.0,1.0,,,,,,,
,,,,,,,64b4c078aeb3a03a356ce3b2,6844292707843a64e1c81f3c,2025-06-07_13h58.47.957,shape_ratio,2024.1.5,Win32,29.94011976,684250e4f00cb30b92d1fa88,,,,,,,,,,,236.118,236.61,,,236.847,237.245,left,,,,,,,,0.45,,,,,,236.61,236.847,0.365,,237.245,"[-0.19644327728084823,0.029780498594297853]",100.0,"[-0.10998801094029644,0.07335093196047972]",4.0,"[-0.058869076819851075,-0.004941415476023122]",100.0,"[0.17531464593158555,-0.056954462220406524]",4.0,"[-0.016777555681847234,-0.005432970743178757]",100.0,"[0.04758880785525346,-0.07973230153936575]",4.0,"[0.14345652086683255,-0.08651343508304178]",100.0,"[0.009744963915280042,-0.04016313504196166]",4.0,"[-0.1105231216035417,-0.15244891922233178]",100.0,"[-0.12579553187526604,0.017462778112155086]",100.0,"[-0.1489612786866094,-0.09944660693880453]",4.0,"[0.10474266354091094,0.01613515707239169]",100.0,"[0.14496032412937926,-0.021705225417519]",100.0,"[0.1384785674602601,0.08627036809949884]",4.0,"[-0.038805395907607385,-0.044835743878536206]",4.0,"[0.10619135703401425,0.15234993291809282]",100.0,"[0.04335623734431224,0.1472366180896778]",4.0,"[-0.11025166041085731,-0.019537084475144455]",100.0,"[0.00034441410598224764,0.19339317372429257]",100.0,"[0.08734519851945541,-0.14879716778788007]",100.0,"[-0.1491353102619562,-0.03007629286989515]",100.0,"[-0.03155380359722093,0.06961585406737231]",4.0,"[0.19152010709480394,-0.0031724045031439477]",4.0,"[0.0467555974668076,-0.022940640126932154]",4.0,"[-0.08016365651071283,0.1679217865805286]",4.0,"[0.053203711419616495,-0.19164725293162424]",4.0,"[-0.0837503897185964,0.10898911376550989]",4.0,"[-0.022826409039447593,-0.17314511684715678]",4.0,"[0.19448014856380014,0.03889372403040432]",4.0,"[-0.15116556232223743,0.09510030582088284]",4.0,"[0.0491486452132222,0.0872717809892277]",4.0,"[-0.02114425947670413,-0.08335976937444463]",100.0,"[0.02,0.02]",238.35,0.0,44.0,44.0,124.0,1.0,,,,,,,
,,,,,,,64b4c078aeb3a03a356ce3b2,6844292707843a64e1c81f3c,2025-06-07_13h58.47.957,shape_ratio,2024.1.5,Win32,29.94011976,684250e4f00cb30b92d1fa88,,,,,,,,,,,238.353,238.832,,,239.073,239.625,left,,,,,,,,0.9,,,,,,238.832,239.073,0.52,,239.625,"[0.10423181153456364,0.1154094491666351]",100.0,"[-0.15762005203401824,0.08061918442383569]",100.0,"[0.06108151548111797,-0.08560030279619686]",100.0,"[-0.1610239366918111,-0.06954414620666168]",100.0,"[-0.09644605193957653,0.06496301110357203]",100.0,"[-0.06753307262561782,0.12816376824786285]",100.0,"[-0.028913768494790704,-0.09072425323068113]",100.0,"[-0.02084391967488363,-0.16596011648923273]",100.0,"[-0.10808851465626079,0.11761085070714458]",100.0,"[0.05976051160851008,-0.16402032725650884]",4.0,"[-0.10602631698487894,0.15952910858647248]",100.0,"[0.13052598907170812,0.0741697521595973]",100.0,"[0.13046996260078098,-0.13297943393679762]",100.0,"[-0.17348391162854696,-0.016080859445283223]",100.0,"[-0.09091421714457715,-0.05345114018303979]",4.0,"[-0.08784786765384585,-0.09377488262337628]",100.0,"[-0.1697291154550305,0.041009713115467354]",100.0,"[0.0760535222694063,0.07127199121951369]",100.0,"[0.008929978459106001,-0.015084290183407782]",100.0,"[0.01624512831398251,-0.07786794357315067]",100.0,"[0.1682708395842082,-0.027193227501082832]",100.0,"[0.12540532556420156,-0.059225035398269024]",100.0,"[0.034454950299626766,0.10330096761742331]",100.0,"[0.15999548747542783,-0.0833012497006138]",100.0,"[0.04780471668346803,0.023308251110107776]",100.0,"[0.1083480052118394,0.03793581543754716]",100.0,"[0.042455623416948,0.1832128238404534]",4.0,"[0.15989084564957118,0.10490367846765088]",100.0,"[-0.12660776351805259,0.0018771641734062112]",100.0,"[-0.08122085989178378,0.003745292884137787]",100.0,"[0.16135267862933508,0.04491178862861436]",100.0,"[-0.02661873698876158,0.050237168660275874]",100.0,"[0.02,0.02]",240.711,0.0,45.0,45.0,12.0,1.0,,,,,,,
,,,,,,,64b4c078aeb3a03a356ce3b2,6844292707843a64e1c81f3c,2025-06-07_13h58.47.957,shape_ratio,2024.1.5,Win32,29.94011976,684250e4f00cb30b92d1fa88,,,,,,,,,,,240.712,241.196,,,241.445,241.833,left,,,,,,,,0.45,,,,,,241.196,241.445,0.353,,241.833,"[-0.03187687150678139,-0.19584253986906466]",4.0,"[-0.19419913091332422,0.03186033792148476]",100.0,"[0.061583642047441815,-0.023635562149897375]",4.0,"[0.04092538223845136,-0.07669956970625487]",4.0,"[-0.06981735759173811,0.11997704298721432]",4.0,"[0.1664605697593337,0.01909196388053881]",100.0,"[-0.05113813832172334,0.07990281907797693]",100.0,"[0.027624307364218007,-0.16049910326705635]",4.0,"[-0.09326640471863815,0.1569132999567845]",100.0,"[0.042304039756164154,0.05664582899827328]",4.0,"[-0.05211953401572293,-0.07350165819158877]",100.0,"[-0.14600225672450237,-0.05050398764558993]",100.0,"[-0.07721301689525939,0.0005143325984918172]",100.0,"[0.0778500254228304,0.10755047503309849]",4.0,"[-0.051626361576015176,-0.14864259388775225]",100.0,"[-0.1407500883917846,0.02486606840856135]",4.0,"[-0.05055284406691928,-0.031848130729404935]",100.0,"[-0.15019985151739296,0.13046120408462766]",100.0,"[0.08259262979774741,0.15065014836320692]",4.0,"[0.1567804460723693,-0.061493991814779006]",100.0,"[0.09207580143620092,0.035514050275028027]",4.0,"[-0.14460278819483782,-0.10241890231493178]",4.0,"[-0.11893329202583343,0.07064195658297473]",4.0,"[0.10056509626486013,-0.0696095778349063]",4.0,"[-0.002194194958995727,0.16465791340976643]",100.0,"[0.17560822474369417,0.06352192735843269]",100.0,"[0.11314618017792594,-0.13307675090018642]",100.0,"[0.0006644165991539963,-0.08995512540287472]",4.0,"[-0.17545429809234078,-0.01440108533195744]",4.0,"[-0.16922067512879418,0.08906345560727486]",4.0,"[-0.12232994316726417,-0.01528160822986677]",4.0,"[-0.010951617253667131,0.028790607182014913]",4.0,"[0.02,0.02]",242.951,0.0,46.0,46.0,147.0,1.0,,,,,,,
,,,,,,,64b4c078aeb3a03a356ce3b2,6844292707843a64e1c81f3c,2025-06-07_13h58.47.957,shape_ratio,2024.1.5,Win32,29.94011976,684250e4f00cb30b92d1fa88,,,,,,,,,,,242.953,243.432,,,243.664,243.96,right,,,,,,,,0.5,,,,,,243.432,243.664,0.265,,243.96,"[0.08445158466528921,0.13224508330655177]",4.0,"[0.004714024545981252,-0.03258320975516198]",100.0,"[0.17151614676888835,-0.054746438122120336]",4.0,"[-0.10525812160150115,-0.09990637574223862]",100.0,"[-0.08669548605826449,0.1318707922328725]",4.0,"[-0.015660103197929154,-0.13125514686328207]",4.0,"[0.11068200860068748,-0.11085491614738116]",100.0,"[0.08410428159074328,0.06990150196612169]",100.0,"[0.020364431111957963,0.17200997820103972]",100.0,"[-0.022620309154540674,0.07179574785757764]",100.0,"[0.1486300300603372,0.07106226064807865]",4.0,"[-0.11746992920584909,0.008500642880931454]",4.0,"[-0.022658019168616424,-0.18218832523169984]",100.0,"[0.030328814795807627,0.05881272723476477]",100.0,"[0.01726425209365324,0.10738859120775142]",4.0,"[-0.1436566322887529,0.09636875404795084]",100.0,"[0.11358904339247697,0.032090686648097735]",100.0,"[0.044051092040465,0.015776288569792535]",4.0,"[-0.07464484768385206,0.07955026129741212]",100.0,"[-0.023362014550747486,0.14105703187961618]",4.0,"[0.03462118461558546,-0.1401728536266257]",4.0,"[-0.15786010004226522,0.028389929607759636]",4.0,"[-0.0258581695215385,-0.08697083043825252]",4.0,"[-0.05729098194472711,-0.004159561567510826]",4.0,"[0.18015411209128568,0.03656824945077616]",100.0,"[0.19204152307020883,-0.004604811527035101]",100.0,"[-0.12354643801086447,-0.038308823307846886]",100.0,"[0.10215721578125879,-0.0401818132719195]",4.0,"[0.06690022990836612,-0.16659621815551776]",4.0,"[-0.194576254242824,-0.040707994537924876]",100.0,"[-0.15053104487555985,-0.08407293420901457]",100.0,"[-0.0815778779941278,-0.14988602712519508]",4.0,"[0.02,0.02]",245.054,0.0,47.0,47.0,107.0,1.0,,,,,,,
,,,,,,,64b4c078aeb3a03a356ce3b2,6844292707843a64e1c81f3c,2025-06-07_13h58.47.957,shape_ratio,2024.1.5,Win32,29.94011976,684250e4f00cb30b92d1fa88,,,,,,,,,,,245.054,245.54,,,245.776,246.162,right,,,,,,,,0.55,,,,,,245.54,245.776,0.355,,246.162,"[-0.1094364836778955,0.1334228800368169]",4.0,"[-0.009111007711101097,0.17536178481460896]",100.0,"[0.0639563053414609,0.1187431253304475]",100.0,"[-0.08772678973687642,-0.13508051642580082]",100.0,"[-0.002827324985490963,-0.15249382551700197]",4.0,"[-0.044305869547159704,0.12167640777908363]",100.0,"[0.030086632363391107,-0.07434474729550038]",100.0,"[0.13833217779230247,-0.008650864784131152]",4.0,"[-0.04227830024944597,-0.10107005247577713]",4.0,"[-0.08830721000612633,0.049871578285474685]",4.0,"[0.04867572085428016,0.05724057234349962]",100.0,"[0.19253495407423019,-0.04353313575169602]",4.0,"[0.10389982078099272,0.05490850332726144]",100.0,"[-0.1376457400981892,0.08890011898259627]",4.0,"[0.14303152173041225,-0.059302572581901566]",100.0,"[0.05702625492437568,0.1822755293417451]",100.0,"[0.03515226886934704,-0.18990931158059873]",4.0,"[0.019457742021236096,-0.01942319816361351]",100.0,"[0.09405892702729349,-0.08259587382553342]",4.0,"[0.17356760480493902,0.03550956767422674]",100.0,"[0.012278862226528544,0.029451453674829386]",4.0,"[-0.1451431973136072,-0.08813995397309535]",4.0,"[-0.19445205002250676,0.043516336250855284]",4.0,"[-0.09538237673198827,0.009490877888190676]",4.0,"[-0.04100890855394388,0.002820650608932151]",100.0,"[-0.02522258296067689,0.08459163849086486]",100.0,"[0.02070281500176418,0.14585004112967728]",100.0,"[0.14204355866779228,0.07903274561481494]",100.0,"[0.11457061220047673,0.11879897282682192]",100.0,"[-0.15502704680622667,-0.03143668849228259]",100.0,"[0.0749509570500129,-0.01216131925835117]",4.0,"[-0.19133376442120073,-0.00969923516390188]",100.0,"[0.02,0.02]",247.26,0.0,48.0,48.0,66.0,1.0,,,,,,,
,,,,,,,64b4c078aeb3a03a356ce3b2,6844292707843a64e1c81f3c,2025-06-07_13h58.47.957,shape_ratio,2024.1.5,Win32,29.94011976,684250e4f00cb30b92d1fa88,,,,,,,,,,,247.261,247.747,,,247.981,248.368,left,,,,,,,,0.6,,,,,,247.747,247.981,0.356,,248.368,"[-0.055340319390628265,-0.013610652682702852]",100.0,"[0.1684842889367752,-0.08516650770575004]",100.0,"[-0.14304510272812868,-0.117373405997355]",100.0,"[0.02023260765585092,-0.18001412458515806]",4.0,"[-0.022385763198418875,-0.12136653541260219]",4.0,"[-0.028728291415813654,0.10414335007382791]",4.0,"[0.18937043308093,-0.012548802612235644]",100.0,"[-0.17618029377685634,-0.05782122782078283]",100.0,"[-0.1634113008280976,-0.019595132672890456]",4.0,"[-0.026690249991482472,0.1494709863068484]",4.0,"[-0.16461194718954872,0.05292176406813366]",100.0,"[0.02925971029799975,0.1917821766219553]",100.0,"[0.09596309526979419,-0.10432676421184596]",100.0,"[0.14343877119098503,-0.02619417287699264]",4.0,"[0.03738433229372238,0.14063345502513874]",4.0,"[0.09085873895159963,0.09413501516191508]",100.0,"[-0.07642832316552996,-0.08389388404933698]",100.0,"[0.02249835242881064,-0.1389798856341739]",100.0,"[0.10392157619998771,0.13783186034382494]",4.0,"[-0.09253891805269822,-0.1477389656007391]",4.0,"[-0.03219919660425179,-0.07505739046660581]",100.0,"[0.021142572498061698,-0.04199270396260645]",100.0,"[0.010017123455597065,0.016140125251583863]",100.0,"[-0.10730521704309832,0.08533666000612863]",4.0,"[-0.05291972507535149,-0.178353008206285]",4.0,"[-0.10656831235626521,0.14837627498181774]",4.0,"[-0.08506211527658605,0.04231670832635506]",100.0,"[-0.06533924373596806,0.18376166476270608]",100.0,"[0.1548080884727779,0.06430951926657318]",100.0,"[-0.09651204395337086,-0.021682957133680195]",100.0,"[0.04371292948369639,0.06708155541868985]",4.0,"[0.010316345350199657,-0.08293864372306005]",100.0,"[0.02,0.02]",249.468,0.0,49.0,49.0,34.0,1.0,,,,,,,
