right,left,explain.started,explain.stopped,key_resp_3.keys,key_resp_3.rt,key_resp_3.duration,participant,session,date,expName,psychopyVersion,OS,frameRate,study_id,explain_2.started,explain_2.stopped,key_resp_4.keys,key_resp_4.rt,key_resp_4.duration,explain_3.started,explain_3.stopped,key_resp_5.keys,key_resp_5.rt,key_resp_5.duration,fixation.started,fixation.stopped,practice.started,practice.stopped,response.started,response.stopped,key_resp.keys,key_resp.rt,key_resp.duration,feedback.started,feedback.stopped,trials_2.thisRepN,trials_2.thisTrialN,trials_2.thisN,trials_2.thisIndex,trials_2.ran,dot_ratio,explain_4.started,explain_4.stopped,key_resp_6.keys,key_resp_6.rt,key_resp_6.duration,dotDisplay.started,dotDisplay.stopped,ITI.started,polygon_1.pos,polygon_1.edges,polygon_2.pos,polygon_2.edges,polygon_3.pos,polygon_3.edges,polygon_4.pos,polygon_4.edges,polygon_5.pos,polygon_5.edges,polygon_6.pos,polygon_6.edges,polygon_7.pos,polygon_7.edges,polygon_8.pos,polygon_8.edges,polygon_9.pos,polygon_9.edges,polygon_10.pos,polygon_10.edges,polygon_11.pos,polygon_11.edges,polygon_12.pos,polygon_12.edges,polygon_13.pos,polygon_13.edges,polygon_14.pos,polygon_14.edges,polygon_15.pos,polygon_15.edges,polygon_16.pos,polygon_16.edges,polygon_17.pos,polygon_17.edges,polygon_18.pos,polygon_18.edges,polygon_19.pos,polygon_19.edges,polygon_20.pos,polygon_20.edges,polygon_21.pos,polygon_21.edges,polygon_22.pos,polygon_22.edges,polygon_23.pos,polygon_23.edges,polygon_24.pos,polygon_24.edges,polygon_25.pos,polygon_25.edges,polygon_26.pos,polygon_26.edges,polygon_27.pos,polygon_27.edges,polygon_28.pos,polygon_28.edges,polygon_29.pos,polygon_29.edges,polygon_30.pos,polygon_30.edges,polygon_31.pos,polygon_31.edges,polygon_32.pos,polygon_32.edges,dot_size,ITI.stopped,trials.thisRepN,trials.thisTrialN,trials.thisN,trials.thisIndex,trials.ran,break_2.started,break_2.stopped,trials_3.thisRepN,trials_3.thisTrialN,trials_3.thisN,trials_3.thisIndex,trials_3.ran
subject chose diamond,subject chose dot,0.0003,21.1924,space,6.1789,,6560ae1c1cc374fa2049dd0c,684428ee82600a1b38356ed8,2025-06-07_12h56.50.273,shape_ratio,2024.1.5,Win32,59.52380952,684250e4f00cb30b92d1fa88,,,,,,,,,,,,,,,,,,,,,,,,,,,,,,,,,,,,,,,,,,,,,,,,,,,,,,,,,,,,,,,,,,,,,,,,,,,,,,,,,,,,,,,,,,,,,,,,,,,,,,,,,,,,,,,,,
,,,,,,,6560ae1c1cc374fa2049dd0c,684428ee82600a1b38356ed8,2025-06-07_12h56.50.273,shape_ratio,2024.1.5,Win32,59.52380952,684250e4f00cb30b92d1fa88,21.193,51.8579,space,0.6394,,,,,,,,,,,,,,,,,,,,,,,,,,,,,,,,,,,,,,,,,,,,,,,,,,,,,,,,,,,,,,,,,,,,,,,,,,,,,,,,,,,,,,,,,,,,,,,,,,,,,,,,,,,,,
,,,,,,,6560ae1c1cc374fa2049dd0c,684428ee82600a1b38356ed8,2025-06-07_12h56.50.273,shape_ratio,2024.1.5,Win32,59.52380952,684250e4f00cb30b92d1fa88,,,,,,51.8585,55.4817,space,0.6078,,,,,,,,,,,,,,,,,,,,,,,,,,,,,,,,,,,,,,,,,,,,,,,,,,,,,,,,,,,,,,,,,,,,,,,,,,,,,,,,,,,,,,,,,,,,,,,,,,,,,,,,
,,,,,,,6560ae1c1cc374fa2049dd0c,684428ee82600a1b38356ed8,2025-06-07_12h56.50.273,shape_ratio,2024.1.5,Win32,59.52380952,684250e4f00cb30b92d1fa88,,,,,,,,,,,55.4926,55.9922,55.993,56.2317,56.2318,56.8794,right,0.6235,,56.8794,57.9745,0.0,0.0,0.0,0.0,1.0,0.2,,,,,,,,,,,,,,,,,,,,,,,,,,,,,,,,,,,,,,,,,,,,,,,,,,,,,,,,,,,,,,,,,,,,,,,,,,,,,,,,,,,,,,
,,,,,,,6560ae1c1cc374fa2049dd0c,684428ee82600a1b38356ed8,2025-06-07_12h56.50.273,shape_ratio,2024.1.5,Win32,59.52380952,684250e4f00cb30b92d1fa88,,,,,,,,,,,57.977,58.474,58.4743,58.7144,58.7145,58.9912,left,0.2528,,58.9916,60.0931,0.0,1.0,1.0,1.0,1.0,0.8,,,,,,,,,,,,,,,,,,,,,,,,,,,,,,,,,,,,,,,,,,,,,,,,,,,,,,,,,,,,,,,,,,,,,,,,,,,,,,,,,,,,,,
,,,,,,,6560ae1c1cc374fa2049dd0c,684428ee82600a1b38356ed8,2025-06-07_12h56.50.273,shape_ratio,2024.1.5,Win32,59.52380952,684250e4f00cb30b92d1fa88,,,,,,,,,,,,,,,,,,,,,,,,,,,,60.0933,64.8247,space,1.7069,,,,,,,,,,,,,,,,,,,,,,,,,,,,,,,,,,,,,,,,,,,,,,,,,,,,,,,,,,,,,,,,,,,,,,,,,,,,,,,,,,
,,,,,,,6560ae1c1cc374fa2049dd0c,684428ee82600a1b38356ed8,2025-06-07_12h56.50.273,shape_ratio,2024.1.5,Win32,59.52380952,684250e4f00cb30b92d1fa88,,,,,,,,,,,64.8353,65.3413,,,65.5976,65.8909,left,0.2687,,,,,,,,,0.45,,,,,,65.343,65.5976,65.892,"[-0.16676069392677356,0.09906183785458131]",100.0,"[-0.05256236095745469,0.1771565626178857]",4.0,"[0.06723338374072528,0.03417133271041423]",4.0,"[0.15877557982617538,-0.017435469740370222]",100.0,"[-0.1007958393482009,-0.10941970100770879]",100.0,"[-0.010162297744569029,0.1894366261687863]",4.0,"[-0.040411074971596773,-0.017084011993173706]",100.0,"[-0.14478533277852415,-0.1139724591489691]",4.0,"[0.007202176250506204,-0.09055420983854848]",4.0,"[-0.08295853416483248,-0.028644581686831573]",4.0,"[0.14123672300301002,-0.1361094984989239]",100.0,"[0.10583557382335347,-0.10300543318022716]",100.0,"[0.045279680626321546,-0.10756678246595495]",4.0,"[-0.08124415117191829,0.03414444519819463]",4.0,"[0.048559284613031516,-0.1612042274855668]",4.0,"[0.07842738572568171,-0.0215782285366252]",4.0,"[-0.10155241746302834,-0.16928347754928622]",4.0,"[0.006133955151762309,-0.13150732382117977]",100.0,"[0.0017329451640588484,0.0951040973050162]",4.0,"[-0.04862374206045503,-0.18767765483837112]",100.0,"[-0.03555755618430583,0.13857296641418212]",4.0,"[-0.03909785387497154,0.04934537161620602]",100.0,"[0.10225096169930709,-0.16323615262433522]",4.0,"[0.05427980664849703,0.1907579154384693]",4.0,"[-0.0016600995390380817,0.006609621861251589]",4.0,"[-0.14820498020194495,-0.07121037328777553]",100.0,"[0.05800210096563187,0.1504188183088409]",100.0,"[-0.15118664455328815,0.0036326907105437233]",100.0,"[0.018359461348625428,-0.04970268351825691]",4.0,"[0.12415650627387928,0.1485414321539153]",100.0,"[-0.051508874950730504,-0.06824201788027699]",100.0,"[-0.036073062917542975,-0.10773300072415158]",4.0,"[0.02,0.02]",66.9912,0.0,0.0,0.0,136.0,1.0,,,,,,,
,,,,,,,6560ae1c1cc374fa2049dd0c,684428ee82600a1b38356ed8,2025-06-07_12h56.50.273,shape_ratio,2024.1.5,Win32,59.52380952,684250e4f00cb30b92d1fa88,,,,,,,,,,,66.9926,67.4908,,,67.7472,68.0736,right,0.3023,,,,,,,,,0.4,,,,,,67.4911,67.7471,68.0738,"[-0.0758410707241612,-0.09948811594672008]",100.0,"[0.0185552462270703,0.05322742613644957]",4.0,"[-0.08062541633227535,-0.011494901781742084]",4.0,"[-0.011945616420112893,0.17329744123687188]",4.0,"[0.08700392107917666,-0.06710680611170511]",4.0,"[0.11753445008213391,0.13617180336485374]",100.0,"[-0.1330281473120289,0.058440412005396083]",100.0,"[0.15056376813609873,-0.03141828001080772]",4.0,"[0.021064187702212748,-0.04285246767457879]",4.0,"[0.1226905826641691,0.07275793202613175]",100.0,"[-0.08933770719114757,0.09646132922045994]",100.0,"[-0.06603181332568718,-0.05401427157197369]",4.0,"[0.05963018109245606,-0.11441687742050363]",4.0,"[0.19260509010513022,-0.014581575119468936]",4.0,"[0.0337127540293193,0.1775715994181223]",4.0,"[-0.16466995188116168,0.026050686750975792]",4.0,"[-0.05005406087653061,0.0482695330108551]",4.0,"[-0.0020583128858527064,0.08992416929238953]",4.0,"[0.017995265763533875,-0.13874836456249037]",4.0,"[0.08892944888110314,0.023359798875264837]",100.0,"[-0.1536414714911221,-0.08034449547728328]",4.0,"[0.1704054812657194,0.04112173149122509]",100.0,"[-0.04164949587335878,0.1357958078733853]",100.0,"[0.13766795642399832,-0.09225573690646187]",100.0,"[-0.11316403302873572,-0.12476633184333663]",100.0,"[-0.024021460542035782,-0.1481498680129204]",100.0,"[-0.13833142955608937,-0.018747178351235013]",4.0,"[0.03575000416342206,-0.17948625840204918]",4.0,"[-0.18884723286775956,-0.035878804425080575]",4.0,"[0.04978287174859073,0.10335881567373516]",100.0,"[-0.1446278133887353,0.12378408161769619]",4.0,"[0.16370301246827526,0.1089789426956969]",100.0,"[0.02,0.02]",69.1742,0.0,1.0,1.0,177.0,1.0,,,,,,,
,,,,,,,6560ae1c1cc374fa2049dd0c,684428ee82600a1b38356ed8,2025-06-07_12h56.50.273,shape_ratio,2024.1.5,Win32,59.52380952,684250e4f00cb30b92d1fa88,,,,,,,,,,,69.1756,69.6728,,,69.9169,69.9902,left,0.0516,,,,,,,,,0.1,,,,,,69.6731,69.9168,69.9904,"[-0.09800091939274762,-0.057067113445760334]",100.0,"[-0.007542907060097075,-0.04160167470574561]",4.0,"[-0.0971271120501412,0.13800795613831127]",4.0,"[-0.04534752918596029,-0.10892959836733482]",4.0,"[-0.06844955132259352,-0.15339476537631305]",4.0,"[0.1240031122715848,-0.07251030271726978]",4.0,"[-0.1952661238942604,0.002859913561890265]",4.0,"[-0.05827205958235521,0.17442090385345171]",4.0,"[0.16991780107246707,-0.08501265231628846]",4.0,"[0.06078315440522571,-0.18824218074993346]",100.0,"[0.029327937401425645,0.02922854482397253]",100.0,"[0.07050977605864926,0.044585372096850935]",4.0,"[0.08446756173849938,-0.04464773345511292]",4.0,"[-0.037720312686131664,0.13206969447831793]",4.0,"[-0.11530014678052337,-0.01581557276474075]",4.0,"[0.048124335680514545,-0.133831701028076]",4.0,"[0.008710961054545815,-0.16862267680980172]",4.0,"[0.1680678972833191,0.018044440551972626]",4.0,"[0.0435895726499045,0.11185680094162691]",4.0,"[0.13050579418175054,-0.12153904340361932]",4.0,"[-0.16031839332948983,-0.0751578305221472]",4.0,"[-0.05906518258407021,0.04553331667959153]",4.0,"[0.1547982088319825,0.08863705895372667]",4.0,"[0.01505228801689058,0.0819699660055072]",4.0,"[0.07493029726792397,0.17460777186514542]",4.0,"[0.08107517184489092,-0.11026325322173773]",4.0,"[0.1980962053779112,-0.01074704421970708]",4.0,"[0.13272839525156174,-0.029130086442758073]",4.0,"[-0.15180724151758815,0.02443986203668534]",4.0,"[-0.0891321988348188,-0.10514322735355797]",4.0,"[0.11081077948574251,-0.16616544761145374]",4.0,"[0.022061921537519093,0.19262426078687578]",4.0,"[0.02,0.02]",71.0902,0.0,2.0,2.0,196.0,1.0,,,,,,,
,,,,,,,6560ae1c1cc374fa2049dd0c,684428ee82600a1b38356ed8,2025-06-07_12h56.50.273,shape_ratio,2024.1.5,Win32,59.52380952,684250e4f00cb30b92d1fa88,,,,,,,,,,,71.0918,71.5906,,,71.8451,72.3405,right,0.4691,,,,,,,,,0.55,,,,,,71.5909,71.845,72.3409,"[0.04788031827675688,-0.14013796453811878]",100.0,"[0.0039053572995459453,-0.1673599125571725]",4.0,"[0.04550982626520698,0.012658648535589066]",4.0,"[-0.11433817519758564,-0.025547678574826427]",4.0,"[0.0760139725821982,0.05309885035762903]",100.0,"[-0.07561916562413427,0.07595430213832763]",100.0,"[0.11012472150034858,0.11745727412122005]",4.0,"[-0.007132188627784321,0.09110220862619425]",100.0,"[-0.042326560689877335,-0.04172680738150088]",100.0,"[-0.05705501085404042,0.17935569891742115]",100.0,"[-0.043351652073496,-0.14318936641353422]",4.0,"[-0.1821683204728378,0.0716017666422459]",4.0,"[0.13055387119370285,0.042885647940078715]",100.0,"[-0.019442682623772835,0.040618330822056604]",4.0,"[0.1874442325468686,0.003824810767702904]",100.0,"[0.036047086606469124,0.17711598452429939]",100.0,"[-0.18424656150290739,-0.005814548968814121]",100.0,"[0.16749329364626114,-0.05498205946328424]",4.0,"[-0.11117292258638155,0.1321089580379386]",100.0,"[-0.13047266226681115,0.04491075542372615]",4.0,"[0.17674086318059526,0.09286430268437844]",4.0,"[-0.0826682282384085,-0.1251575140864583]",100.0,"[0.0944740847799058,-0.05961225364733565]",4.0,"[-0.05850810699325437,0.13227915066691698]",4.0,"[-0.01672295794884042,0.16007149747583724]",100.0,"[0.012947263492008185,-0.045881761956735566]",100.0,"[-0.03694755275911875,-0.1030569679250821]",4.0,"[-0.08263575969694359,-0.07060933946549523]",100.0,"[0.04758625514309532,-0.19130845361280494]",100.0,"[0.1540592874374918,-0.11598824231388107]",100.0,"[0.05112644622402725,-0.07698477916825766]",4.0,"[-0.13762246933217984,0.10138564753457996]",100.0,"[0.02,0.02]",73.44,0.0,3.0,3.0,71.0,1.0,,,,,,,
,,,,,,,6560ae1c1cc374fa2049dd0c,684428ee82600a1b38356ed8,2025-06-07_12h56.50.273,shape_ratio,2024.1.5,Win32,59.52380952,684250e4f00cb30b92d1fa88,,,,,,,,,,,73.4415,73.9406,,,74.1803,74.6902,right,0.4851,,,,,,,,,0.9,,,,,,73.9408,74.1801,74.6905,"[-0.037643216387688735,0.10652420517402054]",100.0,"[-0.12312381324452548,-0.016875963740662813]",100.0,"[0.1837415773290526,0.07359495514006913]",100.0,"[-0.08074143132595965,0.0004256160650428576]",100.0,"[0.08430994277741828,0.013834985937043045]",100.0,"[-0.03472642823707295,0.05991672670858574]",100.0,"[0.047977274415997306,-0.016706545967770263]",100.0,"[-0.08272191261372219,0.1635355882603562]",100.0,"[0.07104021807456436,-0.18101050391030776]",4.0,"[-0.11565466074225339,0.06238131441270058]",100.0,"[-0.18792815421492048,0.06281675471668736]",100.0,"[-0.0006391893739432132,-0.025287111621010692]",100.0,"[-0.0032341513594407612,0.18283217703900928]",100.0,"[0.06227064144725367,0.07798825694498486]",100.0,"[-0.1454163291162147,-0.12640079497924087]",4.0,"[0.0017556646584220579,-0.16256678189936208]",100.0,"[-0.11570532205293632,-0.09908342613205959]",100.0,"[-0.08960844468578343,-0.061223993352704384]",100.0,"[0.07297961336652611,-0.07358410540789506]",100.0,"[0.0986249734517565,0.16428343988210237]",100.0,"[0.04145500896774952,-0.15166270242893753]",100.0,"[0.026224889235230246,-0.06256598788733984]",100.0,"[0.10275410656158512,-0.14568770698560438]",100.0,"[0.044349638144717075,0.11558698822125574]",100.0,"[-0.08203694528302945,-0.12617702202003744]",100.0,"[0.09765977842100941,0.11305628311876113]",100.0,"[0.15564686293301708,-0.0910529950186968]",100.0,"[-0.19623283885769857,-0.029905006036015813]",100.0,"[0.12348865657022047,-0.05502921868362051]",100.0,"[-0.03787559438332074,0.01961454424507283]",100.0,"[-0.14022661315422177,0.11725032473027223]",4.0,"[-0.15101473467324994,0.012157541539057437]",100.0,"[0.02,0.02]",75.7803,0.0,4.0,4.0,14.0,1.0,,,,,,,
,,,,,,,6560ae1c1cc374fa2049dd0c,684428ee82600a1b38356ed8,2025-06-07_12h56.50.273,shape_ratio,2024.1.5,Win32,59.52380952,684250e4f00cb30b92d1fa88,,,,,,,,,,,75.7805,76.2742,,,76.5293,76.6936,left,0.1469,,,,,,,,,0.5,,,,,,76.2744,76.5292,76.6936,"[-0.12555450540779342,0.033730406133419044]",100.0,"[-0.018390947758703247,-0.06351744010228]",100.0,"[-0.0024008785378559373,0.18141106187472533]",4.0,"[-0.06116368156255153,0.10570176195826748]",4.0,"[-0.1584545404689158,0.10772869664602042]",4.0,"[-0.04059620723984841,-0.0005347381240457523]",100.0,"[0.03228470010124924,-0.16322350006119007]",100.0,"[-0.007340089438859293,0.0328679396581737]",4.0,"[0.05508630328137274,0.07594390478643712]",4.0,"[-0.10276322874422333,-0.1648512497238298]",100.0,"[-0.13216980594775693,-0.028399774579099864]",4.0,"[-0.04556098187481283,-0.17926819141995282]",4.0,"[0.04871841010527271,-0.0454694928462682]",4.0,"[0.1795755925759151,-0.07817596196727988]",100.0,"[0.00708043342556711,-0.09701106688951783]",100.0,"[-0.13333649872895928,-0.09532228233870248]",100.0,"[0.17278754057105067,-0.03773929730903036]",4.0,"[0.08793636373753809,-0.057431462256937314]",4.0,"[0.12684764355828645,0.051570831101143036]",4.0,"[0.10813696927817822,0.09114714697145992]",100.0,"[-0.020748919644863254,0.12020731442919422]",100.0,"[-0.08259067751828805,-0.002051844878372006]",100.0,"[-0.10128036305336714,-0.12261868223250787]",100.0,"[0.1786577096267008,0.0823953495375533]",4.0,"[0.07534461843227498,0.1537611325875096]",4.0,"[-0.17826143691704868,-0.013012956748534405]",100.0,"[-0.18585604568186895,-0.06571749745469196]",4.0,"[-0.06654201872687321,-0.04503922529853253]",100.0,"[0.08249855974058742,-0.14500135964291613]",100.0,"[0.08564876418374737,0.037057715859077835]",4.0,"[0.18416981886246955,0.01047157302203042]",100.0,"[-0.004467416507350772,-0.1976480098011716]",4.0,"[0.02,0.02]",77.7905,0.0,5.0,5.0,114.0,1.0,,,,,,,
,,,,,,,6560ae1c1cc374fa2049dd0c,684428ee82600a1b38356ed8,2025-06-07_12h56.50.273,shape_ratio,2024.1.5,Win32,59.52380952,684250e4f00cb30b92d1fa88,,,,,,,,,,,77.7922,78.2897,,,78.5454,79.1475,right,0.5968,,,,,,,,,0.45,,,,,,78.2899,78.5454,79.1475,"[0.05351098564836078,-0.10793571565076358]",100.0,"[-0.11539388634563982,-0.05774779652499173]",4.0,"[0.040143638616077566,-0.010393499240862589]",100.0,"[-0.09395132522730049,0.15347682881489014]",4.0,"[0.00022052664428472176,-0.18104042676564086]",4.0,"[0.03724658596367621,0.18056376772709887]",4.0,"[-0.02993734482161606,-0.04965932489214902]",100.0,"[0.053759414672805164,0.12873190756522268]",4.0,"[-0.1774134493869704,-0.06018827340003666]",4.0,"[-0.07944842737275364,-0.02813719388454537]",4.0,"[-0.06907778001054096,0.03529060068083261]",4.0,"[0.15917776490285734,-0.09758291076283467]",4.0,"[0.01802340571294565,0.06792238302112875]",100.0,"[-0.05806360142568845,-0.16146046237795084]",4.0,"[-0.03697745682269756,-0.09998113695060346]",4.0,"[0.08486151645625443,0.015414019712369841]",100.0,"[-0.155067109423448,0.03972173345287907]",4.0,"[0.18914316620700383,0.06280132432147954]",100.0,"[-0.1979639423953194,0.016335776883784653]",4.0,"[0.18616125261144198,-0.007530419074011945]",4.0,"[0.0614222012200216,-0.1647076679274506]",100.0,"[-0.07365047614675316,-0.0755064936519187]",100.0,"[-0.04545033185803766,0.15597789372336837]",100.0,"[0.15149390876324134,0.07979243757551555]",4.0,"[-0.025355503818052696,0.052657799809390476]",100.0,"[0.1599988942272934,0.023287196075601937]",100.0,"[0.11126702588948506,-0.030089463654678093]",100.0,"[-0.12445323318188278,-0.12303453173439954]",4.0,"[0.1262072094633297,-0.14725110098888627]",4.0,"[-0.034512088382538844,0.19580641483556288]",100.0,"[0.1500439909701131,-0.048338904591564986]",4.0,"[-0.1579513083827909,0.1048973731807272]",100.0,"[0.02,0.02]",80.2458,0.0,6.0,6.0,127.0,1.0,,,,,,,
,,,,,,,6560ae1c1cc374fa2049dd0c,684428ee82600a1b38356ed8,2025-06-07_12h56.50.273,shape_ratio,2024.1.5,Win32,59.52380952,684250e4f00cb30b92d1fa88,,,,,,,,,,,80.2461,80.74,,,80.992,81.1065,left,0.085,,,,,,,,,0.1,,,,,,80.7403,80.9917,81.1068,"[0.058979363887004504,0.06210619334984288]",4.0,"[0.08940371733334611,0.13589108225943963]",4.0,"[0.08038246423729965,-0.03366028102058129]",4.0,"[-0.12497000131632546,-0.14135692166770922]",4.0,"[0.15460248016810924,-0.11182261701441171]",4.0,"[-0.0788903749847076,0.13552828032700548]",4.0,"[-0.00603468174843391,-0.15264239063138382]",4.0,"[0.14640757600038387,-0.06424463302235309]",4.0,"[-0.006415766854813943,-0.10892515462522168]",4.0,"[-0.05217946583319696,-0.164992661044871]",4.0,"[0.1067745019280546,0.006133100596067253]",4.0,"[-0.08939175894007155,0.03885295929200459]",4.0,"[-0.16910084777201193,-0.019500514662942718]",4.0,"[-0.15126395396723177,0.04681440742375734]",4.0,"[-0.0518828967662248,0.08532413313442899]",4.0,"[0.016849961907429822,0.16358781970355224]",4.0,"[0.055008748281584766,-0.1599281409645814]",4.0,"[-0.09532573347872039,0.0920103010723551]",100.0,"[-0.16695913557193243,0.09362552369282806]",4.0,"[0.04849363461625452,0.12069502061861366]",4.0,"[0.12538927443937115,-0.02949511708223396]",4.0,"[-0.09879625860122059,-0.013014199474938423]",4.0,"[-0.02963348202206317,-0.05344267560179487]",4.0,"[-0.13650758188730655,-0.08870653787885979]",4.0,"[-0.08218347242874856,-0.050889361478549236]",4.0,"[0.13082464861379295,0.12140703928289355]",4.0,"[0.1454940019398582,0.037015146556371975]",4.0,"[-0.002822660883736366,0.1212003841606135]",4.0,"[0.06782806893106691,-0.10620787033307894]",4.0,"[-0.00989449189216011,0.07769410171875314]",100.0,"[0.12142893953894139,-0.14085013977134048]",100.0,"[0.03663169351602629,0.02483546041226641]",4.0,"[0.02,0.02]",82.2062,0.0,7.0,7.0,204.0,1.0,,,,,,,
,,,,,,,6560ae1c1cc374fa2049dd0c,684428ee82600a1b38356ed8,2025-06-07_12h56.50.273,shape_ratio,2024.1.5,Win32,59.52380952,684250e4f00cb30b92d1fa88,,,,,,,,,,,82.2074,82.7066,,,82.9601,83.173,left,0.1878,,,,,,,,,0.5,,,,,,82.7068,82.96,83.1733,"[-0.1311980143358695,0.1276240802753725]",4.0,"[-0.12155103848251574,-0.10294563094911398]",4.0,"[-0.04666340654817503,-0.13100397533548866]",100.0,"[0.09319016172036047,-0.0778324784907997]",100.0,"[0.14557594825031372,0.0722859701370384]",4.0,"[-0.1522085596806342,0.06824392253548472]",4.0,"[-0.004551057594097295,-0.09116322780947554]",100.0,"[0.07386064389042768,0.05096484536040326]",100.0,"[0.037382771088105504,0.15522374868420521]",4.0,"[-0.030574626279330407,-0.03561757917653675]",4.0,"[-0.03410588804961313,0.14054451239377325]",4.0,"[0.18878671010352713,-0.018821120259236997]",100.0,"[0.08213822533072229,0.1288355870320865]",100.0,"[-0.16315893897991074,0.01897868437988097]",4.0,"[0.0007978148423090475,0.10896580307270637]",100.0,"[-0.10907879290062959,0.004452228908743537]",100.0,"[0.1533881617680866,-0.06194407036033493]",100.0,"[0.022809725143308965,0.008645125185830632]",4.0,"[0.12249728022403088,-0.02286637008301596]",4.0,"[0.17687806759578648,0.04414083318028555]",100.0,"[-0.1800491787324894,-0.08637146000334284]",4.0,"[-0.055762920482107986,0.07903936456055874]",100.0,"[-0.08955838178144933,0.04202616982418538]",100.0,"[0.13157325090870434,-0.13849692531925245]",100.0,"[0.03361144943814786,-0.1392490164612066]",100.0,"[-0.0574527413964526,0.0021481860084276026]",4.0,"[-0.0736992408422483,-0.07952815977307125]",100.0,"[-0.09950293275278269,-0.15425084395826122]",4.0,"[-0.1744275959170581,-0.04281375496391526]",4.0,"[0.08596713704422829,0.17752635539267902]",4.0,"[0.04665405755759384,-0.04302906029386737]",4.0,"[0.14321856679901748,0.13360010909981]",100.0,"[0.02,0.02]",84.2734,0.0,8.0,8.0,116.0,1.0,,,,,,,
,,,,,,,6560ae1c1cc374fa2049dd0c,684428ee82600a1b38356ed8,2025-06-07_12h56.50.273,shape_ratio,2024.1.5,Win32,59.52380952,684250e4f00cb30b92d1fa88,,,,,,,,,,,84.2749,84.7726,,,85.0305,85.1729,right,0.1289,,,,,,,,,0.1,,,,,,84.7728,85.0305,85.173,"[-0.13472879334749535,-0.005106566529774185]",4.0,"[-0.043491202556084414,0.10771036250696832]",4.0,"[-0.0023554320722375863,0.10449143105110759]",4.0,"[0.09411506863629823,0.16001706163603288]",100.0,"[0.0011873696455344648,-0.040588968539785594]",100.0,"[0.04019627109179931,0.09491314006630112]",4.0,"[-0.18803801211456522,-0.05088447860645612]",4.0,"[-0.03177965798490343,0.17116837666166468]",4.0,"[0.10723961669013411,-0.08983106035686932]",4.0,"[-0.027683811835092338,-0.16153463828302117]",4.0,"[-0.05237142459401669,0.015536864200760645]",4.0,"[0.04023272669124949,0.13519621485608305]",4.0,"[0.0948709575066902,0.008053557505387512]",4.0,"[0.0813532826598096,0.05684403498489305]",4.0,"[0.05816545210626774,0.19022287239838512]",4.0,"[0.0431720314429433,0.02293615157668105]",4.0,"[-0.09842307252626928,-0.03383679789990744]",4.0,"[0.04396597653803908,-0.06250816209167434]",4.0,"[-0.15238673870431402,0.09729016457471353]",4.0,"[0.00889596563039725,0.06423863281272038]",4.0,"[-0.18396445001014125,0.041308862381873826]",4.0,"[-0.01242611400741969,-0.08410635559682621]",4.0,"[-0.057293296558948534,-0.0966724627808845]",4.0,"[-0.11838637291168888,-0.14362726754165392]",100.0,"[-0.07646833392009089,0.061069842768737385]",4.0,"[0.15435532181016082,0.03467188954958287]",4.0,"[0.13418826554963514,-0.01866698791741583]",4.0,"[0.10629378959676729,0.09379390955481037]",4.0,"[-0.1618918590105647,-0.09196331798326965]",4.0,"[-0.08269148313799654,0.11860030404976694]",4.0,"[0.02965678584295399,-0.19337713496839826]",4.0,"[0.0684885753065155,-0.14511492672641604]",4.0,"[0.02,0.02]",86.2627,0.0,9.0,9.0,207.0,1.0,,,,,,,
,,,,,,,6560ae1c1cc374fa2049dd0c,684428ee82600a1b38356ed8,2025-06-07_12h56.50.273,shape_ratio,2024.1.5,Win32,59.52380952,684250e4f00cb30b92d1fa88,,,,,,,,,,,86.2629,86.7568,,,86.9957,87.4393,left,0.4254,,,,,,,,,0.9,,,,,,86.7571,86.9956,87.4395,"[-0.1299767237255341,-0.11408058633152778]",100.0,"[0.032239989884226085,-0.11098732558366124]",100.0,"[-0.002042860530524336,0.1053536393303917]",100.0,"[0.1520688924665822,-0.09315846830878087]",100.0,"[0.08341380352633762,0.11076015852506393]",100.0,"[0.12826064056087144,0.07262332023011964]",100.0,"[-0.16401794900507008,-0.07423290164458167]",100.0,"[0.14395711152008708,0.11619286403955272]",100.0,"[-0.0830857258838988,-0.16037171399948774]",100.0,"[-0.10115361306276503,0.16988141007863075]",100.0,"[-0.04483624472021146,-0.09648481432723836]",100.0,"[0.10610313071837794,-0.06318294656915352]",100.0,"[-0.024565198518644134,0.1966515380067094]",100.0,"[0.15002465880991586,-0.015133829907580441]",100.0,"[0.07627385786270104,-0.01709370862796285]",100.0,"[-0.06332731978047657,-0.041176509011911507]",100.0,"[-0.030501177241879337,0.029815055193121057]",100.0,"[0.016413807437496247,-0.01069158194436968]",100.0,"[-0.022267124001110444,-0.06083506373377502]",100.0,"[0.024179166206239895,0.19262772795977]",100.0,"[-0.1280869965975872,0.0004912892475715791]",100.0,"[-0.0841165374374275,-0.11853733908664082]",100.0,"[-0.049212305196558725,-0.19304532980068134]",100.0,"[0.18879611362084422,-0.032023915804385884]",4.0,"[-0.010520136802410693,-0.14284665585016706]",100.0,"[0.04170962136818637,0.11298346343504242]",100.0,"[0.0453107678201831,-0.048082856110474734]",100.0,"[-0.11680252791156631,0.09742231219637852]",100.0,"[-0.05512040072702962,0.14195477655671493]",100.0,"[0.07959051263614891,0.15939560375790818]",4.0,"[0.05612679656332955,-0.1513806385678859]",4.0,"[-0.17233248267590154,-0.02022315249310697]",100.0,"[0.02,0.02]",88.5394,0.0,10.0,10.0,16.0,1.0,,,,,,,
,,,,,,,6560ae1c1cc374fa2049dd0c,684428ee82600a1b38356ed8,2025-06-07_12h56.50.273,shape_ratio,2024.1.5,Win32,59.52380952,684250e4f00cb30b92d1fa88,,,,,,,,,,,88.5411,89.0391,,,89.2959,89.7243,left,0.4128,,,,,,,,,0.55,,,,,,89.0394,89.2959,89.7245,"[-0.0609864521144247,0.017616378261679444]",100.0,"[0.03899084476938149,-0.19247848105961948]",4.0,"[-0.11169512050609837,0.15723596292689956]",100.0,"[0.06432203210646409,-0.15770556713026612]",4.0,"[0.16443788370187767,-0.10657605484802837]",100.0,"[0.04277696632576437,0.1257319595233778]",100.0,"[0.01712066148194143,-0.04407302988887155]",4.0,"[-0.09602259054306979,-0.07197472541885523]",4.0,"[-0.19101904502466477,-0.049480179394240674]",4.0,"[-0.05006518624006559,0.11514415550604226]",100.0,"[0.13238710928320366,-0.02981150007202185]",100.0,"[0.03651132275057514,0.07003436663183528]",100.0,"[-0.018792820935412353,0.18423920716696826]",100.0,"[-0.014618043672422781,0.03626678430462485]",100.0,"[0.153241368404804,0.06173353165080728]",100.0,"[0.07656571116935573,-0.040851165659887695]",4.0,"[0.022907506517520364,0.16149339098779306]",4.0,"[-0.16583189280700952,0.022317145257694296]",100.0,"[-0.13793044458162385,-0.03170400557431403]",100.0,"[0.06872916441224226,-0.09607867457059757]",100.0,"[-0.15166445956781305,0.06761637396262632]",100.0,"[0.18089375828163395,-0.009044730667534686]",4.0,"[-0.059490198583854466,-0.18253927561668026]",4.0,"[-0.1251799842249912,-0.1391880003093841]",4.0,"[0.026313331423971426,0.027368944250947165]",4.0,"[-0.020195009180030993,-0.15904524607805595]",100.0,"[0.1519087937317086,0.11116061839692921]",100.0,"[-0.12737034710885517,0.10004086471644691]",100.0,"[0.0958030675225921,0.1111044952505996]",4.0,"[-0.0993984248628675,0.05465496424494567]",4.0,"[0.11202747699778108,-0.08753218273131685]",4.0,"[0.07674699148666829,0.011792710637986184]",100.0,"[0.02,0.02]",90.8234,0.0,11.0,11.0,87.0,1.0,,,,,,,
,,,,,,,6560ae1c1cc374fa2049dd0c,684428ee82600a1b38356ed8,2025-06-07_12h56.50.273,shape_ratio,2024.1.5,Win32,59.52380952,684250e4f00cb30b92d1fa88,,,,,,,,,,,90.8248,91.3222,,,91.5806,91.8798,right,0.2834,,,,,,,,,0.4,,,,,,91.3224,91.5805,91.8799,"[-0.14140950633405877,-0.09234841102956923]",4.0,"[-0.1556185768960134,0.056932289748482176]",4.0,"[-0.009858795012713962,0.045819068243946603]",4.0,"[0.17144043028338757,-0.05804269447945424]",100.0,"[-0.11653473872944092,0.13988824281403017]",4.0,"[0.09371499349715776,0.09539954120866762]",4.0,"[-0.022720083999475192,-0.11429844461964349]",4.0,"[0.018834004992500094,0.002294196977765896]",4.0,"[0.03320060212850802,0.1453584536814073]",100.0,"[-0.04374912339445983,-0.056955059240411866]",4.0,"[0.08447966744659242,-0.04561140044302405]",4.0,"[0.040620369919887836,-0.08566896404286406]",100.0,"[0.03423698229228085,0.18877924274250918]",100.0,"[0.12571525852737578,-0.09727783156025091]",100.0,"[-0.18311568791794636,-0.0657302688007833]",4.0,"[0.13924360285520948,0.03647672717019806]",4.0,"[-0.06483736876800658,-0.12229451090312982]",4.0,"[0.017850989395564735,-0.1902939624411242]",100.0,"[0.10654949497049734,0.14979706954794333]",4.0,"[-0.049065583328401455,-0.006531990996086142]",4.0,"[-0.06716149915999436,0.031143992459580425]",100.0,"[-0.08508337274838446,-0.06675520394091962]",100.0,"[0.07624909821092378,-0.1648761446836806]",4.0,"[0.05192011428596075,0.08510979845607074]",4.0,"[0.14362054653865575,0.11471870786237402]",100.0,"[0.19273899512414258,0.044388435042108994]",100.0,"[-0.0396720949923128,0.18905123972850502]",4.0,"[-0.07669291437221032,0.1535121084064228]",100.0,"[-0.10893179370217838,-0.15002553005326805]",4.0,"[-0.11266777276681289,-0.017431455741414758]",100.0,"[0.014148122050373559,-0.05382842753309778]",100.0,"[0.1756863205275387,-0.0018600572352570949]",4.0,"[0.02,0.02]",92.973,0.0,12.0,12.0,172.0,1.0,,,,,,,
,,,,,,,6560ae1c1cc374fa2049dd0c,684428ee82600a1b38356ed8,2025-06-07_12h56.50.273,shape_ratio,2024.1.5,Win32,59.52380952,684250e4f00cb30b92d1fa88,,,,,,,,,,,92.9747,93.4715,,,93.7125,94.1226,left,0.3857,,,,,,,,,0.4,,,,,,93.4718,93.7125,94.1228,"[0.1303214235866888,-0.03210122674599169]",4.0,"[0.12627619066963663,-0.10319358358172169]",100.0,"[-0.05110505348866774,-0.008778104000526043]",4.0,"[0.05212867129249596,0.1220684782589009]",100.0,"[-0.011255256035101508,-0.09526272109269797]",100.0,"[0.12970359358140776,0.08325450584246641]",4.0,"[0.05239944111067135,0.04376145612319013]",4.0,"[-0.06467095422682868,-0.15383402943982025]",4.0,"[-0.18586246523397937,-0.005497609470802742]",100.0,"[0.1834765658544947,0.03230078243978056]",100.0,"[0.08559852505111175,0.1512086537782248]",4.0,"[-0.009485581318781515,0.09042947678136651]",100.0,"[-0.10093222287702673,-0.07694564490205039]",4.0,"[0.08837036120752387,-0.02632760120272379]",4.0,"[-0.042745801678480466,0.0662818271102996]",100.0,"[-0.10004851493952353,-0.12043306324723971]",4.0,"[-0.007321800536585015,-0.026942288025417052]",100.0,"[-0.05340938005181226,-0.07358086175598715]",4.0,"[0.07450553796864284,-0.07418307612591092]",4.0,"[-0.023579559258757838,0.18029633879352056]",100.0,"[-0.13835468248496258,0.09468011348580473]",100.0,"[-0.15400228845347888,-0.07673195361485705]",4.0,"[-0.09379066404481225,0.14283723204214618]",100.0,"[0.14499978467499264,0.045445578163638596]",100.0,"[-0.07012536668808186,0.18729313970515815]",4.0,"[0.07599842370142217,-0.13136994794483664]",100.0,"[0.1556255701205377,0.003033164437273643]",4.0,"[-0.16092556928866908,0.04956294556899361]",4.0,"[0.09292455706828333,0.03945510406031274]",4.0,"[0.03838016111092283,-0.16114942730561443]",4.0,"[0.014738840197469905,-0.12697402377092085]",4.0,"[0.03257905191358852,0.191181449570844]",4.0,"[0.02,0.02]",95.2222,0.0,13.0,13.0,169.0,1.0,,,,,,,
,,,,,,,6560ae1c1cc374fa2049dd0c,684428ee82600a1b38356ed8,2025-06-07_12h56.50.273,shape_ratio,2024.1.5,Win32,59.52380952,684250e4f00cb30b92d1fa88,,,,,,,,,,,95.2238,95.7231,,,95.9793,96.4559,right,0.4599,,,,,,,,,0.45,,,,,,95.7232,95.9792,96.456,"[0.09372096928029677,0.055550127033126534]",4.0,"[0.17171428166194708,0.043542439188911305]",4.0,"[-0.14362663192341948,-0.012432552500998523]",4.0,"[0.0711580572118323,0.15341910719718138]",4.0,"[-0.007397640329502057,-0.031907746327802536]",4.0,"[-0.044072358435908766,-0.13998404565084602]",100.0,"[-0.02092887500024253,-0.0868539953295615]",100.0,"[0.13944851341429898,-0.13013759153162394]",4.0,"[0.08323976865771711,-0.02125419025473995]",4.0,"[-0.043176908315547026,0.1167582259051645]",100.0,"[0.00017216616933910995,-0.1559132839805072]",100.0,"[-0.08984318576711574,-0.0030380897115538158]",4.0,"[-0.17994833606656707,-0.08438146304630212]",100.0,"[-0.1419822810974546,0.109759838463923]",100.0,"[-0.04782056008188981,0.05853985370263105]",100.0,"[0.06181721040578203,-0.11088272308921317]",4.0,"[-0.04388354009883862,-0.19428590984084945]",100.0,"[0.10449225732208493,-0.16467914237130862]",4.0,"[0.02719165329124953,0.10764195167015507]",100.0,"[-0.17769686841923574,0.08163825979510064]",100.0,"[0.17987179167205095,-0.04910627542473132]",100.0,"[0.10252976613506387,-0.0844111168181302]",100.0,"[0.06195613676585626,-0.18027892426939152]",4.0,"[0.0072468156401181445,0.05994659478556129]",4.0,"[-0.08785459204374241,-0.06713423036358432]",4.0,"[-0.08572873379408424,-0.12781500378290422]",4.0,"[0.045164074248435944,0.04170536810907389]",4.0,"[-0.13339688007312864,-0.1405981017863807]",4.0,"[-0.09494662667551784,0.1249820014517712]",100.0,"[-0.00202774063544285,0.18146979784095085]",4.0,"[-0.14612727203152057,0.0400609531716]",4.0,"[0.1708957379873399,0.09909123989027407]",100.0,"[0.02,0.02]",97.5564,0.0,14.0,14.0,140.0,1.0,,,,,,,
,,,,,,,6560ae1c1cc374fa2049dd0c,684428ee82600a1b38356ed8,2025-06-07_12h56.50.273,shape_ratio,2024.1.5,Win32,59.52380952,684250e4f00cb30b92d1fa88,,,,,,,,,,,97.5577,98.0555,,,98.3117,98.6728,left,0.3387,,,,,,,,,0.9,,,,,,98.0557,98.3117,98.673,"[-0.054745790124508524,-0.019031129762433933]",100.0,"[0.07090049838470493,-0.11181283736027343]",100.0,"[-0.010323190717360587,-0.11455348624392428]",100.0,"[-0.08653489047638185,-0.1373833740312202]",100.0,"[-0.12181798326706639,-0.0873793304163897]",100.0,"[0.028439196495689004,0.0006136086306743441]",100.0,"[0.13111647196883797,-0.03253884066477859]",100.0,"[0.03976593812814132,-0.14270891693842794]",100.0,"[-0.09369919988345322,0.05254219622212134]",100.0,"[0.17627154248390664,0.04575475488407965]",100.0,"[-0.08600105189399596,0.14052973326582688]",100.0,"[0.04294923840197644,0.1909008172425502]",100.0,"[0.11136122027682935,-0.09844553386492971]",100.0,"[0.18630139102738222,-0.027504298672605138]",100.0,"[0.01461736303467138,0.10837065577333792]",100.0,"[0.012625042072084485,-0.17588133564377398]",100.0,"[0.11698322352489743,0.11663749755934502]",4.0,"[-0.17718683543498873,0.04225245052358522]",4.0,"[0.07420531164206912,-0.004226834255202478]",100.0,"[-0.029328602146777814,-0.05291962815720891]",100.0,"[-0.03985850854898207,-0.15232726100066019]",100.0,"[0.07651593155523793,-0.058033686175673005]",100.0,"[-0.02708878210688912,0.020810304202594193]",4.0,"[-0.13640692324165762,0.0030548095290963426]",100.0,"[0.09754839102009082,-0.16269045799837714]",100.0,"[-0.12434697718867194,-0.04086163967190969]",100.0,"[0.12549382599841416,0.025749151038733747]",100.0,"[-0.03168949691285919,0.17200514830346852]",100.0,"[-0.11652146647336893,0.11143724906367995]",100.0,"[-0.16445192023539335,-0.10489231710686804]",100.0,"[-0.02268366728031953,0.07567490288937553]",100.0,"[0.08608906856099494,0.16945197671333467]",100.0,"[0.02,0.02]",99.7729,0.0,15.0,15.0,13.0,1.0,,,,,,,
,,,,,,,6560ae1c1cc374fa2049dd0c,684428ee82600a1b38356ed8,2025-06-07_12h56.50.273,shape_ratio,2024.1.5,Win32,59.52380952,684250e4f00cb30b92d1fa88,,,,,,,,,,,99.7747,100.2717,,,100.5279,100.9562,right,0.4142,,,,,,,,,0.5,,,,,,100.272,100.5279,100.9564,"[-0.1844353673229423,-0.02256126068523244]",4.0,"[0.08368698271564792,0.0981687837142791]",100.0,"[-0.16090728676948834,0.020812371178466117]",100.0,"[-0.0471473809830962,-0.016122907507616687]",100.0,"[-0.0003515648161169798,-0.01272862093734015]",4.0,"[0.1588234904192948,0.05893374065611748]",4.0,"[0.0252776063443856,0.031049744886354355]",100.0,"[-0.1034622422991796,0.041295215346754004]",100.0,"[0.14786644331990845,-0.009186656940430516]",4.0,"[-0.053084770313212515,0.04704489806139121]",4.0,"[0.12486335708626012,-0.10124761063470078]",100.0,"[0.03195074556938674,0.0827056750718851]",100.0,"[-0.1008609776507265,-0.09633008268494503]",100.0,"[0.079020293611192,-0.03884035623705359]",100.0,"[0.19195906665815127,-0.02698946310500083]",4.0,"[-0.027874194424230635,-0.1462931199612171]",100.0,"[-0.12639127349870427,-0.03556002465261449]",4.0,"[-0.11544505912648355,0.0959139547320064]",4.0,"[0.018451005972766492,-0.11652173563746163]",100.0,"[0.08776606876099506,-0.08065537699578594]",100.0,"[0.003399595180782697,0.14917765728610582]",4.0,"[-0.11832037002096768,0.14869912484133072]",100.0,"[0.1121089623562399,0.14280001721677052]",4.0,"[-0.05609415781209129,0.15019070912063567]",4.0,"[-0.01457358143864992,0.06833337255160032]",100.0,"[0.03856414626043837,-0.16939927844252237]",4.0,"[0.1687738718832767,0.1052186137799308]",4.0,"[-0.1267404666133145,-0.12777830554908262]",100.0,"[-0.02689103958026852,-0.07267493059477285]",4.0,"[-0.06440453462821988,-0.168739620249531]",4.0,"[0.08767564669639805,0.01778183185581863]",100.0,"[0.04560184011616444,-0.06214378010802627]",4.0,"[0.02,0.02]",102.0554,0.0,16.0,16.0,107.0,1.0,,,,,,,
,,,,,,,6560ae1c1cc374fa2049dd0c,684428ee82600a1b38356ed8,2025-06-07_12h56.50.273,shape_ratio,2024.1.5,Win32,59.52380952,684250e4f00cb30b92d1fa88,,,,,,,,,,,102.0568,102.556,,,102.8058,103.1088,left,0.2802,,,,,,,,,0.9,,,,,,102.5562,102.8056,103.1088,"[-0.11514605038760316,-0.15323996390140782]",100.0,"[-0.014576582639875218,-0.15217426358582456]",100.0,"[-0.1649030101643421,0.06295712579678041]",100.0,"[-0.07105965909325239,-0.07218145559427433]",100.0,"[-0.1379805141701486,-0.03302628932430099]",100.0,"[-0.07605746441070779,0.15793923816807395]",100.0,"[0.08811706819534747,-0.018940440335488383]",100.0,"[0.09371522604458363,0.03121909281823226]",100.0,"[-0.07497191867561387,0.022373862711325392]",100.0,"[-0.02457783554312021,0.03940300662836458]",100.0,"[0.12482100247616464,0.13078941974231587]",100.0,"[0.04099191771522361,-0.1435343451737353]",100.0,"[-0.04068224917472881,0.09059408778459865]",4.0,"[0.0064067244412699745,0.08814909155397772]",100.0,"[-0.08446343632534149,0.08937365234233974]",4.0,"[-0.1338306909740234,0.09323979265286952]",100.0,"[0.07383625299146533,0.08781672093944208]",100.0,"[0.019640049568988585,0.1586520994043831]",100.0,"[0.09152509926958326,-0.1296871757170602]",100.0,"[-0.0959772450533488,-0.11115812310843363]",100.0,"[0.05918943573029748,0.1269307061363743]",100.0,"[-0.0040364346785376395,-0.017889957314911713]",100.0,"[0.116134363544746,-0.04869757879341134]",100.0,"[0.16646425992189742,0.0753004804784548]",100.0,"[-0.08569317810155996,-0.02771585006926208]",100.0,"[-0.0256219687048331,0.13456093717886308]",4.0,"[0.12814029892690584,-0.10628354626409514]",100.0,"[-0.07983057446772777,-0.18308060385398028]",100.0,"[0.18894207417722653,0.04029890851572672]",100.0,"[0.036032714295682416,0.04412961967574503]",100.0,"[0.17271813254583127,-0.06688526567736486]",100.0,"[-0.010557057190933717,-0.06936870499790074]",100.0,"[0.02,0.02]",104.2055,0.0,17.0,17.0,11.0,1.0,,,,,,,
,,,,,,,6560ae1c1cc374fa2049dd0c,684428ee82600a1b38356ed8,2025-06-07_12h56.50.273,shape_ratio,2024.1.5,Win32,59.52380952,684250e4f00cb30b92d1fa88,,,,,,,,,,,104.2071,104.7053,,,104.9459,105.3725,left,0.4028,,,,,,,,,0.55,,,,,,104.7054,104.9459,105.3726,"[0.0958202584001248,0.02309727614797649]",4.0,"[0.15945921392022203,-0.036819559949335466]",100.0,"[0.005888457455674324,-0.17642565738448454]",4.0,"[-0.07740885356625372,-0.12830287714337796]",4.0,"[-0.15637314646888176,0.03284553049605967]",100.0,"[0.06671031024689356,0.12524698672041612]",100.0,"[-0.05414526587995072,-0.17543995610859706]",100.0,"[-0.053111524298581084,-0.06327494056156335]",100.0,"[0.043074515378543475,-0.06950956296696821]",100.0,"[0.07322184881363543,-0.10229026632962983]",4.0,"[-0.15327550899262796,0.08670830865869164]",100.0,"[-0.09057615649936135,-0.020820125843426115]",100.0,"[-0.1262341066820403,0.12904670785795355]",4.0,"[0.008637965740720243,-0.12780463223210495]",100.0,"[-0.1668808345933476,-0.0719230228617582]",4.0,"[0.0807414467255837,-0.027090324250619326]",4.0,"[0.162217413365872,0.07863246776691758]",100.0,"[-0.10990380068698817,0.0453030820038051]",100.0,"[0.025527084851501982,-0.005426380584527667]",100.0,"[0.16975919308790444,0.032538305745424226]",4.0,"[0.12698098768201627,-0.1253575676408072]",4.0,"[0.18126473317376418,-0.0735569425871941]",4.0,"[-0.1618979888541727,-0.01898908347034427]",4.0,"[0.11738143155906577,0.09862919721380056]",100.0,"[-0.06416327205699078,0.12422644965040384]",100.0,"[-0.0025448365150837512,0.15554992164266382]",100.0,"[0.045885395689722074,-0.17196725462701817]",4.0,"[0.03176426422114904,0.04155962195370003]",100.0,"[0.189595913121044,-0.0036982338757595022]",100.0,"[0.049356554080236884,0.186314504015378]",100.0,"[-0.05207192165159322,0.06191695689394734]",4.0,"[-0.1312126874323808,-0.11877804800383854]",4.0,"[0.02,0.02]",106.4721,0.0,18.0,18.0,77.0,1.0,,,,,,,
,,,,,,,6560ae1c1cc374fa2049dd0c,684428ee82600a1b38356ed8,2025-06-07_12h56.50.273,shape_ratio,2024.1.5,Win32,59.52380952,684250e4f00cb30b92d1fa88,,,,,,,,,,,106.4737,106.9721,,,107.2303,107.5556,right,0.3014,,,,,,,,,0.55,,,,,,106.9723,107.2302,107.5558,"[-0.030094265206174937,-0.03196087359192104]",4.0,"[-0.10172800672007773,-0.027361605636462318]",100.0,"[-0.1527788166788644,-0.10783350812747401]",100.0,"[-0.06362054019778618,-0.11870688933449967]",100.0,"[-0.12897840289736248,0.024431097290127605]",100.0,"[0.021965059551191133,0.010435437509754055]",4.0,"[-0.068762171099195,0.13207523805174046]",100.0,"[0.12157047325458495,-0.03992828665038309]",4.0,"[0.1267625542186798,-0.0900598834568029]",4.0,"[0.12024457693282817,0.06536241076354964]",100.0,"[0.0247802554242133,-0.11177316156079474]",100.0,"[-0.04027787016239676,0.008890787629878367]",100.0,"[-0.022177571436709714,0.14770152928489008]",4.0,"[-0.16735992809466893,-0.04343002841027865]",100.0,"[0.09414601446063732,0.022559727169471487]",100.0,"[-0.1414048420223596,0.13690317847475617]",4.0,"[-0.1216187579029378,0.07715551139463815]",4.0,"[0.013261253799209938,0.16884401948455707]",4.0,"[-0.007734779105428893,0.0964252089534722]",100.0,"[0.12253743980337517,0.14236675311128247]",100.0,"[-0.07496556442895413,0.08341509038866018]",4.0,"[0.17119551973459038,0.016926459194887934]",4.0,"[-0.05810383005172883,0.17238538878158224]",4.0,"[-0.08067371062199266,-0.07520336474800683]",4.0,"[0.010674487155053394,-0.19500670292431443]",100.0,"[0.055554587776727,0.053034945512501715]",100.0,"[-0.027029295219689786,-0.14750806703419592]",100.0,"[0.05930459945782716,-0.08948735912045025]",100.0,"[0.022562750590804866,-0.034357816174925816]",4.0,"[-0.17657501316535557,0.0074008939416057035]",100.0,"[-0.09095006514990225,-0.15054152049007005]",4.0,"[0.07958463745059367,0.08890575439288534]",100.0,"[0.02,0.02]",108.6558,0.0,19.0,19.0,63.0,1.0,,,,,,,
,,,,,,,6560ae1c1cc374fa2049dd0c,684428ee82600a1b38356ed8,2025-06-07_12h56.50.273,shape_ratio,2024.1.5,Win32,59.52380952,684250e4f00cb30b92d1fa88,,,,,,,,,,,108.6574,109.1553,,,109.3931,109.6725,left,0.2667,,,,,,,,,0.55,,,,,,109.1555,109.3931,109.6728,"[-0.12029415744263434,0.07592365723057809]",100.0,"[-0.0763681213806277,0.17934034158840967]",4.0,"[0.08847099057255328,-0.1088235662453065]",4.0,"[0.14025840973600262,-0.040648372752651984]",100.0,"[-0.17421892772801845,0.04835053010061301]",100.0,"[0.05911819523953526,-0.1741576223533281]",4.0,"[0.09813185539330552,-0.004057125068118485]",4.0,"[-0.0745492406928517,-0.08314896657610367]",4.0,"[0.045835861663623766,0.03996264002547271]",4.0,"[0.06466268696097689,0.13622346290319776]",4.0,"[0.09888794466142807,0.16275818141433748]",100.0,"[0.1001805024005964,-0.1703721469645686]",100.0,"[-0.04232793252830188,0.022224906112955106]",4.0,"[-0.02457767794381252,-0.09372335270851545]",100.0,"[-0.11568166938780297,-0.08040651765276813]",4.0,"[0.08909361994803497,-0.04511074919203804]",100.0,"[0.13697315263100635,-0.1367705650077692]",100.0,"[0.03541099712552392,-0.04150917313174679]",100.0,"[0.12849878902125123,0.05207153413090672]",100.0,"[-0.002667168418438236,0.04523456240989755]",4.0,"[0.17889567612099996,0.04801585159686211]",100.0,"[0.024437369841218585,-0.1404327683142222]",4.0,"[0.025172286266151762,-0.09086494757963476]",100.0,"[-0.19842389244751596,-0.010289406990633427]",4.0,"[-0.11014241368486548,-0.1630726725799319]",100.0,"[-0.06530273375756653,-0.14507893032387703]",100.0,"[-0.07463132821456156,0.1340189932890348]",100.0,"[-0.09043602718564296,-0.02647353718245815]",100.0,"[-0.01851229721907281,0.09536474279595337]",4.0,"[0.10888901337327932,0.10409920623913058]",4.0,"[-0.039428562940222955,-0.030060350484361942]",100.0,"[0.15808855754541215,-0.10264402481927916]",100.0,"[0.02,0.02]",110.7717,0.0,20.0,20.0,84.0,1.0,,,,,,,
,,,,,,,6560ae1c1cc374fa2049dd0c,684428ee82600a1b38356ed8,2025-06-07_12h56.50.273,shape_ratio,2024.1.5,Win32,59.52380952,684250e4f00cb30b92d1fa88,,,,,,,,,,,110.7732,111.2716,,,111.5223,111.807,right,0.2525,,,,,,,,,0.5,,,,,,111.2718,111.5221,111.8074,"[0.08635635230470609,0.13566756021171472]",4.0,"[0.030454567278005173,-0.05113485915352388]",100.0,"[-0.17654880891980815,0.025407699472278424]",4.0,"[0.11126048689975922,-0.038961800881028553]",4.0,"[0.0038329110381258337,-0.17183886231970757]",100.0,"[0.19494841212329914,-0.02271756398957514]",4.0,"[-0.1381719542439487,-0.05013608495064842]",100.0,"[-0.1541887954048711,-0.10508688216587149]",100.0,"[-0.049377410852921994,0.03740372817373422]",4.0,"[0.015034752758087307,-0.13299123753285857]",4.0,"[0.039953724610382324,0.19394059070578193]",100.0,"[0.08901707249276478,-0.13075898308444922]",100.0,"[0.048041489523323586,0.0712328844676947]",4.0,"[0.008151891520324186,0.1649816921236432]",4.0,"[0.15612069481492005,0.11909939482280324]",100.0,"[0.11643153981523668,-0.08796089404368862]",100.0,"[-0.12234065117862263,0.016205404019511253]",100.0,"[-0.028509072016073556,0.18382404759447352]",100.0,"[-0.0149288695446464,0.07282956374663471]",100.0,"[-0.035449526978523126,-0.0767892304175347]",4.0,"[-0.09827919084634229,-0.08775634773491856]",100.0,"[-0.10775644734640892,-0.1438237803420138]",4.0,"[-0.1274624051283036,0.1414600505872152]",4.0,"[0.04883827309503993,-0.16362001760895836]",100.0,"[-0.04033187328488975,0.13137265090413744]",4.0,"[-0.18991022196857602,-0.02780066355752327]",100.0,"[-0.08083283804082766,0.12094577260946499]",4.0,"[0.10826484845393915,0.08811876736342204]",4.0,"[-0.03219748608801126,-0.11766467917442325]",100.0,"[0.1597762657865916,0.011573942457436223]",100.0,"[0.1887241182433084,0.050161696115500615]",4.0,"[0.013598109526975356,-0.011281697287655804]",4.0,"[0.02,0.02]",112.9054,0.0,21.0,21.0,111.0,1.0,,,,,,,
,,,,,,,6560ae1c1cc374fa2049dd0c,684428ee82600a1b38356ed8,2025-06-07_12h56.50.273,shape_ratio,2024.1.5,Win32,59.52380952,684250e4f00cb30b92d1fa88,,,,,,,,,,,112.9068,113.4083,,,113.6607,113.9061,left,0.2377,,,,,,,,,0.6,,,,,,113.4083,113.6607,113.9062,"[-0.10148585855177718,0.07814794215796007]",100.0,"[0.05545628522246834,0.1546456236067269]",100.0,"[0.00031752240970803647,0.07162204170841266]",100.0,"[0.04514121647590063,-0.09274129587820291]",100.0,"[0.11903050541138836,0.04954511902011895]",4.0,"[0.09051550901197046,0.08919893351643145]",100.0,"[0.18694690141573372,0.019526719717288938]",4.0,"[0.028575770538280032,-0.025302470239315623]",100.0,"[0.04600671991431099,-0.14735088548300262]",100.0,"[-0.0670560602855509,-0.047638377428572735]",4.0,"[-0.030941490427035645,0.15880742186537286]",100.0,"[-0.12877131876536277,-0.05686123336537997]",4.0,"[-0.025212100437299434,-0.03798272739905465]",100.0,"[-0.1103057456721031,0.016444004702512054]",100.0,"[0.14734115874880457,-0.07277210646000182]",100.0,"[0.173243588246459,0.0852855548034504]",100.0,"[-0.025725237367397246,-0.0781237844327951]",4.0,"[0.002557305561895756,-0.1727046683298126]",100.0,"[0.11564221244574226,0.12615429946203938]",100.0,"[0.11853449745458766,-0.023597860486930317]",4.0,"[-0.09311934214547042,0.148399468609824]",100.0,"[-0.1878846242407073,-0.05419412865918448]",4.0,"[-0.0399836725389931,-0.13864256829780586]",100.0,"[0.005933064792342999,0.1955847410485505]",100.0,"[-0.08761540443151053,-0.13287296070071844]",4.0,"[-0.17881357760823546,0.023940232981616603]",4.0,"[0.008723162239300603,-0.13045663019568657]",4.0,"[0.07154809384272447,0.028272285756206002]",4.0,"[0.11667276453331109,-0.1599057415137697]",4.0,"[0.08271373214253928,-0.1255079103685993]",100.0,"[-0.03872351652291517,-0.18904054834406875]",100.0,"[0.0747979202645935,-0.024364053140864435]",4.0,"[0.02,0.02]",115.0049,0.0,22.0,22.0,52.0,1.0,,,,,,,
,,,,,,,6560ae1c1cc374fa2049dd0c,684428ee82600a1b38356ed8,2025-06-07_12h56.50.273,shape_ratio,2024.1.5,Win32,59.52380952,684250e4f00cb30b92d1fa88,,,,,,,,,,,115.0063,115.5049,,,115.7451,116.0389,right,0.2806,,,,,,,,,0.4,,,,,,115.505,115.745,116.039,"[-0.01517948685264135,0.14822568818459264]",100.0,"[0.14023359380929215,-0.05318426174693138]",4.0,"[0.19627967113638659,0.011077358576923869]",4.0,"[-0.003281005092218416,0.085919861231318]",4.0,"[-0.005030139185861416,-0.06417484888711604]",100.0,"[0.1069034020921407,-0.007780812611513217]",100.0,"[-0.09349807497124638,0.07119385987774622]",100.0,"[0.06062845269353869,0.07545599439164377]",4.0,"[-0.1668028867075465,0.06421532403784959]",4.0,"[-0.029562285590475103,0.19177212575510474]",4.0,"[0.1563057648757762,0.0761009224909582]",4.0,"[0.030727971752639336,0.1488256968970144]",4.0,"[-0.08072728484495378,0.031110889413816848]",4.0,"[0.03707463890329477,-0.0519671968218242]",100.0,"[-0.06588504614926277,0.1745446020032133]",100.0,"[-0.11015789773274112,-0.10396827135285389]",100.0,"[-0.19421245000058815,-0.016498027651253036]",4.0,"[-0.002410112459598289,0.025493157774353938]",4.0,"[0.07128776086276985,0.11596430792087462]",4.0,"[0.029747084675600017,-0.1280191412627256]",4.0,"[-0.09225173945130852,-0.06790058271201023]",4.0,"[-0.03397419148522245,-0.1451781587721552]",100.0,"[-0.11214688231363433,0.15871588643088885]",4.0,"[-0.13573705484258872,-0.064395810871536]",4.0,"[0.13721659810228837,0.14180642733541918]",100.0,"[0.11184646012747826,-0.0985805779782434]",100.0,"[-0.04307272393670103,-0.08289662552467156]",4.0,"[0.08826737132496922,-0.17048664672347763]",4.0,"[-0.10873034523521333,-0.01560247600946738]",4.0,"[0.004579057475274785,-0.16128306117219213]",100.0,"[-0.048872796824304336,0.07323947546706665]",100.0,"[0.11988462605601173,0.040009535890585084]",100.0,"[0.02,0.02]",117.1381,0.0,23.0,23.0,155.0,1.0,,,,,,,
,,,,,,,6560ae1c1cc374fa2049dd0c,684428ee82600a1b38356ed8,2025-06-07_12h56.50.273,shape_ratio,2024.1.5,Win32,59.52380952,684250e4f00cb30b92d1fa88,,,,,,,,,,,117.14,117.6429,,,117.8938,118.2049,left,0.2984,,,,,,,,,0.9,,,,,,117.643,117.8938,118.205,"[-0.056513555012754776,0.05447496463633289]",100.0,"[-0.12494029978558926,-0.13122832434180098]",100.0,"[0.1147106034405633,-0.02245074074454432]",100.0,"[0.13594706027287376,-0.14318718946977038]",4.0,"[0.11274179730067573,0.08803909868884778]",100.0,"[0.002820303477764145,0.12044717857493388]",100.0,"[-0.15374959625499246,0.10877673802713084]",100.0,"[0.14296525265019,0.1342574589289686]",100.0,"[0.14976344878977146,0.022468272694809017]",100.0,"[-0.12123167408710639,-0.05240401136269326]",100.0,"[-0.15281500425534936,-0.025973699899956855]",100.0,"[-0.06071529964089995,0.18161400165615957]",100.0,"[-0.1954447632227619,-0.032355715085546494]",100.0,"[-0.05664304550098244,0.13212638053983966]",100.0,"[0.029183886763490152,-0.12389685082852972]",100.0,"[-0.08307620208386919,0.001061894111352127]",100.0,"[0.03715049234241202,0.007591482863467709]",100.0,"[0.1549136257325281,-0.08323916128214272]",100.0,"[0.06504900290063992,0.1538020052488295]",100.0,"[0.0034439095496140142,-0.06695250019428879]",100.0,"[-0.09918526549350809,0.044794477722467065]",100.0,"[0.056993203645823116,-0.07974978057868039]",100.0,"[0.17856323158059123,0.07112052174914785]",100.0,"[0.05496735648045715,0.11052618597754947]",100.0,"[0.0686711663739462,0.06251554953028814]",100.0,"[0.07618257975438826,-0.16658652086291767]",100.0,"[-0.0740735919856241,-0.15198912966624487]",4.0,"[-0.11989705053514377,0.14094532028077122]",100.0,"[-0.004525676068349446,0.04346575571195577]",100.0,"[-0.1875154186981925,0.05442107184888246]",4.0,"[-0.1662742110348987,-0.06998402335436921]",100.0,"[-0.07696368254398492,-0.0650263133451899]",100.0,"[0.02,0.02]",119.3035,0.0,24.0,24.0,9.0,1.0,,,,,,,
,,,,,,,6560ae1c1cc374fa2049dd0c,684428ee82600a1b38356ed8,2025-06-07_12h56.50.273,shape_ratio,2024.1.5,Win32,59.52380952,684250e4f00cb30b92d1fa88,,,,,,,,,,,119.305,119.8054,,,120.0458,120.4217,left,0.3667,,,,,,,,,0.9,,,,,,119.8055,120.0457,120.4218,"[0.01066529302063461,0.05726713929230264]",100.0,"[-0.18448770456458394,-0.06823542982948017]",100.0,"[0.13469380456539234,-0.04738418231567675]",100.0,"[-0.0068292234799153745,0.15280368552187987]",100.0,"[0.08852081742173258,-0.1199730710176008]",100.0,"[-0.10089311558824415,-0.16402198606635876]",100.0,"[0.09798418793480884,0.12906209199839846]",100.0,"[-0.16427388270380489,-0.028953887618354383]",100.0,"[0.03952095366241398,-0.046525991236511674]",100.0,"[-0.04114930425114331,-0.12050025886061182]",100.0,"[-0.08208408820170914,-0.08252230364246953]",100.0,"[0.12697803271279479,0.025319179152034972]",100.0,"[0.07150884992875309,0.023489696263988797]",100.0,"[-0.07652155773877116,0.07541813035731136]",100.0,"[-0.0526044430267797,-0.18751373116807052]",100.0,"[0.047444318485996964,-0.1701737743806251]",100.0,"[-0.18279118689789708,0.03185875187557933]",100.0,"[0.09122061133781516,-0.057439775643868374]",100.0,"[0.0995189486148949,0.058792274002459816]",100.0,"[0.015097953534865588,-0.09181271484499642]",4.0,"[0.1751474395218481,-0.02744805679105896]",100.0,"[-0.0016304621071251532,0.10028333369483829]",100.0,"[-0.054649798778167794,0.14440846753566072]",100.0,"[-0.0024477314059420823,-0.04975491975223214]",4.0,"[-0.127132659482281,0.030313911049030272]",100.0,"[0.18606038905788988,0.04337988039363178]",4.0,"[0.04932601255872021,0.09428418710565276]",100.0,"[-0.026640352505669398,-0.010404076395153332]",100.0,"[-0.10151156093372705,0.15537641617951942]",100.0,"[-0.08697056065971898,-0.031357805351531286]",100.0,"[-0.14062868747671742,-0.07508242656718495]",100.0,"[0.028355540996814737,0.019134515163104684]",100.0,"[0.02,0.02]",121.5203,0.0,25.0,25.0,21.0,1.0,,,,,,,
,,,,,,,6560ae1c1cc374fa2049dd0c,684428ee82600a1b38356ed8,2025-06-07_12h56.50.273,shape_ratio,2024.1.5,Win32,59.52380952,684250e4f00cb30b92d1fa88,,,,,,,,,,,121.5218,122.0221,,,122.2627,122.5714,right,0.299,,,,,,,,,0.1,,,,,,122.0222,122.2626,122.5715,"[0.03546957666059916,-0.172658454794556]",4.0,"[-0.01322932439319841,-0.024349791400721126]",4.0,"[0.08013485968430435,-0.06035719960467087]",4.0,"[-0.0017514863617281258,0.09904202948470509]",4.0,"[0.15274583980825523,0.04690135895626106]",100.0,"[-0.016646926656493737,0.18452852155897698]",100.0,"[0.11515474739237684,-0.1063812433322749]",4.0,"[-0.06024038128149927,0.03846504340531396]",4.0,"[-0.17283084433690601,-0.0959427907547561]",4.0,"[0.07015346685430021,0.07926535699262603]",4.0,"[0.044453505531385794,-0.024337380644879093]",4.0,"[-0.09329187991739425,-0.08176317574543523]",4.0,"[-0.05746319268757649,-0.1190229810459355]",4.0,"[0.04065953913275524,0.15908469382050525]",4.0,"[-0.12820636873592947,-0.058943810823068765]",4.0,"[-0.1789418024588292,0.023822446482778082]",4.0,"[-0.10629698845401621,0.049269642078826004]",4.0,"[-0.13117948427550685,-0.004132952426951792]",4.0,"[-0.09092291738157902,-0.03301730104230046]",4.0,"[0.0025384747218848477,-0.12862511672869967]",4.0,"[0.10551626106765136,0.05827839737328117]",4.0,"[-0.10407021676765399,-0.14783264689064493]",4.0,"[-0.06738372734272027,0.16146090228381077]",100.0,"[0.08051642049989435,0.026289249050975183]",4.0,"[0.19231235679799813,-0.027216888396895435]",4.0,"[-0.05015860834667985,-0.07044454838097039]",4.0,"[-0.14473285638977595,0.09507430646423769]",4.0,"[-0.005855611440967987,-0.17906500881453127]",4.0,"[-0.04353003613662534,-0.19328209557329026]",4.0,"[0.0870396183018066,-0.13567783488299878]",4.0,"[-0.07376360793270491,0.10625660232961628]",4.0,"[0.02205220350985125,-0.058251763190666814]",4.0,"[0.02,0.02]",123.671,0.0,26.0,26.0,192.0,1.0,,,,,,,
,,,,,,,6560ae1c1cc374fa2049dd0c,684428ee82600a1b38356ed8,2025-06-07_12h56.50.273,shape_ratio,2024.1.5,Win32,59.52380952,684250e4f00cb30b92d1fa88,,,,,,,,,,,123.6728,124.1713,,,124.4287,124.7958,right,0.3613,,,,,,,,,0.5,,,,,,124.1715,124.4287,124.7958,"[0.12133041413182231,0.022210463666261455]",4.0,"[0.10600244892252551,-0.10087120283034055]",4.0,"[-0.08368387292573642,-0.011952163661207047]",100.0,"[-0.019203704869345178,-0.0365530803231609]",100.0,"[-0.006866468997944788,-0.19880866982369647]",100.0,"[-0.035905810991359956,-0.13062135208001674]",4.0,"[0.05542765956339331,0.12283493595949599]",100.0,"[-0.04970740716921346,0.08942916771226334]",100.0,"[-0.1258062962935858,0.15540660480858035]",4.0,"[0.07430904601916448,0.17432567470061064]",4.0,"[0.043502074414935206,-0.17612808217763296]",100.0,"[0.13903720001164582,0.12554542798161902]",4.0,"[0.06690821424460804,0.03667937376401852]",4.0,"[0.17017968141086126,-0.09037125348286541]",4.0,"[-0.1480041286925406,-0.1194130878972075]",4.0,"[-0.1472971148632479,0.10703688264803653]",4.0,"[-0.1196911171869407,-0.15180316541099]",100.0,"[0.010691206908003851,-0.09523791775475736]",4.0,"[0.024187703674790374,0.1532683431187117]",100.0,"[0.10855484847009032,0.06271328109708292]",100.0,"[-0.05665882356697575,0.16359292389503993]",4.0,"[-0.19187465284154123,0.049226689698319254]",100.0,"[0.07787912963054716,-0.1545271602511931]",100.0,"[-0.17470253340047956,-0.027980026543605242]",4.0,"[0.15194720873447706,-0.12672225855528427]",100.0,"[0.044958586559967394,-0.035696068564392204]",100.0,"[-0.09462015457951614,0.05401869115570906]",100.0,"[-0.06983944056469128,-0.07447693692497916]",4.0,"[0.06926598585159664,-0.07622597065952923]",100.0,"[-0.031082271455590806,0.12520631427024198]",4.0,"[-0.1196254501321093,-0.04383163747154878]",4.0,"[0.11551973658643508,-0.050283788483510866]",100.0,"[0.02,0.02]",125.8888,0.0,27.0,27.0,104.0,1.0,,,,,,,
,,,,,,,6560ae1c1cc374fa2049dd0c,684428ee82600a1b38356ed8,2025-06-07_12h56.50.273,shape_ratio,2024.1.5,Win32,59.52380952,684250e4f00cb30b92d1fa88,,,,,,,,,,,125.8902,126.3873,,,126.6291,126.8394,left,0.1914,,,,,,,,,0.45,,,,,,126.3876,126.6291,126.8395,"[-0.02786193244591757,0.05097682009180906]",4.0,"[-0.03990752875013743,-0.1792171909051938]",4.0,"[-0.02802938092515752,-0.08572159108493663]",100.0,"[-0.08863287922968437,-0.1660193071270784]",4.0,"[-0.13780392087312412,0.07370028696924576]",4.0,"[0.011883323041446032,0.05737447218878825]",4.0,"[0.06095565275300997,0.09369223766257109]",100.0,"[0.11916690473549547,-0.1408889215865041]",4.0,"[0.004712839247512162,-0.05235761773788214]",4.0,"[0.16771478100913398,-0.0011162154961413457]",4.0,"[-0.05218886286940281,0.09327068755832416]",4.0,"[0.01022992596197871,-0.10379378713275744]",4.0,"[-0.1462690906572785,-0.12947032667898584]",100.0,"[0.021040351084730805,-0.19486750395956393]",4.0,"[0.13776310895546878,-0.0950179769805171]",100.0,"[-0.03637273411830783,0.1681534399089107]",100.0,"[0.028086468855904347,0.012756981561808949]",4.0,"[0.10681718430848457,0.16490559758404424]",100.0,"[-0.06747558948803481,-0.03445351624672541]",100.0,"[-0.07239550505314209,-0.07993272151546801]",4.0,"[0.09265728719417865,-0.011644803606679934]",100.0,"[-0.19240593181242266,0.009467070893102609]",100.0,"[0.15054938089588066,-0.0423927017527915]",100.0,"[-0.08814688465974496,0.12529362459729723]",4.0,"[0.11308198966800787,0.08978283605281794]",4.0,"[0.07777209998789315,0.030312885199025794]",100.0,"[-0.026563215826775247,-0.013574167041662817]",100.0,"[0.1441748866764963,0.03180904952345743]",4.0,"[-0.06853688988734756,-0.12105743372243886]",4.0,"[0.0835278718392863,-0.07799139411253943]",100.0,"[-0.09322940317831824,0.08152791517596066]",4.0,"[0.038502848578478445,0.19252673932868913]",100.0,"[0.02,0.02]",127.9385,0.0,28.0,28.0,142.0,1.0,,,,,,,
,,,,,,,6560ae1c1cc374fa2049dd0c,684428ee82600a1b38356ed8,2025-06-07_12h56.50.273,shape_ratio,2024.1.5,Win32,59.52380952,684250e4f00cb30b92d1fa88,,,,,,,,,,,127.9402,128.4379,,,128.6948,128.9045,right,0.1961,,,,,,,,,0.9,,,,,,128.4381,128.6948,128.9051,"[0.03194553148586181,-0.07667043835599455]",100.0,"[-0.000851800471549239,0.12082810272861891]",100.0,"[0.16603283819211345,-0.05767406466645515]",100.0,"[-0.012392468076760707,0.03239844823279663]",4.0,"[0.10691804200335844,0.07202509593376016]",100.0,"[-0.09568525202235313,0.025221387987449495]",4.0,"[-0.03962912472716474,-0.15797508055930362]",100.0,"[0.10949389880601035,0.022769821156417416]",100.0,"[0.11562015087817756,-0.018202116922481703]",100.0,"[-0.05597528104493618,0.03442443869110393]",100.0,"[0.18662701285081928,0.06325250492746637]",100.0,"[-0.07196260671445068,0.1403169057307908]",100.0,"[-0.03544077688479365,-0.06198939863220053]",100.0,"[0.09670143874333077,0.16259713299125522]",100.0,"[-0.16732454996787452,0.027291043906359537]",100.0,"[-0.011565367414280754,-0.008550630299454527]",100.0,"[-0.1436993733907131,-0.020388302453370664]",100.0,"[-0.07729224688590561,-0.05946253177271535]",100.0,"[0.14641940246198068,0.12070535820832175]",100.0,"[-0.039432193499188764,0.08029005796295328]",100.0,"[-0.11501020119616555,-0.090269056449654]",100.0,"[0.10270479463933464,-0.16535257491002325]",4.0,"[-0.10727113596437264,0.07895038917917671]",100.0,"[-0.09041253764007469,-0.01508774036425427]",100.0,"[0.08132824445540186,-0.06804423480042794]",100.0,"[0.031949629048176095,-0.025883818475659626]",100.0,"[-0.16642621164490407,0.10943856169474643]",100.0,"[-0.18605595520729626,-0.037541364480911735]",100.0,"[0.1319108125709315,-0.116844798981797]",100.0,"[-0.0665405862859259,-0.10857088712583624]",100.0,"[0.07351189682347051,0.1254718236939094]",100.0,"[0.03598492081050456,0.06572469276985243]",100.0,"[0.02,0.02]",130.0052,0.0,29.0,29.0,5.0,1.0,,,,,,,
,,,,,,,6560ae1c1cc374fa2049dd0c,684428ee82600a1b38356ed8,2025-06-07_12h56.50.273,shape_ratio,2024.1.5,Win32,59.52380952,684250e4f00cb30b92d1fa88,,,,,,,,,,,130.0068,130.5068,,,130.7613,131.1071,left,0.3405,,,,,,,,,0.4,,,,,,130.5068,130.7613,131.1071,"[0.04776659498485771,0.10572900487555238]",4.0,"[0.05892668145500548,-0.04589557977587477]",100.0,"[-0.08969504006074054,0.15344286686230024]",4.0,"[-0.15595725900304228,0.09838874157575618]",4.0,"[0.11695909587804117,-0.11020852143747507]",100.0,"[0.006268481959601771,0.029362616323061422]",4.0,"[-0.10027428352322468,-0.04967322008900854]",100.0,"[0.14657672289771465,0.023690515337133025]",4.0,"[-0.028450756755781945,0.15612330265641763]",100.0,"[0.11011562874045357,0.00524512836099071]",100.0,"[-0.12962797553088135,0.06767338040472924]",4.0,"[0.18154057747898053,-0.06967244310764878]",100.0,"[-0.043838917219852114,-0.032966848362224896]",100.0,"[-0.009798530125959272,-0.19619362395941528]",4.0,"[-0.06935772812447892,-0.10251285243049359]",4.0,"[-0.034461121699584145,-0.07836506899824437]",100.0,"[0.03939426266891432,-0.1571395220759553]",4.0,"[-0.07834689568283341,0.11440694590177167]",4.0,"[-0.15515262051903106,-0.06933015772590785]",100.0,"[0.06279831238729319,0.15604791661795597]",100.0,"[-0.12570245593524645,-0.1321248572682298]",4.0,"[0.13567906390306828,-0.0548486708431214]",4.0,"[0.17075080961792918,-0.021160124459442948]",4.0,"[-0.005878474827450329,0.10136417706959562]",4.0,"[0.0346317358615257,0.18892593262496768]",100.0,"[0.18196807729662595,0.05377685946734123]",100.0,"[-0.03943249610824054,0.04103057580157899]",4.0,"[-0.06871217866016417,-0.1660739570886685]",4.0,"[0.14090357957337188,0.1238307611314375]",4.0,"[-0.16523979710098655,-0.0017714523843555656]",4.0,"[0.017059916721897963,-0.04842045958354684]",100.0,"[0.008138317616691693,-0.1277482879791401]",4.0,"[0.02,0.02]",132.2046,0.0,30.0,30.0,150.0,1.0,,,,,,,
,,,,,,,6560ae1c1cc374fa2049dd0c,684428ee82600a1b38356ed8,2025-06-07_12h56.50.273,shape_ratio,2024.1.5,Win32,59.52380952,684250e4f00cb30b92d1fa88,,,,,,,,,,,132.2063,132.705,,,132.9614,133.3716,left,0.396,,,,,,,,,0.45,,,,,,132.7051,132.9614,133.3719,"[-0.01195970203299577,-0.1300614078694075]",4.0,"[-0.05056970299801683,-0.002029924121357828]",4.0,"[0.03859499127403476,-0.06987639241109657]",100.0,"[-0.009135970483015392,0.11846298002288123]",4.0,"[-0.0974139661749232,-0.024178155418284077]",4.0,"[0.0046529345728481995,-0.18137397228244792]",4.0,"[0.11072370089049788,0.07559814303712993]",4.0,"[-0.12042384655221142,-0.10883736084505717]",4.0,"[0.1356357639119252,0.1413860797478172]",100.0,"[0.13228658387593165,-0.07271473580605997]",4.0,"[-0.14638585473678248,0.023222391578837667]",100.0,"[0.08152927477841232,0.15976051436198996]",4.0,"[-0.18137843770232087,-0.023662221742891957]",100.0,"[0.19520094553974085,-0.0206683218721449]",100.0,"[-0.12699414625813332,0.07680966677235183]",100.0,"[-0.020035272849587556,-0.07944429214204864]",4.0,"[-0.04587898775597795,0.1878204378255276]",4.0,"[0.10502195106550169,-0.1176474393286542]",100.0,"[0.07044299801804522,0.05297831438539324]",4.0,"[0.11046476963337942,-0.007664562019975043]",100.0,"[0.02127786718610693,-0.009335093283767313]",4.0,"[-0.06793180396060489,0.049058969534983246]",100.0,"[-0.02757331613172614,0.04573164627983286]",100.0,"[0.17182472373857688,0.06451296504657725]",4.0,"[0.08224007985668882,-0.05451343023570387]",100.0,"[-0.059470402357065244,-0.15337010759317313]",4.0,"[0.05602088395776144,0.1206486498265937]",4.0,"[-0.07796001460979801,-0.0706613873306822]",100.0,"[0.01663993494484716,0.08362333690211367]",4.0,"[-0.12321029930300995,-0.06824002576558236]",100.0,"[-0.11067774623059279,0.12070779159579656]",100.0,"[0.14779544444596823,-0.12227149572030789]",4.0,"[0.02,0.02]",134.4716,0.0,31.0,31.0,120.0,1.0,,,,,,,
,,,,,,,6560ae1c1cc374fa2049dd0c,684428ee82600a1b38356ed8,2025-06-07_12h56.50.273,shape_ratio,2024.1.5,Win32,59.52380952,684250e4f00cb30b92d1fa88,,,,,,,,,,,134.4729,134.9739,,,135.2218,135.6383,left,0.3855,,,,,,,,,0.55,,,,,,134.9741,135.2216,135.6386,"[-0.0536833394173905,0.01656032068571725]",4.0,"[-0.031138148240832986,-0.08413285072587774]",100.0,"[0.02649344139761538,-0.04751952304249187]",4.0,"[0.18232258113259886,0.007374277918856742]",100.0,"[0.020657040509004344,0.17506785850922724]",4.0,"[0.14469233638003967,-0.032210194715420665]",4.0,"[-0.17488507221454397,-0.008543586501791664]",100.0,"[-0.07805624402754165,0.08000905236983359]",100.0,"[0.11591369964778028,0.08546582251651186]",100.0,"[-0.13813118087939394,-0.108435859905937]",100.0,"[-0.17507298626340723,-0.05736979995580731]",100.0,"[0.023991827376686498,-0.1200369588234768]",4.0,"[-0.1259670818592183,-0.0012800427863858882]",4.0,"[-0.03147531578170173,-0.19508181205774522]",4.0,"[-0.023862419881688968,-0.030409009027498]",100.0,"[-0.03601222370230773,0.0994221542006991]",100.0,"[0.08526236681686393,0.01612447470109045]",100.0,"[0.0034382110003562767,0.13341220673829068]",4.0,"[-0.0343471031313875,0.16517542190731735]",100.0,"[0.029867271135038877,0.06325601374565194]",4.0,"[0.12042865873793172,0.14790177428378665]",4.0,"[-0.12319901351390834,-0.06430143335499736]",100.0,"[0.030370052590219958,-0.002667286996675274]",100.0,"[-0.14264311821742476,0.07315089927382476]",100.0,"[0.1911613260092367,-0.03454114314250224]",4.0,"[-0.17463414974309682,0.032462087324998584]",4.0,"[-0.1385549398267417,0.13919797320282606]",4.0,"[0.09058483590403119,-0.0547234330907153]",100.0,"[-0.092424283101715,-0.03871332342297197]",100.0,"[0.05447015455682377,-0.179079992386029]",4.0,"[0.07078241286131126,-0.13453246639529537]",100.0,"[-0.09716400961916168,-0.1665595029682247]",100.0,"[0.02,0.02]",136.7385,0.0,32.0,32.0,86.0,1.0,,,,,,,
,,,,,,,6560ae1c1cc374fa2049dd0c,684428ee82600a1b38356ed8,2025-06-07_12h56.50.273,shape_ratio,2024.1.5,Win32,59.52380952,684250e4f00cb30b92d1fa88,,,,,,,,,,,136.74,137.2387,,,137.4948,137.9038,left,0.3957,,,,,,,,,0.9,,,,,,137.2389,137.4948,137.9041,"[-0.0923535102097357,-0.15451153846573862]",100.0,"[-0.12950119187556713,-0.11227366202765525]",100.0,"[0.15080997781852654,0.09666666426759037]",100.0,"[0.09988440814194396,-0.15245114232301252]",100.0,"[-0.10436835296049125,0.12677998243091576]",100.0,"[0.03310201371207949,0.1403009610754417]",100.0,"[-0.03517508628329992,-0.12572638308314332]",100.0,"[0.06424736277307119,-0.09365031314160029]",100.0,"[0.1400518775937716,-0.11788109786038953]",100.0,"[0.003365105209032425,0.16973258905292063]",100.0,"[-0.05309532399704607,0.13975744037876853]",100.0,"[0.025641590654416062,-0.018751892960417616]",100.0,"[-0.00889775983874749,0.04990180667696636]",100.0,"[0.10220158188963262,0.07467372736755065]",100.0,"[-0.12735739760274398,-0.033144813130252186]",100.0,"[-0.02836467566774145,-0.01750342010229084]",100.0,"[-0.18226478855722136,-0.0037085156377282976]",100.0,"[0.047920550577747245,0.03766937437183395]",100.0,"[0.16257123415814842,-0.04354152911573652]",100.0,"[0.19210997323653983,0.04833490005749203]",100.0,"[0.1012955780622786,-0.027935595992250126]",100.0,"[-0.013358935257746228,-0.08856214673400599]",100.0,"[-0.14726436409289528,0.034657799807741106]",100.0,"[-0.0837583743740911,-0.10557658873605695]",4.0,"[-0.10560734972700091,0.02662935019266279]",100.0,"[-0.05699796378007328,0.054900136925423816]",100.0,"[-0.04660439374188611,-0.17253820496147534]",100.0,"[0.12155640100224062,-0.06916878458915658]",100.0,"[0.0535925633830689,-0.04891105935298652]",100.0,"[0.056524849539753313,-0.14558546637768036]",4.0,"[0.12256374445278846,0.013529850730893519]",4.0,"[0.0706980392605999,0.109944624851375]",100.0,"[0.02,0.02]",139.0039,0.0,33.0,33.0,23.0,1.0,,,,,,,
,,,,,,,6560ae1c1cc374fa2049dd0c,684428ee82600a1b38356ed8,2025-06-07_12h56.50.273,shape_ratio,2024.1.5,Win32,59.52380952,684250e4f00cb30b92d1fa88,,,,,,,,,,,139.0056,139.504,,,139.7611,140.022,right,0.2387,,,,,,,,,0.55,,,,,,139.5042,139.761,140.0223,"[0.12170465816578446,0.09741125482784861]",100.0,"[0.07376632456647535,-0.15295363381428073]",4.0,"[-0.11520012064449886,0.024025775545892032]",4.0,"[-0.0725919697457699,-0.18627171129558473]",4.0,"[-0.04841109694329025,0.01900733232686342]",4.0,"[-0.00787632232215047,-0.0818239132602797]",4.0,"[-0.12484622681534846,0.09271622476443549]",100.0,"[-0.02395814122486157,-0.13643535112838537]",100.0,"[0.15533235404185702,-0.08740633410905896]",4.0,"[0.12817264666411893,0.014733803516214845]",100.0,"[0.005657610279047028,0.18423853897741102]",4.0,"[-0.17235870007488474,-0.006388293605331399]",100.0,"[-0.10949079979805058,-0.05654801027647289]",4.0,"[0.06093818234088068,0.18384779287159814]",100.0,"[0.16950138576243118,0.01136234433421789]",100.0,"[-0.08468112179533846,-0.10331181224230243]",100.0,"[0.012022648932370258,0.06040683284062339]",100.0,"[-0.05047543901151996,0.09114543357509394]",100.0,"[0.08000522423873556,-0.0469198123335049]",4.0,"[0.174779119338144,-0.03957059758729069]",4.0,"[0.001658604901684975,0.13194696811514534]",4.0,"[0.12053734377728725,-0.12291036501549656]",100.0,"[0.01310842114097319,-0.0031466112724508034]",4.0,"[-0.09021408956094386,0.06492728412436474]",100.0,"[-0.07266188662449254,0.18019610273892459]",100.0,"[-0.09080570330326625,-0.1432185058899633]",4.0,"[0.0770717114247039,0.11782010908963259]",100.0,"[0.061021604500387266,0.017788960922623703]",100.0,"[0.08394009447811047,-0.09457921890847427]",100.0,"[-0.18222839103067365,0.06600574804375349]",4.0,"[0.15647943788593682,0.050382434259530394]",100.0,"[-0.018388076535906708,-0.18417801534872782]",100.0,"[0.02,0.02]",141.1211,0.0,34.0,34.0,78.0,1.0,,,,,,,
,,,,,,,6560ae1c1cc374fa2049dd0c,684428ee82600a1b38356ed8,2025-06-07_12h56.50.273,shape_ratio,2024.1.5,Win32,59.52380952,684250e4f00cb30b92d1fa88,,,,,,,,,,,141.1225,141.6215,,,141.8597,142.2874,right,0.4067,,,,,,,,,0.4,,,,,,141.6218,141.8596,142.2876,"[0.1423186711278111,0.11621260410204684]",4.0,"[-0.19751083030081637,0.023619547057383703]",100.0,"[0.06830670014966922,0.09740885589757854]",100.0,"[0.11131653551295237,0.07291225120344386]",100.0,"[0.11554866964068705,-0.06440363346826328]",100.0,"[-0.06826019786016554,-0.11707959074827563]",100.0,"[0.015068538659256243,0.06743786822922787]",100.0,"[-0.09663828117746885,-0.16121383910299508]",4.0,"[0.0075166142917817294,-0.14006258304486185]",4.0,"[0.031080252062335712,-0.08839038168630871]",100.0,"[-0.012819972760006973,-0.08177983054147314]",4.0,"[-0.1491880895176246,-0.10046215817476996]",100.0,"[-0.02074505649814125,0.1804615766929963]",100.0,"[0.11331153560410288,-0.014215494224552898]",100.0,"[-0.16264274534075082,0.10104642376166025]",4.0,"[0.1290114948006858,-0.1369144634334816]",4.0,"[-0.0826949291681056,-0.06404478390455812]",4.0,"[-0.04995754458072386,0.017854247410809897]",4.0,"[-0.03213977339754955,-0.160881793248489]",100.0,"[0.004990508081979322,0.02191323378194954]",4.0,"[-0.02442659693035075,0.07691890441755109]",4.0,"[-0.10396258477767883,0.07178914110613285]",100.0,"[-0.11052967856780757,0.13187432556360484]",100.0,"[0.06632085823169083,0.05339902703431916]",4.0,"[0.07865127154927842,-0.17012815922806043]",4.0,"[0.17607760473899187,-0.04071157861347697]",4.0,"[0.0367120045720817,-0.19007035733911895]",4.0,"[0.08761308753898003,-0.11869140987048797]",4.0,"[-0.13282211261344898,-0.06025032763308864]",4.0,"[0.175844725681095,0.06762182215751066]",4.0,"[0.050997798429842,0.15865278865711957]",4.0,"[0.037387425852847815,-0.0029918083847891774]",4.0,"[0.02,0.02]",143.3875,0.0,35.0,35.0,175.0,1.0,,,,,,,
,,,,,,,6560ae1c1cc374fa2049dd0c,684428ee82600a1b38356ed8,2025-06-07_12h56.50.273,shape_ratio,2024.1.5,Win32,59.52380952,684250e4f00cb30b92d1fa88,,,,,,,,,,,143.3891,143.8901,,,144.1279,144.4373,left,0.287,,,,,,,,,0.55,,,,,,143.8901,144.1278,144.4376,"[0.055007583813369725,0.15726517410059737]",4.0,"[0.02558589961159287,-0.013211402332542812]",100.0,"[0.0032656101228987064,0.17595223807779414]",4.0,"[0.04557371317543219,0.04326436924857153]",4.0,"[-0.12453726584512127,-0.10657747771954731]",100.0,"[0.09282036271280993,0.07124501311894156]",4.0,"[0.1303467003364214,-0.13812226749992224]",100.0,"[-0.12650785328921094,0.13546305824496324]",100.0,"[-0.03683794176917,-0.007612460036658744]",100.0,"[-0.15590928896011275,-0.05719758694197517]",4.0,"[-0.14445047136926603,0.051312117535860007]",100.0,"[0.14003321103367863,-0.09901544441847532]",4.0,"[0.16442026861185155,-0.034171517261905815]",4.0,"[-0.08818286338927879,-0.07800219598763657]",4.0,"[-0.01420651769353937,-0.13603931980350253]",4.0,"[0.16048040515608675,0.026715238541879335]",4.0,"[-0.013889165615190819,-0.06944909987789201]",100.0,"[0.05948899390461239,-0.0769794578452515]",4.0,"[0.07575216637537009,-0.15845505924207196]",4.0,"[-0.042263745001555296,0.04744495008082086]",100.0,"[-0.08877439297333191,0.0014384698967018683]",100.0,"[0.08871544175182372,0.016895007416300737]",4.0,"[-0.11099698128366493,-0.04064086413497499]",100.0,"[0.08232111253272155,0.11710339197148995]",4.0,"[0.07677448877697267,-0.04003333193456006]",100.0,"[0.033562787518240655,-0.1303146647039158]",100.0,"[-0.0880073987389792,0.17172668741398406]",100.0,"[0.1205553751799485,0.13583376881522843]",100.0,"[0.11756171114504599,-0.017693013383832657]",100.0,"[-0.11027094824354494,-0.16168132962039253]",100.0,"[0.18058480888076123,0.08574682507393526]",100.0,"[0.01603932391811826,0.12841812818354914]",100.0,"[0.02,0.02]",145.5363,0.0,36.0,36.0,66.0,1.0,,,,,,,
,,,,,,,6560ae1c1cc374fa2049dd0c,684428ee82600a1b38356ed8,2025-06-07_12h56.50.273,shape_ratio,2024.1.5,Win32,59.52380952,684250e4f00cb30b92d1fa88,,,,,,,,,,,145.5378,146.0379,,,146.2936,146.6058,left,0.2999,,,,,,,,,0.9,,,,,,146.0381,146.2936,146.6059,"[0.026706091092855853,-0.10567877173521915]",100.0,"[-0.0935815416702792,-0.16138803245833622]",100.0,"[0.11323347049533541,-0.06611320189867559]",100.0,"[0.016095299545578545,0.027057211711812287]",100.0,"[-0.06428471426007912,0.16890341941632797]",100.0,"[-0.19785543304514921,-0.002098196307408597]",100.0,"[0.0915275988445559,-0.12189390579117995]",4.0,"[-0.1229063262600183,-0.12373334362631548]",100.0,"[0.04795282694328194,-0.01294872868769642]",100.0,"[-0.01031516927893972,-0.12757714690580332]",100.0,"[-0.0026705867751041523,0.19908724968287952]",100.0,"[0.09090010296263244,-0.030254274429433355]",100.0,"[-0.09472617676135178,0.007039809392386768]",100.0,"[-0.17162064121431328,0.0643754202155602]",100.0,"[-0.0716762462165164,0.04946161558517594]",100.0,"[0.0027075640316383204,-0.038370578948084925]",100.0,"[0.1441628294219719,0.1365414709891665]",100.0,"[0.1289640532148432,0.029759499569183633]",4.0,"[-0.10492843541249475,0.17023314949807963]",4.0,"[0.07427981280421343,-0.07699819828646104]",100.0,"[-0.03446074534481128,-0.18370375532659095]",100.0,"[0.010046432197918117,-0.19925099879972225]",100.0,"[0.051651549215512196,0.19166746704818502]",100.0,"[-0.08652399573505984,0.11665888104021822]",100.0,"[0.1536103985294315,-0.06814601697353623]",100.0,"[0.08750232011220947,0.09036954804390189]",100.0,"[-0.1157456068819849,0.0467847347800829]",100.0,"[-0.14481494681890328,0.00558053550773011]",100.0,"[-0.10906138084293972,-0.055034228059642656]",100.0,"[0.19048564656810715,0.029977120956405045]",100.0,"[-0.15414803577722694,-0.053709340396503984]",100.0,"[0.09100865181301619,-0.17124053415550236]",100.0,"[0.02,0.02]",147.7108,0.0,37.0,37.0,1.0,1.0,,,,,,,
,,,,,,,6560ae1c1cc374fa2049dd0c,684428ee82600a1b38356ed8,2025-06-07_12h56.50.273,shape_ratio,2024.1.5,Win32,59.52380952,684250e4f00cb30b92d1fa88,,,,,,,,,,,147.7112,148.2049,,,148.454,148.8278,left,0.3507,,,,,,,,,0.9,,,,,,148.205,148.4538,148.8278,"[0.06994884476340373,0.06336485007150873]",100.0,"[-0.020503036002123217,-0.02311424799528768]",100.0,"[-0.016290192770255348,0.03594940786295507]",100.0,"[-0.07773898871969424,-0.1287253049408223]",100.0,"[0.019853711587577382,-0.09926987325078165]",4.0,"[-0.16214525898511695,-0.008560128433358271]",100.0,"[-0.1435601264648928,0.1333240061164604]",100.0,"[-0.16449496016195375,0.060668873546315255]",100.0,"[0.08523961852312753,0.008720289665778714]",100.0,"[0.07638633255632522,-0.18212626832600623]",100.0,"[0.03332251562918882,-0.05046389082147653]",100.0,"[-0.026318221074436574,-0.07788191393444593]",100.0,"[-0.07863275191871688,0.12543957672475847]",100.0,"[0.10721105188660857,-0.06201588200055279]",100.0,"[-0.016108028796676072,-0.1599894236821924]",100.0,"[-0.07059013208592935,0.015105875368561424]",100.0,"[0.05044350170298934,0.17856231527814218]",100.0,"[-0.005923943217150416,0.16604022088445294]",100.0,"[0.12338839216966342,0.10123223711862267]",100.0,"[-0.14837527414821441,-0.07381910348539301]",100.0,"[0.07213611659088773,-0.13571964399758132]",100.0,"[-0.03331287345754241,0.12696723463214593]",100.0,"[-0.11784047345957088,0.07776790911784677]",4.0,"[0.08860193974506513,0.16596335109703625]",100.0,"[0.049585848123698845,0.13644477746920614]",4.0,"[-0.046788693733274156,-0.19395581631794162]",100.0,"[0.11056569422190089,-0.12142122803932089]",100.0,"[0.16250904421082557,0.08030294069675392]",100.0,"[0.15974456602127385,-0.09934003202556622]",100.0,"[0.12557744203078425,0.042263783345646934]",100.0,"[0.15232186692206404,-0.04743734206703675]",100.0,"[-0.08489753143495102,0.17027145270120694]",100.0,"[0.02,0.02]",149.9211,0.0,38.0,38.0,4.0,1.0,,,,,,,
,,,,,,,6560ae1c1cc374fa2049dd0c,684428ee82600a1b38356ed8,2025-06-07_12h56.50.273,shape_ratio,2024.1.5,Win32,59.52380952,684250e4f00cb30b92d1fa88,,,,,,,,,,,149.9224,150.4203,,,150.6767,151.0461,right,0.3637,,,,,,,,,0.45,,,,,,150.4204,150.6767,151.0462,"[0.11247245704277677,0.046738636500350025]",4.0,"[0.005197933607358012,-0.1589888399622495]",4.0,"[-0.11132907024778185,0.11373265527678293]",4.0,"[-0.03694059924988216,0.10940506977637883]",4.0,"[-0.011121518259439108,-0.05947677609145935]",4.0,"[0.1325320901560671,-0.007110449345105254]",100.0,"[0.17418742652909586,-0.07635123543668365]",100.0,"[0.021629580240071375,0.18057945078103513]",4.0,"[-0.138565189362551,-0.07782762241236417]",100.0,"[0.14406078225674754,0.12001507232637992]",100.0,"[-0.10876971798939909,-0.11383192174592564]",100.0,"[-0.1420727530565837,-0.02417206414497539]",4.0,"[-0.18791974195153271,-0.04003341309981672]",4.0,"[0.05733260827582332,-0.10565563441660743]",4.0,"[0.0890267437181756,-0.021364958818460022]",4.0,"[-0.04013653995654885,0.053603847552219655]",100.0,"[-0.09701951835416137,-0.17266319909306246]",4.0,"[-0.01659472250856641,-0.10926455507566234]",100.0,"[0.07444940092926201,0.10096499403288665]",4.0,"[0.017136622401574295,0.12585533117086287]",100.0,"[-0.09848023326661809,0.01084796085822482]",100.0,"[0.16146733772083022,0.07528074252289346]",4.0,"[-0.0239455422723475,0.17332988632094648]",100.0,"[0.1298019780275908,-0.1111990485265064]",100.0,"[0.0571329648845982,0.01341617551246948]",4.0,"[0.07565206615286807,-0.15030476564223638]",100.0,"[-0.11884489975268689,0.0728647252118667]",4.0,"[-0.15436405711201373,-0.11602137668966521]",100.0,"[-0.14182791039309645,0.03461977865516459]",4.0,"[0.059622974563380775,0.057353382368259376]",4.0,"[-0.04201855401133724,0.0078038703992555775]",4.0,"[0.19691486529295807,0.003502120079803573]",100.0,"[0.02,0.02]",152.137,0.0,39.0,39.0,135.0,1.0,,,,,,,
,,,,,,,6560ae1c1cc374fa2049dd0c,684428ee82600a1b38356ed8,2025-06-07_12h56.50.273,shape_ratio,2024.1.5,Win32,59.52380952,684250e4f00cb30b92d1fa88,,,,,,,,,,,152.1386,152.6374,,,152.8923,153.2209,left,0.3155,,,,,,,,,0.5,,,,,,152.6376,152.8922,153.2211,"[0.06737335264031791,-0.1490510298273424]",100.0,"[0.00682974588624883,0.09028828780061184]",4.0,"[0.13573145486106625,0.07561222712901007]",100.0,"[-0.0832783203173469,0.14491121218732808]",4.0,"[0.03605894620883332,-0.1819633461690637]",4.0,"[-0.0497894298043451,-0.05884029833374877]",4.0,"[-0.02058682168596299,-0.12868633583025907]",4.0,"[0.11202307785719971,-0.14069710337155394]",100.0,"[0.11779494304675962,-0.04731337110636583]",4.0,"[-0.17073638102029937,-0.08060191721984108]",100.0,"[-0.054207301128356984,0.0920742953321657]",4.0,"[0.15367952257193404,-0.12580240248065508]",4.0,"[-0.03425388482679086,0.04747527803866216]",4.0,"[-0.16357482470401635,0.025520017304114136]",100.0,"[0.07165566412971143,-0.02874065697771001]",100.0,"[0.08389438841942136,0.026578392787854597]",100.0,"[0.12918414178397244,0.13806087047376298]",4.0,"[-0.10938157051974577,-0.0824665637074259]",4.0,"[-0.09368027880174935,-0.12121906288358039]",4.0,"[0.09304118306751061,0.1681551774031674]",100.0,"[-0.027084729535905374,-0.1787252474373293]",100.0,"[0.194287795387629,0.026019133861842108]",100.0,"[-0.11495390017291252,0.03828758659498263]",100.0,"[-0.11779144936466453,-0.021678697511613113]",4.0,"[0.015485413989899083,0.15016083038952516]",100.0,"[0.04098126705134093,-0.10102792092077294]",100.0,"[0.1463373190341717,-0.07584594689488583]",100.0,"[-0.1641156573167736,0.08013155782840956]",4.0,"[0.06491160873169567,0.10503052983683432]",100.0,"[-0.19695755052717037,-0.025361577386005543]",4.0,"[-0.09888627209684099,0.10109749958743713]",4.0,"[0.13883034714600928,0.021015568351395897]",100.0,"[0.02,0.02]",154.3201,0.0,40.0,40.0,112.0,1.0,,,,,,,
,,,,,,,6560ae1c1cc374fa2049dd0c,684428ee82600a1b38356ed8,2025-06-07_12h56.50.273,shape_ratio,2024.1.5,Win32,59.52380952,684250e4f00cb30b92d1fa88,,,,,,,,,,,154.3215,154.819,,,155.0769,155.5709,right,0.4793,,,,,,,,,0.1,,,,,,154.819,155.0769,155.5713,"[0.00022440127685977599,0.1598761881446009]",4.0,"[-0.08738818143542469,0.06908511801965456]",4.0,"[-0.04381436652002608,0.09918403027493963]",4.0,"[-0.0327078436191571,-0.10385840568496175]",100.0,"[0.05749953444469933,0.16325341133621143]",4.0,"[0.1859756317790467,0.002110590925657584]",4.0,"[-0.09730025089569466,0.029437874155689304]",4.0,"[0.022458552692483893,0.11201203510235536]",4.0,"[0.08953842267502078,0.06337124383128596]",4.0,"[-0.1398705092639426,-0.015170146355405086]",4.0,"[-0.1381728599322237,0.13869500026140805]",4.0,"[0.14331781441902455,0.027144976580612237]",4.0,"[-0.13587859892987064,0.08140014268409489]",4.0,"[-0.025064422048770862,-0.17768858393411138]",4.0,"[0.011650927652227914,-0.1014693848476498]",4.0,"[-0.10822373967353366,0.16659634846360313]",100.0,"[0.15725331281051488,0.07496398054664004]",100.0,"[-0.18779003514269554,-0.020609896508698815]",4.0,"[0.11372918785004436,-0.03771592697327548]",4.0,"[0.1347091442643118,0.11446194850861387]",4.0,"[0.04968391100160529,-0.07979736231941296]",4.0,"[0.1444845580423769,-0.0769225857889436]",4.0,"[0.02892626667568916,-0.145800661283702]",4.0,"[0.1363198402347319,-0.1280197430740691]",4.0,"[0.0329416190601103,-0.010907752383712128]",4.0,"[-0.15299393837973238,-0.06382010251443083]",4.0,"[0.00378097702843351,0.07571763620478764]",4.0,"[0.09135797263137009,0.11886227942415974]",4.0,"[0.007445497116304653,-0.058373858446228444]",4.0,"[-0.15257644830454342,0.02952930499838208]",4.0,"[0.09524358854286996,-0.10843550332925349]",4.0,"[-0.07606817577998587,-0.07663581745224533]",4.0,"[0.02,0.02]",156.6706,0.0,41.0,41.0,205.0,1.0,,,,,,,
,,,,,,,6560ae1c1cc374fa2049dd0c,684428ee82600a1b38356ed8,2025-06-07_12h56.50.273,shape_ratio,2024.1.5,Win32,59.52380952,684250e4f00cb30b92d1fa88,,,,,,,,,,,156.6722,157.1702,,,157.4258,157.8039,left,0.3633,,,,,,,,,0.6,,,,,,157.1704,157.4258,157.8041,"[-0.149845222297797,0.0745895612357392]",100.0,"[0.04071077841577021,0.1656857683363444]",100.0,"[-0.19291345665975212,0.05033978778328806]",100.0,"[-0.0019449747659370613,-0.08918005926167652]",4.0,"[-0.06385080645242304,-0.1229510749425169]",100.0,"[-0.08025542778228797,0.010172505334959284]",100.0,"[-0.07860959861240112,0.09869976258674112]",4.0,"[0.08346107191879945,0.0007186398486445532]",100.0,"[-0.09701010493884074,-0.07429691367208222]",100.0,"[-0.05371097279843975,0.15214158314111828]",4.0,"[0.16847694356177498,0.06430606168253075]",4.0,"[0.18743593530718067,0.01642377048008885]",100.0,"[0.046762261017000685,-0.15218432224287093]",4.0,"[-0.07990372207397062,-0.16731747352131085]",100.0,"[0.0785093526513352,-0.07207998976397133]",4.0,"[0.0016077861763929664,0.11401541409088749]",100.0,"[-0.046246214990971854,-0.07523773124451391]",4.0,"[0.06167070390624675,0.08968708342770308]",100.0,"[-0.18667261770851876,-0.031615746510716136]",100.0,"[0.1579867227727193,0.1088796707163968]",100.0,"[0.16294430310903585,-0.0918716765937811]",4.0,"[0.0031176857521306007,0.03435355744008028]",100.0,"[-0.030124191339750077,-0.19536697426021904]",100.0,"[-0.13838185469628905,-0.05497111656666224]",4.0,"[0.034817025104010746,-0.04351747387415446]",4.0,"[-0.036206243165254705,0.08009557712550947]",100.0,"[0.1592699179256739,-0.018501894312184977]",4.0,"[0.07960195972621331,0.1552685513224383]",4.0,"[0.10369858883769678,0.12074069681056118]",4.0,"[0.07141230397518084,0.05044186037560054]",100.0,"[0.10138029568275962,-0.1439505560587992]",100.0,"[-0.057441634698003285,-0.03305542155699462]",100.0,"[0.02,0.02]",158.9035,0.0,42.0,42.0,59.0,1.0,,,,,,,
,,,,,,,6560ae1c1cc374fa2049dd0c,684428ee82600a1b38356ed8,2025-06-07_12h56.50.273,shape_ratio,2024.1.5,Win32,59.52380952,684250e4f00cb30b92d1fa88,,,,,,,,,,,158.9053,159.4035,,,159.6601,160.0865,right,0.4167,,,,,,,,,0.1,,,,,,159.4037,159.6601,160.0867,"[0.09694164217269918,-0.09213177204035526]",4.0,"[-0.11088952927704987,0.02340149995308015]",4.0,"[-0.034277799633753187,-0.03962231001840084]",4.0,"[-0.13201265524848288,-0.09682480236579573]",4.0,"[-0.1766899769131638,-0.05024117952502386]",4.0,"[-0.06355462458915816,0.07075479355353274]",4.0,"[0.16061682024856977,-0.05988402079802554]",4.0,"[0.0040685678576943005,0.041595590815802226]",4.0,"[0.1017547542556179,-0.14295928542014513]",4.0,"[0.03459222738345674,-0.017302695381049976]",4.0,"[0.0172418326353448,-0.16973537084896181]",4.0,"[-0.07669404704375507,-0.038092983883905376]",4.0,"[0.04542869571757877,-0.06195700014525709]",4.0,"[-0.005336723488016541,0.15169119519960753]",4.0,"[-0.12656735415312692,-0.04486085270658313]",4.0,"[-0.039475344648665596,-0.11978791679969758]",4.0,"[-0.16459807307592553,0.05974491555511705]",4.0,"[0.09846034224413157,0.014892159264204535]",4.0,"[0.060184819666129874,-0.15901089761862194]",4.0,"[0.07216520508390058,0.1687705986275198]",4.0,"[0.1476122506960208,0.02360535624438449]",4.0,"[-0.023242561147998893,-0.18508247419005514]",4.0,"[-0.08177854631892881,-0.16839162566787966]",4.0,"[0.10690347076529995,-0.03614184934777063]",4.0,"[-0.06500408010494976,0.1382533487979877]",100.0,"[-0.025028501145512944,0.11566842963837787]",4.0,"[0.03778758054426185,0.09495163571368276]",100.0,"[-0.024079375697093803,0.18777114896789904]",100.0,"[0.09472374936295842,0.12129305890610916]",4.0,"[-0.19224240753366267,0.010579315140512635]",4.0,"[-0.02900202561685222,0.013394942460974307]",4.0,"[0.14076821104487033,-0.11240321433707469]",4.0,"[0.02,0.02]",161.1864,0.0,43.0,43.0,209.0,1.0,,,,,,,
,,,,,,,6560ae1c1cc374fa2049dd0c,684428ee82600a1b38356ed8,2025-06-07_12h56.50.273,shape_ratio,2024.1.5,Win32,59.52380952,684250e4f00cb30b92d1fa88,,,,,,,,,,,161.188,161.6861,,,161.9421,162.2869,left,0.3366,,,,,,,,,0.45,,,,,,161.6862,161.9421,162.2871,"[-0.08350361995073596,0.09052493414145443]",100.0,"[0.060705672460768155,-0.019579184820419895]",4.0,"[0.17226645439081859,-0.08141755881233723]",4.0,"[0.08238664235136263,-0.15745224635447932]",100.0,"[-0.1267800843331395,0.06304289175472737]",4.0,"[-0.020106511306601075,0.14232173863395486]",100.0,"[0.11313015105024227,0.1310038540609026]",100.0,"[0.002521736864418307,-0.0034392026761667313]",4.0,"[-0.04329016220632192,0.028018027470648785]",4.0,"[-0.12218481599921664,-0.041937953144194046]",4.0,"[-0.06873591213315229,-0.15455837339328488]",100.0,"[0.1903213995655874,0.05836509777058673]",4.0,"[0.025900313556226302,-0.12676014567029523]",4.0,"[0.08137827472058402,0.021398718045108976]",4.0,"[-0.03726212769515357,-0.0642245799514622]",100.0,"[0.012008338938617743,0.17455867910736117]",4.0,"[-0.17385437483550717,0.07984640982373002]",4.0,"[-0.08182613674159747,0.05009356245981793]",4.0,"[0.0035747516861279246,0.0597420980146356]",100.0,"[-0.005445246574537171,-0.18391650781899274]",100.0,"[-0.046380663313693886,0.07460610463107943]",4.0,"[-0.16747191759897329,0.02319674135072329]",100.0,"[-0.15258935984016853,-0.09873388797750808]",4.0,"[0.10836909092150798,-0.06296489285644025]",4.0,"[0.05209767517830847,0.1357820196401765]",4.0,"[-0.08855142763728671,0.14686561658531186]",100.0,"[0.12060042116476936,0.048700287145733906]",100.0,"[0.01139814875698668,0.09990673759957949]",100.0,"[0.05102815347775619,-0.05843961017935172]",100.0,"[0.12046297948589159,-0.129807503706528]",4.0,"[0.16327044685778086,-0.020897293982649515]",4.0,"[-0.11182836373815681,0.012812467602321638]",100.0,"[0.02,0.02]",163.3862,0.0,44.0,44.0,125.0,1.0,,,,,,,
,,,,,,,6560ae1c1cc374fa2049dd0c,684428ee82600a1b38356ed8,2025-06-07_12h56.50.273,shape_ratio,2024.1.5,Win32,59.52380952,684250e4f00cb30b92d1fa88,,,,,,,,,,,163.3878,163.8872,,,164.1437,164.5853,left,0.4327,,,,,,,,,0.5,,,,,,163.8874,164.1437,164.5855,"[0.151441330687723,0.07781409904181498]",4.0,"[-0.08751285291102062,0.17511713514949778]",4.0,"[0.139834474841789,-0.01909284095592779]",100.0,"[0.05638445889578117,-0.12740078260895954]",100.0,"[-0.052613789885267374,-0.06086372888959365]",100.0,"[-0.18752991370908287,0.05020817059539367]",4.0,"[0.17733248774054453,0.03075885030100778]",4.0,"[0.005831496850812281,0.15706166887349599]",4.0,"[-0.0628557262312846,-0.1275651085187286]",4.0,"[-0.0191394344067381,-0.181662235849607]",100.0,"[-0.11860769020843771,0.1342193139174597]",100.0,"[-0.14715711880889124,-0.014637661311377432]",100.0,"[-0.07367439032090045,0.08359199596048746]",100.0,"[0.014058417996942947,-0.1297171605944324]",4.0,"[0.06109790861573877,-0.05373571107431675]",100.0,"[0.03157352809690642,-0.0057635009083079405]",4.0,"[-0.03135277860984591,0.06670551638435568]",4.0,"[0.1171433508117464,0.11841378470126879]",100.0,"[0.1231138455527352,-0.09507115580827893]",100.0,"[-0.16666711809701437,0.10967674539758664]",100.0,"[0.07765134059296985,0.09308678340873723]",4.0,"[-0.1133510312899862,-0.07925930740762357]",100.0,"[0.09889673871509418,0.05892458870758867]",100.0,"[-0.05795648411704195,0.03189300054584295]",100.0,"[-0.0496018327514364,0.15547300384798182]",4.0,"[-0.08647179570767291,-0.008184581200338405]",4.0,"[0.19794215295663795,-0.004778671137378182]",100.0,"[-0.0789549291631386,0.12795709618146767]",4.0,"[0.07215408428473521,-0.009241888327571042]",4.0,"[0.014972887139905165,-0.07701746473790176]",100.0,"[-0.012912070088499794,0.007494707847901974]",4.0,"[0.008504018934333637,0.11646288675754006]",4.0,"[0.02,0.02]",165.6932,0.0,45.0,45.0,109.0,1.0,,,,,,,
,,,,,,,6560ae1c1cc374fa2049dd0c,684428ee82600a1b38356ed8,2025-06-07_12h56.50.273,shape_ratio,2024.1.5,Win32,59.52380952,684250e4f00cb30b92d1fa88,,,,,,,,,,,165.6934,166.1865,,,166.4253,166.9523,left,0.5143,,,,,,,,,0.5,,,,,,166.1866,166.4252,166.9526,"[-0.14686118298907724,-0.04034902073565308]",4.0,"[0.028173004974778478,-0.061467811924412134]",100.0,"[0.17708427020273895,-0.08076071809121144]",100.0,"[-0.10376230894846944,-0.1569102536863544]",4.0,"[0.07129731896309398,-0.07037362162694068]",100.0,"[-0.10138357555681822,-0.07533041827780336]",100.0,"[0.047540241183364224,0.041030149538542414]",100.0,"[0.021284548680622847,-0.16702023980742048]",100.0,"[-0.1968213201076177,-0.03366073674796855]",4.0,"[0.12774193927592403,0.12440816820159054]",100.0,"[-0.0380621716140278,0.09863020435898683]",100.0,"[-0.14321712284336613,-0.11740458790257068]",100.0,"[-0.012652008959023603,-0.002752285367977186]",4.0,"[-0.16703359014883581,0.03945366527754104]",4.0,"[0.08585256787930182,-0.13832832111408283]",100.0,"[0.178969841758756,0.0733984621207377]",4.0,"[-0.07950041994359602,0.1608959653414839]",4.0,"[-0.06227539995962999,-0.10948325137311997]",100.0,"[-0.17497392313259624,-0.0752793216476821]",4.0,"[0.012750209946567724,0.1636214787356928]",4.0,"[0.12038222333338382,-0.06230348004480922]",100.0,"[0.039042673337049916,0.1299817285787956]",4.0,"[0.07508364269234641,-0.024137373564462463]",100.0,"[-0.15733085333480726,0.10750430598831605]",100.0,"[0.12473695558986499,0.0393703932405569]",100.0,"[0.0517245920674284,0.0917157424731771]",4.0,"[-0.042571749417545164,-0.04256509452255589]",4.0,"[0.1678866181920872,-0.014377930590108045]",4.0,"[-0.11584208308967055,0.11301408801619418]",100.0,"[-0.12269860055979621,0.0470454370630726]",4.0,"[0.03842949470262026,-0.0008180348278709768]",4.0,"[-0.006806996924789668,-0.08581558322384734]",4.0,"[0.02,0.02]",168.052,0.0,46.0,46.0,103.0,1.0,,,,,,,
,,,,,,,6560ae1c1cc374fa2049dd0c,684428ee82600a1b38356ed8,2025-06-07_12h56.50.273,shape_ratio,2024.1.5,Win32,59.52380952,684250e4f00cb30b92d1fa88,,,,,,,,,,,168.0535,168.5521,,,168.7935,169.3196,right,0.5059,,,,,,,,,0.4,,,,,,168.5522,168.7934,169.3197,"[0.0016966897270559952,0.07999697038551845]",4.0,"[0.05661774981269889,-0.07948770346697545]",4.0,"[-0.1410168147849821,0.005741503561946178]",100.0,"[0.11001310615011753,0.07961993854790729]",4.0,"[0.015908473385209218,0.1639060013941917]",4.0,"[0.008767598864141858,-0.03596287540626104]",100.0,"[0.00658741438270961,-0.1541206061669157]",4.0,"[-0.015629134463747574,-0.07992059915749426]",4.0,"[0.10093068327858043,0.1345456980831963]",100.0,"[0.0894819483591878,0.17559497779579697]",4.0,"[-0.04656160173043145,-0.008737356088463362]",4.0,"[0.0749262382048424,0.0027946320952469774]",4.0,"[-0.04255599352923563,0.058074323095417074]",100.0,"[-0.1724384207054105,-0.09081254694598384]",4.0,"[0.036775130010412535,-0.12778106854497065]",4.0,"[-0.05888249372966612,-0.12384619296862899]",4.0,"[-0.12386493719742836,0.11589022355108648]",100.0,"[-0.03801200422852311,-0.16646076127801576]",100.0,"[0.08877341725944603,-0.15911657035315344]",4.0,"[-0.1407263148247552,0.05102886105251491]",100.0,"[0.13784724384165412,-0.12597515707561063]",100.0,"[-0.020684681803489223,0.1284089630266595]",4.0,"[-0.08670454120790538,0.02279599572735331]",100.0,"[0.16256255816538717,-0.014088168518477405]",100.0,"[0.17587503100335408,0.028270167105056292]",100.0,"[-0.06798670472282435,-0.06988216004142801]",4.0,"[0.002184823091610907,0.018488841657389593]",100.0,"[0.06834529771913014,0.08301353401517247]",4.0,"[-0.18350625948486782,-0.0024407470091876568]",4.0,"[-0.08263366339837307,0.07230365779885696]",4.0,"[-0.12671832187284313,-0.13110062517977317]",100.0,"[0.026660706217963914,0.12238894785800787]",4.0,"[0.02,0.02]",170.4182,0.0,47.0,47.0,167.0,1.0,,,,,,,
,,,,,,,6560ae1c1cc374fa2049dd0c,684428ee82600a1b38356ed8,2025-06-07_12h56.50.273,shape_ratio,2024.1.5,Win32,59.52380952,684250e4f00cb30b92d1fa88,,,,,,,,,,,170.4194,170.92,,,171.1753,171.6198,left,0.4304,,,,,,,,,0.4,,,,,,170.9202,171.1753,171.6201,"[0.08473973101179036,-0.02083182844629151]",4.0,"[-0.16728205060310258,0.023914652108566033]",4.0,"[0.026405439605455872,0.042966170773107534]",100.0,"[0.04328537498502139,-0.14111658144871853]",4.0,"[-0.012462502092704589,-0.02710612458802507]",4.0,"[-0.030026150877971166,0.053553294267710064]",4.0,"[-0.15091998023908035,-0.03526703644375712]",100.0,"[-0.06990487660975953,0.14995247098333994]",4.0,"[-0.025899952943609937,0.09376927044544281]",4.0,"[0.1043647430094653,0.08841805091781244]",100.0,"[-0.08197564117525868,-0.16017165355690757]",4.0,"[-0.07703193333066699,0.05656474521847329]",100.0,"[0.13531876666846185,0.049764259829178425]",100.0,"[0.17629072423555628,0.06828255056624265]",100.0,"[0.11152942282260483,0.14745630060418805]",100.0,"[0.09311177084283996,-0.14889327888242504]",4.0,"[-0.01436273736235091,0.1524172365813097]",4.0,"[0.07048524986151668,-0.06701732750036477]",4.0,"[0.17636138999063608,-0.0710874814350428]",4.0,"[-0.13924682376415565,0.10424388790973275]",4.0,"[-0.18219538656361772,-0.06534461271055408]",4.0,"[-0.11269085554141586,-0.07289841284216497]",4.0,"[-0.1120113862290429,0.0020881030206482787]",100.0,"[0.03327449233420393,0.13169370567209449]",100.0,"[0.1342106240098789,-0.0605595338778272]",4.0,"[0.19816733431968384,0.024836750903207944]",4.0,"[-0.010142895402475488,-0.15943543882556602]",100.0,"[0.006235662383835639,0.19634911010504258]",4.0,"[0.03007223078345343,0.08385526297315297]",100.0,"[0.0873643718703453,0.02083869345618779]",100.0,"[0.10736867505600366,-0.0966527728140015]",100.0,"[-0.1279117303527937,0.05756600169138717]",4.0,"[0.02,0.02]",172.7108,0.0,48.0,48.0,161.0,1.0,,,,,,,
,,,,,,,6560ae1c1cc374fa2049dd0c,684428ee82600a1b38356ed8,2025-06-07_12h56.50.273,shape_ratio,2024.1.5,Win32,59.52380952,684250e4f00cb30b92d1fa88,,,,,,,,,,,172.7111,173.2027,,,173.4545,173.8032,right,0.3187,,,,,,,,,0.4,,,,,,173.2029,173.4543,173.8034,"[0.11611155303702031,0.0137942390228184]",100.0,"[0.08457894142434538,0.1180783952700952]",4.0,"[-0.0688755849819796,-0.06761293593200439]",100.0,"[0.07533910613890242,-0.04256463207728019]",4.0,"[0.19377327857263116,0.02773062291636231]",100.0,"[0.032835469755523844,0.15557790149368497]",4.0,"[-0.04804571303766861,0.1468975532460394]",4.0,"[0.05323765297010463,-0.18867784334452614]",100.0,"[0.1810807191020451,-0.06833455571526204]",4.0,"[-0.027909825482402645,0.09632374506943449]",4.0,"[-0.07001218465333155,0.058661134312896386]",4.0,"[-0.15415674218819087,-0.00807188665173175]",4.0,"[-0.01892287546947817,0.0004490157087995469]",4.0,"[0.1165443448558763,0.1612925505297495]",4.0,"[-0.10548696850881581,0.08236547394127228]",4.0,"[-0.09513468453035777,-0.015850617631507864]",100.0,"[-0.04858384464953068,-0.10364909776657502]",4.0,"[0.08883575932371969,-0.0881321506426334]",4.0,"[0.026036602775046574,-0.01844160051283568]",4.0,"[-0.0417404953786541,-0.037746342620137256]",4.0,"[-0.006990023231702117,-0.058657785286094985]",100.0,"[-0.11461092227608424,0.12217569027751148]",4.0,"[-0.17883872239601384,-0.0775196903558394]",100.0,"[0.02042702978835291,-0.1510163238472411]",4.0,"[0.10817256848470026,-0.1681534859784565]",100.0,"[-0.13710820796541168,-0.08108906147608551]",100.0,"[0.11818739345129403,0.0716085676999586]",4.0,"[0.042137291868415624,0.05114257570632392]",4.0,"[0.06581731142863566,-0.12418353458240576]",100.0,"[-0.010774388762649616,-0.1768722930149602]",100.0,"[0.1332176438926787,-0.08374117994015015]",100.0,"[0.027034070520130328,-0.09707749449668755]",100.0,"[0.02,0.02]",174.9033,0.0,49.0,49.0,174.0,1.0,,,,,,,
