right,left,explain.started,explain.stopped,key_resp_3.keys,key_resp_3.rt,key_resp_3.duration,participant,session,date,expName,psychopyVersion,OS,frameRate,study_id,explain_2.started,explain_2.stopped,key_resp_4.keys,key_resp_4.rt,key_resp_4.duration,explain_3.started,explain_3.stopped,key_resp_5.keys,key_resp_5.rt,key_resp_5.duration,fixation.started,fixation.stopped,practice.started,practice.stopped,response.started,response.stopped,key_resp.keys,feedback.started,feedback.stopped,trials_2.thisRepN,trials_2.thisTrialN,trials_2.thisN,trials_2.thisIndex,trials_2.ran,dot_ratio,key_resp.rt,key_resp.duration,explain_4.started,explain_4.stopped,key_resp_6.keys,key_resp_6.rt,key_resp_6.duration,dotDisplay.started,dotDisplay.stopped,ITI.started,polygon_1.pos,polygon_1.edges,polygon_2.pos,polygon_2.edges,polygon_3.pos,polygon_3.edges,polygon_4.pos,polygon_4.edges,polygon_5.pos,polygon_5.edges,polygon_6.pos,polygon_6.edges,polygon_7.pos,polygon_7.edges,polygon_8.pos,polygon_8.edges,polygon_9.pos,polygon_9.edges,polygon_10.pos,polygon_10.edges,polygon_11.pos,polygon_11.edges,polygon_12.pos,polygon_12.edges,polygon_13.pos,polygon_13.edges,polygon_14.pos,polygon_14.edges,polygon_15.pos,polygon_15.edges,polygon_16.pos,polygon_16.edges,polygon_17.pos,polygon_17.edges,polygon_18.pos,polygon_18.edges,polygon_19.pos,polygon_19.edges,polygon_20.pos,polygon_20.edges,polygon_21.pos,polygon_21.edges,polygon_22.pos,polygon_22.edges,polygon_23.pos,polygon_23.edges,polygon_24.pos,polygon_24.edges,polygon_25.pos,polygon_25.edges,polygon_26.pos,polygon_26.edges,polygon_27.pos,polygon_27.edges,polygon_28.pos,polygon_28.edges,polygon_29.pos,polygon_29.edges,polygon_30.pos,polygon_30.edges,polygon_31.pos,polygon_31.edges,polygon_32.pos,polygon_32.edges,dot_size,ITI.stopped,trials.thisRepN,trials.thisTrialN,trials.thisN,trials.thisIndex,trials.ran,break_2.started,break_2.stopped,trials_3.thisRepN,trials_3.thisTrialN,trials_3.thisN,trials_3.thisIndex,trials_3.ran
subject chose diamond,subject chose dot,0.001,57.1991,space,42.1759,,6597f6dc6f784e1f69bfadfa,683aeefe0114d15acdcbf0d6,2025-05-31_13h59.19.425,shape_ratio,2024.1.5,Win32,60.24096386,683ae9196541af24d3a69e58,,,,,,,,,,,,,,,,,,,,,,,,,,,,,,,,,,,,,,,,,,,,,,,,,,,,,,,,,,,,,,,,,,,,,,,,,,,,,,,,,,,,,,,,,,,,,,,,,,,,,,,,,,,,,,,,,
,,,,,,,6597f6dc6f784e1f69bfadfa,683aeefe0114d15acdcbf0d6,2025-05-31_13h59.19.425,shape_ratio,2024.1.5,Win32,60.24096386,683ae9196541af24d3a69e58,57.1995,100.7014,space,13.4748,,,,,,,,,,,,,,,,,,,,,,,,,,,,,,,,,,,,,,,,,,,,,,,,,,,,,,,,,,,,,,,,,,,,,,,,,,,,,,,,,,,,,,,,,,,,,,,,,,,,,,,,,,,,,
,,,,,,,6597f6dc6f784e1f69bfadfa,683aeefe0114d15acdcbf0d6,2025-05-31_13h59.19.425,shape_ratio,2024.1.5,Win32,60.24096386,683ae9196541af24d3a69e58,,,,,,100.7019,104.1807,space,0.4612,,,,,,,,,,,,,,,,,,,,,,,,,,,,,,,,,,,,,,,,,,,,,,,,,,,,,,,,,,,,,,,,,,,,,,,,,,,,,,,,,,,,,,,,,,,,,,,,,,,,,,,,
,,,,,,,6597f6dc6f784e1f69bfadfa,683aeefe0114d15acdcbf0d6,2025-05-31_13h59.19.425,shape_ratio,2024.1.5,Win32,60.24096386,683ae9196541af24d3a69e58,,,,,,,,,,,104.2321,104.6957,104.6968,104.9461,104.9465,106.4433,,106.4437,107.5422,0.0,0.0,0.0,0.0,1.0,0.2,,,,,,,,,,,,,,,,,,,,,,,,,,,,,,,,,,,,,,,,,,,,,,,,,,,,,,,,,,,,,,,,,,,,,,,,,,,,,,,,,,,,,,,,
,,,,,,,6597f6dc6f784e1f69bfadfa,683aeefe0114d15acdcbf0d6,2025-05-31_13h59.19.425,shape_ratio,2024.1.5,Win32,60.24096386,683ae9196541af24d3a69e58,,,,,,,,,,,107.5434,108.0411,108.0411,108.2919,108.292,108.9418,left,108.942,110.0394,0.0,1.0,1.0,1.0,1.0,0.8,0.6432,,,,,,,,,,,,,,,,,,,,,,,,,,,,,,,,,,,,,,,,,,,,,,,,,,,,,,,,,,,,,,,,,,,,,,,,,,,,,,,,,,,,,,,
,,,,,,,6597f6dc6f784e1f69bfadfa,683aeefe0114d15acdcbf0d6,2025-05-31_13h59.19.425,shape_ratio,2024.1.5,Win32,60.24096386,683ae9196541af24d3a69e58,,,,,,,,,,,,,,,,,,,,,,,,,,,,110.0402,115.3681,space,2.3052,,,,,,,,,,,,,,,,,,,,,,,,,,,,,,,,,,,,,,,,,,,,,,,,,,,,,,,,,,,,,,,,,,,,,,,,,,,,,,,,,,
,,,,,,,6597f6dc6f784e1f69bfadfa,683aeefe0114d15acdcbf0d6,2025-05-31_13h59.19.425,shape_ratio,2024.1.5,Win32,60.24096386,683ae9196541af24d3a69e58,,,,,,,,,,,115.4079,115.8696,,,116.1179,117.3656,right,,,,,,,,0.6,1.2349,,,,,,,115.8701,116.1178,117.3666,"[0.13565191837428536,0.0622782103566901]",4.0,"[-0.0014423516292366401,0.19274168870999817]",100.0,"[-0.07328955387106724,-0.046162288590937114]",100.0,"[0.08092000184247698,-0.016055713557215058]",100.0,"[0.09407461712338365,0.036036149497669]",4.0,"[0.08725417323109805,-0.13473277039278755]",4.0,"[0.03631680333340629,-0.0027688319498578753]",4.0,"[-0.0750454136308446,0.04111044289506125]",100.0,"[0.1917693915234548,-0.019115000739868892]",4.0,"[-0.0866001932143262,0.10037076062581102]",100.0,"[0.17265267260038014,0.08144991500694755]",100.0,"[-0.047263905792000224,-0.15129946547497067]",100.0,"[0.04665631448665072,0.13985493499692686]",4.0,"[0.017091846163835883,0.0991472991869584]",4.0,"[-0.18311879128221334,0.008790845742245304]",100.0,"[-0.11819188745658463,-0.08991062308566435]",100.0,"[0.04380032119761369,0.18896337282660344]",100.0,"[-0.11732020294340709,-0.015821415001372165]",4.0,"[-0.05336896410849963,0.18179184622887806]",4.0,"[-0.004061608603570836,-0.1336231870147677]",100.0,"[0.12953827558034287,-0.003839164062550747]",100.0,"[-0.1902920092859683,0.061524874205365385]",100.0,"[0.09862223630185608,-0.09117563582647664]",4.0,"[0.12814617068206302,-0.1502571109738049]",4.0,"[-0.03062836104759124,-0.015387942393391769]",100.0,"[0.127869956656245,0.13352638101786843]",100.0,"[-0.11493309176062658,0.14287820256101225]",100.0,"[0.08392892653503321,0.16641697930246693]",100.0,"[-0.12517878664727133,-0.13862801541924608]",4.0,"[0.045524096874081245,0.04640846989401529]",100.0,"[-0.007313827810274669,-0.08545312263655004]",4.0,"[-0.15231203960175166,-0.058722113282169114]",100.0,"[0.02,0.02]",118.4647,0.0,0.0,0.0,56.0,1.0,,,,,,,
,,,,,,,6597f6dc6f784e1f69bfadfa,683aeefe0114d15acdcbf0d6,2025-05-31_13h59.19.425,shape_ratio,2024.1.5,Win32,60.24096386,683ae9196541af24d3a69e58,,,,,,,,,,,118.4662,118.9639,,,119.2145,120.1963,right,,,,,,,,0.45,0.9725,,,,,,,118.964,119.2144,120.1965,"[0.15591091725497389,0.0802992900884156]",4.0,"[-0.09590423592083835,-0.1554527201337152]",100.0,"[0.017338061434556205,0.15657596519880299]",4.0,"[-0.12291696190581071,0.15696963460623062]",4.0,"[-0.0013248142802411243,0.0005718030516561676]",100.0,"[-0.1984091393185356,-0.020719917934812863]",4.0,"[-0.08257287669846722,0.14712224161830736]",4.0,"[0.10035671618054896,-0.0554630875276507]",4.0,"[0.04782040020990641,-0.03087381205255596]",4.0,"[0.12711944389157195,0.11780429083882726]",4.0,"[-0.044031304130607296,-0.1392655472040144]",4.0,"[-0.005983998039989574,-0.1229769775165075]",100.0,"[0.013413084360348005,-0.1700951876287762]",100.0,"[0.05902975793425607,-0.08859033478832021]",100.0,"[0.07313575813759277,0.13560911188120595]",100.0,"[-0.07517835721672103,-0.027185021045886732]",4.0,"[0.11466083950554633,-0.15418458945917618]",4.0,"[0.10777841011151343,0.07876432593529387]",4.0,"[0.14639746199803133,-0.010639272888699754]",4.0,"[-0.13932418795057072,-0.10906683734737269]",4.0,"[-0.1472734128558469,0.11267345142050061]",100.0,"[0.06498686211840804,0.07198187344206317]",100.0,"[-0.08436636274985512,0.045579782120428354]",100.0,"[-0.13242960056815728,-0.0449136595137067]",4.0,"[0.10113214247491321,-0.000316353294364382]",4.0,"[0.14031018994631758,-0.0963677531159716]",100.0,"[0.06938789450710124,-0.16860992811215947]",100.0,"[-0.1765101402667974,-0.07507092526797769]",4.0,"[-0.14710269047955318,-0.002186348180856807]",4.0,"[-0.03242764203242848,0.0369323639314124]",100.0,"[-0.04868365214911628,0.12290545702084003]",100.0,"[-0.1887455461978917,0.022130224358024617]",100.0,"[0.02,0.02]",121.2949,0.0,1.0,1.0,130.0,1.0,,,,,,,
,,,,,,,6597f6dc6f784e1f69bfadfa,683aeefe0114d15acdcbf0d6,2025-05-31_13h59.19.425,shape_ratio,2024.1.5,Win32,60.24096386,683ae9196541af24d3a69e58,,,,,,,,,,,121.296,121.7945,,,122.045,122.6605,left,,,,,,,,0.9,0.6023,,,,,,,121.7945,122.0449,122.6607,"[0.054643723241309505,0.10882431020933814]",100.0,"[0.05026152775531011,-0.08893174631717082]",100.0,"[0.15279829480761004,0.061017090319160805]",100.0,"[-0.14958100768842753,0.037549439396887506]",100.0,"[0.1818161331690412,-0.056857678070597724]",100.0,"[-0.07079111165645545,0.1752492237075267]",100.0,"[0.11273157556651216,0.07694892702173882]",100.0,"[-0.1164071787762204,-0.06887482687811602]",100.0,"[-0.09334483119028507,-0.02902045095287122]",100.0,"[0.010227375599523865,0.18185021229734608]",100.0,"[-0.009315969741621608,-0.05748437348534062]",100.0,"[0.13091420679951887,-0.006892070126807164]",4.0,"[-0.0023142628873933074,-0.11957490593629899]",100.0,"[0.020547320906095467,0.00663446851818609]",100.0,"[-0.04686994511833476,-0.18856496845240853]",100.0,"[0.06671659283721551,0.04195700705013387]",4.0,"[-0.13977722030363557,-0.01151359569937935]",100.0,"[0.0018043186102145558,0.11033553005720362]",100.0,"[-0.11985020961037299,-0.12521917794096457]",100.0,"[-0.15868036989277157,0.09221124592285186]",100.0,"[0.08643713034687796,-0.030194020237950765]",4.0,"[-0.06578600258242313,0.11217270724041122]",100.0,"[-0.06835499244152766,0.04373809733282859]",100.0,"[-0.09829766770828852,0.08678217856015503]",100.0,"[0.10402181139324418,-0.15425905458925485]",100.0,"[-0.03272991084474508,0.06781287339226108]",100.0,"[-0.01762534172407296,-0.014940201152845708]",100.0,"[-0.05404350122693734,-0.11131034949384966]",100.0,"[-0.17977245668277547,-0.04972820166900183]",100.0,"[0.041070926975002454,-0.15408752843095577]",100.0,"[0.09107498768716105,-0.07632351163252354]",100.0,"[0.033688289159777354,-0.03389577694106994]",100.0,"[0.02,0.02]",123.7592,0.0,2.0,2.0,6.0,1.0,,,,,,,
,,,,,,,6597f6dc6f784e1f69bfadfa,683aeefe0114d15acdcbf0d6,2025-05-31_13h59.19.425,shape_ratio,2024.1.5,Win32,60.24096386,683ae9196541af24d3a69e58,,,,,,,,,,,123.76,124.2586,,,124.5094,125.3745,right,,,,,,,,0.1,0.8558,,,,,,,124.2587,124.5094,125.3748,"[0.06126203085185748,-0.09775798735417314]",4.0,"[0.11395772500627759,-0.09611335670339506]",4.0,"[0.07284117592547375,-0.13755944983621082]",4.0,"[0.024858111034082045,0.17377461356175716]",4.0,"[0.056442061654137635,0.13907591329128782]",4.0,"[-0.06526579073469473,-0.050453976767646846]",4.0,"[-0.10407989266789916,-0.09550751013071723]",4.0,"[-0.1664682649177048,0.041392015501085726]",4.0,"[0.009788832566752946,-0.1354193373195922]",4.0,"[-0.18472183539589448,-0.018066478932374067]",100.0,"[0.17763272345026165,-0.03084362793575898]",4.0,"[0.17142799140610823,-0.10100622809224259]",4.0,"[-0.10757702564976197,0.06693500458452319]",4.0,"[-0.023996845253245587,-0.014994010508246976]",4.0,"[0.1377594861170692,0.08982740500100539]",4.0,"[0.1067150704362871,-0.007823394749484652]",4.0,"[0.12783154724782825,-0.0515238648126593]",4.0,"[-0.028306994601988617,0.14503827488836274]",100.0,"[0.007396862262168809,0.06568831435624152]",4.0,"[-0.008300238253653936,-0.09767770770373752]",4.0,"[-0.014801607207498495,-0.171175295372047]",4.0,"[-0.0552193282577656,0.05295401311433986]",4.0,"[-0.0773072739660382,0.18102899515715415]",4.0,"[-0.0989869894457379,-0.017567601741049044]",4.0,"[-0.15881888192996121,-0.05541179622580742]",4.0,"[0.07238349370201612,0.05755379955050475]",100.0,"[-0.10746637503300244,-0.15021799427668706]",4.0,"[0.12180538502123235,0.041261103361288784]",4.0,"[-0.13660324321972794,0.11249734569218878]",4.0,"[0.07941608830283561,-0.05445413513367214]",4.0,"[0.08257091852512642,0.17504164732887026]",4.0,"[-0.0848160922515364,0.12924044736051904]",4.0,"[0.02,0.02]",126.4736,0.0,3.0,3.0,203.0,1.0,,,,,,,
,,,,,,,6597f6dc6f784e1f69bfadfa,683aeefe0114d15acdcbf0d6,2025-05-31_13h59.19.425,shape_ratio,2024.1.5,Win32,60.24096386,683ae9196541af24d3a69e58,,,,,,,,,,,126.4749,126.9729,,,127.2243,128.2415,right,,,,,,,,0.55,0.999,,,,,,,126.9731,127.2242,128.2418,"[0.18664423802381078,0.027321413628351093]",100.0,"[0.14830391120319505,-0.02042402900999596]",4.0,"[0.15425675963155444,-0.08346294959586119]",4.0,"[0.0770110152246885,-0.08331225635432564]",4.0,"[-0.09504976619880476,-0.05485302866503955]",4.0,"[-0.10427641768115446,0.07480601542362456]",100.0,"[-0.027732512233725127,0.01772719236884612]",4.0,"[-0.02686219254669433,0.17247481577485219]",100.0,"[0.060769802919351336,-0.04668407503741696]",100.0,"[0.00454196623032455,0.08429902834555045]",100.0,"[-0.03721565562643702,-0.061417750870167834]",100.0,"[-0.04483657527186479,0.0582645915226422]",4.0,"[-0.15763010077258224,-0.09432273750211131]",100.0,"[0.022628103734694916,-0.19743707795617393]",4.0,"[-0.1786067103658395,0.0425013664819037]",4.0,"[-0.1874783257536196,-0.06563560029432493]",100.0,"[-0.03458715316937165,-0.12450302249056791]",4.0,"[0.15841544931075593,0.11661569859872077]",100.0,"[-0.060420940909884105,0.12518775916184893]",100.0,"[0.09729779149528715,-0.15186880336891304]",100.0,"[-0.11978216598200198,-0.014214514764729024]",100.0,"[-0.06000351884795741,-0.15592725062366405]",100.0,"[-0.08710917750219677,-0.10853343629315632]",4.0,"[-0.1625848065146902,-0.030095352092994247]",100.0,"[0.016813836284144467,0.18937405555194717]",4.0,"[0.07061426830901082,0.1293476222799461]",100.0,"[0.008503949151028024,-0.09354166613172879]",4.0,"[-0.1776754029755005,0.08993773560864854]",100.0,"[-0.06039238770827719,-0.023913701171086404]",100.0,"[0.10927715056767343,-0.00899057860873481]",100.0,"[0.05083639730485193,-0.16004781446781702]",4.0,"[-0.11353950468200161,0.032708725200170666]",4.0,"[0.02,0.02]",129.3371,0.0,4.0,4.0,87.0,1.0,,,,,,,
,,,,,,,6597f6dc6f784e1f69bfadfa,683aeefe0114d15acdcbf0d6,2025-05-31_13h59.19.425,shape_ratio,2024.1.5,Win32,60.24096386,683ae9196541af24d3a69e58,,,,,,,,,,,129.3383,129.8369,,,130.087,130.5028,left,,,,,,,,0.55,0.4068,,,,,,,129.8371,130.087,130.5029,"[0.061525548242820624,0.1321999013181471]",4.0,"[-0.08196412976223388,0.038424166207379484]",100.0,"[0.07227006787186005,-0.12317608887105794]",100.0,"[0.12661299288623484,-0.104840296974516]",100.0,"[-0.1029909841816158,0.09887266636920197]",100.0,"[0.022194748071902307,-0.040471232562167864]",4.0,"[0.08481692416788598,0.0434514614298632]",100.0,"[0.18359838935121453,0.05827417363718889]",4.0,"[0.1292531253029308,0.0973089641654205]",100.0,"[-0.055679570859770856,-0.08277015944644397]",4.0,"[-0.05510064319675272,-0.12673218407416026]",100.0,"[-0.10620240867450832,-0.08311619868156676]",4.0,"[0.1377962034916327,-0.05015427865478994]",4.0,"[0.012280766120351744,0.09923816808867637]",4.0,"[-0.010601045695907148,-0.1522611538813971]",4.0,"[-0.09688006411451151,0.13983614734341518]",100.0,"[-0.01131917410294255,0.049096161591872176]",100.0,"[0.0973880401345467,0.15310695073881878]",4.0,"[-0.03914539169852377,0.09153856854410687]",4.0,"[-0.022690471331637308,0.16358856505797276]",100.0,"[0.1493097835656223,0.028297294887800147]",100.0,"[-0.17364587486686536,-0.09401160416778874]",4.0,"[0.07988099661963505,-0.03330436798824376]",100.0,"[-0.16213799316299798,-0.03592284711123311]",4.0,"[-0.11980773046195634,-0.013048162798137112]",100.0,"[0.03369784244008625,-0.1072316002283128]",100.0,"[0.05663267471990486,0.09131080517891975]",4.0,"[-0.15547001494443327,0.10270014457954421]",100.0,"[0.018501620042968393,0.009188137902437046]",100.0,"[0.0856932503108249,-0.161550649889815]",100.0,"[0.06474380630409106,0.004788489032753731]",4.0,"[-0.013388173073167992,-0.02077257042921111]",100.0,"[0.02,0.02]",131.6013,0.0,5.0,5.0,75.0,1.0,,,,,,,
,,,,,,,6597f6dc6f784e1f69bfadfa,683aeefe0114d15acdcbf0d6,2025-05-31_13h59.19.425,shape_ratio,2024.1.5,Win32,60.24096386,683ae9196541af24d3a69e58,,,,,,,,,,,131.6022,132.101,,,132.352,132.8554,right,,,,,,,,0.6,0.4838,,,,,,,132.101,132.3519,132.8556,"[-0.15959347123914439,0.039097991805349896]",100.0,"[-0.0242068805047537,0.13011714516039566]",4.0,"[0.17945984248408167,0.03145338629639401]",4.0,"[0.1226110864438551,0.09893646572728054]",100.0,"[-0.023052204600068536,0.04307072499732354]",4.0,"[0.05920283228465406,-0.1557155595523463]",4.0,"[-0.1444749760405717,0.0828438901958385]",100.0,"[0.1820875184806142,-0.030783278736850148]",100.0,"[0.04429297877988942,-0.017482776520348176]",100.0,"[-0.08552959852888016,0.07594635309351468]",4.0,"[0.019502594713277036,0.1583071705921084]",100.0,"[0.008003579272497015,-0.14732441582129296]",100.0,"[-0.02963966065965465,-0.03356012694140457]",100.0,"[-0.06877454488884327,-0.058751133808885865]",100.0,"[-0.11168753993154303,-0.00612753322437014]",4.0,"[0.12166716915228995,-0.11292078853253751]",100.0,"[0.12873953990621648,0.048874044703664535]",100.0,"[-0.07365208302122073,0.18471487232339237]",100.0,"[0.06604167522596016,-0.09569906547439491]",100.0,"[0.1399881805047303,-0.0061060722908102515]",100.0,"[-0.09004457426930643,0.13657098251395194]",100.0,"[0.06367119193038745,0.06650870181179959]",100.0,"[-0.14210239815338263,-0.04553320679789715]",4.0,"[-0.15590049773099424,-0.1093971656379655]",4.0,"[0.03447244090716775,-0.19298265549958898]",100.0,"[-0.1077551899974019,-0.12669229704313809]",4.0,"[-0.019523770254986514,-0.11660621630096478]",4.0,"[-0.18796295359118395,0.0036413621324145546]",100.0,"[-0.08869971603837173,-0.1755602841104713]",4.0,"[0.08553088199355256,-0.03924760118859447]",100.0,"[0.15586367407072402,-0.08123744415854843]",4.0,"[-0.07171806847345051,0.013345541765075561]",4.0,"[0.02,0.02]",133.9491,0.0,6.0,6.0,58.0,1.0,,,,,,,
,,,,,,,6597f6dc6f784e1f69bfadfa,683aeefe0114d15acdcbf0d6,2025-05-31_13h59.19.425,shape_ratio,2024.1.5,Win32,60.24096386,683ae9196541af24d3a69e58,,,,,,,,,,,133.9505,134.4489,,,134.7019,134.8332,left,,,,,,,,0.45,0.1057,,,,,,,134.4492,134.7018,134.8333,"[-0.14735471465151498,0.10375080487479092]",4.0,"[0.07730412148583603,0.08845964274371727]",100.0,"[0.1052130753167028,0.054289877853956864]",100.0,"[0.05554493457968291,-0.12437089085265948]",100.0,"[0.17772271633694758,-0.047417645030369264]",100.0,"[-0.11037431446526805,-0.08041507969815788]",4.0,"[0.04297803854184223,0.11330690878526638]",100.0,"[0.013695189168572115,0.14640922704900394]",4.0,"[-0.043866622153053335,-0.15332569597512336]",4.0,"[-0.08998861943610081,0.04690509067674112]",4.0,"[-0.07056926917616534,0.14825478395183905]",4.0,"[0.004876358388349335,0.18928206524866178]",4.0,"[-0.023506840616274016,-0.11546865011538113]",4.0,"[0.11291174348871226,-0.13039391970608258]",100.0,"[-0.11861494181632536,-0.03893693620667853]",4.0,"[0.15810650986629168,0.1097451614964784]",100.0,"[-0.11131916257925527,0.14234363422426877]",100.0,"[-0.07027404762295303,-0.18709078513131563]",100.0,"[-0.06395633639931951,0.08752753889521292]",4.0,"[0.019578671464266062,0.06822249304562993]",4.0,"[0.029999017128789208,-0.19053562025291373]",100.0,"[-0.07034863744691022,-0.09072758716934196]",4.0,"[-0.034781172761262,-0.038804618839338084]",4.0,"[0.049143479773865135,0.18665682406554243]",100.0,"[0.08020612678587516,-0.05130481241344401]",100.0,"[0.18627364311838832,0.05758689069601753]",4.0,"[0.0934269463968971,0.01475959423881677]",4.0,"[0.007593415816106226,-0.008832236488022836]",100.0,"[0.040249197725320346,-0.06279453634548897]",4.0,"[-0.08904126389300289,-0.1387992681498739]",100.0,"[0.16455906628845832,-0.10646980964544046]",4.0,"[-0.0227159177529474,0.0490276568531385]",4.0,"[0.02,0.02]",135.9342,0.0,7.0,7.0,149.0,1.0,,,,,,,
,,,,,,,6597f6dc6f784e1f69bfadfa,683aeefe0114d15acdcbf0d6,2025-05-31_13h59.19.425,shape_ratio,2024.1.5,Win32,60.24096386,683ae9196541af24d3a69e58,,,,,,,,,,,135.9355,136.4302,,,136.6834,136.8478,right,,,,,,,,0.1,0.145,,,,,,,136.4304,136.6833,136.8481,"[-0.08154433247088186,0.12553076778221864]",4.0,"[0.024745387978077033,-0.0644867403555483]",4.0,"[-0.018246173817380567,-0.19161755246831103]",4.0,"[0.0584145699413157,0.05819686858327855]",4.0,"[-0.049469552191599625,-0.07009478947698321]",100.0,"[0.1562200016862804,0.11946333956037865]",4.0,"[-0.06108408581000723,-0.02788986637633367]",4.0,"[-0.02416492746799019,0.14225302340824103]",100.0,"[-0.12002575479981832,0.01107987864711076]",4.0,"[0.1028037815028527,0.08423856622107836]",4.0,"[0.08195959343659064,-0.11946444499650738]",4.0,"[0.12538239902824186,-0.008797696115937144]",4.0,"[0.12759456271658978,-0.10189576005150129]",4.0,"[-0.016649236670156074,-0.0975810501088681]",4.0,"[-0.02127933167830887,0.08140553587779635]",4.0,"[0.013452076494001071,0.038434976246707865]",4.0,"[-0.1394570443631301,-0.025038258004611635]",4.0,"[-0.17533178510809164,-0.05991990769829014]",100.0,"[0.1591502243077211,0.0199924730392147]",4.0,"[0.01580908279881324,-0.12125234701674231]",4.0,"[0.08268961842797264,0.16288709465524284]",4.0,"[-0.11898903442092605,0.0651667587953185]",4.0,"[-0.048515129434185254,-0.16162956485182428]",4.0,"[0.0014479444188112117,-0.0157226828105404]",4.0,"[0.10954239365445012,-0.05187369718669538]",4.0,"[-0.10650376902967201,0.15746421135905334]",4.0,"[-0.11296394547997825,-0.10558539981123284]",4.0,"[-0.07921127904498342,0.023552566007517792]",4.0,"[0.051298374721295385,-0.0011193091077642155]",4.0,"[0.0328970297008224,0.15870338492314848]",4.0,"[-0.1445679501656083,0.12341495774042222]",4.0,"[-0.17246480775668524,0.0013918471289476359]",4.0,"[0.02,0.02]",137.9481,0.0,8.0,8.0,209.0,1.0,,,,,,,
,,,,,,,6597f6dc6f784e1f69bfadfa,683aeefe0114d15acdcbf0d6,2025-05-31_13h59.19.425,shape_ratio,2024.1.5,Win32,60.24096386,683ae9196541af24d3a69e58,,,,,,,,,,,137.9489,138.4447,,,138.6955,139.0943,left,,,,,,,,0.9,0.3816,,,,,,,138.4448,138.6953,139.0944,"[0.18403430019100786,-0.057952034400677456]",100.0,"[0.16638586114085385,0.04928714107350412]",100.0,"[-0.05269845636750634,-0.17659982038441158]",100.0,"[-0.05761808200879589,-0.08757221923516299]",100.0,"[0.011834345088425579,-0.09612200178824616]",100.0,"[0.10552419110110946,-0.035877046588051915]",100.0,"[0.05096936533538966,0.15118332452191216]",4.0,"[0.19109432508759194,0.015546971373916113]",100.0,"[-0.10156291613980524,-0.15839628980780873]",100.0,"[-0.12202550678378883,0.03378940165610878]",4.0,"[-0.08039648509816566,-0.0038645846501559043]",100.0,"[-0.13777940915331832,0.08558810241659003]",100.0,"[0.019515564313011262,0.0975158766232089]",4.0,"[0.13463916849255714,-0.07546717493768905]",100.0,"[0.1141952637996614,0.05559955456782225]",100.0,"[-0.1390162112787086,-0.06783480361515755]",100.0,"[-0.06188453194792287,0.1257427138269482]",100.0,"[-0.023671952408713393,-0.008094479543010707]",100.0,"[-0.10047467308670485,0.1619765860376816]",100.0,"[0.07338679987603279,-0.16142235681932166]",100.0,"[0.0876086954105007,-0.09802793684170562]",100.0,"[0.00005537078486948674,0.0428776599838568]",100.0,"[0.10223782604413134,0.09396373157106497]",100.0,"[0.10962764117634059,-0.13470228023096753]",100.0,"[-0.18817629987667023,-0.045963260620781037]",100.0,"[0.1440317804651596,0.09307704453867599]",100.0,"[0.028616790832627716,0.0004910042005005108]",100.0,"[-0.04785127544250012,-0.04618902475723804]",100.0,"[0.09789405783628119,0.011334494035217807]",100.0,"[-0.004443449745541549,-0.18667703407579264]",100.0,"[-0.0726882733352817,0.060166770658878904]",100.0,"[-0.1720781406474906,-0.00026671890924014795]",100.0,"[0.02,0.02]",140.1928,0.0,9.0,9.0,2.0,1.0,,,,,,,
,,,,,,,6597f6dc6f784e1f69bfadfa,683aeefe0114d15acdcbf0d6,2025-05-31_13h59.19.425,shape_ratio,2024.1.5,Win32,60.24096386,683ae9196541af24d3a69e58,,,,,,,,,,,140.1936,140.6923,,,140.9429,141.3586,right,,,,,,,,0.5,0.3995,,,,,,,140.6924,140.9429,141.3586,"[0.01838660786018436,-0.18382180473949086]",4.0,"[0.14205259102378456,0.10741871627923787]",100.0,"[-0.09955741845895215,0.13489811275814875]",100.0,"[0.17775468103714726,-0.018994241771611194]",4.0,"[0.11242196957037556,-0.13543854450302883]",4.0,"[0.05067616740499388,-0.03829537725833188]",4.0,"[-0.014667482992985245,-0.05912087214967419]",100.0,"[-0.013524017862840463,0.08549614720025396]",4.0,"[0.12919938814957013,-0.07993242501784346]",100.0,"[0.08605644820466128,-0.08503784130473546]",100.0,"[-0.05154686545846401,-0.17864742901828093]",4.0,"[-0.029382261731791065,-0.0976354569621242]",4.0,"[-0.03364987009342769,0.15785138105661076]",100.0,"[-0.04974369180575774,0.11856148315263312]",100.0,"[-0.012737184573405544,0.024182974009520217]",100.0,"[-0.09834265555233888,0.012255652045354608]",100.0,"[0.02233045613599689,0.05272069684651439]",100.0,"[0.10211156617444511,0.15514124075320146]",4.0,"[0.09033635530268906,0.11223128344459612]",4.0,"[0.0641795325242405,0.17082672813422992]",4.0,"[0.08830324387260288,0.04183144892987315]",4.0,"[0.08230748735339502,-0.1759846202263844]",100.0,"[-0.07474758239784568,0.18073969564946252]",100.0,"[-0.0676563467252084,0.041221582361614835]",4.0,"[-0.0737739144457946,-0.13068511517762535]",100.0,"[-0.08347755424131095,0.09542898364350216]",100.0,"[0.0076834416546482,-0.025887790042252393]",4.0,"[0.17519421950658712,0.035864732002946625]",100.0,"[-0.16523790305188263,0.017409415610244335]",4.0,"[-0.15166286540984672,0.08419224566834434]",4.0,"[0.04455417625804184,-0.10923480487368588]",100.0,"[0.08294718732939045,-0.007599498267933106]",4.0,"[0.02,0.02]",142.4572,0.0,10.0,10.0,106.0,1.0,,,,,,,
,,,,,,,6597f6dc6f784e1f69bfadfa,683aeefe0114d15acdcbf0d6,2025-05-31_13h59.19.425,shape_ratio,2024.1.5,Win32,60.24096386,683ae9196541af24d3a69e58,,,,,,,,,,,142.4581,142.9569,,,143.2075,143.6233,left,,,,,,,,0.55,0.4,,,,,,,142.9569,143.2074,143.6233,"[-0.1426931818208867,0.01595990443187139]",100.0,"[-0.054092945752671366,-0.037790722992470126]",4.0,"[0.10840544490153553,-0.1434477854881363]",4.0,"[-0.1794060316241668,0.05410762382829857]",100.0,"[0.1330634600245,-0.08029902950402602]",4.0,"[0.06158496835878438,0.15933604347604896]",100.0,"[0.05738384124687535,0.05576233254282981]",100.0,"[0.15566074333732968,-0.01913710227156119]",4.0,"[0.0029101041563301786,0.17566775068089138]",4.0,"[-0.019832617261908166,-0.0825900059432631]",100.0,"[-0.07026236028134437,0.12074307856945618]",100.0,"[0.08015723218712359,-0.09823229739104798]",4.0,"[0.14991764936642246,0.044755645395051655]",100.0,"[-0.15397008046293356,0.11371478859452445]",4.0,"[-0.13472509349390244,-0.03790103603539293]",100.0,"[0.06075338428876697,-0.13674496095962585]",4.0,"[0.001945942179423116,0.04036117585863453]",4.0,"[0.011609672236015656,0.10216228003377507]",100.0,"[0.06839369184410744,-0.009079711139171458]",100.0,"[-0.08347150705440759,0.17040415811546772]",100.0,"[-0.1046701825167978,-0.15090055095686905]",100.0,"[0.07388727340907662,-0.04898794032678745]",4.0,"[0.18725913728715363,0.060987762145610476]",4.0,"[-0.04283957170270524,0.15220570515079093]",4.0,"[-0.02599001800417799,0.07095856230225803]",4.0,"[0.000650356083265558,-0.022157310511591085]",4.0,"[0.003403192443915582,-0.1747214099744174]",100.0,"[0.10065483170090939,0.10359612865656866]",100.0,"[0.13043912987463419,0.14627310644647548]",100.0,"[0.02648717625270238,-0.1003468545401509]",100.0,"[-0.10533511579097543,0.08071219055012259]",100.0,"[-0.026967317538115394,0.009564647940281897]",100.0,"[0.02,0.02]",144.7217,0.0,11.0,11.0,76.0,1.0,,,,,,,
,,,,,,,6597f6dc6f784e1f69bfadfa,683aeefe0114d15acdcbf0d6,2025-05-31_13h59.19.425,shape_ratio,2024.1.5,Win32,60.24096386,683ae9196541af24d3a69e58,,,,,,,,,,,144.7224,145.2212,,,145.4723,145.8548,right,,,,,,,,0.6,0.3691,,,,,,,145.2213,145.4722,145.8549,"[0.03422312305552322,-0.1163839858710956]",100.0,"[-0.09298923758152575,-0.16509990527692806]",100.0,"[-0.0733020129368169,0.15427365465551168]",100.0,"[-0.09183534558842496,-0.060591084838728146]",100.0,"[-0.1373783002936654,0.09070870022418541]",100.0,"[0.16926914395281667,0.041489834470379294]",100.0,"[0.042401999835555405,0.16618150468598084]",100.0,"[0.11938760823999041,-0.13469032779286041]",4.0,"[-0.05179924409318038,0.060309848194521426]",4.0,"[0.13769640421207213,0.07103967840898699]",100.0,"[-0.004590759830256817,-0.03249560573965912]",100.0,"[-0.1570651836822806,-0.021243328308222845]",4.0,"[0.04704686622882569,0.11333081511608424]",100.0,"[0.14303533675242067,-0.08880285987887167]",100.0,"[0.11544848740401556,0.0042801738465968525]",4.0,"[0.11588035223957674,-0.0482443934550931]",100.0,"[-0.15057953101159297,-0.07842929198424742]",100.0,"[0.008460823922975513,0.12594890398583625]",100.0,"[-0.004301534300663646,-0.09509354699142811]",4.0,"[0.06306104047680602,-0.07189193535012156]",4.0,"[-0.16053905367823476,0.02356744640615801]",4.0,"[-0.01185373902716794,0.06314571475972144]",4.0,"[0.06848940099767713,-0.017632949550122533]",100.0,"[0.17549704243951048,-0.06148867253587841]",4.0,"[-0.00896818870362789,-0.15599048559786063]",100.0,"[-0.02530901496437454,0.006160500905370044]",4.0,"[-0.11746662860237356,0.027218505457384762]",100.0,"[-0.02610462664130869,0.10390097539739576]",4.0,"[0.14576985008226853,0.11788978966608327]",4.0,"[-0.09655902472147197,0.07933971216893883]",100.0,"[-0.05031370249786777,-0.12527394102751202]",4.0,"[0.0738565192150609,0.06301743085369403]",100.0,"[0.02,0.02]",146.9529,0.0,12.0,12.0,48.0,1.0,,,,,,,
,,,,,,,6597f6dc6f784e1f69bfadfa,683aeefe0114d15acdcbf0d6,2025-05-31_13h59.19.425,shape_ratio,2024.1.5,Win32,60.24096386,683ae9196541af24d3a69e58,,,,,,,,,,,146.9537,147.4523,,,147.7028,148.0853,left,,,,,,,,0.9,0.368,,,,,,,147.4524,147.7027,148.0855,"[-0.052898955923538486,0.024801845812593374]",100.0,"[-0.07946131954525044,0.061105342494637165]",100.0,"[-0.13537642758735474,0.07469748840735578]",100.0,"[0.027964645384778913,-0.1444428325030477]",100.0,"[0.13502239873953645,0.02604268019059751]",100.0,"[0.09764876401520668,-0.0637849488010537]",100.0,"[-0.08720007309654657,0.000017200251402210435]",100.0,"[-0.051073409905250645,0.1404176171930103]",100.0,"[0.16823832305810302,-0.01790820767843269]",4.0,"[-0.1662872034499522,0.02590753850602626]",100.0,"[-0.06167335514358313,-0.07365553866595875]",4.0,"[0.040692191624226604,-0.013259061503833387]",100.0,"[-0.010674563644164817,-0.11221118074622823]",100.0,"[0.08837438402455601,-0.1677694112144245]",100.0,"[0.17734971197684962,0.07444729180676603]",100.0,"[0.09076798959618539,0.1417760309912683]",100.0,"[-0.0720463869789502,0.17673642740303488]",100.0,"[0.10807531733911734,-0.008937250273122666]",100.0,"[0.06925422854106167,-0.09410352786637395]",100.0,"[0.017953094766943622,0.022410587947456696]",100.0,"[0.1296026477582068,-0.11062514668977895]",100.0,"[0.012545657404948781,0.14241552066637686]",100.0,"[-0.12942804925680715,-0.03062571465060911]",100.0,"[-0.12928915734757682,-0.12760811155713075]",100.0,"[0.03172666659399996,-0.053686400296814596]",4.0,"[0.04246218926029558,0.06187761558344514]",100.0,"[-0.005150236322759333,0.08873381352298108]",100.0,"[-0.07052558559001608,-0.16602789264901058]",100.0,"[-0.141097467673184,-0.08050129016816014]",100.0,"[-0.13531525470716416,0.12181453380133006]",100.0,"[-0.04916728030479617,0.08966654751659194]",100.0,"[0.11812016846253172,0.08897585074358794]",100.0,"[0.02,0.02]",149.184,0.0,13.0,13.0,5.0,1.0,,,,,,,
,,,,,,,6597f6dc6f784e1f69bfadfa,683aeefe0114d15acdcbf0d6,2025-05-31_13h59.19.425,shape_ratio,2024.1.5,Win32,60.24096386,683ae9196541af24d3a69e58,,,,,,,,,,,149.1847,149.6835,,,149.937,150.105,left,,,,,,,,0.1,0.1514,,,,,,,149.6835,149.937,150.1051,"[-0.1330772453546246,-0.036787398834890614]",4.0,"[0.004559756447274614,0.1550679646922362]",4.0,"[0.019161067372340915,0.027972715015078448]",100.0,"[-0.11072422399634423,0.037307932734703744]",100.0,"[0.008875876241336593,-0.08989772225548633]",4.0,"[0.1700756630127035,0.0872819802304581]",4.0,"[-0.14296807196201322,-0.0985125031722441]",4.0,"[0.0639780094724917,0.032343232891872305]",4.0,"[-0.08118794027899956,0.10151869741803471]",4.0,"[-0.10774387368128147,0.15430015261838975]",4.0,"[0.010725811668371804,-0.03739038526766525]",4.0,"[-0.03921368744312424,0.1514093727578791]",4.0,"[-0.052724700406748135,-0.026260700809281806]",4.0,"[0.13475920679892306,-0.014263450329041985]",4.0,"[-0.18916097568837534,-0.009523258382193369]",4.0,"[0.16589362937308358,-0.04479455756571324]",4.0,"[-0.0784657527937975,0.00945686016647642]",4.0,"[-0.07200699851310013,-0.1021487243836743]",4.0,"[0.07436768576804118,0.08522405095689405]",4.0,"[-0.035571456377531875,0.06745632837597412]",4.0,"[0.05884145610972111,-0.1859891511836144]",4.0,"[0.17658337241180197,0.04412193832652555]",4.0,"[-0.13415528751189365,0.0979318216669349]",4.0,"[0.06288011393794177,-0.12480215220778895]",4.0,"[0.06590759175576102,0.17370152478377435]",4.0,"[0.1514688196019651,-0.12457140624578342]",4.0,"[0.12093069992827762,0.023610889742135724]",4.0,"[0.10427853674730082,-0.09116666523448594]",4.0,"[-0.17632727495152367,0.07913252956314576]",100.0,"[0.14251484525592512,0.1330624020928457]",4.0,"[-0.03152079048837332,0.1965365323416054]",4.0,"[-0.09609512553170017,-0.13524847342685348]",4.0,"[0.02,0.02]",151.2014,0.0,14.0,14.0,198.0,1.0,,,,,,,
,,,,,,,6597f6dc6f784e1f69bfadfa,683aeefe0114d15acdcbf0d6,2025-05-31_13h59.19.425,shape_ratio,2024.1.5,Win32,60.24096386,683ae9196541af24d3a69e58,,,,,,,,,,,151.2021,151.6983,,,151.9485,152.1984,right,,,,,,,,0.4,0.2446,,,,,,,151.6984,151.9483,152.1985,"[0.08609179287643048,0.10801894583668238]",4.0,"[-0.0898094256356198,0.10604770362542976]",4.0,"[-0.19051176650537247,0.0023310846297704105]",100.0,"[0.15434768722721431,-0.034358021921478216]",4.0,"[-0.018713437667810057,-0.19443915716828228]",4.0,"[-0.07868364375759059,0.15048796206029252]",4.0,"[-0.1200982127938932,-0.14680815350621965]",4.0,"[-0.07971796841343444,-0.03059329454684343]",4.0,"[-0.16618252614035653,-0.03282314387594316]",4.0,"[0.011973922723766574,-0.054083862932136795]",4.0,"[0.1024591479728232,-0.06034943431147265]",100.0,"[0.1539797851985616,0.022502733531497055]",100.0,"[-0.004467046845580275,-0.1210540509151521]",100.0,"[0.19532355554670724,-0.0031283524482066216]",4.0,"[-0.047038766503391644,0.10903579238202037]",4.0,"[-0.16410270097598728,0.04236784974073156]",4.0,"[0.08619996774487378,0.02499651923147065]",100.0,"[0.13102551128203394,0.09542220128387617]",100.0,"[0.049700254586257264,0.057012884248135755]",100.0,"[-0.04368758655199464,-0.08995256130273079]",100.0,"[0.11984193650509273,-0.10877989624376092]",4.0,"[0.06307392336481407,-0.13319234825398737]",100.0,"[0.16406747136332828,-0.08925368642357875]",4.0,"[-0.12598815787822606,-0.08952889278526692]",4.0,"[0.021149286099823063,0.19799412622931659]",4.0,"[-0.015703727786927923,0.13996413171708413]",100.0,"[-0.14238214914778483,0.09982314204697526]",100.0,"[-0.042997637257934894,0.004367363414148727]",4.0,"[0.02266493747460784,-0.18556594093613585]",4.0,"[-0.1219219099784669,0.029442058013182552]",100.0,"[0.02107248452131214,0.12219398144928847]",4.0,"[-0.061795240490584984,-0.18952464634619604]",100.0,"[0.02,0.02]",153.2964,0.0,15.0,15.0,159.0,1.0,,,,,,,
,,,,,,,6597f6dc6f784e1f69bfadfa,683aeefe0114d15acdcbf0d6,2025-05-31_13h59.19.425,shape_ratio,2024.1.5,Win32,60.24096386,683ae9196541af24d3a69e58,,,,,,,,,,,153.2971,153.7961,,,154.0467,154.2128,left,,,,,,,,0.6,0.1601,,,,,,,153.7962,154.0467,154.2128,"[0.13669456079231157,0.03653417079333668]",100.0,"[0.05245125066435957,0.03756073228530627]",4.0,"[-0.01076494319953715,-0.009880518899628871]",4.0,"[-0.031916968345909916,0.04097800878129857]",4.0,"[-0.07129699538609391,-0.08638088347798224]",100.0,"[0.09131295067466878,-0.11586877247864504]",100.0,"[0.04466862795772749,-0.045956133299669674]",100.0,"[-0.0919178382614181,0.0925314962447753]",100.0,"[0.0542121075883533,-0.1445634900547864]",100.0,"[-0.04507108182412172,-0.13350263493356165]",100.0,"[-0.06404771847761354,-0.03926425212481039]",4.0,"[-0.07485088875153538,0.18523289213448113]",4.0,"[-0.15416360453327826,0.12389305947770626]",100.0,"[0.09734756237028681,0.15514137873449924]",100.0,"[0.05016705228481973,-0.10471208820575664]",4.0,"[-0.02966662182840375,0.09165567162410847]",100.0,"[-0.08857556334636164,0.0029839696558224887]",100.0,"[0.17200970911507205,0.060352161177499995]",4.0,"[-0.1540775919054979,0.0566636275016302]",100.0,"[-0.11480994734706558,-0.10449511440400663]",100.0,"[-0.17084591124545848,-0.02055819645951599]",100.0,"[-0.14476182871392554,-0.13579375907778066]",4.0,"[-0.013426132578424406,-0.05181051135135152]",100.0,"[0.10506931323865484,0.06855729950807951]",100.0,"[0.1787197408116151,-0.054431735318581906]",4.0,"[0.07758710069523553,-0.1801792316959318]",4.0,"[-0.07677858139820609,0.05051648081201414]",100.0,"[-0.03742321370542684,0.13105122484582993]",100.0,"[-0.11371784669824761,0.14437865811224485]",4.0,"[0.0011943898160734078,0.17048729911807758]",4.0,"[0.04605617266837493,0.09329494965692861]",100.0,"[-0.13536118395748084,0.011213021934351752]",4.0,"[0.02,0.02]",155.3113,0.0,16.0,16.0,30.0,1.0,,,,,,,
,,,,,,,6597f6dc6f784e1f69bfadfa,683aeefe0114d15acdcbf0d6,2025-05-31_13h59.19.425,shape_ratio,2024.1.5,Win32,60.24096386,683ae9196541af24d3a69e58,,,,,,,,,,,155.3123,155.8111,,,156.0614,156.2609,right,,,,,,,,0.1,0.1852,,,,,,,155.8112,156.0612,156.261,"[0.03322917850779915,-0.15426434215823437]",100.0,"[0.004956495290025905,-0.045359951730080436]",4.0,"[-0.02889571590150256,0.05339795009305042]",4.0,"[0.13357924796026133,-0.09153812240427454]",4.0,"[-0.06874755145853514,-0.0855505720411179]",4.0,"[0.13733268620351097,0.0069521241615538056]",4.0,"[0.06181764647578501,0.1697807271634771]",4.0,"[-0.07617299629588684,-0.03758696621508728]",4.0,"[-0.09809313414527746,0.15090381838821237]",4.0,"[-0.01752059034824489,-0.17591142880356925]",4.0,"[-0.08308778010792253,0.06617905316861562]",4.0,"[0.023098592556802397,0.1303937661310141]",4.0,"[0.08206413825625238,-0.027877744004759713]",4.0,"[-0.1270630146426697,-0.07176648892942485]",4.0,"[-0.03187581672168188,0.008064503322357919]",4.0,"[0.1606515416713462,0.07063437136221132]",4.0,"[0.10099891266310049,0.09610037827363753]",4.0,"[-0.17510689025752987,0.027531691547331018]",4.0,"[-0.11430352117327361,-0.16300167050640646]",4.0,"[-0.13427189909234227,0.06541581982218536]",4.0,"[-0.1665282518939786,0.10830674212470279]",4.0,"[-0.1558358774264999,-0.031423482472371464]",4.0,"[-0.042457247520157615,0.12846253747122635]",100.0,"[0.07178945791956715,0.05377742393441426]",4.0,"[0.16821375940399497,-0.04249640736426406]",4.0,"[0.11714230835808123,0.13840308963788925]",4.0,"[0.0773195535261291,-0.1620125585308608]",4.0,"[-0.1751901083843647,-0.09075929805087021]",4.0,"[0.008138189755363779,0.029782431151032712]",4.0,"[-0.10422509674236026,0.10718690297307337]",100.0,"[0.03586286656127157,-0.08563103367855723]",4.0,"[-0.005981592883967363,-0.12193265438859893]",4.0,"[0.02,0.02]",157.3593,0.0,17.0,17.0,187.0,1.0,,,,,,,
,,,,,,,6597f6dc6f784e1f69bfadfa,683aeefe0114d15acdcbf0d6,2025-05-31_13h59.19.425,shape_ratio,2024.1.5,Win32,60.24096386,683ae9196541af24d3a69e58,,,,,,,,,,,157.3601,157.8588,,,158.1091,158.1921,right,,,,,,,,0.9,0.0681,,,,,,,157.8588,158.109,158.1925,"[-0.0029767631926754003,-0.049988411553360874]",100.0,"[0.11992724119430244,-0.06206874564401208]",100.0,"[-0.06783618413514997,-0.031103803550973065]",100.0,"[0.022591062069576055,0.13155921337721516]",100.0,"[0.07447879551551015,-0.040346990661166385]",100.0,"[0.13164363106984908,0.0019904845980815208]",100.0,"[0.015477834087626431,0.007533266750646142]",100.0,"[-0.037549049107395885,0.03540958460419654]",100.0,"[-0.12194168095184378,-0.11126144465720347]",100.0,"[0.05841468536177245,0.08043997616871]",100.0,"[-0.15251113448724396,0.015583321012141764]",100.0,"[-0.06700543217076357,0.13651478500144978]",100.0,"[0.0762542396189806,-0.16835449262799584]",100.0,"[-0.18080734459306055,0.07692151572234923]",100.0,"[-0.06653323914634551,-0.17320033013092467]",100.0,"[-0.07719954436216647,0.026092682209841282]",100.0,"[0.08309941511550152,-0.10785875704248193]",100.0,"[0.18605337355726076,0.050658423172246794]",100.0,"[0.1573882838644273,-0.0303089920873728]",100.0,"[0.026228038625601316,-0.14759960627409602]",4.0,"[-0.1437367312526538,-0.033113011181959986]",100.0,"[-0.05230871583159113,-0.10682191044147368]",100.0,"[0.10917074786151167,0.0789530712443517]",100.0,"[-0.046577445308359756,0.07856822576218928]",100.0,"[0.1459862299057985,0.041289553301301046]",100.0,"[-0.015376340930248455,-0.15701721158390763]",100.0,"[-0.0407647417730711,0.18032635407427358]",100.0,"[-0.120757828949378,0.1389055548761318]",100.0,"[0.09085812398441163,0.15626886919914187]",4.0,"[0.09208991432477719,0.04213643700576728]",4.0,"[-0.19810852445040192,0.018601067513984635]",100.0,"[-0.15826678691563958,-0.07343007562630365]",100.0,"[0.02,0.02]",159.2907,0.0,18.0,18.0,8.0,1.0,,,,,,,
,,,,,,,6597f6dc6f784e1f69bfadfa,683aeefe0114d15acdcbf0d6,2025-05-31_13h59.19.425,shape_ratio,2024.1.5,Win32,60.24096386,683ae9196541af24d3a69e58,,,,,,,,,,,159.2918,159.791,,,160.0409,160.142,left,,,,,,,,0.55,0.0955,,,,,,,159.7911,160.0409,160.142,"[0.10962535703120044,0.04393915959031143]",100.0,"[0.10469003863708154,0.12858564799328095]",100.0,"[-0.06670828118836605,0.1740743103640096]",100.0,"[-0.14521453241464574,0.013854469003575927]",4.0,"[0.016978802383643035,-0.08223004414043206]",4.0,"[-0.16577665720883122,-0.0899125568683878]",100.0,"[0.14498413601507104,-0.024356148660285307]",100.0,"[-0.1331434904383997,0.1119855286216897]",4.0,"[-0.05126298657348308,0.09028413080863146]",100.0,"[0.015447957640889519,-0.003922546158389878]",4.0,"[-0.04060733069076382,-0.022717831119296827]",4.0,"[-0.19510982306324282,0.01630774891104902]",4.0,"[0.04189999390695522,0.13902450323496413]",4.0,"[-0.004861269926207373,0.1461471745361308]",4.0,"[-0.0934570743969607,0.011029759111505211]",4.0,"[0.06368344147707956,-0.002501631811998268]",100.0,"[-0.16960669304622777,0.06997622297075756]",4.0,"[-0.0018879273397549997,-0.1187470788631213]",100.0,"[0.06673342527960306,-0.15403470860237206]",100.0,"[-0.12348866480550165,-0.08592621959666417]",100.0,"[0.021721873494526703,-0.16040576215833555]",100.0,"[-0.05936663493944702,-0.12007023523393821]",100.0,"[-0.13712887398982262,-0.035527612418099375]",100.0,"[0.10276708607502877,-0.03402091036532277]",4.0,"[0.11910495346400553,-0.09887702336267921]",100.0,"[-0.07457449902352786,-0.049119178513786645]",100.0,"[0.19445122660106665,-0.009820629571658484]",4.0,"[-0.027220185580865787,-0.1862168117483334]",100.0,"[0.014772003944403346,0.09746300889629976]",100.0,"[0.15830688450946526,0.07973313069280641]",4.0,"[-0.024721902306773475,0.1905120772556917]",100.0,"[0.11431121237943515,-0.154324385964994]",4.0,"[0.02,0.02]",161.2389,0.0,19.0,19.0,82.0,1.0,,,,,,,
,,,,,,,6597f6dc6f784e1f69bfadfa,683aeefe0114d15acdcbf0d6,2025-05-31_13h59.19.425,shape_ratio,2024.1.5,Win32,60.24096386,683ae9196541af24d3a69e58,,,,,,,,,,,161.2401,161.7384,,,161.9919,162.0886,left,,,,,,,,0.6,0.0768,,,,,,,161.7392,161.9917,162.0888,"[-0.07382114095010991,0.04678351137023375]",4.0,"[-0.029302147402083572,-0.12007085998694153]",4.0,"[0.1120205882797901,0.10556969305234179]",100.0,"[-0.0840540143271782,-0.08167334861841301]",4.0,"[0.10267373342471998,0.0430443005885594]",100.0,"[-0.08828206138906419,0.1467470439506128]",100.0,"[-0.1341922396649469,-0.1179549389893113]",100.0,"[0.18273973475797925,0.02698900243572958]",100.0,"[-0.05185552949450484,0.12907857312573537]",100.0,"[-0.1626035800877829,-0.06461449834755843]",100.0,"[0.05209355278360082,-0.09079030312787832]",100.0,"[0.043366491403920605,0.16612787385285632]",100.0,"[0.03392109227706196,0.09476400203946644]",100.0,"[-0.02706494926810421,0.03533744397177021]",4.0,"[-0.09079343194263968,0.004422216717799225]",4.0,"[-0.008936060441698973,0.11113973562268575]",100.0,"[-0.007000545476337456,-0.19907728125951957]",100.0,"[-0.07568723057126536,0.08933111038779352]",100.0,"[-0.14719252933372678,0.018873615973694535]",100.0,"[0.16476507363883514,-0.019409276229152686]",4.0,"[0.0604411302064219,0.02473253553450908]",4.0,"[0.010382259474719097,0.060766928651900594]",100.0,"[0.006669235084288232,-0.13932129123099374]",4.0,"[0.1541399601210116,0.10523871882498921]",100.0,"[-0.04273376112380515,-0.060722927200150816]",4.0,"[0.14278602106428184,-0.056064235061179454]",4.0,"[-0.07587578661311765,-0.033683446847588124]",100.0,"[-0.1939420275156151,0.021898260322704546]",4.0,"[0.11883163935068435,0.15710488352456264]",4.0,"[0.07907361111416229,-0.032636179690965675]",4.0,"[-0.12317669967156594,-0.03361169018832491]",100.0,"[0.05468956725039977,-0.13479785441926365]",100.0,"[0.02,0.02]",163.187,0.0,20.0,20.0,31.0,1.0,,,,,,,
,,,,,,,6597f6dc6f784e1f69bfadfa,683aeefe0114d15acdcbf0d6,2025-05-31_13h59.19.425,shape_ratio,2024.1.5,Win32,60.24096386,683ae9196541af24d3a69e58,,,,,,,,,,,163.1881,163.6865,,,163.9367,163.9868,right,,,,,,,,0.9,0.0326,,,,,,,163.6867,163.9367,163.9869,"[-0.03890184585078589,0.03580196946148584]",100.0,"[-0.039088338951359394,-0.13392605975680533]",100.0,"[0.14373361882659566,0.029835132733556213]",100.0,"[-0.10402050047637855,0.12658491954385007]",100.0,"[0.17548713057667475,-0.06779460401290695]",100.0,"[0.1808033219548298,0.04500015506265173]",100.0,"[0.09153077672166146,0.02610191026354891]",100.0,"[-0.02403484126945099,0.1635734415348264]",100.0,"[0.04463659952106944,0.055831668233418376]",100.0,"[-0.14890394668653,-0.015122901770052917]",100.0,"[0.008129273321125436,-0.010540057335398506]",4.0,"[0.04986902776620331,-0.14272121620658004]",100.0,"[0.1583834310512169,-0.10784819705677087]",100.0,"[-0.13162187317382426,-0.05681344008582797]",4.0,"[-0.11331494855716759,-0.09787315348068214]",100.0,"[-0.05371265570953439,0.09230284079663728]",100.0,"[-0.08768631027774457,-0.16427222316644882]",100.0,"[-0.10077636643591675,-0.021310281835684994]",100.0,"[0.14428033068917312,0.073776931926158]",4.0,"[0.11148264481024579,0.11604526676845368]",100.0,"[-0.09759865417613944,0.06905720467622754]",100.0,"[-0.023120750434967526,-0.05394609503624617]",100.0,"[-0.004334155803541275,0.10739883744582443]",100.0,"[0.10774399413328581,-0.04283137991658299]",100.0,"[0.039855554993414664,-0.10077173124796636]",100.0,"[-0.18190279336622256,0.06117464731456667]",100.0,"[0.056772062990806914,-0.011301719893768845]",100.0,"[0.07953504186394683,-0.18167138275448866]",100.0,"[0.07398150436257372,0.14059989817610855]",100.0,"[0.033251933054122634,0.15536347663518496]",100.0,"[-0.12961896738094672,0.035619424174938005]",100.0,"[-0.00536879512233218,-0.16413778514894733]",100.0,"[0.02,0.02]",165.0848,0.0,21.0,21.0,10.0,1.0,,,,,,,
,,,,,,,6597f6dc6f784e1f69bfadfa,683aeefe0114d15acdcbf0d6,2025-05-31_13h59.19.425,shape_ratio,2024.1.5,Win32,60.24096386,683ae9196541af24d3a69e58,,,,,,,,,,,165.0854,165.5842,,,165.835,166.001,right,,,,,,,,0.4,0.1518,,,,,,,165.5843,165.835,166.001,"[-0.09344158186206311,0.032547030698646784]",4.0,"[-0.009270964867667505,0.12208392281939653]",100.0,"[-0.07767759626721213,-0.015573302089017235]",100.0,"[-0.02357077290343881,0.03733700120556881]",4.0,"[0.17794586006753824,-0.008761776692865776]",4.0,"[-0.03217223755858798,-0.09159208065037032]",4.0,"[-0.14347424094728245,-0.019911782185047373]",4.0,"[0.17849379998665096,0.04410236167167169]",4.0,"[-0.17012539351575542,0.08834298456296423]",100.0,"[0.06573054645136141,0.1572924988894686]",100.0,"[-0.10445946691565744,-0.1649540623089243]",100.0,"[0.08482075875249301,-0.043924938700122915]",100.0,"[0.05967121524512557,0.028131149535020782]",100.0,"[0.09881776420159422,-0.08968421145946281]",4.0,"[0.07263107746282361,-0.16395003915178086]",100.0,"[-0.06904841981857214,0.12297412198689388]",100.0,"[0.17241686954521732,-0.07965335487081428]",4.0,"[-0.19125656302403035,0.03908290439973777]",4.0,"[0.11560757931827996,0.12715346280104134]",4.0,"[0.12165412594097262,0.03991885031200599]",4.0,"[-0.08636138387467475,-0.08258332284214834]",100.0,"[0.09907105171559402,0.006488787282785692]",4.0,"[0.031136917172242727,-0.18990629464839906]",4.0,"[0.03426266013993572,-0.06108019296424152]",4.0,"[0.03067653829668434,0.09252320212653428]",4.0,"[-0.11689474525580332,0.12025754064521554]",4.0,"[-0.0604793875195467,0.06113566029632757]",100.0,"[-0.05812725908717195,-0.14357219282312284]",100.0,"[0.026846650784420424,-0.11317387548896081]",4.0,"[-0.18453992096258554,-0.0763608108634504]",100.0,"[0.021683059163956516,0.1627810663373972]",4.0,"[-0.0055222663805403254,-0.03818151627854824]",4.0,"[0.02,0.02]",167.0996,0.0,22.0,22.0,178.0,1.0,,,,,,,
,,,,,,,6597f6dc6f784e1f69bfadfa,683aeefe0114d15acdcbf0d6,2025-05-31_13h59.19.425,shape_ratio,2024.1.5,Win32,60.24096386,683ae9196541af24d3a69e58,,,,,,,,,,,167.1003,167.5992,,,167.8499,167.899,left,,,,,,,,0.4,0.0358,,,,,,,167.5993,167.8498,167.8992,"[-0.03289976483988449,0.0878922097982332]",4.0,"[0.00426599248863052,-0.10321973795483469]",100.0,"[0.14367350201103327,0.10826989861024185]",100.0,"[-0.04071531295482726,-0.19342228152776683]",4.0,"[0.032548271162796745,-0.1486942788637107]",4.0,"[-0.07283070531416211,0.1467609075144811]",4.0,"[0.10069033453715324,-0.017129566313400048]",4.0,"[-0.05096988837889703,-0.11781152038636428]",4.0,"[-0.09205363724389468,0.06125369075576413]",100.0,"[-0.14500846886453445,0.041314686235704716]",4.0,"[-0.09542708191296867,-0.10763548375203444]",100.0,"[-0.13700286215784543,-0.07375752055572048]",4.0,"[-0.16857551635159523,0.07850287641277762]",4.0,"[0.12204691283344457,-0.14053800942762895]",4.0,"[0.057167251335374626,0.15076534749017287]",4.0,"[-0.1118672916779116,-0.15031971935256813]",4.0,"[0.006537423046385038,0.14981993365004734]",100.0,"[-0.17967203312205865,-0.008280406633310523]",100.0,"[0.14146592486827383,-0.028439634392247316]",100.0,"[0.18737936074129216,0.044628854413042145]",4.0,"[-0.11033783718536959,0.10779245158829943]",100.0,"[0.019211633875370508,0.192498803868482]",100.0,"[-0.06925867136794527,-0.033580596757096244]",4.0,"[-0.1104828367385492,-0.023017698883314626]",100.0,"[0.056288109105483985,0.06058122350273293]",100.0,"[0.0076796598603913885,0.08451167658237356]",4.0,"[0.07320063372498431,-0.09878883895690997]",100.0,"[0.022513306257471135,-0.057378447545218224]",4.0,"[0.16317360346960183,-0.09439124630897111]",4.0,"[0.07261393900164785,-0.18193170035764747]",4.0,"[0.09645596272506571,0.11728136149563491]",4.0,"[-0.03576458407725445,-0.057149277687561346]",100.0,"[0.02,0.02]",168.9977,0.0,23.0,23.0,164.0,1.0,,,,,,,
,,,,,,,6597f6dc6f784e1f69bfadfa,683aeefe0114d15acdcbf0d6,2025-05-31_13h59.19.425,shape_ratio,2024.1.5,Win32,60.24096386,683ae9196541af24d3a69e58,,,,,,,,,,,168.9984,169.4977,,,169.7478,169.7639,right,,,,,,,,0.55,0.0071,,,,,,,169.4978,169.7477,169.764,"[0.048712931505528086,0.027575678936783837]",100.0,"[-0.12797272134960075,0.10801302673818725]",4.0,"[0.14334747088443597,0.0904776898421801]",4.0,"[0.0029366909781665695,-0.014969147181908731]",4.0,"[0.045364153518502516,-0.061788307469124205]",4.0,"[-0.1434632802275153,-0.013199762232548313]",100.0,"[0.09981558653221811,-0.1048576960696832]",100.0,"[-0.04248760397678762,-0.062724118451102]",100.0,"[-0.03004167575264389,0.02674608155090165]",100.0,"[0.16834244702992157,-0.06209670441331409]",100.0,"[0.1528802248037637,-0.10066202877496698]",100.0,"[-0.07300666162048486,0.007899459477388366]",100.0,"[-0.021302560361504047,-0.1692766747739489]",100.0,"[-0.03356331545552284,0.11131039067723061]",4.0,"[-0.11022184438320129,-0.1380868060156315]",4.0,"[0.07097497195620697,0.16969207421184046]",100.0,"[-0.1852955141420932,-0.04895767811735679]",100.0,"[-0.059539119457312856,0.06318536965715325]",4.0,"[0.07776255628920263,-0.02197710166686593]",100.0,"[0.05250689878686187,-0.11477185191325628]",100.0,"[0.0967707376141492,-0.14986053642954475]",100.0,"[-0.08812660176073196,-0.0993327375675883]",100.0,"[0.0423421711489794,-0.1690468076648795]",100.0,"[-0.13460829546657865,0.06528418360548394]",100.0,"[0.030466028596689926,0.1336341552429481]",4.0,"[-0.1324487719042537,-0.07155902254543275]",4.0,"[-0.19354717837480948,0.04380871559054053]",4.0,"[-0.09234972705525038,0.13316525504195023]",4.0,"[0.18953740135915534,-0.004901588755293962]",100.0,"[-0.04037400926532114,0.16191283173684298]",4.0,"[0.08541184305520202,0.12932102215831007]",4.0,"[0.1745633531222143,0.037205128457902754]",4.0,"[0.02,0.02]",170.8626,0.0,24.0,24.0,73.0,1.0,,,,,,,
,,,,,,,6597f6dc6f784e1f69bfadfa,683aeefe0114d15acdcbf0d6,2025-05-31_13h59.19.425,shape_ratio,2024.1.5,Win32,60.24096386,683ae9196541af24d3a69e58,,,,,,,,,,,170.8632,171.3619,,,171.6125,171.6954,left,,,,,,,,0.4,0.0711,,,,,,,171.362,171.6125,171.6955,"[0.09112043356011422,0.09395934023176859]",4.0,"[-0.10126742633042136,0.11068512636559193]",100.0,"[0.17160053441213768,-0.05867411589714435]",4.0,"[0.023695854453559848,0.047950634460780704]",4.0,"[0.13262362695947288,0.11201812123326244]",100.0,"[-0.01782231717431408,0.12274467744496073]",4.0,"[-0.10670576888477966,-0.1123075338563915]",100.0,"[0.017232458923571257,-0.10117704557954611]",4.0,"[-0.13199997844043987,0.018832027790643354]",4.0,"[0.07558202343594815,0.1447283369578721]",100.0,"[-0.14373134017606432,-0.03169295398201589]",4.0,"[0.16990511107925788,0.07490942836044087]",100.0,"[0.1042995718772117,-0.01222743707540051]",4.0,"[0.056511691370566774,-0.1615904897533557]",4.0,"[-0.04376604312969094,0.059581070270756466]",4.0,"[-0.029286471243218704,-0.13294303084335116]",100.0,"[-0.05519155057475556,-0.07403277652012376]",4.0,"[0.03379033070377168,0.1424479049635261]",100.0,"[0.1773427417367624,-0.017746934369525756]",100.0,"[0.012666938411061606,0.09368034203380654]",4.0,"[0.031104802072843062,0.1903530300601961]",4.0,"[0.09102279424539822,0.032006860924352606]",4.0,"[-0.15889055967318608,-0.09249148663406558]",4.0,"[-0.06088677296026377,-0.007924890106926354]",4.0,"[0.06020152754478875,-0.05796771636700388]",100.0,"[-0.14276437416134005,0.08761262542673201]",100.0,"[-0.14332547532938952,-0.1340114161271294]",100.0,"[0.10353851145232108,-0.1390886109805036]",100.0,"[-0.17995766962652845,0.027783656753504974]",100.0,"[0.08687815118585787,-0.08884299164211877]",4.0,"[0.14431475154226686,0.011446544828876248]",4.0,"[-0.111391304222969,-0.0713306859989274]",4.0,"[0.02,0.02]",172.7944,0.0,25.0,25.0,167.0,1.0,,,,,,,
,,,,,,,6597f6dc6f784e1f69bfadfa,683aeefe0114d15acdcbf0d6,2025-05-31_13h59.19.425,shape_ratio,2024.1.5,Win32,60.24096386,683ae9196541af24d3a69e58,,,,,,,,,,,172.7953,173.2934,,,173.5473,173.6773,right,,,,,,,,0.45,0.1048,,,,,,,173.2934,173.5472,173.6777,"[-0.10258957517942431,0.07215578676560282]",100.0,"[0.0038822940306501674,-0.0045476488072275206]",100.0,"[0.04091793208068914,-0.13476590306113387]",4.0,"[0.0783937558896633,-0.052414157205728694]",100.0,"[0.05663403158904898,0.10099953770584318]",100.0,"[0.0895646040120422,-0.16357661494287407]",100.0,"[0.12454079675183864,-0.08669716102575026]",4.0,"[-0.005748944347720965,-0.05858065531000572]",100.0,"[-0.08939881928615696,0.1505628884677472]",4.0,"[-0.006484351476816722,0.19708935054122295]",100.0,"[-0.05063347935323869,-0.1595046000250356]",4.0,"[0.19391436618167981,0.04635328161762466]",4.0,"[-0.14859037880765125,0.0030931495184907567]",100.0,"[-0.011843532964566557,0.14249677594082677]",4.0,"[-0.003221661337630278,-0.16791171932320667]",4.0,"[-0.08922586733116922,-0.01089054192379247]",100.0,"[0.14148693709168095,0.0531667096277158]",4.0,"[-0.09224948739456268,-0.09693523637337283]",4.0,"[-0.12415810569100422,-0.12257160109877632]",100.0,"[-0.1758695622730258,0.07875207779969808]",100.0,"[0.09121132668239547,0.037090022431179925]",4.0,"[-0.0048074951883520685,0.0630347035773863]",100.0,"[-0.19043295541916844,-0.0036553632258030625]",4.0,"[0.17980037422127676,-0.045881014857179936]",4.0,"[-0.037367860984779844,-0.10269732197343283]",4.0,"[-0.04484370200809581,0.02828301850217978]",4.0,"[0.13823010031876526,-0.022197790275342563]",4.0,"[0.07094380444637725,-0.008043091918679185]",4.0,"[0.14029862873641083,0.10499173955468832]",100.0,"[-0.051829193269244636,0.1306651275962774]",4.0,"[-0.1527532757361832,-0.07450165169748914]",100.0,"[-0.11722284760170111,0.033988966208494543]",4.0,"[0.02,0.02]",174.7757,0.0,26.0,26.0,127.0,1.0,,,,,,,
,,,,,,,6597f6dc6f784e1f69bfadfa,683aeefe0114d15acdcbf0d6,2025-05-31_13h59.19.425,shape_ratio,2024.1.5,Win32,60.24096386,683ae9196541af24d3a69e58,,,,,,,,,,,174.7769,175.2785,,,175.5254,175.5419,right,,,,,,,,0.6,0.0065,,,,,,,175.2785,175.5253,175.5419,"[-0.05458663543687112,-0.11365199555321168]",4.0,"[0.11159507730567508,0.10378324045119328]",100.0,"[-0.06294107216311896,0.045317047529527865]",4.0,"[0.08466603482520003,-0.05945183423240439]",4.0,"[-0.15486059300126892,-0.05535646871117796]",100.0,"[0.16550547072049682,-0.070227080731963]",100.0,"[0.001726781778658791,0.03247638289662221]",100.0,"[0.04345825336370839,0.15469135845042725]",100.0,"[-0.10135438135766991,0.15086357276825815]",4.0,"[-0.018389217503277322,-0.193169573410719]",4.0,"[-0.14808636343392148,0.08212442411004765]",4.0,"[-0.11835549889517781,-0.14815604004462687]",4.0,"[0.010216597872751228,-0.0913867015279717]",100.0,"[0.004569370560104023,0.16819763242340532]",100.0,"[0.06572607896835404,-0.13185316459067936]",100.0,"[0.014173619528193458,-0.16883229172854128]",100.0,"[-0.06024236651406346,-0.05230198721116964]",4.0,"[-0.04924761491036882,0.16976258121523052]",100.0,"[-0.0681604469273247,-0.16327127260698324]",4.0,"[0.105984844814864,0.02461740824445976]",4.0,"[-0.11402858897084306,0.010929033338118175]",100.0,"[0.17054319322311856,0.03867192808056749]",100.0,"[0.01144648368768497,0.09973767108798359]",4.0,"[0.024279063890168807,-0.001713034650346623]",100.0,"[-0.10088210257532189,0.10115776589756427]",4.0,"[0.152288144163197,0.10925916514508952]",100.0,"[-0.15414980850764537,-0.11593891651523858]",100.0,"[0.11123949931048953,-0.09602155539210866]",100.0,"[-0.029368820103210447,0.0012285024719448827]",4.0,"[0.07073777957463245,-0.18089041919104962]",100.0,"[-0.19324189261977143,-0.022994115742688965]",100.0,"[0.16769136661238288,-0.0021234078379009625]",100.0,"[0.02,0.02]",176.6402,0.0,27.0,27.0,40.0,1.0,,,,,,,
,,,,,,,6597f6dc6f784e1f69bfadfa,683aeefe0114d15acdcbf0d6,2025-05-31_13h59.19.425,shape_ratio,2024.1.5,Win32,60.24096386,683ae9196541af24d3a69e58,,,,,,,,,,,176.6409,177.1398,,,177.3933,177.5569,left,,,,,,,,0.45,0.139,,,,,,,177.1398,177.3933,177.5571,"[0.018470364971019625,-0.15715055051345644]",100.0,"[0.05058956143745406,0.12179598379522097]",100.0,"[-0.10797065007039115,0.010459631661206623]",100.0,"[-0.15962211662578488,0.06750163690591043]",4.0,"[0.04981530634388755,-0.1298415036200613]",4.0,"[0.10291069819499679,-0.1399916254877524]",4.0,"[-0.12377973129890495,0.10972392778242013]",4.0,"[-0.08123624036702559,0.04502232998729608]",4.0,"[-0.17888092490443064,-0.08451526291540566]",4.0,"[-0.14308834450939667,-0.027451690152246525]",100.0,"[0.06624615766704198,0.0625105785343529]",4.0,"[-0.04851351901094212,0.1581024522895196]",4.0,"[0.0452202600283187,-0.03719676761628588]",100.0,"[0.14504192032464167,0.07157984574103755]",4.0,"[-0.07400486715609804,-0.012071924317832019]",100.0,"[0.1749733951248253,0.024634845800860266]",100.0,"[0.07434530740041906,0.15816936314093955]",100.0,"[0.10055200088271213,-0.06739160183829022]",100.0,"[-0.04391301190432202,0.10847816750405963]",4.0,"[0.14055347164587673,-0.022411252084534723]",4.0,"[-0.1235484143405881,-0.09008724040205593]",4.0,"[0.13681840318950278,0.13977087918103057]",4.0,"[0.041812775002221664,0.005819395026489314]",100.0,"[-0.18815525790472842,-0.025563545891300755]",4.0,"[-0.02139506757901762,0.00592343628282256]",100.0,"[0.19490877753792812,-0.0439211334179523]",100.0,"[-0.03649393014580929,-0.06567058699841077]",4.0,"[-0.15128380530174176,0.015499976012962479]",100.0,"[-0.0671162001843802,-0.18247585166530486]",4.0,"[-0.10195715586359631,0.15487587910379383]",100.0,"[0.007277003562985363,0.109914286684405]",4.0,"[0.14283657833680713,-0.1344482819773912]",4.0,"[0.02,0.02]",178.6553,0.0,28.0,28.0,146.0,1.0,,,,,,,
,,,,,,,6597f6dc6f784e1f69bfadfa,683aeefe0114d15acdcbf0d6,2025-05-31_13h59.19.425,shape_ratio,2024.1.5,Win32,60.24096386,683ae9196541af24d3a69e58,,,,,,,,,,,178.6569,179.1548,,,179.4046,179.5544,left,,,,,,,,0.9,0.1355,,,,,,,179.1549,179.4045,179.5544,"[0.02806252096262772,0.021836254751236794]",100.0,"[-0.062239771203972796,-0.17662330171546242]",100.0,"[-0.11739426374862591,-0.09637929629356065]",100.0,"[0.026638044815187,0.12609240123384258]",100.0,"[-0.03232439656675128,0.13658391316326027]",100.0,"[0.08019758113061587,-0.07542911130470553]",100.0,"[0.06140024210170546,-0.1873882492142987]",100.0,"[-0.008094457621536467,-0.010542147281758734]",4.0,"[0.09398858103545964,0.12243653870982882]",100.0,"[-0.1178697270043054,0.07549114891179004]",100.0,"[-0.000022187141027853562,-0.12166869852110206]",100.0,"[-0.14164784562820887,0.11407000168737721]",100.0,"[0.03992729589317783,-0.15176608398029187]",100.0,"[-0.06822839145514882,0.06866409428939085]",100.0,"[0.141349930457986,-0.041525418596992734]",4.0,"[0.06318320104812898,0.04518935479426299]",100.0,"[0.11248652386225703,0.08123387200978847]",100.0,"[-0.19340508359594147,0.045692220651607524]",100.0,"[0.023699728339497714,0.19472663907542304]",100.0,"[0.16025479849156232,0.018542397720930876]",100.0,"[-0.031134900762875516,-0.06868880368268475]",100.0,"[0.1119305966694443,0.036110123967271965]",100.0,"[-0.06427386178673349,0.01643978077802654]",100.0,"[-0.140945417281856,-0.043254243734176405]",100.0,"[-0.07692036003686158,0.1702753222423034]",100.0,"[-0.07006408228906183,-0.05938780509510427]",100.0,"[-0.16783555860999422,0.0038245750496903688]",100.0,"[-0.15976879849618936,0.07814948178784449]",100.0,"[-0.006390164545563357,-0.1753207700841819]",4.0,"[-0.10608078099000105,0.008875189022380993]",100.0,"[-0.09191682596535697,0.12577875297937866]",100.0,"[0.03515556520913916,-0.020417853864082146]",100.0,"[0.02,0.02]",180.653,0.0,29.0,29.0,26.0,1.0,,,,,,,
,,,,,,,6597f6dc6f784e1f69bfadfa,683aeefe0114d15acdcbf0d6,2025-05-31_13h59.19.425,shape_ratio,2024.1.5,Win32,60.24096386,683ae9196541af24d3a69e58,,,,,,,,,,,180.6537,181.1526,,,181.4062,181.5366,right,,,,,,,,0.1,0.1046,,,,,,,181.1527,181.4061,181.5367,"[0.10708840651887377,0.03915350769970294]",4.0,"[-0.14698837413593085,-0.12077521487381962]",4.0,"[0.08215871145603454,-0.06970567741704368]",4.0,"[0.18144161868333564,0.06143844788793327]",4.0,"[0.18825379009789917,-0.036811835612357124]",4.0,"[0.1253956800373722,-0.0000874998697978193]",4.0,"[-0.09145332280749481,-0.004154992363132309]",4.0,"[0.02063684291361449,-0.07718675658822587]",4.0,"[-0.14065822678930107,-0.06297265521295112]",4.0,"[0.0933948684002126,-0.028714765254657954]",100.0,"[0.10596596569755655,0.11471112769155314]",100.0,"[0.099154716346682,0.1714599063519058]",4.0,"[-0.07630780839888829,0.12386134436399646]",4.0,"[0.04555253110273909,-0.16989528516371097]",4.0,"[-0.04841762411913351,-0.09582785413471875]",4.0,"[0.15057301651394409,-0.09872859055896244]",4.0,"[0.008960127994130715,-0.014174817652258238]",4.0,"[0.03310872568305907,0.12324800108093983]",100.0,"[-0.16507470301635968,0.051947319307604704]",4.0,"[-0.06209619888487846,0.1642137007192524]",4.0,"[0.14741509392987523,0.12507934805897133]",4.0,"[-0.02179383541593803,-0.04676339369473982]",4.0,"[-0.18083905543587053,-0.06608185045650165]",4.0,"[0.06299630266199675,0.03619469974842209]",4.0,"[-0.10493477413356855,-0.131822228355819]",4.0,"[-0.13173136939144656,0.0874804228909451]",4.0,"[-0.029964082655069276,0.19405913572158184]",4.0,"[0.018604643758627602,0.05365805897798789]",4.0,"[0.060918088520710234,-0.1253239202332599]",4.0,"[-0.0002005909237866872,-0.16371796389740173]",4.0,"[-0.03367174297467732,0.058932115533770306]",4.0,"[-0.050475326747795056,-0.15033133722700803]",4.0,"[0.02,0.02]",182.6346,0.0,30.0,30.0,197.0,1.0,,,,,,,
,,,,,,,6597f6dc6f784e1f69bfadfa,683aeefe0114d15acdcbf0d6,2025-05-31_13h59.19.425,shape_ratio,2024.1.5,Win32,60.24096386,683ae9196541af24d3a69e58,,,,,,,,,,,182.6355,183.1342,,,183.3845,183.4672,left,,,,,,,,0.9,0.0665,,,,,,,183.1343,183.3844,183.4674,"[0.1415962602726348,-0.07077361945257588]",100.0,"[0.044099695602021705,-0.023810986649555048]",100.0,"[-0.07916257392064334,-0.1429806951164616]",100.0,"[-0.04372501170455993,-0.1081871432935113]",100.0,"[-0.025844606848277354,-0.15998043720042263]",100.0,"[0.15452740779987517,0.08067665574110802]",100.0,"[-0.045304691087156665,0.19281753072035696]",100.0,"[-0.12168214193744219,0.05630241782388263]",100.0,"[-0.06492268113892029,-0.1857551884302604]",100.0,"[0.03712609947922316,0.1453297343944016]",100.0,"[-0.15931047436694576,-0.08134759524431161]",100.0,"[0.03582263166462311,-0.15916961653271125]",100.0,"[-0.19018012653062807,0.03724721565566389]",100.0,"[-0.13624220686988894,0.009607949086466434]",100.0,"[-0.07720171124698391,0.032941126906120444]",100.0,"[0.09559627655479862,-0.054537590546521277]",4.0,"[-0.13626574343535233,-0.12814979153238817]",100.0,"[0.1062537133150421,-0.1605432595226453]",100.0,"[0.15521813610310645,-0.11785043375328097]",100.0,"[0.047034265065291125,-0.10225585614237175]",100.0,"[-0.1833853853480898,-0.022141746118809588]",4.0,"[-0.008694434748834865,-0.06030789962374417]",100.0,"[-0.16337764274218938,0.07620714096478963]",100.0,"[-0.030233368827858004,0.012204900538150546]",100.0,"[0.09417263454377936,0.04771253686996793]",100.0,"[-0.02926023382502469,0.13097207783803141]",100.0,"[-0.14007539954110568,-0.033732506855569104]",100.0,"[0.037657244751491945,0.194035523123958]",100.0,"[0.1724395893892811,0.007819196271069154]",100.0,"[0.10125367910603486,0.16491156677119223]",100.0,"[0.04948816527617581,0.08937071803600745]",4.0,"[-0.10457136927020075,-0.0658151296269187]",100.0,"[0.02,0.02]",184.5658,0.0,31.0,31.0,18.0,1.0,,,,,,,
,,,,,,,6597f6dc6f784e1f69bfadfa,683aeefe0114d15acdcbf0d6,2025-05-31_13h59.19.425,shape_ratio,2024.1.5,Win32,60.24096386,683ae9196541af24d3a69e58,,,,,,,,,,,184.5667,185.0651,,,185.3159,185.5654,left,,,,,,,,0.4,0.2419,,,,,,,185.0651,185.3158,185.5654,"[-0.007287294430426196,0.15206367345492108]",100.0,"[0.02877996366686855,0.08180845009828787]",4.0,"[0.1175227941399263,-0.10470634763424945]",100.0,"[-0.12438817428519665,0.03873236031974018]",4.0,"[0.06375414303697421,-0.08373728435967451]",4.0,"[0.09107385155591693,-0.16933202258554056]",4.0,"[-0.02818949329913958,0.016744449586515553]",100.0,"[-0.16969242277291327,-0.0801496942806771]",4.0,"[0.11160733292692523,0.1143512995727004]",4.0,"[-0.11734110049492451,-0.07798379773336737]",100.0,"[0.19165433591591818,0.028545496077626693]",4.0,"[0.18928153012691634,-0.06151972534460717]",4.0,"[0.045798028675606055,-0.12018241845427761]",4.0,"[0.13217038750016327,-0.025417337433461664]",100.0,"[0.1364444163399232,0.03909377717894898]",4.0,"[0.08865831278792918,0.16141613962436116]",4.0,"[0.08956882535184303,0.002205627128241817]",100.0,"[0.006420452027824431,-0.06988016963339364]",4.0,"[-0.1134699123160209,-0.011340777790511267]",100.0,"[-0.0773857524812004,-0.04742401138897674]",4.0,"[-0.03306407506015327,0.19069576489656817]",100.0,"[-0.09585430549809748,0.12454884014617303]",4.0,"[0.053071590221895865,-0.03869014197304675]",100.0,"[-0.018173008720854176,-0.16020010054041753]",100.0,"[-0.12178888102336964,-0.1580077177267338]",100.0,"[-0.1574263521769249,0.007230471436816634]",4.0,"[0.0093857531754273,-0.19291676115216042]",4.0,"[-0.08107633065542623,-0.10478836941321865]",4.0,"[0.16277482590731868,0.07271289193941881]",100.0,"[0.17186051347882134,-0.007489969087067079]",4.0,"[0.07497268258163736,0.0788780530109693]",100.0,"[0.017198358019538586,0.18611306929359916]",4.0,"[0.02,0.02]",186.6639,0.0,32.0,32.0,153.0,1.0,,,,,,,
,,,,,,,6597f6dc6f784e1f69bfadfa,683aeefe0114d15acdcbf0d6,2025-05-31_13h59.19.425,shape_ratio,2024.1.5,Win32,60.24096386,683ae9196541af24d3a69e58,,,,,,,,,,,186.6653,187.1637,,,187.4139,187.4965,right,,,,,,,,0.5,0.072,,,,,,,187.1638,187.4138,187.4966,"[0.13900946163505792,0.12792774698652243]",100.0,"[0.0008737298049580493,-0.18880789796994246]",4.0,"[-0.04799804649927121,-0.18144165007345261]",100.0,"[-0.011125477969224995,-0.1057302744320584]",100.0,"[-0.1364490528352694,-0.13959629196813775]",4.0,"[-0.115884017879949,0.10789721681552122]",4.0,"[-0.06420615545569988,-0.14234109564947098]",4.0,"[0.07889081239969878,-0.04756314985800669]",100.0,"[-0.05666508820066191,-0.055275235082128664]",100.0,"[-0.16415901611858563,0.10909839670265285]",100.0,"[0.04363336432815547,0.06511539391897705]",100.0,"[0.022991281285133766,-0.07273040707069195]",4.0,"[0.012449335413701676,0.11423408919181738]",100.0,"[-0.16773995717535423,-0.003416997337359789]",4.0,"[-0.16400026060589865,-0.06936100199115676]",100.0,"[0.05958996553775121,0.1686462138900931]",100.0,"[0.11517455696635334,-0.007116072852701556]",4.0,"[0.14453799141357213,-0.11606327874483635]",4.0,"[-0.02470989450019903,0.08084630159286499]",100.0,"[-0.10179856287053328,-0.03899311606400924]",4.0,"[0.07326925051416174,0.02893154189706555]",100.0,"[0.18121815806361338,0.07016773043377701]",4.0,"[-0.09587531973680487,-0.0879636827810183]",100.0,"[0.15231309327722337,-0.027225776253305158]",100.0,"[0.08122142047285469,-0.12958041606364068]",4.0,"[-0.027164434014301343,0.12368563940478587]",4.0,"[-0.06291810978498241,-0.002543806038273151]",4.0,"[-0.054131432542215564,-0.09814024997752098]",4.0,"[-0.08812714811675267,0.14836220693939792]",4.0,"[-0.015534962457798897,0.016327427939285672]",100.0,"[0.12884174044594493,0.038801812077196525]",4.0,"[-0.18025778652199237,0.06346413303382017]",100.0,"[0.02,0.02]",188.5951,0.0,33.0,33.0,92.0,1.0,,,,,,,
,,,,,,,6597f6dc6f784e1f69bfadfa,683aeefe0114d15acdcbf0d6,2025-05-31_13h59.19.425,shape_ratio,2024.1.5,Win32,60.24096386,683ae9196541af24d3a69e58,,,,,,,,,,,188.5959,189.0948,,,189.3476,189.4811,left,,,,,,,,0.45,0.1172,,,,,,,189.0949,189.3476,189.4812,"[0.026895465890749558,-0.0022714292146435076]",4.0,"[0.12882435291804945,-0.06642319524240826]",100.0,"[0.039256112419642594,0.16482649230815757]",4.0,"[0.021161293135912956,-0.144824177584103]",100.0,"[-0.02106801188418084,-0.09204576972727538]",100.0,"[0.07291696620128633,-0.18278578977069834]",4.0,"[-0.09619213940021291,0.1267809111973535]",100.0,"[-0.022993704517030325,-0.040912919310937414]",4.0,"[-0.17975131258340463,-0.01785377965082524]",100.0,"[0.17919532533501048,-0.0556653620534586]",4.0,"[0.11620796913023484,-0.11025236522923415]",100.0,"[0.026324465753914235,0.09576139117731115]",100.0,"[0.06044741952819327,-0.09904233557949096]",4.0,"[0.06477494035805735,-0.14071532974473197]",100.0,"[0.07396241325563437,0.03562139719669259]",4.0,"[-0.08765746152854442,0.035520703257585835]",4.0,"[0.06222576449296575,-0.05329363742725176]",4.0,"[-0.08261906519892324,-0.15161980240332357]",100.0,"[0.14741756123924624,-0.029675526047455006]",100.0,"[0.0805069860790604,0.1564881786383792]",4.0,"[-0.190470501921903,0.053829515935376895]",100.0,"[0.13161658288787473,0.07963650205082358]",4.0,"[-0.011348123178913929,0.04547707333055027]",4.0,"[0.004155569044546763,-0.18860617344330982]",100.0,"[0.15344019870981188,-0.12534090091407846]",4.0,"[0.15263815109473863,0.035788271619459966]",4.0,"[-0.06836028900830242,0.08809848500884358]",4.0,"[-0.09867108097300739,-0.11102664112129451]",4.0,"[0.07817894772547074,-0.014243978334997836]",100.0,"[-0.03923296217762171,0.1520583758415178]",4.0,"[-0.15217762282176572,-0.09991086327920633]",100.0,"[-0.15332742313197104,-0.05829312779140178]",4.0,"[0.02,0.02]",190.577,0.0,34.0,34.0,125.0,1.0,,,,,,,
,,,,,,,6597f6dc6f784e1f69bfadfa,683aeefe0114d15acdcbf0d6,2025-05-31_13h59.19.425,shape_ratio,2024.1.5,Win32,60.24096386,683ae9196541af24d3a69e58,,,,,,,,,,,190.5781,191.0767,,,191.3265,191.4093,left,,,,,,,,0.4,0.0675,,,,,,,191.0768,191.3265,191.4094,"[-0.10974354960047598,0.1624452491096344]",100.0,"[-0.17525342957279388,-0.0812767272742209]",100.0,"[0.11674243978157196,-0.12279363519718181]",100.0,"[-0.03949436495189386,-0.18469581187922177]",100.0,"[0.016796971436075496,-0.17125153605804946]",4.0,"[0.054711179238499615,0.05842023581884593]",4.0,"[0.024390937153745663,-0.07385065856395964]",100.0,"[0.1732294931831841,0.06400812443149756]",100.0,"[0.16236907755792285,-0.0950025416583064]",4.0,"[-0.002589895179616467,0.17519187111539322]",100.0,"[-0.08805566823063479,-0.1393574925901282]",4.0,"[0.11018522525779129,-0.06934750715623267]",4.0,"[0.19672500691899175,0.02055104532178501]",4.0,"[0.014618381606090722,0.006506601476056602]",100.0,"[0.035840232210332196,0.10694813902393606]",4.0,"[-0.010959898217866373,0.09312443907975683]",100.0,"[-0.05471205285945775,-0.07304997494031673]",4.0,"[0.05664501796873237,-0.028980561681688385]",100.0,"[-0.04790589776405291,0.024816938141736765]",100.0,"[-0.19538934089177074,-0.023825283692377092]",4.0,"[-0.021190987352718,-0.14447458624844986]",4.0,"[-0.05751947802782306,0.17342748004093653]",100.0,"[-0.16061089144374768,0.04900697523041624]",4.0,"[0.11405784562793596,0.011762766552279065]",4.0,"[-0.002156474847883068,0.04612227073551401]",4.0,"[-0.14394113051176516,-0.015759207346971955]",4.0,"[-0.10610638644641282,0.057991786329001746]",4.0,"[-0.14495049204055258,-0.1320315228507843]",100.0,"[0.08268878015798843,-0.1706801289808459]",4.0,"[-0.1373693832616403,0.10230468930013338]",4.0,"[0.15937793261718494,-0.034806058720253455]",4.0,"[-0.10322477446109085,-0.016311822885286823]",4.0,"[0.02,0.02]",192.5084,0.0,35.0,35.0,170.0,1.0,,,,,,,
,,,,,,,6597f6dc6f784e1f69bfadfa,683aeefe0114d15acdcbf0d6,2025-05-31_13h59.19.425,shape_ratio,2024.1.5,Win32,60.24096386,683ae9196541af24d3a69e58,,,,,,,,,,,192.5094,193.0078,,,193.2581,193.4076,left,,,,,,,,0.4,0.1382,,,,,,,193.0079,193.258,193.4077,"[0.05445926197976854,-0.11977991499214091]",4.0,"[0.10044552039729844,-0.01685905629107527]",100.0,"[0.09593331458417576,-0.0580101475027561]",100.0,"[-0.04826540080243058,-0.12362199287245249]",100.0,"[-0.015688295989872283,-0.17825875052328075]",4.0,"[0.13885456318041733,-0.10809188214808661]",4.0,"[0.07891966642191811,0.11258756187380015]",4.0,"[-0.11345017801238245,0.001958980770845986]",100.0,"[0.10517092658820262,0.025819004246207006]",100.0,"[-0.042840123924846665,0.0057662550363601975]",4.0,"[-0.08130277576982956,-0.05645190934253292]",100.0,"[0.1705899466986263,0.0464022597362236]",4.0,"[-0.09615744217543225,-0.1049423241882724]",100.0,"[-0.09565242530349241,0.06355272776341463]",100.0,"[0.029993404351267468,-0.06172577192193993]",4.0,"[0.17234313262910247,-0.04344597890456564]",100.0,"[0.009160896222585263,-0.12314973234475511]",100.0,"[0.13251119597046215,0.09572303515228557]",4.0,"[0.017838879819184097,0.006900530803252228]",4.0,"[-0.17666946224803415,0.0007372940249504001]",4.0,"[-0.023117600536699853,0.14814389896435395]",100.0,"[0.02797153654850417,-0.17702227634561865]",100.0,"[0.1756081113184357,-0.08362810682662103]",4.0,"[-0.03878364479225785,0.09939791616825921]",4.0,"[-0.09019948952009758,0.10570830057508027]",100.0,"[-0.04085787011579075,0.18535621713994005]",4.0,"[-0.1658723311238564,0.05243753298313751]",4.0,"[0.027320300260471494,0.159943395439687]",4.0,"[0.17830706892887124,0.006017991702303895]",4.0,"[0.08512148968999313,0.17843302111958706]",4.0,"[0.033678350015018954,0.11066545196778457]",4.0,"[-0.012609011575525766,-0.0885056586565816]",4.0,"[0.02,0.02]",194.5063,0.0,36.0,36.0,158.0,1.0,,,,,,,
,,,,,,,6597f6dc6f784e1f69bfadfa,683aeefe0114d15acdcbf0d6,2025-05-31_13h59.19.425,shape_ratio,2024.1.5,Win32,60.24096386,683ae9196541af24d3a69e58,,,,,,,,,,,194.5071,195.0058,,,195.2559,195.3387,right,,,,,,,,0.9,0.0699,,,,,,,195.006,195.2558,195.3388,"[0.007085142399154622,-0.017768694021832718]",100.0,"[0.12271699164616313,-0.13983550474459175]",100.0,"[0.006128005247262906,0.13135139748936617]",100.0,"[-0.05626502890211983,0.014555310511846116]",4.0,"[0.09762972857974485,0.11744994389167458]",100.0,"[-0.11441011420846148,-0.019473023840216812]",100.0,"[0.03494323378465125,0.02980119328525925]",100.0,"[-0.14189919495010522,0.13164128849536702]",100.0,"[-0.032832266290396483,-0.15814191218853305]",100.0,"[0.17604390666066885,0.07959259243247084]",100.0,"[0.020261692410133165,-0.17727208026195565]",100.0,"[-0.032446319646596646,0.14360720932863838]",100.0,"[-0.07867080423186365,-0.07431600398164664]",100.0,"[0.0693564321104257,0.08679932688821188]",100.0,"[-0.07205851321999096,-0.1236844560451666]",100.0,"[-0.07248052523064494,0.14295264242896535]",100.0,"[-0.17732485642375911,0.06025775946806452]",100.0,"[-0.02021952038351873,0.09669125032620135]",100.0,"[0.08305941117873089,0.0006812682963082044]",100.0,"[0.01771584193752451,0.06760055480626863]",100.0,"[0.1635408074436904,-0.03422601799164676]",100.0,"[0.11294546925949502,0.03531118984075102]",100.0,"[0.045574615053901694,-0.0406216716251382]",4.0,"[0.15804630506839554,-0.08958870269892931]",100.0,"[-0.09673811996360132,0.10954211113854818]",100.0,"[-0.016429504291161582,-0.11335551294174386]",100.0,"[-0.06448079616875203,-0.0327702984435719]",100.0,"[0.08419503433798986,-0.10043254340732997]",100.0,"[0.016684334077902888,0.17869301200493212]",100.0,"[-0.17173157871712239,0.004188773297475398]",100.0,"[-0.03080394154787644,0.184699232179402]",100.0,"[-0.12880088672354467,-0.10475118909978288]",4.0,"[0.02,0.02]",196.4374,0.0,37.0,37.0,24.0,1.0,,,,,,,
,,,,,,,6597f6dc6f784e1f69bfadfa,683aeefe0114d15acdcbf0d6,2025-05-31_13h59.19.425,shape_ratio,2024.1.5,Win32,60.24096386,683ae9196541af24d3a69e58,,,,,,,,,,,196.4382,196.9372,,,197.1903,197.2546,right,,,,,,,,0.45,0.0465,,,,,,,196.9373,197.1902,197.2546,"[0.07264924264506609,-0.10528456087983698]",100.0,"[0.020159349252765694,0.02628881870900967]",100.0,"[0.1634455656419709,0.029310603245489123]",100.0,"[-0.016272775789471092,0.10673637655334142]",100.0,"[0.18715800196758237,-0.04278699097903444]",4.0,"[-0.0862237917596906,0.12626983365549527]",100.0,"[-0.020195519649406236,-0.16401528037194912]",4.0,"[0.14152956308894632,-0.040385949963906854]",100.0,"[0.12116496716771029,0.08240488621878694]",4.0,"[-0.09998361420571925,-0.15840922575754002]",100.0,"[-0.14097905995038296,-0.09780516881584586]",4.0,"[0.09153809440154263,-0.06500224006845132]",4.0,"[0.009987937530845464,-0.11149386668334724]",100.0,"[0.11623710440187017,0.14539351407973872]",4.0,"[-0.1140828220397934,-0.014625692039965922]",4.0,"[-0.1836151577271874,0.03300895155880274]",4.0,"[-0.016670571335805223,0.15579661061009717]",4.0,"[-0.07588991282878647,0.02659798603472013]",4.0,"[-0.03188757648671079,-0.018647033967319607]",100.0,"[0.03461920242515677,-0.05377420078304757]",4.0,"[-0.004702844442610811,-0.06119434771510078]",100.0,"[-0.06291789522230497,-0.12239258962847217]",4.0,"[0.10010310689041069,-0.15550190503112585]",100.0,"[-0.047278968683740326,0.056491570985024386]",100.0,"[0.0256873317392236,0.0737296636376621]",4.0,"[0.016543469845074914,0.19576543730576304]",4.0,"[0.07114304451400373,0.06761484118582874]",100.0,"[0.060609748418866474,0.17518038934062735]",4.0,"[0.13555867963281204,-0.12450988128290509]",4.0,"[-0.07419284461899352,-0.0771982634950834]",4.0,"[0.05283734836903974,-0.0056012445331592485]",4.0,"[0.1286469706838848,-0.001038871633376027]",100.0,"[0.02,0.02]",198.3554,0.0,38.0,38.0,139.0,1.0,,,,,,,
,,,,,,,6597f6dc6f784e1f69bfadfa,683aeefe0114d15acdcbf0d6,2025-05-31_13h59.19.425,shape_ratio,2024.1.5,Win32,60.24096386,683ae9196541af24d3a69e58,,,,,,,,,,,198.3564,198.8524,,,199.1038,199.1241,left,,,,,,,,0.9,0.0022,,,,,,,198.8524,199.1037,199.1242,"[-0.02995806930755095,0.07897834847162889]",100.0,"[-0.08721577376881423,0.13780120445099553]",100.0,"[0.09515099716391866,0.15670960683768242]",100.0,"[0.1391520394133356,-0.1280877008262041]",100.0,"[0.1620532692140873,-0.0727153281226644]",4.0,"[-0.027508109615410396,-0.05127657711673561]",100.0,"[0.024482502869415102,0.020529995242142503]",100.0,"[0.130831932084051,0.10045570719174574]",100.0,"[0.062244891777664305,0.13246967873911986]",100.0,"[-0.012037120657629864,-0.140508571635192]",100.0,"[-0.10367737538697858,-0.004730146381363091]",100.0,"[-0.12781238402415646,-0.1428085053117069]",100.0,"[0.07065450110425882,0.00048231778829367107]",100.0,"[-0.08712835018379034,-0.15513177859439575]",100.0,"[0.06417487167839621,0.05353924318887917]",100.0,"[-0.07079430946329864,0.03860135992295273]",100.0,"[0.030338811204503727,0.10185856593581871]",4.0,"[-0.011583254377164185,-0.09331932858928375]",100.0,"[0.05204050636236231,-0.0749501022727346]",100.0,"[0.16988898943673073,0.05498422712212523]",100.0,"[0.17828915867939382,-0.018413568882370463]",100.0,"[-0.12057637489566016,-0.06739995010482176]",100.0,"[-0.09633680163927792,0.07015581722609211]",4.0,"[0.1066107702927588,0.037569601482006075]",100.0,"[-0.1545354259027398,0.09129557335455082]",100.0,"[-0.15868929851902167,-0.02882226499611637]",100.0,"[-0.045060229830952286,0.17458200621652115]",100.0,"[0.027415651916022635,-0.021295755584771123]",100.0,"[0.10458082537747493,-0.10133112944564297]",100.0,"[0.08521008933363489,-0.142218889250322]",100.0,"[-0.07812201544307394,-0.05866584200709915]",100.0,"[-0.020521735141285084,0.13296406512909575]",100.0,"[0.02,0.02]",200.2174,0.0,39.0,39.0,25.0,1.0,,,,,,,
,,,,,,,6597f6dc6f784e1f69bfadfa,683aeefe0114d15acdcbf0d6,2025-05-31_13h59.19.425,shape_ratio,2024.1.5,Win32,60.24096386,683ae9196541af24d3a69e58,,,,,,,,,,,200.2188,200.7172,,,200.9678,201.1337,left,,,,,,,,0.5,0.1464,,,,,,,200.7174,200.9676,201.1339,"[-0.0703658767183511,-0.15965012841147222]",100.0,"[-0.15276491627020314,0.0762817881844434]",100.0,"[0.06339963941743555,0.08421452624571751]",100.0,"[-0.0006593903932970586,0.13582293799535922]",100.0,"[-0.07581257961549522,0.14840242447429808]",100.0,"[0.041527509654902116,-0.163377948018367]",4.0,"[0.006100546474848689,-0.0584316037970225]",100.0,"[-0.1639646541473647,-0.00790277823715225]",4.0,"[0.058116039980989215,0.1480984462291005]",4.0,"[-0.014441316388682787,0.05428096898467092]",100.0,"[0.15756599127959015,0.11890113969747959]",100.0,"[-0.1228192724478305,-0.06275010025143779]",4.0,"[-0.015118430138903335,-0.021619577273727857]",4.0,"[-0.06672039838386697,-0.042660746691865765]",100.0,"[0.1558732096145472,0.04104564679709555]",4.0,"[-0.15436427273592124,-0.11361096110212066]",4.0,"[-0.058859037772800375,0.04406377734412501]",4.0,"[0.019465589651168666,0.08567276693131635]",100.0,"[0.1916837651173837,-0.032937035065573106]",4.0,"[0.10751306652630627,0.09920861010127356]",4.0,"[-0.08469897019477332,-0.12012055858775611]",4.0,"[0.04453042011124686,-0.08783443989038787]",4.0,"[0.04845773404580634,0.1913503705951192]",4.0,"[-0.1834417375491565,0.04295298719812635]",100.0,"[0.11454711316851464,0.03204658273248121]",100.0,"[0.15162067801064588,-0.12661646759681447]",4.0,"[0.1209245018889532,-0.08014937698735392]",100.0,"[-0.18292731116503688,-0.06053493802792852]",4.0,"[0.1550925291480397,-0.01575783230830574]",100.0,"[-0.1172940871175779,0.1313489557185068]",4.0,"[0.08208475968150143,-0.15451551481904394]",100.0,"[0.005306790572657009,-0.10497835069488821]",100.0,"[0.02,0.02]",202.2349,0.0,40.0,40.0,118.0,1.0,,,,,,,
,,,,,,,6597f6dc6f784e1f69bfadfa,683aeefe0114d15acdcbf0d6,2025-05-31_13h59.19.425,shape_ratio,2024.1.5,Win32,60.24096386,683ae9196541af24d3a69e58,,,,,,,,,,,202.2355,202.7317,,,202.9848,203.002,right,,,,,,,,0.1,0.0008,,,,,,,202.7318,202.9847,203.0021,"[-0.09328349648825104,-0.14311035131562824]",4.0,"[-0.1566214741184234,0.12085234257874776]",4.0,"[-0.15421345861623145,-0.059703127859567155]",4.0,"[-0.093705118002991,0.09375613960693129]",4.0,"[0.016191782231089878,0.0029935639944072335]",4.0,"[0.02095560643066341,0.11660899639136833]",4.0,"[-0.00745722249936121,0.08508856780251188]",4.0,"[-0.15335607551973246,-0.12659676826959984]",4.0,"[-0.0179870140801988,-0.0705657220119998]",4.0,"[-0.013432218103025497,-0.171864532260445]",4.0,"[-0.11001021890769803,0.013873355472711383]",4.0,"[0.14683292894209682,-0.09730369260812691]",4.0,"[0.10740722380532103,-0.004944668143969701]",100.0,"[-0.046810994417720554,-0.023670965264632852]",4.0,"[-0.18992461006039604,0.022731776495264394]",4.0,"[0.15287904558898882,0.05831619779004374]",100.0,"[0.09913803445003372,0.1510097862691846]",4.0,"[0.160389840131177,-0.0492797270135991]",4.0,"[-0.04978925542683009,-0.10694019248049749]",100.0,"[0.09154151067616244,-0.12909944499214515]",4.0,"[-0.10413403383968296,-0.038117299119670905]",4.0,"[-0.10679077828024497,0.14411945497893522]",4.0,"[0.03366551455128129,-0.03321202230625797]",4.0,"[0.11823170507499445,0.10979289910705545]",4.0,"[-0.07691983176710432,0.181306466441966]",4.0,"[-0.025878299483459044,0.04010258549701867]",4.0,"[0.023521342235405,-0.13979307434141078]",4.0,"[-0.054721646211137134,-0.15602055797896974]",4.0,"[-0.11577700771760215,-0.08334650313860684]",4.0,"[0.10765524980322988,-0.06353870747866706]",4.0,"[0.014962715632148644,0.046906603070821215]",4.0,"[0.045550744458327554,-0.18334053001253828]",4.0,"[0.02,0.02]",204.0988,0.0,41.0,41.0,205.0,1.0,,,,,,,
,,,,,,,6597f6dc6f784e1f69bfadfa,683aeefe0114d15acdcbf0d6,2025-05-31_13h59.19.425,shape_ratio,2024.1.5,Win32,60.24096386,683ae9196541af24d3a69e58,,,,,,,,,,,204.0993,204.5833,,,204.8327,204.9667,right,,,,,,,,0.5,0.1175,,,,,,,204.5834,204.8326,204.9668,"[0.05018950492133365,-0.12879055544023868]",4.0,"[-0.05314096384273035,0.003284859052146179]",100.0,"[-0.0076648918936524715,-0.17546515331542545]",4.0,"[-0.09107839341201923,-0.030783819795798053]",4.0,"[-0.16418566588668884,-0.025560714828422617]",100.0,"[0.1007127026897528,-0.10431082409836763]",4.0,"[0.0790807673254964,0.032252468708122914]",100.0,"[-0.011798202337597498,-0.030860957158713516]",100.0,"[-0.0693458894496794,0.1167020241621974]",100.0,"[-0.11037929057056661,0.09798634161504988]",100.0,"[-0.12160424523371446,0.031311633890632955]",4.0,"[-0.0933322953620584,-0.13739387328464417]",4.0,"[-0.05086064348399742,0.1828030523871729]",4.0,"[0.02815574622833494,0.1073747675941634]",4.0,"[-0.034869296239974305,0.057265854880964084]",100.0,"[-0.05136224793571007,-0.05189333240648467]",100.0,"[0.15302499758007396,-0.016908338360039295]",4.0,"[0.09734965730632227,-0.16590984720738333]",4.0,"[0.048085248960622336,0.06351228849129698]",100.0,"[0.13134059598102785,-0.07737983462363478]",4.0,"[0.0033705178205280274,-0.12456546919340522]",100.0,"[-0.027176799501544734,-0.09013030442566945]",100.0,"[0.056564740608821135,0.14627011726496633]",100.0,"[0.04241615643605271,-0.05626459346005891]",4.0,"[-0.09791091221979381,-0.09476341199180578]",4.0,"[-0.05732795071776585,-0.182953482212111]",4.0,"[0.1740127453023262,0.053321875273633225]",100.0,"[0.08424479666883083,-0.01841527490491545]",100.0,"[0.10435066417946148,0.08305806695307875]",4.0,"[0.1791907922300235,-0.05277171696689531]",100.0,"[-0.15888112830562312,-0.07062196370418507]",4.0,"[0.09366519213744624,0.12875284025048148]",100.0,"[0.02,0.02]",206.0623,0.0,42.0,42.0,100.0,1.0,,,,,,,
,,,,,,,6597f6dc6f784e1f69bfadfa,683aeefe0114d15acdcbf0d6,2025-05-31_13h59.19.425,shape_ratio,2024.1.5,Win32,60.24096386,683ae9196541af24d3a69e58,,,,,,,,,,,206.0638,206.5611,,,206.8131,206.93,left,,,,,,,,0.55,0.1118,,,,,,,206.5612,206.813,206.93,"[0.08727155541180519,0.0944133940709224]",100.0,"[-0.1443336455094854,-0.07925737725786326]",4.0,"[-0.16130823524964408,0.08504291521467652]",4.0,"[0.13216805592908526,0.07195311583891237]",100.0,"[-0.09748039242426362,-0.16864080927884573]",4.0,"[0.15832924783343033,-0.02242946822926477]",100.0,"[-0.11854283813373762,-0.1214147056063434]",100.0,"[0.17378891874739769,0.0668294041554525]",4.0,"[-0.02694566276097455,0.06471344183094882]",4.0,"[0.060481857917603916,-0.07868920578189142]",100.0,"[-0.10004832541002602,0.11285425252384448]",4.0,"[0.08822511545220661,-0.15166631726813243]",4.0,"[0.1163025130202498,0.0012038043700590595]",4.0,"[-0.079044235108748,0.16795981204616123]",100.0,"[-0.04242828182240498,0.15124184264424556]",4.0,"[-0.06957493125767689,-0.08122532764977511]",4.0,"[-0.015348413830403434,-0.1789261417489652]",100.0,"[-0.08966696450571653,-0.0063576184055404925]",100.0,"[0.008537744783954181,-0.1330163081311086]",100.0,"[-0.12169699628886037,0.020194419793714682]",100.0,"[0.029519486248778776,-0.024439853445974814]",100.0,"[0.010419094029272508,0.18584818325398236]",100.0,"[-0.11507522173721556,-0.04752095630693198]",100.0,"[0.05992366151978509,0.027282273343948425]",100.0,"[-0.17096360811861502,-0.016148811437738976]",4.0,"[0.06224166730442448,0.1668427522707547]",100.0,"[0.01823398837785719,0.13307709970354745]",4.0,"[-0.05921288992048656,-0.04106152182357031]",4.0,"[-0.06326782139730314,-0.14021759658769242]",100.0,"[0.0779896753924191,-0.040856089895064285]",100.0,"[0.15075234093463644,-0.124189802328142]",4.0,"[0.10419178445353007,0.13590039156529835]",100.0,"[0.02,0.02]",208.0266,0.0,43.0,43.0,71.0,1.0,,,,,,,
,,,,,,,6597f6dc6f784e1f69bfadfa,683aeefe0114d15acdcbf0d6,2025-05-31_13h59.19.425,shape_ratio,2024.1.5,Win32,60.24096386,683ae9196541af24d3a69e58,,,,,,,,,,,208.028,208.5264,,,208.7761,208.8756,right,,,,,,,,0.1,0.0842,,,,,,,208.527,208.7759,208.8757,"[-0.10302933455355928,-0.14804287572315136]",4.0,"[0.039506401722871794,-0.06028069351580291]",100.0,"[-0.020492150422781266,0.15014931970838225]",4.0,"[0.16770700099452374,0.005722085970648817]",4.0,"[0.0806454912555427,-0.019444490768584195]",100.0,"[-0.1121615288048106,-0.05813109931296526]",4.0,"[-0.16793937598166855,0.05214900643077502]",4.0,"[0.02328833053511313,0.06259687151013407]",4.0,"[-0.13862369090294194,-0.09418279890915486]",4.0,"[-0.11602971551680293,0.0026986056808146154]",4.0,"[-0.03654043924562717,-0.0011422455272680188]",4.0,"[0.10783057287037823,0.08691954090405986]",4.0,"[-0.11752427950064273,0.0946535884162124]",4.0,"[0.029319814307694512,-0.012192336124439134]",4.0,"[0.14363117321834226,-0.08086904485320448]",4.0,"[0.0445463535847393,-0.1178590578162101]",4.0,"[0.015414876484674626,0.1255243472402467]",4.0,"[-0.0011709491903841255,-0.06234148237467797]",4.0,"[0.07656629375406349,0.13050999480241413]",4.0,"[0.12800796946999354,0.14984603303984215]",4.0,"[-0.06436563431989147,0.058100426146810165]",4.0,"[0.12216443099815545,-0.14033787981333778]",4.0,"[-0.05970006859115709,-0.12479436965295633]",4.0,"[-0.007776603762430326,-0.10850295850127317]",100.0,"[0.02397039015768651,-0.1842418278916837]",4.0,"[-0.10785445997112891,0.1345156539449319]",4.0,"[0.15533802008658187,-0.03521244945609488]",4.0,"[-0.07488814636925746,-0.07899882062335505]",4.0,"[-0.17222763606778824,-0.015446554346143993]",4.0,"[-0.06756696297934248,0.182685472352666]",4.0,"[-0.005064732797352877,0.024793148910509898]",4.0,"[-0.024013530589512017,-0.15005119820653273]",4.0,"[0.02,0.02]",209.9741,0.0,44.0,44.0,196.0,1.0,,,,,,,
,,,,,,,6597f6dc6f784e1f69bfadfa,683aeefe0114d15acdcbf0d6,2025-05-31_13h59.19.425,shape_ratio,2024.1.5,Win32,60.24096386,683ae9196541af24d3a69e58,,,,,,,,,,,209.9749,210.4735,,,210.7269,210.8609,right,,,,,,,,0.45,0.1177,,,,,,,210.4736,210.7269,210.861,"[0.016019654172399384,0.06163015364490412]",4.0,"[0.027357740477124564,-0.06153969967760306]",100.0,"[0.09127129304181583,-0.11831328744943137]",100.0,"[-0.052490293672890334,0.0898129952877811]",100.0,"[0.06278808722798625,0.17963449147510283]",4.0,"[0.0431615910264501,-0.16150798455042017]",100.0,"[-0.16021819391533051,-0.10923210263897548]",4.0,"[-0.11507473687510873,0.01949039461881958]",4.0,"[-0.15564845120989174,0.11500094227758152]",100.0,"[0.1395602975138479,-0.07671292061833282]",100.0,"[0.07834091796873219,0.015430045478293507]",100.0,"[-0.18104585080472788,-0.013541867984554694]",100.0,"[-0.18092940719537615,0.05091498397668905]",4.0,"[-0.10916066543986902,-0.04633325596577881]",4.0,"[-0.05640198459013301,-0.09257882966205427]",4.0,"[0.009358754693730187,0.10300515987789421]",100.0,"[0.09497969189842005,-0.1727351072260726]",100.0,"[-0.04769118279382436,0.1732401222040454]",4.0,"[0.14144420184020054,-0.1326642823448475]",100.0,"[-0.10104942097794503,0.06448296872098463]",4.0,"[0.07341581923264856,0.07892909514480846]",4.0,"[0.12254925645157846,-0.0017900776317261917]",4.0,"[-0.07270508071118972,-0.14404132919425972]",4.0,"[0.08067158757760282,-0.07963855045798662]",4.0,"[0.1302301502169174,0.051116072018361804]",100.0,"[-0.12168854654567408,-0.09283888923796581]",4.0,"[0.008359429911811534,-0.1289160615684245]",100.0,"[-0.01896781374937004,-0.041531938382143536]",100.0,"[0.001980684308812698,-0.18448294849690017]",4.0,"[0.19229097534815542,-0.03261247966185349]",4.0,"[-0.06855184523261647,0.13465683801875766]",4.0,"[0.11089156558071604,0.10519439628786763]",4.0,"[0.02,0.02]",211.9562,0.0,45.0,45.0,129.0,1.0,,,,,,,
,,,,,,,6597f6dc6f784e1f69bfadfa,683aeefe0114d15acdcbf0d6,2025-05-31_13h59.19.425,shape_ratio,2024.1.5,Win32,60.24096386,683ae9196541af24d3a69e58,,,,,,,,,,,211.9569,212.4581,,,212.7055,212.7716,left,,,,,,,,0.45,0.0556,,,,,,,212.4582,212.7055,212.7717,"[-0.01760305519166054,0.0791282491352424]",4.0,"[-0.14538830866948335,0.049105623865023845]",100.0,"[0.05301994082771096,-0.08335481503968252]",100.0,"[0.09090697492261057,-0.12800079777523043]",4.0,"[0.022219747281214827,0.032489480575427006]",4.0,"[0.19647632553123082,0.020918757238344018]",100.0,"[0.0064603799974182466,-0.07871272681315272]",100.0,"[0.07587724720862021,0.1387469720639209]",100.0,"[-0.10301527356673801,-0.15858651355973244]",100.0,"[-0.04348349669321544,-0.03889201152732787]",100.0,"[-0.12021438114375878,-0.11545817843602162]",4.0,"[0.02168829400420819,0.19094730689436826]",100.0,"[0.17208014893749063,-0.0943957203911453]",100.0,"[0.12150783902438543,-0.02819694534999303]",4.0,"[0.10044585301099887,0.017740236062768675]",100.0,"[0.005420929156229642,-0.18829912739539034]",4.0,"[-0.037106442341880465,0.1686195759450617]",4.0,"[-0.13336901229012954,-0.005065298397055366]",4.0,"[-0.059644298596873764,-0.0938474530609275]",4.0,"[-0.09349904558902868,0.11501209755346342]",4.0,"[-0.031528005581010196,0.03420547093117652]",4.0,"[0.02409347331385673,0.13773711762290083]",4.0,"[-0.06726878284225045,0.010000107551155338]",100.0,"[-0.18265466063288874,0.08126674846767319]",100.0,"[0.1671775480798632,-0.018503895217629112]",4.0,"[0.11070914289099,0.08160030733664125]",100.0,"[0.0352469666885347,-0.16075618461316787]",4.0,"[0.039198998984260214,0.08084109275564427]",4.0,"[0.012441680316892969,-0.03301829519424087]",4.0,"[0.07000772861979322,-0.18376093063017143]",4.0,"[-0.04931118053778809,-0.16895987938348087]",100.0,"[-0.14330448091020517,0.09753770062443208]",4.0,"[0.02,0.02]",213.8701,0.0,46.0,46.0,148.0,1.0,,,,,,,
,,,,,,,6597f6dc6f784e1f69bfadfa,683aeefe0114d15acdcbf0d6,2025-05-31_13h59.19.425,shape_ratio,2024.1.5,Win32,60.24096386,683ae9196541af24d3a69e58,,,,,,,,,,,213.8707,214.37,,,214.6232,214.7207,left,,,,,,,,0.55,0.0764,,,,,,,214.3701,214.6231,214.7207,"[-0.007256499761325058,0.11166780568990167]",100.0,"[-0.19828887455777552,-0.01961511465972951]",100.0,"[-0.06784734356820651,0.009330740120187156]",4.0,"[0.03979928039943434,-0.12694754400561656]",4.0,"[0.1043118982673313,0.08540873880950291]",4.0,"[-0.11096211919490574,-0.11436691691902516]",100.0,"[0.014571454765296251,-0.08140335239703386]",100.0,"[-0.09420460807401289,0.12171240621033859]",4.0,"[0.18730738668741187,0.030634271586154612]",100.0,"[0.05503171518376014,-0.08951462764632068]",100.0,"[-0.012422589881774256,0.18591346550602864]",4.0,"[0.11819057506967787,-0.07775176221127418]",100.0,"[-0.025191141030439266,-0.13921541505656734]",4.0,"[-0.15672305532335778,0.0925182508886716]",4.0,"[0.15041802227709117,0.12889319475836725]",100.0,"[-0.0938726883352013,-0.15338936700503022]",100.0,"[0.13216973465688242,-0.1278111728301497]",100.0,"[-0.1120627824019416,0.018196957803989097]",100.0,"[0.08675430023530864,0.1508635712606161]",4.0,"[0.17561179958292455,-0.03397665938133776]",4.0,"[-0.0058389223954542005,-0.015314409784404492]",100.0,"[0.07327641514287692,-0.03167101988189602]",4.0,"[0.0029277772344745386,0.03125403459488066]",100.0,"[0.06255085471818715,0.11200958290495378]",100.0,"[0.05656671663027397,-0.19035421961016427]",100.0,"[-0.18323626402822957,-0.07665832189025627]",4.0,"[0.04780062781813231,0.16539262415579528]",4.0,"[-0.1317993879502045,-0.0676823468728408]",4.0,"[-0.17199918904840256,0.012010872895473649]",100.0,"[0.07240162984733625,0.056868595841690205]",100.0,"[-0.03323155058693596,-0.06102109867334012]",4.0,"[-0.03746558080381163,0.08052604575500646]",100.0,"[0.02,0.02]",215.8089,0.0,47.0,47.0,79.0,1.0,,,,,,,
,,,,,,,6597f6dc6f784e1f69bfadfa,683aeefe0114d15acdcbf0d6,2025-05-31_13h59.19.425,shape_ratio,2024.1.5,Win32,60.24096386,683ae9196541af24d3a69e58,,,,,,,,,,,215.8103,216.3013,,,216.554,216.6037,right,,,,,,,,0.9,0.0416,,,,,,,216.3014,216.554,216.6038,"[-0.06353890690330229,0.13938954128445954]",100.0,"[0.05993123781444118,0.07797148994712641]",4.0,"[0.1311726013266392,0.08886714130082504]",100.0,"[-0.0008510476503245918,0.10972400172181086]",100.0,"[0.17726549759279484,-0.01847074021484286]",100.0,"[0.16946534468591612,0.03399274434599516]",100.0,"[-0.0722931872379339,0.014410501394750717]",100.0,"[0.17608013969556102,0.09390673942294865]",100.0,"[-0.006818082585346181,0.19983041488650416]",100.0,"[0.0689490004798805,-0.02850374682244802]",100.0,"[-0.15806043592389468,0.0802169562982687]",4.0,"[-0.1909817774396363,0.00516372075359032]",100.0,"[-0.035848812346407376,-0.09236316630750054]",100.0,"[0.1255806034843203,-0.142888237193578]",100.0,"[-0.09519082745968742,-0.10661557558650726]",100.0,"[0.08259871295677451,0.17028624980035595]",100.0,"[-0.06888684949365739,-0.033318731377669254]",100.0,"[-0.006532895215310879,0.05124664699334891]",100.0,"[-0.07802411482753864,-0.18397685248524928]",100.0,"[0.1401906484849278,-0.06324210921997117]",4.0,"[-0.04969048620955395,-0.13525482064317354]",100.0,"[-0.1791980674581383,-0.040467318259921316]",100.0,"[0.03370503919981332,-0.04944351429387172]",100.0,"[-0.11667698844732947,0.15456410712409013]",100.0,"[-0.12357942436653004,0.05084105037612022]",100.0,"[0.005448945314758683,-0.1893897290803432]",100.0,"[-0.05653513258185947,0.18126253657421548]",100.0,"[-0.06845149908687201,0.08615294395147054]",100.0,"[0.053001688685114824,-0.19194157159963773]",100.0,"[0.06177893248125543,0.13556811072369906]",100.0,"[-0.1305353060734016,0.0030817340783998327]",100.0,"[0.006194313438771014,0.15581368715346297]",100.0,"[0.02,0.02]",217.7,0.0,48.0,48.0,23.0,1.0,,,,,,,
,,,,,,,6597f6dc6f784e1f69bfadfa,683aeefe0114d15acdcbf0d6,2025-05-31_13h59.19.425,shape_ratio,2024.1.5,Win32,60.24096386,683ae9196541af24d3a69e58,,,,,,,,,,,217.701,218.1997,,,218.4498,218.533,right,,,,,,,,0.45,0.0766,,,,,,,218.1998,218.4498,218.5331,"[0.12708102691897966,-0.03600099247164099]",4.0,"[-0.045243854671348845,-0.14407043712906994]",4.0,"[-0.07579413075470363,0.1077711574173163]",100.0,"[-0.04174979307069436,-0.19506293515004308]",4.0,"[-0.10493235111573482,-0.14081276182135727]",4.0,"[-0.11933715098574883,0.03069431380008352]",100.0,"[0.05010649002071879,0.011475271004076627]",4.0,"[-0.1279118384694489,0.08929266862776226]",4.0,"[0.18053359963218849,-0.07979565651301752]",4.0,"[-0.04945388690553955,-0.09178546624919443]",4.0,"[0.0015969822021388916,0.05807395318303534]",4.0,"[-0.03362739948332342,0.08410547110186796]",100.0,"[0.15375534476886057,0.0949044487874592]",100.0,"[-0.06466293456345665,-0.0164967850349557]",100.0,"[0.12473189200813287,0.12780875015927137]",100.0,"[0.11679009591390717,0.041920567304493055]",4.0,"[0.0769739863569713,0.06786768440569389]",4.0,"[-0.05345456533962285,0.04105820366928384]",4.0,"[-0.11990257546289255,-0.041908883158210036]",4.0,"[0.011603313531453935,0.1229567570832636]",100.0,"[-0.16319288275498292,-0.05761239084733873]",100.0,"[0.1356688098110545,-0.09419075594517787]",100.0,"[0.08154101134268275,0.174607208416546]",100.0,"[0.04838855932722637,-0.060145629256492535]",4.0,"[-0.022279295609082095,-0.042830935949411966]",4.0,"[0.07822823573349606,0.1118739850163258]",4.0,"[-0.038119331659853505,0.1699364441789948]",100.0,"[0.007068255111452111,-0.1933978399669168]",100.0,"[0.06408675129554747,-0.14365985624924354]",100.0,"[-0.15686485072945872,0.0029858587997831]",4.0,"[0.08004040483945843,-0.0917919232790628]",4.0,"[0.018061416865814493,-0.12206127636999754]",100.0,"[0.02,0.02]",219.6316,0.0,49.0,49.0,122.0,1.0,,,,,,,
