right,left,explain.started,explain.stopped,key_resp_3.keys,key_resp_3.rt,key_resp_3.duration,participant,session,date,expName,psychopyVersion,OS,frameRate,study_id,explain_2.started,explain_2.stopped,key_resp_4.keys,key_resp_4.rt,key_resp_4.duration,explain_3.started,explain_3.stopped,key_resp_5.keys,key_resp_5.rt,key_resp_5.duration,fixation.started,fixation.stopped,practice.started,practice.stopped,response.started,response.stopped,key_resp.keys,key_resp.rt,key_resp.duration,feedback.started,feedback.stopped,trials_2.thisRepN,trials_2.thisTrialN,trials_2.thisN,trials_2.thisIndex,trials_2.ran,dot_ratio,explain_4.started,explain_4.stopped,key_resp_6.keys,key_resp_6.rt,key_resp_6.duration,dotDisplay.started,dotDisplay.stopped,ITI.started,polygon_1.pos,polygon_1.edges,polygon_2.pos,polygon_2.edges,polygon_3.pos,polygon_3.edges,polygon_4.pos,polygon_4.edges,polygon_5.pos,polygon_5.edges,polygon_6.pos,polygon_6.edges,polygon_7.pos,polygon_7.edges,polygon_8.pos,polygon_8.edges,polygon_9.pos,polygon_9.edges,polygon_10.pos,polygon_10.edges,polygon_11.pos,polygon_11.edges,polygon_12.pos,polygon_12.edges,polygon_13.pos,polygon_13.edges,polygon_14.pos,polygon_14.edges,polygon_15.pos,polygon_15.edges,polygon_16.pos,polygon_16.edges,polygon_17.pos,polygon_17.edges,polygon_18.pos,polygon_18.edges,polygon_19.pos,polygon_19.edges,polygon_20.pos,polygon_20.edges,polygon_21.pos,polygon_21.edges,polygon_22.pos,polygon_22.edges,polygon_23.pos,polygon_23.edges,polygon_24.pos,polygon_24.edges,polygon_25.pos,polygon_25.edges,polygon_26.pos,polygon_26.edges,polygon_27.pos,polygon_27.edges,polygon_28.pos,polygon_28.edges,polygon_29.pos,polygon_29.edges,polygon_30.pos,polygon_30.edges,polygon_31.pos,polygon_31.edges,polygon_32.pos,polygon_32.edges,dot_size,ITI.stopped,trials.thisRepN,trials.thisTrialN,trials.thisN,trials.thisIndex,trials.ran,break_2.started,break_2.stopped,trials_3.thisRepN,trials_3.thisTrialN,trials_3.thisN,trials_3.thisIndex,trials_3.ran
subject chose diamond,subject chose dot,0.0002,91.0343,space,76.0262,,65fae6b84fa6b3101d2ca4b1,684428b24eb99d202ec80e93,2025-06-07_17h28.08.771,shape_ratio,2024.1.5,Win32,59.88023952,684250e4f00cb30b92d1fa88,,,,,,,,,,,,,,,,,,,,,,,,,,,,,,,,,,,,,,,,,,,,,,,,,,,,,,,,,,,,,,,,,,,,,,,,,,,,,,,,,,,,,,,,,,,,,,,,,,,,,,,,,,,,,,,,,
,,,,,,,65fae6b84fa6b3101d2ca4b1,684428b24eb99d202ec80e93,2025-06-07_17h28.08.771,shape_ratio,2024.1.5,Win32,59.88023952,684250e4f00cb30b92d1fa88,91.0346,144.7947,space,23.7485,,,,,,,,,,,,,,,,,,,,,,,,,,,,,,,,,,,,,,,,,,,,,,,,,,,,,,,,,,,,,,,,,,,,,,,,,,,,,,,,,,,,,,,,,,,,,,,,,,,,,,,,,,,,,
,,,,,,,65fae6b84fa6b3101d2ca4b1,684428b24eb99d202ec80e93,2025-06-07_17h28.08.771,shape_ratio,2024.1.5,Win32,59.88023952,684250e4f00cb30b92d1fa88,,,,,,144.7951,149.3266,space,1.5119,,,,,,,,,,,,,,,,,,,,,,,,,,,,,,,,,,,,,,,,,,,,,,,,,,,,,,,,,,,,,,,,,,,,,,,,,,,,,,,,,,,,,,,,,,,,,,,,,,,,,,,,
,,,,,,,65fae6b84fa6b3101d2ca4b1,684428b24eb99d202ec80e93,2025-06-07_17h28.08.771,shape_ratio,2024.1.5,Win32,59.88023952,684250e4f00cb30b92d1fa88,,,,,,,,,,,149.3437,149.8427,149.8431,150.0928,150.093,151.4259,right,1.3075,,151.4262,152.5253,0.0,0.0,0.0,0.0,1.0,0.2,,,,,,,,,,,,,,,,,,,,,,,,,,,,,,,,,,,,,,,,,,,,,,,,,,,,,,,,,,,,,,,,,,,,,,,,,,,,,,,,,,,,,,
,,,,,,,65fae6b84fa6b3101d2ca4b1,684428b24eb99d202ec80e93,2025-06-07_17h28.08.771,shape_ratio,2024.1.5,Win32,59.88023952,684250e4f00cb30b92d1fa88,,,,,,,,,,,152.526,153.0249,153.0249,153.2751,153.2752,154.0744,right,0.7841,,154.0746,155.1737,0.0,1.0,1.0,1.0,1.0,0.8,,,,,,,,,,,,,,,,,,,,,,,,,,,,,,,,,,,,,,,,,,,,,,,,,,,,,,,,,,,,,,,,,,,,,,,,,,,,,,,,,,,,,,
,,,,,,,65fae6b84fa6b3101d2ca4b1,684428b24eb99d202ec80e93,2025-06-07_17h28.08.771,shape_ratio,2024.1.5,Win32,59.88023952,684250e4f00cb30b92d1fa88,,,,,,,,,,,,,,,,,,,,,,,,,,,,155.174,187.3468,space,29.1444,,,,,,,,,,,,,,,,,,,,,,,,,,,,,,,,,,,,,,,,,,,,,,,,,,,,,,,,,,,,,,,,,,,,,,,,,,,,,,,,,,
,,,,,,,65fae6b84fa6b3101d2ca4b1,684428b24eb99d202ec80e93,2025-06-07_17h28.08.771,shape_ratio,2024.1.5,Win32,59.88023952,684250e4f00cb30b92d1fa88,,,,,,,,,,,187.3586,187.856,,,188.0969,188.7795,right,0.6679,,,,,,,,,0.1,,,,,,187.8563,188.0969,188.7801,"[-0.04248170547114799,-0.017530028077929735]",100.0,"[0.024479388395647467,-0.19712725828721583]",4.0,"[-0.1815119387502489,0.05727326490936724]",100.0,"[-0.11849074666955393,0.06365912498596249]",4.0,"[-0.09895166292245194,0.1328490026683223]",4.0,"[0.1146071414779256,0.1516195212629159]",4.0,"[0.11168857295611596,-0.04467191464723853]",4.0,"[0.06746489356111507,0.13954018811300178]",4.0,"[-0.039653707681601,0.06939141313001496]",4.0,"[0.07500436318689437,-0.18238333202448218]",4.0,"[0.029460460755473514,-0.1449850347134252]",100.0,"[0.17932661558539556,-0.03510554169889249]",4.0,"[-0.09794881167501267,-0.15201903670057582]",4.0,"[-0.012000241821345646,0.16786667232171643]",4.0,"[-0.16840730262286965,-0.050755529086214016]",4.0,"[-0.1664900720353253,-0.10356845742235937]",4.0,"[-0.1343702709422682,-0.12815726460486923]",4.0,"[0.04046354992785334,0.17258041002273805]",4.0,"[0.04978982636613627,-0.01015134553797431]",4.0,"[0.03303076828412598,0.10568278294612363]",4.0,"[0.12069511685560347,-0.1582860424868493]",4.0,"[-0.06053517394696658,-0.18746296481657343]",4.0,"[-0.006028881909687536,-0.12423811429757191]",4.0,"[0.11442966916624969,0.03532546164573908]",4.0,"[0.0342400890329643,0.028281279972190623]",4.0,"[-0.026991423958329073,-0.0557358956129983]",4.0,"[0.0584811218751608,0.06559820486480616]",4.0,"[-0.13637952269843776,0.0034505344203908275]",4.0,"[-0.06429690765306378,-0.10832466856147799]",4.0,"[0.1518125837503465,0.007769926930581529]",4.0,"[0.03340102378606967,-0.08502147516889375]",4.0,"[-0.18459660552874985,0.0032348557109949036]",4.0,"[0.02,0.02]",189.8787,0.0,0.0,0.0,191.0,1.0,,,,,,,
,,,,,,,65fae6b84fa6b3101d2ca4b1,684428b24eb99d202ec80e93,2025-06-07_17h28.08.771,shape_ratio,2024.1.5,Win32,59.88023952,684250e4f00cb30b92d1fa88,,,,,,,,,,,189.8793,190.379,,,190.6295,190.9453,left,0.3013,,,,,,,,,0.45,,,,,,190.3791,190.6294,190.9454,"[-0.06784847837325036,-0.0417494647880475]",4.0,"[0.06740196344593126,-0.07418538730712655]",100.0,"[-0.15072115478553966,0.04718286786912265]",100.0,"[0.06488055597216914,-0.015877570978025512]",4.0,"[-0.11422214663983642,0.026476457712157987]",4.0,"[0.010528740483412607,-0.17473892148950843]",100.0,"[0.0778924830257704,0.08672048462290646]",100.0,"[-0.11821566399358827,-0.14369111042316166]",4.0,"[0.146955851547012,-0.003729405818504782]",100.0,"[-0.15705835699962853,-0.1070139783154561]",4.0,"[0.05052329768783137,-0.16829191060796309]",4.0,"[0.028754241562399724,0.1851438630774598]",100.0,"[-0.030800457898145384,0.1537931540047358]",4.0,"[-0.11032222448026315,-0.026658393481748612]",4.0,"[-0.08909790405148282,-0.10897017290545584]",100.0,"[0.1280306927148538,0.13581832711907085]",100.0,"[0.15469649923472434,-0.08094548971291159]",4.0,"[0.006054111140360582,0.05155519859370726]",100.0,"[0.08002795367721635,0.17581890024859667]",4.0,"[-0.014246042848689645,-0.12474827414386422]",4.0,"[0.08821433480419012,0.020382418357479413]",4.0,"[-0.016446180839065166,0.01420535024631985]",100.0,"[-0.05337504797671727,-0.15100694328820832]",100.0,"[-0.0686970826154972,0.123545108066892]",100.0,"[0.09093342999615642,-0.16447950584452456]",4.0,"[-0.14748186566673419,0.13246854436817293]",4.0,"[-0.0006977273687211909,-0.08324929096725368]",4.0,"[-0.1674367114341325,0.006241870314953753]",4.0,"[-0.01941486023022371,0.19871189364661168]",100.0,"[0.18107522398419973,-0.031956334882377056]",100.0,"[-0.09020125109683201,0.06905016298178371]",4.0,"[0.033741679787191274,0.0855799795223494]",4.0,"[0.02,0.02]",192.045,0.0,1.0,1.0,128.0,1.0,,,,,,,
,,,,,,,65fae6b84fa6b3101d2ca4b1,684428b24eb99d202ec80e93,2025-06-07_17h28.08.771,shape_ratio,2024.1.5,Win32,59.88023952,684250e4f00cb30b92d1fa88,,,,,,,,,,,192.0453,192.5448,,,192.795,193.3611,right,0.5502,,,,,,,,,0.55,,,,,,192.5449,192.7949,193.3612,"[-0.029508833840660213,-0.16592924646043017]",4.0,"[0.004890200835670699,0.17329986416194418]",100.0,"[0.09522540194419035,-0.03684605771120085]",4.0,"[0.06972759617968345,-0.0735296028110823]",4.0,"[-0.02633835878551478,-0.04130144846027718]",4.0,"[-0.04978602660935054,0.08556561113428138]",100.0,"[0.025700762662546093,-0.07128753392984416]",100.0,"[-0.11037146744087102,-0.047417732756597435]",4.0,"[0.06067260110405485,0.011102720200538579]",4.0,"[0.05415801491663837,0.16874023915775535]",4.0,"[-0.1194704360591156,0.1131907865827943]",100.0,"[-0.1382269026671289,0.021125507778139804]",100.0,"[0.10918781920448893,-0.08203346062298085]",4.0,"[-0.09002422764652876,0.052325073358375614]",100.0,"[-0.016663067306970984,0.11566437276638027]",100.0,"[0.15780936047677271,-0.05204979081380885]",4.0,"[-0.06645623750947907,-0.12414386192504057]",100.0,"[-0.12861127799907607,-0.1529715399216223]",4.0,"[0.18773649287224045,-0.010329707827051077]",100.0,"[0.07241818601573163,0.09916456949892269]",4.0,"[-0.07355389107122837,-0.08365971377541004]",4.0,"[-0.044329372697033055,0.040734829539540454]",100.0,"[-0.028431610057828283,-0.08784884629050559]",100.0,"[-0.15068292590846138,-0.07449617921467652]",4.0,"[0.1643285924364736,0.07734392911868254]",100.0,"[0.07778005545693659,-0.16742883275286277]",100.0,"[0.10098532259053371,0.16093663785176093]",4.0,"[-0.00035221184558736576,-0.12112510150122438]",100.0,"[-0.0806479417005323,-0.004177817847382571]",100.0,"[-0.0582624078701715,0.16730640386585496]",100.0,"[0.1510104223727095,-0.11577536122690545]",100.0,"[-0.18679936584055234,-0.019919034890574616]",100.0,"[0.02,0.02]",194.4608,0.0,2.0,2.0,84.0,1.0,,,,,,,
,,,,,,,65fae6b84fa6b3101d2ca4b1,684428b24eb99d202ec80e93,2025-06-07_17h28.08.771,shape_ratio,2024.1.5,Win32,59.88023952,684250e4f00cb30b92d1fa88,,,,,,,,,,,194.4613,194.9603,,,195.2113,195.8607,left,0.6357,,,,,,,,,0.45,,,,,,194.9603,195.2112,195.8608,"[0.049419017474660404,0.13405205734827344]",100.0,"[0.09219309815136971,-0.11873105898217205]",4.0,"[-0.0696447560399353,0.1280379369924911]",4.0,"[-0.031040390978413605,0.18403095830463584]",100.0,"[0.08216138816678879,-0.005536154554539394]",4.0,"[-0.03442799531117384,0.0677002006771121]",100.0,"[-0.15729930583346638,-0.040388366445767564]",100.0,"[0.12123260176374075,-0.15216082322614605]",100.0,"[0.11729034168408493,0.07694577929057765]",4.0,"[0.038511051836760804,0.02930188325744142]",100.0,"[0.011489135823794029,-0.10935575210698127]",4.0,"[-0.11133703842035413,0.07768742706279602]",100.0,"[0.095765275643435,-0.07159091372337839]",4.0,"[0.0906693644805988,0.03440613822123814]",100.0,"[-0.19470305301509333,-0.01754170738209776]",4.0,"[0.16692347683605382,-0.003713754058337848]",4.0,"[-0.10938134465187598,-0.09169905628222294]",4.0,"[0.0042670289822058964,0.12838815967658354]",4.0,"[0.038633608922272425,-0.0387108822834358]",4.0,"[-0.1348284702737022,0.0065538225066991045]",4.0,"[0.011582719885577878,-0.19813396274165102]",4.0,"[-0.18602064825640918,0.022109730836794243]",100.0,"[-0.05243353678951856,0.009763076554975967]",100.0,"[0.0022050507173515966,-0.00715397698091837]",100.0,"[-0.12658352166701256,0.14036699403716268]",100.0,"[0.1281239200457648,-0.03899523206216699]",4.0,"[-0.17648971230137447,0.07013999102699814]",4.0,"[-0.04520597763409845,-0.06107053082460872]",4.0,"[0.01843424250450836,-0.15126421012515504]",4.0,"[-0.06866336987995794,-0.133683924316763]",100.0,"[0.052058841455322184,-0.17572845257417785]",4.0,"[0.08931769734359359,0.16618398870096635]",100.0,"[0.02,0.02]",196.9599,0.0,3.0,3.0,126.0,1.0,,,,,,,
,,,,,,,65fae6b84fa6b3101d2ca4b1,684428b24eb99d202ec80e93,2025-06-07_17h28.08.771,shape_ratio,2024.1.5,Win32,59.88023952,684250e4f00cb30b92d1fa88,,,,,,,,,,,196.9605,197.4598,,,197.7101,198.2928,left,0.5773,,,,,,,,,0.55,,,,,,197.4598,197.71,198.2929,"[0.059690756521718916,0.10570687900256126]",4.0,"[-0.13197485242320117,-0.13048733651870312]",100.0,"[-0.08623940040547272,0.04703851485393425]",4.0,"[-0.039602456814132846,0.05882269993517472]",100.0,"[-0.14862721159391323,-0.048792765262390375]",100.0,"[0.10378742209163003,-0.030325456521867012]",4.0,"[-0.08660933831433648,-0.16820418092118603]",4.0,"[-0.155849891261434,0.12030335721180895]",100.0,"[0.14120029614164994,-0.0645701054795149]",100.0,"[-0.05681330861060977,0.10446187130428349]",100.0,"[-0.1090561035969683,-0.010804897452946972]",4.0,"[0.11025711297910372,0.10186272608674578]",100.0,"[0.04523450592932821,-0.17188097525521512]",100.0,"[-0.0625165622981563,-0.002797191510127687]",4.0,"[-0.11022533435628108,0.08628503674854397]",4.0,"[0.1516460233150741,0.057257453393355605]",4.0,"[0.08233611461417513,-0.07284871966820304]",100.0,"[0.07256548860124978,0.1503833683262703]",4.0,"[-0.1437703509042807,0.03234095584293838]",4.0,"[-0.19414773802083332,0.008451876363046907]",4.0,"[0.04986342317047263,0.04296154487706427]",4.0,"[-0.0036483533448579955,-0.1876588337977831]",100.0,"[0.015529185816737652,-0.12042987603068385]",100.0,"[0.03248968996201849,0.1926539032495936]",100.0,"[-0.0061359580447125014,-0.07156461455968903]",100.0,"[0.0004191846042852235,0.15141950288768175]",4.0,"[0.01034977754581192,0.009419967430392842]",100.0,"[-0.04428851263517761,-0.14119972633162708]",4.0,"[0.15700430374892982,0.09822857859954812]",100.0,"[0.19024898692580233,-0.046337332483960415]",100.0,"[0.08583907975493318,-0.13418893309596955]",100.0,"[0.17492022055390313,0.0015582453369156677]",100.0,"[0.02,0.02]",199.3926,0.0,4.0,4.0,88.0,1.0,,,,,,,
,,,,,,,65fae6b84fa6b3101d2ca4b1,684428b24eb99d202ec80e93,2025-06-07_17h28.08.771,shape_ratio,2024.1.5,Win32,59.88023952,684250e4f00cb30b92d1fa88,,,,,,,,,,,199.3929,199.8922,,,200.142,200.9415,right,0.7861,,,,,,,,,0.1,,,,,,199.8922,200.142,200.9416,"[0.15806222600176267,0.07313320195890563]",4.0,"[-0.03383527414556249,0.07098291453603837]",4.0,"[0.05679076201845985,-0.15993679439915462]",4.0,"[0.023211421629005347,-0.08043301194119809]",4.0,"[-0.144546168429487,0.12712643345214206]",4.0,"[-0.04482483622372942,-0.07986436903520124]",100.0,"[-0.08628792127527782,0.13798197638752935]",4.0,"[-0.09761858540729797,0.06716649263740228]",4.0,"[-0.1731236296975439,0.0031381921534697488]",4.0,"[0.02772574447621824,0.03076521949485229]",4.0,"[0.11512268147106614,-0.05673803335827114]",4.0,"[-0.001659698987134437,-0.19816888143887662]",4.0,"[-0.11656471457908031,-0.1376886182006688]",4.0,"[0.06938451604246748,-0.0735296753547784]",4.0,"[0.1499433028497134,-0.10425368385875625]",100.0,"[0.000512575742664212,0.09622002806390899]",100.0,"[0.12874272955180494,0.13163760065714258]",4.0,"[-0.006184479906340314,-0.1457661702580609]",4.0,"[0.1851384069788851,-0.052524260103733816]",4.0,"[-0.040586368393800296,-0.005026539109540541]",4.0,"[-0.002776370425893752,-0.029142906661797512]",4.0,"[-0.04969085677284598,-0.16461662342684477]",4.0,"[-0.12785477540924248,-0.06804918491258542]",4.0,"[0.12736495337170828,0.03851866234487474]",4.0,"[0.027811596820047687,0.16160446056657182]",4.0,"[0.0683936675166359,0.16853882615663773]",4.0,"[0.04103339779623347,-0.014858146233065842]",4.0,"[0.1684493302686089,0.0029849382331307945]",4.0,"[0.11334160336290154,-0.1312275656555607]",4.0,"[-0.04731494356897495,0.18312938630877582]",4.0,"[-0.06740725622107806,-0.03699979950977964]",4.0,"[0.06136790493700533,0.0750685587016713]",4.0,"[0.02,0.02]",202.0414,0.0,5.0,5.0,197.0,1.0,,,,,,,
,,,,,,,65fae6b84fa6b3101d2ca4b1,684428b24eb99d202ec80e93,2025-06-07_17h28.08.771,shape_ratio,2024.1.5,Win32,59.88023952,684250e4f00cb30b92d1fa88,,,,,,,,,,,202.0416,202.5409,,,202.7918,203.3572,right,0.5584,,,,,,,,,0.45,,,,,,202.541,202.7918,203.3573,"[0.020751945778469897,0.06496423769402553]",4.0,"[0.0753350178365878,0.011488575565479525]",4.0,"[0.14508689748782927,0.13593962799493992]",100.0,"[-0.05606601826270969,0.0025178821538918922]",4.0,"[-0.17231015703341968,-0.03889819387868866]",100.0,"[0.025838984935185095,0.013901922275934056]",4.0,"[0.01277227822590957,0.11782145041258757]",100.0,"[0.03418597408244514,-0.05953715996944054]",4.0,"[0.13314911654196349,-0.13004956362474138]",100.0,"[-0.18726345338313474,0.04820821679943287]",4.0,"[0.1655573954583977,0.0364783914621418]",100.0,"[-0.16467085279813662,-0.10547594334537772]",4.0,"[0.07413510215292532,-0.08616415895083032]",4.0,"[-0.0698936374024931,0.17673143482851672]",4.0,"[0.10860702672276472,-0.037773421673414534]",100.0,"[-0.12806449088983654,-0.027704938387972687]",100.0,"[0.029637849015482894,-0.15759922386020156]",100.0,"[-0.07457073420771179,-0.06471224617109876]",4.0,"[-0.12942680304685444,-0.07788814559339283]",100.0,"[-0.025234985369419708,0.06623413863815067]",4.0,"[-0.02459394222439474,-0.05023105290022299]",4.0,"[-0.16649382968548862,0.1023135800785243]",100.0,"[-0.039323216550051686,-0.19160087530011205]",4.0,"[0.04704066499017737,0.15185559472202403]",100.0,"[-0.00939813264106154,-0.12797427560128793]",4.0,"[-0.06800787141544445,0.07407350139310796]",4.0,"[-0.10364641186541101,-0.16975949793014708]",4.0,"[0.08863437972875085,0.15682429859813668]",4.0,"[0.14566235441461864,-0.08322559486312378]",4.0,"[-0.12659328053180693,0.05998176017748309]",100.0,"[-0.10257149198937446,0.09962621149633187]",100.0,"[-0.02523285747836001,0.13586385565291137]",100.0,"[0.02,0.02]",204.4573,0.0,6.0,6.0,135.0,1.0,,,,,,,
,,,,,,,65fae6b84fa6b3101d2ca4b1,684428b24eb99d202ec80e93,2025-06-07_17h28.08.771,shape_ratio,2024.1.5,Win32,59.88023952,684250e4f00cb30b92d1fa88,,,,,,,,,,,204.4577,204.9572,,,205.2075,205.8237,right,0.6077,,,,,,,,,0.1,,,,,,204.9573,205.2075,205.8237,"[-0.14187448323188442,0.11661728440959894]",4.0,"[-0.04316527027063241,-0.01109910753711284]",4.0,"[-0.13308589534028847,-0.006427027735438501]",4.0,"[-0.03580744423828546,0.07766176413498413]",4.0,"[0.07235477721521326,-0.15542449868559416]",4.0,"[0.120278656390781,-0.04069382006756247]",4.0,"[0.03653173115565379,-0.1192067027309699]",4.0,"[0.09019821105403925,0.15082232203312532]",4.0,"[0.039831751855452596,-0.011226938740769287]",4.0,"[0.08945395206921933,-0.09102462409162498]",4.0,"[-0.03354189298453905,-0.07408439921913766]",4.0,"[0.03159540364835784,0.08999971735958774]",4.0,"[0.1877567720664115,0.03725561496459218]",4.0,"[-0.023953565282518224,0.1244755914958488]",4.0,"[-0.0292271080059973,0.17080199784529018]",4.0,"[0.13621407279713094,0.0016351705742612813]",4.0,"[-0.11157713370024865,0.14591477434996045]",4.0,"[-0.16151576146143673,0.05002395148147346]",4.0,"[-0.05824408221695409,-0.11400576816453549]",4.0,"[0.17079070655182335,-0.07285983445351658]",4.0,"[-0.06992829096000669,0.141581583698219]",4.0,"[0.06919821746914412,0.07539628442702824]",4.0,"[-0.1950410215188436,0.013057857559486474]",4.0,"[-0.1415896628264197,-0.08583770498872527]",100.0,"[-0.11567008324857335,0.05002969852092468]",100.0,"[0.06473809663875905,0.11844437607838537]",4.0,"[-0.09538776478464858,-0.07982095522102894]",4.0,"[-0.0024318590073061567,0.01879066027418306]",100.0,"[-0.002999329098012532,-0.19134351078795872]",4.0,"[-0.07618265407077483,0.09711855889077055]",4.0,"[0.0489721441043833,0.15587672192567925]",4.0,"[0.08659012466084828,0.03189407051711763]",4.0,"[0.02,0.02]",206.9233,0.0,7.0,7.0,194.0,1.0,,,,,,,
,,,,,,,65fae6b84fa6b3101d2ca4b1,684428b24eb99d202ec80e93,2025-06-07_17h28.08.771,shape_ratio,2024.1.5,Win32,59.88023952,684250e4f00cb30b92d1fa88,,,,,,,,,,,206.9239,207.4231,,,207.6729,208.4557,right,0.767,,,,,,,,,0.1,,,,,,207.4231,207.6729,208.4557,"[0.015956018530804417,-0.1646308188960594]",4.0,"[0.1357592128684282,0.06501528934926529]",100.0,"[0.08164594213338368,-0.1352036062814577]",100.0,"[-0.10409443262716184,-0.01524084700801422]",4.0,"[-0.11151031571246615,-0.05766940201637068]",4.0,"[-0.011675810207439312,0.11953722058159459]",4.0,"[0.11787107021704095,-0.030780191842119307]",4.0,"[-0.03951642537495712,-0.018404554073481707]",4.0,"[-0.09537667526995637,-0.10988645959372248]",4.0,"[-0.04978057189010677,0.08815503938770883]",4.0,"[0.11308016263288292,0.12225206285211675]",4.0,"[0.03013063557687268,0.04693436145082771]",4.0,"[0.18959493637759112,0.026574762013092265]",4.0,"[-0.0016666360783819088,0.01252911212162684]",4.0,"[0.004275935943651966,-0.061163303217908645]",4.0,"[0.1350197118974006,-0.0969819656967208]",4.0,"[-0.07963550697246521,0.03068463547741189]",4.0,"[0.1261941527195491,0.02230116458806039]",4.0,"[0.09516227818854134,0.06862191111841669]",4.0,"[0.018568465078214202,-0.10609179277824572]",4.0,"[-0.15453930670916602,-0.01732497136536275]",4.0,"[-0.03730712552258548,-0.07195639351100988]",4.0,"[-0.04725717137062837,0.14724301688077687]",4.0,"[-0.07259066421577634,-0.1638553855261493]",4.0,"[-0.15437173248194025,0.05748667924893472]",100.0,"[0.036475940674195316,0.09426808129689314]",4.0,"[-0.1282003734351572,0.020878013695353106]",4.0,"[-0.1472333716193469,-0.08556422547701809]",4.0,"[0.03671486380166205,-0.01337343256745638]",4.0,"[0.17261679280119216,-0.02048597710840336]",4.0,"[-0.03892975871662012,0.03879162158272091]",4.0,"[0.16230751670688515,-0.05939263586327714]",4.0,"[0.02,0.02]",209.5558,0.0,8.0,8.0,188.0,1.0,,,,,,,
,,,,,,,65fae6b84fa6b3101d2ca4b1,684428b24eb99d202ec80e93,2025-06-07_17h28.08.771,shape_ratio,2024.1.5,Win32,59.88023952,684250e4f00cb30b92d1fa88,,,,,,,,,,,209.5561,210.0552,,,210.3056,211.8047,,,,,,,,,,,0.55,,,,,,210.0552,210.3056,211.8047,"[0.058901598565584544,0.04876311702364345]",100.0,"[0.07622548213236688,0.10288641021767472]",100.0,"[0.012570645147203479,-0.1562315418293103]",4.0,"[-0.025723030684802427,-0.0101616933814041]",100.0,"[-0.08092387426681709,-0.14179461806285376]",4.0,"[0.18968458301027505,0.058400450379869316]",100.0,"[0.10436069602961794,-0.005716421402471819]",4.0,"[-0.04448620708099803,0.10437118319114923]",4.0,"[0.05100659843379248,-0.06739621396322815]",100.0,"[-0.06059731811057892,-0.07353432160533802]",100.0,"[-0.12348593764853662,0.15317288884085734]",4.0,"[0.055547833116227414,0.19101314257962623]",4.0,"[-0.17891480352568606,0.07606592444903719]",4.0,"[-0.047499104124711165,0.17985654346391947]",100.0,"[0.16381509682496448,0.008378229719351692]",100.0,"[-0.11843930067201677,-0.06791469452510403]",100.0,"[-0.008407500463197014,0.03812259391731882]",4.0,"[-0.15271964202923127,0.04548054329720953]",100.0,"[-0.10809914197634815,0.04237129967384601]",100.0,"[0.02112624748110304,0.15796071738308134]",100.0,"[-0.18259897468992323,0.014113651358836708]",100.0,"[0.12940239870102166,-0.1301725453444502]",100.0,"[-0.08766023719290725,-0.03941869285629621]",4.0,"[0.006006821093037831,-0.1964894990643724]",100.0,"[0.11847990624948246,-0.04979572205169976]",4.0,"[0.06032161623722543,-0.12487025562540628]",4.0,"[0.11371924123705386,0.14077424504876287]",100.0,"[-0.14451576374780833,-0.03605884370238335]",4.0,"[0.005978243056859488,-0.040977557550001056]",4.0,"[-0.007741487488371188,-0.09992775171631885]",4.0,"[0.09378350556914404,-0.15075495739125278]",100.0,"[-0.06589430145984217,0.0013476932738048072]",100.0,"[0.02,0.02]",212.9047,0.0,9.0,9.0,61.0,1.0,,,,,,,
,,,,,,,65fae6b84fa6b3101d2ca4b1,684428b24eb99d202ec80e93,2025-06-07_17h28.08.771,shape_ratio,2024.1.5,Win32,59.88023952,684250e4f00cb30b92d1fa88,,,,,,,,,,,212.9053,213.4046,,,213.6556,215.1539,,,,,,,,,,,0.55,,,,,,213.4047,213.6555,215.1539,"[-0.1379125530569755,0.1389997385080533]",100.0,"[-0.17278217335465298,0.0782701272999583]",100.0,"[0.16403956724675486,-0.09088776400065776]",4.0,"[0.007319543680501582,-0.07262859893483332]",100.0,"[-0.05969459262470235,0.020233652100307597]",100.0,"[0.11977812077136493,-0.11395528511047326]",100.0,"[0.05569588419097587,0.07588510555027933]",100.0,"[-0.03429348046122391,0.14573387690614004]",4.0,"[-0.0017212149098669912,0.1738282249977626]",4.0,"[0.04905214512779791,-0.009856053419821521]",100.0,"[0.06767935470304959,-0.1519209372539964]",100.0,"[0.09516342510786173,-0.06137614559587333]",4.0,"[0.11436544490482037,-0.020005912578030263]",100.0,"[0.18338796818094186,0.03275013338168343]",100.0,"[-0.040481554693420393,-0.09237910947038058]",4.0,"[0.16173789332288813,-0.02915874807737982]",4.0,"[0.0004674260777313654,-0.15806810532754453]",4.0,"[0.1333760422806802,0.05641344646534521]",100.0,"[0.07975273217861711,0.16091785752639076]",100.0,"[-0.1380219215439647,-0.034425255437410894]",100.0,"[-0.024318670662496565,-0.1934480712902827]",100.0,"[-0.055154617897742605,-0.13268410721860047]",4.0,"[-0.026572029083027807,-0.007097624872473396]",100.0,"[-0.0567519403510557,-0.05471114011638171]",4.0,"[-0.18350755726156925,-0.037892773996382696]",4.0,"[0.003015174692678076,0.09375191545011026]",4.0,"[-0.1021164089416184,0.09459842790488511]",100.0,"[-0.08121053516711373,0.16243902299029095]",4.0,"[-0.13409194529884239,0.02851470292010616]",4.0,"[-0.09704727218303723,-0.062084976318911286]",100.0,"[0.1715444887759698,0.10136266573318048]",100.0,"[0.057209689008869746,-0.10628828953128806]",4.0,"[0.02,0.02]",216.2533,0.0,10.0,10.0,86.0,1.0,,,,,,,
,,,,,,,65fae6b84fa6b3101d2ca4b1,684428b24eb99d202ec80e93,2025-06-07_17h28.08.771,shape_ratio,2024.1.5,Win32,59.88023952,684250e4f00cb30b92d1fa88,,,,,,,,,,,216.2537,216.7534,,,217.0034,218.5027,,,,,,,,,,,0.9,,,,,,216.7534,217.0034,218.5028,"[-0.136231993748573,-0.060405794633319666]",100.0,"[0.17664363542032424,0.001628147888501738]",100.0,"[-0.08708151315257075,-0.15012376502075733]",4.0,"[-0.15621598019282643,0.04284940385191357]",100.0,"[0.01956896335763517,0.14010018779140976]",100.0,"[0.024978758622178406,0.08831924561760489]",100.0,"[0.14606901032206446,-0.024267664266890754]",100.0,"[-0.09461397594283161,0.1700275531963773]",100.0,"[0.10068527703335121,-0.04633769033390748]",100.0,"[-0.046508181911907476,0.17539247596206045]",100.0,"[0.11900015476077373,0.03295933184824666]",100.0,"[-0.07523176471246516,-0.038936155963413786]",4.0,"[0.10036759046865742,-0.1448263468635783]",100.0,"[-0.1912727030715844,-0.01849749195223232]",100.0,"[-0.1386091449678675,-0.019725816476399382]",100.0,"[0.13354968585822025,-0.08662929574751277]",100.0,"[-0.07030398664217,0.049530228190810134]",4.0,"[-0.029730573492325562,-0.19398846053961408]",100.0,"[-0.17813396777586082,-0.07138744121244969]",100.0,"[0.0015674507882215407,-0.03230097491507046]",100.0,"[0.16256964468550492,0.07090512139182834]",100.0,"[0.07192772820698952,0.11782627155622907]",100.0,"[-0.040991939506547184,-0.14916019805828704]",100.0,"[-0.08872520426640262,-0.00018421939664909582]",100.0,"[0.06742008862399748,0.048851321203911245]",100.0,"[0.09055159272871006,0.15947706272087636]",100.0,"[-0.1486466577463739,0.08309224052396444]",100.0,"[0.06717168992778584,-0.11424749907151016]",100.0,"[-0.028404924592702635,0.00032318550560298903]",100.0,"[0.04906876100179541,-0.021911293747205893]",100.0,"[-0.05524863748703398,0.12100512324219904]",100.0,"[-0.1092784786822641,0.10657477002251363]",100.0,"[0.02,0.02]",219.602,0.0,11.0,11.0,0.0,1.0,,,,,,,
,,,,,,,65fae6b84fa6b3101d2ca4b1,684428b24eb99d202ec80e93,2025-06-07_17h28.08.771,shape_ratio,2024.1.5,Win32,59.88023952,684250e4f00cb30b92d1fa88,,,,,,,,,,,219.6022,220.1016,,,220.3526,220.6184,left,0.2501,,,,,,,,,0.1,,,,,,220.1016,220.3525,220.6184,"[-0.04117580267562213,-0.1327867391507606]",4.0,"[0.05974954161490564,-0.13188345421071312]",4.0,"[-0.0920965242679614,0.16935824776440286]",4.0,"[0.12769535474680757,-0.14814980213370119]",4.0,"[0.07896858481356396,0.09933691678524109]",4.0,"[0.13022455058986104,0.12106474989622915]",100.0,"[-0.06895306301707135,0.0775340314752442]",4.0,"[-0.15068238256107075,0.009482990589829335]",4.0,"[-0.06809886648448915,-0.05571855763687243]",4.0,"[-0.008058086197942082,0.1257429062454483]",4.0,"[0.0650073726692337,-0.031361593692789416]",4.0,"[-0.005972768090641051,-0.10278637371970432]",4.0,"[-0.05135988646557375,0.15499126193891877]",100.0,"[-0.05516036958922847,0.003942438692220549]",100.0,"[0.08044716667196264,0.17627531995743914]",4.0,"[0.020461438478210588,-0.1639495910559962]",4.0,"[0.13058310671639276,-0.09246928318250633]",4.0,"[-0.08884602907812277,-0.17540628624149723]",4.0,"[0.013421281334743407,-0.01540172241646672]",4.0,"[0.037620757562817554,0.07328236353959391]",4.0,"[0.19306618523770988,-0.0008351375466231118]",4.0,"[0.1631809639750664,-0.061073288642577134]",4.0,"[-0.12257764772396651,0.05872679212417834]",4.0,"[0.1512883367976564,0.03761973475184547]",4.0,"[-0.0351989404062007,0.04144514401374752]",4.0,"[0.10074155608180994,0.01933181446597166]",4.0,"[0.019667465393179012,0.02820806857633468]",4.0,"[-0.1657274487302091,0.10835587246796731]",4.0,"[-0.18112125543853883,-0.02082573197946506]",4.0,"[0.10937010025562849,-0.03591239840734656]",4.0,"[0.02071384303147069,0.155444268427681]",4.0,"[-0.166730774000448,-0.10912861652239754]",4.0,"[0.02,0.02]",221.7183,0.0,12.0,12.0,189.0,1.0,,,,,,,
,,,,,,,65fae6b84fa6b3101d2ca4b1,684428b24eb99d202ec80e93,2025-06-07_17h28.08.771,shape_ratio,2024.1.5,Win32,59.88023952,684250e4f00cb30b92d1fa88,,,,,,,,,,,221.7187,222.2177,,,222.4682,223.2841,right,0.8005,,,,,,,,,0.4,,,,,,222.2177,222.4682,223.2842,"[0.02895381205735815,0.1589069406363005]",100.0,"[0.04110245161755022,0.003015747414683247]",4.0,"[-0.1787800844011999,0.010487194140753536]",4.0,"[0.021253201498324433,0.11113336648922925]",4.0,"[-0.05242878699753103,-0.13701466457728195]",100.0,"[-0.02258767966565134,-0.023598491341847782]",100.0,"[0.08304921926781593,-0.10578865100135858]",4.0,"[0.06435739976595531,0.05376162376182477]",4.0,"[0.08618442390327752,0.17316072750080486]",100.0,"[0.15825572540333635,-0.0719193403761746]",4.0,"[0.09732808103819221,-0.15551039840894115]",100.0,"[-0.12635330948159643,0.01444601757307567]",4.0,"[-0.18351816549080727,-0.03966558143763651]",4.0,"[0.04697530497460369,-0.18324540696488523]",100.0,"[-0.1039357491279728,0.10032152195036396]",4.0,"[0.025786998294314523,-0.13295487611542206]",4.0,"[-0.004716802505020935,-0.078665435726044]",4.0,"[0.1338990957262152,-0.011868315744722425]",4.0,"[-0.113688408311985,-0.1550238920761891]",100.0,"[-0.09679353587742016,0.163944076048782]",4.0,"[0.005515151947706607,-0.18935178528715027]",100.0,"[-0.04931668948721391,-0.06488577388948943]",4.0,"[-0.026261860012452228,0.12909300042474328]",4.0,"[0.08941724060803412,-0.0558901173623201]",100.0,"[0.12501607691237762,0.15208940081309544]",100.0,"[-0.020007016586067877,0.03949301069385983]",100.0,"[-0.13390670027866755,-0.06926442014878648]",100.0,"[-0.1579679021413074,0.10925088800461645]",4.0,"[0.12408712166621201,-0.10766579432964239]",4.0,"[-0.1342277972996134,-0.028061384206967344]",100.0,"[0.11482507230200689,0.030328130008785373]",4.0,"[0.07321141178377265,0.11442863420733873]",4.0,"[0.02,0.02]",224.384,0.0,13.0,13.0,154.0,1.0,,,,,,,
,,,,,,,65fae6b84fa6b3101d2ca4b1,684428b24eb99d202ec80e93,2025-06-07_17h28.08.771,shape_ratio,2024.1.5,Win32,59.88023952,684250e4f00cb30b92d1fa88,,,,,,,,,,,224.3844,224.8838,,,225.1337,225.8172,left,0.6573,,,,,,,,,0.55,,,,,,224.8839,225.1336,225.8173,"[0.11557564616764646,0.007469536269557087]",100.0,"[-0.13862119635270648,-0.08649764415193867]",100.0,"[-0.07297441603448213,0.11231309857270913]",100.0,"[-0.05448126896209697,-0.07168702506995091]",100.0,"[-0.03174614082485321,-0.12540112485757143]",100.0,"[0.100855361593359,-0.05177037027629409]",4.0,"[0.07689931182006905,-0.14640131699100895]",4.0,"[-0.12619203266335538,0.002775279570346379]",100.0,"[0.11975693278811043,0.060676293291749894]",100.0,"[-0.05955404105682003,0.006313219026567925]",4.0,"[0.14126758947303403,-0.0851347928632665]",100.0,"[0.018263835290319785,0.09683596607930282]",100.0,"[-0.011159887483196159,-0.08394652882037305]",4.0,"[0.06568660815332227,0.12287788881625454]",4.0,"[-0.0076412770403807345,-0.030758654558330017]",100.0,"[-0.17803170353843525,-0.06079494819634315]",4.0,"[0.15090028270271974,0.11522305631853955]",4.0,"[-0.11103036154213435,0.04099940030783734]",4.0,"[0.021340209291636665,-0.18766931610680385]",4.0,"[-0.18764473083672525,0.06309157327216526]",100.0,"[0.04654192121788938,-0.03652561727313146]",4.0,"[-0.031916623287607616,0.10392686917863414]",4.0,"[0.08400126222143285,0.03848111550152434]",100.0,"[0.04577595968664795,0.06545758505291599]",4.0,"[0.17995729159246981,0.04903884896724498]",100.0,"[-0.12127207644579469,0.14640522531424086]",100.0,"[0.07037708050288888,0.1800594769642502]",4.0,"[-0.019856908433950913,0.16251441333972244]",4.0,"[0.09773896320384369,-0.09204060550366269]",100.0,"[0.0057876048357492355,0.03508462385930532]",100.0,"[-0.06609754791405566,0.15804405230377874]",100.0,"[-0.17378857654537863,0.021004795378677988]",100.0,"[0.02,0.02]",226.9163,0.0,14.0,14.0,62.0,1.0,,,,,,,
,,,,,,,65fae6b84fa6b3101d2ca4b1,684428b24eb99d202ec80e93,2025-06-07_17h28.08.771,shape_ratio,2024.1.5,Win32,59.88023952,684250e4f00cb30b92d1fa88,,,,,,,,,,,226.9165,227.4163,,,227.6667,228.1158,right,0.4437,,,,,,,,,0.9,,,,,,227.4163,227.6667,228.1158,"[0.004963835592175746,-0.05720065505249552]",100.0,"[-0.0071424755870606645,0.16193364385305864]",100.0,"[-0.16929544159003979,-0.0951539007544406]",4.0,"[0.0712902089397708,0.15849242881024903]",100.0,"[-0.056516557258410635,0.17952564779994573]",100.0,"[0.1014334562022798,0.1291968119524256]",100.0,"[0.1619392699866377,-0.05963032172663327]",100.0,"[0.16907143615433673,0.0975542870869418]",100.0,"[-0.11240176539830103,-0.02778985004144567]",4.0,"[0.09458522409014997,-0.10559708801716489]",100.0,"[-0.07494106891232932,-0.09930779558321699]",100.0,"[0.0810464393859305,0.004021326838033354]",100.0,"[0.1084600951577471,0.05681040054099061]",100.0,"[-0.16478430076756562,0.019804840120622426]",100.0,"[-0.0701290625332817,0.018697001429000836]",100.0,"[-0.11174717319343723,0.08458728594007796]",4.0,"[-0.05217715863882336,0.11999982515472146]",100.0,"[0.057955854670037506,-0.05086956342495013]",100.0,"[0.010002645262758606,-0.11565556511228278]",100.0,"[-0.04324657635787018,-0.17898202141171402]",100.0,"[0.051336874402568455,0.0951575504221169]",100.0,"[-0.1826407027491792,0.07158605471953884]",100.0,"[-0.03537592414261939,0.07833818922470027]",100.0,"[0.1819754344481809,0.04250989370553904]",100.0,"[0.18443842763018123,-0.0017805864677140114]",100.0,"[-0.05246293478702087,-0.028026881066454647]",100.0,"[0.025624960325786615,-0.18299227411640007]",100.0,"[0.08635799721874998,-0.14844446781461076]",100.0,"[0.044324328171077204,0.03897789647035118]",100.0,"[0.12426657191328594,-0.03610147766505116]",100.0,"[-0.1415096837378788,-0.05713525495372522]",100.0,"[0.03462830854051977,0.19524413921062644]",100.0,"[0.02,0.02]",229.2157,0.0,15.0,15.0,8.0,1.0,,,,,,,
,,,,,,,65fae6b84fa6b3101d2ca4b1,684428b24eb99d202ec80e93,2025-06-07_17h28.08.771,shape_ratio,2024.1.5,Win32,59.88023952,684250e4f00cb30b92d1fa88,,,,,,,,,,,229.2162,229.7156,,,229.9661,230.5034,right,0.517,,,,,,,,,0.4,,,,,,229.7157,229.9661,230.5034,"[0.18321770536156212,0.07971485829747296]",100.0,"[-0.050135086396690065,-0.1812987197361843]",100.0,"[0.10341357271660259,0.10005109218486949]",4.0,"[0.15473617279406252,-0.11033760604859089]",4.0,"[-0.04983492821275089,0.0906249043317852]",100.0,"[0.022570977784662674,0.014487375194808989]",4.0,"[0.19244979209135837,-0.0077814295540137]",4.0,"[0.03482501582326131,0.1433222640070512]",100.0,"[-0.06637056409010547,-0.051621663184510544]",100.0,"[0.01804125164325911,-0.13197634764180213]",4.0,"[-0.061676048091498153,-0.09578806738318657]",100.0,"[-0.11265555840488783,-0.10757205272427961]",4.0,"[0.1701547372207203,-0.07084515525862782]",4.0,"[0.05784445452590061,0.17866767778794243]",4.0,"[-0.05455359650251372,0.14817753509322087]",4.0,"[0.07257498964968638,-0.04883850428468105]",4.0,"[-0.018428064776513257,-0.08526346917198827]",4.0,"[-0.18904349160022643,0.04649394097605773]",100.0,"[-0.1876168460191126,0.000337862298508161]",100.0,"[-0.102702425498687,0.14093302795256113]",4.0,"[0.13141001943001412,0.060766082315263294]",4.0,"[0.08378476498949611,0.009791166102564251]",100.0,"[-0.11713586642949315,-0.041512393050404744]",100.0,"[-0.0001536165435616625,-0.04860362862150431]",4.0,"[0.11505379956095983,-0.08962675514501067]",4.0,"[-0.003974929319754678,0.12022556643496579]",4.0,"[0.12756561444690928,-0.05033674736821351]",4.0,"[0.0465615469844203,0.09781993468019277]",100.0,"[0.09291041255925497,-0.13877074837910625]",100.0,"[0.037250761474839675,-0.17293177952278163]",100.0,"[-0.13824530047035077,0.059227395870966516]",4.0,"[-0.07390748187100812,0.058477320640800155]",4.0,"[0.02,0.02]",231.6038,0.0,16.0,16.0,164.0,1.0,,,,,,,
,,,,,,,65fae6b84fa6b3101d2ca4b1,684428b24eb99d202ec80e93,2025-06-07_17h28.08.771,shape_ratio,2024.1.5,Win32,59.88023952,684250e4f00cb30b92d1fa88,,,,,,,,,,,231.604,232.103,,,232.3533,232.8185,left,0.4485,,,,,,,,,0.55,,,,,,232.103,232.3533,232.8185,"[-0.04451946732145525,0.15848412496402386]",100.0,"[-0.05312031349356815,0.11564450338902915]",4.0,"[-0.05317626035547563,-0.18865732985379072]",4.0,"[-0.06805448005870796,-0.12422917558399486]",100.0,"[0.08125656787357101,0.10116460276861394]",4.0,"[-0.19140226615370423,-0.0017906999044258742]",100.0,"[0.023678777337670237,0.12298631007459444]",4.0,"[0.11805972487615594,-0.0325294426472081]",4.0,"[-0.1540594276926247,0.11115819556882112]",4.0,"[0.04057378236726255,0.18015087121163514]",4.0,"[0.02971910862409555,-0.16323214535095318]",100.0,"[0.1265236828479643,0.14818457940802263]",100.0,"[-0.0722532888509016,-0.04680052416348933]",100.0,"[0.17104185798047639,0.0893367798584361]",4.0,"[0.11816233575321632,-0.14450529478926005]",4.0,"[-0.16960253125539027,0.054580183993270324]",4.0,"[0.18417790819126306,-0.06081787468775259]",4.0,"[-0.0003313666434022615,-0.12418553089012162]",100.0,"[0.01977387940292232,-0.08203891036572537]",4.0,"[0.16577454975703093,-0.10999264221776221]",100.0,"[0.02865958214070535,0.07536848839552056]",100.0,"[0.13978643253422607,0.027266724179258767]",100.0,"[-0.04548011538646852,-0.01636187065321787]",100.0,"[0.004799754331076976,0.1591159104697881]",100.0,"[0.05621061117036853,-0.020371748324700924]",100.0,"[-0.014193856752858974,0.06455789436825751]",100.0,"[-0.15139633031995475,-0.05376611007367916]",100.0,"[-0.11131375234973664,0.03713561214155766]",4.0,"[-0.069717116607935,0.06059580840513279]",4.0,"[-0.10132108909020865,-0.08249832354577524]",100.0,"[-0.0331575169493238,-0.07400376556600921]",100.0,"[0.15980589091778913,-0.014356555369491491]",100.0,"[0.02,0.02]",233.9178,0.0,17.0,17.0,72.0,1.0,,,,,,,
,,,,,,,65fae6b84fa6b3101d2ca4b1,684428b24eb99d202ec80e93,2025-06-07_17h28.08.771,shape_ratio,2024.1.5,Win32,59.88023952,684250e4f00cb30b92d1fa88,,,,,,,,,,,233.918,234.4177,,,234.6677,235.301,left,0.6171,,,,,,,,,0.6,,,,,,234.4177,234.6677,235.3011,"[-0.1702311207206031,-0.03053025801365741]",4.0,"[0.050753331990356663,-0.16979728126966184]",100.0,"[-0.1255116051104402,0.04889759370864592]",4.0,"[0.1183924123718487,-0.036856151912121014]",4.0,"[0.07355739041422626,-0.08507439793707926]",100.0,"[-0.15396981511635596,0.0987957974930027]",100.0,"[0.09159870525479134,-0.17241882398772623]",4.0,"[0.1596761642795548,-0.022581163827018545]",100.0,"[-0.07844495707991453,-0.11829076690944934]",4.0,"[-0.1331685870692225,-0.06503437038438431]",4.0,"[-0.10468439933802756,0.01254328231706832]",100.0,"[0.19365537229048746,0.04301171888029803]",100.0,"[0.15077867023305955,0.06417660764318424]",100.0,"[0.08093955998712207,0.03782469140617733]",4.0,"[0.06605202678573019,0.18301634205587392]",100.0,"[0.13145840111340962,-0.13382324863546638]",100.0,"[-0.07229817324050773,0.1056395906687196]",100.0,"[0.09831239262564334,0.1463822981488902]",4.0,"[-0.01598545664962846,0.053531505953390075]",100.0,"[0.020109298192712823,0.030838243608888136]",4.0,"[0.17597879055320628,-0.07644988866919204]",100.0,"[-0.08291327266596647,-0.15914101596766195]",100.0,"[-0.024975373800070422,-0.09969091880982729]",4.0,"[-0.031629446495137874,-0.17456056441941925]",100.0,"[0.019711490491196373,-0.10285945284920865]",100.0,"[-0.1892372541179554,0.029836926556635834]",100.0,"[0.03368518826487203,-0.05389722843868128]",4.0,"[0.021911072573352057,0.08120878036983917]",100.0,"[-0.06153905430948614,-0.007889596724236893]",100.0,"[-0.0041457164049654065,0.11807023522397904]",4.0,"[0.08365222923429269,-0.013327963680318251]",100.0,"[-0.06909465064642316,0.18182388877129974]",4.0,"[0.02,0.02]",236.4,0.0,18.0,18.0,56.0,1.0,,,,,,,
,,,,,,,65fae6b84fa6b3101d2ca4b1,684428b24eb99d202ec80e93,2025-06-07_17h28.08.771,shape_ratio,2024.1.5,Win32,59.88023952,684250e4f00cb30b92d1fa88,,,,,,,,,,,236.4004,236.9001,,,237.1516,237.5999,left,0.4322,,,,,,,,,0.9,,,,,,236.9001,237.1516,237.6,"[-0.17361491002903148,0.06646249712183164]",100.0,"[0.11323377014164084,0.0605631057594744]",100.0,"[-0.0784422183339438,-0.028946439587627555]",100.0,"[0.00509052775881544,0.07021494226292048]",100.0,"[-0.1272112218198992,-0.12484863279883784]",4.0,"[0.007188358965759078,0.027654554282407366]",100.0,"[-0.009594212006964541,-0.10664785556908883]",100.0,"[0.023428186223369528,-0.08172967626319504]",100.0,"[0.11578696582404079,0.15617959201890627]",100.0,"[0.06502112655692435,-0.04682956831882459]",100.0,"[0.09838868786224889,0.11435397195548155]",100.0,"[-0.11371105940089624,0.13235201780579023]",100.0,"[-0.09231756111696196,0.08826991835258918]",100.0,"[-0.13407843452295284,0.04909506200466752]",100.0,"[-0.018845769753952055,0.17267416069428282]",100.0,"[0.035341879284812625,-0.13032610747360826]",100.0,"[0.14255008492611707,0.1264275292749067]",100.0,"[0.08507813765599222,-0.0906257222075374]",4.0,"[-0.1357000959315416,-0.03267282753058738]",100.0,"[-0.05638588133471726,-0.1338347063976966]",100.0,"[0.048689854672697264,0.1352010918094404]",100.0,"[-0.1939363256805869,-0.0386334411562432]",100.0,"[0.04820361249984168,0.17829020969976012]",100.0,"[-0.015938022614077483,-0.007573103616565086]",4.0,"[-0.09815197673963486,0.013545869051541131]",100.0,"[0.1458609312216375,0.017071037298587177]",100.0,"[0.007081634541571301,0.1229645421738799]",100.0,"[0.07160810195816601,-0.002770877026562821]",100.0,"[-0.07907705345307249,-0.1740118010730334]",100.0,"[0.06749570274760139,-0.18648624409496536]",100.0,"[-0.07688319081929439,0.16991767676362762]",100.0,"[-0.16140874598190136,0.00806699263254934]",100.0,"[0.02,0.02]",238.6995,0.0,19.0,19.0,14.0,1.0,,,,,,,
,,,,,,,65fae6b84fa6b3101d2ca4b1,684428b24eb99d202ec80e93,2025-06-07_17h28.08.771,shape_ratio,2024.1.5,Win32,59.88023952,684250e4f00cb30b92d1fa88,,,,,,,,,,,238.6998,239.2006,,,239.4492,240.1508,right,0.6847,,,,,,,,,0.9,,,,,,239.2006,239.4492,240.1508,"[-0.011008264281198294,0.0120668412248306]",4.0,"[-0.14039268889751186,0.024210264359942543]",100.0,"[0.07580662723849078,-0.09083590154136184]",100.0,"[-0.07269915712655882,-0.09941190275878724]",100.0,"[0.033609014615907956,0.07054117089216863]",100.0,"[0.138484509151363,-0.05724929794317596]",100.0,"[-0.09934903385644098,-0.006853661387999039]",100.0,"[-0.11588656435116679,0.05886717934610163]",100.0,"[-0.16294357594158684,-0.0594308084043709]",100.0,"[-0.06055227038778741,0.10899596531121636]",100.0,"[-0.12951384054154563,0.13457073362328656]",4.0,"[0.12614209017853784,0.06134896667869419]",100.0,"[-0.1736031179371116,0.06476003161565157]",100.0,"[0.11705481368918513,-0.11208264216927065]",100.0,"[-0.19586306087213537,0.02408154213424311]",100.0,"[0.053439725043079964,0.13738110624134192]",100.0,"[0.045017322976383896,0.015447664014356191]",100.0,"[0.04312045579909365,-0.12627118831555645]",100.0,"[0.047108277063661746,-0.18488770671922064]",100.0,"[-0.00335427085840107,-0.16591173482270635]",4.0,"[-0.09482440950794535,-0.15586322906704286]",100.0,"[-0.022592436704153618,0.051129318152878994]",100.0,"[-0.041268063073745684,-0.1902115884895519]",100.0,"[0.16336221886756486,-0.016296509962138266]",100.0,"[0.08917579800851298,0.1000381441635634]",100.0,"[0.0009616638610112268,-0.08384704850572068]",100.0,"[-0.05122851190547342,-0.05277069149167137]",100.0,"[0.01582851884900433,0.17827322580318664]",100.0,"[-0.14851584340437107,-0.09832959694326246]",100.0,"[-0.10935248675196609,-0.07083393899137401]",100.0,"[-0.06179930032151208,0.1794378220117493]",100.0,"[0.07502231586790793,-0.03500730727271039]",100.0,"[0.02,0.02]",241.2489,0.0,20.0,20.0,5.0,1.0,,,,,,,
,,,,,,,65fae6b84fa6b3101d2ca4b1,684428b24eb99d202ec80e93,2025-06-07_17h28.08.771,shape_ratio,2024.1.5,Win32,59.88023952,684250e4f00cb30b92d1fa88,,,,,,,,,,,241.2493,241.7491,,,241.9986,243.4997,,,,,,,,,,,0.4,,,,,,241.7491,241.9985,243.4997,"[0.06395971924450322,-0.10784717995567486]",100.0,"[0.11609097804756607,0.08104028149754891]",100.0,"[-0.09439846026241301,-0.13550619399009492]",100.0,"[0.11791783274499426,-0.03714072955954991]",100.0,"[-0.059706571619679745,0.009191396289644447]",100.0,"[0.026748972123972058,-0.16467830888234558]",100.0,"[-0.01668349365807155,0.0964186812278052]",100.0,"[-0.1244320930092689,0.1450662461259426]",100.0,"[0.18645286827536373,-0.028520154481947224]",100.0,"[-0.17980693122794694,-0.06810242185759559]",4.0,"[-0.03647244377231247,-0.17476610209781718]",4.0,"[-0.020048550616451975,0.031430266862279455]",4.0,"[0.08344563865071332,0.02165920992384379]",4.0,"[0.11385393615927383,0.15622073180300214]",4.0,"[0.06703983584693149,-0.06009616190002288]",4.0,"[-0.034971279532661534,-0.05602704484622078]",4.0,"[0.019265149177784373,0.003391174925057537]",4.0,"[-0.07876627913685537,-0.058773881725714135]",4.0,"[0.15701421351629186,0.06943325410927075]",100.0,"[-0.005285475469255725,0.16365734542447943]",4.0,"[-0.1171699051886635,0.06294550671667702]",4.0,"[0.03432070635571058,0.04963757055234567]",100.0,"[0.07401902201487219,0.07574821639760895]",4.0,"[-0.15561701419356203,0.09045634691151645]",4.0,"[0.11835392606626999,-0.11538704237036956]",100.0,"[0.10142213908432078,-0.155459850482314]",4.0,"[0.007013098565724557,-0.06236957418082909]",4.0,"[0.0574542871621974,0.1662470523799629]",4.0,"[-0.0583607490124303,-0.09584741597857384]",100.0,"[-0.1205082438861119,-0.04433127781714915]",4.0,"[-0.15402612883681038,-0.11935326490892034]",4.0,"[-0.048446091421104294,-0.13640981715047953]",4.0,"[0.02,0.02]",244.5991,0.0,21.0,21.0,179.0,1.0,,,,,,,
,,,,,,,65fae6b84fa6b3101d2ca4b1,684428b24eb99d202ec80e93,2025-06-07_17h28.08.771,shape_ratio,2024.1.5,Win32,59.88023952,684250e4f00cb30b92d1fa88,,,,,,,,,,,244.5993,245.099,,,245.3485,246.8472,,,,,,,,,,,0.45,,,,,,245.0991,245.3485,246.8472,"[-0.05876090294757381,-0.11103454624980814]",100.0,"[-0.11097767793849997,-0.002289919845970473]",4.0,"[-0.19045200645542315,0.034571579239628704]",4.0,"[-0.06728782752601473,0.1289432209663557]",4.0,"[-0.07037426276360716,0.020137171699751752]",100.0,"[-0.021845134313510185,-0.03042366011887033]",100.0,"[-0.18839704330437854,-0.012682655916404321]",100.0,"[0.11191473158888406,-0.1373956678788856]",4.0,"[0.03600109208055931,-0.18546290473412805]",4.0,"[-0.06869993237533671,-0.02245690479382417]",4.0,"[0.06251238423403636,-0.14880140755618396]",100.0,"[-0.1459182987555376,-0.028846596998138414]",4.0,"[0.18394694562823397,-0.0033295654257415523]",4.0,"[0.1170130330388111,0.12467813306425508]",100.0,"[0.022164647841728276,-0.1023296022967418]",100.0,"[-0.015157035249236216,-0.1651518945104686]",4.0,"[0.11819814851258863,-0.01282586416646271]",100.0,"[0.01144059837155693,0.13034171573946282]",100.0,"[0.09095120496340049,-0.06531882279226225]",100.0,"[0.1201533813403406,0.07167972129218866]",4.0,"[0.06600829175534376,0.03240932201638429]",4.0,"[0.17386967382009066,-0.09659573485887857]",4.0,"[0.027500059574196052,0.06818423280194723]",4.0,"[-0.16523701535642074,0.07332227955136712]",4.0,"[-0.05571876133630956,0.08906687093191362]",100.0,"[0.16199805709322096,-0.04283996475549582]",100.0,"[-0.024613704343935734,0.020848220316235976]",4.0,"[0.15691801742765588,0.11966487383384874]",4.0,"[0.17938606714696329,0.0587341513215752]",100.0,"[-0.09544170195933945,-0.053193111009917526]",100.0,"[-0.03695382210872702,0.1805319549890576]",4.0,"[0.055225387230728465,0.16660464625989882]",4.0,"[0.02,0.02]",247.9478,0.0,22.0,22.0,139.0,1.0,,,,,,,
,,,,,,,65fae6b84fa6b3101d2ca4b1,684428b24eb99d202ec80e93,2025-06-07_17h28.08.771,shape_ratio,2024.1.5,Win32,59.88023952,684250e4f00cb30b92d1fa88,,,,,,,,,,,247.948,248.4461,,,248.697,248.9478,left,0.2337,,,,,,,,,0.6,,,,,,248.4461,248.697,248.9478,"[0.1645574092332738,0.07212648228373503]",4.0,"[0.0730261311004691,-0.1117918644624195]",4.0,"[0.03694476180768838,0.1951945546796418]",100.0,"[0.08987183011168391,0.02293878993692286]",100.0,"[-0.10372018794400209,0.13631249139314672]",100.0,"[-0.10735960976856564,-0.07486219969859687]",4.0,"[0.08431552673349532,0.15412107356032806]",100.0,"[-0.031524268084895876,-0.03856483647467967]",4.0,"[0.14819657507160208,0.12614700441328203]",4.0,"[0.03534657714110587,-0.13860589916912386]",4.0,"[-0.05590964753584812,-0.18482437043897465]",100.0,"[-0.09006742796209936,-0.14379072699416554]",100.0,"[-0.1005903798446634,0.036486923720575576]",4.0,"[-0.061572430003376366,0.004828004766415164]",4.0,"[-0.13467479719507422,-0.042249190795937884]",100.0,"[-0.015093902124952,0.0022609277972318554]",100.0,"[0.13001694321919968,0.027421437833623084]",100.0,"[-0.016708821142335784,0.07059520501408714]",4.0,"[-0.13604649393414042,-0.10292732246465926]",100.0,"[-0.12504054193577352,0.09426506530616721]",4.0,"[0.03478843594015606,0.0118446804999861]",4.0,"[-0.03216670297287297,-0.12723727368816376]",100.0,"[-0.015365249646315205,-0.1812861331806922]",100.0,"[0.09051627964006408,-0.16257373162966535]",4.0,"[-0.02714387112738441,0.15504097035318662]",100.0,"[0.053966097068468374,-0.05205583594770273]",100.0,"[0.19024581115066694,-0.012182737335355664]",4.0,"[0.04583540425839786,0.09095047438291426]",100.0,"[0.1944472904210269,0.044165277650889734]",100.0,"[-0.06302927438041069,0.1245278256163294]",100.0,"[0.11907868293017639,-0.08946042233421105]",100.0,"[0.1613387321089767,-0.08307951291586002]",100.0,"[0.02,0.02]",250.0465,0.0,23.0,23.0,30.0,1.0,,,,,,,
,,,,,,,65fae6b84fa6b3101d2ca4b1,684428b24eb99d202ec80e93,2025-06-07_17h28.08.771,shape_ratio,2024.1.5,Win32,59.88023952,684250e4f00cb30b92d1fa88,,,,,,,,,,,250.0468,250.547,,,250.7963,251.0952,left,0.282,,,,,,,,,0.9,,,,,,250.5471,250.7963,251.0952,"[0.14315338869003438,0.05044763370805102]",100.0,"[0.06450249875393434,0.15018288180924144]",100.0,"[-0.0010508061608676276,0.026997576636857912]",100.0,"[0.12071393087609861,0.000005706421354219286]",100.0,"[-0.02568499144088166,-0.028600885884489637]",100.0,"[0.02834655824901596,0.09055190384497118]",100.0,"[-0.12370748215583315,0.037397505852582356]",100.0,"[-0.12041555903271244,-0.09564605060764937]",100.0,"[0.07439337009187759,0.052199708061983395]",100.0,"[0.04799288222660423,-0.17375801558277154]",100.0,"[0.14638162688164147,-0.1197407949212222]",100.0,"[0.16312677931841352,-0.05189829305798582]",100.0,"[-0.18661037682434364,-0.038477520832886025]",4.0,"[0.025234348418187752,-0.07876070103412572]",100.0,"[-0.06713989923317386,-0.06573557907647536]",100.0,"[-0.12115786436070311,-0.14809753108044982]",100.0,"[0.00293780519873256,0.14152585560010872]",100.0,"[-0.028315185176167462,-0.18246535465680025]",4.0,"[-0.09567634839669728,0.10292914687510589]",100.0,"[0.17748147535350217,0.0721217736609834]",100.0,"[0.14152964311137128,0.09511542595407793]",100.0,"[0.11691424629294202,0.12844113647065614]",4.0,"[-0.06324681983495163,0.0130248857942547]",100.0,"[0.0637694390696812,-0.04231215149840795]",100.0,"[-0.03622212554819835,0.15650080428588675]",100.0,"[-0.044249810827281535,0.08317384260840562]",100.0,"[-0.06043600979333275,-0.1412005892728981]",100.0,"[-0.16057830839334672,0.0745882515514346]",100.0,"[-0.13558320665498508,-0.04732087136826699]",100.0,"[-0.0015325357868949902,-0.11291953006803172]",100.0,"[0.11313739478691963,-0.16422884445515287]",100.0,"[-0.08196048611303049,0.059201120233407324]",100.0,"[0.02,0.02]",252.1911,0.0,24.0,24.0,17.0,1.0,,,,,,,
,,,,,,,65fae6b84fa6b3101d2ca4b1,684428b24eb99d202ec80e93,2025-06-07_17h28.08.771,shape_ratio,2024.1.5,Win32,59.88023952,684250e4f00cb30b92d1fa88,,,,,,,,,,,252.1915,252.6913,,,252.9414,254.4408,,,,,,,,,,,0.6,,,,,,252.6913,252.9413,254.4408,"[0.1228934490559109,0.03537788809985926]",100.0,"[-0.02983657324231339,0.0943207841009691]",100.0,"[0.17047798383726515,0.10168233060111229]",4.0,"[0.07524827168882568,0.10747106145607634]",4.0,"[0.03792291243852144,-0.0886023456445019]",4.0,"[-0.19313917263609393,-0.046811608336301005]",4.0,"[0.08270187563978977,0.01270924331207754]",4.0,"[-0.0894660996024892,0.17581784007315313]",100.0,"[-0.13763265421337972,-0.1296501974972028]",100.0,"[-0.005131035696003967,-0.02685557641123888]",100.0,"[-0.1436709056582901,0.12150511543450626]",100.0,"[-0.000322197257934186,-0.18359770511729415]",100.0,"[0.17983101725606548,-0.04617437150928072]",100.0,"[0.09702662563684651,0.14682327679235044]",100.0,"[0.00586296027581083,0.029155327271189375]",100.0,"[0.11707821805276249,-0.11308049449980508]",4.0,"[0.11928497552662432,-0.055430242744851706]",4.0,"[-0.0817406084567341,0.06596489898175728]",4.0,"[-0.07325558790216025,-0.13422618021230123]",4.0,"[-0.053689863857715084,-0.00546600600921718]",100.0,"[-0.11066498483445353,0.013817161376255287]",4.0,"[-0.026061613888298724,-0.0796084716600333]",4.0,"[-0.01858324139226068,0.15832172454881704]",100.0,"[0.14012763115560029,-0.0020176574781701944]",4.0,"[0.025930397999820547,0.1395154353396211]",100.0,"[0.027805132145835885,0.09676054265486744]",4.0,"[0.03205970431250214,0.18952980056016808]",100.0,"[0.06819668131445297,-0.030955580695610475]",100.0,"[-0.09410269089866137,-0.09039250969849776]",100.0,"[0.16347554089470778,-0.11439666067512108]",100.0,"[0.10255146568778946,0.07549466161233033]",100.0,"[-0.10228583294911354,0.10338965956067578]",100.0,"[0.02,0.02]",255.5402,0.0,25.0,25.0,54.0,1.0,,,,,,,
,,,,,,,65fae6b84fa6b3101d2ca4b1,684428b24eb99d202ec80e93,2025-06-07_17h28.08.771,shape_ratio,2024.1.5,Win32,59.88023952,684250e4f00cb30b92d1fa88,,,,,,,,,,,255.5407,256.04,,,256.2903,256.5896,left,0.2878,,,,,,,,,0.4,,,,,,256.04,256.2901,256.5897,"[-0.13094979944403257,0.013394373212199164]",100.0,"[0.13033462494190548,0.12930695469628112]",4.0,"[-0.12547920804382903,-0.15343493392098492]",4.0,"[0.19591174089718436,0.012612323094095566]",100.0,"[0.08168104381366532,0.1820642093567833]",4.0,"[0.16055426226188557,-0.10536025003950554]",4.0,"[0.071412915554736,0.004686798312668883]",100.0,"[-0.04015606175378967,-0.02532927745644151]",4.0,"[0.021995555352577377,0.10551469030504423]",100.0,"[0.030888835947305498,-0.16183332441146195]",4.0,"[-0.04071421988719058,-0.14349066475465921]",4.0,"[0.09551048586225308,0.06276833410855064]",4.0,"[-0.09655181616641968,0.12285836739270241]",4.0,"[0.00446822314465256,-0.10190715248592062]",100.0,"[-0.005206726745867277,0.1720672207562878]",100.0,"[-0.01910110224537644,0.0190660553853734]",4.0,"[-0.022584069928099082,0.10084856122039765]",100.0,"[-0.10014154039261827,0.06680622854660578]",4.0,"[0.12167269649690696,-0.04910725723791718]",4.0,"[-0.08405921489864113,-0.011018919086560877]",4.0,"[-0.16228574888079883,-0.08683310407331479]",100.0,"[-0.1717416492979393,0.06240126137244555]",4.0,"[0.1610564239824949,0.03568493925058568]",100.0,"[0.13708867498406208,0.08945519138070555]",4.0,"[0.06945558097097008,-0.07667473016925157]",4.0,"[-0.03884180395760521,-0.09446776033835963]",100.0,"[0.09748654914303989,-0.13360716316322602]",4.0,"[0.02184074919894335,-0.0028524410442389986]",4.0,"[0.028763984947272368,0.1499451213578773]",100.0,"[0.05484686184994758,0.06213760631741027]",4.0,"[-0.14694765105828328,-0.038990122640537285]",100.0,"[-0.03460560296875249,0.05684660638852376]",100.0,"[0.02,0.02]",257.6894,0.0,26.0,26.0,166.0,1.0,,,,,,,
,,,,,,,65fae6b84fa6b3101d2ca4b1,684428b24eb99d202ec80e93,2025-06-07_17h28.08.771,shape_ratio,2024.1.5,Win32,59.88023952,684250e4f00cb30b92d1fa88,,,,,,,,,,,257.6899,258.1887,,,258.4396,258.6893,left,0.2344,,,,,,,,,0.5,,,,,,258.1888,258.4396,258.6894,"[-0.13338233466525803,-0.03750793606198121]",100.0,"[0.04794657800286281,0.15469639984288835]",100.0,"[0.04718724148233486,-0.013367896481967357]",4.0,"[0.18810568857550009,-0.04679817632096272]",100.0,"[0.09776832297621164,0.1256820287004573]",4.0,"[0.16611064554946536,-0.09891542101050001]",4.0,"[0.18394696259770646,0.021913067775152423]",100.0,"[0.1458923276656852,0.11722210439515168]",4.0,"[0.06390430496871605,-0.16932221746455525]",4.0,"[-0.09985469765367902,0.013923357133571124]",4.0,"[0.012632037479102865,-0.14188514019077034]",100.0,"[-0.008833195897985351,0.041672748634405524]",100.0,"[-0.06586413675657869,-0.13547837448861982]",100.0,"[-0.09442452003182418,-0.07403615962217402]",4.0,"[-0.1794600031914051,-0.0769311993539889]",100.0,"[0.14615558284611663,-0.015263179855307361]",4.0,"[0.06793986302482151,-0.07678494078445343]",100.0,"[-0.13473824548127797,0.12675892373309355]",4.0,"[-0.029956369803681403,0.13303843800120885]",100.0,"[0.11743568796845538,-0.05690466940233996]",100.0,"[-0.18793880007995473,0.016969956011646813]",100.0,"[-0.03473984147710955,-0.09812178308382621]",4.0,"[0.0031795843774805777,-0.08337001020453752]",100.0,"[-0.0027067126750782264,0.17241556660349663]",4.0,"[-0.02446221259228275,0.08883491324895121]",4.0,"[-0.1687200741281188,0.07364309461903824]",4.0,"[-0.055164517874409985,0.015862817564122826]",100.0,"[-0.03937481691822943,0.18949567851070093]",100.0,"[0.1416131155738182,0.04035573300960021]",100.0,"[0.1283387382353048,-0.13771808815986722]",4.0,"[-0.053485655691892155,-0.058381475194795016]",4.0,"[0.09823356222108401,-0.017722692109571853]",4.0,"[0.02,0.02]",259.7887,0.0,27.0,27.0,98.0,1.0,,,,,,,
,,,,,,,65fae6b84fa6b3101d2ca4b1,684428b24eb99d202ec80e93,2025-06-07_17h28.08.771,shape_ratio,2024.1.5,Win32,59.88023952,684250e4f00cb30b92d1fa88,,,,,,,,,,,259.789,260.2889,,,260.5387,260.6218,left,0.069,,,,,,,,,0.4,,,,,,260.2889,260.5387,260.6219,"[-0.09989759509774333,-0.03697147842023555]",100.0,"[-0.07771238486779813,-0.17567344289904022]",4.0,"[-0.19349264669509167,-0.03866617553970381]",100.0,"[-0.06279735704856503,-0.11802074843351654]",4.0,"[0.07097956423359834,0.18436711585401008]",100.0,"[0.10956145724047806,-0.06999666759707324]",4.0,"[-0.054901642327731454,0.1897591982511988]",100.0,"[-0.1785347516368802,0.04116435144116442]",100.0,"[-0.034842784123045235,0.13198579945786526]",4.0,"[0.18302236647645684,-0.029921776878383394]",100.0,"[0.003069450235963981,-0.1770857639897938]",4.0,"[0.0019700023109860795,-0.075311943046349]",4.0,"[0.1344632134599521,-0.018634841510213877]",100.0,"[0.014307471116865497,-0.013937683100308905]",100.0,"[-0.10492594251423694,-0.0792876087007708]",4.0,"[0.07488165449698643,-0.04129824777204967]",4.0,"[0.1540975782543354,0.11381226780135559]",100.0,"[0.10133399218407328,0.07197304338043863]",4.0,"[0.030409965647911496,-0.13790369900975072]",4.0,"[0.03025820001045641,0.16002098588269476]",4.0,"[0.17608826420838466,0.017013366694075653]",4.0,"[0.10293106534262887,-0.1543601316797581]",4.0,"[0.16588167088440248,-0.10434986665808205]",4.0,"[-0.031216875266694106,0.046272680626076895]",4.0,"[-0.02402548080903973,-0.13443012697966356]",100.0,"[-0.1349823324864539,0.0909933615391896]",4.0,"[0.09241313224832373,0.02114473011704672]",100.0,"[0.05444997508836461,-0.10573552339963271]",4.0,"[-0.06485733550393227,0.09082639199336784]",100.0,"[-0.13719085702655814,-0.006328163820738531]",4.0,"[0.09380601986243642,-0.11388925426286413]",100.0,"[0.019080947519463615,0.03421515479430029]",4.0,"[0.02,0.02]",261.7213,0.0,28.0,28.0,160.0,1.0,,,,,,,
,,,,,,,65fae6b84fa6b3101d2ca4b1,684428b24eb99d202ec80e93,2025-06-07_17h28.08.771,shape_ratio,2024.1.5,Win32,59.88023952,684250e4f00cb30b92d1fa88,,,,,,,,,,,261.7219,262.2207,,,262.4713,262.5042,left,0.0188,,,,,,,,,0.55,,,,,,262.2207,262.4712,262.5043,"[-0.09783578341654522,0.03421084425876349]",4.0,"[-0.13983209265530613,0.02892590955671224]",4.0,"[0.08722505085654231,-0.1156209228746963]",4.0,"[0.017654873761740252,0.018324312061562306]",4.0,"[0.1226653011005966,0.07604553252803664]",100.0,"[-0.06221327782345128,-0.1806529568943983]",4.0,"[0.1242241718481682,-0.04464026850788322]",100.0,"[0.03316773496638764,-0.09624543545970049]",100.0,"[-0.15272899012542604,-0.11116293718952486]",4.0,"[-0.123236036834174,-0.06284223161096911]",4.0,"[0.07286057929840573,0.15672487654516404]",100.0,"[-0.0873043491227165,-0.01045646624322831]",100.0,"[0.013404125293210473,-0.13822126761503178]",100.0,"[-0.00034969421739656473,0.16720629998963035]",4.0,"[-0.06505784399694285,-0.07357558845212407]",4.0,"[-0.0011217076097100108,0.086186196329541]",4.0,"[0.17483611208774993,0.01552249701592796]",100.0,"[-0.029483373390627073,-0.14879534587542737]",100.0,"[-0.034863564353022444,0.13775761233859343]",4.0,"[0.15248164780431891,-0.09510759732357973]",100.0,"[-0.09668839861376005,-0.15847645789569237]",100.0,"[-0.11968198963316744,0.11502077471380494]",100.0,"[-0.01583899551948095,-0.06391620294345675]",100.0,"[-0.1835825106556174,0.07034642500971884]",100.0,"[0.04857786449175512,0.10588013347470927]",100.0,"[0.06400049030933128,-0.1613914624324477]",4.0,"[0.16856543062501134,0.09170223354339745]",4.0,"[0.010324279364184171,0.1246928046965775]",100.0,"[-0.041890063423010056,0.07873269071577575]",100.0,"[0.18170261093346454,-0.06563900017196768]",100.0,"[-0.02294674931653246,0.008671446402785365]",4.0,"[0.08839940844848475,-0.0059597066303257624]",100.0,"[0.02,0.02]",263.6041,0.0,29.0,29.0,75.0,1.0,,,,,,,
,,,,,,,65fae6b84fa6b3101d2ca4b1,684428b24eb99d202ec80e93,2025-06-07_17h28.08.771,shape_ratio,2024.1.5,Win32,59.88023952,684250e4f00cb30b92d1fa88,,,,,,,,,,,263.6047,264.1035,,,264.3542,264.4872,left,0.1169,,,,,,,,,0.9,,,,,,264.1036,264.3542,264.4872,"[-0.09744723247300886,-0.0703073819264277]",100.0,"[-0.15560905481197457,0.11553910729253625]",100.0,"[-0.00902640218635186,-0.14878049659355497]",100.0,"[-0.014363133720019973,-0.02992284086672202]",100.0,"[0.02185723691780725,-0.002701545193123083]",100.0,"[0.07114885658139886,-0.16340446159534833]",100.0,"[0.05098696918270419,-0.11610190554639278]",100.0,"[0.0490276566792021,0.04731512894361113]",100.0,"[-0.05207503923555483,0.016325887033963125]",100.0,"[0.08308598817313025,0.08772235209717495]",100.0,"[-0.1268874020016545,0.08118981228297543]",100.0,"[0.11580584308139,-0.12457638248066706]",100.0,"[-0.038006480291616025,-0.18350284682126022]",100.0,"[-0.14769416093785173,-0.05944369608205094]",4.0,"[0.1629198098170793,-0.10783301400904399]",100.0,"[0.03649890197159543,0.1911229251486764]",100.0,"[-0.05102228094648426,-0.14403682633772333]",100.0,"[-0.11200733377780168,-0.02494247077681058]",4.0,"[-0.0904745566778678,0.151841215600406]",4.0,"[-0.08535323390323041,0.10786287152894387]",100.0,"[0.08782755306304989,-0.08037159522184732]",100.0,"[0.15900664817553434,0.05465478048492342]",100.0,"[0.1420452471865755,0.00900371308447504]",100.0,"[-0.08119468236601869,0.052606780788886545]",100.0,"[-0.12517603406712083,-0.14080964466274865]",100.0,"[-0.050104291753287025,0.18009123183391168]",100.0,"[0.033196705695086676,0.10966206802452427]",100.0,"[0.08688438492421499,-0.004091114223300655]",100.0,"[-0.18073986277317833,0.055087456359167196]",100.0,"[-0.02097642683827919,0.11766480966318074]",100.0,"[-0.1626477450438965,0.018403250075670726]",100.0,"[0.15205730703430248,-0.031193036268947018]",100.0,"[0.02,0.02]",265.5861,0.0,30.0,30.0,4.0,1.0,,,,,,,
,,,,,,,65fae6b84fa6b3101d2ca4b1,684428b24eb99d202ec80e93,2025-06-07_17h28.08.771,shape_ratio,2024.1.5,Win32,59.88023952,684250e4f00cb30b92d1fa88,,,,,,,,,,,265.5863,266.0863,,,266.3366,266.4693,left,0.1251,,,,,,,,,0.4,,,,,,266.0863,266.3366,266.4694,"[-0.05106093502750024,0.1767817275361719]",100.0,"[-0.05556276231618143,-0.059378117872454485]",100.0,"[0.16323304236038852,0.025325295852067237]",4.0,"[-0.011228555761276347,-0.08978170150445233]",100.0,"[0.12550031988640462,0.049452227943434665]",4.0,"[0.1500184404077808,-0.03424858313046214]",4.0,"[-0.09584509430747408,0.03320220146369848]",4.0,"[-0.011667955594759803,0.02661428214396202]",100.0,"[0.04649570877426236,-0.05785205471770134]",4.0,"[-0.10983994576662706,-0.15942687556230836]",100.0,"[0.032168586034922106,0.18820233834802189]",4.0,"[-0.06038555892870458,0.0005939149949860591]",4.0,"[0.10283015300568105,-0.06401536597745573]",4.0,"[0.03460441482749292,0.008522435391036094]",100.0,"[0.13603397566636538,0.11570288808404863]",4.0,"[-0.07835140153406156,0.09770809735000656]",100.0,"[-0.12177100196399177,0.08129188121425505]",4.0,"[0.12421881060161001,0.15433274936844285]",4.0,"[-0.1347895482223458,0.008707382723021594]",4.0,"[0.020216262111306223,-0.16461744202415]",4.0,"[-0.05495303008648982,-0.18463307039310917]",4.0,"[0.1271700178689864,-0.15106929045392248]",100.0,"[0.07423095128349093,-0.10189517979331911]",100.0,"[-0.008847113591626378,-0.13694347526150416]",100.0,"[0.00875346415078358,0.09578229262957284]",4.0,"[0.09270639309003037,0.023760603613579432]",100.0,"[-0.08930071063670653,-0.11214929206498973]",4.0,"[0.16468614398920112,-0.0959681002393836]",4.0,"[-0.13604597725528866,-0.11576128945970852]",4.0,"[-0.11245431820696934,-0.061105123248998076]",100.0,"[-0.16048150608665585,-0.06165289687731491]",100.0,"[-0.01303797722845224,-0.1915254279925105]",4.0,"[0.02,0.02]",267.5691,0.0,31.0,31.0,161.0,1.0,,,,,,,
,,,,,,,65fae6b84fa6b3101d2ca4b1,684428b24eb99d202ec80e93,2025-06-07_17h28.08.771,shape_ratio,2024.1.5,Win32,59.88023952,684250e4f00cb30b92d1fa88,,,,,,,,,,,267.5694,268.0687,,,268.3191,269.0354,left,0.7003,,,,,,,,,0.6,,,,,,268.0687,268.3191,269.0354,"[0.18269185623982376,-0.02588911024070997]",100.0,"[-0.160549679092722,0.07443927637556075]",4.0,"[0.13875776165827045,0.05918420864380816]",4.0,"[0.15489438892446875,-0.08859387236132993]",100.0,"[-0.10210562660387473,-0.04055000042845304]",100.0,"[-0.05262906103022926,-0.04080751464145558]",100.0,"[-0.10022520775758817,0.0911931196560594]",100.0,"[0.06424863000472004,0.015666681293249347]",4.0,"[0.07399330583955761,0.11632045421380537]",100.0,"[-0.15965187727032593,-0.009475697379660015]",100.0,"[-0.14510877456173316,-0.09278188338364149]",4.0,"[-0.04330688328271006,-0.1941693699944007]",100.0,"[0.04560742745173215,-0.07334712309890794]",100.0,"[-0.0668459880786487,0.12610961498430742]",100.0,"[-0.0585310374220545,0.18163788821301072]",4.0,"[0.010889486180242214,-0.14003703036082923]",4.0,"[0.03932225855500754,0.1874142553548911]",100.0,"[0.10395134672453862,-0.03709117300343957]",4.0,"[0.042106970700459885,-0.1930804077947769]",100.0,"[-0.08890988782864198,-0.00034552706972320907]",100.0,"[0.0848054978153999,-0.11317993380221465]",4.0,"[-0.01157700768937225,-0.0019039402574967288]",100.0,"[-0.07133025433608924,0.038936793010646044]",4.0,"[0.09115271665026495,0.04573272946151009]",4.0,"[-0.10369112724722009,0.15657073631120488]",4.0,"[0.07734748144392542,0.17279580720481866]",100.0,"[-0.00612788737596461,0.06328449821039386]",100.0,"[0.1232582585352042,-0.13137236051622758]",4.0,"[-0.07649235384933024,-0.10056791305113857]",100.0,"[-0.11778486088371577,-0.1266621497994034]",100.0,"[0.16529743727769722,0.02429932962569412]",100.0,"[0.14497365062532994,0.11501528007636683]",4.0,"[0.02,0.02]",270.1352,0.0,32.0,32.0,45.0,1.0,,,,,,,
,,,,,,,65fae6b84fa6b3101d2ca4b1,684428b24eb99d202ec80e93,2025-06-07_17h28.08.771,shape_ratio,2024.1.5,Win32,59.88023952,684250e4f00cb30b92d1fa88,,,,,,,,,,,270.1358,270.635,,,270.8855,271.7346,left,0.8347,,,,,,,,,0.45,,,,,,270.6351,270.8854,271.7346,"[-0.03415641776945468,0.09360048187649002]",100.0,"[0.02997918143176176,0.0936448457310095]",4.0,"[-0.03435681789626812,-0.04765600860220142]",4.0,"[0.11030609339254205,-0.14678030814794]",100.0,"[-0.18634173185070882,-0.04707808076444188]",4.0,"[0.1058552741214981,0.04570585866634507]",100.0,"[0.1316340540629566,0.13855330387382506]",100.0,"[-0.02607048979218428,0.14817687867563253]",4.0,"[-0.04241049853391978,-0.1762980913157221]",4.0,"[0.018803795467477114,0.044900042825922165]",100.0,"[0.021766208566572656,-0.0018338109464184646]",4.0,"[-0.08412172401086875,0.1318930220235921]",4.0,"[0.08684857706708117,0.10159573663325612]",100.0,"[-0.1381702419006974,0.09694137065283263]",4.0,"[-0.036585539570525405,0.02349553440751217]",100.0,"[-0.1469211538658798,-0.019277799461054557]",4.0,"[-0.0037825317959578105,-0.1919822946256618]",100.0,"[-0.11340599435013948,0.060654041452266313]",4.0,"[0.06128003225409,0.1896858155104626]",4.0,"[-0.16475274443297122,0.04208352467205221]",100.0,"[-0.06681626725499225,0.1765006411008121]",4.0,"[0.05181420761343378,-0.02951924037793705]",4.0,"[0.17587525757490743,-0.03172167078476374]",100.0,"[0.002446805954796628,-0.13305285794605728]",100.0,"[-0.16972215354474077,-0.10412332166018715]",4.0,"[0.11138277611851159,-0.007723681323070018]",100.0,"[0.08176340202948515,-0.10831266093562966]",4.0,"[-0.12770665497978242,-0.10003655639691522]",100.0,"[-0.05119383051695996,-0.1346292964623482]",100.0,"[0.013302947089408214,0.1788093519382682]",4.0,"[0.1539079800298116,-0.10709761928202301]",4.0,"[0.17521628670497702,0.09277773726741854]",4.0,"[0.02,0.02]",272.8343,0.0,33.0,33.0,143.0,1.0,,,,,,,
,,,,,,,65fae6b84fa6b3101d2ca4b1,684428b24eb99d202ec80e93,2025-06-07_17h28.08.771,shape_ratio,2024.1.5,Win32,59.88023952,684250e4f00cb30b92d1fa88,,,,,,,,,,,272.8346,273.3337,,,273.5839,274.6337,left,1.0335,,,,,,,,,0.45,,,,,,273.3338,273.5838,274.6338,"[0.05127592572621555,0.0012188512410855135]",100.0,"[0.06210326636483155,0.18182188263103058]",4.0,"[-0.10945913909450895,0.08693806883982688]",4.0,"[-0.01406865996273647,0.05857420393512433]",100.0,"[0.1897903765177981,-0.0366922502540311]",100.0,"[-0.08040256283462474,0.1459368448523943]",4.0,"[0.08892894019675847,0.0779149124366651]",100.0,"[-0.07450607856316388,-0.0434946884749605]",4.0,"[0.008310133056503393,-0.14221603033420047]",4.0,"[-0.12837864443055094,-0.09985867754693623]",4.0,"[0.0766947712676878,-0.17773173294811576]",100.0,"[-0.0022540481281870363,0.18422771386010803]",100.0,"[-0.036080654359589896,0.0022112870377722455]",4.0,"[-0.09371199658434622,-0.17577447845793195]",4.0,"[-0.13587253603073798,0.012310071753151835]",100.0,"[-0.09098194055220413,-0.13374098006207585]",4.0,"[-0.004147468880350103,0.13921287853471973]",4.0,"[0.15756832490190506,0.08840673261037545]",100.0,"[-0.04670704856076426,0.10583423287668511]",100.0,"[-0.02205595895349213,-0.06362020820428536]",4.0,"[0.12110748078421099,0.034621341295034275]",4.0,"[-0.07593578239546273,-0.0033294950762464714]",100.0,"[-0.19390195592324305,-0.04106604292470161]",4.0,"[-0.18749108836535539,0.009849346898442041]",4.0,"[0.11550132563476853,-0.020272930707100935]",4.0,"[-0.02491682532234591,-0.10423645351160289]",100.0,"[-0.005100810647572389,-0.026204154155988958]",100.0,"[-0.04835052816519141,-0.19226159164550766]",4.0,"[0.10930604889277444,0.14240324329035883]",100.0,"[0.1634469499101271,0.0007645096395392831]",4.0,"[-0.12267933545554159,-0.04672271791522941]",100.0,"[0.09075658747518113,-0.08317647831055974]",4.0,"[0.02,0.02]",275.7335,0.0,34.0,34.0,141.0,1.0,,,,,,,
,,,,,,,65fae6b84fa6b3101d2ca4b1,684428b24eb99d202ec80e93,2025-06-07_17h28.08.771,shape_ratio,2024.1.5,Win32,59.88023952,684250e4f00cb30b92d1fa88,,,,,,,,,,,275.734,276.2331,,,276.4836,277.9824,,,,,,,,,,,0.9,,,,,,276.2332,276.4836,277.9825,"[-0.05466737004384303,-0.18816749358036192]",100.0,"[-0.11622880682521426,-0.06037392255736989]",100.0,"[-0.05037660353318089,0.1394461452191679]",100.0,"[0.17734719301881524,-0.053415915268823375]",100.0,"[-0.07789779591967777,-0.080410618088125]",100.0,"[0.08688603227451266,-0.03503434352169297]",100.0,"[-0.016576925888320337,-0.07147007815862738]",100.0,"[-0.11920928174266548,-0.11151936260789591]",100.0,"[0.041618638758495426,-0.053514784629797106]",100.0,"[0.037615379873355455,-0.11182450969986948]",100.0,"[-0.05839297203434736,0.07396964714239451]",100.0,"[0.03742043567473655,0.08722008383369959]",100.0,"[0.142145067194541,0.11191220905452308]",100.0,"[-0.10977730521367446,0.11393847353539321]",100.0,"[-0.012704795764774925,0.043348454934440526]",100.0,"[0.00026340543522778846,-0.17731876967839721]",100.0,"[0.03903324910717834,0.1481172548440013]",100.0,"[-0.02931037347411071,0.19139464764711087]",100.0,"[0.14627004622860004,-0.12427176986614334]",100.0,"[0.1667769215476494,0.019631322975522947]",100.0,"[0.09398679091110118,0.16951768526507413]",100.0,"[-0.10455595903231292,-0.1542018398787466]",100.0,"[0.07709588560160456,0.021303239309182376]",4.0,"[-0.04807528947789533,-0.12599310468942634]",100.0,"[-0.1654742292665747,0.043586049790495025]",100.0,"[-0.15540851536067887,-0.05079263208421492]",4.0,"[0.11393238873600318,-0.15168066674855288]",100.0,"[0.03129451609290069,0.022937283879091892]",100.0,"[-0.12109209898762481,0.04578579970960622]",100.0,"[0.15247044228911052,0.06800302955578796]",100.0,"[0.08893220571788432,0.06551804912234131]",100.0,"[-0.06149792462728594,-0.03638096300149611]",4.0,"[0.02,0.02]",279.0822,0.0,35.0,35.0,1.0,1.0,,,,,,,
,,,,,,,65fae6b84fa6b3101d2ca4b1,684428b24eb99d202ec80e93,2025-06-07_17h28.08.771,shape_ratio,2024.1.5,Win32,59.88023952,684250e4f00cb30b92d1fa88,,,,,,,,,,,279.0826,279.582,,,279.832,280.8981,left,1.0611,,,,,,,,,0.5,,,,,,279.5821,279.832,280.8981,"[-0.09082603008426648,-0.12140711183556768]",100.0,"[0.06781607143892096,-0.09903634464914252]",100.0,"[0.005989360631945159,-0.10297942447021403]",4.0,"[-0.0891005451584118,0.03893792571142378]",4.0,"[0.13898722023263024,-0.1313560671797124]",4.0,"[0.05150354077473129,0.011159866450007577]",100.0,"[-0.012979570626214154,0.023067509120068438]",4.0,"[0.1337805172659165,0.0019231528193736677]",100.0,"[-0.09485737226274478,-0.1737606813346355]",4.0,"[-0.008110794949391096,-0.06450005606729182]",4.0,"[0.0730443187283348,0.16384080525135183]",100.0,"[-0.08640540751316574,-0.017141887392671522]",4.0,"[0.17389666880085333,0.07733045944686358]",100.0,"[0.11731985574256074,0.05318444863144792]",4.0,"[-0.13764280067462403,0.07149928383027929]",100.0,"[-0.15486490465895109,0.03230434258375487]",4.0,"[0.023410288433875975,0.1442728729372295]",4.0,"[0.04287512746062306,0.07641176166274817]",4.0,"[-0.046222931270991946,-0.0980598832916433]",100.0,"[0.09905919974028843,-0.0490432556201045]",4.0,"[-0.08333946422166176,0.11119597491943665]",4.0,"[-0.05270865323734399,-0.16835308997177081]",100.0,"[-0.01657834831480785,0.18053968891378933]",100.0,"[-0.06719103950177716,0.15498256718669223]",100.0,"[-0.161121305036516,-0.0692593116514352]",4.0,"[-0.12134857510509911,0.006995692297798297]",100.0,"[-0.013996246447688132,-0.19093575892672207]",100.0,"[-0.03260190448469449,-0.01353472206440157]",100.0,"[0.13933625287478327,-0.06081906359470161]",100.0,"[-0.18393651071588896,0.00009309451802325598]",4.0,"[0.18145416011398138,-0.06984670753128679]",100.0,"[0.13181796255499317,0.10217584884869949]",4.0,"[0.02,0.02]",281.9978,0.0,36.0,36.0,90.0,1.0,,,,,,,
,,,,,,,65fae6b84fa6b3101d2ca4b1,684428b24eb99d202ec80e93,2025-06-07_17h28.08.771,shape_ratio,2024.1.5,Win32,59.88023952,684250e4f00cb30b92d1fa88,,,,,,,,,,,281.9982,282.4978,,,282.7482,283.0141,left,0.2499,,,,,,,,,0.4,,,,,,282.4978,282.7482,283.0141,"[0.0093189426814207,-0.15242219116363356]",100.0,"[0.1195973082841924,-0.06671345941378155]",100.0,"[-0.11245919081628239,0.03554667779152718]",4.0,"[0.0571701167327013,-0.11674925073883616]",4.0,"[-0.017050498762219646,0.0800122180280721]",100.0,"[0.13201061106641937,0.04515991682912207]",4.0,"[-0.09998015258674356,-0.12443276768537895]",4.0,"[-0.15561601447723536,0.08615441107703742]",4.0,"[-0.14923065545762354,-0.09573635852417935]",100.0,"[0.0030012514574932815,0.15273766618963383]",100.0,"[-0.15890537625322673,0.035863489631156896]",4.0,"[-0.008982305020276355,-0.08084989336758418]",4.0,"[-0.06024784945378303,-0.18301183216091443]",4.0,"[-0.07187860948432973,0.09519488987141805]",4.0,"[-0.045929826520466774,0.12633846782784128]",4.0,"[0.07084339939803538,-0.017963887461328144]",100.0,"[-0.029882015360371,-0.04325685585588092]",4.0,"[-0.09418903199725377,-0.029133960410037737]",100.0,"[-0.06377140390506632,0.05294889603397758]",4.0,"[-0.057168364539281966,-0.08797316668860082]",100.0,"[0.09338292098136398,0.0242432275413795]",4.0,"[0.127165624521458,-0.02713066762199985]",100.0,"[0.17137513391816991,-0.055501109699071925]",4.0,"[0.0466817541886752,-0.056340321232893974]",4.0,"[-0.0856454672934123,0.15726703877430212]",100.0,"[0.16733404550022948,-0.0015797392410912994]",4.0,"[0.04767492509301177,-0.16799476884622516]",4.0,"[0.17045724801819276,0.09488911994478143]",100.0,"[0.15773238594997072,-0.11162960798567531]",4.0,"[0.11936411648179779,-0.14186444032196177]",100.0,"[-0.02310769500951545,0.01659844789640991]",100.0,"[-0.04938611690156469,-0.1379065806203182]",4.0,"[0.02,0.02]",284.114,0.0,37.0,37.0,152.0,1.0,,,,,,,
,,,,,,,65fae6b84fa6b3101d2ca4b1,684428b24eb99d202ec80e93,2025-06-07_17h28.08.771,shape_ratio,2024.1.5,Win32,59.88023952,684250e4f00cb30b92d1fa88,,,,,,,,,,,284.1145,284.6158,,,284.8638,285.4469,left,0.5709,,,,,,,,,0.1,,,,,,284.6159,284.8638,285.4469,"[0.03794307477316448,-0.1190697196810504]",4.0,"[0.004434448114057261,0.19684706514361872]",4.0,"[-0.009965915141664257,-0.03842584199747233]",4.0,"[0.06714596911162699,0.02646985396138144]",4.0,"[-0.15578737670445034,0.03008836096658361]",4.0,"[0.10124418614334954,-0.01989265545947044]",4.0,"[0.12996264328525356,0.06161784198857518]",100.0,"[-0.03240214088964455,-0.1667715812449986]",4.0,"[-0.09973216827962222,0.16219679409090496]",4.0,"[-0.09564634409628317,-0.036120837163065474]",4.0,"[-0.07684354190276604,0.07514173877475]",4.0,"[0.10031251426292234,-0.1628349964256996]",100.0,"[-0.19098286144866958,-0.0009980090354511815]",4.0,"[-0.02634781570817077,0.031465894438637045]",4.0,"[0.13917903778939641,-0.06140216253554871]",4.0,"[0.07837875650051089,-0.12789295909626205]",4.0,"[0.1750868014015713,0.010326838931903897]",4.0,"[-0.17321013787258946,0.09854287043745215]",4.0,"[-0.09965484901937538,-0.09200491409951991]",4.0,"[0.06063839787186099,0.10362825516378564]",4.0,"[0.042677512197001444,-0.18904845812463575]",4.0,"[0.02324576650584674,-0.013864306473508708]",4.0,"[-0.04382806542708215,0.09967002560362254]",100.0,"[-0.12268292012663111,0.06184469078308529]",4.0,"[0.04242119699231559,-0.07831482707441417]",4.0,"[-0.021779051848060196,-0.1166441949039475]",4.0,"[-0.11879501005279744,-0.13019365543079778]",4.0,"[0.04665007451259222,0.14984949470527748]",4.0,"[-0.10709974180015044,0.024054265910972317]",4.0,"[0.08360030092259316,-0.08074849203421998]",4.0,"[-0.1455518166277634,-0.06278060636517344]",4.0,"[-0.05185592572308851,0.16923583556696492]",4.0,"[0.02,0.02]",286.5464,0.0,38.0,38.0,203.0,1.0,,,,,,,
,,,,,,,65fae6b84fa6b3101d2ca4b1,684428b24eb99d202ec80e93,2025-06-07_17h28.08.771,shape_ratio,2024.1.5,Win32,59.88023952,684250e4f00cb30b92d1fa88,,,,,,,,,,,286.5468,287.0463,,,287.2965,288.6789,right,1.3778,,,,,,,,,0.55,,,,,,287.0464,287.2964,288.6789,"[-0.04137107830151629,0.10151417173359809]",100.0,"[-0.06628464866002967,-0.16510374889079196]",100.0,"[0.12160555058568011,0.1516411243908083]",100.0,"[-0.19737501680544572,-0.02807335392904333]",100.0,"[0.005790186848787733,0.1343115202415327]",100.0,"[0.08854455901193976,-0.14952596220514336]",4.0,"[0.06594345500136463,0.13001277911469358]",100.0,"[-0.10844542359558827,-0.06042334221005483]",100.0,"[0.02132418612421565,0.1910823303475174]",100.0,"[-0.1619497365584909,-0.10234718110363483]",100.0,"[0.1839767346691786,0.07664555789495964]",100.0,"[0.08731602618475587,0.08459696249830616]",4.0,"[-0.09421439754227126,0.15711788988314798]",100.0,"[0.0024043930805869845,0.03754408955402137]",100.0,"[0.04588747689682402,-0.07644641421637927]",100.0,"[-0.049624230809675395,0.16910209794460562]",100.0,"[0.09524306126105905,-0.07134485126281886]",100.0,"[-0.054619211923249256,-0.107525080733697]",4.0,"[0.14616088916723907,-0.1156237808729105]",100.0,"[0.14892996694079133,0.039185245255153295]",100.0,"[-0.15314499061478046,0.1284259034742104]",4.0,"[0.021882294644062144,-0.01819382727387438]",4.0,"[0.12599799798084535,-0.032712499159035235]",4.0,"[-0.08858532366519485,-0.01188893757922437]",4.0,"[-0.025355036785312545,-0.15587213064250804]",4.0,"[-0.044077317874475094,-0.06784477887231814]",4.0,"[0.17430367998174764,-0.04489177809217171]",100.0,"[-0.17138773023532192,0.08169137574042656]",4.0,"[-0.07846358606117364,0.06433187840106977]",4.0,"[-0.027898953750962394,-0.002639405623807519]",4.0,"[0.00043859837229506983,-0.10262942387635535]",4.0,"[0.022081608314423566,-0.1392182388706556]",4.0,"[0.02,0.02]",289.7782,0.0,39.0,39.0,66.0,1.0,,,,,,,
,,,,,,,65fae6b84fa6b3101d2ca4b1,684428b24eb99d202ec80e93,2025-06-07_17h28.08.771,shape_ratio,2024.1.5,Win32,59.88023952,684250e4f00cb30b92d1fa88,,,,,,,,,,,289.7787,290.2786,,,290.5286,290.7284,right,0.1934,,,,,,,,,0.9,,,,,,290.2786,290.5286,290.7284,"[0.16347820992836504,-0.07645179126457097]",100.0,"[-0.10903928029411487,-0.14384725026243192]",100.0,"[-0.06695279820667242,0.11118878631067916]",100.0,"[-0.05335819624179586,0.014610080284848339]",100.0,"[0.0290297293929774,-0.18787389003108343]",100.0,"[-0.13471787453916345,-0.05106643432281615]",100.0,"[-0.012531005500441998,-0.11621472480015842]",100.0,"[-0.020887038730577442,-0.15737313309740247]",100.0,"[0.053970992228397595,0.14565484213825758]",100.0,"[-0.09672770150614642,0.07417098220878623]",100.0,"[0.01749745814437229,-0.003642588435072128]",100.0,"[0.03553372187283613,-0.06739483744579386]",100.0,"[0.19101059888869887,-0.029616644940196512]",100.0,"[-0.01098632819163032,0.03670196953175938]",100.0,"[0.15168875659827286,0.023375424467015068]",100.0,"[0.10565743569956522,-0.08058868837173008]",100.0,"[-0.023465858530211194,-0.032587107300565944]",100.0,"[-0.10518727049058063,0.14370186930748444]",100.0,"[0.08487318643286776,0.038555177010470704]",100.0,"[0.12520736417325773,0.13117970084811303]",100.0,"[0.04267393883571541,0.10203306410012175]",4.0,"[0.15820269283368854,0.07750195066906418]",100.0,"[-0.07048765545854573,-0.09736207062942924]",100.0,"[0.09959238787094843,0.09848510989983814]",100.0,"[-0.07366277619979748,-0.054652457147040784]",100.0,"[-0.1829505387052632,0.042589975921809346]",4.0,"[0.00278632383146029,0.1562564900606443]",100.0,"[-0.057881486177585956,0.16487888033982118]",100.0,"[0.12207721039347873,-0.14766085301911197]",4.0,"[0.06291822124326515,-0.13986011424096903]",100.0,"[-0.12592294324061884,-0.09144064119435985]",100.0,"[0.11807307889056114,-0.022734624419841653]",100.0,"[0.02,0.02]",291.8279,0.0,40.0,40.0,12.0,1.0,,,,,,,
,,,,,,,65fae6b84fa6b3101d2ca4b1,684428b24eb99d202ec80e93,2025-06-07_17h28.08.771,shape_ratio,2024.1.5,Win32,59.88023952,684250e4f00cb30b92d1fa88,,,,,,,,,,,291.8283,292.3278,,,292.5779,292.8276,left,0.2378,,,,,,,,,0.6,,,,,,292.3278,292.5779,292.8277,"[0.0031970381052925313,-0.013771704300416016]",100.0,"[0.033841611460531176,0.08473531795971255]",4.0,"[-0.00712490739813174,-0.11945968823975495]",4.0,"[0.07799313994857571,0.001411625969270166]",100.0,"[-0.04742977388724516,0.0642749057001952]",4.0,"[-0.157635348258519,-0.10124110858349743]",100.0,"[0.07003719802945158,-0.13357884715208576]",4.0,"[0.1499691391716174,0.0777668595036534]",100.0,"[-0.12036301607006122,-0.039261823576636774]",100.0,"[-0.055218062365304736,-0.02147885026456525]",4.0,"[0.10479689101869595,-0.045740983418502336]",4.0,"[0.10603418975881677,0.12817376407072215]",100.0,"[-0.17375898693298944,0.08608017884214159]",100.0,"[-0.09367249456884659,0.07147033714436216]",100.0,"[-0.03178290056372524,-0.17511925823540006]",100.0,"[0.0669070326227107,-0.07866647138327583]",100.0,"[-0.020519468965811003,0.19711952278977543]",100.0,"[-0.19554458501865749,-0.029792063656358267]",4.0,"[-0.1264810947106544,0.02929342554795031]",100.0,"[0.1501242473866415,0.03509219380394417]",4.0,"[0.09918596272597172,0.08036687948643231]",100.0,"[0.04691756220177686,0.13737131699979765]",100.0,"[-0.12473353447092085,0.15068265305223483]",100.0,"[-0.13419206635353575,-0.13552707150002125]",4.0,"[-0.02736370894079165,-0.06240356492109688]",100.0,"[0.12369160554116718,-0.0012037045016546869]",4.0,"[0.1093481433816029,-0.1080039699641721]",4.0,"[-0.03505144852301788,0.021610562005293096]",4.0,"[-0.10254285381970704,-0.10430160827486383]",100.0,"[-0.08481052631399676,0.11773399708197517]",100.0,"[0.07354360703848313,0.16773484392883256]",100.0,"[-0.04872120690142681,-0.10984787248681693]",4.0,"[0.02,0.02]",293.9271,0.0,41.0,41.0,38.0,1.0,,,,,,,
,,,,,,,65fae6b84fa6b3101d2ca4b1,684428b24eb99d202ec80e93,2025-06-07_17h28.08.771,shape_ratio,2024.1.5,Win32,59.88023952,684250e4f00cb30b92d1fa88,,,,,,,,,,,293.9276,294.4269,,,294.677,294.9935,left,0.3011,,,,,,,,,0.55,,,,,,294.4269,294.677,294.9936,"[-0.11112244681709234,-0.1296856304585008]",4.0,"[0.03306859925505,-0.1537088000031233]",100.0,"[-0.14284016175394293,-0.07665612480262193]",100.0,"[0.032421680391813076,0.18037793489426546]",4.0,"[-0.043120333462040215,0.07910138616885098]",100.0,"[0.11002114218920314,-0.03337185285101761]",4.0,"[-0.10488718637681746,0.1414267844238817]",100.0,"[-0.07398203725643925,-0.04218522340476475]",4.0,"[-0.0165274332850557,0.027832096815371656]",4.0,"[-0.003939561265448196,-0.17227311239851129]",100.0,"[0.004739676803664503,0.09143141896169878]",100.0,"[-0.17949826611435687,-0.055825359202776634]",100.0,"[-0.12169252862938451,0.03209925784613217]",100.0,"[-0.03391657499610966,-0.12752584457215083]",100.0,"[0.12554254081267574,-0.14925146362936284]",100.0,"[0.10088941170227438,0.09260801404310655]",100.0,"[-0.11996113480718097,0.10056052977252182]",100.0,"[-0.06719442924915946,-0.17959730288967468]",100.0,"[0.15232672112315604,-0.09925071893532626]",4.0,"[0.15177809662345468,0.11817448609248953]",100.0,"[0.011217940186021973,-0.03579641293527228]",4.0,"[-0.05584189639889792,0.17098357425462932]",4.0,"[0.08652765994558004,-0.10865144714243347]",100.0,"[0.08275286270299366,0.001163176026849946]",4.0,"[0.05840782931471968,0.051112109481533434]",4.0,"[-0.18608609516645747,0.03765561041670833]",4.0,"[0.16741065713002978,0.018488798640808417]",4.0,"[0.02882081674108468,0.022748252958449497]",4.0,"[-0.06216984340985887,-0.08260512628925634]",100.0,"[0.16543100504130445,0.07439217791514656]",4.0,"[0.18556265607970554,-0.05680330697539247]",100.0,"[0.012140364035553236,-0.10617490679314091]",100.0,"[0.02,0.02]",296.0931,0.0,42.0,42.0,67.0,1.0,,,,,,,
,,,,,,,65fae6b84fa6b3101d2ca4b1,684428b24eb99d202ec80e93,2025-06-07_17h28.08.771,shape_ratio,2024.1.5,Win32,59.88023952,684250e4f00cb30b92d1fa88,,,,,,,,,,,296.0934,296.5929,,,296.8434,297.3425,right,0.4871,,,,,,,,,0.55,,,,,,296.593,296.8434,297.3426,"[0.10136942236627791,-0.11920191213535875]",4.0,"[0.057440357317530256,-0.0901470029397828]",100.0,"[0.08287316885286233,0.08614144064012]",100.0,"[-0.09871541228687265,-0.11802268651951216]",4.0,"[0.0611326133121884,-0.13840576011474023]",100.0,"[-0.09767392262880388,-0.044240874026042966]",100.0,"[0.0995901127318566,-0.05025618135222075]",4.0,"[-0.18485981083358033,-0.05106527234477489]",4.0,"[-0.13842991075095026,0.03486718094228588]",4.0,"[0.04472223465203973,-0.18933668456736646]",4.0,"[0.1394190647135415,-0.01063311541185522]",100.0,"[0.0900028372045054,0.14683785496447416]",4.0,"[0.07008761027455353,-0.005622506498155363]",4.0,"[0.16886025532187313,0.034956833021162675]",100.0,"[-0.15553782761206936,-0.08503674647542153]",100.0,"[0.12340715419312358,0.0552497547445345]",100.0,"[0.1348726580872495,0.13261343143934776]",100.0,"[-0.09328986495858126,0.007529546140587574]",4.0,"[-0.03249703820665043,-0.15028356958130312]",100.0,"[-0.028497150748011957,0.061978457798252444]",100.0,"[-0.14569801669865418,0.09797589935248073]",4.0,"[0.009619381397593269,-0.12332387920015328]",100.0,"[-0.10811492036131075,-0.1599024805367833]",4.0,"[0.15782983288531952,-0.0478265751484067]",100.0,"[0.013531176109272406,-0.000011654869685472774]",4.0,"[-0.09890603402046115,0.06839083261805291]",100.0,"[0.018461964151177193,0.19559300666548293]",4.0,"[-0.06709548740736719,0.1298558884507956]",100.0,"[-0.02511994085883516,-0.08662558059750279]",100.0,"[-0.1925214553356365,0.011134790686523583]",100.0,"[0.0838231990235781,0.041171806672014546]",4.0,"[0.14128871900869994,-0.10060638996740101]",100.0,"[0.02,0.02]",298.4419,0.0,43.0,43.0,65.0,1.0,,,,,,,
,,,,,,,65fae6b84fa6b3101d2ca4b1,684428b24eb99d202ec80e93,2025-06-07_17h28.08.771,shape_ratio,2024.1.5,Win32,59.88023952,684250e4f00cb30b92d1fa88,,,,,,,,,,,298.4422,298.942,,,299.192,299.975,left,0.772,,,,,,,,,0.6,,,,,,298.942,299.192,299.975,"[0.02231671503726288,0.041323192414650406]",100.0,"[0.07306816332954366,0.12483452901657081]",4.0,"[0.17947910166811856,0.015182406438928564]",100.0,"[-0.15177839673446789,0.04909289137550863]",4.0,"[0.053328723587165526,-0.12342526361794905]",100.0,"[-0.08135186668693377,0.16489582152990537]",100.0,"[-0.023205589705877327,0.1396744630778491]",100.0,"[-0.07909841346892788,-0.12443162979034415]",4.0,"[0.013237952345512175,-0.15513537557658366]",4.0,"[-0.0945192661214801,-0.03276018159358249]",4.0,"[-0.13741597882744294,-0.09284440779230149]",100.0,"[-0.05691769286676773,-0.0061987244050438275]",4.0,"[-0.1573801665591075,-0.027925371382746034]",100.0,"[-0.0959463544403156,0.09069359813761306]",4.0,"[0.17727292818913373,0.08638170665238265]",4.0,"[0.10574860764774328,-0.14941651661153266]",100.0,"[0.1932191930677277,-0.05130024590949756]",4.0,"[0.11897388154702919,-0.04171079082876119]",100.0,"[0.12052534814096742,-0.09447379417880346]",100.0,"[0.060167557976581375,-0.16990599296454012]",100.0,"[-0.0395743173282,-0.0936021262298617]",100.0,"[-0.0036603353340256208,0.19026956618210816]",4.0,"[0.09789316942418785,0.034268883617795634]",4.0,"[0.0957860340103742,-0.006062155141719501]",100.0,"[-0.018962487798091236,0.0369406865504827]",100.0,"[0.06245751633577053,-0.03763910548478108]",4.0,"[-0.058557238997402845,0.11303972872640522]",100.0,"[0.03597166073635068,0.10954914727755737]",100.0,"[-0.14173453390789156,-0.13918901640532488]",100.0,"[0.08772213336823761,0.08025763260144747]",100.0,"[-0.15933983561407156,0.09859361032331587]",4.0,"[-0.07661644217241169,-0.0693710819687782]",100.0,"[0.02,0.02]",301.0746,0.0,44.0,44.0,44.0,1.0,,,,,,,
,,,,,,,65fae6b84fa6b3101d2ca4b1,684428b24eb99d202ec80e93,2025-06-07_17h28.08.771,shape_ratio,2024.1.5,Win32,59.88023952,684250e4f00cb30b92d1fa88,,,,,,,,,,,301.075,301.5747,,,301.8248,302.791,left,0.9592,,,,,,,,,0.55,,,,,,301.5747,301.8247,302.7911,"[-0.14905274363360732,0.061059984121422266]",100.0,"[-0.03760492820596321,0.18558148209473307]",100.0,"[-0.03843770353071042,-0.11875320444176238]",4.0,"[-0.1699312654688776,-0.03813447125636467]",100.0,"[-0.035892372397831315,0.13341264523558374]",4.0,"[-0.13250538072354595,0.12405187309834008]",100.0,"[0.09543039338761605,-0.09094127655529054]",4.0,"[0.03567079477657041,-0.04686609380062526]",100.0,"[0.05988915445737067,0.02037930058646201]",4.0,"[-0.11573583844524242,0.0016308648623615627]",100.0,"[-0.017727530815725243,0.01787188920186844]",100.0,"[0.08173670196383027,-0.15322583168600482]",4.0,"[-0.11406089314953605,-0.10262664577590463]",4.0,"[0.11400085964441319,0.02948220062156283]",4.0,"[0.17508135973428465,0.05826764771189081]",4.0,"[0.14847548942037633,-0.021028310511979533]",4.0,"[-0.03632802505736162,-0.16078114466944837]",100.0,"[0.00008447312966002832,0.11493234908712369]",4.0,"[-0.046670806332780604,-0.04639695928119935]",4.0,"[0.10711945093888932,0.07471253282092818]",100.0,"[-0.15867550628478833,-0.08726614326946916]",100.0,"[0.1303294165121679,-0.11834032521667227]",100.0,"[-0.08356675851241069,0.06989625052359166]",4.0,"[-0.16221629478835337,0.003308184544484003]",100.0,"[0.00906952975485126,-0.12994873349642405]",100.0,"[-0.07394060970698416,-0.07568873110666158]",4.0,"[0.012968752902785865,-0.0810914163209622]",100.0,"[-0.053454665988578044,0.03597144373198506]",4.0,"[0.09095137411442955,0.12326951483990826]",100.0,"[0.04235254856397636,0.16957863653060012]",100.0,"[0.0046116433043504705,0.1992084062175555]",100.0,"[0.06462171428824019,0.08512124840468153]",100.0,"[0.02,0.02]",303.8903,0.0,45.0,45.0,64.0,1.0,,,,,,,
,,,,,,,65fae6b84fa6b3101d2ca4b1,684428b24eb99d202ec80e93,2025-06-07_17h28.08.771,shape_ratio,2024.1.5,Win32,59.88023952,684250e4f00cb30b92d1fa88,,,,,,,,,,,303.8908,304.3904,,,304.6402,304.7732,left,0.1179,,,,,,,,,0.6,,,,,,304.3904,304.6402,304.7733,"[0.08977593275639942,-0.10596220956974092]",100.0,"[-0.07415436637036527,0.09661205269455773]",100.0,"[0.1008615541577125,0.1368819603542386]",4.0,"[0.043024457368799424,0.19213704970619128]",100.0,"[-0.029545289185806553,-0.13200952966043422]",4.0,"[0.11750589049093504,-0.05500916291717598]",100.0,"[-0.18926670513737456,0.04768563505097358]",100.0,"[-0.11244168449291969,0.16116218529166138]",100.0,"[-0.15273310842862178,0.006043007249146951]",100.0,"[0.11133154357908048,-0.011846452410786985]",100.0,"[0.022881390212277145,0.06740119032748074]",100.0,"[-0.09708708017669922,-0.1412855880009132]",4.0,"[-0.14464237031456478,-0.1200862030944431]",100.0,"[-0.13034695013128933,-0.06523160378605733]",100.0,"[0.15549065608306525,0.0017688456420607524]",100.0,"[-0.029473258192733193,0.16795722682770725]",4.0,"[0.1677610870398372,-0.10496677533604237]",4.0,"[0.18524503148480959,0.029587023232567528]",100.0,"[0.027430554235483438,0.1391554459986118]",4.0,"[-0.012603189745079412,-0.056940525868275346]",100.0,"[0.14495859338641093,0.1370579143480047]",100.0,"[-0.12655931316328511,0.055577427030825625]",4.0,"[0.024942324147576217,-0.11993910369407174]",100.0,"[-0.17893625959911233,-0.024331822879231635]",100.0,"[0.12416377416478012,-0.1480151365772699]",4.0,"[-0.05741131253558277,-0.179276823789605]",4.0,"[-0.09157749595662469,-0.08366722920729139]",4.0,"[-0.08211625991500272,0.04218298464746114]",4.0,"[0.16970416701459382,-0.05928016092088797]",4.0,"[0.03423187043184751,0.01269052976056148]",100.0,"[0.1379671705782278,0.09042167765220627]",100.0,"[-0.02074547874722406,0.06874322895609747]",4.0,"[0.02,0.02]",305.8732,0.0,46.0,46.0,57.0,1.0,,,,,,,
,,,,,,,65fae6b84fa6b3101d2ca4b1,684428b24eb99d202ec80e93,2025-06-07_17h28.08.771,shape_ratio,2024.1.5,Win32,59.88023952,684250e4f00cb30b92d1fa88,,,,,,,,,,,305.8735,306.3726,,,306.6228,306.8563,left,0.225,,,,,,,,,0.1,,,,,,306.3727,306.6228,306.8564,"[0.0032511596217733234,0.17555730487679552]",4.0,"[-0.0911774143875741,-0.17104982943958835]",4.0,"[-0.13617781710596916,0.09766422887462992]",4.0,"[0.1940624155244151,0.046068313355571155]",4.0,"[-0.1752838731296112,-0.0515705382467571]",4.0,"[-0.03162161294622799,0.12123901439959488]",4.0,"[-0.00030073620035360194,0.06315895791561589]",4.0,"[-0.15003178979975582,0.010201580624928484]",4.0,"[0.06982361222224287,-0.022128093306377203]",4.0,"[0.06635052340250984,0.16363957204655635]",4.0,"[0.049969000905948156,-0.06924171773259177]",4.0,"[-0.07104834531551218,-0.02615313725770876]",4.0,"[-0.07346431792105741,0.04921116861334869]",100.0,"[-0.15973457455810808,0.05491943846665825]",4.0,"[-0.03055909425516288,-0.06755835219455382]",4.0,"[0.09409406672971733,-0.12067270262611339]",4.0,"[-0.08379575888557658,-0.08878620103844571]",4.0,"[0.15321752449269604,-0.013101682925865601]",4.0,"[0.007574306874844356,-0.15638541767435546]",4.0,"[0.07835082739011144,0.037208813866394325]",4.0,"[0.10646308572587429,0.15889281397183408]",100.0,"[0.11661559083626838,-0.05835597681461742]",4.0,"[0.03669565327212255,-0.12127200888438577]",4.0,"[0.19360732463440955,-0.009279475301630936]",4.0,"[-0.11150698499374294,-0.12087229351640272]",4.0,"[0.17224113923357473,-0.07994610857623788]",4.0,"[0.030421509928363476,-0.0026161411016954847]",4.0,"[0.1264316344920544,0.06073220035804062]",4.0,"[0.05690748300670265,0.09920305691957425]",4.0,"[0.12488356782053862,0.10266718627835031]",4.0,"[0.11805215185482609,0.02118180551480882]",100.0,"[0.07501031469939934,-0.1681909100164258]",4.0,"[0.02,0.02]",307.9556,0.0,47.0,47.0,183.0,1.0,,,,,,,
,,,,,,,65fae6b84fa6b3101d2ca4b1,684428b24eb99d202ec80e93,2025-06-07_17h28.08.771,shape_ratio,2024.1.5,Win32,59.88023952,684250e4f00cb30b92d1fa88,,,,,,,,,,,307.956,308.4553,,,308.7059,309.1221,left,0.4006,,,,,,,,,0.5,,,,,,308.4554,308.7059,309.1221,"[0.09111164907065326,0.08432580216977324]",4.0,"[-0.02121348118312305,0.111512231935309]",100.0,"[0.07661612033964472,-0.07634482686077425]",100.0,"[-0.17697985078240283,0.08579068603206738]",4.0,"[0.0355215944702847,0.1317762942193818]",100.0,"[-0.13561934803595194,0.10862641732643288]",100.0,"[-0.043303950645749725,-0.007822954754685798]",4.0,"[0.13692646740666864,-0.1087983992196442]",100.0,"[-0.09427173052867745,0.08542114771598569]",4.0,"[-0.020586753503627056,-0.06348151168062821]",100.0,"[-0.11031366549900522,-0.11489366358972561]",4.0,"[-0.07924221360898458,-0.1748573443370113]",4.0,"[0.17670919542182012,-0.02745030128719685]",4.0,"[-0.1384049755114613,-0.04459745527729521]",100.0,"[0.12817458647397276,-0.03290900410258405]",4.0,"[-0.07870366512111245,-0.069028299419936]",100.0,"[-0.1621154352152328,-0.008057791485658104]",100.0,"[0.06287547150706993,-0.030178846632712933]",100.0,"[0.05506586716879295,-0.1626975032262638]",100.0,"[0.04527359381497875,0.09200023309336143]",100.0,"[-0.03752123688566292,0.04489853559196539]",100.0,"[-0.0965808962078651,-0.008227919809550292]",4.0,"[0.0004262233451239197,0.18171268894203105]",4.0,"[-0.07780718524351043,0.15612854094053413]",4.0,"[0.011339424032126325,0.057687969500826816]",100.0,"[-0.017687786763665753,-0.13152696711132084]",100.0,"[0.0188037557071971,-0.1012918218318787]",4.0,"[0.020188300953078903,-0.06109375215626732]",4.0,"[0.16622902284684904,0.058720824972336334]",4.0,"[-0.12002411872973377,0.15431643262285538]",4.0,"[0.09987210494497861,0.011949591919140743]",100.0,"[0.006597240296596663,-0.0015784230464141714]",4.0,"[0.02,0.02]",310.2218,0.0,48.0,48.0,105.0,1.0,,,,,,,
,,,,,,,65fae6b84fa6b3101d2ca4b1,684428b24eb99d202ec80e93,2025-06-07_17h28.08.771,shape_ratio,2024.1.5,Win32,59.88023952,684250e4f00cb30b92d1fa88,,,,,,,,,,,310.2223,310.7215,,,310.9719,311.3382,left,0.3596,,,,,,,,,0.1,,,,,,310.7215,310.9719,311.3382,"[-0.04489844420072279,0.10197513582018629]",4.0,"[0.12753692230592845,-0.020182731284546455]",4.0,"[-0.08804112885918575,-0.059590397993960494]",4.0,"[-0.09737349910365167,0.17332781197362668]",4.0,"[0.026182611804236,-0.18253585304540793]",4.0,"[0.1486122949145009,-0.06707227587419445]",4.0,"[0.1725645780608297,-0.007065627425756369]",4.0,"[0.030806711450111875,0.05744625976589443]",100.0,"[-0.10146356296997883,-0.14536229247323582]",4.0,"[0.07355846479249807,-0.16271772641818485]",4.0,"[0.03897898740522376,-0.07314472751800266]",4.0,"[-0.1319769445139992,-0.09715950404121222]",4.0,"[0.07877544205922127,0.061003334341938456]",4.0,"[-0.14307452618015457,-0.038366078778894884]",100.0,"[-0.003106516189054114,0.15352563089098925]",4.0,"[-0.021590295612492337,-0.13795288829597427]",4.0,"[0.12884493291248256,0.059377078062737836]",4.0,"[-0.09383066257798535,0.014612561510440299]",4.0,"[0.0026946814590094567,0.1018359061141263]",100.0,"[-0.01362039832825573,-0.1954080109193867]",4.0,"[-0.04524444560511759,0.18014318668354162]",4.0,"[-0.11039865303202198,0.08709620536412317]",4.0,"[-0.15028175026515844,0.10999002167784139]",4.0,"[0.167845094908309,0.08986432013578297]",4.0,"[-0.03237320195691276,-0.09503908171139469]",4.0,"[0.09666969883576071,0.02082561806985576]",4.0,"[0.08856330410947805,-0.08015647632484978]",4.0,"[-0.026250135748114762,-0.015020124058566715]",4.0,"[0.09033349670491331,0.12326092740791335]",4.0,"[0.12955492126921841,0.1459529001964736]",4.0,"[-0.12467335987446593,0.04950189085860094]",4.0,"[-0.060583641879624985,-0.14924985801748059]",4.0,"[0.02,0.02]",312.4373,0.0,49.0,49.0,208.0,1.0,,,,,,,
