right,left,explain.started,explain.stopped,key_resp_3.keys,key_resp_3.rt,key_resp_3.duration,participant,session,date,expName,psychopyVersion,OS,frameRate,study_id,explain_2.started,explain_2.stopped,key_resp_4.keys,key_resp_4.rt,key_resp_4.duration,explain_3.started,explain_3.stopped,key_resp_5.keys,key_resp_5.rt,key_resp_5.duration,fixation.started,fixation.stopped,practice.started,practice.stopped,response.started,response.stopped,key_resp.keys,key_resp.rt,key_resp.duration,feedback.started,feedback.stopped,trials_2.thisRepN,trials_2.thisTrialN,trials_2.thisN,trials_2.thisIndex,trials_2.ran,dot_ratio,explain_4.started,explain_4.stopped,key_resp_6.keys,key_resp_6.rt,key_resp_6.duration,dotDisplay.started,dotDisplay.stopped,ITI.started,polygon_1.pos,polygon_1.edges,polygon_2.pos,polygon_2.edges,polygon_3.pos,polygon_3.edges,polygon_4.pos,polygon_4.edges,polygon_5.pos,polygon_5.edges,polygon_6.pos,polygon_6.edges,polygon_7.pos,polygon_7.edges,polygon_8.pos,polygon_8.edges,polygon_9.pos,polygon_9.edges,polygon_10.pos,polygon_10.edges,polygon_11.pos,polygon_11.edges,polygon_12.pos,polygon_12.edges,polygon_13.pos,polygon_13.edges,polygon_14.pos,polygon_14.edges,polygon_15.pos,polygon_15.edges,polygon_16.pos,polygon_16.edges,polygon_17.pos,polygon_17.edges,polygon_18.pos,polygon_18.edges,polygon_19.pos,polygon_19.edges,polygon_20.pos,polygon_20.edges,polygon_21.pos,polygon_21.edges,polygon_22.pos,polygon_22.edges,polygon_23.pos,polygon_23.edges,polygon_24.pos,polygon_24.edges,polygon_25.pos,polygon_25.edges,polygon_26.pos,polygon_26.edges,polygon_27.pos,polygon_27.edges,polygon_28.pos,polygon_28.edges,polygon_29.pos,polygon_29.edges,polygon_30.pos,polygon_30.edges,polygon_31.pos,polygon_31.edges,polygon_32.pos,polygon_32.edges,dot_size,ITI.stopped,trials.thisRepN,trials.thisTrialN,trials.thisN,trials.thisIndex,trials.ran,break_2.started,break_2.stopped,trials_3.thisRepN,trials_3.thisTrialN,trials_3.thisN,trials_3.thisIndex,trials_3.ran
subject chose diamond,subject chose dot,0.0003,67.8951,space,52.875,,65fb480482fdc3e6b207b3a7,683af21ae3210b3a91c69abc,2025-05-31_05h14.31.438,shape_ratio,2024.1.5,Win32,59.88023952,683ae9196541af24d3a69e58,,,,,,,,,,,,,,,,,,,,,,,,,,,,,,,,,,,,,,,,,,,,,,,,,,,,,,,,,,,,,,,,,,,,,,,,,,,,,,,,,,,,,,,,,,,,,,,,,,,,,,,,,,,,,,,,,
,,,,,,,65fb480482fdc3e6b207b3a7,683af21ae3210b3a91c69abc,2025-05-31_05h14.31.438,shape_ratio,2024.1.5,Win32,59.88023952,683ae9196541af24d3a69e58,67.8965,103.677,space,5.7636,,,,,,,,,,,,,,,,,,,,,,,,,,,,,,,,,,,,,,,,,,,,,,,,,,,,,,,,,,,,,,,,,,,,,,,,,,,,,,,,,,,,,,,,,,,,,,,,,,,,,,,,,,,,,
,,,,,,,65fb480482fdc3e6b207b3a7,683af21ae3210b3a91c69abc,2025-05-31_05h14.31.438,shape_ratio,2024.1.5,Win32,59.88023952,683ae9196541af24d3a69e58,,,,,,103.678,109.4289,space,2.7401,,,,,,,,,,,,,,,,,,,,,,,,,,,,,,,,,,,,,,,,,,,,,,,,,,,,,,,,,,,,,,,,,,,,,,,,,,,,,,,,,,,,,,,,,,,,,,,,,,,,,,,,
,,,,,,,65fb480482fdc3e6b207b3a7,683af21ae3210b3a91c69abc,2025-05-31_05h14.31.438,shape_ratio,2024.1.5,Win32,59.88023952,683ae9196541af24d3a69e58,,,,,,,,,,,109.5058,109.9443,109.9461,110.1963,110.1972,111.2027,left,0.9522,,111.2034,112.2957,0.0,0.0,0.0,0.0,1.0,0.2,,,,,,,,,,,,,,,,,,,,,,,,,,,,,,,,,,,,,,,,,,,,,,,,,,,,,,,,,,,,,,,,,,,,,,,,,,,,,,,,,,,,,,
,,,,,,,65fb480482fdc3e6b207b3a7,683af21ae3210b3a91c69abc,2025-05-31_05h14.31.438,shape_ratio,2024.1.5,Win32,59.88023952,683ae9196541af24d3a69e58,,,,,,,,,,,112.2984,112.7954,112.7959,113.0288,113.0289,113.5291,right,0.4861,,113.5296,114.6289,0.0,1.0,1.0,1.0,1.0,0.8,,,,,,,,,,,,,,,,,,,,,,,,,,,,,,,,,,,,,,,,,,,,,,,,,,,,,,,,,,,,,,,,,,,,,,,,,,,,,,,,,,,,,,
,,,,,,,65fb480482fdc3e6b207b3a7,683af21ae3210b3a91c69abc,2025-05-31_05h14.31.438,shape_ratio,2024.1.5,Win32,59.88023952,683ae9196541af24d3a69e58,,,,,,,,,,,,,,,,,,,,,,,,,,,,114.6304,119.8,space,2.1478,,,,,,,,,,,,,,,,,,,,,,,,,,,,,,,,,,,,,,,,,,,,,,,,,,,,,,,,,,,,,,,,,,,,,,,,,,,,,,,,,,
,,,,,,,65fb480482fdc3e6b207b3a7,683af21ae3210b3a91c69abc,2025-05-31_05h14.31.438,shape_ratio,2024.1.5,Win32,59.88023952,683ae9196541af24d3a69e58,,,,,,,,,,,119.8402,120.3151,,,120.5529,121.3506,left,0.7729,,,,,,,,,0.9,,,,,,120.3179,120.5529,121.3523,"[0.01881480587687533,-0.13926238040916658]",4.0,"[-0.14829296695094346,0.03412218344541016]",100.0,"[-0.05111030031420048,0.05088689756183605]",100.0,"[-0.17329134808450117,-0.081364302031295]",4.0,"[0.1018888017835836,-0.010136266600021931]",100.0,"[0.014905939425735933,-0.09614401691945802]",100.0,"[-0.061418955149570825,-0.07447771728895732]",100.0,"[-0.07669326822939511,0.11655442186054278]",100.0,"[-0.119584687274072,-0.15778714706569522]",100.0,"[0.16744487596560295,-0.017486184523497934]",100.0,"[-0.07572285456641534,0.16893171323895356]",100.0,"[-0.12155809336771206,0.12670396798447356]",100.0,"[-0.0039098450134277185,0.05238402925621631]",100.0,"[0.10355731718702804,-0.1105355346590147]",100.0,"[-0.13138274465990124,-0.07787305235081032]",100.0,"[0.06434024405555329,0.054484884545153656]",100.0,"[-0.023326024046184352,-0.16017800116124659]",100.0,"[-0.011816455432179228,0.17741538283090108]",4.0,"[-0.1451594970465106,-0.013439428764143009]",100.0,"[0.08604668802864199,0.12779782925203897]",100.0,"[0.10254903503184061,-0.1590338322929012]",100.0,"[0.031099478924015628,0.08627200458164128]",100.0,"[0.06361691480304385,-0.17416186809596754]",100.0,"[-0.09258711603492847,0.02294236293622654]",100.0,"[0.08078585971814232,-0.07686893771085065]",100.0,"[0.180078451905997,0.08404009697870934]",100.0,"[0.12831485180783317,0.07159073384337811]",100.0,"[-0.01810358870183338,0.1151007236775951]",100.0,"[-0.08509278665175472,-0.019939419846623164]",100.0,"[0.17281684835324773,-0.09647453194426413]",100.0,"[0.1467734598864381,-0.13365496002492613]",100.0,"[-0.00760973833904673,0.002643146908892364]",100.0,"[0.02,0.02]",122.4514,0.0,0.0,0.0,14.0,1.0,,,,,,,
,,,,,,,65fb480482fdc3e6b207b3a7,683af21ae3210b3a91c69abc,2025-05-31_05h14.31.438,shape_ratio,2024.1.5,Win32,59.88023952,683ae9196541af24d3a69e58,,,,,,,,,,,122.4532,122.9504,,,123.2013,123.7016,left,0.4886,,,,,,,,,0.55,,,,,,122.9506,123.2012,123.7018,"[-0.027094701926728363,0.04443106577389515]",4.0,"[-0.12161756042140877,0.1278215568070038]",100.0,"[0.06081220006154634,0.028803526273363297]",100.0,"[-0.08928583151215216,-0.08568367113346839]",100.0,"[0.17192558991793752,-0.02369876939833012]",100.0,"[0.137456090472855,-0.07816592970822683]",4.0,"[-0.06944512514012319,-0.12184851654111775]",100.0,"[-0.07870657710620094,0.009832521401202598]",100.0,"[-0.033048863731420026,0.12351320172199566]",4.0,"[-0.10310624054880868,-0.15682348836234378]",4.0,"[0.08713854461255292,-0.10987905620495092]",4.0,"[0.00510896602469818,-0.03568182142541042]",4.0,"[-0.15567535178433772,0.06596072019568774]",4.0,"[-0.08967235161506602,0.07392135683331344]",100.0,"[0.09950143341216465,-0.048495144381299565]",4.0,"[-0.001262013745997737,0.18668039451688268]",100.0,"[0.18944277872265422,0.05011550359730161]",100.0,"[0.14079675650966966,0.02433156858685308]",4.0,"[-0.003010186799032395,-0.10577561534563479]",4.0,"[-0.13857164791078877,-0.03784163379461664]",100.0,"[0.0624849455977809,0.1459940851335928]",100.0,"[0.08381755681680814,0.09871821071404865]",100.0,"[-0.14510394016551706,-0.09409171450792037]",4.0,"[0.15290304159675347,0.10878274728582434]",100.0,"[0.015658378645750422,0.10858379117124599]",4.0,"[0.022802325122947893,-0.1399184161414023]",100.0,"[-0.08594341606727346,0.1601934225467158]",100.0,"[-0.18810979708628686,-0.019295554940478948]",4.0,"[-0.05641211824016321,-0.057944402548618046]",100.0,"[-0.12571229738948728,0.018666657555485834]",100.0,"[0.19825163706209348,0.00925344752862686]",4.0,"[0.033500937827421966,-0.08891565072928466]",100.0,"[0.02,0.02]",124.8003,0.0,1.0,1.0,77.0,1.0,,,,,,,
,,,,,,,65fb480482fdc3e6b207b3a7,683af21ae3210b3a91c69abc,2025-05-31_05h14.31.438,shape_ratio,2024.1.5,Win32,59.88023952,683ae9196541af24d3a69e58,,,,,,,,,,,124.8018,125.3006,,,125.5525,126.0516,right,0.4824,,,,,,,,,0.55,,,,,,125.3007,125.5523,126.0517,"[-0.036213396270654195,0.018374826952576893]",4.0,"[0.12904899797317376,-0.010523065797426954]",100.0,"[0.0005318625977031432,-0.04155415668580854]",100.0,"[0.029352739141007562,-0.08782511330282501]",100.0,"[-0.04802698662403837,-0.05225072871316359]",4.0,"[-0.04547364310202981,0.14325413619964925]",100.0,"[-0.1262301216662489,0.09487521632797352]",100.0,"[0.07786093068760067,-0.09506354619700728]",4.0,"[0.11968650298994464,-0.1551304747726979]",100.0,"[0.17828243666365576,-0.03902593238721166]",4.0,"[-0.08576497637126526,-0.10047206656823053]",4.0,"[0.0005106606142698516,0.05800991517929802]",4.0,"[-0.1888283066468123,-0.04138372792217539]",100.0,"[0.03950220340371206,0.09115919660544275]",100.0,"[0.09643668062517549,0.08485101653302243]",4.0,"[0.025871490936809037,0.1752451026583255]",100.0,"[0.12502251183372434,-0.10447319046412189]",100.0,"[0.15788135196149278,0.05865297972451068]",100.0,"[0.01306117145341451,-0.18581282939288585]",4.0,"[0.036553720113101616,0.13434356049492704]",100.0,"[-0.040741281444164626,-0.13251997249899158]",100.0,"[0.0838963024235858,-0.17932870567152387]",4.0,"[-0.0968829663809761,-0.13978579422773013]",100.0,"[0.09999343205547509,0.15890083041770692]",4.0,"[0.00430810775426735,-0.13216557428267262]",100.0,"[0.03292325213878131,-0.00589324059497845]",100.0,"[0.13904448875913955,0.10605025691590707]",100.0,"[-0.17549597917952175,0.01507739004199603]",4.0,"[-0.010995864411200805,0.1907847150152068]",4.0,"[0.1728680236572606,0.007395857543006776]",4.0,"[0.11953259786885553,-0.050496745640985274]",4.0,"[-0.08631500060132687,0.008864929989977458]",100.0,"[0.02,0.02]",127.1517,0.0,2.0,2.0,63.0,1.0,,,,,,,
,,,,,,,65fb480482fdc3e6b207b3a7,683af21ae3210b3a91c69abc,2025-05-31_05h14.31.438,shape_ratio,2024.1.5,Win32,59.88023952,683ae9196541af24d3a69e58,,,,,,,,,,,127.1538,127.652,,,127.904,128.2192,left,0.3004,,,,,,,,,0.1,,,,,,127.6522,127.9039,128.2195,"[0.0370471046834638,-0.11718506212370554]",4.0,"[-0.18055867485853272,0.003150841195500349]",4.0,"[0.07970471876934071,0.001984558221196063]",4.0,"[0.0027847626254843883,0.13141688603808832]",4.0,"[-0.01465724274693846,-0.08716853639855342]",4.0,"[0.09103850913846961,0.10092484723957561]",4.0,"[-0.10667055398256678,0.1430071796807648]",4.0,"[-0.04851790467686877,-0.03182385145261643]",4.0,"[0.01754068867587488,0.046877913701213914]",4.0,"[0.012941724498661872,-0.17447727412520614]",4.0,"[-0.10203780091082736,-0.06521207431008971]",4.0,"[-0.07912823482106694,0.09129624337780058]",100.0,"[-0.0062705243900856465,-0.025014568939140936]",4.0,"[-0.05246830520935416,0.1828964646036955]",4.0,"[0.03954796820921331,0.19429802458177997]",4.0,"[0.16704363693427657,-0.09039403517407472]",4.0,"[-0.03254776955211427,0.019154783023682852]",4.0,"[0.06370332839764067,-0.1569649219749207]",4.0,"[-0.14046073816251223,-0.03770630963203384]",4.0,"[-0.09125174707434729,-0.012861020312935708]",100.0,"[0.13452027664505248,0.12626082756667492]",4.0,"[0.16714822317940886,-0.017117918982674663]",4.0,"[-0.15312940994655896,0.11024969668835313]",4.0,"[-0.011435921878644058,0.08971597415482253]",100.0,"[0.12477935320846363,-0.04235057564555409]",4.0,"[-0.17294828303036056,-0.07097718728440616]",4.0,"[0.08031534751676699,-0.08378590070654036]",4.0,"[0.10511129952752825,-0.12008927337812207]",4.0,"[-0.002172385242800698,0.18840415286462167]",4.0,"[-0.12414882279173738,0.030403112867733607]",4.0,"[0.18095098856851496,0.06229630473538677]",4.0,"[-0.06511825694676333,0.13403827661550513]",4.0,"[0.02,0.02]",129.3193,0.0,3.0,3.0,180.0,1.0,,,,,,,
,,,,,,,65fb480482fdc3e6b207b3a7,683af21ae3210b3a91c69abc,2025-05-31_05h14.31.438,shape_ratio,2024.1.5,Win32,59.88023952,683ae9196541af24d3a69e58,,,,,,,,,,,129.3215,129.8195,,,130.0699,130.3202,right,0.2385,,,,,,,,,0.55,,,,,,129.8197,130.0698,130.3207,"[-0.07739203541058835,0.1281489678704993]",4.0,"[-0.17236764031663865,0.09482256037581839]",4.0,"[0.015329958712379016,0.021337629051819282]",100.0,"[0.1653949691421188,-0.013011775987563865]",100.0,"[-0.03712873457946176,0.08915004936685929]",4.0,"[0.010298020660577776,0.06467506229467779]",4.0,"[0.14618279624975145,0.0595446388011747]",4.0,"[-0.022277351108157803,-0.15059967910929203]",100.0,"[-0.02628585114887944,0.193150237978225]",100.0,"[-0.16434855544378518,-0.10492760380368213]",4.0,"[0.056385063626120634,0.05900239708063347]",100.0,"[-0.09711669916750743,-0.13425810039286928]",100.0,"[0.13133239083895834,-0.07686497810532365]",4.0,"[-0.1186964379103693,-0.0031353789371126243]",100.0,"[-0.12024241391593467,0.10588057081796204]",100.0,"[0.03182336777664625,0.16876820058931524]",100.0,"[0.07865547501477729,-0.11193579877437994]",100.0,"[-0.18643312212085453,0.005627080906833101]",100.0,"[0.1298035666719175,0.006590364266700703]",100.0,"[0.10605404540465453,0.09283064203393573]",100.0,"[0.0334751653476498,-0.040073970337094936]",4.0,"[-0.06788172051634114,-0.07373853900619008]",4.0,"[0.13214744646343327,-0.14738843250891898]",4.0,"[-0.045236836273949255,0.004806925851173894]",4.0,"[-0.10879953285139213,-0.0645868781280005]",100.0,"[0.0688089134926785,0.12679526906139596]",100.0,"[0.12456947361999902,0.13593551542917737]",100.0,"[-0.08139630471924353,0.027774710099916295]",4.0,"[-0.07191270046709386,-0.03138868972857154]",100.0,"[0.03894987803915321,-0.08656878433197362]",4.0,"[-0.14738103449800355,0.06040814349486186]",100.0,"[0.019707591772627642,-0.13800548786905467]",4.0,"[0.02,0.02]",131.4201,0.0,4.0,4.0,65.0,1.0,,,,,,,
,,,,,,,65fb480482fdc3e6b207b3a7,683af21ae3210b3a91c69abc,2025-05-31_05h14.31.438,shape_ratio,2024.1.5,Win32,59.88023952,683ae9196541af24d3a69e58,,,,,,,,,,,131.4215,131.9202,,,132.1729,132.2198,left,0.0352,,,,,,,,,0.5,,,,,,131.9205,132.1727,132.22,"[-0.09503517342321628,0.13617435968707767]",4.0,"[-0.0257483133719701,0.05392963840552972]",4.0,"[0.08021875986042765,0.073108158029538]",4.0,"[-0.035004201979642206,0.195805978739186]",100.0,"[0.013811225987018477,0.10523916116640222]",100.0,"[-0.10688041044254827,-0.042816273985833014]",4.0,"[-0.04434273737049264,0.014219531302550645]",4.0,"[0.0041187611343676735,-0.11070914692481704]",4.0,"[-0.10005941663698709,-0.12145599676654904]",4.0,"[0.1059935737194915,-0.12208733768151221]",100.0,"[-0.07936441588708126,0.057341026122501144]",100.0,"[0.08539227888658539,-0.05222241145573488]",4.0,"[0.19130128053046191,0.04760324615014717]",100.0,"[-0.07429010415990095,-0.08433507290772747]",4.0,"[0.13873532167172767,0.10148496054973913]",4.0,"[0.11166123125634383,0.01522010674889229]",100.0,"[0.046577306638722324,0.1571962964037681]",100.0,"[0.0744316938848628,-0.15649367562381905]",4.0,"[0.16408143375577697,-0.02668372612447654]",100.0,"[0.011654702107059172,-0.005861191807466818]",4.0,"[-0.12383121880373667,0.08791478651537397]",4.0,"[-0.0017360826532746498,-0.1870470599323556]",100.0,"[-0.06988638204100188,-0.15081700407972146]",100.0,"[-0.1569529204069204,0.0512164662052608]",4.0,"[-0.14422351667059435,-0.0017110376317737237]",4.0,"[-0.025317901701804615,-0.05050227759251136]",4.0,"[-0.01752651143280229,0.1480218499823785]",100.0,"[0.07612719518095748,0.1282937276963009]",100.0,"[-0.1463916542827026,-0.12848061277021414]",100.0,"[0.05361180755205365,-0.09729162432434794]",100.0,"[0.036150041343718145,0.03583670200719983]",100.0,"[-0.04794727003677235,0.09377435461486713]",100.0,"[0.02,0.02]",133.321,0.0,5.0,5.0,94.0,1.0,,,,,,,
,,,,,,,65fb480482fdc3e6b207b3a7,683af21ae3210b3a91c69abc,2025-05-31_05h14.31.438,shape_ratio,2024.1.5,Win32,59.88023952,683ae9196541af24d3a69e58,,,,,,,,,,,133.3224,133.821,,,134.0727,134.3051,left,0.2193,,,,,,,,,0.1,,,,,,133.8211,134.0727,134.3053,"[-0.051614008123892316,-0.12788800788679353]",4.0,"[0.04734063595415595,0.05768805517996044]",4.0,"[0.0621666029444065,0.10531448582498099]",4.0,"[0.0819511933108286,-0.03685727183269077]",4.0,"[0.09753939928023074,-0.14002126575066579]",4.0,"[0.018061951538015625,-0.12268578737662995]",4.0,"[0.03173902443039889,-0.19314709570449623]",4.0,"[-0.1877817318357192,0.01589441447288851]",4.0,"[-0.13103824311873372,0.026675068076255068]",4.0,"[0.14916640427792685,-0.04436046246048218]",100.0,"[0.004954829901468706,0.005059711884804825]",4.0,"[-0.1415932492420441,-0.030733523202582037]",4.0,"[-0.0501915979649276,0.08822980100403859]",4.0,"[-0.09747881507615386,0.06969993714079446]",4.0,"[-0.04808020076561995,-0.18101203081236888]",4.0,"[-0.010848379042229097,0.13426536990478458]",100.0,"[0.18450376693202458,0.07096548520741568]",4.0,"[-0.05166176986238668,0.04533288899542028]",4.0,"[0.14527363832269205,0.08354496668747527]",100.0,"[0.10541915885704119,0.00787171421506511]",4.0,"[0.02257612149729909,0.19497873970350943]",4.0,"[-0.051779782533556216,0.1605074785731296]",4.0,"[-0.09252498355373798,0.13437123012608082]",4.0,"[-0.056698375186412235,-0.02108759556982642]",4.0,"[-0.13736823250425498,-0.1188311352883598]",4.0,"[0.18245907888709323,-0.010163157277956372]",4.0,"[-0.0008024613109510765,-0.16019213520835446]",4.0,"[0.14753772828197736,0.018231252087213642]",4.0,"[-0.08878508224124333,-0.10046910301347522]",4.0,"[0.012541023472882029,0.08640757984082822]",4.0,"[-0.03937830469669574,-0.08625537183990455]",4.0,"[-0.16588968084993144,-0.09027080848098172]",4.0,"[0.02,0.02]",135.405,0.0,6.0,6.0,185.0,1.0,,,,,,,
,,,,,,,65fb480482fdc3e6b207b3a7,683af21ae3210b3a91c69abc,2025-05-31_05h14.31.438,shape_ratio,2024.1.5,Win32,59.88023952,683ae9196541af24d3a69e58,,,,,,,,,,,135.407,135.9054,,,136.1569,136.3896,left,0.2192,,,,,,,,,0.6,,,,,,135.9054,136.1568,136.3898,"[0.0015666145003965675,-0.0008568080633314282]",4.0,"[0.045563097964527795,0.15481790624467662]",100.0,"[-0.1389073881290741,-0.028722663974187858]",100.0,"[0.1393750630819998,-0.10995279311671896]",100.0,"[0.14487019605888293,0.01983736826734943]",100.0,"[-0.1648180295843309,0.07350877742905548]",100.0,"[0.024881981030982683,-0.08609904007501151]",100.0,"[0.17598812854382326,-0.03741773476493205]",4.0,"[-0.16587415828592458,0.02717608352131794]",100.0,"[-0.13145032757616074,-0.14262091131909582]",4.0,"[-0.09722126161105948,0.10578050164118037]",100.0,"[-0.10633210695492869,0.028751169305585578]",100.0,"[-0.07216624171557508,-0.039839103486018435]",100.0,"[-0.06520288301059159,0.039738238314062584]",100.0,"[-0.003679489336989952,0.08179705465306827]",100.0,"[0.03638353400396656,-0.1489745649170276]",100.0,"[0.10451850138192618,-0.14813584271477345]",4.0,"[0.08733158888836477,0.09956134908407659]",100.0,"[0.0019204962811768258,0.15195193409176344]",4.0,"[0.18978494374781077,0.03215961705590982]",100.0,"[-0.03761735862194512,-0.12664695534130346]",4.0,"[-0.10513501613644295,-0.10208561579717343]",100.0,"[-0.16876470416906622,-0.09974227017458086]",4.0,"[-0.08773034819674161,-0.1611612748944064]",4.0,"[0.08027455546808256,0.02569175549477521]",100.0,"[0.13399018336986795,0.11043982186458907]",100.0,"[0.03807465259965083,-0.02452436538654083]",4.0,"[0.019012039936924498,0.046795383328265716]",100.0,"[0.18132058292606493,-0.08181016986094733]",4.0,"[-0.08427677166576662,0.15950165927983326]",4.0,"[0.0826330572934605,-0.09066292185961194]",4.0,"[0.11002199432761593,-0.05475325744855337]",4.0,"[0.02,0.02]",137.4896,0.0,7.0,7.0,40.0,1.0,,,,,,,
,,,,,,,65fb480482fdc3e6b207b3a7,683af21ae3210b3a91c69abc,2025-05-31_05h14.31.438,shape_ratio,2024.1.5,Win32,59.88023952,683ae9196541af24d3a69e58,,,,,,,,,,,137.4918,137.9901,,,138.2412,138.2741,right,0.019,,,,,,,,,0.45,,,,,,137.9903,138.2412,138.2742,"[0.04963770949429634,0.1283934064824014]",4.0,"[-0.05868109052064625,0.1299408924097461]",100.0,"[-0.09866697244687132,-0.08079047627321466]",4.0,"[-0.02227898998560118,0.09495796069466805]",100.0,"[0.04312885253834473,-0.11001093306543677]",100.0,"[0.17261164088670705,0.06726517542458967]",100.0,"[0.1526409247327551,-0.11944365182986015]",100.0,"[-0.034491515205878856,-0.04604817106452674]",4.0,"[0.1426394271340544,-0.00016112985741421678]",100.0,"[0.1208066522022398,-0.15870494292111653]",4.0,"[0.09268762955487551,-0.0983528282501983]",4.0,"[-0.1346209252029256,0.08030105112260483]",100.0,"[-0.16554978253150535,0.04906394296800377]",4.0,"[0.006811483526016093,0.05874333331667409]",100.0,"[0.020029485896597473,0.015362352101461196]",4.0,"[0.057246851914740965,-0.17158991982047841]",4.0,"[0.08644334625953407,-0.02944029255517026]",100.0,"[0.1107245304594347,0.16360856148544972]",4.0,"[-0.052173888246033404,-0.09243719328584037]",4.0,"[0.10709278736242701,0.11799022992160976]",100.0,"[0.021908169082687567,-0.06166094235566338]",4.0,"[-0.08465079990751041,-0.1409904838223625]",100.0,"[-0.1330551433610464,-0.006931629348878269]",4.0,"[0.07938818018505903,-0.13746095965620614]",4.0,"[-0.09916430819672702,0.04532618940858216]",4.0,"[0.012994415762893329,-0.14411519908426537]",100.0,"[0.09935931884437925,0.01854111105437384]",4.0,"[-0.09696441986563753,0.16709289091373813]",4.0,"[-0.0968799956753921,-0.03187466505931502]",4.0,"[-0.13741216016835692,-0.1354344740885523]",100.0,"[0.18078883978281596,0.02354471668688664]",100.0,"[0.1547492716102419,-0.07719061180617844]",4.0,"[0.02,0.02]",139.3739,0.0,8.0,8.0,145.0,1.0,,,,,,,
,,,,,,,65fb480482fdc3e6b207b3a7,683af21ae3210b3a91c69abc,2025-05-31_05h14.31.438,shape_ratio,2024.1.5,Win32,59.88023952,683ae9196541af24d3a69e58,,,,,,,,,,,139.3749,139.8739,,,140.1246,140.2246,left,0.0855,,,,,,,,,0.4,,,,,,139.8741,140.1245,140.2247,"[0.11869893793902069,0.03175589644840936]",100.0,"[-0.07749259486114997,-0.17710270299537187]",100.0,"[-0.15442601787634766,-0.052753708503166886]",100.0,"[-0.03669204154837242,-0.15745118864056767]",4.0,"[0.06217901120264581,0.04131477572353124]",4.0,"[0.04614576142293986,0.10956157091484503]",4.0,"[-0.020219776266017165,-0.09330909008377022]",4.0,"[-0.007551343888002287,0.13557929598999832]",4.0,"[0.13814718793708453,0.06767449121178408]",4.0,"[0.0002754246394975259,0.19027003477816276]",4.0,"[-0.11380569928402287,0.12748691922522098]",4.0,"[-0.009829503849006377,0.08074761514395735]",100.0,"[0.08725757413994459,0.0836442724945885]",4.0,"[0.06957435543810114,-0.08134072595604548]",100.0,"[0.07578640274592706,-0.011092936578847174]",4.0,"[-0.1665591531007722,0.09814512123742308]",4.0,"[-0.010165248371065241,-0.04040775651776284]",100.0,"[-0.15729161188791188,-0.0026469469204168667]",100.0,"[0.04281032162819261,-0.15525372307172086]",4.0,"[-0.06637095271226075,-0.08431149730121167]",100.0,"[-0.05378051095876343,0.1258219943577076]",4.0,"[0.09484613121353926,0.13747131527941744]",4.0,"[0.14312741307466006,-0.0982290756549584]",100.0,"[-0.0889842751401328,0.024955319878707926]",4.0,"[0.018227190425667006,0.038584583616597855]",4.0,"[-0.13238300363599215,0.04413884331996305]",100.0,"[0.008458643840354076,-0.18660974509831574]",4.0,"[-0.10269707150152835,0.08568117791373062]",4.0,"[-0.012818265091383046,0.009173880438064795]",4.0,"[-0.08535368907833712,-0.1294251957764027]",100.0,"[0.04476669146731459,-0.049683430095117394]",100.0,"[-0.055086624550133925,-0.04367531765917046]",100.0,"[0.02,0.02]",141.3243,0.0,9.0,9.0,162.0,1.0,,,,,,,
,,,,,,,65fb480482fdc3e6b207b3a7,683af21ae3210b3a91c69abc,2025-05-31_05h14.31.438,shape_ratio,2024.1.5,Win32,59.88023952,683ae9196541af24d3a69e58,,,,,,,,,,,141.3257,141.8247,,,142.0765,142.1587,right,0.0678,,,,,,,,,0.4,,,,,,141.8248,142.0763,142.1589,"[-0.11991395698370311,0.06783052263328357]",4.0,"[0.1075592640885879,0.024220542844710008]",4.0,"[0.09877970080730594,0.1485215332603506]",100.0,"[-0.17613595909703159,-0.06434523119226812]",4.0,"[0.09050499406955921,-0.1561663176180797]",100.0,"[-0.00819152002567186,0.011764420834951472]",100.0,"[0.029037803001459507,-0.16294085584816476]",4.0,"[0.16400309619722428,0.054364316199000375]",4.0,"[0.045127910695615545,0.03049031471057297]",100.0,"[-0.07949078101266341,0.11309926817032182]",4.0,"[-0.14771540255874838,-0.12025465428232322]",4.0,"[0.02397020268054317,0.18061442866015603]",4.0,"[-0.02114029426879982,-0.09886573563563524]",100.0,"[0.17774745546875864,-0.04462324206819583]",4.0,"[0.13963044511177172,-0.014362137092198453]",4.0,"[-0.03488870483311597,0.0511398432743166]",4.0,"[0.10909441587666467,-0.10849253152873801]",4.0,"[-0.1750013100807781,0.04731502806406742]",4.0,"[-0.034408541566202086,-0.19269009723341998]",100.0,"[0.0837758970307859,-0.04164950081647039]",4.0,"[0.01795554959536399,-0.058212677313233145]",4.0,"[0.05227497886688049,-0.1104216575455673]",100.0,"[0.039782733621861334,0.07567183320956745]",100.0,"[-0.048012873265170494,0.19274239429857568]",4.0,"[0.07417893633357855,0.09844508427006735]",100.0,"[0.13683373881747787,0.10566906890822608]",4.0,"[-0.10090496413081772,0.0035629133183909113]",100.0,"[0.13727963964434256,-0.13751170632360693]",4.0,"[-0.01827730300596053,-0.03977322418101105]",100.0,"[-0.11874114751735634,-0.05256086882970155]",100.0,"[-0.006022322180017819,0.09470270385650956]",100.0,"[0.0626387258527708,0.16931768960266394]",4.0,"[0.02,0.02]",143.2608,0.0,10.0,10.0,170.0,1.0,,,,,,,
,,,,,,,65fb480482fdc3e6b207b3a7,683af21ae3210b3a91c69abc,2025-05-31_05h14.31.438,shape_ratio,2024.1.5,Win32,59.88023952,683ae9196541af24d3a69e58,,,,,,,,,,,143.2623,143.7592,,,144.0103,144.5262,right,0.498,,,,,,,,,0.45,,,,,,143.7593,144.0102,144.5264,"[0.12773534620207333,0.12343445468274042]",4.0,"[-0.08639207626511552,0.14480763899100005]",4.0,"[0.012039506553563438,-0.09514231752040539]",100.0,"[-0.17087563240252093,0.030651215748347494]",4.0,"[-0.09488069149205494,-0.022862747861996845]",100.0,"[-0.019868781390891165,0.06249705795760123]",100.0,"[-0.01977488110131882,0.1439092920957303]",4.0,"[-0.034175380365963993,-0.08202702628651318]",4.0,"[0.06653095795869038,0.08511354510062683]",100.0,"[-0.1307073295736427,-0.14092894680961887]",4.0,"[0.17144267659534462,0.007020605185583712]",4.0,"[0.06860082187479127,0.018343476223329373]",4.0,"[-0.09901207544717884,0.09820238471072919]",4.0,"[0.11152714493527022,-0.15182603674633519]",4.0,"[0.05752466020996521,0.17775198989780538]",100.0,"[-0.05003494641576855,0.1036435490146568]",100.0,"[-0.1267489215416157,-0.056772063137904984]",4.0,"[0.002534884263064952,-0.03433817711137203]",100.0,"[0.054635554794879915,-0.133522742928667]",4.0,"[-0.08481414067673965,-0.16155492236906877]",100.0,"[-0.06231502964047817,0.024693528296729526]",100.0,"[-0.1638361373644942,-0.10983404610179894]",4.0,"[0.1360178484711849,0.08166923115246683]",100.0,"[-0.05590818743396792,0.17274097785061143]",4.0,"[0.09766071112420106,-0.012088509073111202]",100.0,"[0.16275605485206138,-0.10056264010626459]",100.0,"[-0.1902820195546893,-0.02474370041506495]",4.0,"[0.029356703494030426,0.10258832529079596]",100.0,"[0.022926807946516376,0.05434094412785223]",4.0,"[0.07303297553660627,0.13749092273401212]",4.0,"[-0.02598035528491502,0.0010134012582566432]",4.0,"[-0.019130370037307727,-0.14091513121236537]",100.0,"[0.02,0.02]",145.6264,0.0,11.0,11.0,136.0,1.0,,,,,,,
,,,,,,,65fb480482fdc3e6b207b3a7,683af21ae3210b3a91c69abc,2025-05-31_05h14.31.438,shape_ratio,2024.1.5,Win32,59.88023952,683ae9196541af24d3a69e58,,,,,,,,,,,145.6276,146.1266,,,146.3784,146.5773,right,0.1829,,,,,,,,,0.9,,,,,,146.1267,146.3782,146.5774,"[-0.0931355131198674,-0.080567331212742]",100.0,"[0.03120780356635354,-0.15221765402229678]",100.0,"[0.10734726588325032,0.026472097821000847]",100.0,"[-0.13551117476073213,-0.03030755985846753]",100.0,"[-0.15334508206934977,0.10520330166816001]",4.0,"[0.002868503472296054,0.008563770812265259]",100.0,"[0.014725958162480353,0.13912622546960463]",100.0,"[-0.04411649532632145,0.07091501520189668]",4.0,"[0.0002950566387844797,0.06999940934437457]",100.0,"[0.15234375897890792,-0.0980315633074231]",100.0,"[-0.0518789405533304,-0.06635688190845963]",100.0,"[0.16386426244314709,0.051087299250477024]",100.0,"[0.14668250425884943,-0.030240023240111286]",4.0,"[0.0940735209989347,-0.03512632380849218]",100.0,"[0.05594694041082004,0.04377121441412995]",100.0,"[-0.044550641517919334,-0.1282431646245981]",100.0,"[-0.1125157238887735,-0.11858427162248124]",100.0,"[-0.18485148645533925,0.018768333810195822]",100.0,"[-0.048964815392976764,0.15384530783164735]",100.0,"[0.08523977758701694,-0.07849153886146054]",100.0,"[-0.12058978636339412,0.026828978990798648]",100.0,"[0.021692479953950475,-0.10384800197097255]",100.0,"[0.09462762444110388,0.15923427922554004]",100.0,"[-0.0786836034313157,0.11617993278076852]",100.0,"[-0.06749527419297378,-0.1704574955706322]",100.0,"[0.11549668289659427,-0.145666820758202]",100.0,"[-0.11825811076713331,0.153361917218117]",100.0,"[-0.03321988099257142,-0.01980598547303867]",100.0,"[0.040504270926982174,0.17345884587113347]",100.0,"[0.07999548372379889,0.08940406953030361]",100.0,"[-0.003760674451016633,-0.19022983201152385]",100.0,"[-0.04263173864421459,0.02061347363321207]",100.0,"[0.02,0.02]",147.6773,0.0,12.0,12.0,20.0,1.0,,,,,,,
,,,,,,,65fb480482fdc3e6b207b3a7,683af21ae3210b3a91c69abc,2025-05-31_05h14.31.438,shape_ratio,2024.1.5,Win32,59.88023952,683ae9196541af24d3a69e58,,,,,,,,,,,147.6785,148.1776,,,148.429,149.196,right,0.751,,,,,,,,,0.1,,,,,,148.1777,148.4289,149.196,"[-0.07634856809024224,-0.062355452764417216]",4.0,"[-0.01067916506955973,0.10906753990167675]",4.0,"[-0.03727627982115214,0.06345648329221731]",4.0,"[0.09046838739917697,-0.04076473679031122]",4.0,"[-0.10201967217954824,0.002810855550109935]",4.0,"[0.02726218092887878,0.14544141720611]",4.0,"[-0.012440713124178212,0.16740046115538074]",100.0,"[-0.15347741091077527,0.08608406631790186]",4.0,"[0.03712221084445779,-0.06214559095095857]",100.0,"[0.12588512382814662,-0.12543691501441412]",4.0,"[0.13002073243210183,-0.04723274524429663]",4.0,"[0.07671224818598625,0.14174249975812542]",4.0,"[-0.10161946897977026,-0.13600782554873406]",4.0,"[-0.14282115119200936,-0.04107890253546097]",4.0,"[-0.0657840616734014,-0.16162966497067796]",4.0,"[0.05425133472477739,0.1073083081820697]",4.0,"[-0.06004139523469859,0.12503875766705896]",4.0,"[-0.10002474066471596,0.1708284632588263]",4.0,"[-0.018169094663923666,-0.17803962463159229]",4.0,"[0.014916951744093486,0.04650326771009534]",4.0,"[-0.012881275181092312,-0.08761729386443759]",4.0,"[0.07663906670713046,-0.0799479609517125]",4.0,"[0.17195226780388764,0.08479456312662635]",4.0,"[-0.15037646757879986,0.028793810864992306]",4.0,"[-0.04961678459511658,-0.009003661434492334]",4.0,"[0.060178046098230166,-0.18771104241824932]",4.0,"[0.05716238436176432,0.04199137302257918]",4.0,"[0.1643661738864036,-0.002604505545573725]",4.0,"[0.12697190141236125,0.1004381502011865]",4.0,"[0.008664488230493088,-0.14078906408002656]",100.0,"[0.13371358048309112,0.028636548678188028]",4.0,"[-0.009954255145033617,0.013844888254481815]",4.0,"[0.02,0.02]",150.2953,0.0,13.0,13.0,193.0,1.0,,,,,,,
,,,,,,,65fb480482fdc3e6b207b3a7,683af21ae3210b3a91c69abc,2025-05-31_05h14.31.438,shape_ratio,2024.1.5,Win32,59.88023952,683ae9196541af24d3a69e58,,,,,,,,,,,150.2964,150.7955,,,151.0471,151.113,left,0.0516,,,,,,,,,0.9,,,,,,150.7955,151.0469,151.1131,"[-0.01397213780487772,-0.15820139958175206]",100.0,"[0.054644965713957876,0.08812586806735966]",100.0,"[0.015002784634253254,-0.04112441055898218]",100.0,"[0.09680147489722618,0.01822804938630876]",100.0,"[-0.025443626546795627,0.09407272704761344]",100.0,"[-0.0606410493762172,-0.007165249155598112]",100.0,"[-0.13585015672229822,0.04630204918616022]",100.0,"[0.04833351849217609,-0.1329828884707291]",4.0,"[-0.11320800679798136,0.011582466881062858]",4.0,"[0.13165969834822144,0.11932969784005497]",100.0,"[-0.17596914622165402,-0.04791317514314464]",100.0,"[0.15326757104373048,-0.09281674687981041]",100.0,"[0.14039096544652205,-0.14012959520992047]",100.0,"[0.08801352128837858,-0.1503443544236044]",100.0,"[-0.05416288586436158,0.12984381907083103]",100.0,"[-0.10546534333636248,0.1582106078921038]",100.0,"[0.056173088426428035,0.008824096993439433]",100.0,"[-0.07003465804983895,0.07903444171114368]",100.0,"[0.15799658799366773,-0.01320526211553904]",4.0,"[0.08740376449413319,-0.052343920677562425]",100.0,"[0.0922043769877916,0.14900146819568247]",100.0,"[-0.18777037267209373,0.06803265803521]",100.0,"[-0.1310660009748667,0.12520966023538324]",100.0,"[0.13663220585800437,0.05503934480663777]",100.0,"[-0.1127593189244627,-0.12803359046383972]",100.0,"[-0.19729455113613584,0.026679145210334113]",100.0,"[0.050203332507156834,0.16898359307930919]",100.0,"[0.13298449766001785,-0.04639638767362139]",100.0,"[-0.07838902404245289,0.037852474481488506]",100.0,"[0.17057386674625072,0.07731994859171137]",100.0,"[-0.0032265361196446916,-0.10368055121002143]",100.0,"[-0.0344725026844122,0.054027798613578]",100.0,"[0.02,0.02]",152.2129,0.0,14.0,14.0,0.0,1.0,,,,,,,
,,,,,,,65fb480482fdc3e6b207b3a7,683af21ae3210b3a91c69abc,2025-05-31_05h14.31.438,shape_ratio,2024.1.5,Win32,59.88023952,683ae9196541af24d3a69e58,,,,,,,,,,,152.214,152.713,,,152.9642,153.3304,right,0.3513,,,,,,,,,0.6,,,,,,152.713,152.9642,153.3306,"[-0.09961408858063382,-0.15135142779617522]",100.0,"[-0.1994668521645443,-0.0026865612868579606]",4.0,"[0.1869020326050107,-0.07104281066943399]",4.0,"[-0.053705234468803584,0.11409056623206039]",4.0,"[0.18928839282202523,0.06308922975053115]",100.0,"[-0.0175101047999253,-0.08768270444423763]",100.0,"[-0.1517381550774284,0.10400614155699998]",100.0,"[-0.13434103085061294,-0.020459750922336227]",4.0,"[0.11688429207396386,-0.026087077939535276]",100.0,"[0.12743005616195144,-0.11845902571220752]",4.0,"[-0.058206262226319944,-0.12292342032562871]",4.0,"[0.06850276484434051,-0.16299984410686486]",100.0,"[0.08415617934201117,-0.095905531156196]",100.0,"[-0.07365567535098715,-0.015800162238203276]",4.0,"[0.09745614850879143,0.12234418396492897]",100.0,"[0.1388642480156011,0.09912312357358634]",100.0,"[0.14917732764155134,0.05786969516298578]",4.0,"[0.04672880368080008,0.08627574269897857]",100.0,"[0.011468034428623911,-0.03607379164372482]",100.0,"[-0.003931443836191656,0.008696715274501141]",4.0,"[0.006529150375238836,0.1601917106637172]",100.0,"[0.03476006337013632,-0.102936038263026]",100.0,"[0.05515033758034265,-0.06312210738599132]",100.0,"[-0.09944971616973114,-0.0794723796038817]",4.0,"[-0.0809965897424292,0.041434702832478264]",4.0,"[-0.029964711507088678,-0.18774996101673178]",100.0,"[0.035910061224477464,0.041469962532585135]",100.0,"[0.003500779785133954,0.0718833559275157]",100.0,"[-0.1359008904942891,0.06453536252457805]",100.0,"[0.06986509339802935,-0.0028495536936546527]",100.0,"[-0.09687529822314409,0.09944308245383819]",4.0,"[-0.03932094131190142,0.030205572113382585]",4.0,"[0.02,0.02]",154.4303,0.0,15.0,15.0,46.0,1.0,,,,,,,
,,,,,,,65fb480482fdc3e6b207b3a7,683af21ae3210b3a91c69abc,2025-05-31_05h14.31.438,shape_ratio,2024.1.5,Win32,59.88023952,683ae9196541af24d3a69e58,,,,,,,,,,,154.4315,154.9308,,,155.182,155.5647,left,0.3693,,,,,,,,,0.45,,,,,,154.931,155.182,155.5649,"[0.17584574477954046,-0.054056109137635935]",4.0,"[-0.19076675912711588,-0.004010657031040677]",4.0,"[0.06185836679105511,-0.1618538017868464]",4.0,"[0.006075422018923562,0.13494634005936917]",4.0,"[-0.04114836791502007,-0.18624889470044834]",4.0,"[-0.07790437130326791,0.0675440859054515]",4.0,"[0.15937361982428017,0.007336535901909965]",4.0,"[0.06216263994218341,0.15179134878567582]",100.0,"[-0.13241477609191657,0.019958232971789544]",100.0,"[0.07955569760899588,-0.09961291791862813]",100.0,"[0.09479027623570112,0.10542879668450254]",4.0,"[0.09026578662684644,-0.01513144850491957]",100.0,"[0.1683623067091284,-0.10145183013898722]",100.0,"[0.027400528063283122,0.09139864094379072]",4.0,"[-0.011951917086437553,-0.07272924910889475]",100.0,"[-0.011507923615285652,0.03939055969865731]",4.0,"[-0.05813643302919533,-0.00042521266446245257]",100.0,"[0.029567650899120595,0.010471438980547886]",100.0,"[-0.10210470277973258,0.1311305112168021]",100.0,"[-0.06052642522808326,0.18550648465477243]",100.0,"[-0.03955917147052076,0.09588405820192798]",4.0,"[-0.10829943033851945,-0.04732207079795705]",4.0,"[-0.08809172098696844,-0.14993365860870017]",4.0,"[0.07154515812850672,0.04707953280530931]",4.0,"[0.15180039568060286,0.09985386270237459]",4.0,"[0.017520911296093476,-0.16138744109733316]",100.0,"[-0.14654013573300462,-0.027794901993409955]",100.0,"[-0.009343247862486422,0.1799884144424007]",4.0,"[0.19306030857741047,0.04837100621130421]",4.0,"[-0.15094758614574894,0.11684174282044682]",100.0,"[-0.06654501303534195,-0.10749332616181259]",100.0,"[0.03556611415165663,-0.02980759318234789]",4.0,"[0.02,0.02]",156.6647,0.0,16.0,16.0,133.0,1.0,,,,,,,
,,,,,,,65fb480482fdc3e6b207b3a7,683af21ae3210b3a91c69abc,2025-05-31_05h14.31.438,shape_ratio,2024.1.5,Win32,59.88023952,683ae9196541af24d3a69e58,,,,,,,,,,,156.6661,157.1643,,,157.4169,157.5656,right,0.1324,,,,,,,,,0.5,,,,,,157.1643,157.4166,157.5658,"[0.19060414322629768,0.05993902788842099]",100.0,"[-0.062015574244393946,0.10733361335153309]",100.0,"[0.10315990075276608,-0.14453041119436952]",4.0,"[-0.044677177902372814,0.010321356669339867]",4.0,"[-0.004693468385225318,-0.07184037921902342]",4.0,"[-0.05717374987452152,0.18861132861277938]",4.0,"[-0.011044842504414896,-0.14070469517994616]",100.0,"[0.09511176671145681,-0.0888923744952274]",4.0,"[-0.08700925167533115,0.0410866402838353]",100.0,"[-0.13061760340258594,-0.10171168456231133]",100.0,"[0.027175921556645905,-0.004703279771069693]",4.0,"[-0.1944866232105149,-0.024088435589834707]",100.0,"[0.14371075469578046,0.12038429560489143]",100.0,"[-0.03685847158908225,-0.1810325134786036]",100.0,"[0.07875068952531832,-0.003450211898388278]",4.0,"[-0.13132356880629747,0.1372028804706613]",4.0,"[-0.06962799263023936,-0.04546873145614287]",100.0,"[-0.12677952933462208,0.06347822185698683]",4.0,"[0.13581629947888987,-0.05893939837655459]",100.0,"[0.13466119668344645,-0.0032437407055945387]",100.0,"[0.1417574645561328,0.059747579123367915]",100.0,"[0.015340771973060689,0.15250741311827934]",4.0,"[-0.06753070756173928,-0.09214905780819507]",100.0,"[0.021372035491809126,0.06030742290173597]",4.0,"[0.04085353654222449,-0.09989698737122941]",4.0,"[0.1825251375543689,-0.03464082622335114]",4.0,"[-0.1559245016819781,0.10139033804530358]",100.0,"[0.08378338773387894,0.14759537726745614]",100.0,"[-0.02039583427313068,0.07774400506066831]",4.0,"[0.06089261762418111,-0.171436517005232]",100.0,"[-0.10336044325604694,-0.013350287229816338]",4.0,"[-0.18640216218343542,0.057047447742744055]",4.0,"[0.02,0.02]",158.6656,0.0,17.0,17.0,93.0,1.0,,,,,,,
,,,,,,,65fb480482fdc3e6b207b3a7,683af21ae3210b3a91c69abc,2025-05-31_05h14.31.438,shape_ratio,2024.1.5,Win32,59.88023952,683ae9196541af24d3a69e58,,,,,,,,,,,158.6671,159.1658,,,159.4173,159.6501,left,0.219,,,,,,,,,0.45,,,,,,159.1659,159.4172,159.6503,"[0.08225165136743266,-0.15770935628763033]",4.0,"[-0.10198419605054765,0.13555427573741702]",100.0,"[-0.063727054201475,-0.04673693462834475]",4.0,"[0.0037880226521409366,0.1197625941085204]",4.0,"[0.11558220614860784,0.13134300252268008]",100.0,"[-0.11254284146107205,-0.1319572870720517]",4.0,"[0.1319854656518406,0.07666606409386402]",100.0,"[0.12823225131785615,-0.09851611450077918]",100.0,"[0.18693451387912796,0.06690101854091426]",4.0,"[-0.06810021523221864,0.09535913478027164]",4.0,"[0.13454232705113056,0.018574065543627782]",4.0,"[0.00040535775799512095,0.06995766741250141]",100.0,"[-0.1823463701875179,0.0010580610631095713]",4.0,"[0.01754066757285907,-0.11262274173679376]",4.0,"[0.008375144710708115,-0.16553938709126464]",4.0,"[-0.015328047041485098,-0.04718833473997064]",4.0,"[-0.03999983902446485,0.006578978197204788]",100.0,"[-0.13227771086189055,-0.014540910901976699]",4.0,"[0.06705216401741952,0.11389750187515855]",100.0,"[0.11191178115151697,-0.01695147181855027]",4.0,"[0.07541485388983445,0.15684724631950336]",4.0,"[-0.1405916578731774,-0.09497813864229955]",100.0,"[-0.0302682000294277,0.18079993126327293]",100.0,"[0.19465073910815547,0.020281709655435035]",4.0,"[0.06974464939141825,0.06683439085590262]",100.0,"[-0.03510880811071472,-0.1090967295558528]",100.0,"[-0.08592823365273701,0.031246360422625394]",4.0,"[-0.12229781608216711,0.050390449556355965]",4.0,"[0.02885427743073445,0.19162141272305483]",4.0,"[0.168639023015491,-0.07790480337107573]",100.0,"[0.19402656583879227,-0.019836349017200335]",100.0,"[-0.0776731997137172,-0.17446490610319695]",100.0,"[0.02,0.02]",160.7499,0.0,18.0,18.0,130.0,1.0,,,,,,,
,,,,,,,65fb480482fdc3e6b207b3a7,683af21ae3210b3a91c69abc,2025-05-31_05h14.31.438,shape_ratio,2024.1.5,Win32,59.88023952,683ae9196541af24d3a69e58,,,,,,,,,,,160.7513,161.2503,,,161.5013,161.7176,right,0.2022,,,,,,,,,0.4,,,,,,161.2503,161.5012,161.7178,"[0.11604146484782878,-0.04557314993819092]",4.0,"[-0.08513007201565485,0.15556518345618922]",100.0,"[-0.14785510150143152,-0.12533468954424737]",100.0,"[0.02000072021185642,-0.0896344535524255]",4.0,"[-0.0744501451048211,0.0012702879084327367]",4.0,"[0.14553363856576512,-0.09656100438699146]",100.0,"[0.12137504361882702,-0.13006474921517375]",100.0,"[-0.10799539758476305,0.10455625825721902]",4.0,"[-0.1583288421373493,-0.01068477566789481]",4.0,"[0.020195453998888616,-0.17588319743935987]",4.0,"[-0.02589511480115911,-0.17311968100901226]",4.0,"[0.02552767078717917,0.09780808603564627]",4.0,"[0.07221100290201726,0.0062344645965113354]",100.0,"[0.004283585187952081,0.0420476829602201]",100.0,"[0.08640368774185843,-0.15511962492535583]",100.0,"[0.1663156539499618,-0.02375250497186231]",4.0,"[-0.02446467425521935,-0.055433129688823905]",100.0,"[0.14606784612278678,0.065011749895461]",4.0,"[0.15594446724812908,0.01706722853401736]",100.0,"[-0.16801901458801105,-0.07349671207140235]",4.0,"[-0.06854364930529752,-0.15538125069820657]",100.0,"[-0.08703825131232173,-0.10695470520310078]",4.0,"[0.06759380253301088,-0.10261653195574864]",4.0,"[-0.19251447823093978,-0.03391691418892401]",4.0,"[-0.12328490825802432,0.06502499334737577]",100.0,"[-0.04512754542734502,0.17628784172295547]",4.0,"[-0.021372528518101452,0.11112060799595024]",4.0,"[-0.09947734624845476,-0.04488563500232116]",100.0,"[0.08490745608138763,0.14913316599507853]",4.0,"[0.015850276331597666,-0.03210389271980118]",100.0,"[-0.18346362051322926,0.03884812245878048]",4.0,"[-0.04643112144497785,0.07593849975295681]",4.0,"[0.02,0.02]",162.8174,0.0,19.0,19.0,175.0,1.0,,,,,,,
,,,,,,,65fb480482fdc3e6b207b3a7,683af21ae3210b3a91c69abc,2025-05-31_05h14.31.438,shape_ratio,2024.1.5,Win32,59.88023952,683ae9196541af24d3a69e58,,,,,,,,,,,162.8188,163.3178,,,163.5689,164.052,left,0.4743,,,,,,,,,0.9,,,,,,163.3179,163.5688,164.0522,"[-0.037495470383771434,0.000755024842747834]",100.0,"[-0.12920663236769786,0.031741757085771566]",4.0,"[0.12377691624068851,0.029105451217591394]",4.0,"[-0.017954727687921734,0.1368934558526468]",100.0,"[-0.06921870969239116,0.16813874234148216]",100.0,"[0.013664519353559544,0.0714071524892974]",100.0,"[-0.13570839045278285,-0.012562103606500806]",4.0,"[-0.0913123104130904,0.01843156073595068]",100.0,"[-0.09822824801166327,-0.12393040277166133]",100.0,"[0.03279824497757816,0.11715401732401937]",100.0,"[0.1821584728905038,-0.043890577446408896]",100.0,"[0.025739932918685374,-0.18219114463466918]",100.0,"[0.09745864392781711,-0.06103293135524722]",100.0,"[0.13095083060843635,0.13537367537215916]",100.0,"[-0.14902927718244174,-0.06508170977037286]",100.0,"[-0.07585062872889545,-0.175726752326702]",100.0,"[0.036110940840587705,-0.0054813182949445]",100.0,"[0.040190228080910835,0.036782293831949614]",100.0,"[0.006383314509404715,-0.11579361352582042]",100.0,"[0.16658648075126084,0.0033060172910662606]",100.0,"[-0.05094007158493355,-0.044800138487315365]",100.0,"[-0.008879391397050872,-0.03557828363695851]",100.0,"[0.16856697221297948,0.05411602875799514]",100.0,"[0.04019146043013132,-0.07616703483171838]",100.0,"[-0.17849402339701825,-0.0033937029686685583]",100.0,"[-0.05552885864121391,-0.0971523605512873]",100.0,"[-0.16848135947832862,0.07587798178999725]",100.0,"[0.07251866297760394,0.0983104850979592]",100.0,"[0.1641045487398966,-0.10270049401278647]",100.0,"[0.05032852176171201,-0.13691465995292776]",100.0,"[-0.108769002511903,0.1426350708897844]",100.0,"[-0.012433849780538806,0.19231543210019875]",100.0,"[0.02,0.02]",165.1521,0.0,20.0,20.0,1.0,1.0,,,,,,,
,,,,,,,65fb480482fdc3e6b207b3a7,683af21ae3210b3a91c69abc,2025-05-31_05h14.31.438,shape_ratio,2024.1.5,Win32,59.88023952,683ae9196541af24d3a69e58,,,,,,,,,,,165.1534,165.6532,,,165.9043,166.2032,right,0.2865,,,,,,,,,0.1,,,,,,165.6534,165.904,166.2035,"[-0.06337227300177051,0.08854342148365409]",100.0,"[-0.145589071464671,0.04807814388570101]",4.0,"[0.038306799236483495,0.04696090889674775]",4.0,"[0.15868340396486239,0.11766677321250182]",4.0,"[0.11968302429225045,-0.031355296382583]",4.0,"[0.035447459900876915,-0.11560508900436357]",4.0,"[-0.08807204611670552,-0.007222001582439915]",4.0,"[-0.04811883062374428,-0.11897723300379762]",4.0,"[-0.0124337807987124,0.19169036772290823]",4.0,"[0.025433889489984183,-0.18888936758724975]",4.0,"[0.0739548550095216,0.15300034254791023]",4.0,"[-0.03479603996762879,-0.17647478649192558]",4.0,"[0.08229878882478493,-0.11331876951612664]",4.0,"[0.1327428308093572,0.06451368429325885]",4.0,"[0.1630117799349754,0.01685633725843717]",4.0,"[-0.11627640311379375,-0.0814035969242077]",4.0,"[-0.16428939976900267,-0.04400813705169813]",4.0,"[-0.03235350866950619,-0.07582405098776279]",4.0,"[0.07694308456710545,0.10576691343893743]",4.0,"[-0.18035144934256958,0.08070049146601507]",4.0,"[0.05864735129853442,-0.00821636697146881]",4.0,"[-0.08703766637478644,0.14609637801832334]",4.0,"[-0.14311942975395375,-0.1218891521677362]",100.0,"[0.09396461499549125,-0.15679376215666307]",4.0,"[0.14997422479449216,-0.0705082921044249]",100.0,"[-0.14797279786285295,0.11281628771378303]",4.0,"[0.12200997160888608,-0.10025136143248721]",4.0,"[-0.04165566172230626,-0.01887595691279021]",4.0,"[-0.0914621336387318,-0.17311524234599607]",4.0,"[0.19293247744526598,-0.04318651767503933]",4.0,"[-0.18692089087493327,0.002125921197260235]",4.0,"[0.04883477483934277,0.18818406225769238]",4.0,"[0.02,0.02]",167.3027,0.0,21.0,21.0,188.0,1.0,,,,,,,
,,,,,,,65fb480482fdc3e6b207b3a7,683af21ae3210b3a91c69abc,2025-05-31_05h14.31.438,shape_ratio,2024.1.5,Win32,59.88023952,683ae9196541af24d3a69e58,,,,,,,,,,,167.3044,167.8034,,,168.0558,168.7052,right,0.6214,,,,,,,,,0.1,,,,,,167.8034,168.0556,168.7055,"[0.1913845622591239,-0.039489548602063905]",4.0,"[-0.13864982487894711,0.09481715624769972]",4.0,"[-0.08903784097772342,-0.11042075037044996]",4.0,"[-0.09262513560808884,-0.15226543346615423]",4.0,"[0.1395284757267175,0.05213332111894401]",4.0,"[-0.12762586120769084,-0.08188330380527274]",4.0,"[0.11600190945392856,-0.0780183854551405]",4.0,"[-0.14359992385763773,0.04882914421243284]",4.0,"[-0.01656907163616875,-0.1083652578151588]",4.0,"[-0.011417380326629785,0.09177360100282847]",4.0,"[-0.00018653357228436303,0.1522643461787514]",4.0,"[0.10701045871921332,-0.0217241666486346]",4.0,"[-0.12103309527525734,-0.015904752687871646]",4.0,"[0.0490446077950025,-0.019427998570596083]",4.0,"[0.08760849071740039,-0.17715391511451556]",4.0,"[0.03607253242248021,-0.11003080302479384]",4.0,"[0.003136698546365605,-0.18188028380704568]",4.0,"[-0.08487810259959702,0.08915791581457438]",4.0,"[-0.026730352870271906,-0.018826170300779904]",4.0,"[0.0457711963211759,0.18694741008235408]",100.0,"[-0.047014437391954815,0.1401886304266481]",4.0,"[0.0713907026442132,0.11628783495992626]",4.0,"[0.013232268534557558,0.03605515502951894]",4.0,"[0.0012377250043398209,-0.0554337896425217]",4.0,"[-0.14722239079582267,-0.13401543028216661]",100.0,"[-0.175949695385083,0.013517186315740849]",4.0,"[0.15938277500946663,0.09844938142995319]",4.0,"[-0.17134427938773078,-0.08661846446676495]",4.0,"[-0.07885211784095672,-0.03072629865099721]",4.0,"[0.08918748214470253,0.07963354504222088]",100.0,"[0.07195051003270726,0.033718413969774916]",4.0,"[0.0531872566053028,-0.1561053296312605]",4.0,"[0.02,0.02]",169.8042,0.0,22.0,22.0,208.0,1.0,,,,,,,
,,,,,,,65fb480482fdc3e6b207b3a7,683af21ae3210b3a91c69abc,2025-05-31_05h14.31.438,shape_ratio,2024.1.5,Win32,59.88023952,683ae9196541af24d3a69e58,,,,,,,,,,,169.8059,170.3044,,,170.5549,171.4553,right,0.8849,,,,,,,,,0.6,,,,,,170.3045,170.5548,171.4555,"[0.023204564816078674,0.08479538408411555]",100.0,"[-0.02626433580803912,-0.16632751508685273]",4.0,"[-0.08862134757366355,0.1223675343578399]",4.0,"[0.04199668235172727,-0.18194656576179397]",100.0,"[-0.017458954906687193,0.1822840218826192]",100.0,"[0.08358421151503528,0.07630122807642939]",100.0,"[0.014180605631077719,0.023566514264380868]",100.0,"[-0.005130189704012521,0.14412514530087359]",4.0,"[0.032924518282148096,-0.057077784275689235]",4.0,"[-0.1386203298247804,-0.11637033842180948]",100.0,"[-0.18046524169672706,-0.06133120393325824]",100.0,"[0.13532343063858576,-0.11549598259755925]",4.0,"[0.07172053454012874,-0.00465345290219359]",4.0,"[0.0816892977634648,-0.10142325645691616]",100.0,"[-0.07668044102035224,0.07356773662453847]",100.0,"[0.15828317348277166,0.09495674248690072]",100.0,"[-0.07478361391421749,-0.09145899319729224]",100.0,"[0.021458893932167517,-0.1156647922530017]",4.0,"[-0.1748905997645678,0.0760664136122157]",100.0,"[0.18936070609593245,0.048413744103990665]",100.0,"[0.1509508748278237,-0.00046295569193291464]",4.0,"[-0.04302620118797914,0.101413195192873]",100.0,"[0.028218746467025668,0.17355005029214807]",4.0,"[0.18861288792324088,-0.050483733642538144]",100.0,"[0.10449731792969706,0.12809037794033493]",4.0,"[-0.033998121906395506,-0.07667257131360698]",100.0,"[-0.05525797221127944,0.16551902895428067]",4.0,"[-0.10904715704017273,0.020811446815355183]",4.0,"[0.09439147471137273,-0.05802001124967972]",100.0,"[0.11928411427888078,-0.025271458026877996]",100.0,"[-0.1679728021717568,-0.01450012427853411]",4.0,"[-0.13737150832809766,-0.06063046216033637]",100.0,"[0.02,0.02]",172.5553,0.0,23.0,23.0,57.0,1.0,,,,,,,
,,,,,,,65fb480482fdc3e6b207b3a7,683af21ae3210b3a91c69abc,2025-05-31_05h14.31.438,shape_ratio,2024.1.5,Win32,59.88023952,683ae9196541af24d3a69e58,,,,,,,,,,,172.5566,173.0549,,,173.3063,173.8398,right,0.5248,,,,,,,,,0.45,,,,,,173.055,173.3062,173.8399,"[0.06744509978319362,0.17778577395268327]",100.0,"[-0.10991732746776992,-0.04735892639483983]",4.0,"[0.08165296826269078,-0.0756272099891082]",4.0,"[-0.035383584541270996,-0.15285813066129106]",4.0,"[0.14588286630965633,-0.01921713321577628]",100.0,"[0.11130906101952112,-0.14496448172340562]",4.0,"[0.11362017140192203,0.1220040108770416]",4.0,"[0.04808982260384784,-0.1636057322361119]",4.0,"[-0.04074459807888038,0.04831169933766729]",100.0,"[0.191235944801732,-0.053667019308464084]",4.0,"[-0.055148006172952416,0.16918463193751357]",100.0,"[0.17708638744713762,0.028667714983286734]",100.0,"[-0.1412778487274377,0.08700806105290798]",4.0,"[-0.017549625909954,0.11788989417579686]",4.0,"[0.0015198366461146174,0.024640231632458914]",4.0,"[-0.127558875434789,0.002516478523408856]",4.0,"[0.010243557765980807,-0.10140371668007728]",4.0,"[-0.16211624426475482,-0.042112390114201724]",100.0,"[-0.058816442661030366,-0.026798320826562666]",100.0,"[0.05610112198277452,0.1308705587908157]",100.0,"[0.0418976048109668,0.048176347938573075]",4.0,"[-0.16106643195204115,0.03546220168983727]",100.0,"[0.038307987434335784,-0.02341979326961996]",100.0,"[0.09743876572952409,0.06277044631240282]",100.0,"[-0.10505727992971535,0.14811576070209262]",100.0,"[0.08659105655252099,0.014224872674041912]",4.0,"[0.017201127955100082,0.18739847776064814]",4.0,"[-0.07912720780063058,0.10051028885991983]",4.0,"[-0.08636700339617483,-0.12543730696056515]",4.0,"[0.03801792970033114,0.09137260429621714]",100.0,"[0.12981439867349223,0.02725497491412916]",4.0,"[-0.040454929309351274,-0.0741673386755385]",100.0,"[0.02,0.02]",174.9397,0.0,24.0,24.0,138.0,1.0,,,,,,,
,,,,,,,65fb480482fdc3e6b207b3a7,683af21ae3210b3a91c69abc,2025-05-31_05h14.31.438,shape_ratio,2024.1.5,Win32,59.88023952,683ae9196541af24d3a69e58,,,,,,,,,,,174.941,175.4398,,,175.6899,176.5089,left,0.8121,,,,,,,,,0.45,,,,,,175.4398,175.6899,176.5091,"[0.07373875065037043,0.13563546103663132]",100.0,"[-0.16642221207519425,-0.04609684895222919]",100.0,"[-0.01617183276116364,-0.07859850039164278]",4.0,"[0.07433012623728599,-0.12094606157006957]",100.0,"[0.09355786388825081,-0.024333502751908015]",100.0,"[0.01640813517939146,0.11711789152270119]",4.0,"[-0.029625804155078723,0.17932021203457535]",100.0,"[0.010071904789431062,-0.00257578328998319]",4.0,"[-0.12486535123794824,-0.06687086603303702]",4.0,"[-0.14772223609128018,0.05818260374972537]",4.0,"[-0.08177624059504907,-0.16615270878862323]",4.0,"[0.1358874373168271,-0.10963606441215856]",100.0,"[0.18511445206631286,-0.0633407687658592]",4.0,"[-0.08469023859816158,-0.034037247994597765]",100.0,"[0.18966446299095457,0.02638531310163928]",4.0,"[-0.0222357417991854,0.09102138069949389]",4.0,"[-0.05234144184647167,-0.10233156142526417]",4.0,"[0.04685067707724927,-0.03218469323843791]",4.0,"[-0.1346778045265177,-0.004217769456633727]",4.0,"[0.1277342596668977,0.08752429082855408]",100.0,"[-0.03912979886180608,0.043197120242314355]",4.0,"[0.033462691284925024,-0.09558331235500445]",100.0,"[-0.034208808492903656,0.00012220474883663942]",4.0,"[0.064333161089519,0.08750057876516633]",100.0,"[-0.16840186787472933,0.09269927272195445]",100.0,"[-0.08177731782350572,0.10247145346695885]",100.0,"[-0.10010109926741383,-0.129061089228302]",4.0,"[-0.19190217559533557,0.0350021655405987]",4.0,"[-0.1265080999631721,0.154836421866548]",4.0,"[-0.14740986561741454,-0.12964306743952117]",100.0,"[-0.032012476618417954,-0.19053343358202612]",100.0,"[0.13231937788459508,-0.0076658048222472104]",4.0,"[0.02,0.02]",177.6078,0.0,25.0,25.0,142.0,1.0,,,,,,,
,,,,,,,65fb480482fdc3e6b207b3a7,683af21ae3210b3a91c69abc,2025-05-31_05h14.31.438,shape_ratio,2024.1.5,Win32,59.88023952,683ae9196541af24d3a69e58,,,,,,,,,,,177.61,178.108,,,178.363,179.0263,left,0.6414,,,,,,,,,0.5,,,,,,178.1082,178.3629,179.0264,"[0.10499245705854703,-0.010547421666296727]",4.0,"[0.03552011763989511,-0.16900012653832605]",100.0,"[-0.11783119024283985,-0.14663120286162917]",4.0,"[-0.09904042029160334,0.054085240387460036]",4.0,"[0.08438102925443076,0.11398610004183926]",100.0,"[-0.12700621114414887,0.008530661077413517]",4.0,"[-0.031643453525421986,0.07189315894840827]",4.0,"[-0.18280017943862023,-0.050497368652969075]",100.0,"[0.19946496718177853,-0.012902916819177084]",100.0,"[0.08462103737845547,-0.1330280269022087]",100.0,"[0.023775473416543666,-0.11125232428346257]",100.0,"[0.03773653694503152,0.03569956455583152]",100.0,"[0.06951365269261996,0.06635695567142182]",100.0,"[-0.07038282434138925,0.12971460815629662]",100.0,"[0.15399961605302945,0.021704789744823164]",100.0,"[-0.012161217710479908,0.03678659068843807]",100.0,"[-0.13012326801543933,0.13499006993646648]",4.0,"[-0.059008072143130856,-0.09304370833392507]",4.0,"[0.013714541639274836,0.14147058094368234]",4.0,"[-0.02661946365299711,-0.18896769531424004]",4.0,"[-0.10610969635172524,-0.0925972430394478]",100.0,"[-0.06039767797770898,-0.004025009560756647]",4.0,"[0.0984233947222811,-0.08238625165486137]",100.0,"[0.12692586964625036,0.06625284497425507]",100.0,"[-0.018448910087514866,0.18282086136180645]",4.0,"[0.02957251708831422,-0.04139347950668759]",4.0,"[-0.15683968377120405,-0.11910093063902906]",100.0,"[-0.0969379368019648,0.17233661814165777]",4.0,"[-0.03244017054421534,-0.051843997134798946]",100.0,"[0.027929487634695348,0.09537406180718064]",4.0,"[0.14561724587807576,0.123983863279223]",4.0,"[-0.1772608768535186,0.01669396080352044]",4.0,"[0.02,0.02]",180.1257,0.0,26.0,26.0,116.0,1.0,,,,,,,
,,,,,,,65fb480482fdc3e6b207b3a7,683af21ae3210b3a91c69abc,2025-05-31_05h14.31.438,shape_ratio,2024.1.5,Win32,59.88023952,683ae9196541af24d3a69e58,,,,,,,,,,,180.1273,180.6262,,,180.8806,181.6775,right,0.7737,,,,,,,,,0.45,,,,,,180.6266,180.8805,181.6776,"[-0.028326743586334843,0.1673161242001191]",4.0,"[0.0032701277986925603,0.012670754325060365]",100.0,"[-0.004636101074393315,-0.17571194708650434]",100.0,"[-0.028906507780009052,-0.10235998766709543]",4.0,"[-0.041647353433566923,0.05114202244415239]",100.0,"[0.098491596875795,-0.010489833042383935]",4.0,"[0.017438581930526685,0.10526669495186339]",4.0,"[0.004138198199030308,-0.07789890485485448]",100.0,"[-0.13367652065192395,-0.07385650883400789]",100.0,"[-0.10095205296138912,-0.04073197624810899]",100.0,"[0.1757770571634145,-0.09433200375536972]",100.0,"[0.09451110698463375,0.09005976813967714]",4.0,"[0.06301346993797895,-0.10064097399399938]",100.0,"[-0.18945164621697266,0.011282979100366833]",4.0,"[0.1439372131160535,0.13383954570118536]",4.0,"[-0.10578257680931406,0.10554538384524856]",100.0,"[-0.03748444371677383,-0.043849294415644544]",4.0,"[-0.0996682140429531,0.15500265765572863]",4.0,"[0.10430827801423238,-0.12975992724715799]",4.0,"[-0.1667532605434838,0.047105993903005024]",4.0,"[0.014794977180216782,-0.03547363968595554]",100.0,"[0.03988418928782814,0.1485945412134315]",4.0,"[0.1918339097572932,-0.0367406103802767]",100.0,"[0.013081048403134014,-0.12035538465348063]",4.0,"[-0.12333325476528202,0.011804867137318603]",4.0,"[-0.06282645877682365,0.11328543801731548]",4.0,"[-0.05610611419730334,-0.1376816006021518]",100.0,"[-0.14682503919849516,0.11323763585135027]",4.0,"[0.14951031744768084,-0.04917241803009672]",100.0,"[0.06307194776736742,0.05218830808554668]",4.0,"[0.11643566398565765,0.029209189769633295]",100.0,"[-0.17632132380090265,-0.07294612412920673]",4.0,"[0.02,0.02]",182.7769,0.0,27.0,27.0,135.0,1.0,,,,,,,
,,,,,,,65fb480482fdc3e6b207b3a7,683af21ae3210b3a91c69abc,2025-05-31_05h14.31.438,shape_ratio,2024.1.5,Win32,59.88023952,683ae9196541af24d3a69e58,,,,,,,,,,,182.7784,183.2785,,,183.5282,185.0279,,,,,,,,,,,0.45,,,,,,183.2786,183.5281,185.028,"[0.14632312653107574,0.11899044077694017]",100.0,"[-0.08998933740287253,0.1262472061202477]",100.0,"[-0.11222342761875229,-0.03466514051851559]",100.0,"[0.15995800284625192,-0.07907195913951177]",4.0,"[0.10826466446780847,0.03346923276788237]",4.0,"[-0.07981035449907113,-0.12965818169655374]",100.0,"[0.06082983076964196,-0.0171100094295678]",100.0,"[-0.057146365392054435,0.04359716614571276]",4.0,"[0.161923821932151,0.040960336261789056]",4.0,"[0.09759935496840443,0.09709979399430625]",4.0,"[0.1263098566261291,-0.14145655395201007]",100.0,"[0.004180220261820173,-0.196821597586349]",4.0,"[0.03207360403120529,-0.13763599398096452]",4.0,"[0.05558266879076892,0.0667766501147135]",100.0,"[-0.10936989798001587,0.018929627462041746]",4.0,"[-0.02606379001181973,-0.05453238836718186]",100.0,"[-0.1311214607761778,-0.13418758770654154]",100.0,"[0.18543411429552398,-0.03486126096993653]",4.0,"[-0.12120396848588161,0.061529747602083476]",4.0,"[0.10981494545737694,-0.01157095832957327]",4.0,"[-0.04649021063077077,0.1557357706597627]",100.0,"[-0.004876277146631701,0.011214892881944556]",4.0,"[-0.14014506242101896,0.13662384852326048]",4.0,"[0.07435564218912567,-0.1461585552303351]",4.0,"[0.14902537216457115,0.0009554452712880137]",100.0,"[-0.03196011941622851,-0.12049881338074224]",4.0,"[-0.0654748384387037,-0.06364356968743813]",4.0,"[-0.03879516777641967,0.10442638525352538]",100.0,"[0.03556544507350523,0.19045283563737717]",4.0,"[0.05686889761922861,-0.06465524492078087]",4.0,"[-0.18764476304194497,-0.014782572331922431]",100.0,"[-0.05651752418344978,-0.02009827581586195]",100.0,"[0.02,0.02]",186.1281,0.0,28.0,28.0,147.0,1.0,,,,,,,
,,,,,,,65fb480482fdc3e6b207b3a7,683af21ae3210b3a91c69abc,2025-05-31_05h14.31.438,shape_ratio,2024.1.5,Win32,59.88023952,683ae9196541af24d3a69e58,,,,,,,,,,,186.1294,186.6283,,,186.8674,187.2807,left,0.3882,,,,,,,,,0.9,,,,,,186.6284,186.8672,187.282,"[0.09972242066704415,0.14532780702407305]",100.0,"[0.012337359747306185,0.049706604310939546]",100.0,"[0.18942053970193537,-0.05303331886209758]",100.0,"[0.1453565165178295,-0.12747755970641034]",100.0,"[0.1557687351428896,-0.07580476503085322]",100.0,"[-0.11660278549904393,-0.10566541384066798]",100.0,"[0.09831677356053511,-0.13216820359018644]",100.0,"[-0.004955933093609273,-0.14306310794511054]",100.0,"[-0.13158162794851044,0.019642519853411422]",100.0,"[0.00033170801758291267,0.15077796933746473]",100.0,"[0.027333819715770192,-0.0013957214479045437]",100.0,"[-0.1795026050144716,-0.06730381928266589]",100.0,"[0.05175824781834838,-0.17934313449905925]",100.0,"[0.06882348089251944,0.038796837196551984]",100.0,"[0.19549988316710665,-0.0024250416829536127]",100.0,"[-0.08001826552040756,-0.1285497066692751]",100.0,"[-0.05290116579975766,-0.013225887233308392]",4.0,"[0.050143833598552505,0.11532967202177986]",100.0,"[-0.01855087045947821,-0.03820016120790923]",4.0,"[0.12826296717150099,0.017822566508645103]",100.0,"[-0.05248363781006422,0.1679713539810037]",100.0,"[-0.17563319207226935,0.02682843714197647]",100.0,"[0.14523082742129048,-0.024629277157663398]",100.0,"[0.04396970301095686,0.16640170977814656]",100.0,"[0.05411936440595795,-0.05966792642545318]",100.0,"[-0.07724888094147218,0.059468364212798205]",4.0,"[-0.06473047073614521,0.12191756150832221]",100.0,"[-0.023648173817434694,-0.07977995260469625]",100.0,"[0.14667574323879853,0.07673065624641866]",100.0,"[-0.021602087408548135,0.195502269381882]",100.0,"[-0.05051776781820673,-0.17769753151674123]",100.0,"[-0.11486106646459941,0.14100107306702186]",100.0,"[0.02,0.02]",188.3793,0.0,29.0,29.0,16.0,1.0,,,,,,,
,,,,,,,65fb480482fdc3e6b207b3a7,683af21ae3210b3a91c69abc,2025-05-31_05h14.31.438,shape_ratio,2024.1.5,Win32,59.88023952,683ae9196541af24d3a69e58,,,,,,,,,,,188.3816,188.8802,,,189.1358,189.3816,right,0.2222,,,,,,,,,0.6,,,,,,188.8804,189.1358,189.3819,"[0.03478752392494142,-0.09287240993394329]",100.0,"[-0.08835845182111553,-0.13317760695883274]",4.0,"[0.012104546401673444,0.046238741268105704]",100.0,"[0.10915676094130244,-0.16464027802874165]",100.0,"[0.13144599223377537,-0.013009700560528036]",100.0,"[-0.11125454373925028,0.11679717907261732]",100.0,"[-0.0927798186258052,0.0036607198180249032]",4.0,"[-0.12698637994588483,0.03795464097037363]",4.0,"[0.06852184428801002,0.016033814180686914]",4.0,"[-0.17225899018857269,0.06419460115125702]",4.0,"[0.08330711239133891,0.05927246515707315]",100.0,"[0.19733500242565125,0.024619025012479794]",100.0,"[0.032888536878862576,-0.15686879554866007]",4.0,"[0.11842322344044183,-0.09580527772464861]",4.0,"[0.007056608639441375,-0.01157599615366697]",100.0,"[-0.06130187210524727,-0.1647891605172638]",100.0,"[-0.052294696158147004,0.1531735444532782]",4.0,"[-0.057810241181862294,-0.0783372489942755]",4.0,"[-0.1346969836241569,-0.09110784732630081]",100.0,"[-0.036166930744373334,0.005356831122838641]",4.0,"[-0.006494060195179081,-0.12851584366396723]",100.0,"[0.17306772618820987,-0.07901046966866389]",100.0,"[-0.02435037022404335,0.07710962860587539]",100.0,"[-0.0045482759928426025,0.15198488367529012]",100.0,"[0.12830978195765214,0.07647557252726908]",100.0,"[0.07807951507863324,0.1583667709815631]",100.0,"[0.02798710749816503,0.19185159748040664]",4.0,"[-0.183536811269976,-0.02767183520651513]",4.0,"[-0.0751890555823709,0.061515032352807024]",100.0,"[0.061768615091177065,0.09466614986705707]",100.0,"[0.12336335131189868,0.12740384188660142]",100.0,"[0.10140244522361962,-0.05801240943315561]",4.0,"[0.02,0.02]",190.4836,0.0,30.0,30.0,56.0,1.0,,,,,,,
,,,,,,,65fb480482fdc3e6b207b3a7,683af21ae3210b3a91c69abc,2025-05-31_05h14.31.438,shape_ratio,2024.1.5,Win32,59.88023952,683ae9196541af24d3a69e58,,,,,,,,,,,190.4847,190.9805,,,191.2323,191.6641,right,0.4169,,,,,,,,,0.45,,,,,,190.9806,191.2322,191.6641,"[0.0072877716215052875,-0.058641709072067845]",100.0,"[-0.03915928819861767,-0.021542239521784485]",100.0,"[0.0491869623347631,0.11695558118882883]",4.0,"[-0.15003123213769953,-0.08942703829016174]",100.0,"[0.1421326332207852,-0.0594398247186487]",100.0,"[-0.022641334361480324,0.056678291358671924]",4.0,"[0.08124076633005503,0.05332255029257186]",100.0,"[0.14888797318210695,0.09449407349525157]",4.0,"[-0.04012302625798175,0.09265856980509572]",100.0,"[-0.13861790649292585,-0.046426174032547]",100.0,"[-0.1513633653198308,0.0795525820092542]",4.0,"[0.12705632011422527,-0.0052790954125264905]",4.0,"[0.01424897470545864,0.14128797324101017]",4.0,"[-0.07314778663545397,0.12722667671174726]",4.0,"[0.035950292500521876,-0.14795619467106622]",4.0,"[-0.11418563636158771,-0.11640987048083622]",100.0,"[0.123141408223267,0.1317232796850658]",4.0,"[-0.11610526638925518,0.10432128022868234]",4.0,"[-0.09845763676723975,0.04466827406787627]",100.0,"[0.0003882524722399214,-0.10200858363267237]",4.0,"[0.006700904158738644,0.005416234752717488]",4.0,"[0.030873204872508598,0.07472168524121632]",4.0,"[0.18677369155507045,-0.055140187185260994]",100.0,"[0.09903732271852322,-0.07589098268918917]",4.0,"[0.09479374111099095,0.09598364801877139]",4.0,"[0.06991028352071632,-0.0013969354987796252]",100.0,"[-0.04094599465802128,-0.06970948546604609]",4.0,"[-0.05903559783212638,-0.11819045353296741]",100.0,"[0.11232590075071164,-0.13529644711449468]",4.0,"[-0.12301411830767782,0.012321698855846944]",100.0,"[-0.056489205818912855,0.1828397852129861]",4.0,"[0.03488600768375628,0.18482872031919304]",100.0,"[0.02,0.02]",192.7647,0.0,31.0,31.0,140.0,1.0,,,,,,,
,,,,,,,65fb480482fdc3e6b207b3a7,683af21ae3210b3a91c69abc,2025-05-31_05h14.31.438,shape_ratio,2024.1.5,Win32,59.88023952,683ae9196541af24d3a69e58,,,,,,,,,,,192.7657,193.2648,,,193.5041,194.0335,right,0.5063,,,,,,,,,0.5,,,,,,193.2648,193.504,194.0337,"[-0.10879865317087517,-0.09154299748305704]",100.0,"[-0.10951257514530917,-0.010824008865622799]",4.0,"[0.18787390475936475,0.0047609467939158465]",4.0,"[-0.14964866198278942,0.08725055593087243]",4.0,"[-0.1677887294617203,-0.001542512613129939]",100.0,"[0.06454928609964304,0.18220665252503734]",4.0,"[-0.045196824178478215,0.08966953214906133]",100.0,"[-0.05340178846657744,-0.14819539482779343]",4.0,"[0.041006450442605945,0.1052704659790495]",4.0,"[0.12186196469925502,0.029044278237714733]",100.0,"[-0.03237532107861496,-0.028307262145078654]",100.0,"[-0.05360942121262748,0.1840904404955696]",4.0,"[0.09223322952204291,0.12598872148794957]",100.0,"[0.002856632057507403,0.14611104718162432]",4.0,"[0.04528823593360208,-0.08446931379429816]",4.0,"[-0.14506935029493298,0.13605844213801932]",100.0,"[-0.17000528275348842,-0.07892160052657078]",100.0,"[0.11043683751537903,-0.0391615376182717]",4.0,"[0.17049436395163364,-0.061884913436598125]",4.0,"[-0.14961326463470828,0.04219013606751156]",100.0,"[0.0645698214098497,-0.012461676038492263]",100.0,"[-0.08805053042296436,0.07878119894035565]",4.0,"[0.013446040732149946,0.19596725010349245]",100.0,"[0.10282649835741071,-0.11484365357291308]",4.0,"[-0.09695670820801612,0.15726180319844585]",100.0,"[-0.04282471977150828,0.02589182700774066]",100.0,"[-0.07475924207111953,-0.11424105750438007]",100.0,"[-0.004575863447149897,0.09998618256208221]",100.0,"[0.007432990174757444,0.04993221655071144]",4.0,"[0.1580792093856878,-0.10556066081785956]",4.0,"[0.05882757610324365,0.0693440938179207]",4.0,"[0.15787548110146238,0.08484372554284512]",100.0,"[0.02,0.02]",195.1326,0.0,32.0,32.0,115.0,1.0,,,,,,,
,,,,,,,65fb480482fdc3e6b207b3a7,683af21ae3210b3a91c69abc,2025-05-31_05h14.31.438,shape_ratio,2024.1.5,Win32,59.88023952,683ae9196541af24d3a69e58,,,,,,,,,,,195.1343,195.6326,,,195.8838,196.2659,left,0.3662,,,,,,,,,0.45,,,,,,195.6328,195.8837,196.2659,"[0.05317241716416829,0.11183046755358035]",4.0,"[-0.0005388519650951787,0.17178704603738384]",4.0,"[-0.022996737731738142,-0.014830589049282398]",4.0,"[0.134131597027348,0.11948884427297547]",4.0,"[0.06670830051980324,-0.054143715371888265]",4.0,"[0.11006599232599772,-0.013958448334399099]",100.0,"[-0.08176378667851357,-0.1143522837914405]",100.0,"[-0.1645123932852001,0.022903609089928695]",4.0,"[-0.11349983287042513,0.09362921138728687]",4.0,"[-0.045849260034630274,0.07237161639650772]",4.0,"[-0.028126597367167015,-0.09564547129346025]",4.0,"[-0.005169983220673056,-0.18889844115739352]",100.0,"[0.13999958472098986,-0.048104070225248756]",4.0,"[0.05466637785475608,0.05513774701498022]",4.0,"[0.09287194364374894,0.16942745566896533]",4.0,"[0.057605455658326185,0.0029168834568215666]",100.0,"[0.11366575110068493,0.03736207546472073]",4.0,"[0.13623281866009118,0.0756663192953239]",4.0,"[-0.058140138479324234,0.03335539099008987]",100.0,"[0.025546931920319368,-0.10579240684167236]",100.0,"[0.008376454553148529,0.078723823598724]",100.0,"[0.18121861293702166,-0.07172413694085891]",100.0,"[0.1418999716702054,-0.1328813814524932]",100.0,"[-0.15850258283774832,0.08814639346413107]",100.0,"[0.0826621330844871,-0.11748197774462164]",100.0,"[-0.05917730236262676,-0.06861585568772519]",100.0,"[0.03912211433956764,-0.1762579624522715]",100.0,"[-0.09817052493292289,-0.15843419653319507]",4.0,"[0.16797057328045673,0.04168207635920021]",4.0,"[-0.19038847795741234,-0.022465647359568054]",4.0,"[-0.11945218258753768,0.034451525238075716]",100.0,"[-0.10432837406152379,-0.06009229622197391]",4.0,"[0.02,0.02]",197.3666,0.0,33.0,33.0,131.0,1.0,,,,,,,
,,,,,,,65fb480482fdc3e6b207b3a7,683af21ae3210b3a91c69abc,2025-05-31_05h14.31.438,shape_ratio,2024.1.5,Win32,59.88023952,683ae9196541af24d3a69e58,,,,,,,,,,,197.3678,197.8668,,,198.1182,198.5527,right,0.4245,,,,,,,,,0.1,,,,,,197.8668,198.1182,198.5528,"[-0.1489141777300118,-0.007706504823424728]",100.0,"[0.013203384494513559,-0.01989080005725595]",100.0,"[-0.061602666228776526,-0.12440612644944632]",4.0,"[0.031715139384669404,-0.13012277740567815]",4.0,"[0.13658230617425474,-0.09752333457362665]",4.0,"[0.0539678103816299,0.17949392790239774]",4.0,"[0.012860409277224233,-0.17921940450806484]",4.0,"[0.008465438690403162,0.0635627093217244]",4.0,"[-0.08793297606237357,0.17626778966554038]",4.0,"[-0.06595795367330146,0.07402603800993948]",100.0,"[0.06111555740493639,0.046986086905296535]",4.0,"[0.07675247941461151,-0.17990960332399847]",4.0,"[0.1592078355836192,0.07724047319532554]",4.0,"[-0.13646044364186907,0.12701225002930563]",4.0,"[0.06500186574968442,-0.08931374002061022]",4.0,"[-0.030592852008361288,-0.020930291425006572]",4.0,"[0.12406386867087434,-0.01062138063429367]",4.0,"[0.010739374898013519,0.1436863099315579]",4.0,"[0.07077024537263713,0.11749896249695238]",4.0,"[0.060570401951570214,-0.048626138745516925]",4.0,"[-0.04422504548152543,-0.16401491516208253]",4.0,"[0.001792606465272032,-0.06133493807346243]",4.0,"[-0.08349205251424764,-0.03653096547826558]",4.0,"[0.09478554187887826,0.017242388556083548]",4.0,"[-0.16857041449945337,0.08118587052778543]",4.0,"[-0.155448668443514,-0.08747643592299505]",4.0,"[-0.10968130746316061,-0.12404135931419898]",4.0,"[-0.12743632131225086,0.05213064385913554]",4.0,"[-0.030939537420526575,0.12112126209407936]",4.0,"[0.12514631051903544,0.15242629691535328]",4.0,"[-0.07211850640668843,0.12534425048079875]",4.0,"[0.05517578360392187,0.0015013530571986006]",4.0,"[0.02,0.02]",199.6508,0.0,34.0,34.0,194.0,1.0,,,,,,,
,,,,,,,65fb480482fdc3e6b207b3a7,683af21ae3210b3a91c69abc,2025-05-31_05h14.31.438,shape_ratio,2024.1.5,Win32,59.88023952,683ae9196541af24d3a69e58,,,,,,,,,,,199.6523,200.1511,,,200.3904,200.7196,right,0.3063,,,,,,,,,0.4,,,,,,200.1512,200.3903,200.7198,"[-0.00849526557336566,0.11151570029786277]",4.0,"[-0.16699029557748787,0.007834181495486746]",4.0,"[-0.10064011034304488,0.07636252199335972]",100.0,"[-0.16054474922146134,-0.06243125524689465]",4.0,"[0.19015030568938873,-0.019514307956722005]",100.0,"[0.11937578869733327,-0.03247150661924428]",4.0,"[-0.17441526383444486,0.09005758299122478]",4.0,"[0.011271378699078667,-0.11662584625396125]",4.0,"[-0.002068751169452283,0.18768328207121515]",4.0,"[0.06267436663909703,0.14536732548051418]",4.0,"[0.1922770160692881,0.0467824889190035]",100.0,"[-0.10936846079272744,0.14902342580748887]",4.0,"[-0.05893646365641369,-0.09757515312602728]",4.0,"[0.1087325391271143,0.05783402609393821]",100.0,"[-0.10527567467664484,0.014928835724411782]",100.0,"[0.04753001872729564,-0.17428350889426436]",4.0,"[0.1033748860712448,-0.11412556504044762]",100.0,"[-0.01067176699820135,-0.009848898165983506]",100.0,"[-0.19627072422650582,0.036047007275652534]",4.0,"[0.10408119344698673,0.10117605303285437]",100.0,"[0.05276495092835514,-0.09468382411353485]",4.0,"[-0.12586472149308306,-0.09919775061098371]",4.0,"[0.005853713332724647,-0.07207626773047177]",4.0,"[-0.027307629481114454,0.06166878068841821]",4.0,"[-0.11454608711677415,-0.04236762208534935]",100.0,"[0.15553212479593995,0.019172326930709922]",100.0,"[0.15428872910104172,-0.08346272486068017]",100.0,"[0.08329793184380732,0.1799351504429454]",100.0,"[0.08615560469488663,-0.0616144745877077]",4.0,"[-0.06078680162164655,0.14467336326785604]",100.0,"[0.1517822358280189,-0.1245899355111994]",4.0,"[0.030249855124042664,0.0626605078024661]",4.0,"[0.02,0.02]",201.8235,0.0,35.0,35.0,166.0,1.0,,,,,,,
,,,,,,,65fb480482fdc3e6b207b3a7,683af21ae3210b3a91c69abc,2025-05-31_05h14.31.438,shape_ratio,2024.1.5,Win32,59.88023952,683ae9196541af24d3a69e58,,,,,,,,,,,201.8251,202.3242,,,202.5705,202.8355,right,0.245,,,,,,,,,0.5,,,,,,202.3243,202.5704,202.8355,"[0.056053885547118446,-0.17387350300563548]",4.0,"[0.1575841560451983,0.07318042012327687]",4.0,"[0.011280043241602354,0.016619330674389598]",4.0,"[0.06358691652746624,0.14086221181313457]",4.0,"[-0.08996757240135737,-0.05131033107872129]",100.0,"[0.06819197397857074,0.0002817171901787522]",100.0,"[-0.18258925148289043,-0.035205677714996754]",100.0,"[0.10398078066441134,0.15095815957354666]",100.0,"[0.11598174420962333,-0.05661932268046748]",4.0,"[0.16431559360735026,-0.07790581483669949]",100.0,"[-0.06578637099278446,-0.15953871282351534]",4.0,"[0.1202477194378812,0.045865636692947555]",100.0,"[-0.15493859677492805,-0.11984228121729275]",100.0,"[0.09817689868702294,-0.12057197393420852]",4.0,"[-0.014245451077586254,-0.07558036321205007]",4.0,"[-0.14842976551640125,-0.012581104855203678]",100.0,"[-0.047329807953325184,0.1848795646262899]",100.0,"[0.03358974272523022,0.1886751299971832]",4.0,"[0.020722785260878413,-0.09946761915198293]",4.0,"[-0.10109731083479466,0.027792858269014252]",4.0,"[0.014883866064676078,-0.1753822753506381]",4.0,"[0.00817603849234976,0.10819035900531436]",100.0,"[-0.022157315036622955,0.14631833063602695]",100.0,"[0.11748631663506755,-0.013993434054428412]",100.0,"[0.07192937755785332,0.09295509514902975]",100.0,"[-0.02131041710071514,-0.19670629466877856]",100.0,"[-0.15815204673742364,-0.07989022293489868]",4.0,"[-0.017200384145427714,-0.1346191049150791]",4.0,"[-0.05613580229958064,-0.026756419691790663]",100.0,"[-0.116726405380017,-0.08501469309575309]",4.0,"[-0.06553953209708697,0.05100227310553505]",4.0,"[-0.10317780812809048,-0.13235931576685714]",100.0,"[0.02,0.02]",203.936,0.0,36.0,36.0,118.0,1.0,,,,,,,
,,,,,,,65fb480482fdc3e6b207b3a7,683af21ae3210b3a91c69abc,2025-05-31_05h14.31.438,shape_ratio,2024.1.5,Win32,59.88023952,683ae9196541af24d3a69e58,,,,,,,,,,,203.9371,204.4363,,,204.6928,204.8551,left,0.1417,,,,,,,,,0.5,,,,,,204.4363,204.6927,204.8553,"[-0.037642946432418646,-0.0804230141416799]",4.0,"[0.06574473374659044,-0.09847198562404123]",100.0,"[0.00034572795634766365,0.08402611186863959]",4.0,"[0.12134882531460842,-0.03459743617596715]",4.0,"[0.03119787021285269,-0.06678753729057002]",100.0,"[-0.04833105134598746,-0.1249350332924198]",100.0,"[0.10168050586448218,-0.1603726054285277]",100.0,"[-0.1001607875465561,-0.08519888085552399]",100.0,"[0.09351293400180545,0.16946592902463745]",100.0,"[-0.08486000240150432,0.07992988098807606]",4.0,"[0.19405670985435663,-0.038214452210979674]",4.0,"[0.027970588742393405,0.005346418057833546]",100.0,"[-0.032917775593837816,0.18444278179091855]",4.0,"[-0.11926957591703183,0.14020987681357572]",4.0,"[-0.17728513996891146,0.05982389047580412]",4.0,"[-0.07224659308457883,-0.16881838616229503]",100.0,"[-0.14635448105838833,0.00246689703885537]",4.0,"[-0.19192914079650122,-0.005224017629092729]",4.0,"[0.09569426494635999,0.005555900250486462]",4.0,"[-0.08803834192106155,0.16598389570659533]",100.0,"[0.16522915364721047,0.026625079529130513]",100.0,"[0.021300757336570383,-0.19772933022369044]",100.0,"[-0.07052488245781328,-0.03137146626170362]",4.0,"[-0.10749496349257161,0.029924053265220102]",4.0,"[0.16532446620671268,-0.072442819083316]",100.0,"[-0.15255679817778717,-0.06545783310886867]",100.0,"[0.10672766495724895,0.09261052998962617]",4.0,"[0.1638878790210319,0.08845215241980366]",100.0,"[0.05279980693300075,-0.1604431094586281]",100.0,"[-0.10811083373526804,-0.1356512934321271]",4.0,"[0.12534088005142202,0.05501063061514166]",4.0,"[0.13033323541170486,-0.12285718108890113]",100.0,"[0.02,0.02]",205.9541,0.0,37.0,37.0,99.0,1.0,,,,,,,
,,,,,,,65fb480482fdc3e6b207b3a7,683af21ae3210b3a91c69abc,2025-05-31_05h14.31.438,shape_ratio,2024.1.5,Win32,59.88023952,683ae9196541af24d3a69e58,,,,,,,,,,,205.9562,206.4541,,,206.7051,207.279,right,0.5646,,,,,,,,,0.1,,,,,,206.4544,206.7051,207.2792,"[0.0782047807232657,-0.17653104004295622]",4.0,"[-0.018873678701950253,0.1533223930436938]",4.0,"[0.1474984265017324,0.06990572744194862]",100.0,"[0.10239681655909383,0.07956411629502992]",4.0,"[-0.05469944272200416,-0.1595674259925527]",4.0,"[0.11776962117713805,-0.009211806298018802]",4.0,"[0.1778835038016419,0.03320108958188956]",4.0,"[0.021838816245090802,-0.155534231755459]",4.0,"[-0.16778694981657227,0.009392540031672478]",4.0,"[0.03871569683175543,0.05027777832935833]",4.0,"[0.0028214928254576407,-0.019945075439682963]",4.0,"[-0.09930254122722025,-0.16417384692259854]",4.0,"[-0.08604975123938557,0.05526883430372502]",4.0,"[-0.11050339605725355,-0.005043248329192256]",4.0,"[0.07588150384789924,-0.05807367204453963]",4.0,"[-0.04563086670679768,0.05746087165202045]",4.0,"[0.08853271604448361,0.1483663874835736]",4.0,"[-0.01777189611587655,-0.12675152038907753]",4.0,"[-0.17708924714179156,0.05739061208349189]",100.0,"[0.03574443875224263,0.1434805192545674]",4.0,"[0.1665849035694598,-0.1025656018775367]",4.0,"[-0.11964040180008984,0.08170273977182614]",4.0,"[-0.0842484785384482,-0.07406363029818155]",4.0,"[0.12966655951303904,-0.07349867247176975]",4.0,"[-0.06694186495664181,0.11259540692961945]",4.0,"[-0.17160473604480322,-0.05193338899601541]",4.0,"[-0.16398495662369045,0.1130340996523727]",4.0,"[0.15662877957545573,0.11066253711237964]",4.0,"[0.0018906919705927226,-0.08064963743399842]",100.0,"[-0.03882731377146147,-0.0910211136745256]",4.0,"[0.04080560731107624,0.18660152312004982]",4.0,"[-0.025383680996062797,0.01962412342012835]",4.0,"[0.02,0.02]",208.3755,0.0,38.0,38.0,207.0,1.0,,,,,,,
,,,,,,,65fb480482fdc3e6b207b3a7,683af21ae3210b3a91c69abc,2025-05-31_05h14.31.438,shape_ratio,2024.1.5,Win32,59.88023952,683ae9196541af24d3a69e58,,,,,,,,,,,208.3762,208.8777,,,209.123,209.64,right,0.5045,,,,,,,,,0.45,,,,,,208.878,209.1229,209.6401,"[0.1667871419584506,0.028029033282585717]",4.0,"[0.08517215745347277,0.12575315388058167]",100.0,"[0.18803420075825114,-0.06528300897400968]",4.0,"[0.011664590031862395,-0.1283986029203654]",100.0,"[0.028762223961341045,-0.03287938830442156]",4.0,"[0.16601573271912762,0.10072830642952574]",4.0,"[-0.1297000515398532,-0.007576945760164728]",100.0,"[0.012637703340508656,0.04349963616833402]",4.0,"[0.055323131370797536,0.06473102714281695]",100.0,"[0.09477524041397468,-0.09724846385034153]",4.0,"[-0.05790663032207616,-0.1484843199388522]",4.0,"[-0.010077367147964684,-0.16454412298724067]",100.0,"[0.11300318170093335,-0.05970618067838936]",4.0,"[-0.10147152248140855,0.06192910309342639]",100.0,"[-0.10499414908996071,-0.058526383523518744]",4.0,"[-0.14388196879782195,-0.09011830150135261]",4.0,"[0.02831677348009629,0.09932625803366714]",4.0,"[0.07320212388088225,0.18327225505945346]",4.0,"[-0.015499299361800504,-0.06177783663438465]",4.0,"[-0.18793533520805775,0.024097893173095446]",4.0,"[0.11554468750600837,0.018668147648996537]",100.0,"[-0.1030984178513081,-0.16080764091445335]",100.0,"[-0.06514898576334008,-0.046110767956223854]",4.0,"[-0.061365332248165885,-0.18913405058837038]",100.0,"[0.07593357820627003,0.012675937681814001]",4.0,"[-0.05256194312482165,0.16567264732802317]",100.0,"[-0.025703172346190472,0.09612455310056117]",100.0,"[-0.06910819467828165,0.12476611751948533]",100.0,"[-0.04192303148363635,0.009637202608930697]",100.0,"[-0.1906926291464769,-0.0432979313699497]",4.0,"[0.07287860293973283,-0.14919573659396312]",4.0,"[0.11819690057424714,-0.12987925030108893]",100.0,"[0.02,0.02]",210.7392,0.0,39.0,39.0,127.0,1.0,,,,,,,
,,,,,,,65fb480482fdc3e6b207b3a7,683af21ae3210b3a91c69abc,2025-05-31_05h14.31.438,shape_ratio,2024.1.5,Win32,59.88023952,683ae9196541af24d3a69e58,,,,,,,,,,,210.7403,211.2394,,,211.491,211.9404,left,0.4375,,,,,,,,,0.6,,,,,,211.2395,211.4908,211.9404,"[-0.1398247236566794,0.10487319488766897]",100.0,"[0.1539207169822702,-0.12014976277564024]",100.0,"[-0.06617535424931238,0.08849990323221808]",4.0,"[0.056960716723930216,0.010854166840322038]",4.0,"[-0.06448315717728621,0.15948144114978627]",100.0,"[0.0573711890717876,-0.08068764564288365]",100.0,"[-0.025519536482898435,0.13724690926358704]",100.0,"[-0.08953292858696507,0.04395846711839793]",4.0,"[-0.14209081476308882,-0.024480863037235883]",100.0,"[0.11187134481050894,-0.008187158524551586]",4.0,"[0.10198123298225838,0.0405107033664089]",100.0,"[0.060185233436598484,0.09430460860839511]",100.0,"[-0.0895400385995626,0.12420670372371508]",4.0,"[0.09204184965602716,-0.17746335431701435]",100.0,"[-0.0065165544456047405,0.0990229660739375]",100.0,"[0.019689690582403323,-0.007426454423977385]",4.0,"[-0.18299964470915206,0.01553871430715031]",100.0,"[-0.039787695262452974,-0.10237798941848056]",100.0,"[-0.06906486446185668,-0.14312935549789055]",4.0,"[-0.016152444126572248,-0.0539212467447339]",100.0,"[-0.12330930734822754,0.01900252288023591]",4.0,"[0.17296364551007,-0.044206329687016765]",100.0,"[0.12848007322429833,-0.07234735936852074]",100.0,"[0.08819951918199906,-0.11524107454048196]",100.0,"[0.16783372098451918,0.10835321430807034]",4.0,"[0.19736860238855497,0.00751051424046699]",100.0,"[0.06028260366676794,0.16377751841925076]",100.0,"[-0.09820275700259395,-0.10600961016599438]",4.0,"[0.15325176691367484,-0.0010164851667360138]",100.0,"[0.12939251955899878,0.09007882107749077]",4.0,"[-0.1009277700643179,-0.048503205329494585]",4.0,"[0.034655347567633846,-0.169345820796265]",4.0,"[0.02,0.02]",213.0403,0.0,40.0,40.0,59.0,1.0,,,,,,,
,,,,,,,65fb480482fdc3e6b207b3a7,683af21ae3210b3a91c69abc,2025-05-31_05h14.31.438,shape_ratio,2024.1.5,Win32,59.88023952,683ae9196541af24d3a69e58,,,,,,,,,,,213.0415,213.5405,,,213.78,214.2255,right,0.4253,,,,,,,,,0.9,,,,,,213.5405,213.7799,214.2256,"[0.031378250254269865,-0.1945855446999051]",100.0,"[0.15240395240071894,-0.025568609126550748]",100.0,"[0.09781144033885744,-0.06751659088950034]",100.0,"[0.09831452860747332,0.1654466978502341]",100.0,"[0.12940950796363895,-0.12458281852097346]",100.0,"[-0.0759052286402106,-0.011717359417806359]",100.0,"[-0.09215327863612022,-0.09797830927878126]",100.0,"[-0.1239231453136668,0.12654098727740487]",100.0,"[-0.12793221048096154,-0.14613150892462776]",100.0,"[-0.09708958819448281,0.06198367105754114]",100.0,"[-0.18898359243178967,-0.009138910134251601]",100.0,"[0.1699415316589502,-0.06627376737565682]",100.0,"[-0.020193882801338818,0.026165848337440675]",4.0,"[0.07590159235482379,-0.1311577189825801]",100.0,"[0.034293985563764125,0.09279629147288641]",100.0,"[0.014021344668059738,-0.02482509732627372]",100.0,"[0.158712181788233,0.058266753874842266]",100.0,"[0.09602597505680138,0.01456149618206761]",100.0,"[-0.04916948115932097,-0.061588822242104366]",4.0,"[0.19300645864401553,-0.0034555038452231887]",100.0,"[0.007716835928333835,-0.14544781929081704]",4.0,"[-0.12728106634594955,-0.00006507602372920814]",100.0,"[0.06471956112467939,-0.012299720584110647]",100.0,"[-0.0006400878598063095,0.13887874641598075]",100.0,"[-0.18338424288779165,0.06039719384200299]",100.0,"[-0.06397309688555541,-0.1680060544859461]",100.0,"[0.07624250519910031,0.12484723563423496]",100.0,"[-0.1834653087853001,-0.06192806226211426]",100.0,"[-0.004268799702093384,-0.06467981055440634]",100.0,"[0.03811441030235971,0.03264751586037724]",100.0,"[0.11288618329596868,0.0972142927846462]",100.0,"[-0.011373741815378017,0.08092158482555145]",100.0,"[0.02,0.02]",215.3249,0.0,41.0,41.0,5.0,1.0,,,,,,,
,,,,,,,65fb480482fdc3e6b207b3a7,683af21ae3210b3a91c69abc,2025-05-31_05h14.31.438,shape_ratio,2024.1.5,Win32,59.88023952,683ae9196541af24d3a69e58,,,,,,,,,,,215.3268,215.8251,,,216.0761,216.4926,right,0.4007,,,,,,,,,0.6,,,,,,215.8253,216.076,216.4927,"[-0.15985032000223764,-0.08220390105065935]",4.0,"[-0.06796889054463716,-0.18659931817712663]",4.0,"[-0.09811031222049243,-0.03149527084986444]",100.0,"[-0.013783053407943101,-0.002530287709249168]",100.0,"[0.10251907795016466,-0.1070914008174907]",100.0,"[-0.04478630350527748,-0.09325697954854925]",100.0,"[-0.033787605279510906,0.07048865259236733]",100.0,"[0.14498310506294282,-0.03106469269177165]",100.0,"[0.0829691465219757,0.03623811410215866]",4.0,"[-0.06989806395508025,0.14544467787243442]",100.0,"[0.047825295166559784,-0.13035557776834125]",4.0,"[-0.09763130092034274,-0.1373879199138916]",4.0,"[-0.14113930204850805,0.08861740202991997]",100.0,"[0.03380372415592296,0.036821133923841225]",100.0,"[0.18155350166345025,-0.012434778350835469]",4.0,"[0.09729061684742497,-0.0034722046005927656]",4.0,"[-0.12871098385935442,0.03398742870382952]",4.0,"[0.08879381584357353,0.12977937420803262]",100.0,"[-0.06364536847638479,0.10029768624786166]",4.0,"[0.16697686302740122,0.07953192221708232]",100.0,"[0.08519898316801096,-0.16368678173166087]",100.0,"[0.03124619455944155,0.12875303892868803]",100.0,"[-0.05474598177533841,0.03146833811669541]",4.0,"[0.001959596527126826,-0.18235578723688384]",4.0,"[0.005258489476400809,0.07977382772456701]",100.0,"[0.0150858714105702,-0.046860908532037365]",100.0,"[0.08687022349050755,-0.06381874113335191]",100.0,"[-0.03776462519813833,0.17823757962273032]",100.0,"[0.058184428092395796,0.08103618870525794]",4.0,"[0.1567282782523839,0.030918701774358803]",4.0,"[0.09857829995441049,0.08419803320618431]",100.0,"[-0.1520140604694035,-0.005006188390022136]",100.0,"[0.02,0.02]",217.5924,0.0,42.0,42.0,55.0,1.0,,,,,,,
,,,,,,,65fb480482fdc3e6b207b3a7,683af21ae3210b3a91c69abc,2025-05-31_05h14.31.438,shape_ratio,2024.1.5,Win32,59.88023952,683ae9196541af24d3a69e58,,,,,,,,,,,217.5936,218.0925,,,218.3318,218.8282,left,0.4714,,,,,,,,,0.5,,,,,,218.0926,218.3317,218.8284,"[0.16681572914954182,-0.06192489453879457]",100.0,"[0.004423949414380623,-0.0866376518413454]",100.0,"[0.08412576562914816,-0.004598662115248296]",100.0,"[-0.14867661215061712,-0.12439720155098329]",100.0,"[-0.11169897906208068,0.05025961342338755]",100.0,"[0.08435605727949887,0.03657877150189198]",4.0,"[-0.031807674250633834,0.07871957778675973]",4.0,"[0.14222406333417079,-0.029656328797299847]",100.0,"[-0.02014335379001319,0.13838111374932832]",100.0,"[0.1530494859772311,0.01299147376836095]",4.0,"[-0.15253368945716217,0.12408496000684349]",4.0,"[0.05419830328129927,0.15792686836481573]",100.0,"[-0.08803459446772374,-0.07070289505636844]",100.0,"[-0.17210369265713338,0.07940656790789223]",100.0,"[-0.12765894390380506,-0.011708769424463444]",4.0,"[-0.06619153121497195,-0.03650757483048466]",4.0,"[0.009387674785070816,-0.009369327883908027]",100.0,"[-0.026626454434178826,0.19678991668254397]",4.0,"[0.13356164169301382,0.08278958187454537]",4.0,"[-0.058057277689951906,0.006784685595109566]",100.0,"[-0.060683539670827895,0.14327468925713863]",100.0,"[-0.0325548125359416,-0.19419532620646948]",4.0,"[0.09898536974094764,-0.1666888022702211]",100.0,"[0.07218545755062834,-0.11878895508611019]",4.0,"[-0.09799669710470789,-0.1598849723268719]",4.0,"[0.1634569104469933,0.055039818248772396]",4.0,"[0.023603364953587277,0.11595814377143078]",4.0,"[-0.19207097949958282,-0.009594358950409967]",4.0,"[-0.05300393088119662,-0.10318174030398654]",4.0,"[0.13850523682429863,0.13867079951094508]",4.0,"[0.16897580958424552,-0.10482100367311496]",100.0,"[0.08397521361954995,0.10074042782676934]",100.0,"[0.02,0.02]",219.9275,0.0,43.0,43.0,112.0,1.0,,,,,,,
,,,,,,,65fb480482fdc3e6b207b3a7,683af21ae3210b3a91c69abc,2025-05-31_05h14.31.438,shape_ratio,2024.1.5,Win32,59.88023952,683ae9196541af24d3a69e58,,,,,,,,,,,219.9295,220.427,,,220.6783,221.2963,right,0.6027,,,,,,,,,0.9,,,,,,220.4272,220.6782,221.2964,"[0.14353971313021563,-0.10024403184728625]",100.0,"[0.09843072048923697,0.03448187436321606]",100.0,"[-0.016344553212723767,-0.14238199844350952]",100.0,"[-0.007504443892809491,-0.06693798777245581]",100.0,"[0.132008373819924,-0.02512790017376894]",4.0,"[-0.0687093629289384,0.10509342560088777]",100.0,"[0.1446253679602968,0.02028670412362143]",100.0,"[-0.11865990869373129,0.11876306428470479]",100.0,"[0.08779442449234955,0.09106168963051448]",4.0,"[-0.02068764763578279,0.1267492771507887]",100.0,"[0.05309174849355477,-0.08707460462172079]",100.0,"[-0.08923049340222138,0.034095339779077284]",100.0,"[-0.07972056646730766,-0.01970345893708254]",100.0,"[-0.15984041045208272,0.09060079034090181]",100.0,"[0.19069849881780915,0.04800084611881745]",100.0,"[-0.09555919239984989,-0.1303556284108115]",100.0,"[0.005419051280250972,0.19726645227890569]",100.0,"[0.016391685415361554,-0.17422867727990693]",100.0,"[-0.03603811326171542,-0.0226188984222657]",100.0,"[0.10613650356120002,0.1406404371048984]",100.0,"[-0.12378995661955518,-0.08432512520146856]",100.0,"[0.04271921063436037,0.16687107722366526]",100.0,"[-0.06830642865323047,-0.06933489980460533]",100.0,"[0.1962203286311158,0.002648198188127034]",100.0,"[-0.006804199892244942,0.03560006475575126]",100.0,"[0.1295830538813375,0.06029594742301722]",100.0,"[-0.04529243369044146,-0.178487964061491]",100.0,"[0.014933188707131976,0.09239969725242775]",100.0,"[0.04791578640560247,-0.022137984131162396]",100.0,"[0.046366878305433186,0.0502671646447709]",100.0,"[0.09246393508068028,-0.018378621814667095]",100.0,"[-0.057583710104930644,0.17189267893425975]",4.0,"[0.02,0.02]",222.3948,0.0,44.0,44.0,4.0,1.0,,,,,,,
,,,,,,,65fb480482fdc3e6b207b3a7,683af21ae3210b3a91c69abc,2025-05-31_05h14.31.438,shape_ratio,2024.1.5,Win32,59.88023952,683ae9196541af24d3a69e58,,,,,,,,,,,222.3971,222.8948,,,223.1345,223.5298,left,0.372,,,,,,,,,0.1,,,,,,222.895,223.1344,223.5299,"[-0.01676268522270902,0.03841831808229267]",4.0,"[-0.04035904717672527,-0.06616203092532118]",100.0,"[-0.08805326902122053,-0.15998984544706701]",4.0,"[0.06371128745321898,0.01098893627530313]",4.0,"[0.07872951492693898,0.05018149166627007]",4.0,"[0.030787388444185472,-0.06257436603409244]",100.0,"[0.031490324586617144,-0.10728545849361]",4.0,"[0.15384214991906575,-0.024102997875014392]",4.0,"[-0.15934578919509013,0.033628384579691695]",4.0,"[-0.14028476781561644,-0.10007530739546382]",4.0,"[0.043575288817444296,0.1294410271078598]",4.0,"[-0.06348772538206247,0.1808348587852999]",4.0,"[0.12453848860422455,0.03448832614987818]",4.0,"[0.15070407185047874,0.1268132355425291]",4.0,"[0.14433712427113246,-0.0875443510989864]",4.0,"[-0.07952007215739038,-0.027130797458458783]",4.0,"[-0.008684733377692938,-0.155152191996154]",4.0,"[0.08539177141254825,0.11146256891496219]",4.0,"[0.06565433971191055,0.16552695925298583]",4.0,"[-0.03171212770584294,0.13153775908499823]",4.0,"[-0.16342720135423852,-0.058830456085596915]",4.0,"[0.06921851801835005,-0.08453886279611618]",100.0,"[0.18355173102645353,0.05076409847799526]",4.0,"[-0.09946776955554593,0.13236117269620895]",4.0,"[-0.1892491951706694,0.004460771039196405]",4.0,"[-0.1139135330345086,0.08506618675898867]",4.0,"[0.05520685115871366,-0.15333551825078523]",4.0,"[0.11548556398830363,0.07429256747687062]",4.0,"[0.11694475043388193,-0.1377500940184509]",4.0,"[0.014310747504214417,0.19911946594577268]",4.0,"[-0.14126329984962488,0.14106750914884916]",4.0,"[-0.11366099719976024,0.014178019893190117]",4.0,"[0.02,0.02]",224.6292,0.0,45.0,45.0,199.0,1.0,,,,,,,
,,,,,,,65fb480482fdc3e6b207b3a7,683af21ae3210b3a91c69abc,2025-05-31_05h14.31.438,shape_ratio,2024.1.5,Win32,59.88023952,683ae9196541af24d3a69e58,,,,,,,,,,,224.6316,225.1294,,,225.3809,225.5298,right,0.1331,,,,,,,,,0.55,,,,,,225.1296,225.3808,225.53,"[-0.00020567243311774656,0.15784413853753992]",4.0,"[0.08701523506771897,0.08183696254676143]",100.0,"[-0.1894921714835124,-0.04522241883757106]",100.0,"[0.03987360631080649,0.17470226271182768]",4.0,"[-0.06227108056736173,-0.0034463700407822402]",100.0,"[0.11629263372045229,-0.021423953510340085]",4.0,"[-0.1628024089802703,0.06723914015642542]",100.0,"[-0.06638844122397727,-0.093728046244937]",100.0,"[-0.12303198446207304,0.08568702587757478]",4.0,"[-0.04678193292685926,-0.1448756267546542]",100.0,"[-0.10056147628653096,-0.14079797827785887]",100.0,"[0.020755003866164516,-0.02252295552407482]",100.0,"[0.07019445413640658,-0.16877032071830364]",100.0,"[0.023158022203361238,-0.09085567289668041]",4.0,"[-0.12278144900808644,-0.07195871950674257]",4.0,"[0.13839910427273253,-0.06438769508742516]",4.0,"[-0.059936564010445316,0.0901537261550039]",4.0,"[0.01342557698308257,0.0876471346389915]",4.0,"[0.026677502611898832,-0.15785763016871757]",100.0,"[-0.17828581593304518,0.02397650171424695]",100.0,"[0.19251403220948513,0.011102861462651542]",100.0,"[-0.014505137226607944,0.02499399573542628]",100.0,"[-0.04922480372944608,0.17098567239208337]",100.0,"[-0.15168696761713404,-0.11159745129004182]",100.0,"[-0.004217405569719905,-0.0572693889527567]",4.0,"[0.05312587071400641,0.02987206741181529]",4.0,"[-0.08593262768238988,-0.04687824797900672]",4.0,"[0.17383960176136587,-0.088763718160827]",4.0,"[0.132891187562725,0.04980235372910833]",4.0,"[0.13540478472019885,0.12417062824922238]",100.0,"[-0.10988448302087941,0.12749308625445968]",100.0,"[0.08741692999275287,-0.05067182730387719]",100.0,"[0.02,0.02]",226.6297,0.0,46.0,46.0,75.0,1.0,,,,,,,
,,,,,,,65fb480482fdc3e6b207b3a7,683af21ae3210b3a91c69abc,2025-05-31_05h14.31.438,shape_ratio,2024.1.5,Win32,59.88023952,683ae9196541af24d3a69e58,,,,,,,,,,,226.6309,227.13,,,227.3812,227.7975,right,0.4006,,,,,,,,,0.45,,,,,,227.1301,227.381,227.7977,"[-0.1555581637076645,0.056250456928675134]",100.0,"[-0.04214365746757824,0.12314590733959238]",100.0,"[0.13158119712849572,0.07390827346022918]",4.0,"[0.10488762052906433,-0.09613994952277889]",4.0,"[-0.1582350022024169,-0.10294933003880767]",4.0,"[0.062143482349536296,-0.18975943482072175]",4.0,"[0.07819938817499529,0.08290509883634391]",4.0,"[-0.09747721359931381,0.1552836059167739]",4.0,"[-0.0021219856847470575,0.1270961594770806]",100.0,"[0.050481838247843504,0.007688731221284064]",100.0,"[-0.048246317282803916,-0.13081809872587222]",4.0,"[-0.047159021441374765,-0.03221922574916752]",4.0,"[0.1661738149378241,-0.06220656916700283]",100.0,"[-0.13551382903469758,-0.003603250225148706]",4.0,"[0.01001917295541802,-0.03825601672697824]",4.0,"[0.03656055582440659,-0.14120834378244168]",4.0,"[-0.046897123131836284,0.06470817182934727]",4.0,"[0.0062337386599994994,-0.09849986264420833]",100.0,"[0.10220984324136195,-0.14819894819584717]",100.0,"[-0.08552779155069387,0.02551705684287689]",4.0,"[-0.1889116142416133,-0.028503995319484426]",4.0,"[-0.07986273400555108,-0.1577375344162355]",100.0,"[0.020501388557005173,-0.18552461799036776]",100.0,"[0.029519548490121214,0.1637068911853831]",4.0,"[-0.07495169005455757,-0.09717033057488325]",100.0,"[0.09153329760942207,0.027318957579377506]",100.0,"[0.17661786125944196,0.04416467810976834]",100.0,"[0.1928768565601572,0.006554577955198302]",4.0,"[0.03961960697628165,-0.07477473060595789]",4.0,"[0.031988617552280364,0.04899450667203198]",4.0,"[0.14121855921566645,0.12379949324177497]",100.0,"[-0.0211769850276473,0.17116518150227344]",100.0,"[0.02,0.02]",228.8975,0.0,47.0,47.0,141.0,1.0,,,,,,,
,,,,,,,65fb480482fdc3e6b207b3a7,683af21ae3210b3a91c69abc,2025-05-31_05h14.31.438,shape_ratio,2024.1.5,Win32,59.88023952,683ae9196541af24d3a69e58,,,,,,,,,,,228.8986,229.3977,,,229.6539,229.9995,left,0.3223,,,,,,,,,0.4,,,,,,229.3977,229.6538,229.9996,"[0.08358298424057438,-0.02356825020167718]",100.0,"[-0.19006793850852574,0.04103348873908207]",100.0,"[-0.06642384195632998,-0.10727873181475128]",100.0,"[-0.10317234187330357,-0.0778490752983238]",100.0,"[-0.028799095391403677,0.09665000540739753]",4.0,"[0.03241840806573157,0.06766631452622195]",4.0,"[0.09671211034467869,0.08122313905265176]",100.0,"[0.15932900351024876,0.013767432121575853]",4.0,"[0.09052508006858243,-0.17017607969187232]",4.0,"[-0.13409642116823411,-0.1110817560787641]",4.0,"[0.14197276826811098,-0.13871340849091016]",4.0,"[0.03568621380998585,-0.06435350162930512]",100.0,"[-0.12186724636726283,0.0687196589669514]",100.0,"[-0.11035202295753804,-0.15065736532769206]",4.0,"[-0.00041141836162976344,0.127603886669175]",100.0,"[0.09162013064634891,0.14107166381749034]",4.0,"[0.07547603241984338,0.020213725708754578]",4.0,"[-0.1718570761549235,0.084326341560046]",100.0,"[-0.15081252491405678,-0.020972003743749978]",100.0,"[-0.0699562360543335,0.05940321933393037]",4.0,"[-0.031741748674208946,0.15336300260284563]",100.0,"[-0.010964307997460716,-0.190756361276785]",4.0,"[-0.04846522537007472,-0.029346072905499773]",4.0,"[0.0408495657267422,-0.005085879759567079]",4.0,"[0.036914979661451734,-0.12464441773607268]",4.0,"[-0.13216553244785872,0.1484856594815052]",4.0,"[-0.006074040648076675,-0.10492763349628724]",4.0,"[0.1672408498991052,-0.08017793639687074]",4.0,"[0.12087851700978614,0.03294034301386751]",100.0,"[0.10775912914902967,-0.10729567102843598]",4.0,"[-0.021627422792678385,0.025080129407682887]",100.0,"[-0.15471508105725512,-0.06546366753142639]",4.0,"[0.02,0.02]",231.0986,0.0,48.0,48.0,177.0,1.0,,,,,,,
,,,,,,,65fb480482fdc3e6b207b3a7,683af21ae3210b3a91c69abc,2025-05-31_05h14.31.438,shape_ratio,2024.1.5,Win32,59.88023952,683ae9196541af24d3a69e58,,,,,,,,,,,231.1007,231.5991,,,231.8499,232.5346,right,0.6717,,,,,,,,,0.4,,,,,,231.5992,231.8498,232.5349,"[-0.06967186067045288,-0.07342109066896116]",100.0,"[0.16229725108559082,0.10025728646884086]",4.0,"[0.06899602637342968,-0.03596427756738786]",100.0,"[0.004424772239647537,-0.18324959411953315]",100.0,"[-0.0058095043641210355,0.04087262052606435]",100.0,"[-0.045198473000053,-0.014467782845048979]",4.0,"[0.09142032487818012,-0.12174269388495619]",4.0,"[-0.07280292157351655,0.04954744972258784]",100.0,"[0.16132189394293733,-0.08065144500883821]",4.0,"[0.05935324309495713,0.1811900804299864]",100.0,"[0.0016690003085639655,0.19611028476551162]",4.0,"[0.14070268676133754,0.06564352264468075]",4.0,"[-0.01383772822745349,-0.08798497232000263]",4.0,"[0.056738073084096785,0.03064130516075247]",4.0,"[0.1424292756991847,-0.0017838513001121694]",4.0,"[0.09697370740124188,0.01700232727066437]",4.0,"[-0.13887607088522264,-0.13562456881192947]",4.0,"[0.02005163975220784,0.07819319084632907]",4.0,"[-0.17437215660742142,-0.01510267159894105]",100.0,"[-0.10248203023037694,0.014646970612353687]",4.0,"[-0.18501574373691285,-0.0593730085866036]",4.0,"[0.08462313051979214,-0.1666394604185529]",100.0,"[-0.13218223076731345,-0.06281744478252278]",4.0,"[0.18480259339839422,0.01408157254817302]",100.0,"[-0.0004547932784411569,0.1361832348424639]",100.0,"[-0.07452718817630036,0.14472852929788557]",100.0,"[0.031195919508440906,-0.0685024311003178]",4.0,"[-0.11194636016906648,0.0938223550495191]",100.0,"[0.12330959228602703,0.13800166909838063]",4.0,"[-0.1811082696874837,0.05807831955616687]",100.0,"[-0.04432787079156753,0.1050221278529377]",4.0,"[0.07652013447383521,0.11181534372803699]",4.0,"[0.02,0.02]",233.6334,0.0,49.0,49.0,168.0,1.0,,,,,,,
