right,left,explain.started,explain.stopped,key_resp_3.keys,key_resp_3.rt,key_resp_3.duration,participant,session,date,expName,psychopyVersion,OS,frameRate,study_id,explain_2.started,explain_2.stopped,key_resp_4.keys,key_resp_4.rt,key_resp_4.duration,explain_3.started,explain_3.stopped,key_resp_5.keys,key_resp_5.rt,key_resp_5.duration,fixation.started,fixation.stopped,practice.started,practice.stopped,response.started,response.stopped,key_resp.keys,key_resp.rt,key_resp.duration,feedback.started,feedback.stopped,trials_2.thisRepN,trials_2.thisTrialN,trials_2.thisN,trials_2.thisIndex,trials_2.ran,dot_ratio,explain_4.started,explain_4.stopped,key_resp_6.keys,key_resp_6.rt,key_resp_6.duration,dotDisplay.started,dotDisplay.stopped,ITI.started,polygon_1.pos,polygon_1.edges,polygon_2.pos,polygon_2.edges,polygon_3.pos,polygon_3.edges,polygon_4.pos,polygon_4.edges,polygon_5.pos,polygon_5.edges,polygon_6.pos,polygon_6.edges,polygon_7.pos,polygon_7.edges,polygon_8.pos,polygon_8.edges,polygon_9.pos,polygon_9.edges,polygon_10.pos,polygon_10.edges,polygon_11.pos,polygon_11.edges,polygon_12.pos,polygon_12.edges,polygon_13.pos,polygon_13.edges,polygon_14.pos,polygon_14.edges,polygon_15.pos,polygon_15.edges,polygon_16.pos,polygon_16.edges,polygon_17.pos,polygon_17.edges,polygon_18.pos,polygon_18.edges,polygon_19.pos,polygon_19.edges,polygon_20.pos,polygon_20.edges,polygon_21.pos,polygon_21.edges,polygon_22.pos,polygon_22.edges,polygon_23.pos,polygon_23.edges,polygon_24.pos,polygon_24.edges,polygon_25.pos,polygon_25.edges,polygon_26.pos,polygon_26.edges,polygon_27.pos,polygon_27.edges,polygon_28.pos,polygon_28.edges,polygon_29.pos,polygon_29.edges,polygon_30.pos,polygon_30.edges,polygon_31.pos,polygon_31.edges,polygon_32.pos,polygon_32.edges,dot_size,ITI.stopped,trials.thisRepN,trials.thisTrialN,trials.thisN,trials.thisIndex,trials.ran,break_2.started,break_2.stopped,trials_3.thisRepN,trials_3.thisTrialN,trials_3.thisN,trials_3.thisIndex,trials_3.ran
subject chose dot,subject chose diamond,0.0003,62.1404,space,47.1314,,65feaaac53eb219f09ad5ea0,6842bc0d0fcaa2d54dff969d,2025-06-06_13h00.42.500,shape_ratio,2024.1.5,Win32,60.24096386,6842b561977af9ba9b0f87ca,,,,,,,,,,,,,,,,,,,,,,,,,,,,,,,,,,,,,,,,,,,,,,,,,,,,,,,,,,,,,,,,,,,,,,,,,,,,,,,,,,,,,,,,,,,,,,,,,,,,,,,,,,,,,,,,,
,,,,,,,65feaaac53eb219f09ad5ea0,6842bc0d0fcaa2d54dff969d,2025-06-06_13h00.42.500,shape_ratio,2024.1.5,Win32,60.24096386,6842b561977af9ba9b0f87ca,62.1409,120.2505,space,28.0914,,,,,,,,,,,,,,,,,,,,,,,,,,,,,,,,,,,,,,,,,,,,,,,,,,,,,,,,,,,,,,,,,,,,,,,,,,,,,,,,,,,,,,,,,,,,,,,,,,,,,,,,,,,,,
,,,,,,,65feaaac53eb219f09ad5ea0,6842bc0d0fcaa2d54dff969d,2025-06-06_13h00.42.500,shape_ratio,2024.1.5,Win32,60.24096386,6842b561977af9ba9b0f87ca,,,,,,120.2508,130.6711,space,7.3929,,,,,,,,,,,,,,,,,,,,,,,,,,,,,,,,,,,,,,,,,,,,,,,,,,,,,,,,,,,,,,,,,,,,,,,,,,,,,,,,,,,,,,,,,,,,,,,,,,,,,,,,
,,,,,,,65feaaac53eb219f09ad5ea0,6842bc0d0fcaa2d54dff969d,2025-06-06_13h00.42.500,shape_ratio,2024.1.5,Win32,60.24096386,6842b561977af9ba9b0f87ca,,,,,,,,,,,130.6964,131.1876,131.1881,131.4243,131.4245,132.4884,left,1.0148,,132.4887,133.5886,0.0,0.0,0.0,1.0,1.0,0.8,,,,,,,,,,,,,,,,,,,,,,,,,,,,,,,,,,,,,,,,,,,,,,,,,,,,,,,,,,,,,,,,,,,,,,,,,,,,,,,,,,,,,,
,,,,,,,65feaaac53eb219f09ad5ea0,6842bc0d0fcaa2d54dff969d,2025-06-06_13h00.42.500,shape_ratio,2024.1.5,Win32,60.24096386,6842b561977af9ba9b0f87ca,,,,,,,,,,,133.5897,134.0887,134.0888,134.3395,134.3396,135.0228,right,0.6692,,135.0229,136.1229,0.0,1.0,1.0,0.0,1.0,0.2,,,,,,,,,,,,,,,,,,,,,,,,,,,,,,,,,,,,,,,,,,,,,,,,,,,,,,,,,,,,,,,,,,,,,,,,,,,,,,,,,,,,,,
,,,,,,,65feaaac53eb219f09ad5ea0,6842bc0d0fcaa2d54dff969d,2025-06-06_13h00.42.500,shape_ratio,2024.1.5,Win32,60.24096386,6842b561977af9ba9b0f87ca,,,,,,,,,,,,,,,,,,,,,,,,,,,,136.1235,139.8752,space,0.7486,,,,,,,,,,,,,,,,,,,,,,,,,,,,,,,,,,,,,,,,,,,,,,,,,,,,,,,,,,,,,,,,,,,,,,,,,,,,,,,,,,
,,,,,,,65feaaac53eb219f09ad5ea0,6842bc0d0fcaa2d54dff969d,2025-06-06_13h00.42.500,shape_ratio,2024.1.5,Win32,60.24096386,6842b561977af9ba9b0f87ca,,,,,,,,,,,139.8972,140.3914,,,140.6423,141.3927,left,0.7355,,,,,,,,,0.6,,,,,,140.392,140.6423,141.3941,"[0.1741802233228885,0.0037088008050310344]",100.0,"[0.13223135191217905,-0.13562877330612477]",4.0,"[0.12210921910368717,0.10461692795288652]",4.0,"[0.10336936515755926,-0.05707189674098961]",100.0,"[-0.07788272685468803,-0.12108766033593418]",4.0,"[0.10206351655698591,0.04592146090168725]",4.0,"[-0.011675644647205023,0.0656819721745172]",100.0,"[-0.004008388658080974,0.11662874434800759]",100.0,"[-0.024766508504946615,0.17762212555110943]",4.0,"[-0.020282141132548753,-0.09398971821803027]",100.0,"[0.01567735634841206,-0.18061517062177318]",4.0,"[-0.09865094279408612,-0.05209615951013728]",100.0,"[0.041166227422290855,0.07129642008566162]",100.0,"[-0.04182315809492316,-0.15913990288844737]",100.0,"[0.03736769075815157,-0.06628252903259742]",4.0,"[-0.10307568599257887,-0.1638553680786373]",100.0,"[0.030231904946133495,0.0057822528817543795]",4.0,"[-0.050894521360493813,0.01566518531043742]",100.0,"[-0.12512057584698189,-0.08879164001619146]",4.0,"[-0.07647874122682614,0.10583556757058957]",4.0,"[-0.11475346306756651,0.11781669960759439]",100.0,"[-0.14763121068786278,0.09472834456068306]",4.0,"[-0.08937502754388846,0.031068860982631695]",4.0,"[-0.053102805708161935,0.05612805336351866]",100.0,"[0.11637070624834446,-0.018629542394483604]",100.0,"[0.015365361525582797,0.1597679124737165]",100.0,"[-0.16795943574048855,-0.0542948303639731]",100.0,"[-0.16570228822734542,-0.11166755155620654]",100.0,"[0.03697198639009624,-0.13791893955851176]",100.0,"[0.15907068509061623,-0.05924100359775423]",4.0,"[0.07891915038789042,0.11310002221165882]",100.0,"[-0.15939812487810304,0.019991826229094217]",100.0,"[0.02,0.02]",142.4925,0.0,0.0,0.0,40.0,1.0,,,,,,,
,,,,,,,65feaaac53eb219f09ad5ea0,6842bc0d0fcaa2d54dff969d,2025-06-06_13h00.42.500,shape_ratio,2024.1.5,Win32,60.24096386,6842b561977af9ba9b0f87ca,,,,,,,,,,,142.4931,142.9927,,,143.2434,143.8932,right,0.6372,,,,,,,,,0.9,,,,,,142.9927,143.2433,143.8933,"[-0.07091994159740261,-0.046772450926884104]",100.0,"[-0.16400938240417556,0.08091048732485072]",100.0,"[0.0010313885078609198,0.0322683836494898]",100.0,"[0.010034505674548217,-0.08464345513029572]",100.0,"[-0.024224495519771443,-0.058158358861032995]",100.0,"[-0.015950879862550105,0.0830000182704899]",100.0,"[-0.07623337959604613,-0.0011188314586731102]",100.0,"[-0.113351350941068,0.13958089330563492]",100.0,"[-0.03637189381118755,0.12842586994677838]",100.0,"[0.029388699422137923,-0.0003011484953400749]",100.0,"[-0.1664342184597624,0.018292639797398532]",100.0,"[-0.056905404621782354,0.04059563517771079]",100.0,"[-0.04707253202954506,0.17006214078425078]",100.0,"[0.1209000276683202,-0.14103751276279064]",4.0,"[-0.11395438762097458,-0.0793502632510788]",100.0,"[0.0639012504787606,-0.15535499012607462]",100.0,"[0.037352522562861395,0.08942477080025853]",4.0,"[-0.05449204948823291,-0.1817294315071462]",100.0,"[-0.017566067003091154,-0.1219520929970317]",100.0,"[0.12899858819285642,-0.07430168203922947]",100.0,"[0.08513867645181054,-0.10867389452309925]",100.0,"[0.03634044474628772,0.17853523949965053]",4.0,"[0.06350471953433695,0.14352674434928755]",100.0,"[0.1804834892665312,0.023373698509083392]",100.0,"[-0.1733733245241078,-0.024289988173398648]",100.0,"[0.07177250874504297,0.005298658302719567]",100.0,"[0.026166333886186086,-0.17347363813710737]",100.0,"[0.11279639693931967,0.13026705604037678]",100.0,"[-0.11343030386517607,0.07631373794272207]",100.0,"[0.1796618474140181,-0.026633221734475243]",100.0,"[-0.11596825182600087,-0.12389358480247224]",100.0,"[0.08234528780076557,-0.06778068044160412]",100.0,"[0.02,0.02]",144.9935,0.0,1.0,1.0,20.0,1.0,,,,,,,
,,,,,,,65feaaac53eb219f09ad5ea0,6842bc0d0fcaa2d54dff969d,2025-06-06_13h00.42.500,shape_ratio,2024.1.5,Win32,60.24096386,6842b561977af9ba9b0f87ca,,,,,,,,,,,144.9941,145.4936,,,145.7445,146.511,right,0.7553,,,,,,,,,0.5,,,,,,145.4937,145.7445,146.5111,"[0.10868010498580209,-0.051723746481250485]",4.0,"[0.0049040497175211325,0.024525635665334805]",4.0,"[-0.10407176794001514,-0.044803151824011594]",100.0,"[-0.024951029654402605,-0.029118580562386285]",4.0,"[-0.07626801583163337,0.07805106296624027]",100.0,"[-0.07720395659872943,0.12816915197730316]",100.0,"[-0.02348212341885403,0.054190188099316874]",100.0,"[0.07077931832339021,-0.15047583174040047]",100.0,"[0.17346323356664262,-0.07612298221673587]",100.0,"[-0.16227316641160283,-0.08465260561869913]",4.0,"[0.07391899535945143,0.09372711777974509]",4.0,"[-0.12324671066208817,0.03558358699267958]",100.0,"[0.11187311447396797,0.06863848684934115]",4.0,"[-0.16599568605094855,0.10588360335509742]",4.0,"[-0.18595989792658177,0.021689701614336115]",100.0,"[-0.02292690410105179,-0.1840336673869086]",100.0,"[0.0280725063999513,-0.19264448724616565]",4.0,"[0.061135783846467534,-0.09150753545979057]",100.0,"[0.006736993088564501,-0.07155372571551738]",4.0,"[0.12954776139905377,-0.13412360170632093]",100.0,"[0.04480382784226036,0.011393933279315734]",100.0,"[-0.09183426406765602,-0.13468277025822215]",4.0,"[0.013697930606619437,-0.15264121337818903]",4.0,"[0.15854729982320032,0.0152186375782567]",4.0,"[-0.07715225801491164,-0.07879637956308798]",4.0,"[-0.1652201390796551,-0.03914240480074101]",100.0,"[0.1630334531667864,0.0857535266136796]",100.0,"[-0.009621609895940453,0.1614940311173411]",4.0,"[0.03504899781757022,0.10496196752642814]",4.0,"[0.08625120354174412,0.03137025167382068]",100.0,"[0.12630892844128702,0.12243771157256524]",100.0,"[-0.06588680791047255,0.16673726354658117]",4.0,"[0.02,0.02]",147.6118,0.0,2.0,2.0,108.0,1.0,,,,,,,
,,,,,,,65feaaac53eb219f09ad5ea0,6842bc0d0fcaa2d54dff969d,2025-06-06_13h00.42.500,shape_ratio,2024.1.5,Win32,60.24096386,6842b561977af9ba9b0f87ca,,,,,,,,,,,147.6134,148.1116,,,148.3631,149.2955,left,0.9186,,,,,,,,,0.4,,,,,,148.1116,148.363,149.2957,"[0.19933815564863708,0.006796589467249226]",100.0,"[0.12089590613956003,0.15575100968855912]",4.0,"[0.003729325250535631,0.17661387834794584]",100.0,"[-0.06381431002699867,-0.05836318274468419]",4.0,"[-0.0004886800608083521,-0.16308880322980054]",4.0,"[0.11876860192920584,-0.05080560708699078]",4.0,"[0.07285623894082033,0.10117413729376035]",100.0,"[-0.060786772281208414,0.005205642654566716]",4.0,"[-0.09091583931563423,0.06778678390386035]",100.0,"[-0.037659718105796526,-0.12998857157839203]",4.0,"[-0.16076453940280322,0.03858338754157634]",4.0,"[0.052652322704120284,0.06454773071779996]",4.0,"[0.09647733542150577,0.04184129742463494]",100.0,"[-0.11236214896652624,0.1562325334290461]",100.0,"[-0.06855482044936606,0.144470092948382]",100.0,"[-0.04000277458329735,0.10361979998573065]",4.0,"[0.1461982870613406,-0.08199304397769137]",100.0,"[0.09709557504494501,-0.166493467714057]",4.0,"[0.16227558722981694,-0.010497527014143913]",4.0,"[-0.1395155772555041,0.0836905070335835]",100.0,"[0.14678160829685666,0.07184919348154582]",4.0,"[-0.04567473124364603,0.05538520110036276]",100.0,"[0.08110451661619507,-0.03247505305626709]",100.0,"[-0.07130320423761194,-0.10247176795691758]",4.0,"[0.021913147466993257,-0.0651446348115073]",4.0,"[-0.007851707091904872,-0.09718023130562549]",4.0,"[0.05842625770839864,-0.12955521154095412]",100.0,"[0.05773085518212418,-0.1773775045662478]",100.0,"[0.12068796640508496,-0.12148787234608124]",4.0,"[0.011183628467725578,0.1165227377734221]",4.0,"[-0.11739132290147135,-0.1503551191434064]",4.0,"[-0.1771915198776737,-0.04038193077001791]",4.0,"[0.02,0.02]",150.3959,0.0,3.0,3.0,157.0,1.0,,,,,,,
,,,,,,,65feaaac53eb219f09ad5ea0,6842bc0d0fcaa2d54dff969d,2025-06-06_13h00.42.500,shape_ratio,2024.1.5,Win32,60.24096386,6842b561977af9ba9b0f87ca,,,,,,,,,,,150.3966,150.8962,,,151.1478,151.8643,right,0.7022,,,,,,,,,0.6,,,,,,150.8963,151.1477,151.8645,"[0.1409187809763562,-0.122131569975997]",100.0,"[0.04955136964986941,0.14586089516996345]",100.0,"[-0.03155551864619777,0.11292875769548587]",100.0,"[-0.13459499082223064,0.04638212206037221]",4.0,"[-0.03633770072206927,-0.19481440524762839]",4.0,"[0.006729505359864296,0.04639998207778158]",4.0,"[0.12971997960534018,0.06297544208993852]",4.0,"[-0.038052233007522,0.008990686127151754]",100.0,"[-0.064965260004618,-0.035305436279842985]",100.0,"[-0.1926154504166399,-0.02771699588655658]",100.0,"[-0.12086175458000868,-0.0074376048678514535]",4.0,"[0.016802797133063384,-0.15184693425570556]",100.0,"[0.14239560213007552,-0.07221741154909306]",4.0,"[-0.14885959028578008,0.09833909583104405]",4.0,"[0.057462481108679735,-0.05312352775541639]",100.0,"[-0.1491413028514792,-0.09337778382669774]",100.0,"[-0.056931617934320104,-0.15404653613482555]",4.0,"[0.14182821429903536,-0.01924728521455931]",4.0,"[-0.025158278424876286,0.15603933211657062]",4.0,"[0.005533729562330734,-0.056107525787599304]",100.0,"[0.040726054244740746,-0.1020124981168083]",100.0,"[0.0741636256807865,-0.13525379100956939]",100.0,"[-0.08100364145270962,-0.09261202176543237]",100.0,"[-0.18429615238580344,0.07095021982816445]",100.0,"[-0.09896911202966943,0.11754612098174988]",4.0,"[0.19434531469667118,-0.044245819774344435]",4.0,"[-0.03629880972717796,-0.06408604126936042]",4.0,"[-0.01732461637359217,0.1969796052697441]",100.0,"[0.002439843548009307,-0.004152578061042927]",100.0,"[0.09152438784266291,-0.17578753577535466]",100.0,"[-0.11384153288590801,-0.06850985651447855]",100.0,"[0.04792557136946772,0.08840912529598066]",100.0,"[0.02,0.02]",152.9638,0.0,4.0,4.0,49.0,1.0,,,,,,,
,,,,,,,65feaaac53eb219f09ad5ea0,6842bc0d0fcaa2d54dff969d,2025-06-06_13h00.42.500,shape_ratio,2024.1.5,Win32,60.24096386,6842b561977af9ba9b0f87ca,,,,,,,,,,,152.9644,153.4646,,,153.7148,154.2321,right,0.5045,,,,,,,,,0.6,,,,,,153.4648,153.7147,154.2323,"[-0.0405893543672858,0.05779093759881887]",100.0,"[0.09219345744790028,0.17011563601831695]",100.0,"[-0.13067151415515996,-0.03446479129981618]",100.0,"[0.049515005807345025,-0.19050803143306694]",4.0,"[-0.014907560229379484,-0.044066838149654224]",100.0,"[-0.0037677008676119954,0.15286123392599663]",100.0,"[-0.09794602599081358,0.07379569083933811]",100.0,"[0.008313795928988945,-0.0035478086099005293]",100.0,"[-0.04607962149650052,-0.14676752543560162]",4.0,"[0.05791643330556021,-0.023014137082664077]",4.0,"[0.06882016747941504,-0.10426078203735872]",100.0,"[-0.16770065790344052,0.06742347122091549]",4.0,"[-0.11327893991600649,0.004096491705367929]",100.0,"[0.11637059496124495,-0.10247433957317197]",4.0,"[0.14549139614207177,0.10181865463831392]",100.0,"[0.012304175445121671,0.04854003869393633]",100.0,"[-0.15212523293009636,0.016760414106744358]",100.0,"[-0.07789650363842283,0.1570982599099507]",100.0,"[0.15744388799305095,-0.03798110258637048]",4.0,"[0.03878233610932751,0.1287174928440048]",4.0,"[-0.12315789259170541,0.15679545781124546]",100.0,"[0.09565962483141295,0.11126580552082162]",100.0,"[0.19671661992576595,0.025664310395004115]",4.0,"[-0.01142533304754003,0.09598633058316314]",4.0,"[0.0278322314288326,-0.05036724230688922]",100.0,"[0.07969991256485526,0.03734948529976139]",100.0,"[-0.07179641964282572,0.11497354816546647]",4.0,"[-0.19245892099210388,-0.014241298728454949]",4.0,"[-0.06132071288179865,-0.04055909150292654]",100.0,"[0.10434504446630592,-0.007391050705797225]",4.0,"[0.1588313018747378,0.05708073416129199]",4.0,"[-0.0512362731778719,-0.09917695173195806]",100.0,"[0.02,0.02]",155.3319,0.0,5.0,5.0,50.0,1.0,,,,,,,
,,,,,,,65feaaac53eb219f09ad5ea0,6842bc0d0fcaa2d54dff969d,2025-06-06_13h00.42.500,shape_ratio,2024.1.5,Win32,60.24096386,6842b561977af9ba9b0f87ca,,,,,,,,,,,155.3329,155.832,,,156.0825,156.6657,left,0.5661,,,,,,,,,0.1,,,,,,155.8321,156.0825,156.6658,"[0.13492694280156514,0.08793075110606387]",4.0,"[0.023940918109992344,-0.17660051492183665]",4.0,"[-0.08210851880456149,0.07433832945486323]",4.0,"[-0.07130353345055478,0.14316316024964915]",4.0,"[-0.04802969571331781,-0.07462617862170956]",4.0,"[-0.09356723632828316,-0.07322676618684142]",4.0,"[0.06226531366200107,-0.055721322167007085]",4.0,"[-0.004692739484872776,0.06323592780298183]",4.0,"[-0.11415865245273761,-0.029823211648571445]",4.0,"[0.018706053102917224,-0.06800017534749832]",4.0,"[-0.11756155916095838,-0.1611599713978683]",4.0,"[-0.031008197017905963,-0.1853855670677893]",4.0,"[-0.13854472688567007,-0.08297557801873463]",4.0,"[-0.19238974481274201,-0.023926516386368706]",4.0,"[0.17144957145422207,0.019292586063007006]",4.0,"[0.1110359643879674,0.14612959627314087]",4.0,"[0.03274556332809642,0.08577324883839764]",4.0,"[-0.033105245495755636,-0.004975255541472458]",100.0,"[0.09494620845824855,-0.16923547113405085]",4.0,"[0.017794959376868303,0.18547249922062778]",4.0,"[0.1489773079133391,-0.13102457547590554]",4.0,"[-0.12817579858970954,0.1527437652601741]",4.0,"[-0.07672301322590738,0.03427098943612109]",4.0,"[0.14569918243071067,-0.03484275651377968]",4.0,"[-0.051562254594138414,0.1926268954151136]",4.0,"[0.05592539699167155,-0.13614655115527718]",100.0,"[0.10461214997131602,-0.06225684714909074]",4.0,"[-0.00979605612456701,0.1422012935697026]",4.0,"[0.14123814940110485,-0.08198163810485104]",100.0,"[-0.15203713673656474,0.06801783425488635]",4.0,"[0.0060573092773916265,-0.13781214113183693]",4.0,"[0.10463568972966895,0.031680519748110536]",4.0,"[0.02,0.02]",157.766,0.0,6.0,6.0,180.0,1.0,,,,,,,
,,,,,,,65feaaac53eb219f09ad5ea0,6842bc0d0fcaa2d54dff969d,2025-06-06_13h00.42.500,shape_ratio,2024.1.5,Win32,60.24096386,6842b561977af9ba9b0f87ca,,,,,,,,,,,157.7666,158.2662,,,158.518,159.2341,left,0.702,,,,,,,,,0.45,,,,,,158.2663,158.518,159.2342,"[-0.06582352987297763,-0.15787253841020873]",4.0,"[-0.021128701434249473,-0.056371791435500605]",4.0,"[-0.152074902753376,-0.014996314483033917]",4.0,"[0.04427958460072594,-0.18476579567032214]",4.0,"[-0.061288070638605266,0.0749130081708839]",100.0,"[-0.024981047383951113,0.17948904410474883]",4.0,"[0.013257502316680108,-0.10325752743402901]",100.0,"[0.09174882194489996,-0.10705413954801052]",4.0,"[-0.007480274741800973,0.08022866677371697]",100.0,"[0.09808116640923802,0.05074577621692103]",100.0,"[-0.11422098286316322,-0.11939840799882878]",4.0,"[-0.09774299335738579,0.01920372662278753]",4.0,"[-0.15761893812280062,0.07206885007697937]",4.0,"[0.048809862911202415,-0.025397414698081197]",4.0,"[-0.047296847200508446,-0.11285145125977349]",100.0,"[0.04118409712579796,0.019925199080836384]",100.0,"[-0.11482519515917469,0.08473252852917841]",4.0,"[0.15028250379371574,-0.08025227055911756]",100.0,"[0.102475656755695,-0.05655456827033496]",4.0,"[0.18438405364218693,0.01886222880169887]",4.0,"[0.14619313985674123,0.06823740640010126]",4.0,"[-0.10687408226738271,-0.057780164831929604]",100.0,"[0.03649240231574975,-0.0704426414366278]",100.0,"[-0.050664333203693374,-0.023558168853961767]",100.0,"[0.04571302556290501,0.07605635886304174]",100.0,"[0.12815932364071705,0.14495661925696465]",100.0,"[-0.17712632387479185,-0.05934756951386869]",100.0,"[0.18416758175281117,-0.033797512893017356]",100.0,"[-0.05439644252237591,0.030553997849546443]",4.0,"[-0.08479661974728428,0.1314863506504011]",4.0,"[-0.0007376559546780972,-0.17870002770509677]",4.0,"[0.08550339572156142,-0.17984122275551642]",4.0,"[0.02,0.02]",160.3339,0.0,7.0,7.0,121.0,1.0,,,,,,,
,,,,,,,65feaaac53eb219f09ad5ea0,6842bc0d0fcaa2d54dff969d,2025-06-06_13h00.42.500,shape_ratio,2024.1.5,Win32,60.24096386,6842b561977af9ba9b0f87ca,,,,,,,,,,,160.3347,160.834,,,161.0847,161.5847,right,0.4942,,,,,,,,,0.5,,,,,,160.834,161.0847,161.5848,"[0.042603547235842344,-0.16016171416829342]",100.0,"[0.18518161050883475,0.07381413950568559]",100.0,"[-0.06115554070537379,0.09737588578115096]",4.0,"[0.00003936139524159218,0.16207159263740767]",100.0,"[0.02145217830535752,-0.05569790715121602]",100.0,"[0.17292881748326586,0.02649581010837989]",4.0,"[-0.03035941044235859,-0.18447606771329447]",4.0,"[0.06331024334638224,0.18650280455582585]",100.0,"[-0.1325614027870703,-0.1065676429098552]",4.0,"[0.01193050097188735,-0.00573847339228196]",4.0,"[-0.07874842221779153,-0.05094109952543457]",4.0,"[-0.10948020257503713,-0.16226235900912975]",100.0,"[0.10004900760272308,0.09521997271172676]",100.0,"[0.0739985878843866,-0.03585950961505655]",100.0,"[-0.042619871086184445,0.027945777535958855]",4.0,"[0.008581315073010489,0.08046795393594684]",100.0,"[0.1026654645905194,0.0030302307992035086]",100.0,"[0.13749166446512295,0.13491131927924008]",4.0,"[0.0445847812618251,0.12064344119586698]",100.0,"[0.11218485137241285,-0.11662026537299428]",100.0,"[-0.14413096205712775,0.0005658936520507962]",4.0,"[0.14995462569355547,-0.012245373806270077]",100.0,"[0.06944850161133777,-0.07796389421711991]",100.0,"[-0.08104289123731714,0.1449348709873446]",4.0,"[-0.1460689573244654,-0.048801216433331934]",4.0,"[0.14283241062149116,0.060657417650244363]",4.0,"[0.12469359048278093,-0.07577643476116676]",4.0,"[-0.03606069857406865,0.13169915837794877]",4.0,"[-0.12815342579776923,0.11056522251165332]",100.0,"[-0.07024023732341927,-0.11524481562787359]",100.0,"[-0.14018156382631491,0.04270466488937636]",4.0,"[0.0034025366709470747,-0.1428280323748568]",4.0,"[0.02,0.02]",162.6849,0.0,8.0,8.0,118.0,1.0,,,,,,,
,,,,,,,65feaaac53eb219f09ad5ea0,6842bc0d0fcaa2d54dff969d,2025-06-06_13h00.42.500,shape_ratio,2024.1.5,Win32,60.24096386,6842b561977af9ba9b0f87ca,,,,,,,,,,,162.6855,163.185,,,163.436,163.8024,right,0.3573,,,,,,,,,0.9,,,,,,163.1851,163.4359,163.8025,"[0.06541679421978201,0.0006839665913749635]",100.0,"[-0.052737763539198235,-0.12013674705151167]",100.0,"[0.056867670447950984,0.11584604087562461]",100.0,"[0.03288735429921848,-0.10738584110394006]",100.0,"[-0.013436438750043219,-0.14387247521805982]",100.0,"[-0.15665390795934037,-0.07875134252813612]",100.0,"[-0.015227611218781205,0.04468285996422318]",4.0,"[-0.004830699100332069,-0.0859299031187072]",100.0,"[0.022273196978035315,0.19579505438929853]",100.0,"[-0.15186583554003077,-0.032082644917389096]",4.0,"[-0.1159227145781372,0.11909410488994847]",100.0,"[-0.17579813713504308,0.06946692515578297]",100.0,"[0.13519194569190943,0.058176587593281925]",100.0,"[-0.06966893123055878,0.034867417950307844]",100.0,"[0.029519048103522485,0.01834818838414639]",100.0,"[0.05759550255599406,0.06200272856417718]",100.0,"[0.013010627822188479,0.14835036825200779]",100.0,"[0.11630938055271897,-0.0010507860360332482]",100.0,"[0.17036947877567996,0.0852572435960862]",100.0,"[-0.03525547796872003,-0.04098978828654742]",100.0,"[-0.07867953720887808,-0.025397332583261545]",100.0,"[0.05543021640556652,-0.18613545735326253]",100.0,"[-0.036206871556981185,0.18360023486513302]",100.0,"[-0.054394218851939506,0.09410976191795777]",100.0,"[0.14244931362962102,-0.11751635571031792]",4.0,"[-0.09636226012575128,-0.11737343527825549]",100.0,"[-0.11889981267128226,-0.007151339109359512]",100.0,"[0.14209004929263644,-0.07259343533688734]",100.0,"[-0.01334874026516733,0.08907603319106593]",100.0,"[-0.02083231742961256,0.004539759156821428]",100.0,"[0.09925840815783285,-0.05409968618945372]",100.0,"[0.12571049839814197,0.14311030945131473]",100.0,"[0.02,0.02]",164.9025,0.0,9.0,9.0,5.0,1.0,,,,,,,
,,,,,,,65feaaac53eb219f09ad5ea0,6842bc0d0fcaa2d54dff969d,2025-06-06_13h00.42.500,shape_ratio,2024.1.5,Win32,60.24096386,6842b561977af9ba9b0f87ca,,,,,,,,,,,164.9031,165.4034,,,165.6543,166.1536,left,0.4847,,,,,,,,,0.6,,,,,,165.4035,165.6542,166.1538,"[0.019434904945314045,-0.050993255443734724]",100.0,"[-0.09443787809697235,-0.015210600318268094]",4.0,"[-0.011417007635479134,0.16322394459328768]",100.0,"[0.10175034592821253,0.14920523037871197]",100.0,"[0.16180127727445348,0.05103200537437134]",4.0,"[0.10348485176208379,-0.053498059441795316]",100.0,"[0.015412892015588561,0.07100832202985795]",100.0,"[0.1489366842510376,-0.04024726071511301]",100.0,"[-0.04504016354697633,0.11051472134274946]",4.0,"[0.03556005327858378,0.10883711097165565]",100.0,"[-0.08106579105777208,-0.12770502010609383]",4.0,"[-0.13215817714756123,-0.07530817745173578]",4.0,"[-0.02401592818187705,0.012611403077072682]",4.0,"[-0.034327546571896676,-0.1957820927769901]",4.0,"[-0.04988744003056314,-0.06395894938105803]",100.0,"[0.05710421155577228,0.15779359651382968]",100.0,"[-0.19779495786174953,-0.026473313949624298]",100.0,"[-0.17979732624550235,0.053462974999256944]",4.0,"[-0.13198866088602473,0.1011073547273455]",4.0,"[0.003840323180862827,-0.11477731062889068]",100.0,"[0.06271757803515206,0.05374058747384696]",100.0,"[0.1199058149698763,-0.09093234862696856]",100.0,"[-0.1316923693374691,0.014117230687491385]",4.0,"[-0.08022290364849326,0.06889277089431975]",4.0,"[-0.046905956568892224,0.1915510453296568]",4.0,"[0.16330403495556167,-0.08997969684589058]",100.0,"[0.17711280485879474,-0.003783206663320709]",100.0,"[0.035253893497458506,-0.1610372631799204]",100.0,"[-0.0738199897013296,0.16045524248127868]",100.0,"[0.06210078454651197,0.009048988741832478]",100.0,"[0.14123836877725132,0.11890724036775846]",100.0,"[0.09571455397007844,0.0975668489237093]",4.0,"[0.02,0.02]",167.254,0.0,10.0,10.0,35.0,1.0,,,,,,,
,,,,,,,65feaaac53eb219f09ad5ea0,6842bc0d0fcaa2d54dff969d,2025-06-06_13h00.42.500,shape_ratio,2024.1.5,Win32,60.24096386,6842b561977af9ba9b0f87ca,,,,,,,,,,,167.255,167.7542,,,168.0052,168.5882,right,0.5722,,,,,,,,,0.9,,,,,,167.7543,168.0051,168.5883,"[0.06180135934257389,-0.046181677301144884]",100.0,"[0.0391605942791322,0.08134946037996046]",100.0,"[0.1282490673962963,-0.01611371044995308]",100.0,"[0.06480109985354629,0.15148320960530315]",100.0,"[-0.02801733429628401,-0.06587481522256478]",100.0,"[-0.09857767992239838,-0.051973218014252975]",100.0,"[-0.04847193311294312,0.18249263884020464]",100.0,"[-0.0484978775153825,-0.14727737521661036]",100.0,"[0.1712197416380719,-0.04117520778903662]",100.0,"[0.14988659458935558,0.06945761819342344]",100.0,"[-0.10296742118213535,-0.005672327586325058]",100.0,"[0.10708571823204065,0.10191374546837079]",100.0,"[0.049476655559305055,-0.10760098460315275]",100.0,"[-0.07724452143455517,-0.1802800558317976]",100.0,"[0.0649868637763795,-0.0032795905609935066]",100.0,"[0.10631248903305032,-0.1187797440186344]",100.0,"[-0.020724771988322933,0.06876622301421698]",4.0,"[-0.042505173710206984,-0.00915878999066438]",100.0,"[0.11190010121898318,-0.07913945112689366]",100.0,"[0.18477029760686323,0.032376644373042246]",100.0,"[-0.17873090783179954,-0.08866206929914162]",4.0,"[-0.1272325277838273,0.13938045399200757]",100.0,"[-0.025097265517049813,0.13473508922614486]",100.0,"[-0.1865634907408897,-0.04362568153780189]",4.0,"[0.06118464262301921,-0.16891636791421302]",100.0,"[-0.12303127282949078,-0.13507846864626968]",100.0,"[-0.12137455248607389,0.08212617770775851]",100.0,"[-0.06487456921429048,0.07556720318162202]",100.0,"[-0.152452268522828,0.03937027565104855]",100.0,"[0.010810936959581127,-0.013983698574219272]",100.0,"[0.008711695156739908,-0.16369355819406783]",100.0,"[-0.1746776780574687,0.07492146250045648]",100.0,"[0.02,0.02]",169.6882,0.0,11.0,11.0,8.0,1.0,,,,,,,
,,,,,,,65feaaac53eb219f09ad5ea0,6842bc0d0fcaa2d54dff969d,2025-06-06_13h00.42.500,shape_ratio,2024.1.5,Win32,60.24096386,6842b561977af9ba9b0f87ca,,,,,,,,,,,169.6893,170.1882,,,170.4398,170.8723,right,0.4178,,,,,,,,,0.9,,,,,,170.1882,170.4397,170.8724,"[-0.14360051058264986,-0.07124108053548131]",100.0,"[0.02436432162840127,-0.07940341745444528]",100.0,"[-0.03531344357750408,-0.011821008543356673]",100.0,"[0.0786275264141837,0.009300939762083257]",100.0,"[0.11287484648169932,-0.11316563707162082]",100.0,"[0.008978030517950973,0.1745788909330338]",4.0,"[0.09382094433342969,0.1336868698839444]",100.0,"[0.12422296172629323,0.055367586287161416]",4.0,"[0.08993556360770351,-0.04851602151048787]",100.0,"[-0.14041783567626842,-0.13633723766506445]",100.0,"[-0.09111129151948143,-0.08658974058737266]",100.0,"[0.06299608245615304,-0.1490909288726998]",100.0,"[-0.05512736308475583,-0.12127573519120641]",100.0,"[0.055909018635825515,0.06500893436163167]",100.0,"[0.009928348193950828,-0.03174618657325271]",100.0,"[0.06057333360947923,0.11053741985470844]",100.0,"[0.14118875016337884,-0.005016816116327765]",100.0,"[-0.05592584454324869,0.11871360791805084]",100.0,"[0.17071396646242312,-0.05186755671058049]",100.0,"[0.07405259860280732,-0.09099009582215709]",100.0,"[-0.08704997336737533,0.14567612109148786]",100.0,"[-0.1846154218856113,-0.06562257904558057]",100.0,"[0.19414561336694777,0.029154043518225748]",100.0,"[-0.09799588745272085,-0.0308903373870005]",100.0,"[-0.017332388482467657,-0.1723997140229797]",4.0,"[-0.06466733413660145,-0.18554597660083838]",100.0,"[-0.09616037563917318,-0.1276766052873169]",100.0,"[-0.09912593327970125,0.02595698311717315]",100.0,"[-0.08791625768156379,0.07731974263471196]",100.0,"[-0.03180825000445396,0.05858840564958677]",100.0,"[0.16311835982090336,0.07558377956510448]",100.0,"[-0.15906049489740515,0.046365452348571395]",100.0,"[0.02,0.02]",171.9725,0.0,12.0,12.0,2.0,1.0,,,,,,,
,,,,,,,65feaaac53eb219f09ad5ea0,6842bc0d0fcaa2d54dff969d,2025-06-06_13h00.42.500,shape_ratio,2024.1.5,Win32,60.24096386,6842b561977af9ba9b0f87ca,,,,,,,,,,,171.9733,172.4724,,,172.7234,173.3567,left,0.6183,,,,,,,,,0.55,,,,,,172.4725,172.7233,173.3568,"[0.05491074344942719,0.03626240197778553]",4.0,"[-0.07737793385557838,0.04254748778517027]",100.0,"[-0.15119364077509004,0.027662547158442356]",100.0,"[-0.06428150664436612,-0.1426455108740137]",100.0,"[-0.14952881099147589,-0.0887629786876367]",4.0,"[0.10332109130950912,-0.08271001598493961]",4.0,"[0.02528849313030707,0.14951013609756134]",100.0,"[0.09822470175006083,0.03347205418441054]",4.0,"[0.008644263213940184,0.016218831393803555]",100.0,"[-0.006480171314152696,-0.19822151677484753]",4.0,"[-0.016322290562418344,0.13624481034957037]",100.0,"[0.03267637174043643,-0.0410265962503391]",100.0,"[-0.059062341672803394,0.13971550210783273]",4.0,"[-0.1441323692406024,0.11183273251372042]",100.0,"[0.08957798413247876,-0.009968263077218544]",4.0,"[-0.023059424158910116,-0.12407942502439707]",100.0,"[0.015303182528268669,0.07047515124380954]",100.0,"[-0.14111456109041912,-0.13505751926266008]",100.0,"[-0.029547567018609725,-0.03947329664103289]",100.0,"[-0.04953172261952091,-0.08377116520158934]",100.0,"[0.08812431958447657,0.09173188133475997]",100.0,"[0.12475002688604196,-0.14628642805818506]",4.0,"[0.1610628048655302,0.0034304934894168644]",100.0,"[-0.10203705187007549,-0.12591536066071515]",100.0,"[0.03521093877009754,-0.16627988589702122]",4.0,"[0.05055544639167649,-0.11032358210445335]",100.0,"[-0.05247075605398986,0.18662502845404974]",4.0,"[-0.19325523674774217,0.03199912991808607]",4.0,"[-0.03731208109271677,0.06111443972624261]",4.0,"[-0.1795729829044328,0.07188274075952747]",100.0,"[0.08288037157655195,-0.15551193722927922]",4.0,"[-0.1844256221558531,-0.04997672070270158]",4.0,"[0.02,0.02]",174.4572,0.0,13.0,13.0,61.0,1.0,,,,,,,
,,,,,,,65feaaac53eb219f09ad5ea0,6842bc0d0fcaa2d54dff969d,2025-06-06_13h00.42.500,shape_ratio,2024.1.5,Win32,60.24096386,6842b561977af9ba9b0f87ca,,,,,,,,,,,174.4582,174.9577,,,175.2083,175.758,left,0.5343,,,,,,,,,0.45,,,,,,174.9577,175.2082,175.7581,"[0.01466643397465382,0.14517340557201044]",100.0,"[-0.1508922687916098,0.04566077267566627]",4.0,"[0.15650616343233337,0.06408012598947792]",4.0,"[0.044068779827748,0.09926389144841553]",4.0,"[-0.011034635439895508,0.06282690739271728]",4.0,"[0.1952662740414331,0.009266298087214516]",4.0,"[0.1575615409587038,-0.023948237209501986]",100.0,"[-0.024231115041893726,-0.09513169358868037]",4.0,"[-0.03856742348272028,-0.18469740726999936]",4.0,"[0.01702711030159475,-0.06099897064772788]",100.0,"[0.1119368881754686,0.017297885061145397]",100.0,"[-0.06546550629367304,0.1472208811158785]",4.0,"[0.06535124768478723,-0.060319204067063946]",4.0,"[-0.17725759574495178,-0.059064956473800626]",4.0,"[0.048814691578185604,-0.014846695418275222]",4.0,"[0.13116033259787288,-0.11513634820344723]",100.0,"[-0.09845084974568301,-0.04461919293193298]",100.0,"[-0.07481472935875934,-0.10815692274793674]",4.0,"[-0.06485743335949591,0.18797198121396178]",4.0,"[-0.08641322777354896,0.05784882467619761]",4.0,"[0.06260814861239776,0.02283918732786074]",100.0,"[0.06882135726695789,-0.18524666305161352]",4.0,"[0.12528918102264938,0.10201877576973234]",100.0,"[0.05856089637216892,0.1438214553215163]",4.0,"[-0.1365983921838741,-0.11768819054675989]",100.0,"[-0.1453236466944863,0.1032097789310818]",100.0,"[0.008878348901138863,-0.019307389729806987]",100.0,"[0.11185938673652597,-0.1576527482429195]",100.0,"[-0.1108256142574815,0.02008467189890377]",4.0,"[-0.06699847034341701,0.02199919019113051]",100.0,"[0.05599792814862415,-0.10067213259713906]",4.0,"[-0.10049998839755227,-0.15907620245756054]",100.0,"[0.02,0.02]",176.8581,0.0,14.0,14.0,132.0,1.0,,,,,,,
,,,,,,,65feaaac53eb219f09ad5ea0,6842bc0d0fcaa2d54dff969d,2025-06-06_13h00.42.500,shape_ratio,2024.1.5,Win32,60.24096386,6842b561977af9ba9b0f87ca,,,,,,,,,,,176.8593,177.3581,,,177.6095,178.0924,right,0.4703,,,,,,,,,0.5,,,,,,177.3582,177.6095,178.0925,"[0.18888685924160142,0.003738853680758702]",4.0,"[-0.14570985841436115,0.03226049576466128]",4.0,"[0.022044425709846136,-0.19505914416222767]",100.0,"[0.02492950942954591,0.03696371947270281]",4.0,"[0.06038910965633933,-0.018098374646363904]",100.0,"[0.09852396318972595,-0.1683560568069707]",4.0,"[-0.16814981314284402,-0.0837214206616447]",100.0,"[0.10288034536405526,-0.005663587426136162]",4.0,"[0.14332096092186233,-0.006988988923417169]",4.0,"[-0.11656452443257256,0.11407537410900731]",4.0,"[0.12617202926781898,0.045067762255772]",100.0,"[-0.14883623077170105,-0.12311408784722101]",4.0,"[-0.024144504781050884,-0.18273856794073218]",4.0,"[0.11689936576565797,-0.049524862199750545]",100.0,"[-0.05578822561290226,-0.08441047462642184]",4.0,"[0.15825462317603242,0.08376384592573202]",100.0,"[-0.09077374569166498,-0.11537325998371054]",4.0,"[0.06415251441255646,0.13997929766858985]",100.0,"[-0.02615375549736719,0.11561969455593209]",100.0,"[0.03555901046653547,-0.10379394894453184]",100.0,"[0.06744601201534821,0.034873403849987446]",100.0,"[-0.1827837648556958,0.0769127541021684]",100.0,"[0.08816079611945289,0.09843703482156092]",4.0,"[-0.06156373648938464,0.059456724866366294]",100.0,"[-0.12419024214750139,-0.04350781835624589]",100.0,"[0.189169632613653,-0.056330272946823634]",100.0,"[-0.013403338725892753,-0.12386012572154231]",4.0,"[0.04929364321084397,0.1855350781811716]",4.0,"[-0.04683595112681071,-0.04036052526494671]",4.0,"[-0.09669952067391206,0.018886450591161227]",100.0,"[0.004796980874561987,-0.004335689157943602]",100.0,"[-0.06462960449702825,0.15964009624387554]",4.0,"[0.02,0.02]",179.1925,0.0,15.0,15.0,90.0,1.0,,,,,,,
,,,,,,,65feaaac53eb219f09ad5ea0,6842bc0d0fcaa2d54dff969d,2025-06-06_13h00.42.500,shape_ratio,2024.1.5,Win32,60.24096386,6842b561977af9ba9b0f87ca,,,,,,,,,,,179.1937,179.6929,,,179.9445,180.5262,left,0.5712,,,,,,,,,0.55,,,,,,179.6929,179.9444,180.5263,"[-0.014778207487131503,-0.009011670800819035]",4.0,"[0.16231397296064412,0.038609619329849104]",100.0,"[-0.10789995016908467,-0.08724133299330042]",100.0,"[-0.18940179061082119,0.0011254240845845018]",100.0,"[-0.07640464395367648,0.09406749948897845]",4.0,"[-0.007165551768562987,0.12909509076999523]",4.0,"[0.11440059224887444,-0.1448349554438772]",4.0,"[0.03904907742585909,-0.12577010991203164]",4.0,"[0.12777488741700083,-0.024236461654676605]",4.0,"[-0.09764169328346854,0.03778476801741759]",4.0,"[-0.16536971516733392,0.03362432482171377]",100.0,"[0.07439954913883803,0.027977296798565594]",100.0,"[-0.10514577097139642,-0.16316389074207716]",100.0,"[-0.08071518879007565,-0.022942876258788103]",4.0,"[-0.024354896561074164,0.034905300349815316]",4.0,"[-0.053758417688110405,0.16278322668519185]",4.0,"[0.04785517965479036,-0.18172683033482365]",100.0,"[0.10888070076491829,0.14976699264502988]",100.0,"[-0.14898762800488008,-0.02077669810742706]",100.0,"[0.07497977037422736,-0.10674490965337538]",4.0,"[0.014326999840874145,-0.07539558398050082]",100.0,"[-0.14739484768032168,-0.10756194786118084]",100.0,"[0.06733186925971549,-0.06134599399934561]",100.0,"[-0.003537031815468537,-0.14474759123032654]",100.0,"[-0.10498949559819017,0.12456596199234103]",4.0,"[0.04418899213928946,0.1421854142060533]",100.0,"[0.007161370920469065,0.18536092088556064]",100.0,"[0.029946173549235674,0.04278088891811259]",100.0,"[0.1865080670174666,-0.05471520565435166]",4.0,"[-0.041441930935339,-0.044474413279913305]",100.0,"[0.15133027009335764,-0.12693175508446453]",100.0,"[-0.022490620990684076,-0.19399075932223922]",4.0,"[0.02,0.02]",181.6268,0.0,16.0,16.0,82.0,1.0,,,,,,,
,,,,,,,65feaaac53eb219f09ad5ea0,6842bc0d0fcaa2d54dff969d,2025-06-06_13h00.42.500,shape_ratio,2024.1.5,Win32,60.24096386,6842b561977af9ba9b0f87ca,,,,,,,,,,,181.6274,182.1277,,,182.3776,182.9607,right,0.5672,,,,,,,,,0.1,,,,,,182.1278,182.3775,182.9607,"[-0.14666401881302396,0.03134396009256611]",4.0,"[0.16098358215225475,-0.03730201916897883]",4.0,"[0.12986514682213715,0.14595730333797152]",4.0,"[-0.05640169032857249,-0.06775265264964617]",4.0,"[-0.011088217260408106,-0.0005276647679858021]",4.0,"[0.11075742207882151,0.05029477958817119]",4.0,"[0.010558095162380396,-0.06300809988744659]",4.0,"[0.09547866143089045,0.11333115933999525]",4.0,"[0.024299115210533472,0.06018553167926478]",100.0,"[-0.03038209886185807,0.05198010314930746]",4.0,"[-0.09671675725087851,-0.04331269589823699]",4.0,"[0.19216614209352376,0.0028090211669111703]",4.0,"[0.06008120436565365,0.03794137740883195]",4.0,"[-0.13795640789968916,-0.0668339491895956]",4.0,"[-0.13696937623274555,-0.019076724933942798]",4.0,"[-0.18186828860430393,0.0627827359165514]",4.0,"[-0.04720204100097294,0.1787247042107285]",4.0,"[-0.03242303799920375,-0.1647644477931033]",100.0,"[0.11900291780169812,0.005268658848367478]",4.0,"[-0.04661230398401087,0.1169661317651405]",4.0,"[-0.10483330430621668,-0.14746121859140512]",4.0,"[0.18541895011587503,0.05740699705603054]",4.0,"[0.12458643129460126,-0.09319463092586033]",4.0,"[0.12275646254626063,-0.1338922309415696]",100.0,"[0.052370935527710355,-0.13650792061312061]",4.0,"[-0.13451975399536895,0.07043811491126986]",4.0,"[0.08707578929490602,-0.058896900075372495]",4.0,"[-0.08368814192601008,0.06498138427782808]",4.0,"[0.022901405322919195,0.12936253435097575]",4.0,"[-0.08860035559050869,0.16122431761600028]",4.0,"[-0.19075114412754673,-0.0029084796005059625]",4.0,"[-0.12480456719663402,0.12208585774174646]",4.0,"[0.02,0.02]",184.061,0.0,17.0,17.0,189.0,1.0,,,,,,,
,,,,,,,65feaaac53eb219f09ad5ea0,6842bc0d0fcaa2d54dff969d,2025-06-06_13h00.42.500,shape_ratio,2024.1.5,Win32,60.24096386,6842b561977af9ba9b0f87ca,,,,,,,,,,,184.0615,184.5618,,,184.8123,185.4119,right,0.5894,,,,,,,,,0.55,,,,,,184.562,184.8123,185.4119,"[0.121305460530175,-0.036287931681083005]",100.0,"[0.01230695856591469,-0.07031561382298383]",100.0,"[0.11204148866382073,0.15036947865401737]",4.0,"[-0.06572817352614495,0.09783902606269512]",100.0,"[-0.010813239114648375,-0.12215620394013038]",4.0,"[0.0902714304667368,0.0450383360817778]",100.0,"[0.06373857446203379,0.09533298027465131]",100.0,"[0.13325658342599767,0.016687323179494815]",100.0,"[-0.11849031851005283,-0.13650392164304706]",4.0,"[0.1420388176962286,-0.13538945671970684]",4.0,"[0.18837131606915086,0.06523882792121408]",100.0,"[0.014249172944702123,0.13506322180230718]",4.0,"[-0.10698628642724901,0.15827102867888526]",4.0,"[0.015791636341194303,0.029555794951914106]",100.0,"[0.12746848788911103,0.08198580912841075]",100.0,"[0.07374766430713421,-0.10562091391542605]",100.0,"[0.12860935072923202,-0.08721183108733954]",100.0,"[-0.15419039239633797,0.016037453263959833]",100.0,"[-0.07729880105240194,0.013431796185207337]",4.0,"[-0.13022900482714397,-0.04023113550442532]",4.0,"[0.07500527664591497,-0.000589489720311238]",100.0,"[-0.17655367819019535,0.06681340190435975]",4.0,"[0.17931640598152246,0.009627099543131613]",4.0,"[0.1738148719705504,-0.09002170554786795]",100.0,"[-0.09160710564380385,-0.07820608557353405]",100.0,"[-0.02057962700399703,-0.16320143984212224]",4.0,"[-0.1467349083251523,0.11884462618898621]",100.0,"[0.06980157848642937,0.18433026730524454]",4.0,"[-0.05811209756424942,-0.1789876729459678]",4.0,"[-0.11231530289007155,0.0705428720487586]",100.0,"[-0.051312542944423056,-0.10867065329625841]",100.0,"[-0.16450454323911967,-0.07340790324999327]",4.0,"[0.02,0.02]",186.5127,0.0,18.0,18.0,67.0,1.0,,,,,,,
,,,,,,,65feaaac53eb219f09ad5ea0,6842bc0d0fcaa2d54dff969d,2025-06-06_13h00.42.500,shape_ratio,2024.1.5,Win32,60.24096386,6842b561977af9ba9b0f87ca,,,,,,,,,,,186.5141,187.0126,,,187.2638,188.063,right,0.7825,,,,,,,,,0.6,,,,,,187.0127,187.2637,188.063,"[-0.03941331084766654,0.12645697217298807]",100.0,"[0.056210495585088754,-0.1779910683033941]",100.0,"[0.00198218875204339,0.19124968665595318]",100.0,"[0.008776102152636958,-0.17290867310542407]",4.0,"[0.0930568168121363,0.13892115771493466]",100.0,"[-0.07088444789920338,-0.020534846050429562]",4.0,"[0.02484386834474196,0.1443234867970553]",100.0,"[0.0036120872969964083,-0.021386552597455446]",4.0,"[-0.12626161915343942,0.13995691203257085]",4.0,"[-0.07042268632614,0.15628013223951648]",100.0,"[-0.10769026021228341,-0.040736603021292554]",100.0,"[-0.062464440866487135,0.05203064469438364]",100.0,"[0.0527083106235708,-0.016436009966373094]",4.0,"[-0.047200382189084684,-0.07665245378512404]",100.0,"[-0.08162120284351389,-0.15665367398843308]",100.0,"[-0.18169921307486353,0.03310492185098626]",100.0,"[-0.029266352452592556,0.01219325558442394]",100.0,"[0.10423710882590989,-0.009549094804183762]",4.0,"[0.12051570105178828,0.06400065588177135]",4.0,"[0.10672223013595439,-0.15170243515952353]",4.0,"[0.028026478490571577,0.019518817531991858]",100.0,"[0.1705826921875855,0.030223261243273278]",4.0,"[-0.036845756203863225,-0.15596061772888392]",4.0,"[0.07403300856871516,0.1770523195952]",100.0,"[0.1205506222136546,-0.05177177626293669]",4.0,"[-0.1168013417449869,0.09965321180494172]",100.0,"[0.08585296325009319,0.039476104242817285]",4.0,"[0.05014677625147822,-0.1351601912770933]",100.0,"[-0.1457193829453586,-0.11928678170524064]",4.0,"[0.06732519360705808,0.09400747550424872]",100.0,"[-0.0074867956343555465,0.0974746964089001]",100.0,"[0.0974874096801206,-0.09978653421811036]",100.0,"[0.02,0.02]",189.1638,0.0,19.0,19.0,56.0,1.0,,,,,,,
,,,,,,,65feaaac53eb219f09ad5ea0,6842bc0d0fcaa2d54dff969d,2025-06-06_13h00.42.500,shape_ratio,2024.1.5,Win32,60.24096386,6842b561977af9ba9b0f87ca,,,,,,,,,,,189.1649,189.6637,,,189.9151,190.648,left,0.7185,,,,,,,,,0.6,,,,,,189.6638,189.915,190.6481,"[0.030052014322265758,-0.15774633052582665]",100.0,"[0.04332210694965344,0.05310785180403344]",100.0,"[-0.030267513235155544,0.13501246693047111]",4.0,"[-0.10401623235021641,0.07576903039263565]",4.0,"[0.15214724998421156,-0.02111085303893372]",100.0,"[-0.08112559490884243,-0.10696900363241035]",100.0,"[0.014691194027843154,-0.062009939764249455]",100.0,"[-0.12691118811484814,-0.13448618353193498]",4.0,"[-0.019963006878879183,0.17536410667214924]",100.0,"[0.045614071696397855,0.14391255509413473]",4.0,"[0.1821539162892646,0.07856215005420639]",4.0,"[0.09889721022932176,0.09797119360015633]",4.0,"[-0.1573970399630024,-0.1084834727137106]",100.0,"[0.059651160496593116,-0.08804323818357451]",100.0,"[0.02832874976763784,-0.008620244727209351]",100.0,"[-0.11656101057254738,0.12244136388448769]",4.0,"[0.18767535269597146,0.000016128855136668543]",4.0,"[0.16881422017550832,-0.10293679301148183]",100.0,"[-0.04065469757387315,0.026003691958036257]",4.0,"[0.1285740109506961,0.04023065091140312]",100.0,"[0.08971555125379496,-0.042301716669317216]",100.0,"[-0.029124780710561876,-0.09592517150362455]",4.0,"[-0.05341721513429374,-0.05211126169615235]",4.0,"[0.09608517919973987,-0.15902952229114628]",4.0,"[0.09617337078633878,-0.10987326439594389]",100.0,"[0.10246714095917059,-0.0008113637048569995]",100.0,"[-0.1491842974975475,0.04054558653681081]",100.0,"[-0.18191477157781558,0.06534572315558362]",100.0,"[-0.12907728309801395,-0.028647356069697396]",100.0,"[0.006646128577550428,0.02787478469448101]",100.0,"[-0.05068689579923356,0.08439262277095125]",100.0,"[0.08708430336077362,0.1386460309060533]",4.0,"[0.02,0.02]",191.7485,0.0,20.0,20.0,36.0,1.0,,,,,,,
,,,,,,,65feaaac53eb219f09ad5ea0,6842bc0d0fcaa2d54dff969d,2025-06-06_13h00.42.500,shape_ratio,2024.1.5,Win32,60.24096386,6842b561977af9ba9b0f87ca,,,,,,,,,,,191.75,192.2485,,,192.4987,193.1486,left,0.6426,,,,,,,,,0.45,,,,,,192.2486,192.4987,193.1488,"[-0.18623392265795335,0.04569854423379565]",100.0,"[-0.03283404263916593,-0.012805453837695938]",4.0,"[0.10995755860630484,-0.10297871095311831]",100.0,"[0.11654865978970191,-0.14555881697155273]",4.0,"[-0.009171063544889033,-0.13262270884353927]",100.0,"[-0.12294500734956923,-0.03057497248819626]",4.0,"[0.1912346131471624,0.011105822509690503]",4.0,"[-0.03891512085279902,0.04291145509569609]",100.0,"[0.0797754626199544,-0.03156916807902128]",4.0,"[-0.013756020082937385,0.14191031397797704]",4.0,"[0.02769105905038015,0.08190281331637646]",4.0,"[-0.05389445959453023,-0.16614641015019352]",100.0,"[-0.14009130851021118,-0.09836540535264651]",4.0,"[-0.18826634568184336,-0.05607241230733744]",4.0,"[0.13421843937643121,0.034647591464346254]",4.0,"[-0.049452017699031306,-0.0650116029461581]",100.0,"[-0.06953892656062789,0.11253678934428467]",100.0,"[0.12614921533504644,-0.01584881612320744]",100.0,"[-0.12431956753941056,0.11201540834166791]",4.0,"[0.04476957227362662,-0.18775320581239696]",4.0,"[0.08976257931044827,0.09004493076179385]",100.0,"[0.046229123346041075,0.1373575291178259]",4.0,"[0.13799908258896554,0.12236220342398668]",4.0,"[0.1309487762566894,-0.060530951187879364]",4.0,"[-0.10109049163461183,0.011965827799423862]",100.0,"[-0.08014811803219629,-0.022887492454803458]",4.0,"[0.1530050803807555,0.07117906151377801]",4.0,"[0.03389144435817974,-0.09904018957889281]",100.0,"[0.050013306005761246,0.017794262691045594]",100.0,"[-0.17957024380029574,-0.007669017380814211]",100.0,"[0.008470483015801115,-0.03914263534202169]",4.0,"[-0.08068000292253476,0.1670258119715406]",100.0,"[0.02,0.02]",194.2493,0.0,21.0,21.0,136.0,1.0,,,,,,,
,,,,,,,65feaaac53eb219f09ad5ea0,6842bc0d0fcaa2d54dff969d,2025-06-06_13h00.42.500,shape_ratio,2024.1.5,Win32,60.24096386,6842b561977af9ba9b0f87ca,,,,,,,,,,,194.2504,194.7497,,,195.0006,195.6664,right,0.6589,,,,,,,,,0.45,,,,,,194.7497,195.0005,195.6664,"[0.08475788110245598,-0.05498821676921749]",4.0,"[0.14986199760596697,-0.0017462657267129852]",100.0,"[0.1015495655235559,0.05972516321335993]",4.0,"[-0.16331439982836418,-0.06537325736298674]",4.0,"[-0.06937994481734759,-0.099245896600907]",100.0,"[-0.16020506748234312,-0.1164990401680571]",100.0,"[0.05520957419205378,0.12513978378122173]",4.0,"[0.017062495162426795,-0.14133790995567797]",100.0,"[-0.022833117837624786,0.18456589450469316]",4.0,"[-0.1645599296028013,-0.024625130871602688]",100.0,"[0.05506055822046783,0.04251822225789275]",4.0,"[-0.031183302666846175,-0.17483179485121061]",4.0,"[0.022921682129939315,0.1727639452048433]",100.0,"[-0.11571973832734439,-0.08734040338623683]",4.0,"[-0.06835200857220444,-0.002693950230236092]",4.0,"[0.10457785232598232,-0.13103225806641774]",4.0,"[-0.09062029770203267,0.03936089521489888]",100.0,"[-0.05318332228380957,0.1404935517584308]",4.0,"[0.17671445930977184,-0.08977797005863607]",4.0,"[-0.005472027201512878,-0.02577325483587037]",100.0,"[0.1443795359777223,0.10822494972920332]",100.0,"[-0.11661135040081895,0.13360721758725824]",4.0,"[0.13383849996724637,-0.08855205694072743]",4.0,"[-0.11807229169051535,0.07559898139589585]",100.0,"[-0.1377882032913659,0.016253290121976266]",4.0,"[-0.069131684655557,-0.055238527299590286]",100.0,"[0.09740547204986337,0.14402217953602311]",4.0,"[0.10705299759937076,-0.016250933496050942]",100.0,"[0.02667003981528855,-0.0018492097006015972]",4.0,"[0.003668664932535496,0.09343634183426892]",4.0,"[0.15810494433887262,-0.052688837961042685]",100.0,"[-0.060962685290978855,0.09918365413784594]",100.0,"[0.02,0.02]",196.7668,0.0,22.0,22.0,123.0,1.0,,,,,,,
,,,,,,,65feaaac53eb219f09ad5ea0,6842bc0d0fcaa2d54dff969d,2025-06-06_13h00.42.500,shape_ratio,2024.1.5,Win32,60.24096386,6842b561977af9ba9b0f87ca,,,,,,,,,,,196.7674,197.2673,,,197.5188,198.1509,left,0.6186,,,,,,,,,0.55,,,,,,197.2675,197.5186,198.151,"[-0.08791956623003304,0.12534233878041381]",100.0,"[0.09070214729968619,0.0744085805054785]",4.0,"[-0.1879633077292023,-0.02810427643754048]",100.0,"[-0.07006906197028867,-0.08770575296357938]",100.0,"[0.01993780264994934,-0.10413704558219601]",100.0,"[0.14827692627454853,0.04012269011062423]",4.0,"[0.06944700487440492,-0.0032608329559417914]",4.0,"[0.008096692255549306,0.16997727707045804]",4.0,"[-0.06281308996542538,-0.14137952513705523]",4.0,"[0.11685930238006043,-0.10220438449380578]",4.0,"[-0.15231979908226592,-0.1206873777360975]",100.0,"[-0.07594496325016506,0.08504947261986745]",4.0,"[-0.08541772578202614,0.04127497265627396]",4.0,"[-0.003913425742599141,0.0685642456292432]",100.0,"[-0.13208551784935763,0.07840261140351265]",100.0,"[0.01879162289483827,-0.19230908986245812]",4.0,"[0.007840252028327218,0.1107788124043384]",100.0,"[0.08390609944737212,-0.04837530909600539]",100.0,"[0.19095612943866133,0.05514734113351841]",100.0,"[-0.004865948353136984,-0.03914163221036093]",100.0,"[0.007141565226922938,0.029565083297012996]",4.0,"[-0.12183766418981969,-0.027442896871770064]",100.0,"[0.09848126367132051,-0.16634833914486918]",100.0,"[0.15963176470144835,-0.0090936339138605]",100.0,"[-0.032631757141476786,-0.10962960338523627]",100.0,"[0.039792484216791976,-0.15471614141112713]",100.0,"[0.08760617310120301,0.12145871095682753]",100.0,"[-0.1873545911829203,0.05988191699363582]",100.0,"[-0.10467606067461464,-0.16883923672186388]",4.0,"[-0.16333415762937792,0.0215929667199731]",4.0,"[0.05020186876318169,0.047149098178530954]",4.0,"[-0.06242379160788626,0.16794714914237316]",4.0,"[0.02,0.02]",199.2512,0.0,23.0,23.0,63.0,1.0,,,,,,,
,,,,,,,65feaaac53eb219f09ad5ea0,6842bc0d0fcaa2d54dff969d,2025-06-06_13h00.42.500,shape_ratio,2024.1.5,Win32,60.24096386,6842b561977af9ba9b0f87ca,,,,,,,,,,,199.2518,199.7514,,,200.0021,200.5686,right,0.5538,,,,,,,,,0.4,,,,,,199.7515,200.002,200.5687,"[0.06902219287366715,-0.13886989357463847]",100.0,"[0.0007203032308638641,-0.049073429653536046]",4.0,"[0.15237441256040965,0.0961502911104909]",4.0,"[0.12044387404937462,-0.1313408121334303]",4.0,"[-0.08913988864565349,-0.02146949714441168]",4.0,"[-0.003317270525878082,0.15500809141298186]",100.0,"[-0.1392538662206019,0.11921493563878822]",4.0,"[0.002887808029504326,0.007200384815154733]",100.0,"[-0.09707813742533908,-0.11978075619068859]",4.0,"[0.07245369299799617,0.01047924507857677]",100.0,"[-0.03492203172803729,-0.1676288308842129]",100.0,"[0.07235832381185243,0.08877001025513867]",4.0,"[-0.15871203649850774,-0.10233176791753026]",4.0,"[0.09611259274268431,0.05033844345003148]",100.0,"[-0.048463273114292424,0.17573953003012688]",4.0,"[-0.11655797783953856,0.07249047038137572]",4.0,"[-0.10029689544026191,0.02496395446515255]",100.0,"[-0.043382200301035886,0.0971035203028996]",4.0,"[-0.025444463689561183,-0.08926827211039728]",100.0,"[0.0731647313278641,-0.17954818489395238]",4.0,"[0.1296111799675096,-0.090047928004788]",4.0,"[0.019661916825085793,-0.08878704900569913]",100.0,"[-0.17322771313705645,-0.013450701696371402]",4.0,"[0.08271896548063343,-0.06613653378134239]",100.0,"[-0.18648897595522426,0.040514647042656636]",4.0,"[-0.08161105861690136,-0.06445114312494321]",4.0,"[-0.04245351330437633,0.02842056411980673]",4.0,"[-0.016440058139160094,0.06129400499170299]",100.0,"[0.13389175963452046,0.03065574886350878]",4.0,"[-0.06569751473211641,0.13845288080731424]",100.0,"[0.031730512914869474,0.11102017541504086]",100.0,"[0.11358699732463594,-0.020186203785811634]",4.0,"[0.02,0.02]",201.6691,0.0,24.0,24.0,174.0,1.0,,,,,,,
,,,,,,,65feaaac53eb219f09ad5ea0,6842bc0d0fcaa2d54dff969d,2025-06-06_13h00.42.500,shape_ratio,2024.1.5,Win32,60.24096386,6842b561977af9ba9b0f87ca,,,,,,,,,,,201.6695,202.1693,,,202.4199,203.0865,right,0.6499,,,,,,,,,0.1,,,,,,202.1693,202.4199,203.0865,"[0.1202127257726526,-0.029620445706378572]",4.0,"[-0.024207787398693874,0.10161826504089119]",4.0,"[-0.018117104151957573,-0.09651746885083173]",100.0,"[0.06871317593061176,0.08798593350827542]",4.0,"[0.029401943064151406,-0.10020009030789397]",4.0,"[0.06389545947048011,-0.01945273049168547]",4.0,"[-0.1144382593790346,0.0375319841325375]",4.0,"[-0.14698382599820417,-0.12864014577968313]",4.0,"[-0.1821893032696073,0.02097121225820415]",4.0,"[-0.07566606506156089,-0.13266294716613608]",4.0,"[0.05619518391086184,0.14884171330759302]",4.0,"[0.11346806470803918,0.12526414692535978]",4.0,"[-0.11178051219436132,0.16427132621488152]",4.0,"[-0.06489217896923594,-0.07553210499062658]",4.0,"[-0.07954531793906333,-0.17296529799743385]",4.0,"[-0.06034638470581101,0.07607023840361107]",4.0,"[0.09637054944478035,0.16695221507060248]",4.0,"[-0.09871195981423295,-0.029498081167183707]",4.0,"[0.10740580121118212,-0.09596999887655557]",4.0,"[0.16030616011245385,-0.014305095920129605]",4.0,"[-0.03176492426793341,-0.04051266124604113]",4.0,"[0.15012463677606766,-0.12034273973500338]",4.0,"[-0.1224771792124384,-0.06427568769195069]",4.0,"[-0.15153834589045834,0.06913751101322224]",4.0,"[0.02514050388179353,0.03273840518430231]",4.0,"[0.15753942433350554,0.06130309198347661]",100.0,"[-0.19541315356411113,-0.038329285285026854]",100.0,"[-0.1006377430677817,0.09567300852329488]",4.0,"[-0.15063273859202084,0.11934368474043608]",4.0,"[-0.06740654970814948,0.015902273530011793]",4.0,"[-0.16697551256443027,-0.0831346199425814]",4.0,"[-0.001656462748723105,-0.16774702334075864]",4.0,"[0.02,0.02]",204.1869,0.0,25.0,25.0,197.0,1.0,,,,,,,
,,,,,,,65feaaac53eb219f09ad5ea0,6842bc0d0fcaa2d54dff969d,2025-06-06_13h00.42.500,shape_ratio,2024.1.5,Win32,60.24096386,6842b561977af9ba9b0f87ca,,,,,,,,,,,204.1874,204.6871,,,204.9376,205.7744,left,0.8309,,,,,,,,,0.4,,,,,,204.6871,204.9375,205.7745,"[0.028360632029300684,0.07008607766445987]",100.0,"[0.12664510819906297,-0.05886273660830334]",4.0,"[0.07673373215195499,-0.10559836177127185]",4.0,"[0.12044673865759709,0.07545670323790703]",4.0,"[-0.07807658810312883,-0.11835913247248088]",4.0,"[-0.1781237792295794,0.014612602518057731]",100.0,"[-0.04747532093499894,0.07473989981447922]",4.0,"[0.07090598708021646,0.03564582723883316]",100.0,"[0.003332625038929855,0.18191986411530145]",4.0,"[0.18582467678233042,0.04330904355597791]",4.0,"[-0.05170520740218105,-0.14888298298127634]",4.0,"[-0.029039564940517064,-0.002267732516479088]",100.0,"[0.0128728322594219,-0.14977473547546177]",4.0,"[0.06675285932006093,0.12413972350627658]",4.0,"[-0.14597101170566407,0.08953852565228317]",4.0,"[-0.07945958496476042,-0.04173680485577653]",4.0,"[0.13055180191011287,0.024899027118024185]",4.0,"[-0.10407164572392556,0.136290779495661]",4.0,"[0.03149506089127722,-0.03454804734963522]",100.0,"[-0.13768772677008306,-0.13456165455851135]",100.0,"[-0.09941694777746975,-0.1529043190269073]",100.0,"[0.014612766720765587,-0.19317785438006635]",100.0,"[-0.10071463702023269,0.09446088542985864]",4.0,"[-0.003086263861740845,0.12993911121000612]",100.0,"[-0.060823405687753504,0.18859087217209508]",4.0,"[-0.018225324735405873,0.03675874015291488]",100.0,"[-0.054240916427096726,0.14840333256981025]",4.0,"[-0.18909781936755066,-0.04821224521429164]",100.0,"[-0.0946407101821105,0.04037975429621846]",4.0,"[0.12488375304023448,0.14252950877033163]",100.0,"[0.06233811477988631,-0.18214749486429152]",4.0,"[0.16826357194437425,0.09825508865631921]",100.0,"[0.02,0.02]",206.8713,0.0,26.0,26.0,153.0,1.0,,,,,,,
,,,,,,,65feaaac53eb219f09ad5ea0,6842bc0d0fcaa2d54dff969d,2025-06-06_13h00.42.500,shape_ratio,2024.1.5,Win32,60.24096386,6842b561977af9ba9b0f87ca,,,,,,,,,,,206.872,207.3715,,,207.6221,208.2053,right,0.5665,,,,,,,,,0.45,,,,,,207.3717,207.622,208.2055,"[0.11719732820641836,-0.1357040964226648]",4.0,"[0.05813391672870039,0.04808852582631667]",100.0,"[-0.06090075003048723,-0.11529387079998231]",4.0,"[0.035617663606231,0.173024809615512]",4.0,"[-0.07780262743949083,0.12302356660077501]",4.0,"[-0.13169685897812594,-0.01915050219536736]",4.0,"[0.0037606234808132397,0.06629698096257462]",4.0,"[0.06640824746322802,-0.18118383812929037]",4.0,"[-0.051057627195967736,0.003720919970271233]",100.0,"[-0.17737437656896,-0.08390127793601092]",4.0,"[-0.012525677355605664,0.15383369126915983]",4.0,"[0.052119476775436685,0.13253456433146268]",100.0,"[0.03930305720621989,-0.08164170839236536]",4.0,"[0.020221575320132343,-0.15773186756669072]",4.0,"[0.09514640605259073,0.1253132032826354]",100.0,"[-0.011755270596096044,0.019008750315079193]",100.0,"[0.061511516429755234,-0.11888313881296592]",100.0,"[0.0916046612889841,0.007163316701651672]",4.0,"[0.17089560933023196,-0.05595254473133155]",4.0,"[0.013926520113841899,-0.01571953385818285]",100.0,"[-0.10201161961074054,-0.12468285182484036]",4.0,"[-0.07754904729219023,-0.17927882175573814]",100.0,"[-0.10002426294114491,-0.05729311208987931]",100.0,"[-0.01821567898607909,-0.04557055731440111]",100.0,"[-0.05314432618494632,0.1851194334344387]",4.0,"[0.18302567539753709,0.0343476398836829]",100.0,"[-0.14174901320786965,0.06885926026939652]",4.0,"[0.18627566606714865,-0.010081509610989602]",4.0,"[-0.021311825385090615,0.10852459711773843]",100.0,"[0.1467963055278742,0.08925661637980083]",4.0,"[-0.15642920448645695,-0.12154969845843279]",100.0,"[0.0953073051940675,0.07173242934160536]",100.0,"[0.02,0.02]",209.3058,0.0,27.0,27.0,134.0,1.0,,,,,,,
,,,,,,,65feaaac53eb219f09ad5ea0,6842bc0d0fcaa2d54dff969d,2025-06-06_13h00.42.500,shape_ratio,2024.1.5,Win32,60.24096386,6842b561977af9ba9b0f87ca,,,,,,,,,,,209.3062,209.806,,,210.0566,210.8732,right,0.808,,,,,,,,,0.5,,,,,,209.806,210.0565,210.8733,"[0.08762787325376555,0.06859873813441644]",100.0,"[0.06462853537505368,-0.055205331710202116]",4.0,"[0.03273086899029667,0.006457450227461278]",4.0,"[-0.1591933985811058,-0.08124240963881049]",100.0,"[0.11276007459320114,-0.0682818737964831]",4.0,"[0.04355063913623277,0.12662063783958932]",4.0,"[-0.11561265163740737,-0.08228973573010497]",4.0,"[0.068167163634023,-0.12030934368418411]",4.0,"[0.04273658831791824,-0.1734193149017357]",4.0,"[-0.12755686938105767,-0.016912697741810118]",4.0,"[-0.003260941567365509,0.11248963113814825]",100.0,"[-0.1201854543209222,0.053828226925532324]",100.0,"[0.1754912651923922,0.08628993012352029]",4.0,"[-0.08181329137932232,0.023505860392037434]",100.0,"[-0.008762935384470845,0.17597737245467784]",100.0,"[-0.011009718842661526,-0.05883961973261638]",4.0,"[0.0759064293665086,0.15677865154541099]",100.0,"[-0.10985370621616165,0.09979298398605363]",100.0,"[0.14267767261029454,-0.1286579697665493]",100.0,"[0.11920828362200477,-0.0007576627571855802]",100.0,"[-0.12610755680925612,-0.14908230641200534]",100.0,"[-0.1935470505000973,0.02232888608325904]",4.0,"[0.0849457487555409,0.10992760499282826]",100.0,"[-0.019989351943720153,-0.17426781510474243]",100.0,"[-0.059689639375826706,-0.021966031983860202]",100.0,"[-0.06828032002477027,0.08309068067208226]",4.0,"[0.12456386948165668,0.0491108764430874]",4.0,"[0.12555273683310184,0.10096360279594811]",100.0,"[0.08503456492735367,-0.17753166863384304]",100.0,"[0.16068013950903673,-0.04652298803291454]",4.0,"[0.19393749724337703,0.028447911927902778]",4.0,"[0.010847537132120619,-0.12161803372745161]",4.0,"[0.02,0.02]",211.9736,0.0,28.0,28.0,115.0,1.0,,,,,,,
,,,,,,,65feaaac53eb219f09ad5ea0,6842bc0d0fcaa2d54dff969d,2025-06-06_13h00.42.500,shape_ratio,2024.1.5,Win32,60.24096386,6842b561977af9ba9b0f87ca,,,,,,,,,,,211.9742,212.4738,,,212.7245,213.658,left,0.9231,,,,,,,,,0.6,,,,,,212.4738,212.7245,213.658,"[0.13990098403253348,0.1234555010599]",4.0,"[0.12564573373975518,-0.02018948801063007]",4.0,"[-0.10435766309796164,-0.013177964654785136]",100.0,"[-0.036494805997161754,-0.1500651360471335]",100.0,"[0.06318159960365692,0.0032762638687029774]",100.0,"[0.049417072975242074,0.10031336082808366]",100.0,"[-0.04616099556727041,0.1215317622695709]",4.0,"[0.14880307553200708,-0.07069997969063922]",100.0,"[-0.08631425334381182,0.08349924447865457]",4.0,"[0.17704465583229728,0.05732691434084716]",4.0,"[-0.09291876420235551,-0.15239561669975282]",4.0,"[0.055910375212865585,-0.08523932627531583]",100.0,"[0.008760725053088631,-0.06796625457084328]",4.0,"[0.009413999137782224,0.11123084170456189]",100.0,"[-0.1800727816064817,0.05073011182170928]",100.0,"[-0.09760666967574363,-0.07442616992195678]",4.0,"[-0.18281001877247394,-0.007903952837008609]",100.0,"[0.10747338194136724,0.05770150868179357]",4.0,"[0.08341644456892572,0.1372120756109448]",100.0,"[0.09399308223987395,-0.14943817975913223]",4.0,"[0.050669462490263655,-0.19330195474842585]",4.0,"[-0.002673554659475762,-0.1077053569460325]",100.0,"[-0.13682234825944764,-0.11294712091291223]",100.0,"[-0.16324748816988469,-0.06065175844868823]",4.0,"[-0.03565377006390644,-0.019537560461827187]",100.0,"[-0.07658314434158986,-0.10918318157228064]",100.0,"[0.00011313332119272388,0.15668214228124572]",100.0,"[0.14094903791618196,-0.12748471199682276]",100.0,"[0.06480682025684471,0.05458583954409488]",100.0,"[-0.13413889967466316,0.1359995737206693]",4.0,"[0.09776524603427628,-0.08578824075215556]",100.0,"[-0.006796816880652121,0.06814591916746736]",100.0,"[0.02,0.02]",214.7582,0.0,29.0,29.0,32.0,1.0,,,,,,,
,,,,,,,65feaaac53eb219f09ad5ea0,6842bc0d0fcaa2d54dff969d,2025-06-06_13h00.42.500,shape_ratio,2024.1.5,Win32,60.24096386,6842b561977af9ba9b0f87ca,,,,,,,,,,,214.7587,215.2584,,,215.5091,216.1256,right,0.6002,,,,,,,,,0.45,,,,,,215.2585,215.509,216.1256,"[0.043923508228795136,0.06878744740861449]",4.0,"[-0.08035205651085095,0.13947183308532565]",4.0,"[0.09438258892077624,0.1472769390657858]",4.0,"[-0.12262988450177564,-0.13065113221342498]",100.0,"[-0.1121105825315389,-0.05755666910981665]",4.0,"[-0.032386175182008564,0.07154782772996843]",100.0,"[0.19361976540668827,-0.0045104261921533224]",100.0,"[-0.01581056249243928,-0.12832170738012205]",4.0,"[-0.035577558682471616,-0.033121579815757134]",100.0,"[0.04952010758351818,-0.1335039488911509]",100.0,"[-0.0008434277751540569,0.03041322825300667]",4.0,"[-0.015392636874351577,-0.08249953256711343]",4.0,"[0.13522635203427993,-0.011619124467146556]",4.0,"[0.02075939618536727,0.17713601787573835]",100.0,"[-0.030798299591365902,0.16837473049196297]",4.0,"[-0.1707676179761866,-0.016050972234488165]",4.0,"[0.12387838564938011,0.0878740691220923]",100.0,"[-0.09538424219138775,-0.17325573342621808]",100.0,"[0.04037874856841659,-0.011827015186923789]",4.0,"[-0.1474696638080782,-0.08226884280958333]",100.0,"[0.1656245449587798,-0.0480565809612129]",4.0,"[-0.051293872958082784,0.02381594761476308]",4.0,"[-0.11963146600754009,0.1043986891968862]",100.0,"[-0.12368717731441882,0.057355860201395444]",4.0,"[0.11124583143548347,-0.05274625082819621]",100.0,"[-0.18305954661897444,0.03146840569707139]",4.0,"[0.06836772784386898,-0.1797051805096482]",4.0,"[-0.07980047696780053,-0.12409074833233408]",100.0,"[-0.024652709688725627,-0.19396425709587872]",4.0,"[0.06407547490318699,-0.05718221409678097]",100.0,"[-0.028005152357733293,0.11583980544278139]",100.0,"[-0.14145380300127788,0.02132135590214433]",4.0,"[0.02,0.02]",217.226,0.0,30.0,30.0,142.0,1.0,,,,,,,
,,,,,,,65feaaac53eb219f09ad5ea0,6842bc0d0fcaa2d54dff969d,2025-06-06_13h00.42.500,shape_ratio,2024.1.5,Win32,60.24096386,6842b561977af9ba9b0f87ca,,,,,,,,,,,217.2266,217.7262,,,217.9769,218.6435,right,0.6493,,,,,,,,,0.1,,,,,,217.7263,217.9769,218.6436,"[-0.12529721707156782,-0.14326808039845335]",4.0,"[0.1004195827172697,-0.09272674874253507]",4.0,"[-0.07635521271453789,0.06638976190842794]",4.0,"[-0.019217054540757002,0.15383677065345186]",4.0,"[0.1085393991781494,0.10541007734252957]",4.0,"[-0.14341426051375664,0.1343009677747164]",100.0,"[0.058531342658600494,0.15998482950342582]",4.0,"[0.0963383065089244,-0.14881474712404796]",4.0,"[0.004173940591416056,-0.14039166505688655]",4.0,"[0.17081695326393637,0.03785013670646937]",4.0,"[0.0007943197886632994,-0.022538976167711156]",4.0,"[-0.11338047109038449,-0.07770784974081918]",4.0,"[-0.0714019033520278,-0.08931575700637237]",4.0,"[-0.13548749810650418,0.08095026534131855]",4.0,"[0.08814569778861793,-0.0324262981532355]",4.0,"[0.034954332909750994,0.09029971441447417]",4.0,"[-0.1381729651256932,0.02490286486701296]",4.0,"[0.09787759420631736,0.051605605767112366]",4.0,"[-0.05517614302684632,-0.16523333972580595]",4.0,"[-0.008541577634052805,0.08251074305467702]",4.0,"[-0.1918303580560719,0.005228814901408994]",100.0,"[0.04265706495739732,-0.07053782980370903]",4.0,"[-0.04342339585399013,-0.007435767746503927]",100.0,"[0.12129252802171857,0.15870156455969803]",4.0,"[0.04442930950724076,-0.02111124667173398]",4.0,"[-0.023614517399920435,-0.19249869138576878]",4.0,"[-0.08401467254682805,-0.027588196005692726]",4.0,"[0.03990305208945772,-0.1597921729494547]",4.0,"[0.15916027380544273,0.08605903819461556]",4.0,"[-0.06141402919865619,0.16796041649868948]",4.0,"[-0.1031175565546298,0.12302284102992112]",4.0,"[0.140293809068123,-0.01784138902926234]",4.0,"[0.02,0.02]",219.7438,0.0,31.0,31.0,209.0,1.0,,,,,,,
,,,,,,,65feaaac53eb219f09ad5ea0,6842bc0d0fcaa2d54dff969d,2025-06-06_13h00.42.500,shape_ratio,2024.1.5,Win32,60.24096386,6842b561977af9ba9b0f87ca,,,,,,,,,,,219.7445,220.2439,,,220.4946,221.3447,left,0.8415,,,,,,,,,0.5,,,,,,220.244,220.4946,221.3447,"[0.04896308475746699,-0.08763566795679088]",4.0,"[0.09034796786791825,-0.009022181596878327]",4.0,"[0.01575380525078776,-0.1897654121159938]",100.0,"[-0.0317571755782718,0.012387451201958073]",4.0,"[0.11082637469375105,0.0852351475996838]",4.0,"[-0.09097745038469755,0.10520638260616041]",100.0,"[-0.153225484274451,0.10283134145426492]",4.0,"[-0.11221296532283878,0.06311252767128141]",100.0,"[-0.07638179010494969,-0.020324395431122515]",4.0,"[0.07021835118677178,0.14449570264386147]",4.0,"[-0.16869845615338888,-0.011246146906430686]",100.0,"[0.013762671601099992,-0.057364537263847576]",4.0,"[-0.04924488093394356,-0.0963293396785748]",100.0,"[-0.012954339163090266,0.061306843049267847]",4.0,"[-0.1612182536241428,-0.11055525706891445]",100.0,"[-0.055244164685038684,-0.1903854121960733]",100.0,"[0.03772098371860355,-0.13169813609936884]",4.0,"[-0.04074882486466012,0.10501009884639981]",4.0,"[0.026553048044626482,-0.01587223146528544]",4.0,"[0.17939351778881085,0.0453312671281474]",4.0,"[-0.12764411204127724,-0.004441972174504855]",4.0,"[0.13258277439165894,0.005087208022287294]",100.0,"[0.03849594228114063,0.04836813663270124]",100.0,"[-0.04731913264371078,-0.04928225561453799]",100.0,"[0.09306927611948952,-0.1588376512208334]",100.0,"[-0.023479004593018462,-0.1378329852354049]",100.0,"[-0.10153246807854961,-0.08854905261632644]",100.0,"[0.14848230117470898,0.11805539734999539]",4.0,"[-0.18551820491338425,0.04263106814112136]",4.0,"[0.004945057369862782,0.16764045541708802]",100.0,"[0.07326946857359017,0.10243156113706842]",100.0,"[0.196687294410218,-0.01529142133168112]",100.0,"[0.02,0.02]",222.445,0.0,32.0,32.0,117.0,1.0,,,,,,,
,,,,,,,65feaaac53eb219f09ad5ea0,6842bc0d0fcaa2d54dff969d,2025-06-06_13h00.42.500,shape_ratio,2024.1.5,Win32,60.24096386,6842b561977af9ba9b0f87ca,,,,,,,,,,,222.4455,222.9454,,,223.1959,223.8124,left,0.5994,,,,,,,,,0.5,,,,,,222.9454,223.1959,223.8125,"[-0.02723798093888933,0.16298002227647457]",4.0,"[-0.014480642944075446,-0.04891364564042908]",100.0,"[-0.11048601257666509,-0.05897200361749332]",4.0,"[-0.11700492596064897,-0.11449107816776294]",4.0,"[-0.03415195305428631,-0.11251334775354135]",4.0,"[0.10310686870096826,0.17125031098109514]",4.0,"[0.1553398778836733,0.0986915847340176]",100.0,"[0.1323065953751818,0.14322097650402685]",4.0,"[-0.004378524400823274,-0.16900434539170733]",100.0,"[-0.08108075709783341,0.1317351709424241]",4.0,"[0.15866478668957545,0.03809850926475147]",100.0,"[0.09219361536160289,0.0001967532789032603]",4.0,"[0.12037035425445096,-0.08731606221647917]",100.0,"[0.08530613791493272,0.11443455079764059]",100.0,"[-0.17228899108872087,-0.08061731510481572]",4.0,"[-0.023650378691362467,0.02102169449680887]",100.0,"[0.07244367144277865,-0.137358448454728]",100.0,"[0.18798679137270943,-0.024278740864296083]",4.0,"[0.019440138865367478,0.11748631732580851]",100.0,"[-0.18836093111714514,0.025110162294861998]",100.0,"[-0.0967604672278678,-0.1703283275393568]",100.0,"[0.14573885270718256,-0.04407106156916747]",100.0,"[-0.17170099458040605,-0.026585605334314377]",100.0,"[-0.06646315234067757,-0.07810663308224998]",4.0,"[-0.04154869892841101,0.10436046770361233]",100.0,"[0.02236406805728288,-0.09560731003675293]",4.0,"[-0.012902342237761051,0.06262135137716703]",4.0,"[-0.11321280800141105,0.0034201102672233325]",4.0,"[-0.07349631343093561,0.0157141231210248]",4.0,"[0.06353117677306423,-0.08663525846694585]",100.0,"[0.055820997276225845,-0.02133583416690985]",4.0,"[-0.13040719617954655,0.11982540806164921]",100.0,"[0.02,0.02]",224.9127,0.0,33.0,33.0,93.0,1.0,,,,,,,
,,,,,,,65feaaac53eb219f09ad5ea0,6842bc0d0fcaa2d54dff969d,2025-06-06_13h00.42.500,shape_ratio,2024.1.5,Win32,60.24096386,6842b561977af9ba9b0f87ca,,,,,,,,,,,224.9132,225.4131,,,225.6635,226.1303,right,0.4504,,,,,,,,,0.55,,,,,,225.4131,225.6634,226.1304,"[0.09421939714462131,0.014087358560821498]",4.0,"[-0.1683622052710866,-0.03396364772235894]",100.0,"[-0.014161165983696808,0.19093312698531356]",4.0,"[-0.07866208250437177,0.05579873192075413]",100.0,"[0.15036371386896752,0.03594838723763573]",4.0,"[0.02689440432088264,-0.16419440263318077]",100.0,"[-0.05390489313779948,-0.01251964349452304]",100.0,"[0.01421863163621329,-0.04414616513258121]",100.0,"[-0.01083986049551555,-0.19117452609757066]",100.0,"[-0.16720685061916354,-0.10071661318691136]",4.0,"[0.06810324151483475,-0.1518686554018999]",4.0,"[0.18912500794356613,0.020761535140902995]",100.0,"[0.1754536230974854,-0.01730058791297285]",100.0,"[-0.01016579979064895,-0.10291717336167733]",100.0,"[-0.10376131121831997,0.009508689502014651]",4.0,"[-0.07920148527164862,-0.12978812072394583]",100.0,"[-0.08586159173778862,0.17983888378918064]",100.0,"[0.017495717203252197,0.1648200900777878]",4.0,"[-0.0686012405656359,0.10325744164743426]",4.0,"[-0.028560533546470836,0.06218405455527983]",100.0,"[0.025660084625416215,0.03295354896875672]",100.0,"[0.17717780464707833,0.07003797103145738]",4.0,"[0.014558109303007912,0.09746360889821902]",100.0,"[-0.12313793627519587,-0.1408394846904175]",4.0,"[0.08294195611675054,-0.06724540072809292]",4.0,"[0.05860369275023794,-0.0147515964855942]",4.0,"[0.10811287145290359,0.1289138823446232]",100.0,"[-0.012770311842104162,-0.013617905906999982]",4.0,"[0.17204978407566573,-0.06706534904912859]",100.0,"[0.11338718931876697,-0.13552629411581063]",100.0,"[0.12099511342597147,-0.03957011911633216]",100.0,"[-0.19313853352012092,0.0050524530797472]",4.0,"[0.02,0.02]",227.231,0.0,34.0,34.0,88.0,1.0,,,,,,,
,,,,,,,65feaaac53eb219f09ad5ea0,6842bc0d0fcaa2d54dff969d,2025-06-06_13h00.42.500,shape_ratio,2024.1.5,Win32,60.24096386,6842b561977af9ba9b0f87ca,,,,,,,,,,,227.2322,227.7307,,,227.9812,228.5145,right,0.5255,,,,,,,,,0.6,,,,,,227.7307,227.9812,228.5146,"[0.05668722647542005,-0.19135114743707057]",100.0,"[0.03387067074305473,0.08628048122491751]",4.0,"[0.04711114833437114,0.1397340993101221]",100.0,"[0.08071952912479588,-0.138611873383312]",4.0,"[-0.19221301987556733,-0.01855486066524541]",100.0,"[0.01940166851730315,0.19151110846933056]",100.0,"[0.0022477238125093845,-0.14508261231687958]",100.0,"[0.09692990445964161,0.05848206309485386]",4.0,"[-0.12743435051345547,0.14279510826070038]",100.0,"[-0.13312680084312675,0.00046702919857054926]",4.0,"[0.12649910587136096,-0.056130465972405355]",4.0,"[-0.06811532434194091,0.11212517300392034]",4.0,"[-0.0962476753153575,0.1717656522550734]",100.0,"[0.04539616323835823,-0.10064540859778508]",4.0,"[0.17259516436153116,-0.0742093810874223]",100.0,"[0.11802516838377129,-0.09860799655331133]",4.0,"[0.11651069568971091,0.11295587784009199]",4.0,"[-0.10963259284679774,0.0994600985674873]",100.0,"[-0.09321002167857773,-0.16446521126386984]",4.0,"[0.04552215108687595,0.002903556772988271]",100.0,"[-0.08149998434403134,-0.06347539823363221]",4.0,"[-0.14527215509227123,-0.12604525922581405]",4.0,"[0.15892126200493525,0.015666227276261515]",100.0,"[-0.03409024504979571,-0.10974130334737689]",100.0,"[-0.1657395457118773,0.08546554721234348]",100.0,"[-0.1413850315644822,0.04999103225595915]",100.0,"[-0.1324020332469025,-0.08038519873510527]",100.0,"[-0.061126403804826104,0.036972701258852936]",100.0,"[0.03729977898873275,-0.061329066149483226]",4.0,"[-0.03176144576207523,0.09468125925074648]",100.0,"[-0.006090423459079275,-0.0073684185318933625]",100.0,"[0.107569052137589,0.16743099267959033]",100.0,"[0.02,0.02]",229.6157,0.0,35.0,35.0,34.0,1.0,,,,,,,
,,,,,,,65feaaac53eb219f09ad5ea0,6842bc0d0fcaa2d54dff969d,2025-06-06_13h00.42.500,shape_ratio,2024.1.5,Win32,60.24096386,6842b561977af9ba9b0f87ca,,,,,,,,,,,229.6171,230.1152,,,230.3657,231.0325,right,0.66,,,,,,,,,0.1,,,,,,230.1152,230.3657,231.0327,"[-0.1822284290019702,0.045004005110721085]",4.0,"[-0.00997469415802509,0.11755276108116923]",4.0,"[0.16939344977065784,-0.03574766792261867]",4.0,"[-0.027564528878223908,0.05157669681466245]",4.0,"[-0.13563225461807507,-0.042928570521617464]",4.0,"[0.0419307348713713,0.016473336479804968]",4.0,"[-0.06789286084308323,-0.1702263442422397]",4.0,"[0.14229293329651854,0.14026780345528456]",4.0,"[0.01791209302221273,-0.11954012711696478]",4.0,"[0.10099582943546032,-0.11142610135582004]",4.0,"[-0.17853224911189502,-0.07639409328019012]",4.0,"[-0.13595157350491557,0.1221041025291041]",4.0,"[-0.11612464725926534,-0.1549595419644964]",4.0,"[0.05778277984248182,0.1744306573908722]",100.0,"[0.12225910475734551,-0.018250866956281343]",4.0,"[-0.11805421117314266,0.007624268467382706]",100.0,"[0.171335109666434,0.0897122273158491]",4.0,"[-0.05421037601218184,-0.03473463604680091]",4.0,"[-0.09436673163034194,-0.05134583821012445]",4.0,"[0.07303002929756737,0.13044672174442556]",4.0,"[-0.03535754886432689,-0.08117066900456647]",100.0,"[0.10212499496547647,0.16270253255540285]",4.0,"[-0.012928167147956676,0.1978910604052736]",4.0,"[0.021672813324346715,-0.05243823166918014]",4.0,"[0.12421320716139343,-0.07683043357218039]",4.0,"[0.01583606175623437,-0.19842251950006023]",4.0,"[-0.19065639760241898,-0.008782303994384712]",4.0,"[-0.1305859564256234,0.06247327287435975]",4.0,"[0.011092526984414843,0.07335569679290485]",4.0,"[-0.06422984905865144,0.08189557880395601]",4.0,"[0.10835709356572719,0.10457126990147624]",4.0,"[0.058681327264421025,-0.10582641443271991]",4.0,"[0.02,0.02]",232.1327,0.0,36.0,36.0,206.0,1.0,,,,,,,
,,,,,,,65feaaac53eb219f09ad5ea0,6842bc0d0fcaa2d54dff969d,2025-06-06_13h00.42.500,shape_ratio,2024.1.5,Win32,60.24096386,6842b561977af9ba9b0f87ca,,,,,,,,,,,232.1332,232.633,,,232.8838,233.3004,right,0.4006,,,,,,,,,0.9,,,,,,232.6331,232.8837,233.3006,"[0.03393161629925099,0.19030311340945988]",100.0,"[0.044710824473285414,-0.13763170884627246]",100.0,"[-0.022471856944932544,-0.137998439526425]",4.0,"[-0.1335178193481739,-0.012255596970644959]",100.0,"[-0.06429030090945,0.047721887978926084]",100.0,"[-0.18203604985815652,0.032587944410859104]",4.0,"[0.12868341325291793,0.031021777596019647]",100.0,"[-0.16095066886562023,-0.11339707246724098]",100.0,"[0.09425976487585602,0.07560880152480094]",100.0,"[0.07994280032051297,-0.07777158138685955]",100.0,"[-0.0726981104024125,0.17700339087715694]",100.0,"[-0.08620504922087664,0.08829780834648317]",100.0,"[-0.012869718107372233,0.15053704794533643]",100.0,"[-0.1058733145629362,0.1315532530000926]",100.0,"[0.03310866146084826,-0.09809390037348939]",100.0,"[0.1255991046588161,-0.09344098870059803]",100.0,"[0.03177377613436837,0.08656943001208862]",100.0,"[-0.022940692461752055,0.07603941408016136]",100.0,"[-0.06683260216037415,-0.1376720520619771]",4.0,"[-0.06868966602823263,-0.016716583977026675]",100.0,"[0.11748350306395365,0.11395445082184577]",100.0,"[0.11423686886758058,0.15623338156271183]",100.0,"[0.1773038039240611,-0.06734918798464451]",100.0,"[-0.07368935075761776,-0.08259640190046495]",100.0,"[0.07376988729619043,-0.01886297413456344]",100.0,"[0.17059481674622093,-0.002046133229282525]",100.0,"[0.0434837446399917,0.04603165839089517]",100.0,"[0.02520878350109956,-0.05168141940841466]",100.0,"[-0.16538258625329383,-0.056441148680247015]",100.0,"[-0.009905909010450081,0.0027995562234863973]",100.0,"[0.07184182516119524,0.1634882057899021]",100.0,"[0.16647779715546346,0.0751387761992333]",100.0,"[0.02,0.02]",234.4009,0.0,37.0,37.0,0.0,1.0,,,,,,,
,,,,,,,65feaaac53eb219f09ad5ea0,6842bc0d0fcaa2d54dff969d,2025-06-06_13h00.42.500,shape_ratio,2024.1.5,Win32,60.24096386,6842b561977af9ba9b0f87ca,,,,,,,,,,,234.4022,234.9012,,,235.1514,235.818,right,0.6578,,,,,,,,,0.45,,,,,,234.9013,235.1514,235.8181,"[-0.012371600129234194,-0.09845037853038509]",4.0,"[0.07325528983514175,0.13711894870698424]",100.0,"[-0.050980748570326445,0.09486794479186864]",4.0,"[-0.011721325726076757,0.11305942546985272]",4.0,"[0.00906467364440338,-0.019007395671817955]",4.0,"[0.10749760521028315,0.029038519094056383]",100.0,"[0.12482435649610997,-0.06661205333462039]",4.0,"[0.09445734936844889,-0.141944792093068]",4.0,"[0.054678349824924026,-0.07264076685702812]",100.0,"[0.056595496560698094,-0.15564719742251662]",100.0,"[0.0951636964386946,0.06847578338417928]",4.0,"[-0.19740251568848874,-0.013375974026285382]",4.0,"[-0.17680737762839674,0.04277446952687551]",4.0,"[-0.10846726612285706,-0.12761333826618707]",4.0,"[-0.08514521417795444,-0.0036062716744248674]",100.0,"[-0.060791731621393716,-0.054008341779552514]",100.0,"[0.06923133317536471,0.18027005614162991]",100.0,"[-0.05952484628938889,0.1431933423451434]",4.0,"[-0.13478519366628713,-0.08736345722412565]",100.0,"[-0.05617033517270588,-0.12108372612899664]",4.0,"[-0.058336182901784626,0.03136979146919394]",4.0,"[0.11931188950837898,-0.021397595312913152]",4.0,"[0.06629346104517889,0.008123589846877315]",4.0,"[-0.015119992040836246,0.06834668421883731]",100.0,"[0.17081810176623283,-0.028509773385846406]",4.0,"[-0.12964072187807493,0.10943528254887357]",100.0,"[0.1557575842004163,-0.09798424323608966]",100.0,"[-0.14301418619316505,-0.0022503852930125185]",4.0,"[0.029276543999762462,0.06724595913971003]",100.0,"[0.016445821157125312,-0.14759872784102965]",100.0,"[0.14066468316731312,0.12048245811456448]",4.0,"[-0.02632431238620121,0.1887909216117476]",100.0,"[0.02,0.02]",236.9183,0.0,38.0,38.0,133.0,1.0,,,,,,,
,,,,,,,65feaaac53eb219f09ad5ea0,6842bc0d0fcaa2d54dff969d,2025-06-06_13h00.42.500,shape_ratio,2024.1.5,Win32,60.24096386,6842b561977af9ba9b0f87ca,,,,,,,,,,,236.9188,237.4186,,,237.6699,238.1689,right,0.4854,,,,,,,,,0.9,,,,,,237.4186,237.6697,238.1691,"[-0.0787104197251042,0.032943970337207126]",4.0,"[-0.13785787177766964,0.08452333123502422]",100.0,"[-0.1652342729865891,0.019877853313284257]",100.0,"[0.07073141748914744,-0.033335897858294494]",100.0,"[-0.001039785938345244,0.060372541297198656]",100.0,"[0.043332920263720195,-0.18771061440599027]",100.0,"[-0.13078454557399555,-0.14351295795585003]",100.0,"[0.006559153330189165,0.013877644885374522]",100.0,"[0.17148638236041763,-0.06385776439680213]",100.0,"[0.1011700640408327,-0.06494248296133369]",100.0,"[-0.03515785488738792,-0.12740669180405875]",100.0,"[0.04110798147019087,0.12130790888293802]",100.0,"[0.011029877603218973,-0.11224538749090575]",100.0,"[0.139873571635279,0.11346437818512749]",100.0,"[0.07177367758794424,0.15716661798258197]",4.0,"[0.12812623694192427,-0.009807404871428217]",100.0,"[0.10645673224929823,-0.10807898155146228]",100.0,"[-0.16351278252417312,-0.11226285610268169]",100.0,"[-0.003791209238474294,0.15954108023196698]",100.0,"[-0.06842372602320904,-0.00946124693834875]",100.0,"[-0.04519025817100587,-0.08116698460058279]",100.0,"[-0.07347732920538604,0.13437952572380113]",100.0,"[-0.06791024609729743,-0.1840049074833094]",100.0,"[0.08278616466002502,0.10574498589088806]",100.0,"[-0.12798413390537386,0.12570714019745347]",100.0,"[-0.18260353280803224,0.06363361303674213]",100.0,"[0.17170483277341542,0.003306344254227402]",100.0,"[-0.024970561417465603,0.19364919403042952]",100.0,"[-0.028186461428576146,-0.01118666921927847]",100.0,"[-0.1571643157144829,-0.052647876174707973]",4.0,"[-0.08568199207589315,-0.09538960183398064]",100.0,"[-0.015391007822753775,0.11085650943273342]",100.0,"[0.02,0.02]",239.2693,0.0,39.0,39.0,6.0,1.0,,,,,,,
,,,,,,,65feaaac53eb219f09ad5ea0,6842bc0d0fcaa2d54dff969d,2025-06-06_13h00.42.500,shape_ratio,2024.1.5,Win32,60.24096386,6842b561977af9ba9b0f87ca,,,,,,,,,,,239.2698,239.7699,,,240.0202,240.5034,left,0.4671,,,,,,,,,0.5,,,,,,239.77,240.0202,240.5035,"[-0.08993150966090001,0.12567951296581653]",4.0,"[0.1467485982624121,-0.13433973548859166]",4.0,"[-0.17045376424284397,-0.04498634367425945]",100.0,"[-0.11518112099201508,-0.04799268229112014]",100.0,"[0.09999971011347468,-0.012810448625957925]",100.0,"[0.016051720400906026,0.07902861309407962]",4.0,"[-0.04091766943650913,0.03426288600928359]",4.0,"[0.07542700920125127,0.05909863482284388]",100.0,"[0.1799223893418582,-0.025815043001646408]",100.0,"[0.03991949166537122,-0.04761331702278687]",4.0,"[-0.05074783336881706,0.11230509177539412]",100.0,"[0.03759153369381577,-0.12281564795626809]",4.0,"[-0.05765290961479806,-0.03663288725993835]",4.0,"[-0.09520957627152259,0.06944724134537578]",4.0,"[-0.1223250917385877,-0.15484414646975264]",100.0,"[-0.01764026659976911,-0.0760233212274203]",100.0,"[-0.18773708751205606,0.01209752627451591]",100.0,"[-0.014687437022319248,-0.12809104841548546]",100.0,"[0.17494140610650485,-0.07024113019404113]",4.0,"[0.05268021199925495,-0.1719979004277368]",4.0,"[0.05723066065512728,0.006716562754278456]",4.0,"[0.11243033626283278,-0.16376943557747475]",4.0,"[0.10590057173076148,0.09230562199245035]",100.0,"[0.1107254781749003,-0.08850485278500995]",4.0,"[0.16351973301312794,0.05245460108596994]",100.0,"[-0.08538647038742352,-0.12105713843272178]",4.0,"[0.028509942721190052,0.12554861237322604]",4.0,"[-0.03141226452751952,0.15766988780381105]",100.0,"[-0.08153837456140843,-0.17785907812696944]",100.0,"[0.004397178434294624,0.023590551117462943]",4.0,"[-0.13656262068259384,0.13693862756044767]",100.0,"[-0.13215964802432945,0.00033318528036811653]",100.0,"[0.02,0.02]",241.6037,0.0,40.0,40.0,107.0,1.0,,,,,,,
,,,,,,,65feaaac53eb219f09ad5ea0,6842bc0d0fcaa2d54dff969d,2025-06-06_13h00.42.500,shape_ratio,2024.1.5,Win32,60.24096386,6842b561977af9ba9b0f87ca,,,,,,,,,,,241.6042,242.1046,,,242.355,242.8384,left,0.4754,,,,,,,,,0.5,,,,,,242.1047,242.3549,242.8387,"[-0.14145488436435752,0.00041917326110161836]",100.0,"[-0.09980311495395183,-0.0022908443346038696]",100.0,"[0.08083231881087741,-0.031131214442840366]",100.0,"[0.048378084660682684,0.06642612257884668]",100.0,"[-0.07616480057475455,0.034395602985321946]",4.0,"[-0.14422625040921574,0.1308593390457599]",4.0,"[0.0953019272106634,0.12899360910632435]",4.0,"[-0.11812146359765294,0.0558664096418933]",100.0,"[-0.06535183827242194,0.16010922002021938]",4.0,"[-0.06419457257038416,-0.1704634772871295]",100.0,"[-0.009811255993847197,0.130039942501343]",4.0,"[0.18328932485018254,-0.016946919235804932]",4.0,"[-0.16729338029573265,-0.03958641569179312]",100.0,"[-0.10093994197241075,0.095740488967261]",4.0,"[-0.03661312608761448,-0.13080395418571505]",4.0,"[0.1544174967518769,0.09329402471699892]",4.0,"[-0.03367770538390207,-0.07102384220210449]",4.0,"[-0.0056778526428943755,-0.17936661260431766]",4.0,"[-0.09348524575154271,-0.07635416884961968]",100.0,"[0.11941519707156069,0.04601646920158031]",4.0,"[-0.14866133176275842,-0.1300288940350845]",100.0,"[0.12847449208725012,0.15199350913363088]",4.0,"[-0.13437345232001216,-0.06503986763705598]",4.0,"[0.04722575079266493,-0.10550557049141619]",4.0,"[0.028035441536846065,0.17835252013066905]",100.0,"[0.15217818356121654,-0.12269563789171725]",100.0,"[-0.043030090609501304,-0.007971427664147131]",100.0,"[-0.05632044227757563,0.07605081945997981]",100.0,"[-0.1916193932590966,0.05632566591996314]",4.0,"[0.027386225815284868,-0.018050962710522526]",100.0,"[0.07607819378415064,0.0373749378104778]",100.0,"[0.045446907777213795,-0.05779935872827648]",100.0,"[0.02,0.02]",243.9382,0.0,41.0,41.0,105.0,1.0,,,,,,,
,,,,,,,65feaaac53eb219f09ad5ea0,6842bc0d0fcaa2d54dff969d,2025-06-06_13h00.42.500,shape_ratio,2024.1.5,Win32,60.24096386,6842b561977af9ba9b0f87ca,,,,,,,,,,,243.9387,244.4387,,,244.6902,245.0889,right,0.3831,,,,,,,,,0.9,,,,,,244.4388,244.6901,245.089,"[-0.16982949529880703,-0.0692158179074501]",100.0,"[-0.13212127454421674,-0.01314176777053668]",100.0,"[0.1650474906166318,-0.013061487640560691]",100.0,"[-0.06547190218930572,0.012535119527390842]",100.0,"[-0.1134625630049141,-0.10907626639424249]",100.0,"[-0.11860084178868184,-0.15685784895740834]",100.0,"[0.16408876557503052,-0.08581809289759727]",100.0,"[-0.07314663267170667,0.06692295129276232]",100.0,"[0.14346222496994496,-0.047438030431866784]",100.0,"[-0.045227052786047425,0.16605250474535438]",100.0,"[-0.08312160318511051,-0.17804935283574033]",100.0,"[0.034558147670524585,0.04310728800772024]",100.0,"[0.13184354396851497,0.018798202885908822]",100.0,"[0.07209971684219099,0.16239651118631795]",100.0,"[0.0743941716583008,0.12022139961297224]",100.0,"[-0.1519786832605554,-0.1221169361449737]",100.0,"[-0.06909939826548454,0.12860379160626934]",4.0,"[0.1435872155521706,0.10265695721880966]",100.0,"[-0.0970962672632105,0.16466237216751373]",100.0,"[0.04301573216622067,-0.03788710240989477]",100.0,"[-0.029828877508232206,0.08424370034466419]",100.0,"[0.08370844150628183,-0.1056929401797183]",100.0,"[0.03778449989952446,0.19514502849270712]",100.0,"[-0.07151955575515542,-0.06423717688855593]",100.0,"[-0.19252085464466176,0.03313820281188094]",100.0,"[-0.02152402766385988,-0.018770826927982685]",4.0,"[-0.026226532211258556,-0.08361576672292181]",100.0,"[-0.12357914335501899,0.042651769677296496]",100.0,"[0.09741900496499102,-0.03614317739158694]",100.0,"[-0.043851835515384255,-0.12660018756595956]",100.0,"[-0.19857776214424983,-0.018833963336815578]",4.0,"[0.17035544797960553,0.06575346117532613]",100.0,"[0.02,0.02]",246.1891,0.0,42.0,42.0,18.0,1.0,,,,,,,
,,,,,,,65feaaac53eb219f09ad5ea0,6842bc0d0fcaa2d54dff969d,2025-06-06_13h00.42.500,shape_ratio,2024.1.5,Win32,60.24096386,6842b561977af9ba9b0f87ca,,,,,,,,,,,246.1896,246.6895,,,246.9408,247.4399,left,0.4814,,,,,,,,,0.4,,,,,,246.6896,246.9407,247.4399,"[0.044794009575658406,0.1713307279221937]",4.0,"[-0.030007048300360536,-0.12387465751445959]",4.0,"[-0.005530788192383308,0.14636603682516725]",100.0,"[0.06415933701247845,0.04032931231174375]",4.0,"[-0.13277790433094278,-0.10777355792615789]",100.0,"[0.11112509581750117,-0.1552958917244355]",100.0,"[0.1409739481138012,0.07713611982031612]",4.0,"[0.009106201815407416,-0.03279475840365193]",4.0,"[-0.15904248472033558,0.07129228719588039]",100.0,"[-0.051081585702072614,0.10174731921884299]",4.0,"[0.15541429410964389,-0.02303114245853425]",100.0,"[0.09163618030867172,0.16584859509631372]",4.0,"[-0.03028401012136751,-0.1701125205660111]",4.0,"[0.1917328332588777,0.0018045674223030068]",100.0,"[0.011915383635853196,-0.13374336284393437]",4.0,"[0.18677574175038703,-0.06675550808578534]",100.0,"[-0.11313089439248115,-0.0528787024512005]",4.0,"[-0.11171814404385452,0.050599036714865916]",100.0,"[-0.03785148253741546,-0.031053227793457903]",4.0,"[0.11947317671403913,0.03404701682190699]",4.0,"[0.05041948317143736,-0.008954641377070728]",100.0,"[-0.0276645232414739,0.039919606526745956]",4.0,"[-0.15696957254783872,-0.003138928359674006]",4.0,"[0.0501684706763898,-0.09033767361069069]",4.0,"[0.045470215309974214,-0.050258238211192734]",4.0,"[-0.1864027886411298,-0.03713046093160866]",100.0,"[0.10540716171398876,-0.06665690869806795]",100.0,"[-0.09123806332984094,0.13186863453549466]",100.0,"[-0.07100612773868378,0.056787169021548616]",4.0,"[0.0364636078822156,0.12755924848644287]",4.0,"[0.09026143794615071,0.10866911191030569]",4.0,"[-0.07836934901704674,-0.020690295983157202]",100.0,"[0.02,0.02]",248.5401,0.0,43.0,43.0,156.0,1.0,,,,,,,
,,,,,,,65feaaac53eb219f09ad5ea0,6842bc0d0fcaa2d54dff969d,2025-06-06_13h00.42.500,shape_ratio,2024.1.5,Win32,60.24096386,6842b561977af9ba9b0f87ca,,,,,,,,,,,248.5406,249.0409,,,249.292,249.8415,right,0.5363,,,,,,,,,0.5,,,,,,249.041,249.2919,249.8417,"[-0.02137954034989112,0.01624251911487387]",4.0,"[-0.15230647161007202,-0.05211919079825998]",4.0,"[0.05887218061685105,0.1583963851744581]",4.0,"[0.10960436799591916,-0.023189529496558708]",100.0,"[-0.11089525769815012,-0.0774922190954153]",4.0,"[0.0004287075649487928,-0.033975630610396754]",100.0,"[-0.12056617578511677,-0.004332757563546487]",4.0,"[-0.03436225020490619,0.12176112246185712]",4.0,"[0.015790346355958215,0.08131458000954886]",100.0,"[0.1132141131312482,-0.13584870774623317]",4.0,"[0.06971236898894767,0.09412948903338857]",4.0,"[0.05357093195779454,-0.15565814130205663]",100.0,"[0.094125140140532,-0.06838265466980988]",100.0,"[-0.136746939978746,0.06041022083523607]",4.0,"[0.019368358104349604,0.13755039625555424]",100.0,"[-0.06856502288908882,-0.002417033073446838]",100.0,"[0.025339125888972785,-0.11417881871812509]",4.0,"[-0.07353138214934825,-0.13975245155036917]",100.0,"[0.04793944771640302,0.007346965241067939]",100.0,"[-0.0929147963220407,0.03032249824468586]",100.0,"[-0.04499845735680062,-0.07981166722977694]",4.0,"[-0.1150194812972563,-0.16124346379749713]",100.0,"[0.13754965517904108,0.04081440370273716]",100.0,"[0.1536993446246498,0.11958658483220927]",4.0,"[-0.03848555563112307,0.18564662265009585]",4.0,"[-0.02803536818368483,-0.14109876418614495]",4.0,"[-0.12919125167040968,0.11256391620035346]",4.0,"[0.1750941998080779,-0.07653949309988771]",4.0,"[-0.16245687877076478,-0.10197028652527321]",100.0,"[0.08384949215720834,0.05163871935094283]",100.0,"[-0.07634741470217712,0.14282218662196325]",100.0,"[0.006728564422222465,-0.18633915591722136]",100.0,"[0.02,0.02]",250.9413,0.0,44.0,44.0,99.0,1.0,,,,,,,
,,,,,,,65feaaac53eb219f09ad5ea0,6842bc0d0fcaa2d54dff969d,2025-06-06_13h00.42.500,shape_ratio,2024.1.5,Win32,60.24096386,6842b561977af9ba9b0f87ca,,,,,,,,,,,250.9417,251.4419,,,251.6919,252.4426,right,0.7381,,,,,,,,,0.55,,,,,,251.442,251.6919,252.4427,"[0.15095478310182522,-0.08709782465212117]",100.0,"[0.011241821821392687,0.14693467780919486]",4.0,"[-0.020666073152350927,-0.028008465174783687]",100.0,"[0.1563167431268433,0.08894918905041768]",100.0,"[0.06132381586096563,0.02910513579186025]",100.0,"[-0.022944366007167743,-0.10239144859528304]",4.0,"[-0.16699130852159208,0.1010795395872115]",4.0,"[-0.14885039282092985,0.02806304087527197]",100.0,"[-0.050366585356488136,0.12730067323306693]",100.0,"[-0.11745728262443308,-0.15811204539422477]",4.0,"[-0.038838958387152414,0.08732480565740587]",4.0,"[0.009561420423509354,0.18753196774443576]",4.0,"[-0.02420793480664504,0.04981706768218534]",4.0,"[0.12842555175918294,0.004284487308602749]",100.0,"[-0.1674923171739759,-0.08219726028435917]",4.0,"[0.11679092071831954,0.1490452156619879]",4.0,"[-0.13055413974730304,0.0764087005089692]",4.0,"[0.07648438081492788,-0.16636291104796297]",100.0,"[-0.012484797094048896,-0.17341710472232755]",4.0,"[0.04405727690438816,-0.06253092920283507]",100.0,"[-0.07051196996377157,0.03275105736870711]",100.0,"[0.1674347123077157,-0.010436268757992905]",4.0,"[-0.11926785242159552,-0.10486104015067421]",4.0,"[-0.09499083768538329,-0.05865867737478641]",4.0,"[-0.05910670560736929,-0.1620028869183635]",100.0,"[0.0621872415110942,-0.1252188900833383]",100.0,"[0.1724953728484955,0.03290432866804234]",100.0,"[0.031146520913381694,-0.014892982735890846]",100.0,"[-0.16754399382329813,-0.016095462151120885]",100.0,"[-0.060655957110210046,-0.1216413085551345]",100.0,"[0.021467412011370056,0.04236647501439134]",100.0,"[0.11288013342613813,0.08615558402343691]",100.0,"[0.02,0.02]",253.5428,0.0,45.0,45.0,76.0,1.0,,,,,,,
,,,,,,,65feaaac53eb219f09ad5ea0,6842bc0d0fcaa2d54dff969d,2025-06-06_13h00.42.500,shape_ratio,2024.1.5,Win32,60.24096386,6842b561977af9ba9b0f87ca,,,,,,,,,,,253.5437,254.0433,,,254.2933,254.8599,left,0.5541,,,,,,,,,0.55,,,,,,254.0434,254.2933,254.86,"[-0.09074037298746533,-0.04933124512096629]",100.0,"[-0.08724984265816296,0.1032305861231167]",100.0,"[0.10377655731013687,0.11095562424881941]",100.0,"[0.026521690262267007,0.11736697372491976]",100.0,"[-0.15029826961798384,0.037750936771012905]",100.0,"[0.023767247148400023,-0.030734855318878634]",100.0,"[-0.017722278203220428,0.08056479760712593]",100.0,"[-0.07485365986677284,-0.17716087704492328]",100.0,"[0.07296767171394113,-0.16907952133314785]",4.0,"[0.0663337003175491,-0.051629075559964044]",100.0,"[-0.10797815975381561,-0.08741570807661271]",4.0,"[0.027848741963257827,-0.13219441730037185]",4.0,"[0.13226896756332024,-0.05443650512889179]",4.0,"[0.12687451726599608,-0.13764959315781206]",100.0,"[0.06849697790146085,0.07319686658154359]",4.0,"[-0.03517722145182426,0.12622690275843856]",100.0,"[-0.02506597334252597,-0.0189400808935005]",4.0,"[0.18715606855254402,-0.003953427170458989]",4.0,"[-0.08485547019261805,0.013307111736133635]",4.0,"[0.0404601693785329,0.17852314958298376]",100.0,"[-0.15343553478615132,-0.09044281325042576]",4.0,"[0.06737134898023592,0.020554204220546525]",4.0,"[0.12711788975986782,0.07038677087785468]",4.0,"[-0.09144786787592118,0.14747065458449493]",4.0,"[-0.07589415510201518,0.18470490486694482]",100.0,"[-0.19117409712486236,0.033115024381209425]",100.0,"[0.12600691343377696,-0.09671765108485006]",4.0,"[0.07809570166194053,0.14754387764461507]",4.0,"[0.02748453175789725,-0.08164260623092526]",100.0,"[-0.1892544326243842,-0.03970340008000079]",100.0,"[-0.01657168191855641,-0.11657982247578873]",100.0,"[-0.03419361914882724,0.17222501855882483]",100.0,"[0.02,0.02]",255.9606,0.0,46.0,46.0,84.0,1.0,,,,,,,
,,,,,,,65feaaac53eb219f09ad5ea0,6842bc0d0fcaa2d54dff969d,2025-06-06_13h00.42.500,shape_ratio,2024.1.5,Win32,60.24096386,6842b561977af9ba9b0f87ca,,,,,,,,,,,255.9618,256.4605,,,256.7117,257.0777,right,0.3506,,,,,,,,,0.6,,,,,,256.4605,256.7116,257.0778,"[-0.050572269347339216,-0.007666863461949563]",100.0,"[-0.15982181238253088,0.10607551792683508]",4.0,"[0.1442453243555661,0.08466315578103692]",100.0,"[0.16789923569876686,0.032392849564155446]",100.0,"[-0.06319088546605045,-0.18257702760177552]",100.0,"[0.06226253205584829,-0.009716067278875444]",100.0,"[-0.15012496686730598,0.0007272947678856888]",100.0,"[0.01977039660668475,0.0337872308361779]",100.0,"[0.06951539738249117,0.07505509087930728]",100.0,"[-0.17070199459520458,-0.08795246489567655]",4.0,"[0.055128098224292724,-0.10192113382600111]",4.0,"[-0.1443367177902726,0.04949576968177398]",4.0,"[-0.1118295337009068,-0.09519018519363441]",100.0,"[-0.012385233344696524,0.18932090171055424]",100.0,"[-0.045027622627749626,-0.0850916857173545]",4.0,"[-0.06062839827955472,0.11167203101962139]",100.0,"[0.09931098693821579,-0.13320893548860402]",100.0,"[-0.024070783478557237,0.07184908909263146]",4.0,"[0.019490423003516638,-0.18130317230104678]",100.0,"[0.1693545245149463,-0.0960283425719954]",100.0,"[0.12152119786011413,0.005035645149445542]",4.0,"[-0.09340548773302061,0.13927610877793584]",4.0,"[0.008902196196607738,-0.11692618219504596]",4.0,"[0.01692962688275749,0.14256781453461234]",4.0,"[0.13060129437725662,-0.06646830963297849]",100.0,"[0.02268128713648932,-0.015736498660506096]",100.0,"[-0.09761985070073234,0.06888675457569707]",100.0,"[0.06217866843926865,-0.17583410486928175]",4.0,"[0.07950855157032806,0.13536754221703337]",4.0,"[-0.09030749995627525,-0.03059994075818267]",100.0,"[0.1970350393750824,-0.02707618879812982]",100.0,"[-0.18588248501951685,0.0662702515171869]",4.0,"[0.02,0.02]",258.1778,0.0,47.0,47.0,46.0,1.0,,,,,,,
,,,,,,,65feaaac53eb219f09ad5ea0,6842bc0d0fcaa2d54dff969d,2025-06-06_13h00.42.500,shape_ratio,2024.1.5,Win32,60.24096386,6842b561977af9ba9b0f87ca,,,,,,,,,,,258.1783,258.6781,,,258.9286,259.4286,left,0.4894,,,,,,,,,0.45,,,,,,258.6782,258.9285,259.4286,"[-0.0001837237924706777,-0.08684379474212033]",100.0,"[0.05189304541013738,-0.11661115855997504]",4.0,"[-0.03551968097039455,-0.05854571379801455]",4.0,"[-0.07822747554141112,0.034781564382799446]",4.0,"[0.10525065149130802,-0.03174752392712277]",4.0,"[0.015582050617044789,0.12003925513965422]",100.0,"[-0.15601089084025765,0.031237488285844824]",4.0,"[0.07700877125763225,0.002807713394906475]",100.0,"[0.023800030158495772,0.07742923452157738]",4.0,"[-0.14509388520502262,0.07442504815444674]",100.0,"[-0.12923807733855544,-0.0015448411563077442]",100.0,"[0.07648494859102932,0.11021408228925625]",4.0,"[-0.17600855984360478,-0.09423746492577857]",4.0,"[0.11307300564541295,-0.09350944251519071]",100.0,"[0.08320271729530199,0.05576711235374941]",4.0,"[0.1677173012025628,-0.056717050570451226]",100.0,"[-0.0017067765749762037,-0.12988995785068055]",4.0,"[0.00456904217573798,-0.19591596329508174]",100.0,"[0.17962596076512086,0.04925526625056277]",4.0,"[-0.0542205770234114,0.12230581487623732]",100.0,"[-0.10523302250189842,0.1065794944173355]",100.0,"[-0.01756525784757718,0.14986765249713474]",100.0,"[0.017813860051781642,-0.043167313318267134]",4.0,"[-0.15107363721579645,0.11469715110233913]",4.0,"[-0.10090936131628687,-0.09680205512260455]",4.0,"[-0.1187625179002935,-0.06081636807837716]",4.0,"[0.014527307035026606,0.19310830826476238]",4.0,"[0.1039265208867116,-0.14718365790914026]",100.0,"[0.018193284672171704,0.019196628533390842]",4.0,"[-0.08724720750767473,-0.1503520333695339]",100.0,"[0.1931822952821472,-0.01927141553754711]",100.0,"[-0.06908654901134145,-0.007904039891730972]",4.0,"[0.02,0.02]",260.5288,0.0,48.0,48.0,138.0,1.0,,,,,,,
,,,,,,,65feaaac53eb219f09ad5ea0,6842bc0d0fcaa2d54dff969d,2025-06-06_13h00.42.500,shape_ratio,2024.1.5,Win32,60.24096386,6842b561977af9ba9b0f87ca,,,,,,,,,,,260.5294,261.0295,,,261.2796,261.7463,right,0.4496,,,,,,,,,0.6,,,,,,261.0297,261.2796,261.7463,"[-0.14312334953132125,-0.10772537886177924]",100.0,"[-0.04067098641709791,-0.012150063357756409]",100.0,"[-0.16012153914464847,0.005113015451393773]",4.0,"[-0.18536505363962386,-0.03455509223442653]",100.0,"[-0.11047937245180037,-0.021475511957212503]",100.0,"[-0.028700818468153155,0.19062829018067412]",100.0,"[0.09620038622700859,0.0897012513123799]",100.0,"[-0.10880733502170988,-0.1498832221918669]",100.0,"[0.016337856578047264,0.07693575940994267]",100.0,"[-0.01258582243295079,-0.175032031458829]",4.0,"[-0.08897197150221163,0.05288959438267302]",4.0,"[0.1054784089820292,0.1286495268449474]",4.0,"[0.08498876995405737,-0.030921976873208745]",100.0,"[0.14353344874887752,-0.11052959419324032]",4.0,"[-0.030272642082114602,0.14481789739206977]",100.0,"[0.019311056158905757,-0.02885378015356317]",100.0,"[0.045143870107388746,0.044718336489068936]",4.0,"[0.05337728833242371,0.18384626341346216]",100.0,"[-0.16834570843044064,0.0855114521175663]",100.0,"[-0.07855730582180125,0.1834713723053693]",100.0,"[0.17130698139752287,-0.06446785391187061]",100.0,"[-0.11625043471126496,0.1589816509934925]",100.0,"[0.1112024366351056,-0.06661312264528]",4.0,"[-0.08335884240334503,-0.07735538670247624]",4.0,"[0.09266468989280643,0.03876137178271437]",100.0,"[0.012334141971756302,-0.12036268202733137]",4.0,"[0.14982436811147318,0.05072988192422582]",4.0,"[-0.036822396171262275,-0.08123351061043925]",100.0,"[-0.021955174357414224,0.048708672431117164]",4.0,"[0.0766555591067339,-0.09084282546459387]",100.0,"[-0.1462625645767722,0.04310609179371043]",4.0,"[-0.029133353172143356,-0.1341754468347379]",4.0,"[0.02,0.02]",262.8466,0.0,49.0,49.0,43.0,1.0,,,,,,,
