right,left,explain.started,explain.stopped,key_resp_3.keys,key_resp_3.rt,key_resp_3.duration,participant,session,date,expName,psychopyVersion,OS,frameRate,study_id,explain_2.started,explain_2.stopped,key_resp_4.keys,key_resp_4.rt,key_resp_4.duration,explain_3.started,explain_3.stopped,key_resp_5.keys,key_resp_5.rt,key_resp_5.duration,fixation.started,fixation.stopped,practice.started,practice.stopped,response.started,response.stopped,key_resp.keys,key_resp.rt,key_resp.duration,feedback.started,feedback.stopped,trials_2.thisRepN,trials_2.thisTrialN,trials_2.thisN,trials_2.thisIndex,trials_2.ran,dot_ratio,explain_4.started,explain_4.stopped,key_resp_6.keys,key_resp_6.rt,key_resp_6.duration,dotDisplay.started,dotDisplay.stopped,ITI.started,polygon_1.pos,polygon_1.edges,polygon_2.pos,polygon_2.edges,polygon_3.pos,polygon_3.edges,polygon_4.pos,polygon_4.edges,polygon_5.pos,polygon_5.edges,polygon_6.pos,polygon_6.edges,polygon_7.pos,polygon_7.edges,polygon_8.pos,polygon_8.edges,polygon_9.pos,polygon_9.edges,polygon_10.pos,polygon_10.edges,polygon_11.pos,polygon_11.edges,polygon_12.pos,polygon_12.edges,polygon_13.pos,polygon_13.edges,polygon_14.pos,polygon_14.edges,polygon_15.pos,polygon_15.edges,polygon_16.pos,polygon_16.edges,polygon_17.pos,polygon_17.edges,polygon_18.pos,polygon_18.edges,polygon_19.pos,polygon_19.edges,polygon_20.pos,polygon_20.edges,polygon_21.pos,polygon_21.edges,polygon_22.pos,polygon_22.edges,polygon_23.pos,polygon_23.edges,polygon_24.pos,polygon_24.edges,polygon_25.pos,polygon_25.edges,polygon_26.pos,polygon_26.edges,polygon_27.pos,polygon_27.edges,polygon_28.pos,polygon_28.edges,polygon_29.pos,polygon_29.edges,polygon_30.pos,polygon_30.edges,polygon_31.pos,polygon_31.edges,polygon_32.pos,polygon_32.edges,dot_size,ITI.stopped,trials.thisRepN,trials.thisTrialN,trials.thisN,trials.thisIndex,trials.ran,break_2.started,break_2.stopped,trials_3.thisRepN,trials_3.thisTrialN,trials_3.thisN,trials_3.thisIndex,trials_3.ran
subject chose dot,subject chose diamond,0.0002,35.1504,space,20.1293,,65fe94ba6224418236d68fa8,6842bc981af5ccb9609ec855,2025-06-06_05h02.13.194,shape_ratio,2024.1.5,MacIntel,61.34969325,6842b561977af9ba9b0f87ca,,,,,,,,,,,,,,,,,,,,,,,,,,,,,,,,,,,,,,,,,,,,,,,,,,,,,,,,,,,,,,,,,,,,,,,,,,,,,,,,,,,,,,,,,,,,,,,,,,,,,,,,,,,,,,,,,
,,,,,,,65fe94ba6224418236d68fa8,6842bc981af5ccb9609ec855,2025-06-06_05h02.13.194,shape_ratio,2024.1.5,MacIntel,61.34969325,6842b561977af9ba9b0f87ca,35.1507,66.3161,space,1.1378,,,,,,,,,,,,,,,,,,,,,,,,,,,,,,,,,,,,,,,,,,,,,,,,,,,,,,,,,,,,,,,,,,,,,,,,,,,,,,,,,,,,,,,,,,,,,,,,,,,,,,,,,,,,,
,,,,,,,65fe94ba6224418236d68fa8,6842bc981af5ccb9609ec855,2025-06-06_05h02.13.194,shape_ratio,2024.1.5,MacIntel,61.34969325,6842b561977af9ba9b0f87ca,,,,,,66.3164,72.4669,space,3.121,,,,,,,,,,,,,,,,,,,,,,,,,,,,,,,,,,,,,,,,,,,,,,,,,,,,,,,,,,,,,,,,,,,,,,,,,,,,,,,,,,,,,,,,,,,,,,,,,,,,,,,,
,,,,,,,65fe94ba6224418236d68fa8,6842bc981af5ccb9609ec855,2025-06-06_05h02.13.194,shape_ratio,2024.1.5,MacIntel,61.34969325,6842b561977af9ba9b0f87ca,,,,,,,,,,,72.483,72.9833,72.9838,73.2337,73.2339,74.7168,left,1.4508,,74.717,75.8166,0.0,0.0,0.0,0.0,1.0,0.2,,,,,,,,,,,,,,,,,,,,,,,,,,,,,,,,,,,,,,,,,,,,,,,,,,,,,,,,,,,,,,,,,,,,,,,,,,,,,,,,,,,,,,
,,,,,,,65fe94ba6224418236d68fa8,6842bc981af5ccb9609ec855,2025-06-06_05h02.13.194,shape_ratio,2024.1.5,MacIntel,61.34969325,6842b561977af9ba9b0f87ca,,,,,,,,,,,75.8174,76.3165,76.3165,76.5669,76.567,77.1667,right,0.5827,,77.1668,78.2664,0.0,1.0,1.0,1.0,1.0,0.8,,,,,,,,,,,,,,,,,,,,,,,,,,,,,,,,,,,,,,,,,,,,,,,,,,,,,,,,,,,,,,,,,,,,,,,,,,,,,,,,,,,,,,
,,,,,,,65fe94ba6224418236d68fa8,6842bc981af5ccb9609ec855,2025-06-06_05h02.13.194,shape_ratio,2024.1.5,MacIntel,61.34969325,6842b561977af9ba9b0f87ca,,,,,,,,,,,,,,,,,,,,,,,,,,,,78.2668,82.7166,space,1.4301,,,,,,,,,,,,,,,,,,,,,,,,,,,,,,,,,,,,,,,,,,,,,,,,,,,,,,,,,,,,,,,,,,,,,,,,,,,,,,,,,,
,,,,,,,65fe94ba6224418236d68fa8,6842bc981af5ccb9609ec855,2025-06-06_05h02.13.194,shape_ratio,2024.1.5,MacIntel,61.34969325,6842b561977af9ba9b0f87ca,,,,,,,,,,,82.7275,83.2154,,,83.4672,84.15,left,0.668,,,,,,,,,0.6,,,,,,83.216,83.4672,84.1505,"[0.11862580197763611,0.005294680450687754]",100.0,"[-0.05265133298909421,-0.011519629367354381]",100.0,"[0.04456370574818238,-0.13016174134237407]",100.0,"[-0.04670619005633044,-0.16856999763491218]",100.0,"[-0.013469598500013268,0.10396120260563828]",4.0,"[-0.02353432268618787,-0.11848785368065036]",4.0,"[-0.12680577483615213,-0.12731934786626117]",4.0,"[-0.12029504325025082,-0.03598383220292028]",4.0,"[-0.1204321027102601,0.017781958495675387]",100.0,"[0.13700547481321,-0.1259577638936108]",100.0,"[0.004713965789835099,0.024472787659658442]",4.0,"[0.0011842393544614109,0.14303425076534013]",100.0,"[0.013137717509114355,-0.026861412523303093]",4.0,"[0.19686433117035584,-0.014424657412951753]",100.0,"[-0.030683718646974723,-0.05425634060763969]",4.0,"[-0.1699662856603998,-0.010337574575773334]",100.0,"[0.08950404967367395,-0.0648099529149349]",4.0,"[0.042226189532265104,0.09920553322515865]",100.0,"[-0.09966703849690046,-0.16609094329661273]",4.0,"[-0.09087881781472813,0.10958385681814799]",100.0,"[0.13879216930033977,-0.08542457007466804]",100.0,"[0.1026176972758691,0.09132321491677821]",100.0,"[0.041578097662328686,-0.07346229738874198]",100.0,"[0.07089935983666783,0.15585947952708631]",100.0,"[-0.08065782910153466,-0.12208860106840905]",100.0,"[-0.05193382314169124,0.04854046086458422]",100.0,"[0.16990620291373618,-0.0559543619925051]",4.0,"[0.1500830087792183,0.039608714223619626]",100.0,"[-0.0704079618626652,-0.06788923165421443]",4.0,"[0.1269529917105333,-0.03854533883137584]",100.0,"[0.10818413592242625,0.044601010146275516]",4.0,"[-0.1380641214026828,0.08978885606538471]",4.0,"[0.02,0.02]",85.2499,0.0,0.0,0.0,43.0,1.0,,,,,,,
,,,,,,,65fe94ba6224418236d68fa8,6842bc981af5ccb9609ec855,2025-06-06_05h02.13.194,shape_ratio,2024.1.5,MacIntel,61.34969325,6842b561977af9ba9b0f87ca,,,,,,,,,,,85.2506,85.7497,,,86.0002,87.1157,left,1.1,,,,,,,,,0.55,,,,,,85.7498,86.0001,87.1158,"[0.08651869807502638,-0.11757710799898256]",100.0,"[-0.028167758162971,0.17380673825218826]",100.0,"[-0.09232509236696536,-0.16316832841091886]",100.0,"[0.07085036979680252,0.15060005776197982]",100.0,"[0.12655637512369958,0.08940839432409724]",4.0,"[0.17797686477568253,0.019223656770858213]",100.0,"[-0.15126558928324949,-0.1233392509345769]",100.0,"[0.031324371982205924,0.0023698501308891465]",100.0,"[0.1308241504689052,-0.11786326258282691]",4.0,"[0.03502815077388337,-0.04650271544465875]",100.0,"[-0.17314181829572167,0.030931918325434623]",4.0,"[0.12901770733896914,0.13475070324276922]",100.0,"[-0.1718184652532666,-0.02731314088322178]",100.0,"[-0.1225359922620442,-0.036805000583535856]",4.0,"[-0.08353580952685684,0.03623292957515783]",100.0,"[0.03246291720180186,0.1088875630583231]",4.0,"[0.0250781146395484,-0.10666934553250178]",4.0,"[-0.04206160078812974,-0.1544933689788363]",100.0,"[0.003083538844133492,0.08047343651208942]",4.0,"[-0.06562175885937757,0.11669614613718982]",100.0,"[-0.13905093787136114,0.14365016027933444]",4.0,"[0.05753805411693088,0.0755353047098809]",4.0,"[0.15319127666688745,-0.03935091409484588]",100.0,"[-0.056317511720632735,-0.03519531109209287]",100.0,"[-0.030808218178619933,-0.10910007122367034]",4.0,"[0.1012841053207314,0.021185052740083744]",4.0,"[-0.10997172248191289,-0.10302394038277375]",4.0,"[0.023299535502233907,0.17843170225208763]",100.0,"[-0.1358091536513057,0.08319631568570728]",100.0,"[-0.0053473603777469585,0.12231279477221932]",4.0,"[0.021900454691873114,-0.18684081489984555]",4.0,"[0.07875759634856569,-0.025233089573049823]",100.0,"[0.02,0.02]",88.2153,0.0,1.0,1.0,73.0,1.0,,,,,,,
,,,,,,,65fe94ba6224418236d68fa8,6842bc981af5ccb9609ec855,2025-06-06_05h02.13.194,shape_ratio,2024.1.5,MacIntel,61.34969325,6842b561977af9ba9b0f87ca,,,,,,,,,,,88.2158,88.7163,,,88.9654,89.8499,right,0.8677,,,,,,,,,0.5,,,,,,88.7164,88.9654,89.85,"[-0.16022737441195464,0.09990349103037026]",100.0,"[-0.15525454240689673,-0.007050073840750096]",4.0,"[-0.06532436595932074,-0.021711342607047067]",4.0,"[-0.04695445280129699,-0.08600608865530765]",100.0,"[0.1005315259903842,0.03367645390566902]",4.0,"[-0.0301079896517449,0.1394713289323017]",4.0,"[-0.09076052929010607,0.12188632991628998]",100.0,"[0.06421403746487314,0.11159518373236317]",4.0,"[0.10136429180107494,0.07934779984398743]",100.0,"[0.1664919271510093,0.04176219920056665]",100.0,"[-0.1824167219966372,0.04419350545561412]",4.0,"[-0.02111875653902086,-0.14370293369248693]",100.0,"[0.1633218129880043,-0.01966953054841688]",100.0,"[0.026902287799534335,-0.13602455853610282]",4.0,"[-0.11481687615633857,0.01733711327931009]",4.0,"[0.1425534680505402,0.09719034281871032]",4.0,"[0.01250791634706885,0.118076229668404]",4.0,"[0.01572844117781883,0.18247338706365634]",4.0,"[0.10575161877319135,-0.08067941941631036]",4.0,"[-0.035769033784664075,0.18594907456988438]",100.0,"[0.04677720170927397,-0.18792657235950097]",4.0,"[-0.06772028625463104,-0.14267849473442026]",100.0,"[0.04201674105423888,-0.05297079543074578]",4.0,"[-0.11668681105924829,0.15254763352958406]",100.0,"[-0.08061729565589011,0.05085614367261493]",4.0,"[-0.015539342807822031,0.02451517154703263]",100.0,"[-0.10466575749571473,-0.11865144166678528]",4.0,"[0.046412064031313094,0.009614843292125606]",100.0,"[0.11022559185878529,0.1549138541080459]",100.0,"[0.18016397907174356,-0.08006465077038387]",100.0,"[0.08800371857532388,-0.13956731232681466]",100.0,"[-0.1590952805731505,-0.0935151199357475]",100.0,"[0.02,0.02]",90.9497,0.0,2.0,2.0,99.0,1.0,,,,,,,
,,,,,,,65fe94ba6224418236d68fa8,6842bc981af5ccb9609ec855,2025-06-06_05h02.13.194,shape_ratio,2024.1.5,MacIntel,61.34969325,6842b561977af9ba9b0f87ca,,,,,,,,,,,90.9502,91.4487,,,91.7,92.3832,right,0.6667,,,,,,,,,0.4,,,,,,91.4489,91.7,92.3833,"[-0.05362976510759555,0.030115252370432926]",100.0,"[-0.017280214615162635,-0.07413004044475678]",4.0,"[0.1298911499540932,-0.1163352617667367]",4.0,"[0.172474611406765,0.07799304123858103]",4.0,"[-0.02737895000592985,0.1692038377156201]",100.0,"[-0.063757375597787,-0.10463482567622426]",100.0,"[0.03542980998879088,-0.033978500826164916]",100.0,"[-0.13035718146119707,0.13623767642178766]",100.0,"[-0.14358041694141774,-0.09402437791801142]",4.0,"[-0.07489025886222664,-0.05136247775136604]",4.0,"[0.10331703039810256,0.03702634570805014]",4.0,"[0.08153614267908074,-0.08019982052546064]",4.0,"[-0.125765555378321,0.05417078926012128]",4.0,"[-0.03111985897874894,0.09187038388842547]",100.0,"[0.11938795176282589,0.12927138194051568]",4.0,"[0.10955075175874483,0.07982609497339026]",4.0,"[0.1711892045213642,-0.04962363419802847]",100.0,"[0.024500143598403346,0.025864916765732947]",4.0,"[-0.06162948069501378,-0.17730361553667628]",4.0,"[0.07200666084285047,0.17294987067669723]",4.0,"[-0.08600028431141521,0.15619166880042532]",4.0,"[-0.00137294170503593,-0.1582920935971448]",100.0,"[0.05380153775952478,-0.1735922050939935]",4.0,"[-0.07149710423832915,0.07810157897785927]",100.0,"[0.07158541222471461,-0.003003163603344565]",100.0,"[0.03482621959714003,-0.11109968739073445]",4.0,"[0.1868454242415773,-0.005510593139918961]",4.0,"[-0.023468286967277974,-0.02888018444714576]",4.0,"[0.0034733813721377943,0.06935202975137598]",100.0,"[0.03460292625870748,0.11931748856454609]",100.0,"[0.11845930590204155,-0.06007341538200616]",4.0,"[0.07653825964290353,-0.13965423262632012]",100.0,"[0.02,0.02]",93.482,0.0,3.0,3.0,150.0,1.0,,,,,,,
,,,,,,,65fe94ba6224418236d68fa8,6842bc981af5ccb9609ec855,2025-06-06_05h02.13.194,shape_ratio,2024.1.5,MacIntel,61.34969325,6842b561977af9ba9b0f87ca,,,,,,,,,,,93.4825,93.983,,,94.2332,95.4331,left,1.1834,,,,,,,,,0.4,,,,,,93.9831,94.2332,95.4332,"[-0.02755470464543796,0.11948913931173061]",4.0,"[0.11261765102549731,-0.07061917607809724]",100.0,"[0.05022418819379778,0.05350917624845919]",4.0,"[-0.12188700301049558,-0.09301723853055605]",100.0,"[0.18189822401589167,-0.06593083050876855]",4.0,"[-0.027296253253920186,-0.15600212275984748]",4.0,"[0.006580241794484798,0.08600809527987406]",4.0,"[0.07962050260646189,0.09975598647884822]",4.0,"[0.15154460520498578,-0.006248999841596266]",100.0,"[-0.1777261556729771,0.07206529180435342]",4.0,"[0.02556078913733867,-0.1976337180832507]",4.0,"[0.15525169773677766,0.0815734137996758]",100.0,"[0.04487375085172887,0.004061644588437248]",100.0,"[-0.05542425770381845,0.1723186949624854]",4.0,"[0.02730073646382603,-0.03719386006986865]",4.0,"[0.028723945853492316,0.12815711465060098]",100.0,"[-0.03439951531464718,-0.06010040840866497]",100.0,"[-0.08437923698678432,0.14118603414820693]",100.0,"[0.024116848925284123,0.17817885035845796]",4.0,"[-0.0014892181791966352,-0.0896437481100136]",100.0,"[-0.13700400034849505,0.053077998518256224]",100.0,"[-0.07991522991101661,-0.1233098602256647]",4.0,"[-0.06583810313432657,0.011918054482994421]",4.0,"[0.12308231894916001,0.03868322195359322]",4.0,"[-0.03304357621042709,0.04545112886657093]",4.0,"[0.007366748115510176,-0.1309669763451772]",100.0,"[0.13107561877031204,0.14139824019919595]",100.0,"[0.04750628752734859,-0.14528964420809123]",4.0,"[-0.17082311242294265,-0.04157239283406227]",4.0,"[-0.1374506079293531,0.1401219283324128]",4.0,"[-0.13399936409954566,-0.1355851368443715]",100.0,"[0.14291550666067623,-0.12870918749828855]",4.0,"[0.02,0.02]",96.5329,0.0,4.0,4.0,172.0,1.0,,,,,,,
,,,,,,,65fe94ba6224418236d68fa8,6842bc981af5ccb9609ec855,2025-06-06_05h02.13.194,shape_ratio,2024.1.5,MacIntel,61.34969325,6842b561977af9ba9b0f87ca,,,,,,,,,,,96.5334,97.032,,,97.2825,98.4331,left,1.1332,,,,,,,,,0.1,,,,,,97.0321,97.2824,98.4331,"[0.10369863450069285,0.129678582838981]",4.0,"[-0.061735466220845886,-0.16491561025653412]",4.0,"[-0.1544583617153579,0.035585518810817875]",4.0,"[0.06075777674082608,0.1339629868104479]",4.0,"[0.026648955856868026,-0.06971502971830024]",100.0,"[-0.1703670574176707,-0.08274487718046432]",4.0,"[0.18044952943396644,-0.032536934173408256]",4.0,"[-0.16513644425569826,-0.03349748984056136]",4.0,"[0.1019733219399257,-0.034353819476339295]",4.0,"[0.032944333825355936,0.07583731653831202]",4.0,"[-0.009568140338803321,0.11599515565076886]",4.0,"[0.14323654032456037,-0.00019995479459972666]",4.0,"[0.14200944953304157,0.0857708685344695]",4.0,"[-0.11928836307955938,0.06538381033074511]",4.0,"[-0.062421335902580026,-0.08938163918520686]",4.0,"[0.041241174624884316,0.19527314288557918]",4.0,"[0.1771580161243461,0.039226803953591856]",4.0,"[0.007017962640011648,-0.17171964031120218]",4.0,"[0.07798003573458033,-0.18154219789144]",4.0,"[-0.0767329345631312,0.08431591056650538]",4.0,"[-0.03850763866588075,0.014069163801901544]",4.0,"[-0.05821213991672621,0.1301246882098635]",4.0,"[-0.1078150042127475,-0.04952410695822476]",4.0,"[0.1412204900953126,-0.06280301876519599]",100.0,"[0.05656733670223858,-0.10648866970764619]",4.0,"[0.12578929769397043,-0.10918991467437714]",4.0,"[-0.043549566315440956,0.1718092512643776]",4.0,"[-0.10134140370181814,0.17190811352724522]",100.0,"[0.06402957213413164,0.0024503583654497296]",4.0,"[-0.10809434243198936,0.02274022363196329]",4.0,"[-0.02077001147054751,-0.08795126768092384]",4.0,"[-0.006709264440187871,-0.03870910318083818]",4.0,"[0.02,0.02]",99.5329,0.0,5.0,5.0,186.0,1.0,,,,,,,
,,,,,,,65fe94ba6224418236d68fa8,6842bc981af5ccb9609ec855,2025-06-06_05h02.13.194,shape_ratio,2024.1.5,MacIntel,61.34969325,6842b561977af9ba9b0f87ca,,,,,,,,,,,99.5333,100.0329,,,100.2832,101.1321,right,0.8352,,,,,,,,,0.4,,,,,,100.0329,100.2832,101.1321,"[-0.04202028498657583,-0.13448013365532677]",4.0,"[-0.068287844864988,-0.07504812574855718]",4.0,"[0.043082574471020325,-0.12990036898577664]",4.0,"[0.1107425406159075,-0.1592057603152653]",100.0,"[0.10520893202225857,0.02883330764964692]",4.0,"[0.05479759264216433,0.136822871223594]",4.0,"[-0.15569573225663044,-0.006621622643872357]",4.0,"[-0.042664327393355614,0.011220078297456056]",100.0,"[0.15636850922942672,0.10757333642199501]",100.0,"[0.013889917957811975,0.1597657449501244]",100.0,"[-0.08241177687031259,-0.00492935547587489]",4.0,"[-0.0016973688745969327,-0.13307812584696502]",4.0,"[0.15454160939828018,0.06169319138954002]",100.0,"[0.15173024074138908,-0.11170746430394575]",4.0,"[-0.025059115935007106,-0.18380694071479534]",4.0,"[0.05129968567040357,0.02713576361270013]",4.0,"[0.16582954748069273,0.006145131900658471]",100.0,"[-0.07429458291040973,0.054134489106178664]",4.0,"[-0.02641246793538968,-0.0953781711602403]",4.0,"[0.08531928481544254,-0.09864299317604651]",100.0,"[0.10923724748126304,-0.02298457929162425]",4.0,"[-0.13217602090519778,-0.08578126456682626]",4.0,"[-0.16698977292160586,-0.0508200482501495]",100.0,"[0.06920626683367982,-0.17064113442492465]",4.0,"[-0.09872798822077351,0.16280906388540073]",4.0,"[0.030343099442948156,-0.025672294736750836]",100.0,"[0.14193467479789854,-0.06159663468057743]",100.0,"[-0.14507753042259883,0.05896009241493583]",4.0,"[-0.02021754608541732,0.0528735799967261]",100.0,"[0.0681454027300204,0.07324275476141323]",4.0,"[-0.1243505927030178,-0.03611071192407153]",100.0,"[-0.18946146448780593,0.06038805384007313]",100.0,"[0.02,0.02]",102.232,0.0,6.0,6.0,161.0,1.0,,,,,,,
,,,,,,,65fe94ba6224418236d68fa8,6842bc981af5ccb9609ec855,2025-06-06_05h02.13.194,shape_ratio,2024.1.5,MacIntel,61.34969325,6842b561977af9ba9b0f87ca,,,,,,,,,,,102.2325,102.7329,,,102.9822,103.483,left,0.489,,,,,,,,,0.55,,,,,,102.733,102.9822,103.483,"[0.11639127776424223,0.05055158874313379]",4.0,"[-0.19030062456550265,0.00039418416985543316]",4.0,"[-0.06156149576072606,0.15100492496948809]",100.0,"[-0.05259399063611866,-0.014775314630589452]",4.0,"[-0.1311199708129435,-0.1283501837694848]",4.0,"[0.024691307575770594,-0.19154318807587908]",100.0,"[0.11084375084248434,-0.1529175605766827]",100.0,"[-0.006724846042764083,-0.12663900233135222]",100.0,"[0.013364746969307896,0.11146888712429692]",100.0,"[0.000804661416638082,-0.05145426613730023]",4.0,"[-0.03420853466057318,-0.07445456455670833]",4.0,"[-0.036200747805593944,0.1847590762877436]",100.0,"[0.05496996980711474,0.082015777419115]",4.0,"[-0.11786258401020888,0.016745264678008825]",4.0,"[-0.0929593957204249,-0.10740186188835403]",100.0,"[0.024313557894008672,0.17598384397334987]",100.0,"[-0.034861455705569436,0.10459865014681055]",100.0,"[0.19416867280131425,-0.03353158684067641]",4.0,"[0.11576061994255646,0.10833931173614716]",100.0,"[0.1327744007980619,0.007873251656435673]",4.0,"[0.06568111525963814,-0.12244437260337011]",4.0,"[0.06777071953935968,-0.036710099976499]",100.0,"[-0.1569532763205022,0.06568251837042843]",100.0,"[0.16532208419349878,-0.06988180163682046]",4.0,"[0.1630886501457079,0.0757598250074992]",4.0,"[0.19327204287082606,0.04469693104899982]",100.0,"[-0.16195847538963576,-0.037176092513877775]",100.0,"[0.0916992185144493,0.1494341932885034]",100.0,"[0.030305660344622835,-0.012785129878116065]",100.0,"[-0.12281822253002574,0.09608087584458151]",100.0,"[-0.16493660780441133,-0.10532302394988655]",4.0,"[0.022980398161612854,0.03686091955277812]",100.0,"[0.02,0.02]",104.5819,0.0,7.0,7.0,82.0,1.0,,,,,,,
,,,,,,,65fe94ba6224418236d68fa8,6842bc981af5ccb9609ec855,2025-06-06_05h02.13.194,shape_ratio,2024.1.5,MacIntel,61.34969325,6842b561977af9ba9b0f87ca,,,,,,,,,,,104.5823,105.0829,,,105.3334,106.1831,right,0.8333,,,,,,,,,0.45,,,,,,105.0829,105.3333,106.1831,"[0.11922607946675882,-0.10281323226024272]",100.0,"[0.09611258508027225,0.15197321482763584]",100.0,"[0.0890483938881888,0.0526713371837653]",4.0,"[0.162647469567472,-0.013055525262082687]",4.0,"[-0.14873632532743014,0.047833145763245835]",100.0,"[-0.06666806103393881,-0.13002281245857977]",4.0,"[-0.008072520899755834,0.16320058959194764]",4.0,"[-0.10216247379470342,-0.0894327118534854]",4.0,"[-0.07330445046001945,0.06088498290333417]",4.0,"[-0.01179725079581159,-0.11898595298300663]",4.0,"[-0.1447740627726302,0.12224561927239973]",100.0,"[0.02157766971266591,0.07360768549795633]",100.0,"[0.11876999342553195,-0.15438293349401158]",100.0,"[0.16365469646864558,0.10108261800525824]",100.0,"[0.1685255063701274,-0.06861475737939043]",4.0,"[-0.05651675479336334,0.10340683624582236]",4.0,"[0.05471255528371403,-0.18523908447380863]",4.0,"[-0.18051492613297393,0.014693980061774845]",100.0,"[0.06943119341679424,-0.025686513850531858]",100.0,"[-0.027860067769407148,-0.1849685817417685]",100.0,"[-0.0385029724184405,-0.07825641969667511]",100.0,"[0.06289011849840613,0.02111124715173908]",4.0,"[-0.14046232237461354,-0.07006660943377307]",100.0,"[-0.024157120402323068,0.009428108159589912]",4.0,"[0.09795321294426713,-0.056011354178017114]",100.0,"[-0.14768890026165576,-0.03061861095666184]",4.0,"[-0.1871219823739039,0.07022465425581043]",4.0,"[-0.09479956112943398,-0.03722524817491834]",100.0,"[-0.12034059932421205,0.07850433119894779]",4.0,"[0.1852520418913366,0.033453638986377945]",4.0,"[0.011605944928399453,-0.1958720240935954]",4.0,"[0.06782579808470304,-0.1121100410352713]",4.0,"[0.02,0.02]",107.2829,0.0,8.0,8.0,143.0,1.0,,,,,,,
,,,,,,,65fe94ba6224418236d68fa8,6842bc981af5ccb9609ec855,2025-06-06_05h02.13.194,shape_ratio,2024.1.5,MacIntel,61.34969325,6842b561977af9ba9b0f87ca,,,,,,,,,,,107.2834,107.7819,,,108.0332,108.7487,left,0.6998,,,,,,,,,0.55,,,,,,107.782,108.0331,108.7487,"[0.13109340362116934,0.037590127983671624]",4.0,"[-0.04226656268441057,0.07057125502535246]",100.0,"[-0.17664456925851538,-0.020310700251840737]",4.0,"[0.03559587729986782,-0.11229169392991838]",4.0,"[-0.038246721793506584,-0.01436738293782334]",4.0,"[-0.04299649741641617,-0.07601849008419868]",4.0,"[0.09767172136558983,0.13614600667654528]",100.0,"[-0.026434676970228846,0.12389995269740603]",4.0,"[0.015885427928094654,-0.18216913329658685]",100.0,"[-0.18216108615304036,0.030283809792324277]",100.0,"[0.020280479117531176,0.06674586183383677]",100.0,"[-0.11767566588155522,0.07788050796771406]",100.0,"[0.11437196615611236,-0.08747717309237682]",100.0,"[-0.11949926008082662,-0.11872153526034104]",100.0,"[-0.10030079566731323,0.1228867153119679]",100.0,"[0.06045331186295599,-0.005701463549765756]",100.0,"[0.02527498795982938,0.17095464560291443]",4.0,"[-0.09066258405423282,-0.0028939823227724826]",100.0,"[0.08155682252124276,-0.16276970299812643]",4.0,"[0.15196956521367863,0.12595263538441684]",100.0,"[0.02297154853498161,-0.06584754395786879]",100.0,"[0.18879239746270374,0.014923517260900826]",4.0,"[-0.12831939929309485,-0.06632325906461252]",100.0,"[-0.021782943735276453,0.03146538280639292]",100.0,"[0.12495014868054351,-0.14816772704607592]",4.0,"[-0.16666252732582415,0.08055099678877717]",4.0,"[-0.05237515901006613,-0.14411428238252405]",100.0,"[0.07934075339848835,0.07518179295393379]",4.0,"[-0.03548694607756191,0.1831110607462237]",100.0,"[0.029061468643375925,0.12431579411274582]",4.0,"[-0.0778900701121131,0.04522011112944227]",100.0,"[-0.14576417772632247,0.12069291915295666]",4.0,"[0.02,0.02]",109.8486,0.0,9.0,9.0,88.0,1.0,,,,,,,
,,,,,,,65fe94ba6224418236d68fa8,6842bc981af5ccb9609ec855,2025-06-06_05h02.13.194,shape_ratio,2024.1.5,MacIntel,61.34969325,6842b561977af9ba9b0f87ca,,,,,,,,,,,109.8491,110.3485,,,110.6,111.8153,left,1.1993,,,,,,,,,0.1,,,,,,110.3485,110.6,111.8154,"[0.08041593822461236,-0.0866864468772906]",4.0,"[-0.1419045899885226,0.10301655006228785]",4.0,"[-0.12515886978252627,-0.12119557158499449]",4.0,"[-0.10898650558113973,-0.017514080543725396]",100.0,"[-0.10973823727100133,0.13874162257103934]",4.0,"[-0.05907317479658715,-0.028181822822962863]",4.0,"[0.12785017624932532,0.04104956012876099]",4.0,"[0.02533982798000735,-0.132357411830014]",4.0,"[0.036124603049690826,0.06842920183779466]",4.0,"[0.0024874165829400314,-0.004547826308673231]",100.0,"[0.14078628297100165,-0.13081935728479532]",4.0,"[0.1473622367089521,-0.001008019351576354]",4.0,"[-0.0358020651562851,-0.17128149309618346]",4.0,"[-0.0527072018715327,-0.12176410598712065]",4.0,"[0.08773212359771553,-0.03702154912270497]",4.0,"[-0.1071248627028075,0.05431694809513784]",4.0,"[-0.19457842187831279,-0.02200143983028393]",4.0,"[0.0387500071587078,0.15230080557284933]",4.0,"[-0.18895803104067507,0.05227188109605375]",4.0,"[-0.018298699467625964,0.176524256085725]",4.0,"[0.18736540328449058,0.04043062492974329]",4.0,"[0.08372057945183027,0.17201933559587324]",4.0,"[0.1517176678840421,0.0886436181808132]",4.0,"[0.03860900695539712,-0.07696470926883059]",4.0,"[-0.12011421219732558,-0.05852406636520757]",4.0,"[-0.06738052578088248,0.012861025544336996]",4.0,"[0.08936476044819527,-0.1428773654364169]",4.0,"[-0.0013966857607630842,0.09392935468728472]",4.0,"[0.07685792380346863,0.005752790938033533]",4.0,"[-0.07271055267880987,-0.07494227816465644]",4.0,"[-0.028756715642317007,0.12357322813089931]",4.0,"[0.17409131454918017,-0.08748915001904341]",100.0,"[0.02,0.02]",112.9162,0.0,10.0,10.0,206.0,1.0,,,,,,,
,,,,,,,65fe94ba6224418236d68fa8,6842bc981af5ccb9609ec855,2025-06-06_05h02.13.194,shape_ratio,2024.1.5,MacIntel,61.34969325,6842b561977af9ba9b0f87ca,,,,,,,,,,,112.9167,113.4153,,,113.6665,114.682,right,0.9992,,,,,,,,,0.4,,,,,,113.4153,113.6665,114.6821,"[-0.12052094232753988,-0.08893674868999321]",4.0,"[0.0018939541292570395,-0.045952368571918305]",100.0,"[0.14275378963588864,0.009608305958986176]",4.0,"[0.026249447323510366,0.14833232598087026]",4.0,"[0.07885769217053591,-0.15023689047833902]",100.0,"[0.17441861425721097,0.06954470915202124]",4.0,"[-0.10630296639764368,0.032819447397082126]",100.0,"[0.08311441345326989,0.17585186036007444]",100.0,"[0.10666468491849329,0.08366765489049471]",4.0,"[0.11387081318315632,-0.12179070926978086]",100.0,"[-0.012961480657279402,-0.18427771323371794]",4.0,"[0.042028373205173164,-0.11084224508924531]",4.0,"[0.0544177672973777,0.10630658968298007]",4.0,"[0.12199205546639724,-0.04586460777396616]",100.0,"[0.005554684199892989,0.01511779773238057]",4.0,"[-0.07861104650169613,-0.13960353340190584]",4.0,"[-0.05932093775205827,0.13758475101502204]",4.0,"[-0.1558593758189876,-0.11248684163727149]",100.0,"[-0.11327306702949021,0.11699157571428866]",100.0,"[0.004274177602605768,0.08768581212698878]",100.0,"[-0.16802331959794076,-0.040332147581107786]",100.0,"[0.08788870469139651,-0.02397613121195273]",4.0,"[0.00877313816351301,0.19207170036425628]",4.0,"[-0.06921311370339774,0.09197635032425247]",100.0,"[-0.04339578030039639,-0.08432767851584304]",4.0,"[-0.13774597997013063,0.00773845639026211]",4.0,"[0.045661447523581554,-0.05401976904239661]",100.0,"[-0.053049625396457044,-0.1793895956384398]",4.0,"[0.05279186513650947,0.047109450548129775]",100.0,"[-0.17944052799536608,0.025017885657214328]",4.0,"[0.0039621896443425494,-0.13919607064099657]",4.0,"[-0.03271347370410646,-0.009250321672980389]",4.0,"[0.02,0.02]",115.7819,0.0,11.0,11.0,166.0,1.0,,,,,,,
,,,,,,,65fe94ba6224418236d68fa8,6842bc981af5ccb9609ec855,2025-06-06_05h02.13.194,shape_ratio,2024.1.5,MacIntel,61.34969325,6842b561977af9ba9b0f87ca,,,,,,,,,,,115.7823,116.2819,,,116.533,117.2988,right,0.7531,,,,,,,,,0.6,,,,,,116.282,116.533,117.2989,"[-0.036006831543000474,0.00449976662217625]",100.0,"[-0.11235147356532489,-0.005703018330738792]",4.0,"[-0.16528508918073292,-0.030954404070625323]",4.0,"[-0.09281156386795415,0.1477563599945019]",100.0,"[-0.03867000665067458,0.05807837477395457]",100.0,"[-0.16925493848420342,-0.10061395622547804]",4.0,"[0.1760719529186508,0.034048358324653555]",100.0,"[0.10130576974007838,-0.04494002231265959]",100.0,"[-0.11263673703086158,-0.07277722998432208]",100.0,"[0.16781206003113183,0.09768013869183795]",4.0,"[-0.1283804866449955,0.03636283718820737]",100.0,"[0.09037262645155163,0.1452395894460659]",4.0,"[-0.01312957295363881,-0.15289724297097074]",4.0,"[0.04768488481221419,0.149717640013083]",100.0,"[0.023817466799702623,-0.046628316584580186]",100.0,"[0.16447628213300328,-0.10197914109676534]",4.0,"[0.09084420214929627,-0.12179709937050495]",4.0,"[0.07761503238374896,0.08441809397453555]",100.0,"[-0.1858806608636331,0.005353843008514008]",4.0,"[-0.009180032270050313,-0.09398726886257236]",4.0,"[-0.004283586054443241,0.14152415606686777]",100.0,"[-0.02915047108655523,0.18691958120490457]",100.0,"[-0.1046381554615152,0.10598678178736463]",4.0,"[-0.010952739206571051,0.09087091999134028]",100.0,"[-0.05288211413726567,-0.19170611725616837]",100.0,"[0.0635691735026625,-0.07007475058984984]",100.0,"[-0.07477887736281763,-0.10085216877269675]",4.0,"[-0.15682858845550354,0.09716113571214674]",100.0,"[0.030025760535793682,-0.1430296052811053]",4.0,"[-0.05509161512533443,0.12227121923879165]",100.0,"[0.1978343030293978,-0.0035070810556530226]",100.0,"[0.12082271995383617,-0.15596262776275077]",100.0,"[0.02,0.02]",118.3995,0.0,12.0,12.0,55.0,1.0,,,,,,,
,,,,,,,65fe94ba6224418236d68fa8,6842bc981af5ccb9609ec855,2025-06-06_05h02.13.194,shape_ratio,2024.1.5,MacIntel,61.34969325,6842b561977af9ba9b0f87ca,,,,,,,,,,,118.4,118.8994,,,119.15,119.6653,left,0.5016,,,,,,,,,0.45,,,,,,118.8995,119.15,119.6654,"[0.06427352963229772,0.020147642900010223]",4.0,"[-0.08687026157548353,-0.07216491567737662]",4.0,"[-0.030157993115362634,0.08643985036503612]",4.0,"[-0.059061621597480796,0.028405555024345493]",4.0,"[0.019723757994898776,-0.19798820204336592]",4.0,"[0.07026981697009135,0.16461427416076585]",4.0,"[-0.1807876048593519,0.08510273970520546]",100.0,"[0.15576833354058,0.03186707847283585]",100.0,"[-0.013209737370782224,-0.056614227604768044]",4.0,"[0.18494493952850588,-0.028308758002836814]",4.0,"[-0.04505324560192105,-0.15153548281134005]",100.0,"[-0.03401668190874311,0.15914472191913343]",100.0,"[-0.12793627754916026,0.08816569009235105]",4.0,"[0.06566321076015436,0.11010584570046016]",100.0,"[0.001686962310905828,-0.12602343889181736]",4.0,"[-0.17699402362309505,-0.050471703259393076]",4.0,"[0.09342993307034136,-0.1338336178155776]",4.0,"[0.017092023346065032,0.17834675855086762]",4.0,"[-0.13155039871631355,-0.14881426510034454]",100.0,"[-0.05610748857536639,-0.02794302584198416]",4.0,"[0.13212604904153438,-0.014168143034071252]",100.0,"[-0.12840393465349356,0.029989548250982136]",4.0,"[0.1345980444807643,-0.12863885757229493]",100.0,"[-0.10137571343504616,0.14001399194124614]",100.0,"[0.1019638576074087,0.056260201904506396]",4.0,"[0.0813031522707786,-0.06752151806749138]",100.0,"[0.18179026433452314,-0.07618343123426174]",100.0,"[0.006026588945184929,0.13685372387256736]",4.0,"[-0.14741677198191816,-0.013290293635067936]",4.0,"[0.05943090100686622,-0.18494291423115128]",100.0,"[-0.1346326139122403,-0.07217532240792725]",100.0,"[0.04105990589210331,-0.029998640074633057]",100.0,"[0.02,0.02]",120.7651,0.0,13.0,13.0,135.0,1.0,,,,,,,
,,,,,,,65fe94ba6224418236d68fa8,6842bc981af5ccb9609ec855,2025-06-06_05h02.13.194,shape_ratio,2024.1.5,MacIntel,61.34969325,6842b561977af9ba9b0f87ca,,,,,,,,,,,120.7655,121.2652,,,121.5156,122.282,left,0.7514,,,,,,,,,0.1,,,,,,121.2652,121.5156,122.2821,"[-0.06553779820254918,-0.032927831146067]",4.0,"[-0.11897374027331002,0.15409914656047985]",4.0,"[-0.10265227481889419,0.084649582278217]",4.0,"[-0.11247819308401914,-0.06470923584819191]",4.0,"[-0.18627738237458769,-0.020042883577274004]",100.0,"[0.06998301307311182,-0.04227554195160885]",4.0,"[0.13438382325961692,-0.05004232276629236]",4.0,"[0.0442848484255356,-0.1368780193277228]",100.0,"[0.15526166792184895,0.001976548496640751]",4.0,"[0.016789812301894053,0.10896640395847754]",4.0,"[-0.024641473576505455,0.18666533885240483]",4.0,"[0.0904766223520706,0.05829580318608913]",100.0,"[0.1915441205352498,-0.051920400648506386]",4.0,"[0.07596053164788441,-0.1718073307238503]",4.0,"[0.02369312074857713,0.17142866962652337]",4.0,"[-0.0002865328929304485,-0.05805040884530002]",4.0,"[-0.06147380170920325,-0.10792613158000988]",4.0,"[0.05743124745041173,0.09951507746231432]",4.0,"[0.12853497875406833,-0.13842661128587902]",4.0,"[-0.050955214643324184,0.04089634384662562]",4.0,"[0.09692944244178839,0.1137292084231507]",4.0,"[0.023909615666454012,-0.009689370325377302]",4.0,"[-0.047513978986622046,0.1479773257469373]",4.0,"[-0.11806823437686861,-0.13547531244505095]",4.0,"[-0.007845068881185004,-0.11856316356078374]",4.0,"[0.03367361369644834,0.031456216408994236]",4.0,"[-0.08392844833306004,-0.1588189708589645]",4.0,"[0.1326017869206232,-0.09563630656658495]",4.0,"[0.06664853932882095,0.16851704395189768]",4.0,"[-0.17442353155228982,0.07690163977746899]",4.0,"[0.13745584622462453,0.041424759383722684]",4.0,"[-0.13817150258999258,-0.009781844109566609]",4.0,"[0.02,0.02]",123.3828,0.0,14.0,14.0,185.0,1.0,,,,,,,
,,,,,,,65fe94ba6224418236d68fa8,6842bc981af5ccb9609ec855,2025-06-06_05h02.13.194,shape_ratio,2024.1.5,MacIntel,61.34969325,6842b561977af9ba9b0f87ca,,,,,,,,,,,123.3833,123.8828,,,124.1333,125.132,left,0.982,,,,,,,,,0.6,,,,,,123.8829,124.1332,125.1322,"[0.0011920501256241576,0.010322421126382372]",100.0,"[-0.10331267849743217,-0.0650998619267986]",100.0,"[-0.025904302940210643,0.16630851757374424]",4.0,"[0.13161696899617067,-0.04428673576466853]",4.0,"[-0.07351430667469094,-0.1859184759616935]",100.0,"[-0.17036503124158833,-0.030607705352116963]",4.0,"[0.15788555761884168,0.010453225306778871]",4.0,"[0.10829028360886021,0.0743987662248724]",4.0,"[0.17508438990022826,0.05767645200997204]",4.0,"[0.11024339113967176,0.008523786384533516]",4.0,"[-0.06980176794032762,0.03720123831538651]",4.0,"[-0.1179320853998575,0.10507311074244799]",100.0,"[0.05667585075269335,-0.1409724088598471]",100.0,"[0.11600376876372122,0.16273342290296736]",4.0,"[0.17613126490795633,-0.04552153889976808]",4.0,"[-0.14182538011121326,-0.0827136349064176]",100.0,"[0.020734790071517274,0.1183544544269765]",100.0,"[0.0033128404118144467,0.07154423980544602]",100.0,"[-0.15967725264636737,0.10337446105864403]",4.0,"[0.07207936289058074,0.14676730166141352]",100.0,"[-0.1340125815654345,-0.005587210899502782]",100.0,"[-0.09106466362451869,-0.01489553964117655]",100.0,"[0.05913041674508994,0.10587333217428947]",100.0,"[0.11580545060025209,-0.10750585885482378]",100.0,"[0.03441743148684071,-0.06213944887047207]",100.0,"[-0.025102173611110494,-0.1717979563741113]",4.0,"[-0.07305144223180321,-0.09608594696498014]",100.0,"[0.023874710650083886,-0.11579645052422825]",100.0,"[0.11465022920715752,0.11587406263260375]",100.0,"[0.020727682605342163,0.18188765331126958]",100.0,"[0.16538334349248807,0.1014413380813653]",100.0,"[0.15165235531429339,-0.0818573642280476]",4.0,"[0.02,0.02]",126.2327,0.0,15.0,15.0,56.0,1.0,,,,,,,
,,,,,,,65fe94ba6224418236d68fa8,6842bc981af5ccb9609ec855,2025-06-06_05h02.13.194,shape_ratio,2024.1.5,MacIntel,61.34969325,6842b561977af9ba9b0f87ca,,,,,,,,,,,126.2333,126.7328,,,126.9822,127.7495,right,0.751,,,,,,,,,0.55,,,,,,126.7329,126.9821,127.7495,"[-0.128315963119465,0.06483039831566775]",100.0,"[-0.007259367176908956,0.058047269777830986]",4.0,"[-0.09219743584382614,0.1481518113259355]",100.0,"[-0.12436482682349186,0.12322303387791557]",100.0,"[0.10065783298100833,-0.13681377215708415]",100.0,"[0.09683265020340669,-0.07337713786012072]",100.0,"[-0.009898073119972066,-0.0985051563680103]",4.0,"[-0.05852227780085692,-0.17118761514619102]",4.0,"[-0.03848133195818399,-0.03208683885652988]",4.0,"[0.1226963986764631,0.10218443065171773]",4.0,"[0.19081991345331062,-0.016370892580909784]",4.0,"[0.14543679930057318,0.01573865014928211]",4.0,"[0.008476495808149643,-0.18916904405624477]",4.0,"[-0.16668639105571428,-0.08031535407590921]",100.0,"[0.1300757742076908,-0.02464155587614682]",100.0,"[0.03065203904053528,-0.07267978392932652]",100.0,"[0.14871933911820462,-0.07213064795059075]",100.0,"[-0.09344282189410712,-0.10564249335836497]",4.0,"[0.13861173562958687,0.05563300358694079]",4.0,"[-0.13914262824297532,0.003556194808963011]",100.0,"[0.19128398719894374,0.056308813113650394]",100.0,"[0.08097075567240496,0.022018746885041778]",4.0,"[0.14064580503506166,-0.12005299444944884]",100.0,"[0.08029340667214889,0.1441516764753973]",100.0,"[-0.020180101612358524,0.12470844987808723]",100.0,"[-0.01402380315115485,0.16716361251831102]",100.0,"[0.05077562230463906,-0.16371796476108402]",4.0,"[-0.0489681964337022,0.0642510316858767]",4.0,"[0.07852088720090253,0.09336274589340611]",4.0,"[0.009923273561758289,-0.029520785256605085]",100.0,"[-0.19064301512505483,-0.03367510475801104]",100.0,"[0.11972175708382113,0.15294487733231474]",100.0,"[0.02,0.02]",128.8493,0.0,16.0,16.0,84.0,1.0,,,,,,,
,,,,,,,65fe94ba6224418236d68fa8,6842bc981af5ccb9609ec855,2025-06-06_05h02.13.194,shape_ratio,2024.1.5,MacIntel,61.34969325,6842b561977af9ba9b0f87ca,,,,,,,,,,,128.8498,129.3488,,,129.5987,130.4661,right,0.8619,,,,,,,,,0.5,,,,,,129.3488,129.5987,130.4661,"[-0.1141909860365305,0.061319009049903964]",4.0,"[-0.15623634061767236,0.10766673621237131]",100.0,"[-0.1763437118538433,0.027519988571391193]",100.0,"[-0.07054145190666133,-0.09540498968641868]",100.0,"[-0.10752334852070447,0.11134851626678247]",4.0,"[0.11225635870468614,-0.0074361820043030435]",100.0,"[0.0463523015840162,0.11204641494623196]",4.0,"[0.1504359755489504,-0.029081393329367246]",4.0,"[-0.14150179227532372,-0.03207568365546187]",4.0,"[0.024293300029637963,-0.16104771366967027]",4.0,"[0.012140929835410496,-0.02481492219680383]",4.0,"[-0.059850101585584174,0.059820287034004306]",4.0,"[-0.09441434276776745,-0.1591215176371824]",100.0,"[0.07178083338543306,-0.00759126856131585]",4.0,"[-0.1342964058575578,-0.14362413510119273]",100.0,"[0.02694777335065604,-0.06965170939553048]",100.0,"[-0.09254154939861396,-0.018976469869944522]",4.0,"[0.01365015049996727,0.1408028886151292]",4.0,"[-0.043457379218232575,-0.14879316281995447]",100.0,"[-0.00984330693355929,-0.08811074524070533]",4.0,"[0.056750379696749356,0.1561940707982211]",100.0,"[0.0660147937045778,0.03227761819574334]",4.0,"[-0.043363690788536406,-0.018959741337159424]",100.0,"[0.13736303246176068,0.07639234200509816]",100.0,"[-0.17775158839679406,-0.0789271976309465]",100.0,"[-0.10468801198295169,0.16699782872952462]",4.0,"[0.016404642576204234,0.04597482064242874]",100.0,"[0.18533360277203134,0.0006838060362486148]",4.0,"[-0.014000141428434075,0.08700812413596141]",100.0,"[0.08884829647011776,-0.06658452722671583]",100.0,"[0.13231778647765202,-0.11299380246834068]",4.0,"[0.01823592586495272,0.18204597514091966]",100.0,"[0.02,0.02]",131.5661,0.0,17.0,17.0,107.0,1.0,,,,,,,
,,,,,,,65fe94ba6224418236d68fa8,6842bc981af5ccb9609ec855,2025-06-06_05h02.13.194,shape_ratio,2024.1.5,MacIntel,61.34969325,6842b561977af9ba9b0f87ca,,,,,,,,,,,131.5666,132.0652,,,132.3163,132.7829,left,0.4523,,,,,,,,,0.1,,,,,,132.0652,132.3161,132.7829,"[-0.05781026030865949,0.03593838649607999]",100.0,"[-0.147825741805837,0.11095086183700066]",100.0,"[0.16867636398115904,0.09501461451554527]",4.0,"[-0.030060243503163272,0.10188952616079021]",4.0,"[-0.1709086305465807,-0.09070876000477535]",4.0,"[0.0945833753682865,-0.05371226537932826]",4.0,"[-0.09621364598247648,-0.10917824126201554]",4.0,"[0.03472565131350661,0.1806285667262629]",100.0,"[0.006525323732684689,0.06641545287919613]",4.0,"[-0.00866277170176572,-0.03889357886789117]",4.0,"[-0.01773258393168246,0.011106644080974127]",4.0,"[-0.13649741453388492,0.03411743424848601]",4.0,"[0.05705696057514944,-0.09199926555495092]",4.0,"[0.13980060762964747,0.12628658141547833]",4.0,"[0.027079856210466005,-0.17721048408126813]",4.0,"[0.10621805345278953,0.026142319563094533]",4.0,"[-0.034400268859287465,-0.08167058240910345]",4.0,"[-0.05961125645960259,-0.16727913902526195]",4.0,"[-0.17800263733849997,-0.005027601606888594]",4.0,"[0.09818573605913408,-0.17172567852314943]",4.0,"[-0.08101819237319313,0.10469453877320238]",4.0,"[0.16462295081628125,-0.10513936316014999]",4.0,"[-0.016237037217352243,-0.19643742249285387]",4.0,"[-0.10097814293465353,-0.15363887765265866]",4.0,"[-0.08027676083099393,-0.0008328087846655483]",4.0,"[-0.040638829466387076,0.17399671574054984]",4.0,"[-0.11417270780012673,0.07221367922799722]",4.0,"[0.18289493393011094,-0.018226029580184884]",4.0,"[0.019681999949568547,-0.11894879415101567]",4.0,"[-0.08874703112838443,0.17295694863772879]",4.0,"[0.15196507516222266,0.05666823819541579]",4.0,"[-0.11058044111392647,-0.06993013260064336]",4.0,"[0.02,0.02]",133.8827,0.0,18.0,18.0,203.0,1.0,,,,,,,
,,,,,,,65fe94ba6224418236d68fa8,6842bc981af5ccb9609ec855,2025-06-06_05h02.13.194,shape_ratio,2024.1.5,MacIntel,61.34969325,6842b561977af9ba9b0f87ca,,,,,,,,,,,133.8832,134.3828,,,134.633,135.1995,left,0.55,,,,,,,,,0.6,,,,,,134.3828,134.6329,135.1996,"[-0.028941292778959897,-0.09385617889643258]",4.0,"[0.14452652585592016,-0.04179108462129658]",4.0,"[0.1300516891444437,0.09209162848412177]",4.0,"[0.08819402080099607,0.05524993756860989]",100.0,"[-0.05291103536641229,-0.12831169426720132]",100.0,"[-0.1948339655431465,-0.007459744738688851]",100.0,"[0.015356076334826765,-0.052602040000518095]",100.0,"[0.08772100866504134,-0.11382070471252093]",4.0,"[-0.116718162975679,0.07138185477808784]",4.0,"[-0.06952533174988361,-0.07847750473292203]",100.0,"[0.0660363608684496,-0.173699834958009]",4.0,"[-0.04783709692684904,0.12242506607402949]",100.0,"[-0.0802091810953971,0.09201338761598749]",100.0,"[-0.1202236926134869,0.017879495905204497]",4.0,"[0.12924445390390604,-0.12144565183208827]",4.0,"[0.00004553662291654273,-0.12927061111369784]",100.0,"[-0.03365389906470079,-0.17518697160300506]",100.0,"[-0.09956901835804839,-0.17028187144677703]",100.0,"[0.02578154299894752,-0.003862100370291707]",4.0,"[0.013912395219073524,0.11879459215986676]",100.0,"[0.029396520472803105,-0.09438868953452371]",100.0,"[0.11297114507023423,-0.0010059011445347392]",4.0,"[-0.05393490179508533,0.18846535008072335]",4.0,"[-0.022673248920005364,0.033384165044699855]",100.0,"[-0.1582246701540258,-0.06870007728940289]",4.0,"[0.10294905779518625,0.14211649985961455]",100.0,"[0.033616724139109225,0.16421448529132007]",4.0,"[-0.08893416396334049,0.1345710380623943]",100.0,"[-0.015738347913574063,-0.023052815180402766]",100.0,"[0.067910332956496,-0.02318029252124831]",100.0,"[-0.06960180091859225,-0.012123001053441386]",100.0,"[0.1376514948952431,0.035008890722181135]",100.0,"[0.02,0.02]",136.2993,0.0,19.0,19.0,35.0,1.0,,,,,,,
,,,,,,,65fe94ba6224418236d68fa8,6842bc981af5ccb9609ec855,2025-06-06_05h02.13.194,shape_ratio,2024.1.5,MacIntel,61.34969325,6842b561977af9ba9b0f87ca,,,,,,,,,,,136.2998,136.7995,,,137.0497,137.4663,right,0.4001,,,,,,,,,0.9,,,,,,136.7996,137.0497,137.4663,"[0.06991038953739688,0.050738692453345224]",4.0,"[0.09727454495127985,0.1440232548876922]",100.0,"[0.05039976957810364,0.16102365241414413]",100.0,"[-0.042130473424942985,-0.14025078785048875]",100.0,"[-0.08950481039012842,-0.032446661315201464]",100.0,"[-0.13949140692715042,-0.09229491043046721]",100.0,"[0.11321980048895756,0.05834195399279958]",100.0,"[0.1459821927866622,0.012088522299717262]",100.0,"[0.15544213698995935,0.08302072340913255]",100.0,"[0.13847503782191092,0.13813131684284444]",100.0,"[-0.011717174051389896,0.024838321036403703]",100.0,"[-0.037730842288009735,0.07090733077136371]",100.0,"[0.04460029122490912,0.08527559711360364]",100.0,"[-0.14231566609573706,0.0028308680530671347]",100.0,"[-0.08949313897120854,-0.1551144430813422]",4.0,"[-0.04866518911267108,-0.10044823601851413]",100.0,"[0.10453716812030782,-0.04183264621066926]",4.0,"[0.026011775610730186,-0.03690345271802681]",100.0,"[-0.1195188776187396,0.10387427533930929]",100.0,"[-0.16782483651516647,-0.04032009972049652]",100.0,"[-0.06694708859030284,0.15758352724825167]",100.0,"[-0.0016058859578849869,0.14160025915476823]",100.0,"[0.18427709780574397,-0.03911120711991965]",100.0,"[0.05815101658593839,-0.09146258257597346]",100.0,"[-0.03651037411981203,-0.026983159470695055]",100.0,"[-0.06894167786453746,0.10780269798774579]",100.0,"[0.019177684583822577,-0.17162392691491463]",100.0,"[0.10310449796173923,-0.10049204508469446]",100.0,"[-0.10435395185912055,0.03792450266160762]",100.0,"[0.1549554132647575,-0.08572199533754019]",100.0,"[-0.0018757454836404995,-0.07746064240867065]",100.0,"[0.08615899807905744,-0.0016683376655071917]",100.0,"[0.02,0.02]",138.566,0.0,20.0,20.0,27.0,1.0,,,,,,,
,,,,,,,65fe94ba6224418236d68fa8,6842bc981af5ccb9609ec855,2025-06-06_05h02.13.194,shape_ratio,2024.1.5,MacIntel,61.34969325,6842b561977af9ba9b0f87ca,,,,,,,,,,,138.5665,139.0651,,,139.3154,139.9819,right,0.6509,,,,,,,,,0.5,,,,,,139.0651,139.3153,139.982,"[0.002454045808676103,0.182903901372995]",4.0,"[0.06400539498086737,0.057114902498067124]",100.0,"[-0.07348639879368665,0.09304154671868195]",100.0,"[-0.16547968500732838,-0.10466252051982432]",100.0,"[0.0032142537164013417,0.07815693349286082]",4.0,"[0.03706521945784217,-0.13476764632181587]",4.0,"[0.15319902494539933,0.12038631102790912]",4.0,"[-0.12364984776049263,0.13892453282248818]",4.0,"[0.12827072871431086,-0.13233847766491236]",100.0,"[0.1508392169850056,-0.09542847472088165]",4.0,"[0.08220614321945696,-0.1663081435806733]",4.0,"[-0.1239855640019538,0.09456977435932841]",4.0,"[-0.1838428279025808,0.07616939628582359]",100.0,"[-0.023745576631885045,-0.06539411884928674]",4.0,"[-0.034956243906393396,-0.1313829899261261]",100.0,"[0.0729449868385479,0.12340056576747357]",100.0,"[0.006515937918705863,-0.01009802200722683]",4.0,"[-0.06638076635613956,-0.1875943877366448]",100.0,"[0.1183309617649867,-0.04481716819221138]",4.0,"[0.16459487828752467,-0.04147622609970997]",100.0,"[-0.17649539654641216,0.033967845344393906]",4.0,"[0.19058347814054774,-0.008933086885345788]",4.0,"[-0.08156760757373177,-0.020063953550725166]",4.0,"[0.14616375445126145,0.042478227784726874]",100.0,"[-0.00746654902671214,-0.1823623092782823]",100.0,"[-0.1106399352379041,-0.11190142431536845]",4.0,"[0.02570364783101646,0.13006486243891754]",100.0,"[-0.1358236629317,-0.011262288793042008]",4.0,"[-0.12342945354898936,-0.15465210231257415]",100.0,"[-0.02909078953594361,0.01186991859097775]",100.0,"[0.0733485822924984,-0.03505813757649435]",100.0,"[0.07513987516224406,-0.10825509611742189]",100.0,"[0.02,0.02]",141.0826,0.0,21.0,21.0,105.0,1.0,,,,,,,
,,,,,,,65fe94ba6224418236d68fa8,6842bc981af5ccb9609ec855,2025-06-06_05h02.13.194,shape_ratio,2024.1.5,MacIntel,61.34969325,6842b561977af9ba9b0f87ca,,,,,,,,,,,141.0831,141.5827,,,141.8332,142.533,left,0.6832,,,,,,,,,0.4,,,,,,141.5827,141.8332,142.5331,"[0.15099610310705455,-0.10905675615672467]",100.0,"[0.01462462450520261,-0.10859273221579874]",100.0,"[0.01392524199862039,0.04843721602648095]",4.0,"[-0.051260219279653345,-0.10521935659265115]",4.0,"[0.054396750927657826,0.03811054746509888]",4.0,"[0.046669458664456626,-0.15572721268056794]",100.0,"[-0.0819621179918954,-0.16092744484931146]",4.0,"[0.018556438526890075,-0.0665881641506649]",4.0,"[-0.07061125158654263,-0.03598467575272798]",100.0,"[0.12517009569551732,-0.03647862012753976]",100.0,"[-0.01494257472910616,0.10371347883183293]",4.0,"[-0.1891952156073486,-0.0417360866404625]",100.0,"[0.09948933329164983,-0.07846512707585114]",100.0,"[-0.02571160240223826,0.1781562217038455]",4.0,"[-0.05914652140234397,0.09812045140337677]",4.0,"[-0.11011649628349272,0.061351594152640125]",4.0,"[-0.16780926431982254,0.010895424674781877]",100.0,"[0.05098471633267284,0.11074596011653935]",4.0,"[-0.10063226831503695,0.14419663106167485]",4.0,"[-0.043076765394128844,-0.1786989428587802]",100.0,"[-0.004357947390768128,-0.006927485797213347]",100.0,"[0.1651300761742187,0.11049195889233479]",4.0,"[0.11999054878839191,-0.1564557804392444]",100.0,"[-0.10753733215106571,0.018335670209627713]",4.0,"[-0.04105047903600879,0.010236775939922216]",100.0,"[0.01819188239461982,0.15118653403688873]",4.0,"[0.1431207585383569,0.0669468162968485]",4.0,"[0.027901078370981998,0.19467927605122914]",4.0,"[0.18209650285415913,-0.06679004860425976]",100.0,"[0.07897828857351133,0.13957258390478636]",4.0,"[-0.13479717107755368,-0.12246140503364195]",4.0,"[0.08806517857549924,0.061408932140375724]",4.0,"[0.02,0.02]",143.6326,0.0,22.0,22.0,168.0,1.0,,,,,,,
,,,,,,,65fe94ba6224418236d68fa8,6842bc981af5ccb9609ec855,2025-06-06_05h02.13.194,shape_ratio,2024.1.5,MacIntel,61.34969325,6842b561977af9ba9b0f87ca,,,,,,,,,,,143.633,144.1318,,,144.3829,144.9327,left,0.5333,,,,,,,,,0.6,,,,,,144.1319,144.3829,144.9329,"[0.10108157632121374,0.108715897740008]",100.0,"[-0.1526771984275764,0.10702716398537947]",100.0,"[0.06381242595968428,-0.18950541409170454]",4.0,"[-0.09240287512895481,-0.002751362294485286]",100.0,"[0.022897703883302048,0.07404034102439384]",100.0,"[-0.01768242097206606,-0.16375596952576718]",4.0,"[-0.05340238979905234,0.10241754589019542]",100.0,"[-0.11259822121069057,0.09644672994547857]",100.0,"[0.028543861058934694,-0.1183601129932512]",100.0,"[0.15739965743396903,-0.018085607157325843]",4.0,"[-0.0024204558284931445,-0.03729092398649134]",4.0,"[0.1511130504368373,-0.12958549056231386]",100.0,"[-0.16483753939067933,-0.05982946834707246]",100.0,"[0.14238977585797258,0.133921668219119]",4.0,"[0.08368036906499712,-0.10476541106898193]",4.0,"[-0.15561706775003095,0.0327339957485981]",4.0,"[-0.08773185004304243,0.050620951553704656]",4.0,"[-0.09087295899104056,0.1373785608412972]",4.0,"[0.05393637521278054,-0.07690449087989332]",100.0,"[-0.11678962961675625,-0.15495634496366903]",100.0,"[-0.11338277567823707,-0.05660828058947428]",4.0,"[-0.0021712578137869543,0.02217389753127514]",4.0,"[0.1815945766102779,0.06520006748183231]",4.0,"[-0.05257524472897349,-0.014960921332135163]",100.0,"[0.13972408978418868,0.052684013396826684]",4.0,"[0.07008194549379994,0.018925646877679444]",100.0,"[0.061145384710172675,0.13416121859566243]",100.0,"[0.039401212131813704,0.1710657763470201]",100.0,"[-0.037082745730593954,0.16234804074846704]",100.0,"[-0.08138468761229162,-0.0827143849976189]",100.0,"[0.06161379048116905,-0.0225582561330503]",100.0,"[0.09421204463110193,0.05923522035998765]",100.0,"[0.02,0.02]",146.0326,0.0,23.0,23.0,47.0,1.0,,,,,,,
,,,,,,,65fe94ba6224418236d68fa8,6842bc981af5ccb9609ec855,2025-06-06_05h02.13.194,shape_ratio,2024.1.5,MacIntel,61.34969325,6842b561977af9ba9b0f87ca,,,,,,,,,,,146.0331,146.5326,,,146.782,147.6827,left,0.885,,,,,,,,,0.5,,,,,,146.5327,146.782,147.6828,"[0.10518009935187032,-0.10722348737606263]",100.0,"[-0.11796189205453979,-0.06271407886879807]",100.0,"[0.15518057077064643,-0.004794489174035362]",100.0,"[-0.07619167687488436,-0.08811734179861833]",4.0,"[-0.14144342695511325,0.11226250645740254]",4.0,"[-0.10199101832074428,-0.1468946040782988]",100.0,"[0.13357654705080513,0.13989525203334355]",100.0,"[-0.02334542522292013,-0.11773300222512534]",4.0,"[0.034365342621940784,0.18127160386440092]",4.0,"[-0.044240543498496654,-0.010023439521131586]",4.0,"[-0.09331599214332531,0.12006208390608802]",4.0,"[0.10661364275960293,-0.049145606920268176]",4.0,"[-0.013829649401326414,-0.06389066356394343]",4.0,"[-0.15529049320573396,-0.024975581943246245]",100.0,"[0.06907502134899425,-0.0814126337874661]",100.0,"[-0.010861314254198971,-0.17851072407085913]",100.0,"[0.10592236690282417,0.011829214025108815]",100.0,"[0.0939239737885903,0.1746140322802469]",4.0,"[-0.17830253397083357,-0.07896438662025305]",100.0,"[0.01951257600421309,-0.002006869327017731]",100.0,"[-0.05651250839028774,0.18247284279826317]",4.0,"[-0.019253611369523176,0.033422979803258354]",4.0,"[0.06231549225098121,-0.15070112137170882]",4.0,"[-0.07992030707750848,0.022069852770640153]",100.0,"[-0.12366950572699852,0.060748315488358386]",4.0,"[0.10368733736468569,-0.16892150556264654]",4.0,"[-0.18512947305550542,0.006266501470965849]",100.0,"[0.03720959674808106,-0.10779321447256242]",100.0,"[0.10911350809822862,0.0688207299704979]",100.0,"[0.17136834638142315,-0.049675649566347645]",4.0,"[0.016742090671375807,0.1303034794254804]",100.0,"[0.0494362007721757,0.06563137151485625]",4.0,"[0.02,0.02]",148.7826,0.0,24.0,24.0,115.0,1.0,,,,,,,
,,,,,,,65fe94ba6224418236d68fa8,6842bc981af5ccb9609ec855,2025-06-06_05h02.13.194,shape_ratio,2024.1.5,MacIntel,61.34969325,6842b561977af9ba9b0f87ca,,,,,,,,,,,148.7832,149.2824,,,149.533,150.0152,right,0.4702,,,,,,,,,0.9,,,,,,149.2824,149.5329,150.0152,"[0.17836574060164248,-0.02677125538557116]",100.0,"[-0.1094017315276518,-0.00239101553510396]",100.0,"[-0.12199632556290259,0.05598274870777717]",100.0,"[0.09039535404213497,0.1535413387048339]",100.0,"[0.16018693645480492,0.035480799034299]",100.0,"[-0.044498456317190384,0.11290321711969109]",100.0,"[0.10425648521180271,0.11007789430190326]",100.0,"[-0.011553845585110868,0.05599822312364346]",100.0,"[-0.15392938277749108,0.11330221694405855]",100.0,"[-0.013794639953870112,-0.04491207449459152]",100.0,"[0.007913298426186224,0.005272674696625019]",100.0,"[0.03927001822209652,0.10544759502439223]",100.0,"[0.032270228527511255,-0.03732959253929738]",100.0,"[0.04962925867826121,0.012018850776683384]",4.0,"[-0.16813479485126395,-0.07487725437015226]",100.0,"[-0.06235972338731773,-0.058567733769534766]",100.0,"[-0.09969083236099878,-0.11448390382882861]",100.0,"[0.08185647724559018,-0.034167669813376836]",4.0,"[0.14443604788208236,0.11685479979862125]",100.0,"[-0.054606489507035214,0.04514436811125036]",100.0,"[0.0692633811450732,-0.1252504834430396]",4.0,"[0.045397008766749854,0.05703220461512759]",100.0,"[-0.032462796285373484,0.1646542930233557]",100.0,"[0.09942187526434662,-0.09485119384609493]",100.0,"[-0.07982123233347692,0.16454241827793692]",100.0,"[0.10065280577330771,-0.15572342193236913]",100.0,"[0.1762935815557734,0.0901945642153874]",100.0,"[0.048806743785018515,-0.16225839754647312]",100.0,"[0.14484098978833623,-0.07117067511513506]",100.0,"[-0.13539132604459334,-0.05179571289238586]",100.0,"[0.10328665267025691,0.049468442520769366]",100.0,"[0.003942354003845109,0.12959811705418806]",100.0,"[0.02,0.02]",151.115,0.0,25.0,25.0,25.0,1.0,,,,,,,
,,,,,,,65fe94ba6224418236d68fa8,6842bc981af5ccb9609ec855,2025-06-06_05h02.13.194,shape_ratio,2024.1.5,MacIntel,61.34969325,6842b561977af9ba9b0f87ca,,,,,,,,,,,151.1154,151.616,,,151.8663,152.3661,right,0.4829,,,,,,,,,0.4,,,,,,151.616,151.8662,152.3661,"[0.16553286447353607,-0.08191833351854325]",100.0,"[0.10255510917475445,0.16600379925567493]",4.0,"[0.05982717012899796,-0.15953955751217144]",100.0,"[-0.004644932631490817,0.02014002082773271]",100.0,"[0.16358634811927936,-0.008393801271104988]",4.0,"[-0.11971338528506621,-0.10857602259260056]",100.0,"[0.17649209211022276,0.08004128259564601]",100.0,"[-0.05891179465571713,0.08663940029051592]",4.0,"[0.09252919667411949,0.09610510846918191]",4.0,"[-0.19497284151131541,-0.03161705269194991]",100.0,"[-0.005491865985746245,-0.16878696150063055]",4.0,"[0.05438298163991584,-0.0019659952451935516]",4.0,"[0.04474292120217976,-0.09698083587424719]",4.0,"[0.020524833968538984,-0.06481156244901477]",4.0,"[-0.03352414009667821,-0.059868483081387154]",100.0,"[0.06548545472154957,0.14239819752444582]",4.0,"[-0.1628553465364468,0.003591078379413648]",100.0,"[0.03668192680904951,-0.1925109387399772]",4.0,"[-0.09963604116400104,0.1664728370692838]",4.0,"[0.11412244696995713,-0.04940494679154088]",4.0,"[0.12835028616312807,0.06283315156705067]",100.0,"[-0.00015799155841145015,0.17318981392235544]",4.0,"[0.011195079895531507,0.05849423288625491]",100.0,"[0.15082627093112036,0.12948820157162982]",4.0,"[-0.10032485448147246,-0.16808359606286782]",4.0,"[-0.1632449441502727,0.08402616244330456]",4.0,"[-0.11526236163270517,0.1179944659022601]",100.0,"[0.004736317904447379,0.1288073728792992]",4.0,"[-0.15633131513058784,-0.05889849120876014]",4.0,"[-0.12757002724225797,0.04071113689774875]",4.0,"[0.10262855157479193,-0.09999983710671219]",100.0,"[-0.08982594283788739,0.019707829129793346]",100.0,"[0.02,0.02]",153.4647,0.0,26.0,26.0,157.0,1.0,,,,,,,
,,,,,,,65fe94ba6224418236d68fa8,6842bc981af5ccb9609ec855,2025-06-06_05h02.13.194,shape_ratio,2024.1.5,MacIntel,61.34969325,6842b561977af9ba9b0f87ca,,,,,,,,,,,153.465,153.966,,,154.2164,154.8163,left,0.5831,,,,,,,,,0.1,,,,,,153.966,154.2163,154.8163,"[0.10595399478809907,0.13017492775968584]",100.0,"[-0.12158023946671713,0.12167411384137289]",4.0,"[-0.028666484862910055,0.1816609180528546]",4.0,"[0.09384898536209123,0.06437285940044697]",4.0,"[0.13626508010256888,0.05261514669509678]",4.0,"[-0.015469551899842207,-0.09220980449390555]",4.0,"[0.10104890224838627,-0.06854098163741365]",4.0,"[0.05516434767008667,0.03482271890479957]",4.0,"[0.17670609567693557,-0.04337237563416056]",4.0,"[0.07784775481547102,-0.17189718519035413]",4.0,"[-0.029340915905604077,0.034538136268582875]",100.0,"[0.09669035673549746,-0.013623230537462548]",4.0,"[-0.11632531684202815,0.0366942451826179]",4.0,"[-0.07361721595361265,-0.011975259281736646]",4.0,"[0.03743657768584932,-0.10185723914469184]",4.0,"[-0.01481464079506717,0.0918387005453219]",4.0,"[-0.13352088879415666,-0.1301239615631078]",4.0,"[0.13191800625820932,-0.10251302834815232]",4.0,"[-0.10748363257900191,-0.0417618735065061]",4.0,"[0.01690934701341997,-0.15664715817237293]",4.0,"[0.053589250579374414,0.13761209832005925]",100.0,"[-0.15849137775272878,0.012509652809812567]",4.0,"[-0.04319055261865025,-0.04062361150829871]",4.0,"[0.013365983000397333,-0.060294927188944664]",4.0,"[-0.15558334962068449,-0.03714581232659092]",4.0,"[0.16473558748414482,0.11143324421991789]",4.0,"[0.01845996955860284,0.057774761319210874]",4.0,"[-0.06587406819522632,0.12275465034467692]",4.0,"[0.1676767804721331,0.013157219803753362]",4.0,"[0.029917529169497616,-0.009275880391433412]",4.0,"[-0.08011375160931274,0.07879416360867844]",4.0,"[-0.08690384335574892,-0.14654871067715766]",4.0,"[0.02,0.02]",155.9158,0.0,27.0,27.0,188.0,1.0,,,,,,,
,,,,,,,65fe94ba6224418236d68fa8,6842bc981af5ccb9609ec855,2025-06-06_05h02.13.194,shape_ratio,2024.1.5,MacIntel,61.34969325,6842b561977af9ba9b0f87ca,,,,,,,,,,,155.9162,156.415,,,156.6663,157.4322,right,0.7601,,,,,,,,,0.45,,,,,,156.415,156.6663,157.4323,"[-0.016156720229340067,-0.12391543179785106]",4.0,"[-0.008282824769956827,-0.012096628482090043]",4.0,"[-0.12895967788751125,0.08637583739502665]",100.0,"[-0.09685173431542654,-0.14199294151043798]",100.0,"[0.05722811213669482,-0.0010308652084313216]",4.0,"[0.10752390561198609,0.12800281961474264]",4.0,"[-0.02150222642118298,0.1676454098632863]",100.0,"[-0.12498729212113038,-0.012207776334509372]",4.0,"[0.11107858377035836,0.03943988048387704]",100.0,"[-0.09313381248133411,-0.09159803144521704]",100.0,"[-0.04895384029476956,0.07115657785428829]",100.0,"[0.1551482675802822,0.07408865298835692]",4.0,"[0.08850795998776936,-0.08816626902616165]",100.0,"[-0.06415795822086082,-0.1798550216433874]",100.0,"[0.12621739645284671,-0.12161444526949022]",4.0,"[0.11378138710079287,-0.0037838298743990756]",4.0,"[0.04994864998193954,0.19262262621308468]",4.0,"[-0.19351111871852722,0.02465233973335437]",4.0,"[-0.03387973309318096,0.11072546143921794]",100.0,"[-0.1310275128828447,0.13868282170097024]",100.0,"[0.08786076964345918,-0.046846047932676195]",100.0,"[0.03608210707926208,0.058269984470002374]",4.0,"[0.1778879949520602,-0.0015062520321137455]",100.0,"[0.153681986208589,-0.05866909778851651]",4.0,"[-0.14520889346984925,0.04628922696530814]",4.0,"[0.040776471014848874,0.10053856527607284]",4.0,"[-0.05209586268692278,-0.06212336963707277]",4.0,"[-0.18856708206966374,-0.06525708276013543]",4.0,"[-0.08449203674994687,0.11514653511526549]",4.0,"[0.16290114288217847,-0.10511778453930361]",4.0,"[-0.07700143587242554,-0.030296756747198342]",100.0,"[-0.05583388406864238,0.012855848260780935]",100.0,"[0.02,0.02]",158.5327,0.0,28.0,28.0,138.0,1.0,,,,,,,
,,,,,,,65fe94ba6224418236d68fa8,6842bc981af5ccb9609ec855,2025-06-06_05h02.13.194,shape_ratio,2024.1.5,MacIntel,61.34969325,6842b561977af9ba9b0f87ca,,,,,,,,,,,158.5331,159.0318,,,159.2829,159.766,left,0.4662,,,,,,,,,0.1,,,,,,159.0318,159.2828,159.766,"[-0.030562465531945138,0.011418964959873984]",4.0,"[-0.12042245291988765,-0.1279385328608836]",4.0,"[-0.06798832085974943,-0.07935242220612895]",4.0,"[0.10258212424013453,-0.018152015714310226]",4.0,"[0.09733614503309633,-0.10387821238710825]",4.0,"[0.0849176506185882,0.046241576868274015]",4.0,"[-0.05242453055280214,0.14691010455643252]",4.0,"[-0.09897804820049472,-0.02147664267905595]",4.0,"[0.03191594879995029,-0.1036888148635652]",4.0,"[0.10691689986085194,-0.15368677103751205]",4.0,"[0.019562458518765754,-0.1801228174674336]",100.0,"[-0.1546203092323579,0.0416646376692026]",4.0,"[-0.1597877337105012,0.10214382993156344]",4.0,"[0.18596160347006177,-0.001992626284705319]",4.0,"[0.0035660409031109206,0.04996127853659967]",4.0,"[-0.0007155843127131092,0.09472730984424967]",4.0,"[0.10148819483988446,0.16418171813120477]",4.0,"[-0.03165912512232158,-0.17952000905641574]",4.0,"[-0.11304044798125422,0.09179599536667393]",4.0,"[0.050515907360313264,-0.0482261958411237]",4.0,"[0.13569556383837045,0.08579681161517322]",4.0,"[0.0666994912626417,-0.1631438606546381]",4.0,"[-0.18574799919217122,-0.07103722818133532]",4.0,"[0.043319128637411844,0.062202196845765]",4.0,"[-0.008393792865615597,-0.02303457036223623]",4.0,"[0.16481501489345435,-0.1062330745709672]",4.0,"[-0.14671866322372537,-0.05913223205171121]",4.0,"[-0.09047405677777666,0.05701574621349876]",4.0,"[0.03163447993349632,-0.0070847869931071885]",100.0,"[0.15325560400438934,-0.06430061714048749]",4.0,"[0.032592081571576316,0.16319556150479375]",100.0,"[0.0597286721045236,0.13293762931040623]",4.0,"[0.02,0.02]",160.8659,0.0,29.0,29.0,198.0,1.0,,,,,,,
,,,,,,,65fe94ba6224418236d68fa8,6842bc981af5ccb9609ec855,2025-06-06_05h02.13.194,shape_ratio,2024.1.5,MacIntel,61.34969325,6842b561977af9ba9b0f87ca,,,,,,,,,,,160.8664,161.3651,,,161.6161,162.0995,left,0.4664,,,,,,,,,0.5,,,,,,161.3651,161.6161,162.0995,"[-0.05185524962088445,-0.05535526015782227]",4.0,"[-0.07476915615766432,0.04529377794395167]",4.0,"[-0.135842725739779,0.055741902284679436]",100.0,"[0.15201275767843123,-0.07906459815053944]",4.0,"[-0.11904124859277916,0.13416068246405227]",100.0,"[0.03650387097490081,-0.05688891032143991]",100.0,"[0.14049114444001992,0.052027765414051456]",4.0,"[0.10572727084107855,-0.011252448918347572]",4.0,"[-0.017442584438865382,0.15326901310719207]",100.0,"[-0.14018889457590447,-0.05087070422254515]",100.0,"[0.06201065514866151,-0.1835882385949169]",4.0,"[-0.05808042146766832,0.16753239667033912]",4.0,"[0.04804994952649918,0.035220509922663415]",100.0,"[0.07778291892162631,-0.14432521932166797]",100.0,"[-0.16509921058494284,0.08770940536861428]",100.0,"[-0.16819373277422664,-0.01976665929566324]",100.0,"[-0.08540030002132386,0.0009369959541845451]",4.0,"[0.09483386344005967,0.14717557019935446]",100.0,"[0.016054545132455158,-0.09517551814124811]",4.0,"[-0.042494932679231254,-0.15239370625817608]",100.0,"[-0.06339263056174602,0.10927106250514008]",4.0,"[0.05686867615009896,0.12212806624431967]",4.0,"[-0.14121421191327543,-0.13298455453543329]",100.0,"[-0.03186063452159341,-0.00909376811804917]",4.0,"[0.02739651112804137,-0.1508966090368165]",4.0,"[0.025390797427618458,-0.005362208597263656]",100.0,"[0.006485080372038288,0.18864585114376595]",4.0,"[-0.13116806259803426,0.007962504425222785]",100.0,"[-0.17196104266451162,-0.08771434468102055]",4.0,"[-0.05251636482534338,-0.09551585949975924]",4.0,"[0.09865862988458261,-0.10557207912332595]",100.0,"[-0.006234256429461235,0.06372235368768951]",100.0,"[0.02,0.02]",163.1993,0.0,30.0,30.0,98.0,1.0,,,,,,,
,,,,,,,65fe94ba6224418236d68fa8,6842bc981af5ccb9609ec855,2025-06-06_05h02.13.194,shape_ratio,2024.1.5,MacIntel,61.34969325,6842b561977af9ba9b0f87ca,,,,,,,,,,,163.1997,163.6992,,,163.9497,164.4818,right,0.5157,,,,,,,,,0.45,,,,,,163.6993,163.9496,164.4819,"[-0.0940667025617629,-0.16049362536884118]",4.0,"[-0.140058894675912,-0.09075749184861959]",4.0,"[-0.06971374194144381,-0.01064971266660476]",100.0,"[0.07333999560155596,0.07438083797951188]",100.0,"[0.12373991209503024,0.03182050352614258]",4.0,"[0.19655689823649614,-0.006979427167214561]",4.0,"[0.017468124730574842,0.09009321552801235]",4.0,"[0.11632346902449432,-0.07096340281526645]",4.0,"[-0.11039277179922453,-0.017355509634175016]",100.0,"[-0.16876710445669774,0.08689238299304983]",4.0,"[-0.0891064340207424,0.05087394838647245]",4.0,"[-0.048474002471200345,0.1906060506244713]",100.0,"[0.10234343035944442,0.11126152811247687]",100.0,"[0.05327710106223631,0.033216935744720656]",4.0,"[-0.0987952398167,0.1585502035524437]",4.0,"[-0.005122206985710504,0.1343376760594098]",100.0,"[0.023610477527192614,-0.1031103132651007]",100.0,"[-0.029494623190885607,0.04954790869774632]",4.0,"[-0.1584824645748014,0.0030749153038974997]",4.0,"[0.15477538981832245,-0.049830201183929716]",4.0,"[0.10621335824803563,-0.1564850280633361]",4.0,"[-0.04344715839996245,0.10837846896096515]",100.0,"[0.04829194393972414,0.18255785362814056]",100.0,"[-0.14848756827168477,0.12172001119265007]",4.0,"[0.08335396448047615,-0.03500564029206491]",4.0,"[-0.0503453793862217,-0.12245321313801485]",100.0,"[0.01000777783373425,0.034504890707106425]",4.0,"[0.1535141180650972,0.05945771740221646]",4.0,"[-0.17099776780360393,-0.0543270925373759]",100.0,"[0.08058231774013325,-0.09584825670506832]",100.0,"[-0.029115677047733168,-0.04787399375694187]",100.0,"[-0.11340973231722869,0.08347014208495153]",100.0,"[0.02,0.02]",165.5826,0.0,31.0,31.0,128.0,1.0,,,,,,,
,,,,,,,65fe94ba6224418236d68fa8,6842bc981af5ccb9609ec855,2025-06-06_05h02.13.194,shape_ratio,2024.1.5,MacIntel,61.34969325,6842b561977af9ba9b0f87ca,,,,,,,,,,,165.5831,166.0816,,,166.3318,166.7993,right,0.455,,,,,,,,,0.6,,,,,,166.0817,166.3318,166.7994,"[-0.09748489343622614,0.1312784627492843]",4.0,"[0.04595180122268974,0.025524545869842357]",100.0,"[0.15705220489358862,0.03724125806169913]",100.0,"[-0.17411562617247822,0.02027157927043345]",100.0,"[0.08936510895655611,0.1489958657509912]",100.0,"[-0.04848580792455329,-0.12103718268948772]",4.0,"[-0.13873408587689182,-0.03319994089001401]",4.0,"[0.1707010549469732,0.07970590174779411]",100.0,"[0.11438165042405754,0.0784319460958834]",4.0,"[-0.05911418125354987,-0.1805314220689775]",100.0,"[-0.05237339158403809,0.004315599717291858]",100.0,"[-0.042593240482244214,0.16124145370702705]",4.0,"[0.014638164390619003,-0.07655013516060788]",100.0,"[-0.16289637995628187,-0.07525784333821078]",100.0,"[-0.09691693318091499,-0.12979774082436846]",100.0,"[0.1281838535283915,-0.026742845873706664]",4.0,"[0.10835130191497798,-0.10906887394523195]",100.0,"[0.18520032217276133,-0.06909929524623601]",4.0,"[-0.07771883554043629,-0.05329297615630356]",100.0,"[-0.04331548462948096,0.0676379203640514]",100.0,"[-0.1368517305824285,0.045455792077830515]",4.0,"[0.11871039697232405,0.017479125922564284]",100.0,"[0.08513936694016828,0.1089558464837571]",4.0,"[0.08069605280486626,-0.05421108773616684]",100.0,"[0.0659232961056771,-0.15867853173920224]",100.0,"[0.049358941881132566,-0.10023630157732703]",4.0,"[0.18776586177540655,-0.025106868900134954]",4.0,"[-0.0017766433079532023,0.11496267246810064]",4.0,"[0.00033560023396653655,0.001021587269303106]",4.0,"[-0.0009036135977336231,-0.19769335467880386]",100.0,"[0.04280022341422406,0.12955408388136325]",100.0,"[-0.003132753475691891,-0.11517633745977321]",100.0,"[0.02,0.02]",167.8984,0.0,32.0,32.0,46.0,1.0,,,,,,,
,,,,,,,65fe94ba6224418236d68fa8,6842bc981af5ccb9609ec855,2025-06-06_05h02.13.194,shape_ratio,2024.1.5,MacIntel,61.34969325,6842b561977af9ba9b0f87ca,,,,,,,,,,,167.8988,168.3992,,,168.6498,169.1659,left,0.5022,,,,,,,,,0.4,,,,,,168.3993,168.6496,169.166,"[-0.02528665486880536,0.03767503373199939]",100.0,"[-0.027343477325045443,-0.09761681843654164]",4.0,"[0.06619479009775799,0.019517853357533886]",4.0,"[0.1440970494984215,-0.10804462371202257]",4.0,"[-0.17107473788384192,-0.019979698146600715]",100.0,"[-0.18303788756940506,0.03845884752435297]",4.0,"[-0.04180559497858403,-0.050024828268857305]",4.0,"[0.046678923021863654,-0.1653449369599973]",4.0,"[0.046123197760101486,0.13678718725823777]",100.0,"[0.1887477392738422,0.0544218201903938]",4.0,"[-0.050067595744073365,0.126463090724096]",4.0,"[0.00369470238293745,0.14916208088320426]",100.0,"[0.011617380417940387,-0.0637470858863579]",100.0,"[-0.03158320346931762,0.1917248807137066]",100.0,"[-0.13364140253609663,0.11605427198386989]",4.0,"[0.010167928863426795,0.019022284454203467]",4.0,"[0.061465067515023404,-0.10789502623379252]",100.0,"[0.015979651723945443,0.09648882753233806]",100.0,"[0.02340460575465324,-0.12568311120125994]",100.0,"[0.12239858802018752,-0.149616242403578]",4.0,"[-0.08776894828383376,-0.13657150616881172]",100.0,"[0.12568880011023267,-0.021073546104296344]",4.0,"[-0.1357014322141129,-0.08557592334599765]",100.0,"[-0.031380782269283446,-0.18076667956548462]",4.0,"[0.07489804938275887,0.10251730530248668]",100.0,"[0.08945357241536196,-0.06030481652893287]",4.0,"[-0.08758978485611964,0.0006494620974490794]",4.0,"[-0.1054647622848292,-0.054337237531458284]",4.0,"[0.09337089498008068,0.14664567790854544]",4.0,"[0.18723616771767979,-0.0644181025822553]",100.0,"[-0.09183138409867275,0.14842945541749433]",4.0,"[-0.10555084072751839,0.07494212771589616]",4.0,"[0.02,0.02]",170.2659,0.0,33.0,33.0,173.0,1.0,,,,,,,
,,,,,,,65fe94ba6224418236d68fa8,6842bc981af5ccb9609ec855,2025-06-06_05h02.13.194,shape_ratio,2024.1.5,MacIntel,61.34969325,6842b561977af9ba9b0f87ca,,,,,,,,,,,170.2663,170.7656,,,171.0162,171.5827,right,0.5513,,,,,,,,,0.6,,,,,,170.7656,171.0161,171.5827,"[-0.18690083924168266,-0.02647063609653747]",4.0,"[0.07026594848017421,0.11349464013235314]",4.0,"[0.07809824961849156,-0.07822684675324072]",100.0,"[0.12462850080775524,-0.07699337319698779]",4.0,"[0.056417198849923016,0.1903989487416102]",100.0,"[-0.1090739182594757,0.11857744236132087]",100.0,"[-0.0023030433630991825,0.011773277994766958]",4.0,"[0.08851908763211257,-0.17894559101864693]",4.0,"[-0.10285658206243327,-0.04307533827510789]",100.0,"[-0.042564917167001504,0.15025145029444664]",4.0,"[0.016460263795930137,-0.13119666380091316]",100.0,"[-0.05902982138497738,-0.13267556684609078]",100.0,"[-0.02963046349593394,-0.08881833495196759]",100.0,"[0.08913458857799068,0.057950973223885725]",100.0,"[-0.08547017339427462,0.0023071878950060363]",100.0,"[0.11283598431351848,-0.13685118789037848]",100.0,"[0.14524767765825808,0.01519739495419964]",4.0,"[-0.1325975259581044,-0.07969475955985032]",4.0,"[-0.06934260559600967,0.044444067143166996]",4.0,"[0.06752196512575855,-0.009153813588567572]",4.0,"[0.1443144425628664,0.08852110051840796]",4.0,"[-0.11587331773940132,0.05743863655883212]",100.0,"[-0.113491659538862,-0.1150707778869084]",100.0,"[0.19329254140224628,-0.004385194580463634]",100.0,"[0.01287837734626818,-0.07173955777840907]",100.0,"[-0.0021514072357967924,0.16267012447151513]",100.0,"[-0.008325738094011671,-0.17644232193736015]",4.0,"[-0.05781821063938457,0.09502189864967044]",100.0,"[0.11275954148372691,0.16244815595908504]",100.0,"[0.05040919788349839,0.07360629560493685]",4.0,"[0.14970059117589865,-0.11012570994920423]",100.0,"[-0.16937677433714035,0.054257700790027924]",100.0,"[0.02,0.02]",172.6825,0.0,34.0,34.0,54.0,1.0,,,,,,,
,,,,,,,65fe94ba6224418236d68fa8,6842bc981af5ccb9609ec855,2025-06-06_05h02.13.194,shape_ratio,2024.1.5,MacIntel,61.34969325,6842b561977af9ba9b0f87ca,,,,,,,,,,,172.6829,173.1825,,,173.4328,173.9826,right,0.5367,,,,,,,,,0.9,,,,,,173.1825,173.4327,173.9826,"[0.10800582278894166,-0.10047315110549689]",100.0,"[0.14741703497292358,0.05408943863922596]",100.0,"[-0.027177413211204697,0.11166725644343833]",100.0,"[-0.015363109424469279,-0.1601714137367655]",100.0,"[0.10789434894259543,0.1290544446147208]",100.0,"[0.1979319263720375,0.015254404668130368]",100.0,"[-0.17203170381044142,0.049804224673088024]",100.0,"[-0.13330246776309124,0.09810574759719722]",100.0,"[0.17287991280537013,-0.08171235547724466]",100.0,"[0.131070970597973,-0.010722484279968076]",100.0,"[-0.05110193340896624,0.04399588519447215]",100.0,"[-0.15254968893517334,-0.04378203030124344]",4.0,"[0.13888205229565337,0.09541927114028044]",100.0,"[-0.06637287833567579,0.17481717507101366]",100.0,"[0.08628355449798666,0.027230087427660334]",100.0,"[0.01765447330768933,-0.017613557807991127]",100.0,"[0.07965133841045424,-0.13591197285519097]",100.0,"[-0.10291393234512486,-0.12482201397117325]",100.0,"[-0.1201333602462182,0.14575087851638457]",100.0,"[-0.1412490370765202,0.003572697965838074]",100.0,"[0.04348853131887792,-0.15626224782252984]",100.0,"[0.018566025486147428,0.07016378986407072]",100.0,"[-0.09065249463026989,0.10480793363404523]",100.0,"[0.03477943392306875,0.16921881846335723]",4.0,"[0.055090513949840804,0.11872184346524699]",100.0,"[-0.061891919132777806,-0.017028152592010824]",100.0,"[0.04879465322873729,-0.06967672538517627]",100.0,"[-0.04114793667855291,-0.11983519687680975]",100.0,"[-0.04140321508903182,-0.061348132090918585]",100.0,"[0.07032862375407138,-0.02742863710906141]",100.0,"[-0.10162340243630552,0.047250631518933876]",4.0,"[0.18615420291985627,-0.031019848165217866]",100.0,"[0.02,0.02]",175.0815,0.0,35.0,35.0,28.0,1.0,,,,,,,
,,,,,,,65fe94ba6224418236d68fa8,6842bc981af5ccb9609ec855,2025-06-06_05h02.13.194,shape_ratio,2024.1.5,MacIntel,61.34969325,6842b561977af9ba9b0f87ca,,,,,,,,,,,175.0821,175.582,,,175.8319,176.266,right,0.4167,,,,,,,,,0.9,,,,,,175.5821,175.8319,176.2661,"[-0.03956607071495538,-0.05744703934104646]",100.0,"[-0.008277807929523828,0.0596445713628459]",100.0,"[-0.1132756789200804,-0.14595872859716938]",4.0,"[-0.032582053469312214,0.007697476925956535]",100.0,"[-0.004226221459531234,-0.1057522121309139]",100.0,"[0.16631954152191772,0.03320567918884595]",100.0,"[0.11425636601352862,-0.00017569651120804227]",100.0,"[-0.042529872971860117,-0.1460976086014153]",100.0,"[0.1376854717711916,-0.11420494990651164]",100.0,"[-0.019966553269567016,0.1385421030298972]",100.0,"[0.005111064110402427,0.10022105785529455]",100.0,"[-0.14276845040653915,0.10288447154114039]",100.0,"[-0.05733437146725131,0.05753999647030979]",100.0,"[-0.09530587927762325,0.09643335066940986]",100.0,"[-0.16324583502934592,0.0023678020239180277]",100.0,"[0.044365249046167565,-0.09747595147025527]",100.0,"[-0.09547389277697899,0.043268584755948414]",100.0,"[0.0908131834561354,0.13921045125216008]",100.0,"[0.054037283622842804,-0.012892447972488867]",4.0,"[-0.1270588912768139,-0.06160104917810563]",100.0,"[0.1285219944987191,0.05574316859505751]",4.0,"[0.15705596022401574,0.11852351084377613]",100.0,"[0.0924219015945382,-0.09042558346847798]",100.0,"[0.05455908880021797,0.18936204660806116]",100.0,"[-0.1895141620905809,0.05548763542433614]",100.0,"[0.10721094220884451,0.09462068009884649]",100.0,"[0.012497686814328317,-0.1663269470798631]",100.0,"[0.10635943976444885,-0.15537819652963197]",100.0,"[0.05981116069210499,-0.17149419495990145]",100.0,"[0.04979673011557596,0.06190872609655094]",100.0,"[-0.049791225211882326,-0.10435703501969593]",100.0,"[-0.07213778437732617,-0.17664264843642408]",100.0,"[0.02,0.02]",177.3649,0.0,36.0,36.0,11.0,1.0,,,,,,,
,,,,,,,65fe94ba6224418236d68fa8,6842bc981af5ccb9609ec855,2025-06-06_05h02.13.194,shape_ratio,2024.1.5,MacIntel,61.34969325,6842b561977af9ba9b0f87ca,,,,,,,,,,,177.3654,177.8649,,,178.1162,178.6325,right,0.4996,,,,,,,,,0.9,,,,,,177.865,178.1161,178.6326,"[0.07044429677400806,0.12766560449635478]",100.0,"[-0.05531726629577802,-0.057918638344566245]",100.0,"[0.03776890168482903,-0.0277955926752416]",100.0,"[0.008105251253510965,0.09052772832639326]",100.0,"[0.05700293608747123,-0.1000602893187407]",100.0,"[-0.0286644126968609,0.024101648071481352]",100.0,"[0.012970318602388264,0.024620825908531846]",100.0,"[-0.10593773062212027,0.14139772966591532]",100.0,"[0.09603452630901833,-0.0583238435001623]",100.0,"[-0.019707190391793132,-0.1144084781216324]",100.0,"[0.1544349635837491,-0.0015659273328499635]",100.0,"[-0.10992763585373204,0.08915474311204004]",100.0,"[0.16324232115743628,0.10608970256775335]",100.0,"[0.1271656045252131,0.05946399767726349]",4.0,"[-0.006928879837627325,-0.0176209030975306]",100.0,"[-0.07497603066419024,-0.1514356874104684]",100.0,"[-0.05631285449295722,0.15418186423303978]",100.0,"[-0.14449561681185222,0.12490755728356873]",100.0,"[-0.151605821020296,0.05557081989970375]",100.0,"[-0.041463902760576585,0.09069823770909156]",100.0,"[-0.011291147328036268,-0.0631149969439054]",100.0,"[-0.17718973214252542,-0.09103279521523171]",100.0,"[-0.136587601058953,-0.1123470104890048]",4.0,"[0.0991511163385411,-0.00560697367156398]",100.0,"[0.11333537129235437,-0.09689548662062605]",100.0,"[0.04780588601349723,0.07455719502927081]",100.0,"[-0.08329225026596655,-0.004362000062377838]",100.0,"[-0.02683968366200778,-0.16099856415303165]",100.0,"[-0.14600482273103205,-0.0368074667905766]",100.0,"[0.05408742953979605,0.17574720479227515]",4.0,"[0.13912828000713368,0.1436009642663531]",100.0,"[0.015452069567933834,0.13728737092083482]",100.0,"[0.02,0.02]",179.7325,0.0,37.0,37.0,6.0,1.0,,,,,,,
,,,,,,,65fe94ba6224418236d68fa8,6842bc981af5ccb9609ec855,2025-06-06_05h02.13.194,shape_ratio,2024.1.5,MacIntel,61.34969325,6842b561977af9ba9b0f87ca,,,,,,,,,,,179.7329,180.2319,,,180.4827,180.9485,right,0.4549,,,,,,,,,0.6,,,,,,180.2319,180.4827,180.9485,"[-0.17892368115227397,0.0163497498125021]",100.0,"[-0.14207500184340155,0.09101456416190529]",100.0,"[-0.0755070853355838,-0.14120820278410945]",4.0,"[-0.030206414721307057,-0.17758143742969382]",100.0,"[-0.13031704378398637,0.009673154580146358]",100.0,"[-0.002438059759420668,-0.03892391912335314]",100.0,"[0.166065723541747,0.052038708833719666]",4.0,"[0.06808535331041114,-0.0631498118912625]",4.0,"[-0.04483592818420138,0.15088230534848363]",100.0,"[0.1115310201613708,0.14077347397257656]",100.0,"[-0.08191957762162712,0.05494274885159928]",4.0,"[-0.15720048972528172,-0.112802035495772]",4.0,"[0.022105435594582685,-0.14063846134877447]",4.0,"[0.18782351357176824,-0.02252554660255101]",4.0,"[-0.027654099028643252,-0.08290577039772883]",100.0,"[0.0338871827048728,-0.08498420618071932]",4.0,"[-0.10995236495676387,-0.12009494847529646]",100.0,"[-0.06059971033251259,0.008161036401414684]",100.0,"[-0.15262006639016273,-0.038956459206754536]",4.0,"[0.06883008496900969,0.11122472009969106]",4.0,"[0.15559950388319477,-0.10545628077681199]",100.0,"[0.13014007917258344,0.015381383291471347]",100.0,"[0.06391075840742182,-0.01970990232428185]",100.0,"[0.05429416985804168,-0.1738713220449682]",100.0,"[0.06228570779235466,0.020569955842996153]",100.0,"[0.10990657711090958,0.07092884970421612]",4.0,"[-0.18009522043760604,0.07640306841461311]",100.0,"[-0.1458574774353298,0.04653359868000482]",4.0,"[-0.0411650342096238,0.05685348502139329]",100.0,"[-0.0755999301287119,-0.18260238543936566]",100.0,"[-0.08475744225543573,0.11967336279683985]",100.0,"[0.002209563271313468,0.09793685145067986]",4.0,"[0.02,0.02]",182.0492,0.0,38.0,38.0,50.0,1.0,,,,,,,
,,,,,,,65fe94ba6224418236d68fa8,6842bc981af5ccb9609ec855,2025-06-06_05h02.13.194,shape_ratio,2024.1.5,MacIntel,61.34969325,6842b561977af9ba9b0f87ca,,,,,,,,,,,182.0497,182.5482,,,182.7994,183.3827,right,0.5665,,,,,,,,,0.9,,,,,,182.5482,182.7994,183.3828,"[-0.05800494835349497,0.13687486187429562]",100.0,"[-0.07218208501897729,-0.04213069964637201]",100.0,"[0.12422960342460247,0.10534383676300657]",100.0,"[0.021558557792225395,0.015590181074337552]",4.0,"[0.03210778146552796,0.09354734056075903]",100.0,"[0.11530692556664078,-0.12423130145039939]",100.0,"[0.17736797145280356,0.06978469121388405]",100.0,"[-0.03467300598337473,0.05279378947826492]",100.0,"[-0.025925040321329317,-0.021365511576023604]",100.0,"[-0.1395500352569219,0.13060691625592705]",100.0,"[-0.16377317429398497,-0.04467573040903418]",100.0,"[-0.09621676243939953,0.10624415547599428]",100.0,"[0.051338881806595134,-0.02387311381781085]",100.0,"[0.07794093249473638,-0.15587706715316899]",100.0,"[-0.03006432852675069,0.10139522140903769]",100.0,"[0.12456613911436538,0.006822240078433649]",100.0,"[0.1802322210813381,-0.07701072082452601]",100.0,"[0.08199333920791357,-0.0577548352561059]",100.0,"[0.003108446765991942,-0.04996080544228751]",100.0,"[0.06961343230406575,0.16225471860687127]",100.0,"[-0.03262428135286632,-0.11698350758872414]",100.0,"[0.13065514282507046,-0.07668134198765557]",100.0,"[0.04048717620860877,-0.08755008646876439]",100.0,"[-0.08930830843868919,0.036484953388920834]",100.0,"[-0.13765325608139564,0.05867403700163359]",100.0,"[0.08355315212423299,0.045940012487691896]",100.0,"[0.03934477041552283,-0.14329292860391254]",4.0,"[0.15239440163979848,-0.03282970187407538]",100.0,"[-0.0855076242508039,-0.11120912102450134]",100.0,"[-0.12887873316935733,-0.008355545053029287]",100.0,"[-0.17569187012484158,0.0805594795483004]",100.0,"[-0.06632203048393422,-0.183016685695404]",4.0,"[0.02,0.02]",184.4825,0.0,39.0,39.0,13.0,1.0,,,,,,,
,,,,,,,65fe94ba6224418236d68fa8,6842bc981af5ccb9609ec855,2025-06-06_05h02.13.194,shape_ratio,2024.1.5,MacIntel,61.34969325,6842b561977af9ba9b0f87ca,,,,,,,,,,,184.4829,184.9824,,,185.2328,185.8326,left,0.5828,,,,,,,,,0.4,,,,,,184.9826,185.2328,185.8327,"[-0.13640458489250143,-0.05991399369959943]",4.0,"[-0.11771127449739484,-0.018647891058317063]",4.0,"[0.09656643320663184,-0.1626733594906643]",4.0,"[0.1903197613043027,-0.03771221144824664]",100.0,"[0.009789073798727512,0.19382847844915865]",4.0,"[0.07683176830001678,0.029288555435910156]",4.0,"[-0.1278901872705781,0.13071862897800865]",4.0,"[-0.19272908223989466,-0.0003262749385654159]",4.0,"[0.028595470145820326,0.1153615065272084]",100.0,"[-0.07985349052160862,-0.16994307202694905]",100.0,"[0.16077038799580085,0.04419145178273498]",100.0,"[-0.06338851398282772,0.02125086531691089]",100.0,"[-0.13229929551110117,-0.14658386762518227]",4.0,"[0.19147427261425606,0.012778191312633325]",100.0,"[0.13244168066787096,0.12095774282695573]",4.0,"[-0.0323136069865788,-0.1329395268150525]",4.0,"[0.00822542915380425,-0.13819739410157883]",4.0,"[0.08070037278844513,0.1808247081354385]",4.0,"[-0.16180570397233826,-0.10464370333055378]",4.0,"[0.08565469610935007,0.0827481199410951]",4.0,"[-0.017152921221859855,-0.19065386805349085]",100.0,"[-0.023108479734858217,0.08600686036299893]",4.0,"[0.13119376684165146,0.07542005855406692]",100.0,"[-0.07982933830694855,0.058395578877433824]",4.0,"[-0.05079968067608598,0.1529923297329809]",100.0,"[0.09479048298566292,0.1366389426572585]",4.0,"[0.008007195983711737,0.025980971508590807]",4.0,"[0.004725562786222686,-0.01763155244548158]",100.0,"[0.0803931917220154,-0.05927947297424701]",100.0,"[-0.06724994227865,0.09959383737420183]",100.0,"[0.0550270988084687,-0.16735611735045283]",4.0,"[0.11313223280931489,-0.0979958011596343]",100.0,"[0.02,0.02]",186.9324,0.0,40.0,40.0,178.0,1.0,,,,,,,
,,,,,,,65fe94ba6224418236d68fa8,6842bc981af5ccb9609ec855,2025-06-06_05h02.13.194,shape_ratio,2024.1.5,MacIntel,61.34969325,6842b561977af9ba9b0f87ca,,,,,,,,,,,186.9329,187.4325,,,187.6818,188.1483,left,0.4497,,,,,,,,,0.4,,,,,,187.4325,187.6817,188.1483,"[0.08429708841525763,-0.02351310407376851]",100.0,"[-0.1277548478582778,-0.08011962989555042]",100.0,"[0.10184969218151019,-0.1635557518231432]",4.0,"[-0.031685527238862525,0.1151117854034028]",4.0,"[-0.08306539751418246,-0.09262217503664652]",4.0,"[-0.15888047823118887,0.04202546269912271]",100.0,"[0.06181783768667952,-0.1877921946143895]",4.0,"[-0.19401671181010466,-0.03026026018893199]",4.0,"[0.0015566375133737713,-0.01565391835995183]",100.0,"[-0.1039952136719428,-0.04353195110985743]",4.0,"[0.12066458547559054,-0.10221640997960903]",4.0,"[0.03638260653672873,0.10472837852289746]",100.0,"[-0.04982010839287977,-0.1478572450757229]",4.0,"[0.11148922607487495,-0.062384586389051686]",100.0,"[-0.041121841219389894,0.00750736908563001]",100.0,"[-0.10532012807185519,0.12246079068468377]",4.0,"[0.12391110365685543,0.12055403836555954]",4.0,"[-0.0970614613579948,-0.1704715467547509]",4.0,"[0.05971729969100948,0.18222962439922713]",4.0,"[-0.132022175114746,-0.1434806743063655]",100.0,"[0.0015327594718312037,0.18731499766749096]",100.0,"[0.10879300628247587,0.020888465658744013]",100.0,"[0.056359283716382304,-0.0764396100966899]",100.0,"[-0.001539218316203222,0.07741155256374138]",100.0,"[0.15925855190779248,-0.04495430712750591]",4.0,"[0.09031318833170067,0.07327752719029675]",4.0,"[0.18965794255617005,0.01320319195442582]",4.0,"[-0.029095236019993843,-0.04410652045854056]",4.0,"[-0.13482127984956388,0.002039443600030029]",4.0,"[-0.12586659437818018,0.0796111763058291]",100.0,"[0.1330766709584983,0.05530761252218332]",4.0,"[-0.040208291022370106,-0.1027185462587654]",4.0,"[0.02,0.02]",189.2491,0.0,41.0,41.0,159.0,1.0,,,,,,,
,,,,,,,65fe94ba6224418236d68fa8,6842bc981af5ccb9609ec855,2025-06-06_05h02.13.194,shape_ratio,2024.1.5,MacIntel,61.34969325,6842b561977af9ba9b0f87ca,,,,,,,,,,,189.2496,189.7491,,,189.9994,190.4149,right,0.4003,,,,,,,,,0.5,,,,,,189.7492,189.9994,190.4151,"[-0.07152961286704207,-0.11647965032514769]",4.0,"[-0.11313060556330215,-0.11048356563118956]",100.0,"[0.06864214907921226,0.08976572282151786]",4.0,"[0.05685139872932475,-0.02491055489832995]",4.0,"[-0.06169911447601062,-0.18601324288879456]",100.0,"[-0.10493446467105197,0.10881763770231696]",100.0,"[-0.0024572337704185775,0.1170798729541677]",100.0,"[-0.012435756235774151,-0.08266398900701762]",100.0,"[0.10013479306662476,-0.017279555223725655]",4.0,"[0.07392238979936608,-0.14612049889853454]",4.0,"[-0.1678568028309663,0.024317282446530163]",4.0,"[0.01609156383275888,-0.14030635376763392]",4.0,"[0.045980984869090025,-0.19092424050008838]",4.0,"[-0.07172090111199099,0.08445800699985738]",4.0,"[0.1932335136201542,0.036498690854753574]",100.0,"[0.14504675968997893,0.09803527190873333]",100.0,"[0.04456754361652618,0.05144272258975198]",100.0,"[0.1181180747550531,-0.1106096073372104]",4.0,"[-0.025925128767608156,-0.16637693028679523]",4.0,"[-0.09222753724911553,0.012604809456835932]",100.0,"[-0.12272566668499225,0.07207936282509535]",4.0,"[-0.035966602198000366,-0.02795655384243405]",100.0,"[-0.1077593988768593,-0.026042941240227307]",100.0,"[-0.07350549880058974,0.15023974388736003]",100.0,"[-0.011531625639317072,0.05909217428153176]",100.0,"[-0.1533908233213808,-0.09158575342928617]",4.0,"[0.09654798159129882,-0.058891966507105854]",100.0,"[0.16786898760581298,0.004888640816563991]",100.0,"[0.10454157286256807,0.1517882634055913]",100.0,"[-0.1026615638734168,-0.164763028283633]",4.0,"[0.021958325470237978,0.018132265943589597]",4.0,"[0.1850328642062704,-0.05653658810651979]",4.0,"[0.02,0.02]",191.5149,0.0,42.0,42.0,93.0,1.0,,,,,,,
,,,,,,,65fe94ba6224418236d68fa8,6842bc981af5ccb9609ec855,2025-06-06_05h02.13.194,shape_ratio,2024.1.5,MacIntel,61.34969325,6842b561977af9ba9b0f87ca,,,,,,,,,,,191.5152,192.0158,,,192.2661,192.6493,right,0.3658,,,,,,,,,0.9,,,,,,192.0158,192.2661,192.6494,"[-0.1076405591502554,-0.06321936557069244]",100.0,"[-0.04618228684442793,0.013800427032097067]",100.0,"[0.046125912045314556,0.18439788167953622]",100.0,"[0.10207679393651206,0.08202549994712399]",100.0,"[-0.039711223375269,-0.05834952653059011]",100.0,"[-0.12057823131023614,-0.14027874261962198]",100.0,"[-0.04163436956504671,0.0781974950918937]",4.0,"[-0.1295524743395973,0.07183726802662865]",100.0,"[-0.019600239861643234,0.14114610151434015]",100.0,"[-0.10458969354203297,0.15543162880976724]",100.0,"[0.11761543236456821,-0.05660608533377501]",100.0,"[0.020730922566726553,-0.01980539530421056]",100.0,"[0.12582573199370362,0.02712132547210891]",100.0,"[0.012422793021814331,-0.16536762400437424]",100.0,"[-0.04876011665501227,-0.1540923360842192]",100.0,"[-0.015315894393741583,0.19248125707594657]",100.0,"[0.0652185275579372,0.13297274554740446]",100.0,"[-0.11981674724016271,0.008437405118255097]",100.0,"[-0.18716873453801416,0.03141203187593194]",100.0,"[0.054815802972726875,-0.06968486414716929]",100.0,"[0.06349115545988646,-0.13019152809797715]",100.0,"[0.010665628194476019,-0.07670863201175535]",100.0,"[0.13530669991062438,0.12852103625584524]",100.0,"[0.16981488089610697,-0.037190759184140214]",100.0,"[0.05324557034228158,0.05490913660331843]",100.0,"[-0.17800922627353935,-0.014196906908985146]",100.0,"[0.03205832683085397,0.09038706652141523]",100.0,"[0.06091122853740414,0.0034119995057551983]",100.0,"[0.015924519213288788,0.03436719478855165]",100.0,"[-0.02430858303864093,-0.11155769515915098]",100.0,"[0.15807110018632986,0.06883206639556091]",4.0,"[0.18683094408752607,0.008451129575654321]",4.0,"[0.02,0.02]",193.7482,0.0,43.0,43.0,17.0,1.0,,,,,,,
,,,,,,,65fe94ba6224418236d68fa8,6842bc981af5ccb9609ec855,2025-06-06_05h02.13.194,shape_ratio,2024.1.5,MacIntel,61.34969325,6842b561977af9ba9b0f87ca,,,,,,,,,,,193.7487,194.2483,,,194.4995,195.1659,left,0.6499,,,,,,,,,0.5,,,,,,194.2483,194.4995,195.166,"[0.15131941551949407,0.02638455192041373]",100.0,"[-0.014070460173038752,-0.07192741596562037]",4.0,"[-0.11177725445438053,-0.09961373020123823]",100.0,"[0.06671559074526143,0.1508470137084368]",100.0,"[-0.015502611080010997,-0.16523055325212518]",4.0,"[-0.06265695680418934,-0.0455600406520424]",4.0,"[0.10801005608174154,0.06695599106798625]",100.0,"[0.18169731128058988,-0.03257486077250343]",4.0,"[0.05538017603787444,-0.13309978529836083]",100.0,"[-0.07350384651735423,-0.17371225172640292]",100.0,"[0.11364026063646453,-0.014134069276773763]",100.0,"[-0.11383998198956587,-0.04212464878164799]",4.0,"[0.031031029505167274,-0.012313379506909972]",100.0,"[0.13200098813668268,0.1256526236080157]",4.0,"[-0.02184716022565862,0.035464484275311334]",4.0,"[-0.14313035090217208,0.019635256851478645]",4.0,"[-0.050778411370666375,0.18714373143304452]",4.0,"[0.052329828484313,0.07716824584722656]",4.0,"[0.10258815341247335,-0.09133175607138931]",100.0,"[0.05621760019831794,-0.17916885052082107]",4.0,"[-0.0669944261812341,0.0751382082340926]",4.0,"[0.07879972769762499,0.11227214508547802]",4.0,"[-0.006217056323273392,0.09290049734992062]",100.0,"[-0.02001435850769128,-0.012715508900316664]",100.0,"[0.02393169959061877,0.0311654369410461]",100.0,"[0.13563170808995278,-0.13462903674837384]",100.0,"[-0.1609610036590405,0.0578353439199561]",100.0,"[-0.09932451297831243,-0.14081174100448673]",4.0,"[-0.08572240923084361,0.14626365019321336]",100.0,"[-0.11382287156921111,0.07070859978327466]",4.0,"[0.05659961309218328,-0.07650073112898957]",4.0,"[-0.002294142716209384,0.1845764543654608]",100.0,"[0.02,0.02]",196.2659,0.0,44.0,44.0,111.0,1.0,,,,,,,
,,,,,,,65fe94ba6224418236d68fa8,6842bc981af5ccb9609ec855,2025-06-06_05h02.13.194,shape_ratio,2024.1.5,MacIntel,61.34969325,6842b561977af9ba9b0f87ca,,,,,,,,,,,196.2663,196.7648,,,197.0161,197.5493,left,0.5166,,,,,,,,,0.4,,,,,,196.7649,197.016,197.5494,"[-0.03987314912955774,0.08119066089597339]",100.0,"[0.0761977237495064,0.1577936392700233]",100.0,"[0.09598527358450294,-0.062204208963976354]",4.0,"[-0.041618844515810625,-0.15388899938257494]",100.0,"[-0.08220516796457769,0.023573821239600216]",4.0,"[-0.01492454860243782,0.012193753559667588]",100.0,"[-0.0165189074358634,-0.03701632663822612]",100.0,"[-0.1301126740396138,-0.08803536322282474]",100.0,"[0.042831420206987804,-0.012446418449970348]",100.0,"[0.06798982542284225,-0.11073729729056442]",4.0,"[-0.060031519518820554,-0.047501784942082854]",4.0,"[0.08625309484823818,0.09006831529883094]",4.0,"[0.16939759489086742,-0.06920589116910913]",4.0,"[0.0946921917593389,-0.02198051559369667]",4.0,"[0.11954934439197416,-0.10205571300586164]",4.0,"[0.1764934263940538,0.006500723951917741]",100.0,"[-0.18135601630724044,-0.015483392671800739]",100.0,"[0.1445345356013247,0.04106518287159052]",4.0,"[0.007926293861061447,0.04783644149787318]",4.0,"[0.1652638380857254,0.09872458064805437]",100.0,"[0.010923580943232897,-0.14586660652045463]",100.0,"[-0.06939671115619328,-0.08774586439015751]",4.0,"[0.05320842336382183,0.04545099913886179]",4.0,"[-0.09265637064051221,0.12412501287447174]",4.0,"[-0.1660045546156934,0.0442912623670645]",4.0,"[-0.0792396254693721,0.17226338669728267]",4.0,"[-0.11637491461176169,0.0016292679357644496]",4.0,"[-0.14416515833394006,-0.04373865905974613]",4.0,"[-0.16094486954653134,0.11123449144421439]",4.0,"[0.11812818324606576,-0.15750685274488152]",100.0,"[-0.18742004233073423,-0.0653345414620853]",100.0,"[0.07607536632176574,-0.15029607829486905]",4.0,"[0.02,0.02]",198.6482,0.0,45.0,45.0,160.0,1.0,,,,,,,
,,,,,,,65fe94ba6224418236d68fa8,6842bc981af5ccb9609ec855,2025-06-06_05h02.13.194,shape_ratio,2024.1.5,MacIntel,61.34969325,6842b561977af9ba9b0f87ca,,,,,,,,,,,198.6486,199.1481,,,199.3986,199.9816,right,0.5669,,,,,,,,,0.9,,,,,,199.1482,199.3986,199.9817,"[0.17865032156222654,-0.0797294532516625]",100.0,"[0.15157773558899693,0.11354378472842233]",100.0,"[-0.16981402907598087,-0.07975045216739159]",100.0,"[0.05971267177949825,0.06130204099686248]",100.0,"[-0.147369902703455,-0.00400345873631853]",100.0,"[-0.07935102772192186,0.003282907785179236]",100.0,"[-0.1633074077488342,0.07690800045031053]",100.0,"[-0.014060110874971974,0.13020407350698493]",100.0,"[0.18246893889242022,-0.032955438347708484]",100.0,"[0.10502258974622478,0.13677871803626956]",100.0,"[-0.05402572229330541,0.11725660583801178]",100.0,"[-0.054764900214990475,-0.11073860762422284]",100.0,"[0.03809458165583685,-0.08028014951388589]",100.0,"[0.04459947081131176,0.10788663123753324]",100.0,"[0.01261717538641189,0.17188325642463856]",100.0,"[-0.0915523636171213,0.0798666891433765]",100.0,"[0.06447163933846753,0.16714085427365838]",100.0,"[-0.09450099872085724,-0.039599217838766534]",100.0,"[-0.14493652809236884,-0.11424206360435873]",100.0,"[-0.18967993966394667,0.030087660340868794]",4.0,"[-0.13173308007508372,0.14027098892760728]",4.0,"[0.11419928132879809,0.0719834565752973]",100.0,"[0.02278692657953023,0.021282121082564984]",100.0,"[0.18379846773249944,0.0077092698235776925]",100.0,"[0.09136058835374199,-0.1373551157732198]",100.0,"[-0.005632084672972218,-0.020959979181328782]",100.0,"[0.03378313999605255,-0.1952565361511374]",100.0,"[-0.08117960662880715,0.15090830344610853]",100.0,"[-0.006289923677615055,0.05884946696795067]",100.0,"[0.17768133531998542,0.0612543742060351]",4.0,"[-0.017578773477932744,-0.0879148001168786]",100.0,"[-0.00973329336951698,-0.14380344911214005]",100.0,"[0.02,0.02]",201.0815,0.0,46.0,46.0,26.0,1.0,,,,,,,
,,,,,,,65fe94ba6224418236d68fa8,6842bc981af5ccb9609ec855,2025-06-06_05h02.13.194,shape_ratio,2024.1.5,MacIntel,61.34969325,6842b561977af9ba9b0f87ca,,,,,,,,,,,201.082,201.5824,,,201.8327,202.4159,left,0.5683,,,,,,,,,0.55,,,,,,201.5825,201.8326,202.4159,"[0.04069854205793419,0.15644857929602365]",100.0,"[-0.00907498850268735,-0.13988034503571597]",4.0,"[0.1426013316897258,-0.09105061962722094]",100.0,"[0.038967115982577516,-0.12444027637512468]",4.0,"[0.10815077261616128,-0.062014761187992054]",4.0,"[-0.09776714585837741,-0.11977341387913874]",4.0,"[-0.030631386930274517,0.12308459101397512]",4.0,"[-0.1309780517434176,0.13975989263649216]",100.0,"[0.15603424996828208,0.07998983057031299]",100.0,"[0.15276582054450105,0.013495584947521483]",4.0,"[-0.1206143404748975,0.04511122620670567]",100.0,"[-0.10483321667388654,-0.047910098623312185]",4.0,"[0.0288035593851779,-0.18813032332992882]",100.0,"[0.049476316111952905,0.06981636945883463]",100.0,"[0.024438833863308192,-0.019626995424850666]",100.0,"[-0.1397587065939988,-0.12917112390381652]",100.0,"[-0.057207122435669104,0.09214788926600061]",4.0,"[-0.18167006123111076,0.00027337243509498475]",100.0,"[0.0269315809202843,-0.08546906812360308]",4.0,"[0.1451042989990926,0.13167772055746493]",4.0,"[-0.10419302407546577,0.10770126852736227]",100.0,"[0.09672788851099794,-0.10257371599401553]",4.0,"[0.06391444687521247,-0.04715900819884997]",100.0,"[-0.006844632128132141,0.17167032284405181]",100.0,"[-0.12610214862718414,-0.00825430292555879]",4.0,"[-0.07312285076683374,0.13362391578629382]",100.0,"[0.06722918098655423,0.03207936721398001]",100.0,"[-0.041898999868339566,-0.06216483302402288]",4.0,"[0.17211170071745047,-0.043849064192472864]",100.0,"[-0.15408492186176614,0.09392118709646126]",100.0,"[0.1873770222581409,0.04513048403926577]",100.0,"[0.08494328646685562,-0.14290651756131478]",4.0,"[0.02,0.02]",203.5147,0.0,47.0,47.0,89.0,1.0,,,,,,,
,,,,,,,65fe94ba6224418236d68fa8,6842bc981af5ccb9609ec855,2025-06-06_05h02.13.194,shape_ratio,2024.1.5,MacIntel,61.34969325,6842b561977af9ba9b0f87ca,,,,,,,,,,,203.5151,204.0157,,,204.266,204.7657,left,0.4935,,,,,,,,,0.1,,,,,,204.0157,204.2659,204.7658,"[-0.03442544076940385,0.15054165382644585]",4.0,"[-0.052663243308226616,0.012741992909136506]",4.0,"[-0.048501843248741024,-0.12219382351582588]",4.0,"[-0.08757535683288814,-0.08878969786781744]",100.0,"[-0.164170526457625,-0.0020348905040154814]",4.0,"[0.05049723004856137,0.13714984239589245]",4.0,"[0.07852630515686428,0.041406065956529715]",4.0,"[0.11560380863710727,-0.017813913018207186]",4.0,"[0.03574528535976516,0.1788343589296688]",4.0,"[0.09346611790138605,-0.12239433632260364]",4.0,"[0.18289931933355716,0.03801602839333512]",4.0,"[0.1452694334759624,-0.10037251503813736]",4.0,"[0.08236314196635655,-0.0501617907509283]",4.0,"[0.12329760152159318,0.11444546047115751]",4.0,"[-0.1741475882989966,-0.08384129398429083]",4.0,"[0.024206046621785684,-0.12264946804933183]",4.0,"[-0.15367848217685623,0.1151752854059119]",100.0,"[-0.04664935506726052,-0.07280539422635614]",4.0,"[-0.06873235274900007,0.12729500110034364]",4.0,"[-0.09421786403110459,-0.03264941122135675]",4.0,"[0.18041797271159196,-0.050514356572174415]",4.0,"[-0.02409770073733642,0.0601890713889831]",4.0,"[0.05793411689172858,-0.007787179106110302]",4.0,"[-0.12231889464010774,-0.12686651271125166]",4.0,"[-0.012063967461279922,-0.01219496751132007]",4.0,"[-0.11582921770745738,0.16243293403376716]",4.0,"[0.006116790302902722,-0.08178292692582538]",4.0,"[-0.17947294002448289,0.06668222140453722]",100.0,"[0.1430097238256016,0.06976904703165339]",4.0,"[0.0292182629881098,0.06519759250096227]",4.0,"[-0.12645081089963536,0.014044217557688494]",4.0,"[-0.09104057426739715,-0.17628849800666554]",4.0,"[0.02,0.02]",205.8656,0.0,48.0,48.0,192.0,1.0,,,,,,,
,,,,,,,65fe94ba6224418236d68fa8,6842bc981af5ccb9609ec855,2025-06-06_05h02.13.194,shape_ratio,2024.1.5,MacIntel,61.34969325,6842b561977af9ba9b0f87ca,,,,,,,,,,,205.8661,206.3657,,,206.615,207.0825,right,0.4513,,,,,,,,,0.6,,,,,,206.3657,206.615,207.0826,"[0.00024533879984624593,0.04287708734265771]",100.0,"[-0.14766158985027567,0.10390792919033173]",4.0,"[0.1842961918379092,-0.01195692164418038]",4.0,"[-0.10704218684985989,-0.1596181890168409]",100.0,"[-0.0005569171817392693,-0.10723409909968515]",100.0,"[-0.08759028606119473,-0.12183812247970474]",100.0,"[0.03730858008451575,-0.05744210226462979]",4.0,"[-0.10079205231084899,0.16607949966871044]",100.0,"[0.005684203834962008,0.10983554300286935]",4.0,"[0.09933180569164256,-0.1233088203134527]",100.0,"[-0.16211870551591956,0.04176619498623027]",100.0,"[-0.04424535237701269,-0.13537495400779162]",100.0,"[-0.002701685211828176,-0.053797309385725064]",4.0,"[-0.06807837711074799,-0.06720671038971397]",4.0,"[-0.1312964796795112,-0.026860588350443197]",4.0,"[0.07502833709106248,0.036384584392510175]",100.0,"[0.012308595840135066,0.1564609794720085]",4.0,"[0.16203522193845907,0.09839912044668349]",100.0,"[-0.05372734252400426,0.053648498980469285]",100.0,"[-0.16431245021186697,-0.07841881060871934]",4.0,"[0.042852044275198904,-0.10486122868075289]",4.0,"[-0.03755486542066474,-0.19450348175424706]",100.0,"[0.04079337049230478,-0.012128179106280185]",4.0,"[0.12414841318191856,-0.06610049251845623]",4.0,"[-0.05348679597438776,0.1743417397316826]",100.0,"[0.11055749957559324,0.12571636218983273]",100.0,"[0.12711626570665277,0.017625055789856264]",100.0,"[-0.03055948211706704,-0.008985840704019891]",100.0,"[0.17591836952989312,-0.09111404011122254]",100.0,"[-0.04375655564786412,0.09900022082439952]",100.0,"[0.08384326203579155,-0.00787809054251161]",4.0,"[-0.09855990255884378,0.12200008592297497]",100.0,"[0.02,0.02]",208.1823,0.0,49.0,49.0,33.0,1.0,,,,,,,
