right,left,explain.started,explain.stopped,key_resp_3.keys,key_resp_3.rt,key_resp_3.duration,participant,session,date,expName,psychopyVersion,OS,frameRate,study_id,explain_2.started,explain_2.stopped,key_resp_4.keys,key_resp_4.rt,key_resp_4.duration,explain_3.started,explain_3.stopped,key_resp_5.keys,key_resp_5.rt,key_resp_5.duration,fixation.started,fixation.stopped,practice.started,practice.stopped,response.started,response.stopped,key_resp.keys,key_resp.rt,key_resp.duration,feedback.started,feedback.stopped,trials_2.thisRepN,trials_2.thisTrialN,trials_2.thisN,trials_2.thisIndex,trials_2.ran,dot_ratio,explain_4.started,explain_4.stopped,key_resp_6.keys,key_resp_6.rt,key_resp_6.duration,dotDisplay.started,dotDisplay.stopped,ITI.started,polygon_1.pos,polygon_1.edges,polygon_2.pos,polygon_2.edges,polygon_3.pos,polygon_3.edges,polygon_4.pos,polygon_4.edges,polygon_5.pos,polygon_5.edges,polygon_6.pos,polygon_6.edges,polygon_7.pos,polygon_7.edges,polygon_8.pos,polygon_8.edges,polygon_9.pos,polygon_9.edges,polygon_10.pos,polygon_10.edges,polygon_11.pos,polygon_11.edges,polygon_12.pos,polygon_12.edges,polygon_13.pos,polygon_13.edges,polygon_14.pos,polygon_14.edges,polygon_15.pos,polygon_15.edges,polygon_16.pos,polygon_16.edges,polygon_17.pos,polygon_17.edges,polygon_18.pos,polygon_18.edges,polygon_19.pos,polygon_19.edges,polygon_20.pos,polygon_20.edges,polygon_21.pos,polygon_21.edges,polygon_22.pos,polygon_22.edges,polygon_23.pos,polygon_23.edges,polygon_24.pos,polygon_24.edges,polygon_25.pos,polygon_25.edges,polygon_26.pos,polygon_26.edges,polygon_27.pos,polygon_27.edges,polygon_28.pos,polygon_28.edges,polygon_29.pos,polygon_29.edges,polygon_30.pos,polygon_30.edges,polygon_31.pos,polygon_31.edges,polygon_32.pos,polygon_32.edges,dot_size,ITI.stopped,trials.thisRepN,trials.thisTrialN,trials.thisN,trials.thisIndex,trials.ran,break_2.started,break_2.stopped,trials_3.thisRepN,trials_3.thisTrialN,trials_3.thisN,trials_3.thisIndex,trials_3.ran
subject chose dot,subject chose diamond,0.0002,87.965,space,72.9509,,66031484603e46d7e3ae1864,6842bbdb347641f08b8be2d5,2025-06-06_12h59.24.237,shape_ratio,2024.1.5,Win32,60.97560976,6842b561977af9ba9b0f87ca,,,,,,,,,,,,,,,,,,,,,,,,,,,,,,,,,,,,,,,,,,,,,,,,,,,,,,,,,,,,,,,,,,,,,,,,,,,,,,,,,,,,,,,,,,,,,,,,,,,,,,,,,,,,,,,,,
,,,,,,,66031484603e46d7e3ae1864,6842bbdb347641f08b8be2d5,2025-06-06_12h59.24.237,shape_ratio,2024.1.5,Win32,60.97560976,6842b561977af9ba9b0f87ca,87.9654,119.5575,space,1.5688,,,,,,,,,,,,,,,,,,,,,,,,,,,,,,,,,,,,,,,,,,,,,,,,,,,,,,,,,,,,,,,,,,,,,,,,,,,,,,,,,,,,,,,,,,,,,,,,,,,,,,,,,,,,,
,,,,,,,66031484603e46d7e3ae1864,6842bbdb347641f08b8be2d5,2025-06-06_12h59.24.237,shape_ratio,2024.1.5,Win32,60.97560976,6842b561977af9ba9b0f87ca,,,,,,119.5578,124.2229,space,1.6362,,,,,,,,,,,,,,,,,,,,,,,,,,,,,,,,,,,,,,,,,,,,,,,,,,,,,,,,,,,,,,,,,,,,,,,,,,,,,,,,,,,,,,,,,,,,,,,,,,,,,,,,
,,,,,,,66031484603e46d7e3ae1864,6842bbdb347641f08b8be2d5,2025-06-06_12h59.24.237,shape_ratio,2024.1.5,Win32,60.97560976,6842b561977af9ba9b0f87ca,,,,,,,,,,,124.2351,124.7396,124.7398,124.9735,124.9736,126.1895,right,1.1901,,126.1895,127.2896,0.0,0.0,0.0,0.0,1.0,0.2,,,,,,,,,,,,,,,,,,,,,,,,,,,,,,,,,,,,,,,,,,,,,,,,,,,,,,,,,,,,,,,,,,,,,,,,,,,,,,,,,,,,,,
,,,,,,,66031484603e46d7e3ae1864,6842bbdb347641f08b8be2d5,2025-06-06_12h59.24.237,shape_ratio,2024.1.5,Win32,60.97560976,6842b561977af9ba9b0f87ca,,,,,,,,,,,127.2901,127.7892,127.7894,128.0389,128.039,128.9559,right,0.9005,,128.9559,130.0547,0.0,1.0,1.0,1.0,1.0,0.8,,,,,,,,,,,,,,,,,,,,,,,,,,,,,,,,,,,,,,,,,,,,,,,,,,,,,,,,,,,,,,,,,,,,,,,,,,,,,,,,,,,,,,
,,,,,,,66031484603e46d7e3ae1864,6842bbdb347641f08b8be2d5,2025-06-06_12h59.24.237,shape_ratio,2024.1.5,Win32,60.97560976,6842b561977af9ba9b0f87ca,,,,,,,,,,,,,,,,,,,,,,,,,,,,130.055,146.1531,space,13.0692,,,,,,,,,,,,,,,,,,,,,,,,,,,,,,,,,,,,,,,,,,,,,,,,,,,,,,,,,,,,,,,,,,,,,,,,,,,,,,,,,,
,,,,,,,66031484603e46d7e3ae1864,6842bbdb347641f08b8be2d5,2025-06-06_12h59.24.237,shape_ratio,2024.1.5,Win32,60.97560976,6842b561977af9ba9b0f87ca,,,,,,,,,,,146.1633,146.6533,,,146.9033,147.6528,left,0.7406,,,,,,,,,0.4,,,,,,146.6539,146.9032,147.6533,"[-0.0943450443824637,-0.07766449837734914]",100.0,"[-0.015010621759757132,0.07143550051615631]",4.0,"[-0.16611497823306284,0.0648005107347843]",4.0,"[0.17294884319753034,-0.08939264319470909]",100.0,"[-0.026744982950556776,0.1406617445714401]",100.0,"[0.14447881013914332,0.1351547790113043]",4.0,"[0.1508805355918125,0.03181386537684761]",4.0,"[-0.10688535471482598,0.1266226480889189]",4.0,"[0.01715413565395833,-0.03332370343074314]",4.0,"[-0.1904286603956547,-0.05100644804598577]",100.0,"[0.1102170781313049,-0.10842658055314673]",4.0,"[-0.0232435445883925,-0.07595549123085266]",4.0,"[-0.042986940451469224,-0.02869205079036142]",100.0,"[0.02801578000979279,-0.10223925347462354]",100.0,"[-0.07086452424102789,0.08481849334821862]",4.0,"[0.08089906810166524,-0.13732627251853338]",4.0,"[0.0808054935605778,0.1771352331505157]",4.0,"[-0.05576504071163213,-0.1060315986051227]",4.0,"[0.038565186574647095,0.011280262651366415]",100.0,"[0.1725989961898113,-0.04008977970224686]",100.0,"[0.02449460562620565,-0.1764158323039922]",4.0,"[-0.1455192783372417,-0.06860527752977136]",100.0,"[0.09179360707336678,0.11635121426818117]",4.0,"[0.19484813373736906,0.021234101889311637]",4.0,"[-0.18128870853956125,-0.01043897581588439]",4.0,"[-0.13151589516379042,0.0925846174557073]",4.0,"[-0.009132334465531116,-0.14861336483089826]",4.0,"[-0.13912560097011606,-0.009358733031116265]",100.0,"[-0.09647066974831375,-0.006991990913513373]",100.0,"[0.10247076996424506,0.03254189126778459]",100.0,"[0.13048862078801118,-0.14427616324787415]",100.0,"[-0.12076702754167067,-0.1149218863495933]",4.0,"[0.02,0.02]",148.7528,0.0,0.0,0.0,156.0,1.0,,,,,,,
,,,,,,,66031484603e46d7e3ae1864,6842bbdb347641f08b8be2d5,2025-06-06_12h59.24.237,shape_ratio,2024.1.5,Win32,60.97560976,6842b561977af9ba9b0f87ca,,,,,,,,,,,148.7532,149.2524,,,149.503,149.8695,right,0.3597,,,,,,,,,0.9,,,,,,149.2525,149.503,149.8696,"[0.05663968734420646,0.03332948735928643]",4.0,"[0.08923132407196364,-0.04696808536142508]",100.0,"[-0.10302311912842138,0.11535325481696687]",100.0,"[-0.04704490655958666,0.04693768667481856]",100.0,"[0.039191779871665444,0.12713359364382493]",100.0,"[0.002020522934973471,-0.02768008742949045]",100.0,"[-0.1660843406278964,-0.04410316069969109]",4.0,"[0.1587814024776025,-0.10800768018190528]",100.0,"[-0.16442047562101425,0.004569766961562476]",100.0,"[0.03018948433583851,-0.15946870111742678]",100.0,"[-0.1555470499536512,0.05080029281352845]",100.0,"[0.08035517312767626,-0.12188552312526921]",100.0,"[-0.09403807097951225,0.06931221460999326]",100.0,"[-0.05053038467551766,0.11900060994143807]",100.0,"[-0.16026672134110972,-0.09675187807975223]",100.0,"[0.19089663230654527,0.03266879562653649]",100.0,"[-0.04164091542704746,-0.16359286535734208]",100.0,"[-0.04852650443504872,-0.06888779072810285]",100.0,"[0.08368619622236287,0.15151430998929552]",4.0,"[-0.10133877322217995,-0.14102884991922884]",100.0,"[0.17000713625631017,0.06856625168973357]",100.0,"[-0.08555546464065725,0.15431289732697337]",100.0,"[-0.12085169609583465,-0.06724295540045203]",100.0,"[0.16254466732770462,-0.04066022876886091]",100.0,"[-0.09625675781425386,-0.10014413602781501]",100.0,"[0.128984171431484,0.07656564705471722]",100.0,"[0.10223726583524535,-0.15681765470168332]",100.0,"[-0.037771172517959334,0.161091960940673]",100.0,"[-0.0018665731312391906,0.19704520440430992]",100.0,"[0.04050648584418132,0.1757033276398836]",100.0,"[0.01967346474199445,-0.0691172824830638]",100.0,"[-0.009395917357702926,0.10666463662433157]",100.0,"[0.02,0.02]",150.969,0.0,1.0,1.0,2.0,1.0,,,,,,,
,,,,,,,66031484603e46d7e3ae1864,6842bbdb347641f08b8be2d5,2025-06-06_12h59.24.237,shape_ratio,2024.1.5,Win32,60.97560976,6842b561977af9ba9b0f87ca,,,,,,,,,,,150.9694,151.4688,,,151.7194,152.8521,left,1.1146,,,,,,,,,0.4,,,,,,151.4688,151.7194,152.8522,"[0.10822447218601416,0.15830305471703804]",4.0,"[-0.17066028283063353,-0.06680191233381631]",4.0,"[0.04611714226100327,0.11762935274358009]",4.0,"[-0.048964835690277764,-0.17490927889809887]",100.0,"[0.08869789254264693,-0.1018984662575866]",4.0,"[-0.1715669963584276,0.07859942781573169]",100.0,"[-0.16841119681844366,0.019987260339885297]",100.0,"[0.10057138823819717,-0.04170924081709547]",100.0,"[0.14383272962300345,-0.11472664009299899]",100.0,"[0.07312852556636015,-0.16305267431937437]",100.0,"[-0.06492798993062227,-0.12362904778284325]",100.0,"[-0.09345103952282648,-0.030525802618784542]",4.0,"[0.18414326659383018,-0.03138533380556057]",4.0,"[0.04148477727341443,0.05952610871684163]",100.0,"[0.12056116859422596,0.07311835279868512]",4.0,"[0.09519628877120422,0.029502577526545518]",4.0,"[-0.06721558079363478,0.04983601510469412]",4.0,"[-0.07391516732092067,-0.0655381321847249]",100.0,"[-0.13148634772262663,-0.0017186726628197475]",4.0,"[-0.013852254810252746,0.17867028776615584]",4.0,"[0.06556184954464188,0.17968421029278442]",4.0,"[0.013800384232988055,-0.09346153379197239]",100.0,"[-0.1204508419908118,0.09317895828599629]",4.0,"[-0.10891039559871135,0.13260708004419855]",4.0,"[-0.19533413779290795,-0.03234473238080113]",4.0,"[-0.0504826185909727,0.12981111226944608]",100.0,"[0.04754309580023519,-0.02913596955265634]",4.0,"[0.0022126345487729383,-0.16632158920319187]",4.0,"[-0.10196440228395709,-0.10237472146177048]",4.0,"[-0.009900152793385032,-0.013818526272041056]",4.0,"[0.08133593631511578,0.08918383461525985]",100.0,"[-0.021653031014273152,-0.1333161560752344]",100.0,"[0.02,0.02]",153.9516,0.0,2.0,2.0,162.0,1.0,,,,,,,
,,,,,,,66031484603e46d7e3ae1864,6842bbdb347641f08b8be2d5,2025-06-06_12h59.24.237,shape_ratio,2024.1.5,Win32,60.97560976,6842b561977af9ba9b0f87ca,,,,,,,,,,,153.9519,154.4518,,,154.7015,155.1853,right,0.4663,,,,,,,,,0.9,,,,,,154.4519,154.7014,155.1853,"[0.0141045949141399,-0.15539995903491813]",100.0,"[-0.11150334686466298,-0.027919760636346366]",100.0,"[0.015537533309345696,0.05914573209107947]",4.0,"[0.08411730110976694,0.17326798525196835]",100.0,"[0.18109706517400764,-0.039054538757948044]",100.0,"[0.19118578840043438,0.032007122299538344]",4.0,"[0.15085420429525478,-0.10425862893122871]",100.0,"[-0.029831505181577504,-0.10433534069425156]",100.0,"[-0.1219655158124758,0.10410476065486257]",100.0,"[0.049449128735136565,-0.014032256566330916]",100.0,"[0.07746501803915745,-0.11334371077482525]",100.0,"[0.04873447820464612,-0.06731135458920681]",100.0,"[-0.1132771114967399,0.016978292961896624]",100.0,"[-0.08086435415965325,-0.10824994549679237]",100.0,"[0.14014128097199272,-0.03966125449865435]",100.0,"[0.14763715255894433,0.11920492951203711]",100.0,"[0.08698498303159324,-0.034474893733569247]",4.0,"[-0.07366338583464806,0.15979075342350574]",100.0,"[0.03095754077467901,-0.11366640328191509]",100.0,"[-0.10046289397317885,-0.15363781850243613]",100.0,"[-0.07471196581127866,-0.058017030362902795]",100.0,"[-0.13434674275021707,-0.09927058484457049]",100.0,"[-0.006640408473179007,0.01929928745836885]",100.0,"[-0.17757287388323745,0.03953206534133726]",100.0,"[0.11678474092703657,0.055965916407250356]",100.0,"[0.09362796097277812,-0.16709791783472006]",100.0,"[-0.024810402316853275,-0.036967794425272815]",100.0,"[-0.06149689570838678,-0.0199458499427294]",100.0,"[0.07313125867211333,0.12228651820858458]",100.0,"[-0.1551945881848041,-0.04417974105476996]",100.0,"[0.06335007802473064,0.03569767007383581]",100.0,"[-0.07124349183740515,-0.18331826078460103]",100.0,"[0.02,0.02]",156.2843,0.0,3.0,3.0,24.0,1.0,,,,,,,
,,,,,,,66031484603e46d7e3ae1864,6842bbdb347641f08b8be2d5,2025-06-06_12h59.24.237,shape_ratio,2024.1.5,Win32,60.97560976,6842b561977af9ba9b0f87ca,,,,,,,,,,,156.2845,156.7849,,,157.0352,157.951,left,0.9014,,,,,,,,,0.6,,,,,,156.7851,157.0352,157.9511,"[-0.1341079947989109,0.14502187071152267]",100.0,"[-0.026376095230333865,0.09303809598920988]",100.0,"[0.13546484844203047,0.05489319277232207]",100.0,"[0.013130474507455804,0.008664628165651958]",4.0,"[0.0010397379880722642,-0.1649097618728586]",100.0,"[0.043144450364876824,-0.12050541873950694]",100.0,"[0.13368245084517563,0.12265558144130559]",100.0,"[-0.1701720805054773,-0.0021662138580326117]",100.0,"[0.06217362887436347,0.18521966576215762]",100.0,"[0.012642056689282078,-0.03625900380134957]",100.0,"[-0.008391300756641235,-0.1236949288622205]",100.0,"[0.10746317555690085,-0.08158066224582637]",100.0,"[0.1027115003710034,-0.03219643066520433]",100.0,"[-0.06494227206046793,-0.051551494066755486]",4.0,"[0.010330044667938668,0.07484945494671932]",100.0,"[-0.1716595081183087,0.09088956220698993]",4.0,"[-0.04894788392481843,-0.13291554559673566]",100.0,"[-0.16103868098589652,-0.08190861733042576]",4.0,"[-0.041431752273963146,-0.018021378419700505]",4.0,"[0.07822111452735588,0.11064906679904611]",100.0,"[0.19940475963314044,-0.010988138510422787]",100.0,"[0.09247894578724046,0.15443353844421884]",100.0,"[0.07555062799164405,-0.16350624280099993]",4.0,"[-0.06830483523182995,0.10636493099678429]",4.0,"[-0.016495052189104773,-0.06532995212345462]",4.0,"[-0.1384285706181288,-0.1297674697925276]",4.0,"[-0.01697897171306604,0.04450868347928752]",100.0,"[-0.12505919685473466,0.07359586567096109]",100.0,"[0.19027537467269764,0.03931940173099897]",4.0,"[-0.1315037558083952,0.01815657012815362]",4.0,"[-0.060587383189083646,-0.18292920130103688]",4.0,"[0.167271252522225,0.09964991069039525]",4.0,"[0.02,0.02]",159.0512,0.0,4.0,4.0,31.0,1.0,,,,,,,
,,,,,,,66031484603e46d7e3ae1864,6842bbdb347641f08b8be2d5,2025-06-06_12h59.24.237,shape_ratio,2024.1.5,Win32,60.97560976,6842b561977af9ba9b0f87ca,,,,,,,,,,,159.0516,159.5505,,,159.8015,160.3676,left,0.559,,,,,,,,,0.1,,,,,,159.5506,159.8015,160.3676,"[0.03701260085906381,0.01585398112597122]",4.0,"[-0.05645574455281397,-0.10400437078511873]",4.0,"[0.005735907703215468,-0.13643678647796287]",4.0,"[-0.12305017347927484,0.049510637190772845]",4.0,"[0.09884822619028691,0.07591139103116853]",4.0,"[-0.06039157758909721,0.15023652701234674]",4.0,"[0.009675418036663485,-0.0406424657791603]",4.0,"[0.05022539352583219,0.17237813724100376]",100.0,"[0.06631633511347558,-0.07525386485546043]",100.0,"[0.16997405921841968,-0.025923399680913974]",4.0,"[-0.05273297903311065,0.04959136262318046]",4.0,"[-0.04158124437253446,-0.16576689519744586]",4.0,"[0.1856530869047045,0.055510199030349004]",4.0,"[0.07842436787677745,-0.032240120250434746]",4.0,"[0.08479210900441403,0.1275780244910961]",4.0,"[-0.08028781955803983,0.0025812646568905786]",4.0,"[-0.10915854876731351,-0.14769569828682744]",4.0,"[-0.1771909268689019,0.009861182826848999]",4.0,"[-0.11614849199048602,0.1267746446980136]",4.0,"[0.1438806250406795,0.005215248284770922]",4.0,"[0.11974376907209164,-0.05642902678878296]",4.0,"[-0.15438125351680015,0.07652431002395943]",100.0,"[0.0165382997182384,0.1246858692694341]",4.0,"[-0.152560213051734,-0.023125874705369923]",4.0,"[0.016633687710201347,0.06298084665906055]",4.0,"[-0.11068705943216448,-0.09180716648370793]",4.0,"[0.15504513949953036,0.11718302827563373]",4.0,"[-0.05194311025527437,-0.04055132320856929]",4.0,"[0.13044390937370795,0.14955930664887018]",4.0,"[-0.018214208874427394,0.1561397948029328]",4.0,"[0.04708390695020123,-0.11056157135461266]",4.0,"[0.08929646328215442,0.021545947761520926]",4.0,"[0.02,0.02]",161.467,0.0,5.0,5.0,202.0,1.0,,,,,,,
,,,,,,,66031484603e46d7e3ae1864,6842bbdb347641f08b8be2d5,2025-06-06_12h59.24.237,shape_ratio,2024.1.5,Win32,60.97560976,6842b561977af9ba9b0f87ca,,,,,,,,,,,161.4672,161.967,,,162.2171,162.867,left,0.6339,,,,,,,,,0.1,,,,,,161.967,162.2171,162.867,"[0.011773918812317546,0.0976812098203469]",4.0,"[0.03587471167922669,0.15248086415432627]",100.0,"[0.06513505798447548,0.09459812218659798]",100.0,"[0.014084449891687395,-0.033277995285589584]",4.0,"[-0.07163077608980896,-0.0694127704190352]",4.0,"[0.0591319397196527,-0.039898417195282594]",4.0,"[0.027744163433779008,0.05097585804414623]",4.0,"[-0.09231478834246346,0.0553643458434065]",4.0,"[0.15957102391639716,0.05674874198340039]",4.0,"[0.14706994687878436,0.11745883099335022]",4.0,"[0.11942981561066919,-0.021602890650826247]",4.0,"[0.04947596235379594,-0.1887326807940121]",4.0,"[-0.03118935090607953,0.10005181083454821]",4.0,"[0.17038908115561482,-0.038151303656187505]",4.0,"[-0.031559171921887244,0.007131171244308926]",4.0,"[-0.18330831287638308,0.010645336792914344]",4.0,"[-0.10601801126915648,-0.1234463108164105]",4.0,"[-0.12254312961134348,-0.04489887873760296]",4.0,"[-0.1779852311037542,-0.03656599828445795]",4.0,"[0.017283420433523013,-0.07587648778013846]",4.0,"[0.09673937767492774,0.1380180508338086]",4.0,"[0.18718407386357408,0.012191008897729432]",4.0,"[-0.06807409077059628,0.14534413247826788]",4.0,"[0.11129618644980852,-0.09514582213075498]",4.0,"[0.05411935338866076,-0.13482901446670906]",4.0,"[0.10627716884057686,0.03884044424031959]",4.0,"[-0.0932794569427877,0.002996907334455434]",4.0,"[-0.14958815914302853,0.09425871399118031]",4.0,"[0.14809570877512887,-0.12995833701687415]",100.0,"[0.0009694854059904073,-0.13846956584916004]",4.0,"[-0.14269209612374167,-0.10139499610515834]",4.0,"[-0.07574118384725413,-0.16298349658570013]",4.0,"[0.02,0.02]",163.9673,0.0,6.0,6.0,200.0,1.0,,,,,,,
,,,,,,,66031484603e46d7e3ae1864,6842bbdb347641f08b8be2d5,2025-06-06_12h59.24.237,shape_ratio,2024.1.5,Win32,60.97560976,6842b561977af9ba9b0f87ca,,,,,,,,,,,163.9675,164.4671,,,164.7171,165.8333,left,1.0981,,,,,,,,,0.4,,,,,,164.4671,164.7171,165.8334,"[0.07686431769908567,0.0744476198124662]",100.0,"[0.06168896144493344,-0.10787619543059389]",100.0,"[-0.020616827876502482,0.062250113657523566]",4.0,"[-0.1484889269575474,0.021140547507148194]",100.0,"[-0.11361226385884104,-0.1379308122019821]",100.0,"[-0.11392245807396638,-0.0838469080888494]",100.0,"[0.07291115560319682,0.030640426616688286]",4.0,"[-0.028257814278143573,-0.13494277263728885]",4.0,"[-0.12988986683245177,-0.01904981500395265]",4.0,"[-0.08214856489731083,0.10377867104400958]",4.0,"[-0.12893585872600508,0.08965122514326224]",4.0,"[0.12265051055676786,0.05093704752254514]",100.0,"[-0.08494110930728382,-0.02020786179524384]",100.0,"[-0.054273948579539266,-0.07179071383606393]",4.0,"[0.12294554725767828,0.009894003955432969]",4.0,"[0.08463944120706748,0.1544801697853369]",100.0,"[-0.05418466106039212,0.13589589661349827]",4.0,"[0.1236576821664811,-0.054764391311916044]",4.0,"[0.014651034344699651,-0.18386146114327687]",100.0,"[0.031205866295697462,0.1813304304280062]",4.0,"[0.005937726979521503,0.09480729585625686]",4.0,"[0.15617778044810438,-0.029474053653965736]",4.0,"[0.13286911999630346,0.12177625522754523]",4.0,"[-0.07549283415095531,-0.16925587424730462]",100.0,"[-0.1583302911023774,0.06105860213720944]",100.0,"[0.006510953630707748,0.02387894375124726]",4.0,"[0.19132799029529943,0.016223307072906708]",4.0,"[0.09199802875056991,-0.13627199054417194]",4.0,"[-0.1795525197964784,-0.06824931889660531]",100.0,"[0.14733660138878552,-0.10327188726116068]",4.0,"[0.08351780660389575,-0.038448506139179835]",4.0,"[-0.18867110101277432,-0.024884302934825058]",100.0,"[0.02,0.02]",166.9333,0.0,7.0,7.0,169.0,1.0,,,,,,,
,,,,,,,66031484603e46d7e3ae1864,6842bbdb347641f08b8be2d5,2025-06-06_12h59.24.237,shape_ratio,2024.1.5,Win32,60.97560976,6842b561977af9ba9b0f87ca,,,,,,,,,,,166.9334,167.4329,,,167.6833,168.2999,right,0.6101,,,,,,,,,0.45,,,,,,167.433,167.6832,168.3,"[-0.10937985084838198,-0.11313282847881033]",4.0,"[0.02531637679416888,0.06803829731567804]",4.0,"[0.14830323870412548,-0.13402953209593282]",4.0,"[0.15357565376370352,-0.0103169286189652]",4.0,"[0.1013081371217119,0.01756266196557558]",100.0,"[-0.14521490489178912,-0.004757691319989879]",4.0,"[0.015130382317862108,-0.1025920457240106]",100.0,"[0.06387082550469332,0.08617994825445267]",4.0,"[-0.036310412403090464,-0.10777487859568079]",4.0,"[-0.1221639472373836,0.04913747810426558]",4.0,"[0.149259887015642,0.030699181484040387]",4.0,"[0.16353850577536722,-0.0785981676284265]",100.0,"[-0.056059502090115315,-0.04661209713020968]",4.0,"[0.04777438117603366,0.16047113288356385]",4.0,"[0.011498330812962376,-0.029209078531933764]",4.0,"[-0.12359806922560253,0.13957824161137797]",4.0,"[-0.07458512819294598,0.17874308432168537]",100.0,"[0.010463380882478309,0.18755914467305493]",4.0,"[-0.08234752406777475,0.13397876522371088]",100.0,"[0.04320625207300735,0.026191908236006332]",100.0,"[-0.016655317750023692,-0.18131712158762822]",100.0,"[0.0759478105308389,-0.16137343986674788]",4.0,"[-0.07692546075304263,-0.1784566056675275]",100.0,"[-0.12522509235686338,-0.04718582815957545]",100.0,"[0.13491366572306132,0.1474819780959893]",100.0,"[0.10326208772358803,-0.07901055088165744]",4.0,"[-0.09537058529231154,0.015686816151853168]",100.0,"[-0.14120180359579634,-0.13936273537802846]",100.0,"[-0.008290227198313444,0.030347395996532522]",100.0,"[0.10283215650599975,0.11607285305255369]",4.0,"[0.1458819712706893,0.08683861194659502]",4.0,"[-0.17620098764244563,-0.06457539035931077]",100.0,"[0.02,0.02]",169.3994,0.0,8.0,8.0,138.0,1.0,,,,,,,
,,,,,,,66031484603e46d7e3ae1864,6842bbdb347641f08b8be2d5,2025-06-06_12h59.24.237,shape_ratio,2024.1.5,Win32,60.97560976,6842b561977af9ba9b0f87ca,,,,,,,,,,,169.3997,169.8996,,,170.1503,170.7656,right,0.6115,,,,,,,,,0.4,,,,,,169.8996,170.1503,170.7657,"[0.03066285097696987,-0.11161201187875704]",4.0,"[-0.08160508813430166,-0.16829300014820014]",4.0,"[-0.03389278136924494,-0.03481396096087301]",100.0,"[-0.1941101825176118,0.018024927663908615]",4.0,"[0.04522078700443828,-0.047033315260954056]",100.0,"[-0.13719942126424886,-0.09209109551711366]",100.0,"[-0.10147233431843028,0.14824305884581485]",100.0,"[0.06637680452918059,-0.17144395723813066]",4.0,"[0.09595865850274068,0.06434603013370675]",100.0,"[-0.016679396429736554,0.10407781799233494]",100.0,"[0.07451284662140766,0.16786543953836616]",4.0,"[0.18212919015417037,-0.0781305332916904]",4.0,"[0.07411320065254222,-0.09056704111844573]",4.0,"[-0.09198454576861081,0.030874916371481903]",4.0,"[0.09304897142780807,0.00944744775492187]",4.0,"[0.04050307834529151,0.049017577468744924]",100.0,"[-0.05761232878911095,0.17867666475068458]",100.0,"[-0.12193898807471305,-0.014132009317869976]",100.0,"[-0.14390674155111005,0.12766512919780618]",100.0,"[0.06287640002684082,0.11879265535385047]",4.0,"[0.12923746719232856,0.1254366166396314]",4.0,"[-0.006313511302103419,-0.09025277762900243]",4.0,"[0.11731794784984409,-0.1455016678809093]",100.0,"[-0.07821347662546356,0.0847339271107346]",4.0,"[0.18533309714161403,-0.034545777377792006]",4.0,"[-0.03618122979699141,-0.1555682140224738]",4.0,"[0.10870890858363538,-0.034840156961666154]",4.0,"[-0.06700421212266852,-0.07683172502165966]",100.0,"[-0.16251076971848225,-0.03281320015953186]",100.0,"[-0.08945090486095496,-0.04297398802536724]",4.0,"[0.0041352731078906566,-0.15163406298418003]",4.0,"[-0.06380314797445628,0.1250477660338493]",4.0,"[0.02,0.02]",171.8662,0.0,9.0,9.0,176.0,1.0,,,,,,,
,,,,,,,66031484603e46d7e3ae1864,6842bbdb347641f08b8be2d5,2025-06-06_12h59.24.237,shape_ratio,2024.1.5,Win32,60.97560976,6842b561977af9ba9b0f87ca,,,,,,,,,,,171.8666,172.3664,,,172.6163,173.0993,right,0.4662,,,,,,,,,0.55,,,,,,172.3665,172.6162,173.0994,"[0.10325918153869006,-0.010824251402200525]",100.0,"[-0.019284305266410156,-0.005513438682950591]",100.0,"[0.06571506594592616,-0.12073044284176561]",4.0,"[-0.0770256114458968,0.10945310056147961]",100.0,"[0.13845189978737726,-0.048189918739676416]",4.0,"[0.10478757217969731,0.06365752927716341]",4.0,"[-0.10362812536806362,0.0714289858369866]",4.0,"[0.003750623832659222,0.121368043588251]",4.0,"[0.008920354061036612,-0.1347339260240877]",100.0,"[0.1500624702113459,0.07064269723976223]",100.0,"[-0.032588996207568034,0.09537462974051433]",100.0,"[-0.1203680852470798,-0.12984123290693075]",100.0,"[-0.08204936322087757,-0.0923653737886442]",100.0,"[-0.13171931351138888,-0.0744859341030965]",4.0,"[0.15397590394283006,0.02764232150720916]",100.0,"[-0.05169524230252285,0.15652549436787386]",100.0,"[0.07969257578646952,0.10843041626142422]",4.0,"[-0.04056438881298333,-0.07363197059890411]",4.0,"[0.042981553016736694,0.1681009542174364]",4.0,"[0.10157228981450825,0.16684635265947825]",4.0,"[0.19103185536684555,0.05844625562100212]",4.0,"[0.10048939395409962,-0.15980686478217934]",4.0,"[-0.18892134395400206,-0.03365457814954461]",100.0,"[-0.04708167282192734,-0.1530572189908916]",100.0,"[0.12472840350569232,0.10810364482420788]",100.0,"[0.024280843289973996,0.017806828707771047]",100.0,"[0.04980218262171664,-0.08032525976193364]",100.0,"[0.09097459046727792,-0.05994021058145181]",4.0,"[-0.06976428456672451,-0.028778165346979807]",100.0,"[0.043831441347909623,-0.027159039322676472]",100.0,"[-0.14677602004525497,0.017512619738470504]",4.0,"[-0.15506418233097302,0.10604397165745967]",100.0,"[0.02,0.02]",174.1989,0.0,10.0,10.0,68.0,1.0,,,,,,,
,,,,,,,66031484603e46d7e3ae1864,6842bbdb347641f08b8be2d5,2025-06-06_12h59.24.237,shape_ratio,2024.1.5,Win32,60.97560976,6842b561977af9ba9b0f87ca,,,,,,,,,,,174.1994,174.6987,,,174.9492,175.7488,right,0.7905,,,,,,,,,0.55,,,,,,174.6987,174.9492,175.7488,"[-0.17794374627355045,0.007116606350679144]",100.0,"[-0.01644869794146499,-0.15718005814363625]",100.0,"[0.14231402842580002,-0.10309581118055271]",4.0,"[0.027893449462218015,0.07345240840697066]",4.0,"[-0.009203923314446643,0.11641677339300344]",4.0,"[-0.16475191471251635,-0.10956151483099429]",4.0,"[-0.04674448613309739,0.1400401237354999]",4.0,"[-0.13440382823887734,-0.07239478416866965]",100.0,"[-0.18892035497219023,0.059399835926918096]",100.0,"[0.12915266537297598,0.11315815477429866]",4.0,"[-0.15104405500140392,0.08478068615897685]",100.0,"[0.04568133113869493,-0.02275236681101188]",4.0,"[0.17786114341696746,-0.016662570801220158]",4.0,"[-0.08032257456922419,-0.13150239469316627]",100.0,"[-0.13565047788223647,0.03892879755725609]",100.0,"[-0.057892606550974175,0.08400117710614513]",100.0,"[0.04814517179442233,0.1578577527381291]",100.0,"[0.03597547149726445,-0.19264374861640376]",4.0,"[-0.10298339607249765,0.11919941178793748]",100.0,"[-0.013169692413637675,0.16956375173582272]",100.0,"[-0.08664184307553513,0.006469997898687524]",4.0,"[-0.09352712537983401,-0.17302965341725612]",100.0,"[-0.021871727239435524,-0.06844433598467636]",4.0,"[0.1243241031180352,0.01841793037589323]",4.0,"[0.1881721996981848,-0.06262100253317938]",4.0,"[0.04731116111281331,-0.06407005815906544]",100.0,"[0.03643946857749562,-0.13931180581422475]",100.0,"[-0.07654379662010657,-0.053071340437281636]",100.0,"[-0.049438135583398046,0.03666633690334516]",100.0,"[0.07515241645619036,0.11651630791441767]",100.0,"[0.11299983036193663,0.0751560080975476]",4.0,"[-0.024868616227702946,0.003820742713886524]",100.0,"[0.02,0.02]",176.8487,0.0,11.0,11.0,77.0,1.0,,,,,,,
,,,,,,,66031484603e46d7e3ae1864,6842bbdb347641f08b8be2d5,2025-06-06_12h59.24.237,shape_ratio,2024.1.5,Win32,60.97560976,6842b561977af9ba9b0f87ca,,,,,,,,,,,176.8489,177.3484,,,177.5989,178.1979,left,0.5942,,,,,,,,,0.1,,,,,,177.3485,177.5989,178.1979,"[0.15335786713302224,0.10024008319905456]",100.0,"[0.000013632176637240913,-0.16042491220112998]",4.0,"[0.084269650084539,0.1034507929646256]",4.0,"[-0.04301962769596818,-0.0803402334820883]",100.0,"[0.10713159263976439,-0.09842968599995493]",4.0,"[-0.041847767974101356,-0.16719896658918085]",4.0,"[-0.10750726507876057,-0.08480248738682183]",4.0,"[0.09756109466112917,0.05665440485093385]",4.0,"[-0.018392664987163153,0.14444282396880015]",4.0,"[0.16271550679005894,-0.043005762261936385]",4.0,"[0.09623242287524005,0.16114971703725553]",4.0,"[-0.054551476514246224,-0.008326309591498774]",4.0,"[0.044753996500387895,0.15813502847374947]",4.0,"[-0.06390782085529848,0.15049487835494935]",4.0,"[-0.02438551623506534,0.023077385741799423]",4.0,"[-0.0849293227138762,0.08004109582008512]",4.0,"[-0.007694392332280524,0.19797560371317638]",4.0,"[0.16838533924529578,-0.08587238343399323]",4.0,"[0.14446673779111427,-0.0018496303826238904]",4.0,"[-0.02324064901196124,0.0781493282290455]",4.0,"[-0.19880682674330202,0.0005198749660176892]",4.0,"[0.057913707940062946,0.027623028102057735]",4.0,"[0.07481227510927613,-0.1249053478325874]",4.0,"[-0.0998985929768529,0.1266616824442964]",4.0,"[-0.022148928125342703,-0.11503358325405115]",4.0,"[-0.15769521791769256,-0.03518169390251186]",4.0,"[-0.1676822147462351,-0.10745483681880871]",4.0,"[0.12146532349648381,0.12523654339294896]",4.0,"[0.027360697032932427,0.07711590001334721]",4.0,"[-0.18365095472518309,0.077391469852059]",100.0,"[-0.09143378526341459,-0.023836481956301843]",4.0,"[-0.06558700269356472,0.03754252061220125]",4.0,"[0.02,0.02]",179.2987,0.0,12.0,12.0,201.0,1.0,,,,,,,
,,,,,,,66031484603e46d7e3ae1864,6842bbdb347641f08b8be2d5,2025-06-06_12h59.24.237,shape_ratio,2024.1.5,Win32,60.97560976,6842b561977af9ba9b0f87ca,,,,,,,,,,,179.299,179.7986,,,180.0486,181.0648,right,1.0092,,,,,,,,,0.45,,,,,,179.7987,180.0485,181.0649,"[-0.10122795979382947,-0.09919323226980645]",100.0,"[0.028253890663466785,0.06060013226385165]",100.0,"[0.15768545419526392,0.1218799834333971]",4.0,"[0.01059166828841913,-0.14680777909998818]",4.0,"[0.061093212978161386,-0.16378399542925035]",100.0,"[0.11294414481038906,-0.1111913421012099]",4.0,"[-0.08318873358171198,-0.0462157963886123]",100.0,"[0.0571061926696859,0.12331289453631762]",4.0,"[0.11790907147617115,-0.06188333827834418]",4.0,"[-0.13791109627778225,0.004948213840638892]",4.0,"[-0.0037343998832218817,0.02768984202648999]",100.0,"[0.10830935982982774,0.019533005851174522]",4.0,"[-0.08947596021430664,-0.16024557373095208]",100.0,"[0.0009633193286352916,-0.19029312001841572]",4.0,"[0.019695298070907682,-0.031042703266040986]",100.0,"[-0.15345012498998578,0.0448662759668725]",100.0,"[-0.09555309318145745,0.02200188945822384]",4.0,"[-0.1758087364912013,-0.09175663515339329]",4.0,"[0.05913183341623084,-0.0055783167066590185]",4.0,"[-0.1627543356124897,-0.03240723247424355]",4.0,"[0.16099791466604976,0.0796202236593314]",4.0,"[-0.14705711761299634,0.09340606525283644]",100.0,"[-0.04608675398003255,0.06111009450088501]",4.0,"[-0.04742364675270882,-0.1925728082666427]",4.0,"[-0.14077353010850086,-0.13785962894936266]",100.0,"[0.18425611883746612,-0.04308233333798976]",4.0,"[0.10782570761553965,0.10468372131326664]",100.0,"[-0.03927827922578147,0.18371627996467232]",100.0,"[-0.12029368375924494,0.14603769368010006]",100.0,"[-0.013210947181261257,-0.11171846197079159]",100.0,"[-0.017323950507841215,-0.05972333818596254]",4.0,"[0.09093116762995719,0.06724381967223349]",4.0,"[0.02,0.02]",182.1648,0.0,13.0,13.0,130.0,1.0,,,,,,,
,,,,,,,66031484603e46d7e3ae1864,6842bbdb347641f08b8be2d5,2025-06-06_12h59.24.237,shape_ratio,2024.1.5,Win32,60.97560976,6842b561977af9ba9b0f87ca,,,,,,,,,,,182.1651,182.6648,,,182.9145,184.0647,right,1.1339,,,,,,,,,0.1,,,,,,182.6648,182.9145,184.0648,"[0.06135233254745485,-0.006806308624892718]",4.0,"[-0.06516508031309148,0.0567531455961248]",4.0,"[-0.00923639401575707,-0.15732520106546036]",4.0,"[0.018069774280201012,0.18218443403927514]",4.0,"[-0.029607729724783812,-0.07708591615527072]",4.0,"[0.025931640516819225,-0.05192900717115084]",4.0,"[-0.12719669567729056,0.12497531564991374]",4.0,"[0.09870355900560027,-0.1587966359653183]",4.0,"[-0.0878141826226971,0.1146562001356394]",4.0,"[-0.06297479911881673,0.1531124590862976]",4.0,"[-0.15060894972399058,0.003832851730007647]",4.0,"[-0.12495287879185568,-0.08999573114227508]",4.0,"[0.014880066656699137,-0.00486206136459668]",4.0,"[0.17143480363801658,-0.08933988663639734]",4.0,"[0.042392778785765715,-0.1514474404642348]",4.0,"[0.006528943784840572,0.08828886246891939]",4.0,"[-0.036507954798743296,-0.018330542119201064]",4.0,"[0.0943333742346258,0.14787308501833316]",4.0,"[0.13648737299424157,-0.018572805564492766]",4.0,"[0.17162653595450364,0.08234536103036386]",4.0,"[0.019875704756915698,-0.11171959837458977]",4.0,"[0.07879017134428935,-0.11664916050990232]",4.0,"[-0.15813097608178384,-0.0612574621416857]",100.0,"[-0.09680938377777802,0.014621342524201997]",100.0,"[-0.11075764331647765,-0.04979652011388306]",4.0,"[-0.07334529267702135,-0.06664233220941387]",4.0,"[0.11020796169838785,-0.06410698368002717]",4.0,"[0.03449458130248545,0.04458772400220796]",4.0,"[0.17681410745499662,-0.010908187914318133]",4.0,"[-0.05283368181663144,0.09517122377765354]",100.0,"[-0.017179996506838005,0.026905952369502155]",4.0,"[-0.08569130724280742,-0.16065514743121403]",4.0,"[0.02,0.02]",185.1645,0.0,14.0,14.0,209.0,1.0,,,,,,,
,,,,,,,66031484603e46d7e3ae1864,6842bbdb347641f08b8be2d5,2025-06-06_12h59.24.237,shape_ratio,2024.1.5,Win32,60.97560976,6842b561977af9ba9b0f87ca,,,,,,,,,,,185.1649,185.664,,,185.9138,186.5976,right,0.676,,,,,,,,,0.45,,,,,,185.664,185.9138,186.5977,"[-0.11309072928837607,0.1370775183865381]",4.0,"[0.034057655158437734,0.059897398061374424]",4.0,"[0.105998129287194,-0.02165148047430452]",4.0,"[-0.06350048969613403,-0.06266851230350762]",100.0,"[0.12851358880276442,0.06680033446498701]",4.0,"[0.04848158800724296,-0.0741395081435828]",100.0,"[0.09606166941787167,0.13577362550453928]",4.0,"[-0.15786100085916505,-0.005581036033861777]",4.0,"[0.05391419276182714,0.17960346944985658]",4.0,"[0.09523168028993471,-0.12436601297281231]",100.0,"[-0.09303948005965583,-0.023010887732317815]",4.0,"[-0.010896405959509498,0.023345404830929242]",4.0,"[0.002983192641891332,0.1479398133476702]",4.0,"[-0.03691394173770228,-0.01789268146081287]",100.0,"[-0.0771222485460443,-0.1573903232886494]",100.0,"[-0.01777058617191189,0.08059299139556984]",4.0,"[-0.11381829903526632,0.03806661831174763]",100.0,"[-0.13572673107525635,-0.06892842397676423]",4.0,"[-0.17195555339459917,0.07739757224766936]",100.0,"[-0.011299572203869433,-0.13531739469780762]",4.0,"[0.06097047145910423,0.02041609761946078]",100.0,"[0.04686718672473272,-0.019118478628274163]",4.0,"[0.0657877702105934,-0.165598607868762]",4.0,"[0.13343567526742503,-0.0756855006104544]",100.0,"[0.057506620588977014,0.1248575430406084]",4.0,"[-0.1956256716388436,0.034346688565740115]",100.0,"[0.15689828475015835,-0.042113491486611296]",100.0,"[-0.10020371297726191,0.0822136320571815]",4.0,"[-0.14907473748534833,-0.10842831936910799]",4.0,"[-0.019041254955825346,-0.07955246728248244]",100.0,"[0.14449640189563043,0.01674765574483265]",100.0,"[0.12733051370432485,-0.15265391838792744]",100.0,"[0.02,0.02]",187.6975,0.0,15.0,15.0,149.0,1.0,,,,,,,
,,,,,,,66031484603e46d7e3ae1864,6842bbdb347641f08b8be2d5,2025-06-06_12h59.24.237,shape_ratio,2024.1.5,Win32,60.97560976,6842b561977af9ba9b0f87ca,,,,,,,,,,,187.6978,188.1976,,,188.4468,188.997,right,0.5332,,,,,,,,,0.55,,,,,,188.1976,188.4468,188.9971,"[-0.05742871800438496,0.006901020558652745]",4.0,"[-0.18404311483101937,-0.06941432781425916]",4.0,"[0.0621853782557998,-0.000898341316605089]",100.0,"[-0.06903131706953064,-0.03529109247635062]",100.0,"[-0.09552150868679891,-0.07550186814346578]",100.0,"[0.00618542361021876,0.14655227739641258]",100.0,"[0.01774984685405337,-0.05008468099630329]",100.0,"[0.05745469028015896,-0.0947826479847218]",100.0,"[-0.05193434927304042,-0.11617103302699446]",100.0,"[-0.13331426232347404,-0.024055917843908]",100.0,"[-0.11418407036100166,0.021112399756878408]",100.0,"[0.0326039966096177,0.05637285311494605]",4.0,"[0.15405106136013746,-0.03422731638835244]",4.0,"[0.02555689597334727,-0.17411531225264532]",4.0,"[-0.04441797633356347,-0.18711143904758373]",4.0,"[-0.06501502327921706,0.1815470053828352]",100.0,"[0.026276565711720382,-0.12654048149400776]",4.0,"[0.10209901764183797,0.004849356462451356]",4.0,"[-0.1692023405992121,0.06144062494863929]",100.0,"[-0.09002505110063562,0.1319281401020331]",100.0,"[0.08852976938144638,0.15576919665101904]",4.0,"[0.09450123326361774,0.08694618668302825]",100.0,"[-0.14160201901045125,0.1342959535505119]",100.0,"[-0.17108515389497575,0.004574765452124037]",100.0,"[-0.005166912914129633,0.027080978223354146]",4.0,"[-0.08061461270933001,-0.15259924035083453]",100.0,"[0.0851032306955701,-0.1265124096725487]",4.0,"[-0.06096832282784099,0.09959321210129837]",100.0,"[0.0859392376247276,0.045383517926321254]",4.0,"[-0.1373082107098231,-0.09112235053629539]",4.0,"[0.03204733148297463,0.10894255859699697]",4.0,"[0.13823782045013275,0.0586042093813542]",100.0,"[0.02,0.02]",190.097,0.0,16.0,16.0,87.0,1.0,,,,,,,
,,,,,,,66031484603e46d7e3ae1864,6842bbdb347641f08b8be2d5,2025-06-06_12h59.24.237,shape_ratio,2024.1.5,Win32,60.97560976,6842b561977af9ba9b0f87ca,,,,,,,,,,,190.0974,190.5969,,,190.8463,191.4136,left,0.5601,,,,,,,,,0.55,,,,,,190.5969,190.8462,191.4136,"[0.09899877876890616,-0.08359040273771078]",100.0,"[0.019855891094522737,0.020913490061965814]",4.0,"[0.04436261263680965,-0.17987809137818042]",100.0,"[0.11557419230094296,0.048938835661644225]",4.0,"[-0.12411740293379152,0.032056343298102356]",4.0,"[0.047341836716545065,0.08060859696182403]",100.0,"[-0.05954306786723407,-0.12131107599563504]",4.0,"[0.058333712821005954,-0.027672691432144462]",100.0,"[-0.06757341932271405,-0.022542436503826566]",4.0,"[0.1477696449816459,-0.048914151111574405]",100.0,"[-0.079877100717573,-0.17504183252861627]",100.0,"[-0.16091180604689465,-0.02706339633872688]",4.0,"[-0.10355045690331045,0.10287561365097647]",100.0,"[-0.14936671108975982,-0.0901554479899978]",100.0,"[0.09740147720912032,-0.007059099699117531]",100.0,"[-0.03627341650793032,0.0038146958187500308]",4.0,"[0.06945871820199154,0.030913218371904548]",4.0,"[0.007485214432529158,-0.1557730141415648]",100.0,"[-0.0818240016599599,0.022710497562066025]",100.0,"[-0.02635270317906855,0.09011860384997136]",100.0,"[0.05574212094732031,-0.07265442681451291]",100.0,"[-0.11858539838578577,-0.13681547515669226]",100.0,"[0.16143602126792733,0.003805145068661126]",100.0,"[0.18027504364346703,0.044040198984324076]",100.0,"[0.12208175461462335,0.15344521304333697]",4.0,"[0.07589435105750206,0.13797833022622558]",4.0,"[-0.06090916001618816,0.18580554468145905]",4.0,"[-0.0491247327715034,-0.06550578321123168]",4.0,"[0.09115932903272714,-0.1458473127031572]",100.0,"[0.023833095340382592,0.1265713440611164]",4.0,"[-0.1739542589572357,0.05143641289209976]",4.0,"[-0.14792179652801637,0.12146223973725845]",100.0,"[0.02,0.02]",192.5132,0.0,17.0,17.0,71.0,1.0,,,,,,,
,,,,,,,66031484603e46d7e3ae1864,6842bbdb347641f08b8be2d5,2025-06-06_12h59.24.237,shape_ratio,2024.1.5,Win32,60.97560976,6842b561977af9ba9b0f87ca,,,,,,,,,,,192.5137,193.0134,,,193.2634,193.78,right,0.5022,,,,,,,,,0.6,,,,,,193.0135,193.2634,193.7801,"[0.19087600927835469,-0.04032373988135719]",100.0,"[-0.1313346037913414,0.08252027253069984]",100.0,"[0.13814129995093588,0.0289527697614237]",4.0,"[0.012857085002458121,-0.0956032094787873]",4.0,"[0.0009592562653891341,0.12772923476631018]",4.0,"[0.020997145460380423,0.04314195328993122]",100.0,"[-0.0917354332277681,0.12597878783506658]",100.0,"[0.10372240929463918,-0.08063185757565187]",100.0,"[0.03661398208628303,-0.1544420146270813]",4.0,"[-0.08442888893763513,0.04312137815411229]",4.0,"[0.051222326262422166,-0.025974546751634357]",100.0,"[0.06681861600127104,0.047617843158258503]",4.0,"[0.13503876020992828,0.10920993646757969]",100.0,"[-0.030163738119247285,-0.050501596305538785]",100.0,"[-0.07822020418325372,-0.040370968654466356]",100.0,"[0.09249105348092253,-0.12709175240967407]",100.0,"[0.04249436961765301,0.10145669729466006]",100.0,"[0.10804160876857154,0.07262516096122237]",4.0,"[-0.01908249089590187,0.18862636548424472]",100.0,"[-0.1530389843622245,0.02718994903582892]",100.0,"[-0.12881504930214377,-0.07922009918510939]",4.0,"[-0.07250969453984189,-0.12546183472448183]",100.0,"[0.06492376583931858,-0.0655818652600923]",4.0,"[-0.13317729756519806,0.1453061156870725]",4.0,"[-0.09107029794800602,-0.16779651656500288]",100.0,"[-0.045747923668652254,0.009301424775029857]",100.0,"[0.14888301294395595,-0.08012080536481983]",100.0,"[0.09490697785098595,-0.037499692220572534]",4.0,"[-0.029778022800435375,-0.15596455717082]",100.0,"[0.13638122310343412,-0.032423687212137696]",100.0,"[-0.15353561214506117,-0.041451077350667685]",4.0,"[0.0777759575395389,0.14485079438525494]",4.0,"[0.02,0.02]",194.8795,0.0,18.0,18.0,46.0,1.0,,,,,,,
,,,,,,,66031484603e46d7e3ae1864,6842bbdb347641f08b8be2d5,2025-06-06_12h59.24.237,shape_ratio,2024.1.5,Win32,60.97560976,6842b561977af9ba9b0f87ca,,,,,,,,,,,194.8798,195.3791,,,195.6293,196.2627,left,0.6279,,,,,,,,,0.9,,,,,,195.3791,195.6293,196.2628,"[-0.03947499246867821,0.06494239859579459]",100.0,"[-0.00404226307193325,-0.03332509590741824]",100.0,"[0.1216628071475872,-0.10394872666560347]",100.0,"[-0.10528582645764832,0.02013199302148136]",100.0,"[-0.019126329625592773,-0.09856002814576849]",100.0,"[0.03524676273755943,0.04700774404392645]",100.0,"[0.07573193796627851,0.10703245816958348]",100.0,"[0.03338162945410686,-0.16947514680109382]",100.0,"[-0.005388009742020305,0.09881903231445364]",100.0,"[-0.10475738415147834,-0.15670020874051077]",100.0,"[-0.051199433205970014,0.025231214525579235]",4.0,"[0.12904431253158608,0.14199190069023535]",100.0,"[0.17972316148028777,-0.02959614894834544]",100.0,"[0.07781961936452418,-0.09369506428564556]",100.0,"[-0.09265341254791563,0.08550749390756544]",4.0,"[-0.11374084648783406,-0.03343104400362989]",100.0,"[-0.052821850512610735,-0.144134675500118]",100.0,"[-0.11819585987482968,0.14248786424578025]",100.0,"[-0.144362948652029,0.09786014699820132]",100.0,"[0.15544657613704552,0.01673359739472862]",100.0,"[0.13072326870322454,0.059279473723416756]",100.0,"[0.03041636098113927,0.14378756249695698]",100.0,"[0.021848383593696195,-0.08345963257485522]",100.0,"[-0.1517055548340006,-0.08831833271934225]",100.0,"[0.07004921595115068,0.009380494596314518]",4.0,"[-0.07931957365429237,0.15653603659038606]",100.0,"[-0.09851235773368075,-0.08015671950831699]",100.0,"[0.058488958895572145,-0.13553848117116699]",100.0,"[-0.19145883645082787,-0.006597254214974283]",100.0,"[0.0633571853114047,0.18533934126444399]",100.0,"[-0.02458574732409319,0.17785866953580928]",100.0,"[-0.054790790767570874,0.10382618496448962]",100.0,"[0.02,0.02]",197.3625,0.0,19.0,19.0,8.0,1.0,,,,,,,
,,,,,,,66031484603e46d7e3ae1864,6842bbdb347641f08b8be2d5,2025-06-06_12h59.24.237,shape_ratio,2024.1.5,Win32,60.97560976,6842b561977af9ba9b0f87ca,,,,,,,,,,,197.3628,197.8624,,,198.113,199.0123,left,0.8839,,,,,,,,,0.55,,,,,,197.8624,198.113,199.0123,"[-0.027220856467782512,-0.16050737681079288]",4.0,"[-0.047745708819331274,-0.10368997977127198]",4.0,"[-0.13846307539355307,-0.05341666347429893]",4.0,"[0.16646092186438363,0.09385485620455608]",100.0,"[0.057359329117196906,0.14329105522278257]",100.0,"[0.10234524217441252,-0.10771599480093373]",4.0,"[-0.00463477098341196,0.1095239161497378]",4.0,"[0.11469314598392452,0.1499629674282494]",100.0,"[0.008650020653421834,-0.021702359544405848]",100.0,"[0.01269462335064853,-0.12204982919350944]",100.0,"[0.12006006192188345,0.0220473263900193]",100.0,"[-0.02069212863855243,0.06466498436010812]",4.0,"[0.062261506054509766,-0.17787475064527583]",100.0,"[-0.1576632648688412,-0.10034226849939368]",100.0,"[0.06405937548776285,-0.0698726338152168]",4.0,"[-0.1872802456604943,0.04386054659024775]",100.0,"[-0.14561913571587848,0.10676781447671027]",100.0,"[0.11275226906724126,0.10488907057665699]",100.0,"[-0.08800792705273125,-0.12681398171950806]",4.0,"[0.11738506887541143,-0.035959670206604524]",100.0,"[0.1788079220705463,0.042990651360510786]",4.0,"[-0.13359658019153456,0.03567642810339642]",100.0,"[-0.10148168931765573,0.0745272503657529]",4.0,"[0.1280177036291248,-0.1493115297048232]",100.0,"[-0.0457082838672665,0.0002513752292522734]",4.0,"[0.19861166862042642,-0.0018350692918012005]",100.0,"[0.056794227831966124,-0.1283337207643864]",100.0,"[0.012381653054723453,0.17069496230125525]",100.0,"[0.17356354225085543,-0.09780873881863157]",4.0,"[0.07077076174968333,0.028530767069641794]",4.0,"[-0.09674354435919402,0.12242721779801083]",4.0,"[0.08191596694423586,0.07540993087897115]",100.0,"[0.02,0.02]",200.1118,0.0,20.0,20.0,76.0,1.0,,,,,,,
,,,,,,,66031484603e46d7e3ae1864,6842bbdb347641f08b8be2d5,2025-06-06_12h59.24.237,shape_ratio,2024.1.5,Win32,60.97560976,6842b561977af9ba9b0f87ca,,,,,,,,,,,200.1121,200.6121,,,200.8621,201.3614,right,0.4955,,,,,,,,,0.9,,,,,,200.6121,200.8621,201.3614,"[-0.16629802039186922,0.04267466787114477]",100.0,"[0.004264049313135061,-0.08500941047889761]",100.0,"[-0.03178603350245735,0.009147623915933562]",100.0,"[-0.10712920232815482,0.07390609970952942]",100.0,"[-0.028635880113371592,0.13056823503826445]",100.0,"[0.15380285387561551,-0.029298721824206113]",100.0,"[0.03402061053303557,-0.13657486366779456]",100.0,"[-0.12241530895570656,-0.12649239685057256]",100.0,"[0.04253734477535243,-0.04006956116828012]",100.0,"[0.12341754084068324,-0.1099460284636319]",100.0,"[-0.0771833310382751,0.01896574455774234]",4.0,"[0.11508813348549628,-0.010333264015540659]",100.0,"[0.06728932722695168,-0.08731689858185315]",100.0,"[0.16204616411557343,0.08611898300432924]",4.0,"[0.0946929886875356,-0.16397974482249797]",100.0,"[0.053029678566390376,0.04783083765952198]",100.0,"[0.09980886795854682,0.03351947451730272]",100.0,"[-0.1097975771942061,-0.0832458081105164]",100.0,"[0.04060439899417628,0.11785516267683424]",100.0,"[0.09150798004496913,0.1599787486934267]",100.0,"[0.020315188777437276,0.017173908276528954]",100.0,"[-0.00846066816776081,0.19029573479633075]",100.0,"[-0.05189280392429644,-0.12293076662708127]",100.0,"[0.19040148814175623,0.027293298733882643]",100.0,"[0.044702898383226976,0.16900359213003224]",100.0,"[-0.1512919002606709,-0.054577383882389564]",100.0,"[0.12854755185508682,0.06307858565601786]",100.0,"[-0.10027682464619417,0.1475331242949016]",100.0,"[-0.019119170083653936,-0.15390965169144913]",100.0,"[0.12916946621387027,0.12022332728176761]",100.0,"[-0.055999000540309235,-0.03851696545335359]",4.0,"[-0.06638117903359224,0.18765276345678011]",100.0,"[0.02,0.02]",202.4614,0.0,21.0,21.0,9.0,1.0,,,,,,,
,,,,,,,66031484603e46d7e3ae1864,6842bbdb347641f08b8be2d5,2025-06-06_12h59.24.237,shape_ratio,2024.1.5,Win32,60.97560976,6842b561977af9ba9b0f87ca,,,,,,,,,,,202.4616,202.9619,,,203.212,203.7281,right,0.5027,,,,,,,,,0.9,,,,,,202.9619,203.2119,203.7282,"[-0.021260272897989742,-0.1517105016156279]",100.0,"[-0.12933300820436336,-0.14618945015692686]",100.0,"[0.12279686949073945,0.03842154795075942]",100.0,"[-0.015391113951981353,0.04642544339209109]",100.0,"[-0.113523464525457,0.08735371941461095]",100.0,"[0.15951478512509032,0.0008141094270395661]",100.0,"[0.05337814453338591,-0.12219776078271237]",100.0,"[-0.16149590410783943,-0.11792087294849712]",4.0,"[0.14510942583573647,-0.04701275540931707]",100.0,"[-0.022159451815975437,0.1829931285484598]",100.0,"[0.05275220135599849,0.07014323967120879]",100.0,"[0.08100419759402454,0.0032616887365351363]",100.0,"[0.008170001759651751,-0.036509731770439265]",100.0,"[0.00963674363719454,-0.19829096933080181]",100.0,"[0.06487050199922356,-0.05979538962957659]",100.0,"[-0.0735097330156778,-0.06994691740113139]",100.0,"[-0.0770895735002523,-0.007648439915576937]",100.0,"[-0.1632585005761197,-0.021211207442879396]",100.0,"[0.09587653127061288,0.11279654805352964]",100.0,"[0.1871345384835112,0.0470634882841088]",100.0,"[-0.0827822329565324,-0.16173908081369165]",100.0,"[0.018108094608732687,0.10491124521966094]",100.0,"[-0.07881158711904111,0.05537536951233678]",4.0,"[-0.1572939045168604,-0.06660224411667683]",100.0,"[0.0786903532929203,0.17226075498440038]",100.0,"[-0.1465036421296487,0.03476929388769352]",100.0,"[-0.06805108449144223,-0.11682286057076388]",4.0,"[-0.06441092744992427,0.09478508366243363]",100.0,"[-0.08404475136179404,0.14747488627558517]",100.0,"[0.12132702246002414,-0.13427167373623916]",100.0,"[-0.17182209618738692,0.06892518070146918]",100.0,"[0.15869802277729933,-0.08721520736927578]",100.0,"[0.02,0.02]",204.828,0.0,22.0,22.0,10.0,1.0,,,,,,,
,,,,,,,66031484603e46d7e3ae1864,6842bbdb347641f08b8be2d5,2025-06-06_12h59.24.237,shape_ratio,2024.1.5,Win32,60.97560976,6842b561977af9ba9b0f87ca,,,,,,,,,,,204.8284,205.3277,,,205.5781,205.9943,right,0.4074,,,,,,,,,0.5,,,,,,205.3278,205.578,205.9943,"[-0.042794779670747275,-0.007395730889294438]",4.0,"[-0.12111481617460783,0.15095905194152778]",100.0,"[0.08398772461464823,-0.014417041823344308]",4.0,"[0.02618629424975317,0.18039632144019058]",100.0,"[0.16688555003956201,0.04662878122936098]",100.0,"[0.14838935261349764,0.12792147546604743]",4.0,"[-0.04968794841924402,0.05212729982895769]",100.0,"[0.061365368485877154,0.1254270831874442]",100.0,"[-0.010849546494923624,0.14292870041671832]",100.0,"[-0.1361051958661486,-0.13127432302156514]",4.0,"[-0.12124899710762047,0.03234641281975825]",100.0,"[-0.16234731643477135,-0.011834420924978772]",4.0,"[0.1091262461408808,-0.08090642093225887]",100.0,"[0.026299121866896414,0.0675925346035895]",100.0,"[0.176344718264393,-0.07516772291069047]",4.0,"[-0.07336172538332844,-0.049540353521002306]",4.0,"[0.10228253308940813,0.05375770077573918]",100.0,"[-0.10971039351350716,0.1125661869773095]",100.0,"[-0.03685390830316571,-0.13412627030643737]",4.0,"[0.024801676929227034,0.010280005055305361]",4.0,"[0.05201849751692538,-0.17379605234076825]",100.0,"[0.12283014985208478,-0.12245951529281572]",4.0,"[0.013434131832657153,-0.11784813064096067]",4.0,"[0.12896944145941136,-0.012729172446251045]",100.0,"[-0.14224639015621288,-0.05509330609580596]",4.0,"[0.01000276367161853,-0.03709863437706093]",100.0,"[-0.0625240082121469,-0.09976671100621264]",100.0,"[0.042545461358744346,-0.08524686989466242]",4.0,"[-0.02672938834844163,0.18845306277325427]",4.0,"[-0.10553673643168587,-0.008639448336725877]",100.0,"[0.1035902629252082,0.1366154052119894]",4.0,"[-0.10357845922166922,-0.1574889112298322]",4.0,"[0.02,0.02]",207.0944,0.0,23.0,23.0,115.0,1.0,,,,,,,
,,,,,,,66031484603e46d7e3ae1864,6842bbdb347641f08b8be2d5,2025-06-06_12h59.24.237,shape_ratio,2024.1.5,Win32,60.97560976,6842b561977af9ba9b0f87ca,,,,,,,,,,,207.0948,207.5945,,,207.8445,208.661,right,0.8018,,,,,,,,,0.4,,,,,,207.5945,207.8444,208.661,"[0.14736070224592343,0.08535675216197915]",100.0,"[0.05821256625944472,0.13204661015199093]",100.0,"[-0.1154054341495488,0.02063380736562598]",100.0,"[-0.04362598894676852,-0.07771745827650128]",100.0,"[-0.08972555822022665,-0.11722120664567298]",4.0,"[-0.01997403169774099,-0.14124749120707564]",4.0,"[-0.08350935065294045,-0.005091149504211698]",4.0,"[0.17879018892353446,-0.036147308072291974]",4.0,"[-0.17289633135414414,0.06191176503049389]",4.0,"[0.1374802347310439,-0.041638622575869796]",4.0,"[0.12392427454799139,-0.13398585123017023]",100.0,"[0.0268625239335828,-0.03151289335323435]",100.0,"[0.08520987599485413,-0.14567572217979258]",4.0,"[-0.04870471379432088,-0.028406450217352615]",4.0,"[-0.14595105770058348,-0.016460622718918617]",100.0,"[-0.08470481617957135,0.08247986287320372]",100.0,"[0.06237739949812105,0.017771081341615633]",4.0,"[0.03202393790613102,0.08321463636289189]",4.0,"[0.03251343546816112,-0.09517055821412697]",4.0,"[0.0185831930564783,-0.18487069766974784]",4.0,"[-0.1432014951435261,-0.09058141280773649]",100.0,"[-0.18650979461205988,0.016672738181200686]",100.0,"[-0.0887204879507616,-0.17255417420724353]",100.0,"[0.042482227950375734,0.193050614170643]",4.0,"[-0.024315310776661353,0.1073489771908436]",4.0,"[0.0850995870502747,-0.04767383890047143]",4.0,"[0.14873093357285339,0.03254202447434893]",100.0,"[0.09759515574961082,0.05628516769667745]",4.0,"[0.13638816942984328,0.14225753967241087]",4.0,"[-0.049672208302360514,-0.19000092675875468]",100.0,"[-0.008368472829209949,0.18030540254127256]",4.0,"[-0.04412984422126087,0.03190255235573938]",4.0,"[0.02,0.02]",209.7606,0.0,24.0,24.0,170.0,1.0,,,,,,,
,,,,,,,66031484603e46d7e3ae1864,6842bbdb347641f08b8be2d5,2025-06-06_12h59.24.237,shape_ratio,2024.1.5,Win32,60.97560976,6842b561977af9ba9b0f87ca,,,,,,,,,,,209.761,210.2603,,,210.511,210.8934,left,0.3658,,,,,,,,,0.5,,,,,,210.2603,210.511,210.8935,"[-0.08568947461526755,0.0301884043464384]",100.0,"[-0.17704572136540295,-0.08583171745541754]",100.0,"[0.04665615475704396,0.06866011957548088]",100.0,"[-0.013178898655810858,-0.12452396145741358]",100.0,"[-0.10330190373625207,-0.15543123015545549]",4.0,"[0.0726697780072345,0.10651994091040388]",100.0,"[-0.12781258524021,0.047561189526789206]",100.0,"[-0.15445127026671124,0.11689761080567791]",4.0,"[-0.12992833513965574,-0.05561636094855602]",4.0,"[0.14717151712853146,-0.05895386076257104]",4.0,"[0.12076807621543018,-0.01190663687918302]",100.0,"[0.12038680492196326,0.14265130986295746]",100.0,"[0.003966750038221073,0.01277881494047475]",100.0,"[-0.061384895620390977,-0.12110106019755983]",100.0,"[0.01270131331901455,-0.19333795849883156]",4.0,"[0.028127067495248275,-0.13755308507890165]",100.0,"[0.11807631223066825,0.055750804990795835]",100.0,"[-0.1877253970306718,0.045343390614640544]",100.0,"[-0.005083164869213013,-0.06123668928154203]",4.0,"[-0.046314730009247455,-0.03373921375125251]",100.0,"[0.008608390311635824,0.19411571609487718]",4.0,"[-0.07776403399586491,0.1244619631631201]",4.0,"[0.06114884210725945,0.010590173586380541]",4.0,"[-0.042199726854984694,-0.1712740914235471]",4.0,"[0.1550907768232829,0.08336119127588652]",100.0,"[0.16047039692600729,-0.11187807494902624]",100.0,"[-0.18998729903646455,-0.030685667227081045]",4.0,"[0.03380894892309382,0.1358965484271948]",4.0,"[0.047554692449998714,-0.0804189144868441]",4.0,"[0.08372058094259842,-0.037091235906838535]",4.0,"[-0.03363304808076048,0.09708225572664836]",4.0,"[-0.1170170149926935,0.1006987654558321]",4.0,"[0.02,0.02]",211.9932,0.0,25.0,25.0,107.0,1.0,,,,,,,
,,,,,,,66031484603e46d7e3ae1864,6842bbdb347641f08b8be2d5,2025-06-06_12h59.24.237,shape_ratio,2024.1.5,Win32,60.97560976,6842b561977af9ba9b0f87ca,,,,,,,,,,,211.9934,212.4937,,,212.7441,213.1933,left,0.4352,,,,,,,,,0.4,,,,,,212.4938,212.744,213.1933,"[0.12127955583844242,-0.1161226328823681]",4.0,"[0.045193385016360395,0.11605337177673278]",4.0,"[0.06441339188288278,0.018747088911755066]",4.0,"[0.0521961652666257,-0.06033978255091242]",4.0,"[-0.02702551871111147,-0.03768098159138743]",4.0,"[0.19553957506491293,-0.03527322083781235]",100.0,"[0.00008709106070711083,0.18372307650317796]",4.0,"[0.14336485450754477,-0.013414127114429346]",4.0,"[0.10468064722038073,0.1562277754815498]",100.0,"[0.04125756684923771,-0.014420812445732862]",100.0,"[0.018498922962409525,0.022177787138246356]",4.0,"[-0.13884931172530385,0.11228797912672088]",100.0,"[0.18319608277148425,-0.0754851746788104]",100.0,"[-0.14592128249189096,-0.10247069566230561]",100.0,"[-0.07231297878896213,-0.12031740468812589]",4.0,"[-0.11468855125504868,0.15075754610721492]",100.0,"[-0.061080595604465104,-0.17447485079265293]",4.0,"[-0.18430780760586543,-0.04360453751058252]",100.0,"[0.017907384301717476,-0.15066496481497807]",4.0,"[-0.07909008396961685,0.0376659460431058]",4.0,"[0.1472968366194038,0.034044545024007146]",100.0,"[-0.07609036452467838,0.10193364866928033]",4.0,"[-0.050159172759392245,0.16077209264922165]",4.0,"[-0.08832834509761409,-0.04227689028181749]",4.0,"[-0.054708262319424245,-0.07617555223067246]",4.0,"[0.12121209503592098,-0.06368236551372682]",100.0,"[0.0791684718670849,-0.14558293655230953]",100.0,"[-0.14404853303024845,-0.025607544541835045]",4.0,"[-0.1927778674015387,0.016930175599655057]",100.0,"[0.013423496082553778,0.06709915107338399]",4.0,"[-0.12693639604981907,0.07047860776596167]",100.0,"[0.04144939458998406,-0.10717153553936347]",4.0,"[0.02,0.02]",214.2937,0.0,26.0,26.0,151.0,1.0,,,,,,,
,,,,,,,66031484603e46d7e3ae1864,6842bbdb347641f08b8be2d5,2025-06-06_12h59.24.237,shape_ratio,2024.1.5,Win32,60.97560976,6842b561977af9ba9b0f87ca,,,,,,,,,,,214.294,214.793,,,215.0431,215.7934,right,0.7381,,,,,,,,,0.55,,,,,,214.7931,215.043,215.7935,"[-0.042835288936911714,0.1458233803181492]",4.0,"[0.11937636927746834,-0.03928456535049488]",4.0,"[-0.11590128856575971,0.05553580184857012]",4.0,"[0.08897962960926946,0.13264907439158966]",100.0,"[-0.15786175590709906,0.07077415335848987]",4.0,"[-0.02593242178742286,-0.07765558358276224]",4.0,"[0.012185411601695766,-0.12958361114719782]",4.0,"[0.09446841362256474,-0.004346623124434865]",100.0,"[0.01811040698702199,0.0026903759834623893]",100.0,"[-0.11969003231007766,0.09672302463466939]",100.0,"[0.07733445608422768,0.09165951237211503]",100.0,"[-0.19408942371309099,-0.008042774029905357]",4.0,"[0.05468189873872938,-0.1210589916428607]",100.0,"[-0.018452405277002763,-0.1833659251720792]",100.0,"[0.16095476167360567,0.003370568101992227]",4.0,"[0.03731510493666734,-0.1720249079591321]",4.0,"[0.001798133943152671,0.10721386392229082]",4.0,"[0.14133858536876093,-0.11675307544089915]",100.0,"[-0.09314444575176768,-0.16908025761689185]",100.0,"[0.08366676001086276,-0.07125417471217459]",100.0,"[-0.13726543088041454,0.01686589959801254]",100.0,"[-0.02171843088425635,0.03293640144828091]",100.0,"[-0.13453471111656454,-0.1454315489279176]",100.0,"[-0.0643472371455299,0.06332182147500544]",100.0,"[0.12169694724627361,0.09105482875516241]",4.0,"[-0.17073918381801473,-0.07955309807438865]",100.0,"[0.1485561696222138,0.06050380464585474]",4.0,"[0.1368047777282928,0.13885984967373277]",4.0,"[0.07266758677368018,0.041647905188337435]",100.0,"[-0.07899313776272282,-0.0926719329200338]",100.0,"[0.039420449025233076,0.13181622666185625]",4.0,"[-0.08255023770305481,0.17326072239289744]",100.0,"[0.02,0.02]",216.8931,0.0,27.0,27.0,61.0,1.0,,,,,,,
,,,,,,,66031484603e46d7e3ae1864,6842bbdb347641f08b8be2d5,2025-06-06_12h59.24.237,shape_ratio,2024.1.5,Win32,60.97560976,6842b561977af9ba9b0f87ca,,,,,,,,,,,216.8936,217.3927,,,217.6431,218.4431,left,0.782,,,,,,,,,0.45,,,,,,217.3928,217.6431,218.4432,"[-0.11745000940228942,-0.1290819197631014]",100.0,"[0.030633325151881614,0.07936871452714006]",4.0,"[0.1417766323364841,0.11170990659528489]",4.0,"[0.15388751757724076,0.0001622397413412648]",4.0,"[-0.003476101832488325,0.16909934834162232]",100.0,"[0.0731270045254893,-0.11214415288864563]",4.0,"[-0.06462180861890988,0.1592181856589279]",4.0,"[0.05992603987468728,0.15793631462074653]",100.0,"[0.08538080639527132,0.04685412377043466]",4.0,"[-0.07700729415165264,-0.10982715017814332]",4.0,"[-0.048972738372529225,-0.1611375667211864]",100.0,"[-0.16759230608179446,-0.08745331453105393]",100.0,"[-0.07349765987032122,-0.025523362786356314]",4.0,"[-0.18411527280749998,0.017807697603113935]",100.0,"[-0.10671666637147435,-0.06420184938140341]",100.0,"[0.08860667108881405,-0.05586103325827877]",4.0,"[0.09019857149889021,0.08928269854667073]",100.0,"[-0.1079982024872513,0.07524550051307759]",4.0,"[-0.01504455724616244,-0.03619684819686973]",100.0,"[0.07220852698780941,-0.018292276358705627]",100.0,"[0.11923706380919402,-0.08503793525695968]",4.0,"[0.11763825099215738,-0.1321871900232176]",4.0,"[-0.030210043467148836,0.09090098207652933]",4.0,"[0.14156184132084285,0.0713426358508042]",100.0,"[-0.00212608023715788,0.022213925624907916]",100.0,"[-0.11123933352389452,0.1253343088069409]",4.0,"[0.17947987078979208,-0.07587643461607557]",100.0,"[-0.16755392330994862,0.08698138173264415]",4.0,"[0.05228554101079767,-0.19161553732623082]",4.0,"[-0.08482169215432128,0.0178048255209651]",4.0,"[0.030161130957430754,-0.054946812881360024]",4.0,"[0.13758700295288118,-0.037136464959747525]",100.0,"[0.02,0.02]",219.5427,0.0,28.0,28.0,131.0,1.0,,,,,,,
,,,,,,,66031484603e46d7e3ae1864,6842bbdb347641f08b8be2d5,2025-06-06_12h59.24.237,shape_ratio,2024.1.5,Win32,60.97560976,6842b561977af9ba9b0f87ca,,,,,,,,,,,219.5431,220.0426,,,220.293,220.9926,left,0.6828,,,,,,,,,0.5,,,,,,220.0427,220.2929,220.9927,"[-0.13670017815909424,-0.1309836488253456]",100.0,"[-0.046973123988274856,0.05270173060531173]",4.0,"[0.09390859897115421,-0.04551165733383592]",4.0,"[0.1284498943375392,-0.012601622061455783]",4.0,"[-0.026476499631369707,0.14156368465964536]",100.0,"[-0.0754239971816609,-0.07627684705210565]",4.0,"[-0.09371755563963322,-0.1384766124405406]",4.0,"[-0.008947955766539924,-0.14668677857747675]",100.0,"[0.021684311184924792,-0.01671265574480631]",100.0,"[0.1139661010949638,0.04919992294296896]",4.0,"[-0.100600811079996,0.09136856401727873]",100.0,"[0.052135499146873904,-0.06137786329664839]",4.0,"[-0.004231735116048516,0.09095555073940692]",100.0,"[-0.17768101448270712,0.05268530021989821]",4.0,"[0.04715499294662094,0.09891781711773677]",100.0,"[0.13663724877094624,-0.11706508687623893]",100.0,"[-0.07726229165413075,0.17391355239713532]",4.0,"[0.18214248608611922,-0.06882265652742058]",4.0,"[0.03746463163694257,0.032860167378543366]",4.0,"[-0.05913995872140471,0.00033599131281757344]",4.0,"[0.0966950708815573,0.08956816955272626]",100.0,"[0.029965002590626677,-0.1276795390557726]",100.0,"[0.021206620370401576,0.19687954232896143]",100.0,"[0.16719839251298602,0.02414614688752841]",4.0,"[-0.12471698974611688,-0.06858338330083122]",100.0,"[0.09417627541403838,0.013058407115249032]",100.0,"[-0.04201597065647312,-0.18452703179459548]",100.0,"[0.19506734212591617,-0.004934740972667846]",4.0,"[-0.1103629856956484,-0.022217152244797127]",4.0,"[-0.12710775156882662,0.02699203006629549]",4.0,"[0.1280131388866536,-0.07089955765465511]",100.0,"[-0.15730392405354826,-0.09209695711016626]",100.0,"[0.02,0.02]",222.0917,0.0,29.0,29.0,97.0,1.0,,,,,,,
,,,,,,,66031484603e46d7e3ae1864,6842bbdb347641f08b8be2d5,2025-06-06_12h59.24.237,shape_ratio,2024.1.5,Win32,60.97560976,6842b561977af9ba9b0f87ca,,,,,,,,,,,222.0919,222.5919,,,222.8429,223.6253,left,0.776,,,,,,,,,0.45,,,,,,222.592,222.8428,223.6254,"[-0.04309043981684597,-0.13279529808827223]",100.0,"[-0.11931154107115742,-0.06711086828033216]",4.0,"[0.025848781249505803,-0.16209088850896172]",4.0,"[0.10439881518931438,0.021577452180277193]",100.0,"[0.10886138183670635,-0.10169185489617207]",4.0,"[-0.1641649733490166,0.014979984876289622]",100.0,"[0.022593768308028648,0.1898768737833215]",100.0,"[0.1091923327469784,0.13551920346830615]",4.0,"[-0.05772086438530622,-0.010678790198862722]",4.0,"[-0.09504955657130479,0.014086189682449247]",100.0,"[0.06833844518240738,0.10632105272257202]",100.0,"[-0.09324906594779164,0.08667705590359269]",4.0,"[-0.03775759557365073,0.10493076000149429]",100.0,"[-0.14873244730627547,0.09064003087310274]",4.0,"[0.036658205944493656,-0.0825845916907788]",4.0,"[-0.07806939026217918,0.15680275916895584]",100.0,"[0.1513650674833542,0.08243525979458928]",100.0,"[0.1880381504287612,0.060315057555129836]",4.0,"[0.0933275002441615,-0.026593234267865244]",4.0,"[-0.0074179534699664535,0.011216446936007105]",4.0,"[-0.08795108192217713,-0.1143725411156627]",4.0,"[0.08762441862861978,-0.1792541910539988]",100.0,"[0.16190350430548592,-0.08299445548967635]",100.0,"[0.045367892845985774,-0.010726600691744845]",100.0,"[-0.14630578748429304,-0.12744365669605176]",4.0,"[-0.12848276725942487,0.04699096922188277]",4.0,"[-0.11324604275106734,0.1336488683982299]",4.0,"[0.0009532079343383973,-0.19371659835740063]",4.0,"[0.19363268610494197,-0.03984745482372004]",100.0,"[-0.003920284188101241,-0.12460932521802189]",100.0,"[-0.06300088995223266,-0.18020680844432457]",4.0,"[-0.022270820197749563,-0.06629934321708533]",4.0,"[0.02,0.02]",224.7252,0.0,30.0,30.0,132.0,1.0,,,,,,,
,,,,,,,66031484603e46d7e3ae1864,6842bbdb347641f08b8be2d5,2025-06-06_12h59.24.237,shape_ratio,2024.1.5,Win32,60.97560976,6842b561977af9ba9b0f87ca,,,,,,,,,,,224.7254,225.225,,,225.4758,226.1087,left,0.6234,,,,,,,,,0.45,,,,,,225.225,225.4757,226.1087,"[-0.010385180156826084,-0.07789230754258719]",4.0,"[-0.05166696067378029,-0.11931952105417594]",4.0,"[0.16798879666985447,-0.03849632994980753]",100.0,"[-0.10978118207832196,0.09785815252960806]",4.0,"[0.19905743056483532,-0.009970321081428505]",100.0,"[-0.18231923827904722,-0.0669349291656335]",4.0,"[0.09496892729028578,-0.03842444419621872]",100.0,"[-0.049192319660014854,0.04204876390098224]",100.0,"[0.017579757677412315,-0.15761024144084446]",4.0,"[0.15846621641450057,-0.07742790926878675]",100.0,"[0.10837961320420055,-0.13312530254816274]",4.0,"[0.12291489437798678,0.15093744750847046]",4.0,"[-0.17275680144864286,0.0105449829276556]",4.0,"[-0.05895807431292044,0.08866450244413068]",100.0,"[-0.01601431116612406,-0.005550941859835331]",4.0,"[0.16168297726556102,0.06631214948255519]",4.0,"[-0.0674730892695498,0.18202320907767489]",4.0,"[-0.080485737326962,0.01371682503789914]",100.0,"[0.03905778965738109,0.11568812569638127]",100.0,"[-0.1259972537891609,0.02867509650958414]",4.0,"[-0.028251884364405157,0.1651090743115351]",4.0,"[0.13658985938850957,0.10201214843986298]",4.0,"[0.027616210241376823,0.0054519839827522265]",100.0,"[0.03509408403531992,-0.08371037916150595]",4.0,"[0.059366800587159596,0.06925314613949196]",4.0,"[-0.0074228790278212855,0.10029863145424375]",100.0,"[-0.06737655727420037,-0.17059165375819843]",4.0,"[0.09898720752946785,0.08551346693487519]",100.0,"[0.06044170406838529,-0.13180515767286624]",100.0,"[-0.1659973846417075,0.07789720646068615]",100.0,"[0.068608617988928,0.1691905617786009]",4.0,"[0.08431426440340284,0.017130498131453665]",100.0,"[0.02,0.02]",227.2083,0.0,31.0,31.0,127.0,1.0,,,,,,,
,,,,,,,66031484603e46d7e3ae1864,6842bbdb347641f08b8be2d5,2025-06-06_12h59.24.237,shape_ratio,2024.1.5,Win32,60.97560976,6842b561977af9ba9b0f87ca,,,,,,,,,,,227.2088,227.7082,,,227.9588,228.7914,left,0.8266,,,,,,,,,0.6,,,,,,227.7082,227.9587,228.7914,"[0.18432279263238127,0.04890307402250535]",100.0,"[-0.10940300159841462,0.15950707305144804]",4.0,"[0.0026826367440670965,-0.17503486320946696]",100.0,"[-0.14026922797967864,-0.14205733368654153]",100.0,"[0.08212594841088378,-0.0191458977659435]",4.0,"[0.06037548568593102,0.14716890489840523]",4.0,"[-0.18175618398870522,0.025578439161967965]",100.0,"[0.07751871457627667,0.04411946261573475]",100.0,"[-0.07967149995115434,-0.08277851442377064]",100.0,"[-0.044156978765022364,0.0027923039125064527]",4.0,"[-0.022198179372971204,0.05099761860284983]",4.0,"[0.16530566760352866,-0.09006066007661569]",4.0,"[-0.1740449332220213,0.07602052563865484]",4.0,"[0.0006910500392770022,0.18064172612233614]",100.0,"[0.08902341163396348,0.09720052664709279]",100.0,"[0.03129580738182078,0.08352697363057927]",100.0,"[-0.12886354931225946,-0.05282965780717299]",100.0,"[0.09583914526503583,-0.16865778869199505]",100.0,"[0.03793870267084559,-0.10079708713317606]",100.0,"[-0.09581184442095671,-0.023942885316428523]",4.0,"[-0.17802254317503438,-0.025295695536298148]",100.0,"[0.1657082992389868,0.003827337414869039]",100.0,"[-0.14027536038667432,-0.005287327796370485]",4.0,"[-0.037779050490802636,0.1603981839705396]",100.0,"[-0.004948251124631093,-0.10537358596460963]",100.0,"[-0.050383059548648794,-0.03854962845678797]",4.0,"[0.1501468663912353,-0.03675999376578894]",100.0,"[-0.06497507317608489,-0.15386914352287168]",100.0,"[-0.014627526967380386,0.09568664145056986]",4.0,"[-0.058205906757206334,0.09356863353822269]",100.0,"[0.049008837128985114,-0.19129027607925914]",4.0,"[0.09453952047150925,-0.10145507246775949]",4.0,"[0.02,0.02]",229.8913,0.0,32.0,32.0,33.0,1.0,,,,,,,
,,,,,,,66031484603e46d7e3ae1864,6842bbdb347641f08b8be2d5,2025-06-06_12h59.24.237,shape_ratio,2024.1.5,Win32,60.97560976,6842b561977af9ba9b0f87ca,,,,,,,,,,,229.8915,230.3911,,,230.6412,231.2415,right,0.5833,,,,,,,,,0.55,,,,,,230.3912,230.6412,231.2415,"[0.013002879003702264,-0.13346573792563465]",100.0,"[-0.05234977219537213,0.060012184068864424]",4.0,"[0.003458455622868006,0.007464501052274465]",100.0,"[-0.11564655731117791,0.0113064083839269]",100.0,"[0.15209352696810838,-0.11493915113600456]",100.0,"[0.1603675550639638,-0.0593822007577513]",100.0,"[0.12148453107728777,-0.15598605539874857]",4.0,"[0.1934260131286496,-0.0297361676255273]",100.0,"[-0.016770140297006738,-0.057190494542005345]",4.0,"[-0.16118201610393096,-0.062102588821677754]",4.0,"[0.05461977141815917,-0.11212685256231254]",100.0,"[-0.042872444208787344,-0.1348739747713878]",100.0,"[-0.042190813796302955,-0.025131508756088865]",4.0,"[0.13267517161043266,0.09670110605264846]",4.0,"[0.066248165198524,0.07538378817878633]",100.0,"[-0.0032802817992467264,0.05282782796446616]",4.0,"[-0.09020446483446128,-0.0934732730767333]",100.0,"[-0.09773499957545763,0.12913015704897446]",4.0,"[-0.1154358803962419,0.08266203982744488]",100.0,"[-0.02288927261828896,0.13985619837500715]",100.0,"[0.13192458796913692,0.039185602057950394]",4.0,"[0.06578045147175456,-0.05573847465231032]",4.0,"[-0.17524555850588502,-0.016617566242625927]",100.0,"[0.026387963650556668,0.14745550151708314]",4.0,"[0.1756706072603998,0.049166080933704795]",100.0,"[-0.1478338889842946,-0.10324164301153434]",4.0,"[0.0394921854293507,-0.19247093082681208]",4.0,"[0.11132362046618026,-0.010012688479711984]",100.0,"[-0.14693310942371288,0.12105863229160273]",100.0,"[0.03578344705428329,0.03258939965073459]",100.0,"[0.09342560778757833,0.13295568516573453]",100.0,"[-0.09922929969058751,-0.16191294672141837]",4.0,"[0.02,0.02]",232.3413,0.0,33.0,33.0,70.0,1.0,,,,,,,
,,,,,,,66031484603e46d7e3ae1864,6842bbdb347641f08b8be2d5,2025-06-06_12h59.24.237,shape_ratio,2024.1.5,Win32,60.97560976,6842b561977af9ba9b0f87ca,,,,,,,,,,,232.3417,232.8404,,,233.0914,233.7906,left,0.688,,,,,,,,,0.4,,,,,,232.8404,233.0913,233.7906,"[0.1687104904230257,-0.10249123787379781]",100.0,"[0.07216208451015294,0.17866766859209865]",4.0,"[0.00560608459415351,0.04482601908954812]",4.0,"[0.0842940243073275,-0.07557274226209455]",4.0,"[-0.182624720133024,0.023138909585351156]",4.0,"[-0.14341862958441123,-0.12471147804795558]",100.0,"[0.10455214410133054,-0.12562111715476051]",4.0,"[0.0828427175311242,0.0816353201968417]",4.0,"[0.03553819563210677,0.15425513831777754]",100.0,"[-0.0482334821209744,0.0947651892751887]",4.0,"[-0.10081370533505767,-0.04226272142676432]",4.0,"[-0.03141036447906613,-0.10370793166449684]",4.0,"[0.0018763737099716364,-0.14671370563704916]",100.0,"[-0.12172745086492893,0.009735537073100719]",4.0,"[-0.050727175694194056,-0.00851637359340494]",100.0,"[-0.01069529000279602,-0.027378554250611375]",4.0,"[0.03273010184912158,0.08748706025341858]",100.0,"[-0.03872063881790636,-0.0570216133161256]",100.0,"[-0.16429205737209612,-0.052712646157478664]",100.0,"[-0.06044692833642514,0.19022380786400991]",100.0,"[0.025056862853511434,-0.18696185177579988]",4.0,"[0.03421401313388256,-0.06762459695088517]",4.0,"[0.08736321497476157,-0.029921772225025612]",4.0,"[0.1717199344364942,-0.02373529540703197]",4.0,"[0.034827309368346396,-0.0009255193883058604]",4.0,"[0.06192572581108572,-0.16240300336255592]",100.0,"[0.1347231397793801,0.09504428101844925]",100.0,"[0.10029411209369507,0.01662909329123011]",4.0,"[0.18488221246944653,-0.06538971550063179]",100.0,"[-0.08759710412249785,0.04875480592106014]",4.0,"[-0.0237053178587123,0.13276997876764154]",100.0,"[0.1693139172984331,0.0735322405324804]",4.0,"[0.02,0.02]",234.8902,0.0,34.0,34.0,159.0,1.0,,,,,,,
,,,,,,,66031484603e46d7e3ae1864,6842bbdb347641f08b8be2d5,2025-06-06_12h59.24.237,shape_ratio,2024.1.5,Win32,60.97560976,6842b561977af9ba9b0f87ca,,,,,,,,,,,234.8906,235.3905,,,235.6404,236.5072,right,0.8501,,,,,,,,,0.55,,,,,,235.3905,235.6403,236.5072,"[0.010446779349284088,-0.061921274402517254]",4.0,"[-0.03247528610403291,0.032343972717491655]",4.0,"[-0.0883885934137585,0.09356793635871269]",4.0,"[-0.12231289058761656,-0.01976934460180484]",100.0,"[-0.1540047752716008,-0.07099338123416016]",100.0,"[0.16807870352550502,0.00540027674409512]",4.0,"[-0.028084012934000292,0.11860031064147078]",100.0,"[0.18196499140863154,0.07092724327462877]",4.0,"[0.016136714212941217,0.14731636601062495]",100.0,"[0.13137697417802605,-0.14291389011516772]",100.0,"[-0.08267033928179622,0.17639077043623907]",100.0,"[0.07555390796934665,-0.04008951258841198]",4.0,"[0.018431135986977824,-0.15839737939416249]",100.0,"[0.09118075659956741,0.01994875401269426]",4.0,"[0.17460684441196617,-0.058768700712789924]",4.0,"[0.021797542497101658,-0.10203888315218632]",100.0,"[-0.18310126941821445,-0.03657287357659046]",100.0,"[0.10513321560106378,0.1347026267889087]",100.0,"[-0.09496884145000187,-0.1145804665227569]",100.0,"[-0.14689562547069565,0.0849107712447392]",100.0,"[-0.021728679708249328,-0.10436875757009757]",4.0,"[-0.12963538851633852,0.04551427350364249]",100.0,"[0.024710203839104217,0.07131124248482396]",100.0,"[-0.028317022379300016,-0.18834990927582654]",4.0,"[-0.028223778072506443,0.07412945549363331]",4.0,"[0.05737457292430979,0.13807113333440915]",4.0,"[0.14229532725040928,-0.08797728811089266]",100.0,"[0.07392530571644794,-0.1270361536989569]",100.0,"[0.05055458614092089,0.17929657432108553]",4.0,"[0.029161141654380048,0.013690894197149148]",4.0,"[0.13789736408536604,0.08683255327621321]",100.0,"[-0.1245758271994977,-0.15018656437321956]",100.0,"[0.02,0.02]",237.607,0.0,35.0,35.0,84.0,1.0,,,,,,,
,,,,,,,66031484603e46d7e3ae1864,6842bbdb347641f08b8be2d5,2025-06-06_12h59.24.237,shape_ratio,2024.1.5,Win32,60.97560976,6842b561977af9ba9b0f87ca,,,,,,,,,,,237.6072,238.1063,,,238.3571,238.8899,right,0.5188,,,,,,,,,0.45,,,,,,238.1063,238.357,238.89,"[0.07390752647744628,0.06818823446688754]",4.0,"[0.13144729435328537,-0.12674068163109295]",4.0,"[0.18208926030110464,-0.017533190555012266]",4.0,"[0.07312968590081999,0.11837278413919303]",100.0,"[-0.12846254548614788,-0.07359111039873821]",4.0,"[0.0688673900211282,-0.056939298562369914]",4.0,"[0.1672611266461186,-0.05602120372931593]",100.0,"[-0.15162976957849741,0.09374091355468826]",4.0,"[0.10117759261739823,0.024778074619503005]",100.0,"[0.018133801311775402,-0.0024723032247199964]",4.0,"[0.0784953916842422,-0.15239711853485105]",100.0,"[-0.03852707844899997,0.027786816110079323]",4.0,"[0.006258937232457372,-0.16095947357487989]",4.0,"[0.10712569953126469,-0.02533641016909251]",100.0,"[-0.0777295885262304,0.10222724810075043]",4.0,"[-0.10097833011198516,0.009082417816410188]",100.0,"[0.12500334498156632,0.13084371528813785]",4.0,"[-0.17548383192897646,0.0033812898075893123]",100.0,"[-0.026628614406513623,0.18443157667606]",4.0,"[0.022623412607015204,-0.09769945310014033]",4.0,"[-0.08161716394475028,-0.10109993035174834]",4.0,"[0.06646674999026715,0.0034774172149065006]",4.0,"[-0.016761005534802583,-0.03123729104920559]",100.0,"[-0.040533153989628375,-0.11609781316806408]",4.0,"[-0.01031051979465129,0.1375547859576784]",100.0,"[0.0003995675479182028,0.06825458174640402]",100.0,"[0.0362612630458986,-0.18958497363794066]",100.0,"[-0.1617607178421927,-0.11298892901020609]",4.0,"[0.15476521271737115,0.08110557321839747]",100.0,"[-0.12445162477396277,-0.15033712617906544]",100.0,"[-0.06862520067279508,0.16847619596316069]",100.0,"[0.09191198371208952,-0.10955204947035393]",4.0,"[0.02,0.02]",239.9896,0.0,36.0,36.0,135.0,1.0,,,,,,,
,,,,,,,66031484603e46d7e3ae1864,6842bbdb347641f08b8be2d5,2025-06-06_12h59.24.237,shape_ratio,2024.1.5,Win32,60.97560976,6842b561977af9ba9b0f87ca,,,,,,,,,,,239.99,240.4901,,,240.74,241.1233,right,0.3748,,,,,,,,,0.5,,,,,,240.4901,240.74,241.1233,"[0.10849403901169526,0.11515297762432909]",100.0,"[-0.10966556649163739,0.032481481798308585]",4.0,"[0.10802676417909986,0.003310825562191744]",4.0,"[-0.04090883945978325,0.08896822373305432]",100.0,"[-0.1280244823956487,-0.07365879407681923]",100.0,"[-0.07428030789286641,-0.03912440985693338]",4.0,"[0.13647841430160804,-0.11213831875335258]",100.0,"[0.10521323603932861,0.07457382341882482]",100.0,"[-0.0912682804698249,0.146829547074695]",4.0,"[-0.14437706136687325,0.09662143392963236]",4.0,"[0.019320164509395412,-0.05431814837348825]",4.0,"[-0.02238693529882452,-0.13728637538621422]",4.0,"[-0.010535539251694134,-0.19769258235072973]",4.0,"[0.07579234422687618,0.18281325904374524]",100.0,"[0.15910148456589696,0.08105483484642949]",100.0,"[0.06407013362632992,0.08116925753719602]",4.0,"[0.14105235008044656,-0.05463187717774825]",4.0,"[0.074909736665439,-0.11468645013241814]",100.0,"[0.04783857452972672,0.1478117075756066]",100.0,"[0.17809155551531508,-0.01233117006301956]",4.0,"[0.16875013284853596,-0.08699507045964916]",4.0,"[-0.04028216923089208,0.14077304906649452]",4.0,"[0.011143401747533569,0.08432517641383207]",100.0,"[-0.15052356842792108,0.02148913887254825]",4.0,"[-0.020050396010865033,0.054834033065175126]",100.0,"[0.022131048978698855,-0.15021501214874833]",100.0,"[0.11292404745231935,-0.14458240540940276]",4.0,"[-0.0029682007986629763,0.15744805792542868]",4.0,"[-0.08371346179732828,-0.11851978666385414]",100.0,"[-0.019070640074071787,-0.017271076407909813]",100.0,"[-0.055870404993763514,0.18149884674173572]",100.0,"[-0.05661652443368993,-0.16501855763452997]",100.0,"[0.02,0.02]",242.2224,0.0,37.0,37.0,92.0,1.0,,,,,,,
,,,,,,,66031484603e46d7e3ae1864,6842bbdb347641f08b8be2d5,2025-06-06_12h59.24.237,shape_ratio,2024.1.5,Win32,60.97560976,6842b561977af9ba9b0f87ca,,,,,,,,,,,242.2228,242.7228,,,242.9731,243.4228,right,0.4368,,,,,,,,,0.55,,,,,,242.7229,242.9731,243.4228,"[-0.013772391273741441,-0.0444309800552172]",4.0,"[0.030863807573992,0.16746823497884764]",4.0,"[-0.01871867538604916,0.052084790139486144]",100.0,"[0.18303265920844136,0.07693454245682964]",100.0,"[0.022451445338936067,-0.012301065993852807]",4.0,"[-0.09380784534969112,-0.10709097999161733]",4.0,"[0.1465729699738114,0.11648087825384437]",4.0,"[-0.08147230843056004,0.16119164438468894]",4.0,"[0.12017040166062225,-0.059325309833664776]",100.0,"[0.047875134603649776,-0.1742647952022977]",4.0,"[-0.09826571722270329,-0.017338930533274177]",4.0,"[-0.13379204227964453,0.10424197120940773]",4.0,"[-0.008751866654944465,-0.17560850142379936]",100.0,"[-0.019923789025350292,-0.08881383584195633]",4.0,"[0.02798378901805337,0.038118417494490214]",100.0,"[-0.12367261287747795,0.1555692512493867]",100.0,"[0.17634363662979338,-0.0842458331923419]",4.0,"[0.1978657519064085,0.003378212749576243]",4.0,"[0.02252719052360166,0.11973021792744953]",100.0,"[0.14932595726629244,-0.12157310382510451]",100.0,"[0.06862823122096846,0.003602042468465327]",100.0,"[-0.16429603593384692,0.05374812003640125]",100.0,"[-0.05625591149668989,0.0664445333820784]",4.0,"[-0.061656523932208246,0.0019846594333889464]",100.0,"[-0.19139923288131067,-0.03275386255606734]",100.0,"[0.0850040981128458,-0.14628461828829314]",100.0,"[-0.10601679100976916,-0.06374173138917771]",100.0,"[-0.02230107567291224,0.18038125557642887]",100.0,"[-0.04835510522361851,-0.18580341809442355]",100.0,"[-0.14949757983544332,-0.048625377776881425]",100.0,"[-0.12389704332719471,0.013407036038001474]",4.0,"[0.15625563305938261,-0.01748723918558871]",100.0,"[0.02,0.02]",244.5229,0.0,38.0,38.0,64.0,1.0,,,,,,,
,,,,,,,66031484603e46d7e3ae1864,6842bbdb347641f08b8be2d5,2025-06-06_12h59.24.237,shape_ratio,2024.1.5,Win32,60.97560976,6842b561977af9ba9b0f87ca,,,,,,,,,,,244.5233,245.0223,,,245.2727,245.7561,right,0.4705,,,,,,,,,0.5,,,,,,245.0224,245.2726,245.7561,"[0.022895373632971068,-0.03782697083106849]",100.0,"[-0.09349755111456037,-0.01119819865799348]",100.0,"[0.10079574375180657,0.07314098369580473]",4.0,"[-0.009475158667300525,-0.19657335464051287]",4.0,"[-0.014767069945817259,0.13717707703762358]",100.0,"[-0.02581415478567597,0.086865275386613]",100.0,"[0.14581070109364005,-0.04276637313724225]",100.0,"[-0.16063696031922234,-0.06787811043971917]",100.0,"[-0.0676683030020564,0.17879489395059903]",4.0,"[-0.07682721940754383,-0.16927494894418152]",4.0,"[0.0910166036151638,-0.11469824058592741]",4.0,"[0.17035356802169035,0.009919416608321937]",100.0,"[-0.10484721219127335,0.03387525054320924]",4.0,"[-0.029610290270071896,-0.0765535384746215]",4.0,"[0.014829754285302093,0.09710618383995091]",100.0,"[-0.12525542203940215,0.09780978255944618]",100.0,"[0.044843957604550566,0.1667974941901634]",4.0,"[0.1918461042246952,-0.03884127539345573]",100.0,"[-0.042134906943105566,-0.008407254679930698]",100.0,"[0.06838374914701889,0.014207119921349008]",100.0,"[-0.05494379995483435,0.03787107369739996]",4.0,"[-0.09745110796971611,-0.08116545272455816]",4.0,"[-0.000673379666275507,-0.13420039509905907]",4.0,"[0.1565451877102162,0.06372493460094338]",4.0,"[0.10930074675848689,-0.07869982294987383]",4.0,"[-0.10642347712777395,0.14754184555300748]",4.0,"[0.04338906839154125,-0.15396977312774737]",100.0,"[-0.05622250628369045,-0.10665745811871293]",100.0,"[-0.05691579565520658,0.13618808319131584]",100.0,"[0.06417871084102264,0.09887933796576479]",100.0,"[0.03222202021021833,0.05417428740385806]",4.0,"[-0.1451480568420681,0.03296145574305523]",4.0,"[0.02,0.02]",246.8556,0.0,39.0,39.0,114.0,1.0,,,,,,,
,,,,,,,66031484603e46d7e3ae1864,6842bbdb347641f08b8be2d5,2025-06-06_12h59.24.237,shape_ratio,2024.1.5,Win32,60.97560976,6842b561977af9ba9b0f87ca,,,,,,,,,,,246.8559,247.3553,,,247.6054,248.2385,right,0.6282,,,,,,,,,0.9,,,,,,247.3553,247.6054,248.2385,"[-0.029513557622000156,0.18734504606098243]",100.0,"[0.03846956301796884,0.05399077865784805]",100.0,"[-0.14790004033119186,-0.035159565439170544]",100.0,"[0.1883573808253373,0.0024076184010850955]",4.0,"[-0.1166886887077723,-0.0651978519461391]",100.0,"[-0.1587984598366385,0.08869865967355504]",100.0,"[0.19132016324466655,-0.04963536283104735]",100.0,"[0.11395038020704853,-0.09044326061318846]",100.0,"[0.010204111455500466,-0.037165680774321405]",4.0,"[-0.07125815419016374,0.03047265269781815]",100.0,"[0.00042679883929684783,-0.08310421636280403]",100.0,"[-0.07317434124090783,-0.1287598054004243]",100.0,"[0.07595004661719287,-0.03214566382018671]",100.0,"[-0.14757657452552178,0.02430771612862626]",100.0,"[0.13525616411745184,-0.035421197158171575]",100.0,"[-0.1797204009266624,-0.0778973011427685]",100.0,"[-0.050605665725462705,-0.06907233656215692]",100.0,"[-0.03433800188517502,0.09089298283264362]",100.0,"[-0.18931478632552318,0.05041397158555345]",100.0,"[0.08431552788784646,0.12624750057213097]",100.0,"[0.15744946627580042,-0.08742742281093548]",100.0,"[-0.11494848942237883,-0.15348956624585766]",100.0,"[-0.10962066450387067,0.05815602315222652]",4.0,"[-0.12073529628644489,-0.10750202300925424]",100.0,"[0.020028978400579822,0.19328351876932087]",100.0,"[0.01979450851426104,-0.13322747590834533]",100.0,"[0.02171734818305443,0.15324032892742356]",100.0,"[-0.07375877695993611,0.12058806753690031]",100.0,"[0.01986049487144908,0.010921414180689756]",100.0,"[-0.08538329471599312,-0.013284442935648311]",100.0,"[0.114658757731081,-0.1353826857412116]",100.0,"[-0.053974592004937955,-0.17110083399416723]",100.0,"[0.02,0.02]",249.3381,0.0,40.0,40.0,21.0,1.0,,,,,,,
,,,,,,,66031484603e46d7e3ae1864,6842bbdb347641f08b8be2d5,2025-06-06_12h59.24.237,shape_ratio,2024.1.5,Win32,60.97560976,6842b561977af9ba9b0f87ca,,,,,,,,,,,249.3383,249.8388,,,250.0885,250.8051,right,0.709,,,,,,,,,0.5,,,,,,249.8388,250.0885,250.8052,"[-0.10530659613745043,-0.0830279635605198]",4.0,"[0.026310880855196773,-0.02097961921453583]",100.0,"[-0.07730021402363357,0.08677601708092363]",100.0,"[0.01216164887153492,-0.16304987605168525]",100.0,"[0.06340335659259867,0.09803022039448514]",4.0,"[0.03338233583846964,0.15978304422258943]",100.0,"[-0.19187514872809552,0.0031286106336353083]",4.0,"[-0.12126304589435041,0.09384797108960281]",100.0,"[0.13940901259321056,0.1345773420346032]",4.0,"[0.08028442915895592,-0.1286083587729669]",4.0,"[0.07414149118733304,0.13683833800660775]",4.0,"[-0.1587966192360662,0.07701884664931523]",4.0,"[-0.09676477154133739,-0.034189117186497926]",100.0,"[0.006827100092283823,0.02601776416022686]",100.0,"[-0.022944597438233676,0.08382275933845627]",100.0,"[-0.12203393959384179,0.013578805706959574]",4.0,"[0.03960534131738995,-0.08253825696708031]",100.0,"[0.009146706166239867,0.11153795538651122]",4.0,"[0.11409264618241542,0.09462740593860576]",100.0,"[-0.012367127853334466,-0.04453571443165564]",100.0,"[0.06791153021956432,-0.03125329396541669]",4.0,"[0.1350507634045241,-0.08843562192859483]",100.0,"[-0.03174895391576287,-0.14971115209069152]",4.0,"[0.19588586705921382,-0.03788543708802891]",100.0,"[-0.08728116390631979,0.042215399492262065]",4.0,"[-0.06990436546868893,-0.1845316089636852]",100.0,"[-0.0677593980365653,0.14547218535426323]",100.0,"[0.07975329665079732,-0.17260811239927387]",4.0,"[0.12548358850037403,-0.02913205220997551]",4.0,"[0.1768055928436546,0.006054735390416041]",4.0,"[-0.1487457197695117,-0.10612712270241771]",4.0,"[-0.07882569050527566,-0.11906380837538295]",100.0,"[0.02,0.02]",251.9051,0.0,41.0,41.0,103.0,1.0,,,,,,,
,,,,,,,66031484603e46d7e3ae1864,6842bbdb347641f08b8be2d5,2025-06-06_12h59.24.237,shape_ratio,2024.1.5,Win32,60.97560976,6842b561977af9ba9b0f87ca,,,,,,,,,,,251.9053,252.4048,,,252.6546,253.2547,left,0.5859,,,,,,,,,0.5,,,,,,252.4049,252.6545,253.2547,"[-0.12006772622794754,-0.015952979584157978]",4.0,"[0.02374889615908897,-0.06249371618104799]",100.0,"[-0.1385809072171291,0.11240148133999513]",100.0,"[0.10460015066695799,0.07794036624933173]",100.0,"[0.12135907620158654,-0.04259477114988223]",100.0,"[-0.1736374273986807,-0.08696751899702775]",100.0,"[-0.08102154913947246,0.09732677081192481]",100.0,"[0.004962047488270529,-0.11403651157984201]",100.0,"[-0.02617465222480228,0.1074065347479704]",100.0,"[-0.055168093506507344,-0.09126425148594762]",100.0,"[0.06161071995574324,0.08593652195865924]",100.0,"[-0.10724512171612373,0.14652861245695434]",100.0,"[-0.0331452089583116,0.02119995572099089]",4.0,"[0.027580381586649133,-0.1797764049599597]",4.0,"[0.1501665633996102,0.03309001225601507]",4.0,"[-0.002066467683795832,0.18914854113235374]",4.0,"[-0.06261279716336968,-0.0213724091787739]",4.0,"[-0.11258351744355667,-0.13774020366303683]",4.0,"[0.11333920101754902,-0.12003037128615199]",4.0,"[0.0767999754072209,-0.0751375003722552]",4.0,"[0.021922391493711512,0.04050677928058123]",4.0,"[0.18698393698842647,-0.018213746585150525]",4.0,"[0.0994886940268003,0.14656406284934226]",100.0,"[0.02206774311738489,0.15476022644847984]",100.0,"[-0.16032998767747286,-0.018449484428187776]",100.0,"[-0.07782328106096889,0.051996836998774804]",4.0,"[0.17720990247778762,0.0663581516251543]",4.0,"[0.10450603160291606,-0.004935377367800966]",100.0,"[-0.17846551664839988,0.08333747334777898]",100.0,"[-0.04846717456445308,0.16203226341177743]",4.0,"[-0.14531513141037575,0.05463890536377358]",4.0,"[-0.07151730510041267,-0.16305846510579075]",4.0,"[0.02,0.02]",254.3545,0.0,42.0,42.0,108.0,1.0,,,,,,,
,,,,,,,66031484603e46d7e3ae1864,6842bbdb347641f08b8be2d5,2025-06-06_12h59.24.237,shape_ratio,2024.1.5,Win32,60.97560976,6842b561977af9ba9b0f87ca,,,,,,,,,,,254.3548,254.8545,,,255.1039,255.7375,right,0.6167,,,,,,,,,0.55,,,,,,254.8546,255.1039,255.7376,"[-0.018080408606391877,-0.08401584267608801]",100.0,"[-0.19890314746965865,0.00958717610754846]",4.0,"[0.13926955035411914,0.029216228879800753]",100.0,"[0.07799865202025939,-0.1603419286583907]",100.0,"[-0.1366439170410217,-0.05887297674467323]",100.0,"[-0.06168660023818945,-0.0780199235290692]",100.0,"[0.004703351762768649,-0.1916192839275186]",4.0,"[0.1787164578358685,-0.017079391863803445]",100.0,"[0.14406372786411475,0.09500428132421176]",100.0,"[-0.016230915700162843,0.031412974349156415]",100.0,"[-0.040690739396175145,0.0694514273623083]",100.0,"[-0.1624916377995742,0.08432910553794853]",100.0,"[-0.06827487702660893,0.11037277796782143]",100.0,"[-0.06966356851425469,-0.14522474467652244]",4.0,"[-0.11303991589066625,-0.02500122118689693]",100.0,"[0.09330300050417989,0.04820219786597643]",4.0,"[-0.08948709839931561,0.02191969388320761]",4.0,"[0.12363714258756862,-0.05869318039446015]",4.0,"[0.08789102392175388,0.16244094217112573]",100.0,"[0.16051263494520676,-0.09872728750999174]",100.0,"[-0.14144561526133348,0.020160788124772525]",4.0,"[0.03072989810941181,0.06313360966166358]",4.0,"[0.04436783369789519,-0.11396416300920334]",4.0,"[-0.084791090609718,0.07196725417581434]",4.0,"[-0.024144440962930745,-0.13867270030029288]",100.0,"[0.07035550186330451,0.09312584361270662]",4.0,"[-0.1797927168852018,-0.029112273317083857]",4.0,"[-0.1419688461242818,-0.14025828124662876]",100.0,"[0.059607867332586995,-0.0003375814950973261]",4.0,"[-0.031549423475627496,0.19223729628980962]",100.0,"[0.08509407819657877,-0.07990533440439201]",100.0,"[-0.06813956516069358,0.15684515751477293]",4.0,"[0.02,0.02]",256.8373,0.0,43.0,43.0,74.0,1.0,,,,,,,
,,,,,,,66031484603e46d7e3ae1864,6842bbdb347641f08b8be2d5,2025-06-06_12h59.24.237,shape_ratio,2024.1.5,Win32,60.97560976,6842b561977af9ba9b0f87ca,,,,,,,,,,,256.8377,257.3375,,,257.5876,258.237,left,0.6346,,,,,,,,,0.45,,,,,,257.3375,257.5875,258.237,"[-0.01464098751286018,0.14777708649148774]",4.0,"[0.18718074680657856,0.043034055892915056]",4.0,"[0.13491240929941156,0.081148319026604]",100.0,"[-0.10081385403887935,-0.00027937930676705415]",4.0,"[0.06989149806445635,0.1051139305645212]",100.0,"[-0.09736554893707847,0.05092369080608746]",100.0,"[-0.08248849517988004,-0.11729744656060871]",4.0,"[0.060798396696518674,0.0011314837305656188]",4.0,"[-0.04251767240633957,0.023752858618068858]",4.0,"[0.06618813199890089,-0.08998498555212138]",100.0,"[-0.06131563598246604,0.0707392277189086]",100.0,"[0.008795750405378826,-0.00023652750297779648]",4.0,"[0.12796771449521674,-0.031354021540231425]",100.0,"[-0.011160937184808657,-0.18377289512463454]",4.0,"[0.16317230571776428,-0.05917578838331311]",4.0,"[0.006007332623708624,0.10497428527092226]",100.0,"[-0.09510673619971721,0.14139722414117606]",4.0,"[-0.1520812259503975,0.0987561337676456]",100.0,"[-0.18951450538359235,0.048466813740589525]",4.0,"[0.11223141942766153,0.039977936649238544]",100.0,"[-0.04705781706800687,-0.058438706352631896]",4.0,"[0.017576881222258783,-0.1419453550512009]",100.0,"[-0.020342197582567934,-0.11958177613235672]",4.0,"[0.07585177042183365,0.17955806056017684]",100.0,"[-0.15565098523876075,-0.05594189080445801]",4.0,"[0.047565421717292396,0.04093428089132189]",100.0,"[0.011393274833740799,-0.051579544045279105]",100.0,"[0.10783571946647408,0.1418560801348418]",100.0,"[0.1340701899207877,-0.10897650663495777]",4.0,"[0.05927320008794073,-0.18290023667548178]",4.0,"[-0.15797013020627218,-0.11905291230321091]",4.0,"[-0.06820883970522723,0.17703198048858462]",4.0,"[0.02,0.02]",259.3366,0.0,44.0,44.0,142.0,1.0,,,,,,,
,,,,,,,66031484603e46d7e3ae1864,6842bbdb347641f08b8be2d5,2025-06-06_12h59.24.237,shape_ratio,2024.1.5,Win32,60.97560976,6842b561977af9ba9b0f87ca,,,,,,,,,,,259.3368,259.8373,,,260.0871,260.5707,left,0.467,,,,,,,,,0.4,,,,,,259.8373,260.087,260.5708,"[-0.08568289493384734,-0.11312554323350243]",4.0,"[-0.014104845393172801,0.1978445458119438]",4.0,"[-0.11228744615801849,-0.07270669705506289]",100.0,"[0.05979715141845663,-0.09513115337364081]",4.0,"[0.1183160505399454,0.10909793147125646]",100.0,"[-0.014422530671134255,0.03463590387694972]",4.0,"[0.14032567638409305,-0.0650600928073446]",4.0,"[-0.11973492093496996,0.10093476591530498]",100.0,"[0.00037961666195475196,-0.07758377672091231]",4.0,"[0.016488647832919843,0.16954692717828243]",4.0,"[-0.10856738523163223,-0.14670108832844514]",100.0,"[0.08362237906555897,0.07260705352622106]",4.0,"[-0.029581979853419437,-0.024984273985725423]",4.0,"[0.1271831088094887,0.025011319849018894]",100.0,"[-0.036459951174108995,0.09717152315149535]",4.0,"[-0.09275340397780851,0.009669600342763514]",4.0,"[-0.028412489467366058,-0.19026793424526567]",100.0,"[0.10554868212278896,-0.018040158805034862]",100.0,"[0.07683285328478297,0.11891784078991531]",4.0,"[0.1789675143126362,0.0014609978767229919]",4.0,"[-0.12032522359461348,0.04509364104528983]",4.0,"[0.029177194362384706,-0.1769850580520492]",4.0,"[-0.059737673974526916,-0.07589442667852472]",4.0,"[-0.19669262118664346,-0.024356025867922317]",100.0,"[0.03844863684722697,0.009247506400340753]",100.0,"[0.093948868464001,-0.061215134204382037]",100.0,"[0.06965964985257456,-0.15119289975060948]",100.0,"[-0.0029554103608286086,-0.11975356876401694]",4.0,"[-0.08861459738958118,0.17764787489291922]",4.0,"[-0.15286676406371658,-0.0008328706595491059]",100.0,"[0.011676724449556539,0.08767188356245531]",100.0,"[0.13609323363267214,0.07086358737188274]",4.0,"[0.02,0.02]",261.67,0.0,45.0,45.0,177.0,1.0,,,,,,,
,,,,,,,66031484603e46d7e3ae1864,6842bbdb347641f08b8be2d5,2025-06-06_12h59.24.237,shape_ratio,2024.1.5,Win32,60.97560976,6842b561977af9ba9b0f87ca,,,,,,,,,,,261.6703,262.1699,,,262.4203,263.0034,right,0.5741,,,,,,,,,0.9,,,,,,262.1699,262.4202,263.0034,"[0.0311162320215715,0.08945044354152255]",4.0,"[-0.15417478568974982,0.12348467832482239]",100.0,"[-0.06089121512003086,0.1476331225449478]",100.0,"[-0.10330459270817614,0.05255271533197266]",4.0,"[0.14998044602771124,-0.0727445877934948]",100.0,"[0.11565748262383499,0.09507903740658995]",100.0,"[-0.18447018206951904,-0.016872179616094433]",100.0,"[0.08394608111043927,-0.1483955161680054]",100.0,"[-0.0024792846063647596,-0.16120570729052272]",100.0,"[-0.07223916343490747,-0.0012468348666121864]",100.0,"[0.18259672036242583,0.017321241732609242]",100.0,"[-0.10482462628987724,-0.04074741518999403]",100.0,"[0.1215414670812852,0.02212613368528331]",100.0,"[0.06540684506901906,-0.08046234678556008]",100.0,"[0.0708064420328167,0.10213637054878293]",100.0,"[0.0026442935127591015,-0.11101569435128843]",100.0,"[-0.023124528984027067,0.01372971379707133]",100.0,"[-0.050670172219386946,-0.17195667965172984]",100.0,"[0.1808003397829015,0.05894897932630003]",100.0,"[-0.048274413131359,-0.06539327567541113]",100.0,"[-0.12747048251114537,0.015069702921288447]",100.0,"[0.08377306552749474,0.18058253360748494]",100.0,"[-0.08635392672811863,-0.10854340133659025]",100.0,"[0.08530647290002848,0.04296377114701889]",100.0,"[-0.01761753219964061,0.10674170060031087]",100.0,"[0.10613022951459583,-0.02204436335731533]",100.0,"[-0.1763532843507028,-0.05851939730912008]",100.0,"[0.13184955234622106,-0.1254160615940526]",100.0,"[-0.13668208779695776,-0.12571542107898456]",100.0,"[0.022478821142901145,0.14825119638653744]",100.0,"[0.020896772449093912,0.02504875534258447]",100.0,"[0.04654781782534809,-0.17664712083057546]",4.0,"[0.02,0.02]",264.1029,0.0,46.0,46.0,18.0,1.0,,,,,,,
,,,,,,,66031484603e46d7e3ae1864,6842bbdb347641f08b8be2d5,2025-06-06_12h59.24.237,shape_ratio,2024.1.5,Win32,60.97560976,6842b561977af9ba9b0f87ca,,,,,,,,,,,264.1032,264.6031,,,264.8533,265.4529,left,0.5878,,,,,,,,,0.4,,,,,,264.6031,264.8533,265.4529,"[-0.1737923501343483,0.020119792422618635]",4.0,"[-0.14625414840294246,-0.014168270115824314]",4.0,"[0.12452919619652209,0.030543354155611633]",100.0,"[0.04072124491492728,-0.012308470185953279]",4.0,"[0.09679895020472952,0.08178500946881892]",4.0,"[-0.08368036020290869,-0.025785967279495742]",4.0,"[-0.0901427958502939,0.014143945122501889]",4.0,"[0.010460523772514328,-0.1291804618706377]",100.0,"[-0.0344227923127396,-0.157284243509863]",4.0,"[-0.005843014771497908,0.08929224419977584]",4.0,"[0.15578862357665874,0.0780178961333309]",100.0,"[0.12134929096540273,-0.1350606112362144]",4.0,"[0.16303677842743913,-0.07539909631924527]",4.0,"[0.12451351702855652,0.12778526668045948]",100.0,"[0.03567934645757211,0.18146595900127457]",4.0,"[-0.11073746766228888,-0.06201588757418215]",4.0,"[0.07143278043784436,0.022444645311930696]",100.0,"[-0.10878919755226624,-0.15538080115603847]",100.0,"[0.07352441456087014,-0.06586162169431903]",4.0,"[0.06787906767807173,-0.11894345663545135]",100.0,"[-0.07416911086569215,0.0998095678232715]",100.0,"[-0.011062324522156601,-0.05022877278591361]",100.0,"[-0.05411263157585952,-0.06381017212904706]",4.0,"[0.0604790727358503,-0.1826461991986989]",4.0,"[-0.043785916789481114,0.05658426184781821]",100.0,"[-0.1724199200447559,0.07909442953703204]",4.0,"[-0.11611797540113593,0.07302165964189955]",100.0,"[-0.06664200305513115,0.1521205790910384]",4.0,"[0.015099358331512033,0.1288025775698052]",100.0,"[0.13047941698720283,-0.043131529787770614]",4.0,"[0.008888543912066347,0.03903922264424683]",4.0,"[-0.04885998428429771,0.01345029750554837]",100.0,"[0.02,0.02]",266.5526,0.0,47.0,47.0,173.0,1.0,,,,,,,
,,,,,,,66031484603e46d7e3ae1864,6842bbdb347641f08b8be2d5,2025-06-06_12h59.24.237,shape_ratio,2024.1.5,Win32,60.97560976,6842b561977af9ba9b0f87ca,,,,,,,,,,,266.553,267.0527,,,267.3029,267.8192,right,0.5087,,,,,,,,,0.6,,,,,,267.0528,267.3029,267.8193,"[0.07124505435532229,0.07978632926711733]",100.0,"[-0.14815091926404658,-0.06029345624301404]",4.0,"[-0.031495583466824385,0.12564211371194214]",4.0,"[0.012474958288485646,0.0828767696162416]",100.0,"[-0.006860448526183677,-0.1477558941200954]",100.0,"[-0.03640030478436168,-0.039467397511821226]",4.0,"[0.13461281984509685,-0.031013984004385722]",100.0,"[-0.11984543135250413,-0.015065771043675376]",4.0,"[-0.05098521790956479,0.1932629966139086]",4.0,"[-0.057469252665863745,0.025787457804155253]",100.0,"[0.12170233821602475,-0.14485670341879595]",100.0,"[0.1859160741967905,-0.02113707498642765]",100.0,"[0.0519278598895646,0.032288533898031206]",100.0,"[-0.13658276541028602,0.027770881380703938]",4.0,"[0.007856965002855359,0.1855502379838221]",100.0,"[0.13645914007244503,0.08933987615463276]",100.0,"[-0.16390699880301726,0.09297843744895383]",4.0,"[0.15433957854505148,-0.10214484068898082]",100.0,"[0.0232005907788026,0.13364564705794074]",100.0,"[-0.07339804463478802,-0.01244352915510716]",100.0,"[-0.19546391795645135,-0.01485745189599352]",4.0,"[0.180352656940761,0.04759303986617239]",100.0,"[-0.11617600507944191,-0.12334839805922937]",100.0,"[0.11362470681743733,0.048017730995697096]",100.0,"[0.07585647225509302,-0.18148197152078632]",4.0,"[0.08606482854482278,0.12317633014322917]",4.0,"[0.006373869225243108,-0.06990674588062748]",4.0,"[-0.15870431248013933,-0.11875389654760792]",100.0,"[-0.18285871735233591,-0.08042545686144376]",4.0,"[0.0184959325256852,0.00007838584292475418]",100.0,"[-0.19339110250051864,0.026024414652477783]",4.0,"[-0.04677511212101041,-0.1608144520455607]",100.0,"[0.02,0.02]",268.9187,0.0,48.0,48.0,38.0,1.0,,,,,,,
,,,,,,,66031484603e46d7e3ae1864,6842bbdb347641f08b8be2d5,2025-06-06_12h59.24.237,shape_ratio,2024.1.5,Win32,60.97560976,6842b561977af9ba9b0f87ca,,,,,,,,,,,268.9189,269.4188,,,269.6692,270.0691,right,0.3859,,,,,,,,,0.9,,,,,,269.4188,269.6692,270.0691,"[0.13438572615122063,0.1188681685675668]",100.0,"[0.025330428574042378,0.14054435323850584]",100.0,"[-0.03683531105660569,0.17506729552953654]",100.0,"[0.12132801539422641,-0.08795573492035318]",100.0,"[-0.05777989424852691,-0.16398368862066354]",100.0,"[-0.05940277299831726,-0.044617229559168546]",100.0,"[-0.14458143820872404,-0.09261903899865982]",100.0,"[0.07113701043427273,0.009562095897379174]",4.0,"[-0.08340594870409765,0.022595162748753096]",100.0,"[0.03625176711576554,0.05434700757907942]",100.0,"[-0.11714910074454138,0.07999527656263618]",100.0,"[0.17569401225141723,-0.008842717857750081]",100.0,"[0.00817267603557795,0.09873864482206526]",100.0,"[-0.07974437444262945,0.15162229272731936]",100.0,"[0.03009457176403814,0.0012625413860591131]",100.0,"[-0.10183488501967604,-0.09916046867471172]",100.0,"[0.045920498307904234,-0.18618436385724293]",100.0,"[-0.12854213273894743,-0.013371929642647686]",100.0,"[-0.02067519554335134,0.008532619407909822]",100.0,"[-0.060867358063798276,-0.09470997785168028]",100.0,"[-0.09830656071026746,-0.1678489169456551]",100.0,"[0.19027906676411452,-0.0576242957249607]",100.0,"[-0.17784743758118635,-0.05153616030048162]",100.0,"[0.06099583350057917,-0.10589714709965008]",100.0,"[0.12092453042575597,0.02253740791342485]",100.0,"[-0.1606186161221903,0.09179774857056959]",100.0,"[-0.12895159038402304,0.03248919792341042]",100.0,"[0.016464097115597143,-0.11308662664663739]",4.0,"[0.013761662090982575,0.18694951156466685]",4.0,"[0.053880023952713275,-0.045874892008587215]",100.0,"[0.07702806621158081,0.15439221568854306]",100.0,"[-0.17340597589305984,0.009754686336616096]",100.0,"[0.02,0.02]",271.1689,0.0,49.0,49.0,17.0,1.0,,,,,,,
