right,left,explain.started,explain.stopped,key_resp_3.keys,key_resp_3.rt,key_resp_3.duration,participant,session,date,expName,psychopyVersion,OS,frameRate,study_id,explain_2.started,explain_2.stopped,key_resp_4.keys,key_resp_4.rt,key_resp_4.duration,explain_3.started,explain_3.stopped,key_resp_5.keys,key_resp_5.rt,key_resp_5.duration,fixation.started,fixation.stopped,practice.started,practice.stopped,response.started,response.stopped,key_resp.keys,key_resp.rt,key_resp.duration,feedback.started,feedback.stopped,trials_2.thisRepN,trials_2.thisTrialN,trials_2.thisN,trials_2.thisIndex,trials_2.ran,dot_ratio,explain_4.started,explain_4.stopped,key_resp_6.keys,key_resp_6.rt,key_resp_6.duration,dotDisplay.started,dotDisplay.stopped,ITI.started,polygon_1.pos,polygon_1.edges,polygon_2.pos,polygon_2.edges,polygon_3.pos,polygon_3.edges,polygon_4.pos,polygon_4.edges,polygon_5.pos,polygon_5.edges,polygon_6.pos,polygon_6.edges,polygon_7.pos,polygon_7.edges,polygon_8.pos,polygon_8.edges,polygon_9.pos,polygon_9.edges,polygon_10.pos,polygon_10.edges,polygon_11.pos,polygon_11.edges,polygon_12.pos,polygon_12.edges,polygon_13.pos,polygon_13.edges,polygon_14.pos,polygon_14.edges,polygon_15.pos,polygon_15.edges,polygon_16.pos,polygon_16.edges,polygon_17.pos,polygon_17.edges,polygon_18.pos,polygon_18.edges,polygon_19.pos,polygon_19.edges,polygon_20.pos,polygon_20.edges,polygon_21.pos,polygon_21.edges,polygon_22.pos,polygon_22.edges,polygon_23.pos,polygon_23.edges,polygon_24.pos,polygon_24.edges,polygon_25.pos,polygon_25.edges,polygon_26.pos,polygon_26.edges,polygon_27.pos,polygon_27.edges,polygon_28.pos,polygon_28.edges,polygon_29.pos,polygon_29.edges,polygon_30.pos,polygon_30.edges,polygon_31.pos,polygon_31.edges,polygon_32.pos,polygon_32.edges,dot_size,ITI.stopped,trials.thisRepN,trials.thisTrialN,trials.thisN,trials.thisIndex,trials.ran,break_2.started,break_2.stopped,trials_3.thisRepN,trials_3.thisTrialN,trials_3.thisN,trials_3.thisIndex,trials_3.ran
subject chose diamond,subject chose dot,0.0002,20.3877,space,5.3818,,660434638448016695dbc246,684429300757be1571665109,2025-06-07_14h05.07.393,shape_ratio,2024.1.5,Win32,163.9344262,684250e4f00cb30b92d1fa88,,,,,,,,,,,,,,,,,,,,,,,,,,,,,,,,,,,,,,,,,,,,,,,,,,,,,,,,,,,,,,,,,,,,,,,,,,,,,,,,,,,,,,,,,,,,,,,,,,,,,,,,,,,,,,,,,
,,,,,,,660434638448016695dbc246,684429300757be1571665109,2025-06-07_14h05.07.393,shape_ratio,2024.1.5,Win32,163.9344262,684250e4f00cb30b92d1fa88,20.3878,51.6357,space,1.2423,,,,,,,,,,,,,,,,,,,,,,,,,,,,,,,,,,,,,,,,,,,,,,,,,,,,,,,,,,,,,,,,,,,,,,,,,,,,,,,,,,,,,,,,,,,,,,,,,,,,,,,,,,,,,
,,,,,,,660434638448016695dbc246,684429300757be1571665109,2025-06-07_14h05.07.393,shape_ratio,2024.1.5,Win32,163.9344262,684250e4f00cb30b92d1fa88,,,,,,51.6358,55.1977,space,0.5553,,,,,,,,,,,,,,,,,,,,,,,,,,,,,,,,,,,,,,,,,,,,,,,,,,,,,,,,,,,,,,,,,,,,,,,,,,,,,,,,,,,,,,,,,,,,,,,,,,,,,,,,
,,,,,,,660434638448016695dbc246,684429300757be1571665109,2025-06-07_14h05.07.393,shape_ratio,2024.1.5,Win32,163.9344262,684250e4f00cb30b92d1fa88,,,,,,,,,,,55.2088,55.7011,55.7012,55.9502,55.9502,57.0058,left,1.0391,,57.0059,58.104,0.0,0.0,0.0,0.0,1.0,0.2,,,,,,,,,,,,,,,,,,,,,,,,,,,,,,,,,,,,,,,,,,,,,,,,,,,,,,,,,,,,,,,,,,,,,,,,,,,,,,,,,,,,,,
,,,,,,,660434638448016695dbc246,684429300757be1571665109,2025-06-07_14h05.07.393,shape_ratio,2024.1.5,Win32,163.9344262,684250e4f00cb30b92d1fa88,,,,,,,,,,,58.1044,58.6016,58.6016,58.8504,58.8504,59.4995,left,0.64,,59.4995,60.5978,0.0,1.0,1.0,1.0,1.0,0.8,,,,,,,,,,,,,,,,,,,,,,,,,,,,,,,,,,,,,,,,,,,,,,,,,,,,,,,,,,,,,,,,,,,,,,,,,,,,,,,,,,,,,,
,,,,,,,660434638448016695dbc246,684429300757be1571665109,2025-06-07_14h05.07.393,shape_ratio,2024.1.5,Win32,163.9344262,684250e4f00cb30b92d1fa88,,,,,,,,,,,,,,,,,,,,,,,,,,,,60.5979,69.021,space,5.1804,,,,,,,,,,,,,,,,,,,,,,,,,,,,,,,,,,,,,,,,,,,,,,,,,,,,,,,,,,,,,,,,,,,,,,,,,,,,,,,,,,
,,,,,,,660434638448016695dbc246,684429300757be1571665109,2025-06-07_14h05.07.393,shape_ratio,2024.1.5,Win32,163.9344262,684250e4f00cb30b92d1fa88,,,,,,,,,,,69.0363,69.5244,,,69.7727,71.2713,,,,,,,,,,,0.55,,,,,,69.5247,69.7726,71.2715,"[0.02044148906123596,0.18346287791452093]",4.0,"[0.050823885474423645,0.13791420599931664]",4.0,"[-0.014521842185285115,-0.011652475122191327]",100.0,"[-0.17897255970471398,-0.08708839810924004]",4.0,"[0.11671264090203039,0.019013799583714353]",4.0,"[-0.11724501995531283,0.00748142344311828]",100.0,"[-0.1769594364502262,0.004172733626286782]",4.0,"[0.0455043378843361,-0.12375103045770225]",4.0,"[-0.05440575866906304,-0.001617274162910832]",100.0,"[0.10924918912653046,-0.10614572478998267]",100.0,"[-0.08724409846080616,-0.05768371678601477]",100.0,"[0.007556294418985612,-0.19050927314247837]",100.0,"[-0.04758289489181691,0.14229426895458347]",100.0,"[0.1666421385687711,0.07758425868607109]",100.0,"[0.06293746556359403,0.05539325843713842]",100.0,"[-0.12651473715199582,0.09142081636385901]",4.0,"[0.011650433654523815,0.10020021330102281]",4.0,"[0.06627371191450396,-0.035723523573961725]",4.0,"[0.03808421844803376,-0.07202967316539811]",100.0,"[-0.04483429520566458,-0.08926747457429327]",4.0,"[-0.10474031601697714,0.144047849730825]",100.0,"[0.0664710631381309,0.009462600914699295]",100.0,"[-0.10197921022022366,0.05598768765985714]",100.0,"[-0.06398082358701111,0.18230694466858555]",100.0,"[0.1523147309472829,-0.0009216044368603967]",100.0,"[-0.0732490453145032,-0.1743166192569752]",4.0,"[0.181149023243826,-0.06260951181520553]",4.0,"[-0.007270201472628866,-0.1330403418056915]",100.0,"[0.12737355598797995,0.12011027701063481]",100.0,"[-0.11043606057004647,-0.09149051514932174]",4.0,"[-0.019614664937149546,0.06791974173647629]",100.0,"[0.0878282824380182,-0.16083241545463806]",4.0,"[0.02,0.02]",72.3696,0.0,0.0,0.0,65.0,1.0,,,,,,,
,,,,,,,660434638448016695dbc246,684429300757be1571665109,2025-06-07_14h05.07.393,shape_ratio,2024.1.5,Win32,163.9344262,684250e4f00cb30b92d1fa88,,,,,,,,,,,72.3699,72.8669,,,73.1159,73.6194,right,0.4947,,,,,,,,,0.1,,,,,,72.8669,73.1159,73.6195,"[-0.07030452505026594,-0.08409625007415732]",4.0,"[0.11182072134117721,-0.007320757081112131]",4.0,"[-0.01618922721181406,0.1922463028417756]",4.0,"[0.014322841616002354,0.07856504255724556]",100.0,"[0.00829515464279376,-0.18961904968905144]",4.0,"[0.01652177969826302,-0.046449965517924026]",4.0,"[-0.11321855383874486,0.09848320322591811]",4.0,"[-0.05919749417684945,0.11038257453812604]",4.0,"[-0.017364159102121926,-0.0759053899521388]",100.0,"[0.19046170951104172,-0.005342873602244419]",4.0,"[0.1032496580734651,-0.13290608874139764]",4.0,"[-0.16229412179844718,0.008647960822162203]",4.0,"[0.06435762846727282,-0.16806772284860877]",4.0,"[0.05680698639119042,-0.04149609611920541]",4.0,"[0.13189682890010404,0.12581849769692333]",4.0,"[0.04612857708319099,-0.1298019846628324]",4.0,"[0.16118866307601676,-0.0689655187110815]",4.0,"[0.06191500841503289,0.02542474915581924]",4.0,"[0.06394013845887966,0.1863713648086318]",4.0,"[-0.14814049811029328,0.1308019096659815]",4.0,"[-0.09990503577076774,-0.11340719093248194]",100.0,"[0.05969946438655309,0.12188696846827216]",4.0,"[0.013262365915334504,0.018338725717807043]",4.0,"[-0.1641307274640856,-0.039085666683117706]",4.0,"[-0.0983467725590899,0.021405207907692604]",4.0,"[0.1379754366854411,0.06337657772170716]",4.0,"[-0.06083961215534002,0.16185652829048405]",4.0,"[-0.18405397655009112,0.04653081223571085]",4.0,"[0.15137272169383634,-0.0163894133945482]",4.0,"[-0.06469268733521895,-0.16577077394287626]",4.0,"[-0.03347031216609808,-0.022798239109418122]",4.0,"[-0.11971863626498334,-0.07610079233069236]",4.0,"[0.02,0.02]",74.7177,0.0,1.0,1.0,205.0,1.0,,,,,,,
,,,,,,,660434638448016695dbc246,684429300757be1571665109,2025-06-07_14h05.07.393,shape_ratio,2024.1.5,Win32,163.9344262,684250e4f00cb30b92d1fa88,,,,,,,,,,,74.718,75.2153,,,75.4642,75.987,right,0.5155,,,,,,,,,0.1,,,,,,75.2153,75.4642,75.987,"[0.11433806858697033,0.1272161713595101]",4.0,"[-0.054322855497512486,0.0383205107109433]",4.0,"[0.002968493628682045,-0.17731237867974708]",4.0,"[-0.0707855324440742,-0.008277178516513868]",4.0,"[-0.10146093033195733,0.12479885221990684]",4.0,"[-0.1349914757878051,-0.13864653367364135]",4.0,"[0.0629606208787188,0.12706426204096208]",4.0,"[0.05258965701201884,0.050836577213431655]",4.0,"[0.12775934222392143,0.04389757179280771]",4.0,"[0.02946318820340857,0.17086696911153368]",4.0,"[-0.004345320788653644,-0.07645898453581966]",4.0,"[0.11875023523249635,-0.02761368065780719]",4.0,"[0.06740063969202928,-0.12654500315052153]",4.0,"[0.0912503178013209,-0.0659159838469576]",4.0,"[0.1856989423891461,-0.046013818762099]",4.0,"[0.031558718408650835,-0.03181715456665219]",4.0,"[-0.019123338919592375,0.005500574589504653]",4.0,"[-0.05416845927697877,0.08530135830099125]",4.0,"[0.13469530936416976,-0.10735858422902456]",100.0,"[-0.05482968076322548,0.148881628404313]",4.0,"[0.014935991088776348,-0.11993538597894689]",100.0,"[-0.02843034506913524,-0.1441434289787715]",4.0,"[0.045067199006648184,-0.08416219638365502]",100.0,"[0.06359596811348397,-0.1878990816695008]",4.0,"[-0.10926524544134689,-0.042575768536212005]",4.0,"[0.08778641073078546,0.027424844996609545]",4.0,"[0.15924304673303719,-0.00863846346160549]",4.0,"[0.17803060924856876,0.057627196775110925]",4.0,"[-0.1594515117380387,0.016541351245363788]",4.0,"[0.07252065789222911,0.17675699540116394]",4.0,"[-0.016105509272020195,0.1852837867363789]",4.0,"[-0.011786773094632936,0.05434826713706815]",4.0,"[0.02,0.02]",77.0867,0.0,2.0,2.0,200.0,1.0,,,,,,,
,,,,,,,660434638448016695dbc246,684429300757be1571665109,2025-06-07_14h05.07.393,shape_ratio,2024.1.5,Win32,163.9344262,684250e4f00cb30b92d1fa88,,,,,,,,,,,77.0868,77.5851,,,77.8367,78.4131,right,0.5706,,,,,,,,,0.4,,,,,,77.5852,77.8367,78.4131,"[-0.054950498828229895,0.11468346261559587]",100.0,"[-0.09388378691726627,-0.1605127555353052]",100.0,"[0.11637976803368824,0.008340021553409946]",100.0,"[0.02366479213023402,-0.00986717549271487]",100.0,"[-0.017360510104868936,-0.12814176501948152]",4.0,"[-0.1879865977800568,0.030730077586024484]",4.0,"[-0.0678814886872241,-0.10966332734493749]",100.0,"[-0.159904665081539,-0.03497177849133188]",4.0,"[0.15468606764118065,-0.0422384144205141]",4.0,"[-0.0015139307877628026,0.08770114973566655]",100.0,"[0.12361030352838503,0.0767184500868612]",100.0,"[0.14938120364218696,0.13094547777115803]",4.0,"[-0.04364348479199396,0.051262237716573324]",4.0,"[-0.005927117015422203,-0.17874749731751088]",4.0,"[0.01995422810856905,0.16202952854073693]",4.0,"[0.038006227950522845,-0.06553160853030832]",4.0,"[-0.09072298808375047,0.03166135753500205]",4.0,"[-0.04889131117921112,-0.04786105019075771]",4.0,"[0.045089154873706856,0.10075406728886546]",100.0,"[-0.08592343911836782,0.1747313664954564]",4.0,"[0.17753922884254725,-0.08136356076633991]",4.0,"[-0.14302874784836186,0.003126558886880702]",100.0,"[0.06452226434618036,-0.1440492402757188]",4.0,"[0.08744522771559173,0.1729461068556358]",4.0,"[-0.06126646834392547,-0.005125770470858685]",4.0,"[0.08284991153506238,0.0857438542626099]",4.0,"[0.035620422615797336,0.04235124128934681]",100.0,"[-0.11065524365905892,0.13855145149663917]",4.0,"[0.036709559287727074,-0.11200497254122586]",100.0,"[0.10150584292036617,-0.07758353665615754]",100.0,"[0.19542131568270008,0.02865155568141373]",4.0,"[-0.09186554589623461,0.08020539936876125]",100.0,"[0.02,0.02]",79.5114,0.0,3.0,3.0,156.0,1.0,,,,,,,
,,,,,,,660434638448016695dbc246,684429300757be1571665109,2025-06-07_14h05.07.393,shape_ratio,2024.1.5,Win32,163.9344262,684250e4f00cb30b92d1fa88,,,,,,,,,,,79.5116,80.0089,,,80.2578,80.7674,left,0.4989,,,,,,,,,0.1,,,,,,80.009,80.2578,80.7674,"[-0.08619482438130062,-0.08772924800343741]",4.0,"[-0.1737697915457752,-0.012315207974573798]",4.0,"[0.05011215292393096,-0.15106537016827645]",4.0,"[-0.012942894624158013,-0.16545057925902407]",4.0,"[-0.04969084580797803,0.15472017249493442]",4.0,"[0.17739122241458383,0.005031686570786113]",4.0,"[0.07867192799131964,-0.006570890286288918]",4.0,"[-0.053249856990940404,-0.04211082050025513]",4.0,"[0.045275898413222423,0.05331668817331538]",4.0,"[-0.01742065170716653,0.19105170174189048]",4.0,"[0.12610609765435074,0.061078473013861635]",4.0,"[0.053740447182504675,-0.06985226000010934]",4.0,"[-0.1366785603675349,0.01304357654211442]",4.0,"[0.052985233907159764,0.18068038977903647]",4.0,"[-0.09678956139668625,-0.009697280732350055]",4.0,"[-0.03500823133711819,0.08355850242465819]",4.0,"[0.11465047134052282,0.019332656577648447]",4.0,"[0.08899702910563541,-0.10189254632389966]",4.0,"[0.14218485599317354,0.13405443733823083]",4.0,"[-0.0015843895159657186,0.024996040631984785]",4.0,"[0.024658741765131605,0.12023989146393356]",100.0,"[-0.1431895694569695,-0.05915809136261812]",4.0,"[0.09986483894240791,-0.1415824857873904]",4.0,"[0.11092776891617208,-0.04100719693915621]",4.0,"[-0.14878057964146957,0.13212336486939713]",4.0,"[0.03287013884883606,-0.19063865211868028]",4.0,"[-0.10377022585307405,0.10795130545381278]",4.0,"[0.18676153913609692,-0.06714330147456557]",4.0,"[-0.0008645176220583447,-0.03787354263420547]",100.0,"[-0.05345018269487344,0.01753291293672094]",100.0,"[-0.10996016814855929,0.05674425957232099]",4.0,"[0.08094665588623887,0.14006510342725403]",4.0,"[0.02,0.02]",81.8656,0.0,4.0,4.0,182.0,1.0,,,,,,,
,,,,,,,660434638448016695dbc246,684429300757be1571665109,2025-06-07_14h05.07.393,shape_ratio,2024.1.5,Win32,163.9344262,684250e4f00cb30b92d1fa88,,,,,,,,,,,81.8658,82.3631,,,82.612,82.9822,left,0.3648,,,,,,,,,0.9,,,,,,82.3632,82.612,82.9822,"[0.016601051421004563,-0.07312640884875274]",100.0,"[-0.13127120484760776,-0.012824072102193858]",100.0,"[-0.010016487357434316,0.08161559531335613]",100.0,"[-0.058672523087773085,-0.09199892341399785]",4.0,"[0.07703421748825745,-0.11119397694272153]",100.0,"[-0.12372409780356267,0.0322433069639286]",100.0,"[-0.12774385958575632,-0.0571307514320728]",100.0,"[-0.057875121837962284,-0.18131284660396013]",100.0,"[0.055878170678515665,-0.17346165231700955]",100.0,"[0.163763812453511,0.10337078337597394]",4.0,"[0.17732915246411562,-0.09144145225371136]",100.0,"[-0.18140746335099556,0.07354995961330733]",100.0,"[-0.06002419237240539,0.13549549327702867]",100.0,"[-0.024703070865642697,-0.06562215887866735]",100.0,"[0.08894632491767554,-0.004217100554204558]",4.0,"[0.043278508516195774,-0.00758709237377698]",100.0,"[-0.015164784635977419,-0.1357791954838988]",100.0,"[0.0036999835294053555,0.15015675553011334]",100.0,"[-0.12638961331779397,0.14251833107852369]",100.0,"[-0.042673907051908454,0.0035517166182520146]",100.0,"[-0.11626357265541808,0.07792699199968334]",100.0,"[0.09735120986436756,0.15044934632831727]",100.0,"[0.09992992404963769,-0.07366854183878316]",100.0,"[0.10058418019657882,0.03759340354926577]",100.0,"[0.034839115470963036,0.03374878559978428]",100.0,"[0.042545804105652806,0.18515662389680537]",100.0,"[0.10861177404695682,0.10227310070404852]",100.0,"[-0.08207233249194605,0.04903023943954645]",100.0,"[0.1769840544573645,0.06465809656827912]",100.0,"[0.13384145005295178,-0.10836741348494373]",100.0,"[-0.09301022390408142,0.17482063158053018]",100.0,"[0.04469433304529706,0.13106208890723584]",100.0,"[0.02,0.02]",84.0805,0.0,5.0,5.0,26.0,1.0,,,,,,,
,,,,,,,660434638448016695dbc246,684429300757be1571665109,2025-06-07_14h05.07.393,shape_ratio,2024.1.5,Win32,163.9344262,684250e4f00cb30b92d1fa88,,,,,,,,,,,84.0807,84.5781,,,84.8269,85.1519,left,0.314,,,,,,,,,0.55,,,,,,84.5781,84.8268,85.1519,"[0.07502704537002702,-0.013568463418838146]",100.0,"[-0.14204792284690138,-0.07913556726661286]",4.0,"[0.09052471528060516,0.1679517676739477]",100.0,"[-0.10461288437402202,-0.09466081990618115]",4.0,"[0.002721458130278667,-0.1240066018533111]",4.0,"[0.019448881249496678,0.1184819526562109]",100.0,"[0.10433501712288008,0.12242183583903]",100.0,"[0.01851665156613503,0.019135917960480742]",100.0,"[-0.10095558539284548,0.14136696349904201]",4.0,"[-0.06447992403219782,-0.10533818792691575]",100.0,"[-0.11458469360806423,0.08339076662259676]",100.0,"[0.06140077345014447,-0.1673106287824267]",100.0,"[-0.07558015833613067,-0.1457114222962273]",4.0,"[0.03324475069349939,0.057778345355809155]",4.0,"[-0.06940903811236813,0.07436933909072092]",100.0,"[0.13861708991456564,0.05054104304367942]",4.0,"[-0.15691920367520346,-0.021809539738016952]",100.0,"[0.12629624424196875,-0.03883213586463885]",4.0,"[-0.09711334707183537,0.002507040206013481]",100.0,"[0.012571902361183444,0.1611938057230019]",100.0,"[-0.036628591762172,0.1087955193341545]",100.0,"[-0.036434794763404735,-0.017844775598358235]",100.0,"[0.1142982451189422,-0.08325492550221711]",100.0,"[-0.1232911230345653,-0.157159985251624]",100.0,"[-0.18231674673198098,-0.05775032385959699]",4.0,"[0.10326096001847831,-0.1571124552314033]",4.0,"[0.1523272083404792,0.09683583142448925]",4.0,"[0.07684998542298523,0.084021962407809]",4.0,"[0.07144958252159761,0.041195126641284927]",4.0,"[-0.040503885122819626,0.030261923354282672]",100.0,"[0.1963578858830434,0.019957218271330252]",100.0,"[0.025073433923611013,-0.042947241442966654]",4.0,"[0.02,0.02]",86.2527,0.0,6.0,6.0,67.0,1.0,,,,,,,
,,,,,,,660434638448016695dbc246,684429300757be1571665109,2025-06-07_14h05.07.393,shape_ratio,2024.1.5,Win32,163.9344262,684250e4f00cb30b92d1fa88,,,,,,,,,,,86.2529,86.7503,,,86.9992,87.4359,right,0.4277,,,,,,,,,0.5,,,,,,86.7503,86.9992,87.4359,"[0.01273677528996295,-0.19041266149659453]",100.0,"[-0.11476413318099038,-0.13810830594870083]",4.0,"[0.15718541403029845,0.021841842044191328]",100.0,"[0.06619155836307465,0.06656216293949099]",100.0,"[-0.13321110463995897,0.053364146241382346]",4.0,"[0.08877036361175744,-0.05043818633357245]",100.0,"[0.004904853076725721,0.14369890600433297]",100.0,"[-0.020487601915660507,-0.001243877547482955]",4.0,"[0.17257306790885824,-0.03491270727151992]",100.0,"[-0.11277120932932919,-0.03972225618980653]",4.0,"[-0.19436458135176515,0.0010629779033694514]",4.0,"[0.05716020135442646,0.12484830895821974]",4.0,"[-0.06986404704869482,0.011220635406483543]",4.0,"[0.13475864895128006,-0.14620120634952422]",100.0,"[0.13500199980275027,0.06397166150636034]",4.0,"[0.15013531983507586,-0.08013752199498111]",100.0,"[-0.09450262249178669,0.1320404731238449]",100.0,"[-0.14046558592153888,0.13684155558862393]",100.0,"[0.07634727418804588,-0.16910418388423493]",4.0,"[0.05108724738356921,-0.1095672265116251]",100.0,"[-0.167104389121154,0.08563547698632776]",4.0,"[-0.06142918327626288,-0.1795806536399816]",100.0,"[-0.02662323223254904,-0.11026039231963985]",4.0,"[0.10553619335702649,0.15938080687339884]",4.0,"[-0.09481648766847363,0.0689538899242345]",100.0,"[-0.12880687223133025,-0.09510048196747448]",4.0,"[0.03425157213216525,0.18475741145803368]",4.0,"[0.015812935855939618,-0.03196844195425023]",100.0,"[-0.023540117650878607,-0.06720581255022634]",4.0,"[-0.020403285825405626,0.04447736516480847]",100.0,"[0.09729250638143062,-0.11226344190118044]",100.0,"[-0.03417040874299785,0.13477567636452242]",4.0,"[0.02,0.02]",88.5341,0.0,7.0,7.0,111.0,1.0,,,,,,,
,,,,,,,660434638448016695dbc246,684429300757be1571665109,2025-06-07_14h05.07.393,shape_ratio,2024.1.5,Win32,163.9344262,684250e4f00cb30b92d1fa88,,,,,,,,,,,88.5343,89.0319,,,89.2807,89.8631,right,0.578,,,,,,,,,0.1,,,,,,89.0319,89.2806,89.8631,"[0.04635339941030351,0.08224063072538014]",100.0,"[-0.08646358593094228,-0.06331886423231353]",100.0,"[-0.0750533606189988,0.15753207675897057]",100.0,"[0.07322588746750894,0.16556425508160322]",4.0,"[-0.16617165552391253,0.033760010929131404]",4.0,"[-0.09906233037201498,0.11524429935904155]",4.0,"[0.042032403244006346,-0.12449051939839315]",4.0,"[0.1051960932714816,0.08105864581921193]",4.0,"[-0.06483622963728476,-0.0290617035847067]",4.0,"[-0.07252010051546598,0.03771240083594256]",4.0,"[-0.06766357469033564,-0.1639521890570048]",4.0,"[-0.000911706597434463,0.14925736319348845]",4.0,"[0.15750401652894566,-0.10630137708380911]",4.0,"[-0.14932797878154594,0.09797570173370256]",4.0,"[-0.1041164086692001,0.0652090602076805]",4.0,"[0.14904256272908423,-0.05282558501380463]",4.0,"[-0.0337641848103499,-0.09127602508793636]",4.0,"[0.07638705245231099,0.11405904242844164]",4.0,"[-0.13636976491036729,-0.11268634727624399]",4.0,"[-0.007902666609524564,0.04998194468025227]",4.0,"[0.021735021129797378,-0.195472076334912]",4.0,"[0.007475497233423142,-0.08665589816841666]",4.0,"[0.06934484072636864,0.03199265578445984]",4.0,"[0.07338117501170276,-0.01353329318024511]",4.0,"[-0.029175684896493442,0.11553453624278255]",4.0,"[0.08096306289093494,-0.08229891986797856]",4.0,"[-0.14199730869513716,-0.046787373397615094]",4.0,"[-0.020708046983607828,-0.17702038837000308]",4.0,"[0.0030711967489958076,0.006932356682285092]",4.0,"[-0.12182004289944263,0.007105156896660769]",4.0,"[-0.017600631578356646,-0.04676423669432625]",4.0,"[0.14404791510003354,0.11925984907595331]",4.0,"[0.02,0.02]",90.9613,0.0,8.0,8.0,194.0,1.0,,,,,,,
,,,,,,,660434638448016695dbc246,684429300757be1571665109,2025-06-07_14h05.07.393,shape_ratio,2024.1.5,Win32,163.9344262,684250e4f00cb30b92d1fa88,,,,,,,,,,,90.9615,91.4589,,,91.7078,92.0293,left,0.3106,,,,,,,,,0.6,,,,,,91.4589,91.7078,92.0293,"[-0.15010688969694114,-0.07864198437449382]",100.0,"[0.1276529044179364,0.14244656708138284]",100.0,"[-0.12104452799173004,0.00515273606035445]",4.0,"[-0.1712616189459892,0.07590524041925915]",100.0,"[-0.07678432067837622,0.034423798299058825]",100.0,"[0.03861642245106605,-0.06461738544655184]",4.0,"[-0.10714325801391378,-0.04834081787454599]",4.0,"[-0.020809795031118263,-0.030735285961783158]",4.0,"[0.003309745881924545,0.04497270843605509]",100.0,"[-0.06497830678124034,0.15891873969698814]",100.0,"[0.16969995581275515,-0.0004845314726902401]",4.0,"[0.07456745586188136,-0.038350558368842484]",100.0,"[0.04570966005141401,0.15782413466882778]",100.0,"[0.1452829553857972,0.09495549697263919]",4.0,"[-0.15423804817827153,-0.019048434442473772]",100.0,"[0.16765875158478202,0.04144160291796035]",4.0,"[0.0034099004543048806,-0.15345248608577303]",4.0,"[0.0574238745347445,-0.14344526530310067]",4.0,"[0.00673816148493201,-0.10059910187473887]",100.0,"[-0.09079586318237627,-0.1485428009567188]",100.0,"[0.16511159196444572,-0.04028004440077778]",4.0,"[-0.057727257063165685,-0.01097945095713428]",4.0,"[0.07178530578390166,0.07543555361040126]",100.0,"[-0.13851095114414974,0.10991558137393682]",100.0,"[0.020131800360865038,-0.02665633965975237]",100.0,"[0.1280632958143131,-0.007834398790233366]",100.0,"[0.06596488645791249,0.0025201877685328976]",100.0,"[0.15064884130205197,-0.0972273014488981]",4.0,"[0.024549865013196875,0.0932207478710338]",100.0,"[-0.07557637933681327,-0.09016974740926412]",100.0,"[-0.08594019267379822,0.0802879937624417]",100.0,"[-0.020342642044960745,0.1711967437930677]",4.0,"[0.02,0.02]",93.1276,0.0,9.0,9.0,32.0,1.0,,,,,,,
,,,,,,,660434638448016695dbc246,684429300757be1571665109,2025-06-07_14h05.07.393,shape_ratio,2024.1.5,Win32,163.9344262,684250e4f00cb30b92d1fa88,,,,,,,,,,,93.1277,93.625,,,93.8739,94.4029,right,0.5205,,,,,,,,,0.55,,,,,,93.625,93.8739,94.4029,"[-0.09768205331128475,0.146809929561401]",4.0,"[-0.0851675750961841,-0.06767522920114678]",100.0,"[0.13842109133189656,0.08580066302035215]",100.0,"[-0.05060461873804904,0.137319424980077]",4.0,"[-0.03991174305683495,-0.16280184673034698]",4.0,"[0.14097759891597456,-0.12080474124174446]",100.0,"[-0.09459802438886163,-0.17370900777108958]",4.0,"[0.012698958924490689,0.13724926261514342]",4.0,"[0.030475348015512098,0.09913833067323297]",100.0,"[-0.08706888027624846,-0.12753208490212586]",100.0,"[-0.01510036536676127,-0.01954269210675088]",4.0,"[0.06317431656533169,0.13671367625270986]",100.0,"[-0.14643838601268255,-0.017800289281003218]",100.0,"[0.07930273394689695,0.0976931459830532]",4.0,"[0.015049846958601468,-0.110712035268527]",100.0,"[0.08189556031173795,0.04496209101787703]",100.0,"[0.10055525429707006,0.1659479428286212]",100.0,"[-0.10315340575829407,0.08315155398461672]",4.0,"[-0.130993378308305,-0.1304658389106691]",100.0,"[0.15726719519347454,-0.002447810635324715]",100.0,"[0.10050421581345627,-0.17206681730038784]",100.0,"[-0.046030298543785354,-0.10748573996594882]",4.0,"[0.035831568839369235,-0.028959804234679185]",4.0,"[0.07993311257164824,-0.0962137036437824]",100.0,"[-0.0554076676105077,-0.03473213276873592]",4.0,"[-0.17566418089977126,0.03868029199095354]",100.0,"[-0.017978510769679663,0.0689777676474181]",4.0,"[0.023110566372649466,0.03650069433074339]",100.0,"[-0.05679348749269739,0.026847292290476724]",4.0,"[-0.15421966407239554,0.07444337639485885]",4.0,"[0.010386710505419115,0.17801112837669422]",100.0,"[-0.0045173531401225325,-0.1924781472005866]",100.0,"[0.02,0.02]",95.5002,0.0,10.0,10.0,62.0,1.0,,,,,,,
,,,,,,,660434638448016695dbc246,684429300757be1571665109,2025-06-07_14h05.07.393,shape_ratio,2024.1.5,Win32,163.9344262,684250e4f00cb30b92d1fa88,,,,,,,,,,,95.5004,95.9999,,,96.2466,96.7803,left,0.5304,,,,,,,,,0.45,,,,,,95.9999,96.2466,96.7804,"[0.18773272660990736,-0.051985624393618146]",100.0,"[0.1975517409387289,0.023206956243549872]",100.0,"[-0.08897501057293007,-0.08622607843057488]",4.0,"[0.14716545821565613,0.13252564794957722]",4.0,"[-0.12320036094182917,-0.14604807700863154]",100.0,"[0.022189338293836142,-0.07227540184744456]",100.0,"[0.07235358554791606,0.09413672362131063]",100.0,"[-0.04336818092997338,-0.005637602917053241]",4.0,"[-0.04121799215950026,0.06592307077968514]",4.0,"[-0.06717209881920162,-0.13267101973624978]",100.0,"[0.07233024699416749,-0.09249335496600092]",4.0,"[0.09966705962548017,0.007697834667225798]",4.0,"[0.12553793927654705,-0.06139286013005556]",100.0,"[0.0123799385140253,0.09812738230585541]",4.0,"[0.010433795887583672,0.169888246294845]",4.0,"[0.06958617529543981,-0.02770144847559391]",4.0,"[-0.1953243808116644,0.03272396195616627]",100.0,"[0.08342455095861488,-0.14510523636713002]",4.0,"[0.04099271894788382,0.005544679496863662]",100.0,"[-0.02904803155490076,-0.0712157146000323]",4.0,"[-0.07256204938627585,0.11010082414707098]",4.0,"[0.13767042855543998,0.06343056022592455]",4.0,"[-0.15953028090943833,-0.07678657280635953]",100.0,"[0.10244299118701067,0.12571289568900976]",4.0,"[-0.02647718075396475,0.14293924779155592]",4.0,"[-0.04907603960121823,0.19312466103484333]",100.0,"[-0.13475020116912803,0.0191426850897411]",100.0,"[-0.17708161544516687,-0.011413146642634927]",4.0,"[-0.06757874199641199,-0.1866470288295466]",4.0,"[-0.10062553956545461,-0.01665263669600072]",100.0,"[0.16361834977547485,-0.09896594356289143]",100.0,"[-0.0009431884470610995,-0.15212333238875725]",4.0,"[0.02,0.02]",97.8786,0.0,11.0,11.0,139.0,1.0,,,,,,,
,,,,,,,660434638448016695dbc246,684429300757be1571665109,2025-06-07_14h05.07.393,shape_ratio,2024.1.5,Win32,163.9344262,684250e4f00cb30b92d1fa88,,,,,,,,,,,97.8788,98.3762,,,98.625,99.3836,left,0.7475,,,,,,,,,0.4,,,,,,98.3762,98.625,99.3836,"[-0.011849693116059804,-0.11146139289562004]",4.0,"[-0.14864682547315466,0.12819447357710367]",100.0,"[0.09599161309758532,0.1738181919848522]",4.0,"[-0.11035276779170242,-0.1309290392355856]",4.0,"[-0.0740225318876176,-0.1137480783958396]",100.0,"[0.08857672105766483,0.09279200495586128]",4.0,"[0.04104242148486739,-0.1145120707125371]",4.0,"[-0.07014276636328193,-0.00958830638975606]",100.0,"[0.0807020877999931,-0.17437063830818178]",4.0,"[0.017328809316243917,0.009450069580397269]",100.0,"[0.11574283586042004,-0.10754908535525001]",4.0,"[-0.12919779716624505,0.011034428137224165]",4.0,"[-0.08879089035909647,0.04844827769816563]",4.0,"[0.17474073766236708,-0.0835530318217824]",4.0,"[0.18557734266857157,-0.02024194582495486]",100.0,"[-0.1211185366600802,0.09384672911575698]",100.0,"[-0.027535416335375065,-0.1591424263529578]",4.0,"[0.15023705374016835,0.09810432322534199]",4.0,"[-0.02177170657842463,-0.02530415296214776]",100.0,"[-0.07366294939557862,0.1648254604569638]",100.0,"[-0.040517537333278994,0.07393286908515549]",4.0,"[0.035637381634285044,0.11339260577386596]",4.0,"[0.08542889404159422,-0.030428991103204857]",4.0,"[-0.16138718681066203,-0.04103470217542985]",100.0,"[0.08075424986175438,0.034961917205257965]",100.0,"[-0.07528828073311614,0.12060268158733442]",100.0,"[0.1467018353655771,-0.05325283881156263]",4.0,"[0.011330926149753461,0.1575240363348795]",100.0,"[0.08196511629635671,0.13387040353205834]",4.0,"[-0.12338075374402148,-0.053587173385403426]",100.0,"[-0.14894270074268579,-0.11576835168772086]",4.0,"[0.021679253995395498,-0.04239996435164891]",4.0,"[0.02,0.02]",100.4818,0.0,12.0,12.0,155.0,1.0,,,,,,,
,,,,,,,660434638448016695dbc246,684429300757be1571665109,2025-06-07_14h05.07.393,shape_ratio,2024.1.5,Win32,163.9344262,684250e4f00cb30b92d1fa88,,,,,,,,,,,100.4821,100.9794,,,101.2271,101.8775,right,0.6382,,,,,,,,,0.4,,,,,,100.9794,101.2271,101.8775,"[0.1019571986408286,-0.029145605170330772]",4.0,"[0.14874353911173882,-0.1175013892372179]",4.0,"[0.11639901840076028,-0.16132950018062817]",100.0,"[0.12480027239955578,0.1428949029358202]",4.0,"[0.012813760092311064,0.010895864175680683]",100.0,"[0.07574626713594086,0.07564095954934241]",100.0,"[-0.0756648997740597,0.1845278737260944]",4.0,"[-0.015727268159267213,0.19424622076700587]",4.0,"[-0.12204562952110418,-0.02783318504051973]",100.0,"[-0.11483097694357855,0.13493702262358526]",4.0,"[-0.02369871584866365,-0.0717288820776652]",4.0,"[0.10107828437174028,-0.09120352720940847]",4.0,"[0.012579707456434896,0.11852267898106798]",4.0,"[0.008435298475596592,-0.046185640694445654]",100.0,"[-0.14567404566633255,0.06245906787739102]",4.0,"[-0.08660614049968701,-0.11685405629483228]",100.0,"[0.16475486135713718,-0.046377029829778]",100.0,"[0.026003349931025065,-0.16725486700467274]",100.0,"[-0.07878602845149345,0.06446677261202918]",100.0,"[0.015342679130241807,0.15890567663623023]",4.0,"[-0.07990382092982039,-0.04883304012446437]",100.0,"[0.09912261535617237,0.11026642344877366]",100.0,"[-0.04180504985547385,-0.18189241559092104]",4.0,"[0.05832269852118894,0.030356834837523803]",4.0,"[0.05979493453644647,0.1535045892965041]",100.0,"[-0.05765427389286903,0.14463742028299686]",4.0,"[-0.10451648768985988,0.016219824739920615]",4.0,"[-0.010784365932835284,0.05588798730247617]",100.0,"[0.13548630684193091,0.04119927873570365]",4.0,"[-0.037990518755761565,0.1046975548091697]",4.0,"[0.05426731495301329,-0.09391303033822056]",4.0,"[0.07122324728308708,-0.15272360807887014]",4.0,"[0.02,0.02]",102.9757,0.0,13.0,13.0,172.0,1.0,,,,,,,
,,,,,,,660434638448016695dbc246,684429300757be1571665109,2025-06-07_14h05.07.393,shape_ratio,2024.1.5,Win32,163.9344262,684250e4f00cb30b92d1fa88,,,,,,,,,,,102.9759,103.4733,,,103.7222,104.2134,right,0.487,,,,,,,,,0.1,,,,,,103.4733,103.7222,104.2135,"[-0.16825400741978355,-0.05923360845573022]",4.0,"[0.09209630425941973,0.1013297514768097]",4.0,"[-0.06799804402373989,-0.059016625868789876]",4.0,"[-0.010418890711810834,-0.045422616924235194]",4.0,"[0.19104140256632068,0.04282897220451531]",4.0,"[-0.04314069618564846,0.021116441475085537]",4.0,"[-0.07989281553143472,-0.13629997962623225]",4.0,"[-0.004152098950803193,0.18770886489658437]",100.0,"[-0.12687424929934277,-0.07124910209892764]",4.0,"[0.14176346972496856,-0.07197954550847951]",4.0,"[0.029587712132331613,-0.012047344102520115]",4.0,"[-0.024126489440724028,-0.1654700475442717]",4.0,"[0.16491193529960396,0.1081267435361762]",4.0,"[-0.03999745590301898,0.08977036852009747]",100.0,"[0.15032870606081322,0.03833252925595247]",4.0,"[0.009230800152937146,-0.09676892608095826]",4.0,"[-0.15164908523645598,0.11685437733278296]",4.0,"[0.08991294661136251,-0.09172163705289738]",4.0,"[0.08708452260838241,-0.011505923538643244]",4.0,"[-0.10506677198888614,0.06782119415947417]",4.0,"[0.04634478712454906,0.044055555147885846]",4.0,"[-0.05138863779698751,-0.10788238320912347]",4.0,"[-0.09527739153733654,-0.014944450846631228]",4.0,"[0.03188233752733423,-0.06290044072212561]",4.0,"[-0.18109815323964448,-0.009008811876253086]",4.0,"[-0.11188871806187635,0.13413197230525803]",100.0,"[0.152059941517082,-0.004396067491165451]",4.0,"[0.05379459824753241,-0.12332409500870985]",4.0,"[0.04816957817430207,0.11296323554617269]",4.0,"[0.10773582533350137,0.142880864121533]",4.0,"[-0.15827307056433185,-0.11472290858433203]",4.0,"[-0.18753514753805656,0.03545430878226976]",4.0,"[0.02,0.02]",105.3119,0.0,14.0,14.0,207.0,1.0,,,,,,,
,,,,,,,660434638448016695dbc246,684429300757be1571665109,2025-06-07_14h05.07.393,shape_ratio,2024.1.5,Win32,163.9344262,684250e4f00cb30b92d1fa88,,,,,,,,,,,105.3121,105.8093,,,106.0604,106.6345,left,0.5719,,,,,,,,,0.5,,,,,,105.8093,106.0604,106.6345,"[-0.03973748543397605,0.011038557932695392]",4.0,"[0.002106701221922945,-0.09503649136234367]",100.0,"[-0.18171583729100896,0.02604072182799616]",100.0,"[-0.07946008295512612,0.060518901323134616]",100.0,"[0.11534690339842632,0.09770649398770112]",4.0,"[-0.019220075601800148,0.1592508468077072]",4.0,"[0.06844572409136576,-0.0014246206798212812]",100.0,"[0.06224458718697802,0.1512939449205143]",100.0,"[-0.05549028828256375,0.13759074079004693]",100.0,"[0.11252403674427629,-0.10962543813770441]",4.0,"[-0.132271252932213,-0.14635434616814424]",100.0,"[-0.14773836601695806,0.10938182981369146]",4.0,"[-0.10472345779948782,-0.002523703441953961]",4.0,"[0.16013925409785476,-0.05583051987199554]",100.0,"[-0.08500338440987046,-0.07490349324715909]",100.0,"[-0.14502482376822629,-0.03687712088775294]",4.0,"[0.020667936052109554,-0.13822122391151564]",100.0,"[0.1550591833386773,0.07991335261326224]",4.0,"[0.1578833145579253,0.002539796805043635]",4.0,"[0.029300279137816437,-0.047332671965327706]",4.0,"[0.026985633645339048,0.0905087637670826]",100.0,"[-0.018277012643949056,-0.026629003603095936]",4.0,"[-0.010351174189992316,-0.1832826375791895]",4.0,"[-0.026784485797094876,0.10409476977569211]",4.0,"[-0.057504400433124145,-0.15027636807830827]",4.0,"[0.0075397263582008605,0.04689463145244922]",100.0,"[-0.08994900108909859,0.17856302701428764]",100.0,"[-0.13795025098876532,-0.09244175869378142]",100.0,"[-0.11359645418177591,0.13369541164059667]",100.0,"[-0.12346933465476086,0.07183982959617975]",100.0,"[-0.04177545619920526,-0.06970352352206935]",4.0,"[0.18585815897475969,0.04182253692115348]",4.0,"[0.02,0.02]",107.7329,0.0,15.0,15.0,98.0,1.0,,,,,,,
,,,,,,,660434638448016695dbc246,684429300757be1571665109,2025-06-07_14h05.07.393,shape_ratio,2024.1.5,Win32,163.9344262,684250e4f00cb30b92d1fa88,,,,,,,,,,,107.7331,108.2304,,,108.4795,109.1163,left,0.6335,,,,,,,,,0.4,,,,,,108.2305,108.4795,109.1163,"[0.05109696678591225,-0.16805910837765006]",4.0,"[0.1577510536162056,-0.09117222466566863]",4.0,"[-0.11694937378948592,-0.15009251502399035]",4.0,"[0.11218769052760925,-0.014765197101477202]",4.0,"[0.0829061614290743,-0.060654823838346]",100.0,"[-0.11824681003145142,0.10990126243986371]",100.0,"[-0.13194361406690636,0.06988830683351403]",100.0,"[0.06739431970622312,0.01923286484799502]",4.0,"[-0.014327784665444517,0.19493409884998789]",4.0,"[0.04935132089324444,-0.09028324043994909]",4.0,"[-0.022418089789069732,0.04435152266273834]",4.0,"[-0.18354051586521952,0.025621901276519577]",4.0,"[0.03479371406223707,0.1646904447119208]",4.0,"[0.026406539330274054,0.04445755739786249]",100.0,"[-0.06937140592236249,-0.034659015673527895]",100.0,"[-0.06127040173767564,-0.13639773526474588]",4.0,"[0.10092480878927183,0.15987363950821096]",4.0,"[-0.07693164002822736,0.16293039457084368]",4.0,"[-0.1589067606491327,-0.03365965297210695]",4.0,"[0.12996115585997664,0.035140726280544314]",4.0,"[-0.10901670971950955,0.03290984926719634]",100.0,"[0.06546215727360415,0.12600622229455447]",100.0,"[-0.02347465124145504,0.12062525104442794]",100.0,"[0.04593665826830956,-0.014533206482767855]",100.0,"[0.13241469963895824,0.1070371310079521]",4.0,"[0.18732781718403657,0.031139961642070415]",4.0,"[-0.017015599904024806,-0.16032631824365565]",4.0,"[-0.005203448426603637,-0.027264955352042715]",100.0,"[0.13296881158213553,-0.1276032659191079]",4.0,"[-0.13912238294383605,-0.08550889755386419]",100.0,"[0.00008565244634533848,0.07955621752954574]",100.0,"[0.10222556465226595,-0.10187670892468616]",100.0,"[0.02,0.02]",110.2146,0.0,16.0,16.0,151.0,1.0,,,,,,,
,,,,,,,660434638448016695dbc246,684429300757be1571665109,2025-06-07_14h05.07.393,shape_ratio,2024.1.5,Win32,163.9344262,684250e4f00cb30b92d1fa88,,,,,,,,,,,110.2149,110.7121,,,110.961,111.5313,left,0.5676,,,,,,,,,0.9,,,,,,110.7121,110.961,111.5313,"[-0.024970231028106957,0.17965132237115206]",100.0,"[-0.12223445414261122,0.0867521587983449]",100.0,"[-0.16902674393300426,-0.07780980478807177]",100.0,"[0.06789776929275562,0.15609830636422134]",100.0,"[-0.019907349044920274,0.04973641464522933]",100.0,"[-0.0022721373040998586,-0.07340005188252294]",100.0,"[0.001653933453977506,-0.028080538323907545]",100.0,"[0.09508608699511532,0.047130858581857234]",100.0,"[-0.10049334364191466,0.16322840251441784]",100.0,"[-0.13068354845535765,-0.044171551460205905]",100.0,"[0.01610345750957284,0.022528227601833727]",100.0,"[0.07524614237241291,0.08252781133675449]",100.0,"[0.13691947418038022,-0.017022970389172134]",100.0,"[-0.14636229705780862,-0.13040093231980623]",100.0,"[-0.16542226064045215,0.0035286330785997185]",4.0,"[0.026040891738183664,-0.11538148505718002]",100.0,"[0.02865822160423216,-0.1743117774375316]",100.0,"[0.10225628408223535,-0.09789881030221814]",100.0,"[0.0681174564595046,-0.07569474346549286]",4.0,"[0.18153128376289168,-0.06520030230334957]",100.0,"[-0.07183777146685398,-0.1684530022355507]",100.0,"[-0.08940472366962546,-0.009456211224322482]",100.0,"[-0.15799844886477116,0.06236197563683812]",100.0,"[-0.08304855858133779,0.04925511487317473]",100.0,"[0.12774472068479084,0.023659355126084098]",100.0,"[0.15044842806830144,0.08667045158782333]",4.0,"[-0.04676323636660528,0.1257498450725609]",100.0,"[0.09473257226995221,-0.0317259581809593]",100.0,"[0.038198648818809966,0.19234647414408784]",100.0,"[0.19856020960401047,0.01964879475147553]",100.0,"[0.046003331800806326,0.05491270800193726]",100.0,"[0.05133278055525469,-0.032947453732257624]",100.0,"[0.02,0.02]",112.6296,0.0,17.0,17.0,7.0,1.0,,,,,,,
,,,,,,,660434638448016695dbc246,684429300757be1571665109,2025-06-07_14h05.07.393,shape_ratio,2024.1.5,Win32,163.9344262,684250e4f00cb30b92d1fa88,,,,,,,,,,,112.6298,113.1272,,,113.3762,113.8856,right,0.5059,,,,,,,,,0.55,,,,,,113.1273,113.3762,113.8856,"[0.029714377245390153,-0.14789639516579994]",4.0,"[0.0702123612159958,-0.058053808376214745]",100.0,"[0.15751008600295727,-0.10882750128406404]",100.0,"[0.17950142609640118,-0.04646823011774526]",4.0,"[0.0655481822259228,0.15287420446710037]",100.0,"[-0.05992638863732899,0.1489575059550125]",100.0,"[-0.09520805968129144,-0.16997039858622726]",100.0,"[0.13727712074706,0.022730656332670657]",4.0,"[-0.10679870221424657,-0.07979412084983058]",100.0,"[0.04726830850252868,-0.10064127918714655]",4.0,"[0.15814788031841306,0.12229766935875888]",100.0,"[0.16004620574206582,0.07491169350363103]",100.0,"[-0.1043255305346811,0.14691614709602008]",100.0,"[0.005297281910558316,0.11567169284125378]",100.0,"[-0.1531117577498032,0.05642835573088297]",100.0,"[0.11388006086685906,-0.059928396612250405]",4.0,"[-0.05229635948187504,-0.15369717931900156]",4.0,"[-0.02997999910868391,-0.11399070188170596]",100.0,"[-0.12018096922188891,-0.030466121317960126]",100.0,"[-0.03384824333440891,-0.06673025184407744]",4.0,"[-0.14855800711175132,-0.06960132697154106]",4.0,"[-0.05344137817092364,0.06640542829234804]",4.0,"[0.026615188095539106,0.04566496511773722]",4.0,"[-0.15801976981834664,0.10689323402065301]",100.0,"[0.0708138017325121,-0.14723999657495024]",100.0,"[-0.010701403699487739,0.01962208973806047]",100.0,"[0.0708303509779776,0.05572233922759429]",4.0,"[0.06132769960264772,-0.01202152409575472]",100.0,"[-0.15618459116874486,0.01574647990508899]",4.0,"[-0.0069673407234748614,0.17238437129096768]",100.0,"[0.11778309634988178,0.1257735182412969]",4.0,"[0.12613293560317487,-0.13506954932666584]",4.0,"[0.02,0.02]",114.9839,0.0,18.0,18.0,69.0,1.0,,,,,,,
,,,,,,,660434638448016695dbc246,684429300757be1571665109,2025-06-07_14h05.07.393,shape_ratio,2024.1.5,Win32,163.9344262,684250e4f00cb30b92d1fa88,,,,,,,,,,,114.9841,115.4816,,,115.7304,116.398,left,0.6631,,,,,,,,,0.5,,,,,,115.4816,115.7304,116.398,"[0.12154090923310243,-0.10851105140413005]",100.0,"[0.10388033325529633,-0.057073850821196856]",100.0,"[0.16245809205676762,0.11331986934290424]",4.0,"[-0.04230608161022294,-0.18397580672609065]",4.0,"[0.09452358392434432,-0.14031590447235873]",4.0,"[-0.08518916157093676,-0.08760256767034823]",4.0,"[0.013564388033785102,-0.03717221420473229]",100.0,"[-0.0037128187279324926,0.061446734591071014]",100.0,"[-0.02964229158208981,0.18607394613180342]",100.0,"[0.04991507327117042,0.12052916436411816]",4.0,"[0.09932597515314993,0.13161449364389952]",4.0,"[0.12534440596011343,0.09208941402079676]",4.0,"[0.06381072863897484,-0.17412276482903688]",100.0,"[-0.08106805025118662,0.021702114714971705]",4.0,"[-0.15156840414222655,0.009083251681593888]",4.0,"[-0.0015551580518889847,-0.12011060737254821]",4.0,"[0.0685383629592679,0.015573695971786317]",100.0,"[0.02501531926463063,-0.19580612231136058]",100.0,"[-0.10528801415843822,0.05624508854319882]",4.0,"[0.056022436849220064,0.16931132475222493]",100.0,"[-0.09642904426887731,0.11071919117361113]",4.0,"[0.0791012184315749,-0.10113397688131456]",4.0,"[-0.11443886960529535,-0.13585488475547783]",4.0,"[-0.13743766823629897,-0.09671159855537724]",100.0,"[-0.1802307520924951,-0.06427621257200562]",4.0,"[-0.17784289479352142,0.0575789151524289]",100.0,"[0.1283395422603489,0.004600075271947719]",100.0,"[0.11546111928836568,0.051216356564610405]",4.0,"[-0.07538185328306406,-0.041065709756095845]",100.0,"[-0.028023367448049955,-0.01760090349642724]",100.0,"[0.15670830370770228,-0.0813043009486258]",100.0,"[0.05200447150845481,0.06398168251535383]",100.0,"[0.02,0.02]",117.4959,0.0,19.0,19.0,94.0,1.0,,,,,,,
,,,,,,,660434638448016695dbc246,684429300757be1571665109,2025-06-07_14h05.07.393,shape_ratio,2024.1.5,Win32,163.9344262,684250e4f00cb30b92d1fa88,,,,,,,,,,,117.4961,117.9938,,,118.2425,118.7228,right,0.4718,,,,,,,,,0.1,,,,,,117.9938,118.2424,118.7228,"[0.17703906091148358,-0.024718307073140877]",4.0,"[0.12870090141527846,-0.04557576676357398]",4.0,"[-0.10933795691236564,0.09383482790275521]",4.0,"[0.08844232330805543,0.17879975720564406]",4.0,"[-0.16187651685654225,0.07201830957112833]",4.0,"[-0.06357539913596524,0.12300477071846803]",4.0,"[-0.18113982742569118,-0.08123827429564054]",4.0,"[-0.08850903588113235,-0.009391026617059928]",4.0,"[-0.0014181228350014386,-0.12677692212644942]",4.0,"[-0.11676613598043561,0.15687975595234865]",4.0,"[0.02478343864231254,-0.024340576596445597]",100.0,"[-0.13116577740410698,-0.007395655494419855]",4.0,"[-0.17018978278332544,-0.029041267885903492]",4.0,"[0.12649954448877748,-0.09258933128910646]",4.0,"[0.012209301427379887,0.1881294362897128]",4.0,"[0.003204194002548195,0.11654751712487581]",4.0,"[0.07664787251011086,-0.1402889853908396]",4.0,"[0.12470903894388664,0.08864037879993848]",4.0,"[-0.07018723051020963,-0.10928136620785402]",4.0,"[-0.1387612827109397,-0.10655107137940274]",4.0,"[-0.10570040458744069,-0.08091432731949799]",4.0,"[-0.06431259401483957,0.07106369943444668]",4.0,"[-0.016849178279252006,-0.17216157952032315]",4.0,"[0.11289478159329586,0.01610402380186531]",4.0,"[-0.03784579917886328,0.18619423841217395]",4.0,"[0.0007540727733033484,-0.07995820625633183]",4.0,"[0.05396496802737954,0.010718200662512499]",4.0,"[0.04569866888419168,-0.08579222260922413]",4.0,"[0.16117167567959362,0.04940864014934919]",4.0,"[-0.1735290123671755,0.019473016250459493]",100.0,"[-0.12886835019169077,0.04359832851867418]",4.0,"[-0.012681081342238729,0.04922066466181496]",100.0,"[0.02,0.02]",119.82,0.0,20.0,20.0,187.0,1.0,,,,,,,
,,,,,,,660434638448016695dbc246,684429300757be1571665109,2025-06-07_14h05.07.393,shape_ratio,2024.1.5,Win32,163.9344262,684250e4f00cb30b92d1fa88,,,,,,,,,,,119.8202,120.3176,,,120.5688,121.1185,left,0.5408,,,,,,,,,0.6,,,,,,120.3176,120.5688,121.1185,"[0.19870703560812047,0.01641795310907613]",4.0,"[0.09441565900595546,-0.17452054999635036]",100.0,"[0.03878417665907421,0.09041225522171453]",100.0,"[0.13408002119054982,0.03062309578390575]",100.0,"[0.1703954299168621,-0.04937222464902398]",100.0,"[-0.0653084620675642,0.054058878771848916]",4.0,"[-0.025811470256587903,-0.09305207146137591]",100.0,"[-0.13332412872721852,0.017741003052553463]",4.0,"[0.09858474472389053,0.11854373944702207]",100.0,"[0.016051343823801797,0.14068166254536363]",100.0,"[-0.16379372544096812,0.04872939176323997]",4.0,"[-0.029989343738195628,-0.16230740152348716]",100.0,"[0.12476979787841093,-0.025197257083879685]",100.0,"[0.09151840549016656,-0.07674543316068189]",100.0,"[0.13333149001645758,-0.07057726790980494]",100.0,"[-0.010099728471422207,0.18728606053731456]",4.0,"[0.01645501061872225,-0.17275933488147494]",4.0,"[0.08080146719821107,0.007829386733688787]",4.0,"[0.005166638383969822,-0.12518792236641585]",100.0,"[-0.08201689132939036,-0.04700652932617857]",4.0,"[-0.10166764879891488,-0.1311092708049794]",4.0,"[-0.015321108795050066,0.007895155235044487]",100.0,"[0.029170327565257132,0.02729194448774344]",4.0,"[0.1835875061594956,0.05871863407730116]",4.0,"[0.07149366181796184,0.16072816573386486]",100.0,"[-0.004096515673813022,0.06493577690594615]",4.0,"[-0.0587676005870393,-0.13207080687313794]",100.0,"[-0.12257725418985917,0.11960582729421752]",4.0,"[-0.16944166419265344,-0.10212595103559609]",100.0,"[-0.07695060188203812,0.11297215408293769]",100.0,"[0.1474803251012659,-0.12536620915349653]",100.0,"[0.07453246612496972,0.06622050447496619]",100.0,"[0.02,0.02]",122.2168,0.0,21.0,21.0,50.0,1.0,,,,,,,
,,,,,,,660434638448016695dbc246,684429300757be1571665109,2025-06-07_14h05.07.393,shape_ratio,2024.1.5,Win32,163.9344262,684250e4f00cb30b92d1fa88,,,,,,,,,,,122.217,122.7144,,,122.9635,123.5639,right,0.5887,,,,,,,,,0.1,,,,,,122.7144,122.9635,123.5639,"[0.03957900724313807,-0.1958792095001963]",4.0,"[-0.09511253880620565,0.05536760299203222]",4.0,"[-0.021215889942021,-0.12495481651927544]",100.0,"[0.18183513436277926,0.028643119285786247]",4.0,"[0.14556979020365102,0.08146460419094573]",4.0,"[-0.060170790580864136,-0.03684690931943139]",4.0,"[-0.12249855635390063,0.15351292680438436]",4.0,"[0.056995369666022436,-0.004803157824478294]",4.0,"[-0.16328734786924576,0.08382768440992318]",4.0,"[-0.05989313589037618,-0.09683731630011555]",4.0,"[0.18390244154768917,-0.02769793945298515]",4.0,"[-0.10932332806574133,-0.07203618638272123]",4.0,"[-0.03268344613215203,0.14841917799336724]",100.0,"[0.0543784545635332,0.04280151005168714]",4.0,"[0.17261089876197108,-0.08173316807119844]",4.0,"[-0.0031927901474162455,0.11463414620042311]",4.0,"[-0.035581016214889495,0.07081904576942287]",4.0,"[0.06555282312290359,0.16873662336672748]",4.0,"[-0.06456069032830862,0.11737038690816756]",4.0,"[-0.13523483591410232,0.021597813756046448]",100.0,"[-0.022805163914905897,0.00618570534734121]",4.0,"[0.016086647042152097,-0.16045869018765546]",4.0,"[0.07544456879589803,-0.16374934252531637]",4.0,"[0.006152970050272448,0.19631668605104488]",4.0,"[-0.09729067026885216,-0.16852987538598144]",4.0,"[0.10311546483698977,0.03682863151019746]",4.0,"[0.1293111915662142,-0.12295490674475512]",4.0,"[-0.13647327390498856,-0.10741476949841891]",4.0,"[0.04596769091997044,-0.08991654132382085]",4.0,"[0.020044505035786697,0.15247869306928769]",4.0,"[0.07712194051937914,-0.06394363844885889]",4.0,"[-0.042534121124489926,-0.19029764828071363]",4.0,"[0.02,0.02]",124.6623,0.0,22.0,22.0,183.0,1.0,,,,,,,
,,,,,,,660434638448016695dbc246,684429300757be1571665109,2025-06-07_14h05.07.393,shape_ratio,2024.1.5,Win32,163.9344262,684250e4f00cb30b92d1fa88,,,,,,,,,,,124.6624,125.1597,,,125.4085,125.8028,left,0.3929,,,,,,,,,0.9,,,,,,125.1597,125.4085,125.8028,"[0.14397829182541313,0.004538395322085988]",100.0,"[0.02707120200497074,-0.1828501161149195]",100.0,"[-0.08968032947184298,-0.06770201929600278]",100.0,"[0.04260641211171442,-0.06733002024926057]",100.0,"[-0.0400994795498893,-0.03335618937842494]",100.0,"[-0.15310417992445038,-0.05249149523836128]",4.0,"[-0.044201247132940956,0.10078686317482148]",100.0,"[-0.07331792278363547,-0.14050122983172372]",100.0,"[0.05787677036733486,0.05624778821346851]",100.0,"[0.019444344471252237,0.04059233150438349]",100.0,"[0.18655760687551906,-0.05887694340049321]",100.0,"[-0.12334186487046833,-0.11678771305576979]",100.0,"[0.11569670879155525,-0.14494002423886435]",100.0,"[-0.10360928437370204,0.12775880482206475]",4.0,"[-0.020817289099893877,0.02048569678615285]",100.0,"[-0.016259336555642902,-0.13335508056313128]",100.0,"[0.10320215180019751,-0.023783678563316018]",100.0,"[-0.003112634915469801,0.11315387126999352]",100.0,"[0.05865058058121602,-0.005543533181688129]",100.0,"[0.1684749902809406,0.09480074815163304]",100.0,"[0.10949791150712206,0.033842359462310866]",100.0,"[-0.10256145599309444,0.007762259705999164]",100.0,"[-0.1543500749139332,0.06653738285937337]",100.0,"[0.1826043616074313,-0.010746718694793645]",100.0,"[0.013772896647423996,-0.021951459885964083]",100.0,"[-0.0620341048741935,0.18734775646802898]",100.0,"[0.050953013630299256,0.09680668931262398]",100.0,"[-0.009434676317386523,0.16711271009812792]",100.0,"[-0.18256812492943433,0.012635872815933947]",100.0,"[0.12089952845317053,0.07343891678987381]",100.0,"[0.06437395307216545,-0.12355255633322852]",4.0,"[0.06317744872108112,0.16367027157120334]",100.0,"[0.02,0.02]",126.9011,0.0,23.0,23.0,0.0,1.0,,,,,,,
,,,,,,,660434638448016695dbc246,684429300757be1571665109,2025-06-07_14h05.07.393,shape_ratio,2024.1.5,Win32,163.9344262,684250e4f00cb30b92d1fa88,,,,,,,,,,,126.9013,127.3988,,,127.6477,128.0541,left,0.4006,,,,,,,,,0.9,,,,,,127.3989,127.6476,128.0542,"[-0.016314433659177032,-0.12659313134218325]",100.0,"[-0.06406736894366384,-0.10360556594250696]",100.0,"[0.08352940454308082,0.012854146300420567]",100.0,"[-0.16276438169333174,-0.11247647591845612]",100.0,"[-0.11917902930968657,-0.03161564306463326]",100.0,"[-0.0644071629357344,0.16744944608888565]",100.0,"[-0.1904358051676026,-0.05007806865512642]",4.0,"[-0.028215423523645335,-0.07515458905680318]",100.0,"[0.10880403622175366,-0.05084541111347035]",100.0,"[-0.1916563649242013,-0.0023575401023286165]",100.0,"[0.0525534199292503,-0.16055060536315788]",100.0,"[-0.10694985453912129,0.02930149992112211]",100.0,"[-0.06235540783518065,0.009146421015073354]",100.0,"[0.016900043356776313,0.05060689375685297]",100.0,"[-0.04064272943818468,-0.02827065128102671]",100.0,"[0.09997464372526456,-0.12467059393631509]",100.0,"[0.12002700937692193,0.14783684087237545]",100.0,"[-0.1043329723548593,-0.16181012816832632]",100.0,"[0.029691839522099566,0.19175742674019558]",100.0,"[0.05054018196741257,-0.07064362407187988]",4.0,"[0.18146606170429577,-0.025945017654683343]",100.0,"[-0.15257359036787668,0.08314492512123489]",100.0,"[0.0021446461321810353,-0.18496557601869004]",100.0,"[-0.10330936882203594,0.142426612201423]",100.0,"[0.14382313411210418,0.09910047462854243]",100.0,"[0.08930779168795104,0.09118932920697426]",100.0,"[0.13984060310902702,-0.007511533000803955]",4.0,"[-0.09285899770615347,0.07043585183070658]",100.0,"[0.002034257351820366,-0.03286026557169292]",100.0,"[-0.07767388732114745,-0.04880123832664897]",100.0,"[0.16566581832425917,0.024503652050694196]",100.0,"[-0.10330038479559706,-0.08930234462532574]",100.0,"[0.02,0.02]",129.1524,0.0,24.0,24.0,1.0,1.0,,,,,,,
,,,,,,,660434638448016695dbc246,684429300757be1571665109,2025-06-07_14h05.07.393,shape_ratio,2024.1.5,Win32,163.9344262,684250e4f00cb30b92d1fa88,,,,,,,,,,,129.1526,129.6498,,,129.8989,130.4206,left,0.5175,,,,,,,,,0.6,,,,,,129.6498,129.8989,130.4206,"[-0.06641149697585087,0.04967145466790226]",100.0,"[0.06085906310157616,0.055807871138340015]",100.0,"[0.12242459966494049,0.1493827362902765]",100.0,"[0.04126119111067926,-0.15199663905292218]",100.0,"[-0.12270553224627703,0.1442045045866448]",100.0,"[0.00947250792637465,-0.0046339479781834425]",4.0,"[-0.1395511146227418,0.0581102473939442]",4.0,"[-0.08814783942221154,0.08655401794033138]",4.0,"[-0.021301403543865515,-0.035296812011686114]",100.0,"[-0.14259556721633754,-0.1064435103766867]",4.0,"[0.13195911848054,-0.03987883021845932]",100.0,"[-0.032827760240804645,-0.13072719732222948]",4.0,"[0.062319247908092394,0.09956761714394603]",100.0,"[0.15406872366048302,0.04488992064438982]",100.0,"[0.08998980815035165,0.017816872471878756]",4.0,"[-0.050019902607426385,0.16262446123855973]",100.0,"[-0.05200332788191912,-0.08972185048904051]",4.0,"[0.023483175438477145,0.08889736001767133]",4.0,"[0.007743892385038854,0.18171508105855166]",100.0,"[0.04880844226440269,-0.07979228108101687]",100.0,"[-0.09940445767919306,-0.16198549789687974]",4.0,"[-0.12043379952964421,-0.01229206440406734]",4.0,"[-0.1666340941182769,-0.07221878115779708]",100.0,"[-0.06342534689893924,-0.0053062030414457225]",100.0,"[0.05971581708867439,0.16773353401847602]",100.0,"[-0.036112921493809826,0.07807104801814564]",100.0,"[-0.0036703640545865906,-0.1798594879672993]",100.0,"[0.17889477098047868,0.001375793800720942]",4.0,"[0.15157955066779474,-0.08286659278111323]",4.0,"[0.04854489551645638,-0.027885436809522286]",100.0,"[-0.14994195561048765,0.11483432698880448]",100.0,"[0.013704246003091267,-0.10652217641747515]",4.0,"[0.02,0.02]",131.5187,0.0,25.0,25.0,58.0,1.0,,,,,,,
,,,,,,,660434638448016695dbc246,684429300757be1571665109,2025-06-07_14h05.07.393,shape_ratio,2024.1.5,Win32,163.9344262,684250e4f00cb30b92d1fa88,,,,,,,,,,,131.5189,132.0164,,,132.2653,132.7387,right,0.4711,,,,,,,,,0.1,,,,,,132.0164,132.2653,132.7388,"[0.09995128643729315,0.049779568087339826]",4.0,"[-0.030397398658587267,-0.15911517559600608]",4.0,"[0.14161619024551994,0.1234899709207576]",4.0,"[0.017712823118532353,0.13122252482433314]",4.0,"[0.14311587192713224,-0.017315342799707555]",4.0,"[-0.025866373528726103,-0.054035834286884556]",4.0,"[-0.02232150206364796,-0.002487106433675575]",4.0,"[-0.1566954574757967,-0.10689453007472778]",4.0,"[0.15048841513738054,0.02311406728178963]",4.0,"[0.08004967403318834,-0.010719558955759769]",4.0,"[0.13522833478814003,-0.10264205999503845]",4.0,"[0.10909775772488942,0.09218461108613177]",4.0,"[-0.09719125814423818,0.11265584534085032]",4.0,"[-0.11639679226038906,0.02446234049995555]",4.0,"[-0.05185036908184384,0.062299251064215404]",4.0,"[-0.10202038406249218,-0.17032730391921966]",4.0,"[-0.05417690150101268,0.15323955845214818]",4.0,"[-0.1461927646793187,-0.016144189532746215]",4.0,"[-0.06669533915928826,-0.02796014577012445]",100.0,"[0.06235116466702982,-0.18709683970988977]",4.0,"[-0.06463666591808119,-0.12847148215062335]",4.0,"[0.0883346398502242,-0.07251218137684501]",4.0,"[0.02768327758060692,-0.13172267316470845]",4.0,"[-0.010247908342331797,0.17252364516908497]",4.0,"[-0.1924212737672473,0.013447235758117905]",4.0,"[0.07857346429727105,0.15542518636179098]",4.0,"[0.18183098268026893,-0.03565356823740698]",4.0,"[-0.1327343489654093,-0.06611982582930627]",100.0,"[0.04415236659347943,0.09859972643744434]",4.0,"[0.020654860853834917,-0.18817553730185516]",4.0,"[0.010089415849709953,-0.09309652085354096]",100.0,"[0.04644231528189864,-0.03598374957740686]",4.0,"[0.02,0.02]",133.837,0.0,26.0,26.0,206.0,1.0,,,,,,,
,,,,,,,660434638448016695dbc246,684429300757be1571665109,2025-06-07_14h05.07.393,shape_ratio,2024.1.5,Win32,163.9344262,684250e4f00cb30b92d1fa88,,,,,,,,,,,133.8371,134.3342,,,134.5834,135.0142,right,0.4225,,,,,,,,,0.1,,,,,,134.3343,134.5834,135.0142,"[0.018463362000775713,-0.08993670469397602]",4.0,"[0.06674957107013749,-0.08257956333947618]",4.0,"[-0.0919530811834794,0.09712252839254662]",4.0,"[0.08139480319045016,0.015508895455372762]",4.0,"[0.148391071941384,-0.12358634537480966]",4.0,"[-0.014157457706904403,0.025867946069689802]",4.0,"[0.10470946977933523,-0.09769847837433257]",100.0,"[-0.07574301329522767,0.0013274663525584204]",4.0,"[-0.017445642659953783,0.1154750807721213]",4.0,"[-0.18103259182228038,-0.06527711577942318]",4.0,"[-0.03111263064401622,-0.09150744190598784]",4.0,"[0.032231881287311887,0.0205231064957006]",4.0,"[0.12319001435962015,0.04452618333319547]",4.0,"[0.1455780543929382,0.10574922337320153]",4.0,"[0.15317425364322018,-0.008851883858649679]",100.0,"[0.074301690352836,0.1434832642271293]",4.0,"[0.1118235569347255,-0.046755377163792494]",4.0,"[-0.1471820656192736,0.10015328414217045]",100.0,"[-0.07488403055225346,-0.07575447666946997]",4.0,"[0.006183721145442889,-0.14871623308491538]",4.0,"[-0.015254657108870018,-0.05152270466262438]",4.0,"[0.18417997056262483,-0.0444363528064625]",4.0,"[0.02842173795174249,0.13925621674350958]",4.0,"[0.0347739751256004,0.09792475639624007]",4.0,"[0.06350050356005786,-0.03980111057595942]",4.0,"[0.06369324881639872,-0.1487919885071135]",4.0,"[0.025736961336104203,-0.19222169935214217]",4.0,"[-0.07624891955885924,-0.16583269033524886]",4.0,"[-0.19849817405015707,-0.02122758267212417]",4.0,"[0.15155370891542932,-0.06952726781841814]",4.0,"[-0.046047807722796236,0.05248110366121569]",4.0,"[-0.16402944283904525,-0.10853992792817115]",4.0,"[0.02,0.02]",136.1123,0.0,27.0,27.0,208.0,1.0,,,,,,,
,,,,,,,660434638448016695dbc246,684429300757be1571665109,2025-06-07_14h05.07.393,shape_ratio,2024.1.5,Win32,163.9344262,684250e4f00cb30b92d1fa88,,,,,,,,,,,136.1126,136.6097,,,136.8587,137.363,left,0.5024,,,,,,,,,0.55,,,,,,136.6097,136.8587,137.363,"[-0.15647388122132883,0.06106136052041927]",4.0,"[0.043370674963235815,0.1557358002858441]",4.0,"[0.18028469608502556,0.004858803894265752]",4.0,"[-0.04875513516848308,-0.08831519839076013]",100.0,"[-0.15029152216717415,-0.08004347679691556]",100.0,"[0.0662852858261303,0.09691836879119343]",4.0,"[0.10353330392444017,0.13300994824051376]",100.0,"[0.03788723540155194,-0.08409211151924045]",4.0,"[0.022574939452158497,0.03964243572013853]",100.0,"[-0.09563214693954211,-0.17116534281337992]",100.0,"[-0.065832564044132,0.041400300422145965]",100.0,"[0.007182884882621857,-0.05588175065888175]",100.0,"[-0.12106813223578713,-0.13704072554156105]",100.0,"[-0.1027287667467024,-0.08168718408927661]",4.0,"[0.0007952372197917705,-0.16214288556510728]",4.0,"[-0.04214497422930478,-0.18745515346711258]",4.0,"[0.015511919855781986,0.18516657132442862]",100.0,"[-0.033996723782681766,0.17917668807426745]",4.0,"[-0.1459887374854199,0.10890105376829345]",4.0,"[0.18812017085885321,-0.04384012436949635]",100.0,"[-0.18094708145301258,-0.007621792542734702]",4.0,"[0.1687031746589023,0.05036652135353163]",4.0,"[0.08999109317404054,0.04473421847106441]",100.0,"[-0.023300539026496626,0.006091107331108612]",100.0,"[-0.014503281049804083,0.11181931834489657]",100.0,"[0.13732023195839618,-0.12338442185025497]",100.0,"[-0.13087001575316187,0.02356753217298269]",100.0,"[0.10287658720505755,-0.16742921667844823]",4.0,"[0.04047229783026844,-0.1342691300508752]",100.0,"[-0.08280442696388692,0.1325016057490393]",100.0,"[-0.08215365694761348,0.08602231733805078]",4.0,"[-0.1353656142276268,-0.017127244055997727]",100.0,"[0.02,0.02]",138.4604,0.0,28.0,28.0,76.0,1.0,,,,,,,
,,,,,,,660434638448016695dbc246,684429300757be1571665109,2025-06-07_14h05.07.393,shape_ratio,2024.1.5,Win32,163.9344262,684250e4f00cb30b92d1fa88,,,,,,,,,,,138.4607,138.958,,,139.2069,139.7474,left,0.5385,,,,,,,,,0.45,,,,,,138.958,139.2069,139.7474,"[-0.02724698959025442,0.14346193906698998]",4.0,"[0.08789856771788711,0.0649489943865839]",4.0,"[-0.055275769071389265,-0.06805019851335585]",100.0,"[-0.005036310482739542,0.04327578585423413]",4.0,"[-0.18702162071231276,-0.04209573016970786]",100.0,"[0.07312046192179496,0.010463472001886364]",4.0,"[0.12802369341821496,0.15359097424749238]",100.0,"[-0.005349234266304822,-0.057230225789133185]",4.0,"[-0.1218854318936303,-0.026432396208407524]",100.0,"[-0.03350866779046098,-0.1422585060558659]",4.0,"[0.17550810054986576,-0.0005528422203255228]",100.0,"[0.041769247507047344,-0.06322046426558431]",100.0,"[0.08184752200467275,-0.057309582538723335]",100.0,"[0.014186483062877673,-0.006755507370375955]",4.0,"[-0.037231629737375066,-0.027878240532505424]",100.0,"[-0.11596394969921876,0.01946225553560582]",4.0,"[0.10972014237700858,0.10115964906592556]",4.0,"[0.012009509624879157,0.08076814990857271]",100.0,"[0.053963362824325165,0.13912538650460635]",4.0,"[-0.09792544709569632,0.17361633071677654]",4.0,"[0.14313203744447942,-0.11946507585436865]",4.0,"[-0.17897087484867505,-0.0865307205280833]",100.0,"[-0.072269808974859,0.0312061355924815]",4.0,"[0.1609169094243305,0.08533272520921749]",4.0,"[0.1219913872226017,-0.010986072545223526]",4.0,"[-0.12882595344544812,-0.13514658932856954]",100.0,"[-0.1976553513908888,0.0019180040957252787]",100.0,"[-0.05383212706216701,0.08332733823255298]",4.0,"[0.14847158522635837,0.0470852348080383]",100.0,"[0.004518747764858002,-0.1609011702277169]",4.0,"[0.10077506789640642,-0.14431935290665499]",100.0,"[0.04772696678398339,-0.13420625299325323]",4.0,"[0.02,0.02]",140.8454,0.0,29.0,29.0,122.0,1.0,,,,,,,
,,,,,,,660434638448016695dbc246,684429300757be1571665109,2025-06-07_14h05.07.393,shape_ratio,2024.1.5,Win32,163.9344262,684250e4f00cb30b92d1fa88,,,,,,,,,,,140.8455,141.3426,,,141.593,142.0952,left,0.4929,,,,,,,,,0.9,,,,,,141.3427,141.593,142.0952,"[0.001162904799712342,0.1863697094221364]",100.0,"[-0.14239730545963009,0.04636733109454589]",100.0,"[0.04893808930056413,-0.047055381969608026]",100.0,"[0.1859679185645432,0.029199435187980505]",100.0,"[-0.0021999586814888095,0.09980683441963582]",100.0,"[0.10393734487053384,0.10307767762893344]",100.0,"[0.18005140994709204,-0.022691886610575644]",100.0,"[0.12900038414670925,-0.06715324311885479]",4.0,"[0.04586524698551504,-0.12080905316473899]",100.0,"[-0.03856904275419809,0.14069363453755143]",100.0,"[-0.06705915799074462,-0.15397030150971036]",100.0,"[-0.07768886639396648,-0.06970989850336824]",100.0,"[-0.16615588916649707,-0.09148152810509323]",4.0,"[0.13474415851995927,0.12861157516234542]",100.0,"[-0.03553258963481168,-0.0021010051113777768]",100.0,"[0.0554287360726383,0.18931281909692915]",100.0,"[0.11937629821012206,-0.028028369284750283]",100.0,"[0.049270415646771835,0.05674766488997284]",100.0,"[-0.1191087514838468,0.10948619641718993]",100.0,"[-0.1978954537774733,0.028525531571790257]",100.0,"[-0.16751393810335574,-0.025040779536249804]",4.0,"[-0.03349342807422463,-0.08369364006632372]",100.0,"[0.14036862786137766,0.06327996637156932]",100.0,"[-0.042791941516725135,0.06960668765688]",100.0,"[-0.0017128867452885698,0.0452240254705995]",100.0,"[0.10501120660163742,-0.10109495436105517]",100.0,"[-0.033538625398760534,-0.1865798930911495]",100.0,"[-0.10067114279918035,-0.10728010466569134]",100.0,"[-0.12118719399819235,0.007889806239971889]",100.0,"[-0.13566349190685348,-0.14147030599903662]",100.0,"[0.06330904808565598,-0.17630644779599106]",100.0,"[0.04039501951611872,0.11141556463671354]",100.0,"[0.02,0.02]",143.1935,0.0,30.0,30.0,14.0,1.0,,,,,,,
,,,,,,,660434638448016695dbc246,684429300757be1571665109,2025-06-07_14h05.07.393,shape_ratio,2024.1.5,Win32,163.9344262,684250e4f00cb30b92d1fa88,,,,,,,,,,,143.1936,143.6909,,,143.9399,144.4858,right,0.5347,,,,,,,,,0.6,,,,,,143.6909,143.9399,144.4858,"[0.06934932924362582,0.013872338926674855]",4.0,"[-0.016865661020340542,-0.18521358532966176]",100.0,"[0.027312431617066125,-0.04189028675722781]",4.0,"[0.15581718620262283,-0.11852117073541844]",100.0,"[-0.09732803134946175,-0.1560671999878636]",4.0,"[-0.14548297408724717,0.006119990128881667]",100.0,"[0.09347140770674739,-0.14032512540896463]",100.0,"[-0.1665595555617077,0.08793709396511502]",100.0,"[0.16126192065576514,0.09952600381639388]",4.0,"[0.048868428061873206,0.19092150655293766]",4.0,"[-0.05201302701062982,0.04680719414030975]",100.0,"[-0.08764726328405142,0.09348567437011904]",100.0,"[-0.1729207578454171,-0.063442336188872]",4.0,"[-0.14150435096078598,-0.11646804934346325]",4.0,"[0.07326389624029582,0.11871002790640328]",100.0,"[0.011398522628645739,-0.10011325223391657]",100.0,"[-0.058204320487446434,-0.19055251685984773]",4.0,"[-0.03360339137512656,0.12178757988803533]",100.0,"[-0.10787458508045103,0.13495097880498322]",100.0,"[0.16426243169085422,-0.0644059947875612]",100.0,"[-0.03920626582447861,-0.11461494376291094]",4.0,"[0.02823164985633508,0.04455110460146419]",100.0,"[0.19960222606197103,0.004787292287861971]",100.0,"[0.0982821362576753,-0.03437409625346245]",100.0,"[0.03221483878344423,0.10995830876227947]",100.0,"[0.10565834528228168,0.15821523569301238]",100.0,"[-0.091537813694604,-0.06423007191278016]",4.0,"[0.12145593917968096,-0.07527279661765135]",4.0,"[-0.1100752058039581,0.056856389241380145]",4.0,"[0.09901619339756967,0.07999335244475153]",100.0,"[-0.05076017214872615,0.18620759494543307]",4.0,"[-0.0236965258672934,0.015286029754652534]",100.0,"[0.02,0.02]",145.584,0.0,31.0,31.0,40.0,1.0,,,,,,,
,,,,,,,660434638448016695dbc246,684429300757be1571665109,2025-06-07_14h05.07.393,shape_ratio,2024.1.5,Win32,163.9344262,684250e4f00cb30b92d1fa88,,,,,,,,,,,145.5841,146.0815,,,146.3305,146.8462,left,0.5023,,,,,,,,,0.45,,,,,,146.0815,146.3305,146.8462,"[0.16568578615725782,0.044233723395676904]",4.0,"[0.15817090758664823,0.0037605034670388734]",100.0,"[0.11101546155170945,0.052182131811897965]",4.0,"[0.10644614044544946,-0.01297951393593388]",4.0,"[-0.09182214467966712,0.1099303206380332]",100.0,"[-0.0026651711899381134,-0.015952266383412562]",100.0,"[0.11220843918393533,-0.0557125097447659]",4.0,"[-0.07240826741932797,0.041568127053106536]",4.0,"[-0.0021259474756373836,-0.16620243285678912]",100.0,"[-0.1325017847997466,0.04317227978880788]",4.0,"[0.16137312951950866,-0.044119664944480365]",100.0,"[-0.021125405849205747,-0.11201328961543587]",4.0,"[-0.014651393091849388,0.12159182677427839]",4.0,"[0.030639300871171095,0.1953345107365627]",100.0,"[-0.10267074349578528,-0.016179562651462517]",100.0,"[-0.14453342194462193,0.0952862768165216]",4.0,"[0.04100593918657591,0.025461910218706085]",4.0,"[0.06022006488469501,-0.12086302275875833]",4.0,"[-0.042186255689380316,-0.05740985526777275]",100.0,"[0.03727526892153775,-0.06727412690977627]",100.0,"[-0.06251291997924292,-0.12188612690316006]",100.0,"[-0.05225335764759781,0.1919330925655627]",4.0,"[-0.15637009325605813,-0.046621315149249797]",4.0,"[0.04476151535045882,-0.17006999402646042]",100.0,"[0.06449057364790088,0.058808114703934065]",4.0,"[0.10893070141203451,-0.1473124055394745]",100.0,"[-0.17986152288956286,0.06292674568152488]",100.0,"[-0.1106332006413025,-0.06584380734199129]",4.0,"[-0.14582098793788298,0.0024987858286703224]",4.0,"[0.14390236397228395,-0.12133993838169319]",4.0,"[-0.10643951875164723,0.14997869066917333]",4.0,"[-0.10499169622986051,-0.16174854378894096]",100.0,"[0.02,0.02]",147.9445,0.0,32.0,32.0,144.0,1.0,,,,,,,
,,,,,,,660434638448016695dbc246,684429300757be1571665109,2025-06-07_14h05.07.393,shape_ratio,2024.1.5,Win32,163.9344262,684250e4f00cb30b92d1fa88,,,,,,,,,,,147.9447,148.4422,,,148.6911,149.1398,left,0.445,,,,,,,,,0.4,,,,,,148.4422,148.6911,149.1398,"[0.05695309575956582,0.023141529174308884]",4.0,"[-0.02395429070718542,0.19637372412501214]",100.0,"[-0.10107494437351301,-0.027857907555615808]",4.0,"[0.11123616156365092,-0.05186953958174556]",4.0,"[0.056133406735399405,0.1363818035164886]",4.0,"[0.12730072439733023,0.10459968588675637]",100.0,"[0.12770152496765247,-0.12467491248106827]",4.0,"[-0.04063217168989099,0.10179501703245479]",4.0,"[-0.002209001942711439,-0.05069388201373157]",4.0,"[0.1329292775755997,0.02682080809871026]",100.0,"[-0.16746807788400092,-0.1077314852872206]",4.0,"[-0.19230742926178646,0.04565448679815253]",100.0,"[0.06309570897064784,-0.149175566523371]",100.0,"[0.051634477888231285,-0.02510778479720965]",100.0,"[-0.13671655974281882,0.05470851139961436]",4.0,"[-0.005105023992094444,0.03756888781606957]",4.0,"[-0.18856349382684623,-0.06000330764665153]",4.0,"[-0.03240518311565038,-0.09496507058592558]",100.0,"[-0.1355250531529233,0.13134655975627654]",4.0,"[0.056039875077421746,0.06795452657329054]",100.0,"[0.010550990954455556,0.13809528760937695]",100.0,"[0.034498709464164425,-0.1146175499225432]",100.0,"[-0.10628270743675546,-0.1574199172607022]",4.0,"[-0.17485507543798234,-0.00011175517430275814]",4.0,"[-0.026324179042621076,-0.17774934209781312]",4.0,"[-0.06283622639471312,0.05153080235605375]",100.0,"[-0.10418346128359669,0.01577135035227278]",100.0,"[-0.10815410493666083,-0.06753505313451369]",4.0,"[0.010852478814574601,0.09430968243597315]",100.0,"[-0.08176978625867971,-0.10480685032927199]",4.0,"[-0.08651864295460465,0.13059035718790266]",4.0,"[-0.06360471774430464,0.16868210522493987]",4.0,"[0.02,0.02]",150.238,0.0,33.0,33.0,165.0,1.0,,,,,,,
,,,,,,,660434638448016695dbc246,684429300757be1571665109,2025-06-07_14h05.07.393,shape_ratio,2024.1.5,Win32,163.9344262,684250e4f00cb30b92d1fa88,,,,,,,,,,,150.2383,150.7358,,,150.9846,151.6033,left,0.6157,,,,,,,,,0.6,,,,,,150.7358,150.9846,151.6033,"[0.09897106288854167,0.05782002783511655]",4.0,"[0.01588563985541657,0.07403780501209238]",4.0,"[0.11143712343281313,-0.046108551220375674]",100.0,"[-0.08440215806068634,-0.004395203561598733]",100.0,"[0.10004566240230248,0.01767788337537474]",100.0,"[0.08846288982305778,-0.09788648435408367]",100.0,"[-0.03021858264221589,0.012754444430349118]",4.0,"[-0.13861342272562951,0.02825625552109134]",4.0,"[-0.015566940319554199,-0.18897017896732704]",100.0,"[0.05480756133863029,0.0017838584114605886]",4.0,"[-0.01704545645751173,0.13811394000771932]",100.0,"[0.014387406430117385,0.1699516604146731]",100.0,"[-0.06528738683809167,0.09252358341559283]",100.0,"[0.15055284963904272,0.006640342377241373]",100.0,"[-0.0939237182451888,-0.16046281869458126]",4.0,"[-0.13448150765421588,-0.09626804607179745]",100.0,"[0.0784181636858851,0.11897636333246905]",100.0,"[-0.1854445611488555,0.04239814351272883]",4.0,"[0.09480831164480544,-0.14026935544893243]",4.0,"[0.0348045031311941,0.12141807799064114]",100.0,"[-0.006742848580918099,-0.14572315118312307]",4.0,"[-0.08528454355990092,-0.10680680018872851]",4.0,"[-0.025162700656792575,0.09818989838910214]",100.0,"[-0.17701811413526045,-0.006793750353919352]",4.0,"[0.15733965621483756,0.053810599129254996]",100.0,"[0.06597760599795224,-0.036865202132812275]",100.0,"[0.04178861442015628,-0.1751197106298284]",100.0,"[-0.15850029488411416,0.11413787340233149]",100.0,"[-0.13569922196423131,-0.05159156705413591]",100.0,"[-0.03059991779129748,-0.05991185692112046]",100.0,"[0.05449408945373587,0.18248074302056863]",4.0,"[-0.09363696354692906,-0.050377277207428225]",4.0,"[0.02,0.02]",152.7018,0.0,34.0,34.0,35.0,1.0,,,,,,,
,,,,,,,660434638448016695dbc246,684429300757be1571665109,2025-06-07_14h05.07.393,shape_ratio,2024.1.5,Win32,163.9344262,684250e4f00cb30b92d1fa88,,,,,,,,,,,152.7019,153.1994,,,153.4481,153.9069,left,0.4505,,,,,,,,,0.45,,,,,,153.1994,153.4481,153.9069,"[-0.06248173571719386,-0.1774071910218453]",100.0,"[-0.18186799911238485,-0.06867842522910338]",100.0,"[0.1605107811150394,0.07061900690710103]",100.0,"[0.03755010429486538,-0.19537496026669054]",4.0,"[-0.0767862036502879,0.061579982759419914]",4.0,"[0.08627998347065344,0.04960216791382896]",4.0,"[0.14025019392714885,-0.1392419806133905]",100.0,"[0.11037565218116527,-0.05495137940864534]",4.0,"[-0.10037974627015624,0.14821557249947517]",100.0,"[0.19452283025149558,-0.01760026716881779]",100.0,"[0.061648171010340654,0.14350510840974345]",4.0,"[0.05208952848203899,-0.014906803423632039]",4.0,"[-0.13925564303198784,-0.08651722828481505]",100.0,"[0.024102039759233886,0.11912955599041652]",4.0,"[-0.02420142572655769,0.0090742768845226]",100.0,"[-0.1213303519918405,-0.03756544258218243]",4.0,"[0.11876590196061029,0.12240501437484028]",100.0,"[0.00652217441218724,0.15971019199251077]",4.0,"[0.05101501116635025,0.07461019110271574]",100.0,"[0.10030281549742825,-0.09723993786086371]",4.0,"[0.008935333535030272,-0.08837669358324736]",4.0,"[0.15146452261107035,-0.05893078419240762]",100.0,"[-0.0565853799104671,-0.049359518909348796]",100.0,"[0.07988719141402614,-0.1328520954961597]",100.0,"[-0.06439869659115881,-0.005962096587999891]",4.0,"[-0.13917207334768927,0.07136872871919933]",4.0,"[-0.12464295401077215,0.11194040291197478]",4.0,"[-0.17053085649349298,-0.010276261242471626]",4.0,"[-0.19239106436959322,0.05317440339806632]",100.0,"[-0.015555609003796204,-0.1421945722958845]",4.0,"[-0.06473233418264836,0.10187829100963063]",4.0,"[-0.010236203443786564,-0.03715685674618677]",4.0,"[0.02,0.02]",155.0075,0.0,35.0,35.0,128.0,1.0,,,,,,,
,,,,,,,660434638448016695dbc246,684429300757be1571665109,2025-06-07_14h05.07.393,shape_ratio,2024.1.5,Win32,163.9344262,684250e4f00cb30b92d1fa88,,,,,,,,,,,155.0077,155.5051,,,155.7541,156.1665,right,0.4016,,,,,,,,,0.55,,,,,,155.5051,155.754,156.1666,"[-0.06532131726091611,-0.03155432896687156]",100.0,"[0.10830452879024495,0.09127263057491655]",4.0,"[0.04858852170007977,-0.11149193837010637]",4.0,"[0.029935016873044878,-0.0489420407950516]",100.0,"[-0.04794215170328329,0.08592038382868536]",100.0,"[0.09917230373089254,0.14950682420413874]",4.0,"[0.04007589895221816,0.1661410209930102]",4.0,"[-0.06266986113059315,-0.17986869014892307]",100.0,"[-0.023699869427037105,-0.122725261678952]",4.0,"[0.09930735747000846,-0.10888650502209939]",4.0,"[-0.08595894180057398,0.05090689534939654]",4.0,"[-0.16214449018801816,0.039635328619924984]",100.0,"[0.006682619811429895,0.014828545182081062]",4.0,"[0.1577116087960073,0.038488552098014]",100.0,"[-0.1753966109906825,-0.006970077339508211]",4.0,"[-0.13111806053998326,0.09184559858440293]",100.0,"[0.1646242108027387,0.08763292442413155]",4.0,"[0.11318844759858569,0.032398165284486996]",100.0,"[-0.1728879965242763,-0.0693153146685747]",4.0,"[-0.0013944449443070326,-0.19844755482523166]",4.0,"[0.1398732522100315,-0.040628522944629375]",4.0,"[0.05230882841098351,0.013168506574470083]",100.0,"[0.19321469685814271,-0.02498435858972887]",100.0,"[0.1032004737336882,-0.1553418905285485]",4.0,"[0.16792818420869918,-0.08118563543013615]",100.0,"[-0.022140678858685748,0.1615759708336955]",100.0,"[-0.12047191553589717,-0.14062939278048356]",100.0,"[0.030364918332373925,-0.15375954937887262]",100.0,"[-0.07938740653048666,-0.08939831657015454]",100.0,"[-0.11287651064228527,0.008772944343618548]",100.0,"[-0.019698307376177848,-0.04353153472859935]",100.0,"[-0.10826060027420799,0.13644649520283772]",100.0,"[0.02,0.02]",157.2648,0.0,36.0,36.0,81.0,1.0,,,,,,,
,,,,,,,660434638448016695dbc246,684429300757be1571665109,2025-06-07_14h05.07.393,shape_ratio,2024.1.5,Win32,163.9344262,684250e4f00cb30b92d1fa88,,,,,,,,,,,157.265,157.7624,,,158.0137,158.5571,right,0.539,,,,,,,,,0.1,,,,,,157.7624,158.0136,158.5571,"[-0.018539064832898657,0.18843470226030087]",4.0,"[0.11327849230561893,0.08755660743130528]",4.0,"[0.19450686240137796,-0.009366383771990838]",4.0,"[-0.07732865954162274,-0.17061405487823]",4.0,"[-0.04745310246289354,0.03680076897172952]",4.0,"[0.024257701315842633,-0.16867394050590534]",100.0,"[-0.13115549136289578,-0.04281382664838738]",4.0,"[0.09890079397458722,-0.01817644422049387]",4.0,"[0.056688178005861865,0.09080896481139325]",4.0,"[0.1610916129869315,0.08499679052799142]",100.0,"[0.07974686018404242,-0.13877809189846574]",4.0,"[-0.19070633070511217,-0.016694605795677143]",4.0,"[0.04589010079802816,-0.10430338301867957]",4.0,"[0.11028300211935878,-0.10073701036587711]",4.0,"[-0.1971817140906704,0.03209503589888775]",4.0,"[-0.15742959795858114,0.013765576051457035]",4.0,"[0.0122965601029427,0.10418123083245488]",4.0,"[-0.07473741066505829,0.10819532375699764]",4.0,"[0.15985261082853372,-0.0315778970981325]",4.0,"[-0.1526133793119534,0.09005483455462183]",4.0,"[0.02068700015431485,-0.04762004884619654]",4.0,"[-0.019058904915659966,-0.1854758323751129]",4.0,"[-0.0008910980408272162,-0.00770301113078731]",4.0,"[-0.10396266324204195,0.00012367786524648426]",4.0,"[0.16178529488506416,-0.09750149429471854]",4.0,"[-0.09923350465433163,-0.10928978024947267]",4.0,"[-0.029960848315298418,0.11386170356091284]",100.0,"[-0.050983580662232235,-0.10353819703180221]",4.0,"[-0.08705303478954564,0.058009055633226767]",4.0,"[-0.002454818640249975,-0.10159039246173336]",4.0,"[0.12239895519907766,-0.1455490573586293]",4.0,"[0.1212754616198806,0.1363261739894386]",4.0,"[0.02,0.02]",159.6555,0.0,37.0,37.0,180.0,1.0,,,,,,,
,,,,,,,660434638448016695dbc246,684429300757be1571665109,2025-06-07_14h05.07.393,shape_ratio,2024.1.5,Win32,163.9344262,684250e4f00cb30b92d1fa88,,,,,,,,,,,159.6556,160.153,,,160.4019,160.7477,left,0.3432,,,,,,,,,0.4,,,,,,160.153,160.4019,160.7477,"[0.005256439914431521,0.12598345165728791]",100.0,"[-0.10709074546520056,-0.050768965758471785]",4.0,"[0.0867530443731784,-0.16260351338457668]",4.0,"[0.01598120193894455,0.020370874232330523]",4.0,"[0.021768383968528194,-0.089920723280953]",100.0,"[-0.08285875573011171,-0.1590212932192945]",100.0,"[0.027628420580800603,-0.030185623768686304]",100.0,"[-0.13562324318126498,-0.09838943186053543]",4.0,"[0.13665550192705603,-0.0416859356825915]",4.0,"[0.10380023276734938,0.16155993108719757]",4.0,"[0.11195590392460517,-0.08004430527424128]",100.0,"[0.10874847535797261,0.06242394986446349]",4.0,"[0.07070229721261648,-0.01257357170914294]",4.0,"[0.1038496771655381,-0.1237404565268117]",4.0,"[-0.14554305746482538,0.07369652982380746]",4.0,"[0.016170587826864122,-0.1689155544507897]",100.0,"[-0.027036971447901164,0.16498372616830817]",4.0,"[-0.10360036795158162,0.08735120017801691]",100.0,"[-0.1477547545344217,0.11936115538848117]",4.0,"[0.1495892226934277,0.09554393356335064]",100.0,"[0.10374458853782303,0.022309756458507895]",4.0,"[-0.13761314668966163,-0.012556496860373837]",100.0,"[-0.08996108200843615,-0.0017864348373713846]",100.0,"[-0.09204683878889498,0.12983286893109997]",4.0,"[0.045236779265813896,0.18853984241673535]",4.0,"[-0.026792212554688166,0.10083554953572751]",4.0,"[-0.014433319194852941,-0.06394628400323933]",100.0,"[0.170194199050087,0.025774282982842078]",4.0,"[0.18660592170374168,-0.06743949962478221]",100.0,"[-0.006097402795980887,-0.12986411336621723]",4.0,"[0.03792701282665044,0.09501082014082966]",4.0,"[0.08657158884366346,0.11930326753351297]",100.0,"[0.02,0.02]",161.8459,0.0,38.0,38.0,176.0,1.0,,,,,,,
,,,,,,,660434638448016695dbc246,684429300757be1571665109,2025-06-07_14h05.07.393,shape_ratio,2024.1.5,Win32,163.9344262,684250e4f00cb30b92d1fa88,,,,,,,,,,,161.8462,162.3435,,,162.5892,163.0293,left,0.4352,,,,,,,,,0.6,,,,,,162.3435,162.5891,163.0293,"[-0.04476050169019345,-0.15734390839127246]",100.0,"[0.13843604621505606,-0.0062310076414634884]",100.0,"[0.05163440442103392,-0.03009757212296593]",100.0,"[-0.13024410389545704,-0.0013848431335491396]",100.0,"[0.059622259185643185,0.049214162795448504]",4.0,"[-0.1562693611133917,0.07301228853454898]",4.0,"[0.13445824109596344,-0.054811884979376654]",4.0,"[0.08907032012245103,-0.12376130177200452]",100.0,"[-0.07787467808966815,0.16713314400998175]",100.0,"[-0.007865774091581729,-0.12167017775120317]",100.0,"[0.13153185951613108,-0.14427560700984077]",4.0,"[0.1370204959257663,0.09840104643539398]",100.0,"[0.017416725582732762,-0.1726627975105972]",4.0,"[0.07317162927639162,0.0952229026005652]",100.0,"[0.09426200287926456,0.16541725449113207]",100.0,"[0.0461253194665165,0.1734689937336115]",4.0,"[-0.06485068685695024,-0.042244325506977494]",100.0,"[-0.04550303321532657,0.07537720620129158]",100.0,"[-0.05036692390252108,-0.09541702522468727]",100.0,"[-0.12615500852116027,0.13307101596036416]",100.0,"[-0.11688843015640935,-0.07738035930095215]",100.0,"[0.1751405153016538,-0.05003852145108741]",100.0,"[0.14324417742671156,0.04642555150398604]",4.0,"[-0.07943334200098863,0.043149860784479147]",4.0,"[0.0072076739617389736,-0.008962903721674227]",4.0,"[0.058050784343756434,-0.09210742518860185]",100.0,"[-0.18049562504480413,0.01991035837292067]",4.0,"[0.019024967874803282,0.05113427260045176]",100.0,"[-0.15925817917571106,-0.09542649642798505]",4.0,"[-0.12292638574043882,-0.13347619608837857]",100.0,"[-0.014837242329395916,0.12991200395757574]",4.0,"[0.008940070322218233,-0.07912490452973882]",4.0,"[0.02,0.02]",164.1274,0.0,39.0,39.0,49.0,1.0,,,,,,,
,,,,,,,660434638448016695dbc246,684429300757be1571665109,2025-06-07_14h05.07.393,shape_ratio,2024.1.5,Win32,163.9344262,684250e4f00cb30b92d1fa88,,,,,,,,,,,164.1275,164.6249,,,164.874,165.523,right,0.6416,,,,,,,,,0.5,,,,,,164.625,164.874,165.523,"[0.030539191967085023,-0.10440406713000847]",4.0,"[-0.049592646161238776,-0.15352570681981983]",4.0,"[0.009243764103067343,0.028089415380319543]",4.0,"[-0.17355116358309666,-0.044518817528357846]",100.0,"[-0.1444710418124935,0.13036865809222647]",100.0,"[-0.06166810527087609,0.15102316807863866]",100.0,"[0.00022358548226939903,-0.17193089166085726]",4.0,"[0.08809401037880592,0.040289445597098815]",4.0,"[-0.15599438369794139,-0.12126022606421617]",4.0,"[0.11166998678258697,-0.05966551058691979]",4.0,"[-0.12427204468191033,-0.0277645048772158]",100.0,"[0.05347008679457076,0.12730930170769414]",100.0,"[0.1636186901982163,0.06491386811933376]",100.0,"[-0.014977388904315209,-0.09856150716735812]",100.0,"[0.18892170870037087,-0.03786296059529744]",100.0,"[-0.04722183960969735,0.07681465863086336]",100.0,"[-0.16914509388081067,0.014597361686626559]",4.0,"[-0.039589138017805246,0.010408114543300923]",4.0,"[-0.08139231504385855,-0.06836888761736394]",100.0,"[-0.008363443147683012,-0.03818819409486818]",4.0,"[-0.17029010479082127,0.06885579691339383]",4.0,"[0.0665941682186827,0.1713729929564075]",100.0,"[0.08424776775522809,-0.028188264295934025]",4.0,"[-0.10727723447507792,-0.11830893937851736]",100.0,"[0.13294701444148346,-0.13614726679338057]",4.0,"[0.10425462562292444,0.08710664825954043]",4.0,"[-0.12030555275053506,0.0673026993351711]",100.0,"[-0.09317465027250962,0.03332716052520214]",100.0,"[-0.0030510794372864457,0.16636109769024768]",4.0,"[0.03956496841151833,-0.023307165134256198]",4.0,"[0.06303684896222302,-0.17687768294445255]",100.0,"[0.08629715725923714,-0.11553965854923863]",100.0,"[0.02,0.02]",166.6213,0.0,40.0,40.0,101.0,1.0,,,,,,,
,,,,,,,660434638448016695dbc246,684429300757be1571665109,2025-06-07_14h05.07.393,shape_ratio,2024.1.5,Win32,163.9344262,684250e4f00cb30b92d1fa88,,,,,,,,,,,166.6215,167.1189,,,167.3678,167.9078,right,0.5308,,,,,,,,,0.5,,,,,,167.1189,167.3678,167.9078,"[0.038978355386211985,-0.13928751745121615]",100.0,"[-0.020034882341455208,0.07322058486858277]",4.0,"[-0.049411415966607954,-0.15046725068078437]",4.0,"[-0.02705612939792958,-0.007848246542287026]",4.0,"[0.025188338088158325,0.10185936551234383]",100.0,"[0.11560181919717273,0.09287286679321204]",100.0,"[0.06395723423043832,-0.07650159010451718]",100.0,"[0.1164806687881165,-0.0014956070445966867]",100.0,"[0.08740450618445517,-0.04022443621841764]",4.0,"[0.002764367236078041,-0.1629675069274867]",4.0,"[-0.09328380459971682,-0.1617995719533511]",4.0,"[0.15909919210539208,-0.10731652144917044]",4.0,"[0.07698824183098305,0.05850508345685161]",100.0,"[-0.08345148062103762,0.15787213244947573]",100.0,"[-0.020396521417621855,0.19310965958973805]",100.0,"[-0.08590643915381473,0.08161198030799596]",4.0,"[-0.11852837435450819,0.028586443515998945]",100.0,"[-0.015224078304673445,-0.11078339960830734]",100.0,"[-0.15282722253638129,0.12583241788818877]",100.0,"[-0.04016694772593562,0.12336929685680356]",4.0,"[0.03444058453624224,0.19480670855359591]",4.0,"[0.07277251692275223,0.11090035036862379]",4.0,"[-0.08776875413173786,-0.07328562523294088]",100.0,"[-0.05307359775367462,0.03896482125409127]",4.0,"[0.08614496799489134,0.14976304078538177]",100.0,"[-0.12935828402020702,0.09228426882189193]",4.0,"[-0.14798538060537142,-0.05859627761043136]",100.0,"[0.16179381593998807,0.030808903715460287]",4.0,"[-0.07037687323320224,-0.006787073283287267]",100.0,"[-0.19183739303975633,0.03461025929164662]",4.0,"[0.16674639073501266,0.08158555334052588]",100.0,"[-0.005800382026213039,-0.06387285441655727]",4.0,"[0.02,0.02]",169.0059,0.0,41.0,41.0,116.0,1.0,,,,,,,
,,,,,,,660434638448016695dbc246,684429300757be1571665109,2025-06-07_14h05.07.393,shape_ratio,2024.1.5,Win32,163.9344262,684250e4f00cb30b92d1fa88,,,,,,,,,,,169.0061,169.5036,,,169.7527,170.9173,right,1.1601,,,,,,,,,0.55,,,,,,169.5036,169.7526,170.9173,"[0.13436659359693037,-0.13213057248435336]",100.0,"[-0.027279658007816426,0.18288276883731577]",4.0,"[0.08311039409441787,-0.03258420447820009]",100.0,"[-0.16781221828212983,-0.07325425793212105]",4.0,"[-0.14395584234109798,0.07942483003102052]",4.0,"[0.0561893087531413,0.18384231015289573]",4.0,"[0.18656862154444404,-0.05452345493679198]",100.0,"[-0.16769274403223924,0.030163035182120247]",4.0,"[-0.08767945421471847,-0.10406358246514726]",4.0,"[-0.05439152032377585,-0.18725937779884255]",100.0,"[0.03804740849653452,0.11258097554444814]",4.0,"[-0.165953153040668,-0.03167474846104179]",100.0,"[-0.03198112443345447,-0.02972818881741911]",4.0,"[-0.04622371824139572,0.08317912110876102]",4.0,"[0.08382002397761733,0.058895049220744046]",100.0,"[-0.09765523058565767,0.16380767585003014]",100.0,"[-0.019984947349450225,-0.0705679037976988]",100.0,"[0.1281201244014603,0.09294392799943227]",100.0,"[0.13321894004867726,-0.006618700582274278]",100.0,"[0.027734414822936,0.06982662264561385]",100.0,"[-0.03292691958747623,0.1373718012179376]",100.0,"[0.06790039762294398,-0.12603586415285845]",100.0,"[0.040490862932101225,-0.04185241718063067]",4.0,"[0.14273211130108052,-0.08526525612844851]",100.0,"[-0.03171639316539376,-0.1406573235701208]",4.0,"[0.011546429721828292,0.15949428825816858]",100.0,"[0.10747883176521326,0.1585471954176479]",4.0,"[-0.12255124013234082,0.03637100701783941]",4.0,"[0.16689049103837647,0.10821336665534657]",4.0,"[-0.13222984542407154,-0.10972533149149595]",100.0,"[0.14606284760928614,0.05172926878340888]",100.0,"[-0.07940996786290866,-0.14773025260516348]",100.0,"[0.02,0.02]",172.0157,0.0,42.0,42.0,72.0,1.0,,,,,,,
,,,,,,,660434638448016695dbc246,684429300757be1571665109,2025-06-07_14h05.07.393,shape_ratio,2024.1.5,Win32,163.9344262,684250e4f00cb30b92d1fa88,,,,,,,,,,,172.016,172.5132,,,172.762,173.1564,left,0.392,,,,,,,,,0.45,,,,,,172.5132,172.762,173.1564,"[-0.03809315572566619,0.14263988568144614]",100.0,"[0.08487686655681964,-0.062398558372799395]",4.0,"[0.003787946074751232,-0.03704478586197956]",100.0,"[0.18010914488756186,-0.03503648261824153]",4.0,"[0.07621374393444096,0.15629846817901305]",100.0,"[-0.09289261332132125,-0.0031633002307707736]",100.0,"[0.0185236211613767,0.1855574623968948]",100.0,"[-0.03393463984621845,-0.1950996814835534]",4.0,"[0.041089737508409205,-0.13387564424247264]",4.0,"[-0.11138120760168994,-0.04116264046875586]",4.0,"[-0.013560632466445855,-0.08014801121480263]",100.0,"[0.16408100403102718,0.0676069771512911]",100.0,"[-0.08154755601990586,0.18053139819113342]",4.0,"[-0.14651557004356525,0.043595646648671875]",4.0,"[0.003950380970852591,0.021397496419665346]",100.0,"[-0.029445511042815897,0.19583189257721537]",4.0,"[0.10971221599135988,-0.14282175234264108]",100.0,"[0.08231600453081654,0.09914264588509543]",4.0,"[0.11559335240743754,0.04376720358371475]",4.0,"[-0.11508830174309691,0.12768939287921685]",100.0,"[0.10125250648859409,-0.015166018551049074]",4.0,"[-0.16555605898463877,0.09531796636050768]",100.0,"[0.044941357350676545,0.06662763632358686]",4.0,"[0.015878898558496658,-0.18338618595658962]",100.0,"[-0.1790070367953671,-0.04349744379699768]",4.0,"[-0.025030114403684526,-0.1365741633832651]",100.0,"[-0.09481690293997229,-0.08619367728614916]",4.0,"[-0.1327754999260502,0.0006349643756909794]",4.0,"[0.1329814740649563,-0.10134347213345207]",4.0,"[0.1682650047344124,-0.07862163571465042]",4.0,"[0.14374836761083162,0.014362740262789633]",100.0,"[0.01598072385817594,0.10840374855460778]",4.0,"[0.02,0.02]",174.2547,0.0,43.0,43.0,120.0,1.0,,,,,,,
,,,,,,,660434638448016695dbc246,684429300757be1571665109,2025-06-07_14h05.07.393,shape_ratio,2024.1.5,Win32,163.9344262,684250e4f00cb30b92d1fa88,,,,,,,,,,,174.2548,174.7524,,,175.0012,175.5235,left,0.5145,,,,,,,,,0.9,,,,,,174.7524,175.0012,175.5235,"[0.0793403871984422,-0.16748718955577657]",100.0,"[-0.1877781143583149,0.03278006676379975]",100.0,"[0.09314083946064321,0.052572323867631415]",100.0,"[0.0877036249416112,0.13829231618946378]",100.0,"[-0.0570116958741184,0.10881429671966954]",100.0,"[-0.08028553759221661,-0.028803023765309868]",4.0,"[-0.1084426404419255,0.04159702565516602]",100.0,"[-0.09534919164281376,-0.12664233718998594]",4.0,"[-0.023721400637010656,-0.13705679356614547]",100.0,"[-0.06280547737576345,-0.1594571069990434]",100.0,"[0.059008144856349976,-0.00966499298344943]",100.0,"[-0.01909406459703794,-0.08044902828553296]",100.0,"[0.14063569246284202,0.0806838489970525]",100.0,"[-0.14679827152184585,-0.0560750432248443]",100.0,"[0.02434940060224933,0.1729203921637164]",100.0,"[0.07935565654018391,-0.07757764025663878]",100.0,"[0.010764559286461552,-0.05018086341301771]",100.0,"[-0.1325754824187996,0.08022628119670651]",100.0,"[-0.16166060624274076,-0.00010937790657753705]",100.0,"[-0.034058869083073755,0.14955402972051893]",100.0,"[-0.04674843238564018,0.030308221427237464]",100.0,"[-0.004031248195431165,0.11579517746089725]",100.0,"[0.027162326433848142,-0.1980402380937302]",100.0,"[0.02015917501816805,-0.11201635368876872]",100.0,"[0.007370021976403707,0.013911328860307808]",100.0,"[0.12494581896666837,-0.11735018005637987]",100.0,"[-0.11932095640033112,0.1299103700595295]",100.0,"[0.19096680079378145,-0.04426489047183441]",100.0,"[0.12993731438052195,0.01391707452134355]",100.0,"[0.19540002745222473,0.02878136019626899]",100.0,"[0.15955718469294775,-0.09553149937845339]",4.0,"[-0.18342920218599462,-0.0393652298351677]",100.0,"[0.02,0.02]",176.621,0.0,44.0,44.0,24.0,1.0,,,,,,,
,,,,,,,660434638448016695dbc246,684429300757be1571665109,2025-06-07_14h05.07.393,shape_ratio,2024.1.5,Win32,163.9344262,684250e4f00cb30b92d1fa88,,,,,,,,,,,176.6212,177.1187,,,177.3676,177.7254,right,0.3532,,,,,,,,,0.1,,,,,,177.1187,177.3676,177.7254,"[0.09847489000220179,-0.07049159727254761]",4.0,"[0.06393882898984289,0.05505593110058292]",100.0,"[-0.12880708742312938,-0.09748725534367657]",4.0,"[0.07241251841770117,0.16835610366485224]",4.0,"[-0.063126006235906,-0.0639395386155375]",4.0,"[-0.09418109107619473,0.04919024384000942]",4.0,"[0.16501096725575282,0.04709255593992663]",4.0,"[0.10446609528751498,0.09163476260140214]",4.0,"[0.060370252974000435,-0.09895057805089832]",4.0,"[0.008910105730808844,0.12023533282417187]",4.0,"[-0.06149093694911994,0.18153057075290133]",4.0,"[0.11688828389986228,-0.1268975296060286]",4.0,"[-0.14656437613731005,0.03946983169604022]",4.0,"[-0.18364598902326335,-0.0212487084174464]",4.0,"[-0.10780555316998491,-0.13455877823255336]",4.0,"[-0.12584569520057545,0.14319155461397595]",4.0,"[0.037734562465222034,0.19086194421906208]",4.0,"[-0.06631794390062215,0.10618492951319647]",4.0,"[-0.0225697794155085,0.19824403719459546]",4.0,"[-0.16369736612075386,-0.0569970126608138]",100.0,"[0.029362013783311325,-0.13508856017437015]",4.0,"[0.13231402005707338,0.137825050555662]",4.0,"[-0.03979946655932936,0.02305994812615301]",4.0,"[0.16751500302175934,0.09958331830274025]",4.0,"[-0.03693362156197598,-0.11785319965367322]",4.0,"[0.006939890554886502,-0.07389057478428515]",4.0,"[0.051614048822387716,0.007854667505051134]",4.0,"[-0.12150845498477927,-0.03755864621471696]",100.0,"[-0.020950810674348955,-0.16957829350539647]",4.0,"[0.10198555005172595,-0.017564614444231023]",4.0,"[0.16908140878162023,-0.07340066233433795]",4.0,"[-0.00891219631062125,0.07693934090829825]",4.0,"[0.02,0.02]",178.8238,0.0,45.0,45.0,209.0,1.0,,,,,,,
,,,,,,,660434638448016695dbc246,684429300757be1571665109,2025-06-07_14h05.07.393,shape_ratio,2024.1.5,Win32,163.9344262,684250e4f00cb30b92d1fa88,,,,,,,,,,,178.8239,179.3214,,,179.5703,180.1648,left,0.5901,,,,,,,,,0.6,,,,,,179.3214,179.5703,180.1648,"[0.1581478073257668,0.09967024586699079]",100.0,"[-0.12721526757847276,-0.027644620364370612]",4.0,"[-0.04482178095944155,-0.045320961308582715]",4.0,"[0.19009445000164235,-0.018164801993984868]",100.0,"[0.029135241914186333,0.18892476328396285]",100.0,"[-0.12556976015987095,0.12920577335883893]",100.0,"[-0.0820922866228735,0.06632674941478806]",100.0,"[-0.0238541385619089,-0.10128279147729713]",4.0,"[0.052428212174458894,-0.009689413683436105]",4.0,"[-0.031347896244014656,0.0002369059864069884]",100.0,"[-0.0745282581347884,0.18321394651174916]",100.0,"[0.07403369050967427,0.1537817529737796]",4.0,"[-0.1314533095473615,-0.11647964140955691]",4.0,"[0.057565054995431054,0.07117009389855103]",100.0,"[0.010478176959833347,-0.18411017110775293]",100.0,"[0.11811009994081133,-0.11835475236670476]",100.0,"[-0.01874538240442469,-0.150012831632467]",100.0,"[0.0909708456438862,-0.05319733848551806]",100.0,"[0.03455474044626874,-0.0564901625929379]",4.0,"[-0.09233776144654815,-0.15145595457964342]",100.0,"[-0.023108937315266326,0.061673418916089615]",100.0,"[-0.12577009996508254,0.08572614070043276]",4.0,"[0.11246174171396091,0.029350475883626406]",100.0,"[-0.026897895874597618,0.10403335479727631]",4.0,"[0.1851557741746971,0.02346361799707248]",4.0,"[0.10480022437794362,0.1103550443280266]",100.0,"[-0.16983828277070107,0.040994556576330006]",4.0,"[0.03512801416608412,0.1133650845760574]",100.0,"[0.08915934570525173,-0.16436721874711951]",100.0,"[-0.13482467423452363,-0.06946732854451886]",4.0,"[-0.06988177673214395,-0.09494922923210292]",4.0,"[-0.0772563912592979,0.11458277387789345]",100.0,"[0.02,0.02]",181.263,0.0,46.0,46.0,44.0,1.0,,,,,,,
,,,,,,,660434638448016695dbc246,684429300757be1571665109,2025-06-07_14h05.07.393,shape_ratio,2024.1.5,Win32,163.9344262,684250e4f00cb30b92d1fa88,,,,,,,,,,,181.2631,181.7606,,,182.0094,182.4705,left,0.4462,,,,,,,,,0.6,,,,,,181.7606,182.0094,182.4705,"[-0.08334175618433577,-0.08225623633271742]",100.0,"[0.13151526872823197,-0.06057338766092077]",100.0,"[0.05839687919836263,0.08479912693501751]",4.0,"[-0.016460693909507527,-0.03234509744897236]",100.0,"[-0.005099648185110381,-0.19929091896174142]",4.0,"[0.035280946080443666,-0.05436508497628642]",100.0,"[-0.12928645195940133,0.025605579105820925]",4.0,"[0.05362890731021483,-0.13461509603726843]",4.0,"[0.02287368858130856,0.12933997296692049]",4.0,"[-0.05344099317679888,-0.0048668159520861955]",100.0,"[-0.05978281226354353,-0.1508828933502394]",4.0,"[0.08610618776349185,0.13178079072657403]",100.0,"[-0.11508943562909413,-0.024629112691967246]",4.0,"[-0.10583240012331338,-0.15446202559472397]",100.0,"[0.0037944555803830085,0.18785543692598525]",100.0,"[-0.1650925280550124,0.044305247462922435]",100.0,"[-0.12624676991965023,0.08771362083924197]",100.0,"[0.09334214177033094,-0.09896553128589271]",100.0,"[0.17386867809687323,-0.03450101104929262]",4.0,"[-0.01222484969087519,0.07445899344771259]",4.0,"[-0.01070663512766205,-0.12818646191981523]",4.0,"[-0.19208128987050335,-0.020055350869960572]",100.0,"[-0.051762502086728814,0.03681133144693428]",100.0,"[-0.17886523381203134,-0.08229971349568041]",100.0,"[-0.06318674246197734,0.16242930845371825]",4.0,"[0.1482440813986706,0.10735030746406349]",4.0,"[0.11417608394263935,0.03336313236783455]",100.0,"[-0.1384784627041339,-0.08153568746862584]",100.0,"[-0.04443085052401242,-0.10090755058617175]",100.0,"[0.05356553098620026,0.017538770878137617]",100.0,"[0.09449348984696754,-0.03158021075523695]",100.0,"[0.12004697163228219,0.15655654377076522]",4.0,"[0.02,0.02]",183.5688,0.0,47.0,47.0,54.0,1.0,,,,,,,
,,,,,,,660434638448016695dbc246,684429300757be1571665109,2025-06-07_14h05.07.393,shape_ratio,2024.1.5,Win32,163.9344262,684250e4f00cb30b92d1fa88,,,,,,,,,,,183.569,184.0665,,,184.3165,184.6915,left,0.3733,,,,,,,,,0.5,,,,,,184.0665,184.3164,184.6915,"[-0.17459940034856042,-0.0014296714818321206]",4.0,"[0.032627839529064305,0.07650482756596191]",100.0,"[0.06706628238406186,-0.11863673673874325]",100.0,"[-0.014469927980808359,-0.13108314619598835]",4.0,"[0.015395769225362791,-0.17409946286077135]",4.0,"[0.10134174744754286,-0.08220543556173827]",4.0,"[0.1621496780261631,0.008941664746251476]",4.0,"[-0.07334030253717215,0.06815641271252112]",100.0,"[-0.06923064846025827,0.11765837114476703]",100.0,"[0.17346318455411808,0.06222291266136238]",100.0,"[0.08969225452409368,0.1768394687499345]",4.0,"[-0.038480575089312186,-0.17477454715681795]",4.0,"[0.14005136429738746,-0.028511559298397722]",4.0,"[-0.17646924407543027,-0.08465102037294488]",100.0,"[0.1641663950031411,0.10939589612834076]",100.0,"[0.004246435913258701,0.16879417004988667]",4.0,"[0.08491673352065525,0.053622364012301096]",4.0,"[-0.1278513890104166,0.11652917579548162]",100.0,"[0.04773195958159263,0.12378149405507378]",4.0,"[-0.05966888339101438,0.0017598883373867694]",100.0,"[-0.13657233714800152,0.03281827530576345]",100.0,"[-0.10340428279904124,-0.002094390165879433]",100.0,"[-0.13511802587487368,-0.05699785223491353]",4.0,"[-0.06371793063626847,0.17230887834877345]",100.0,"[-0.021092723673194747,0.06013352164043319]",100.0,"[0.17945609326809478,-0.05420521131365581]",4.0,"[0.05737891760799872,-0.014911018937064043]",4.0,"[0.12695262807483307,0.04576636226101591]",4.0,"[-0.018394455654096302,-0.06155210662122321]",100.0,"[0.17519127404681914,-0.0964289096774676]",4.0,"[0.06498667520598495,-0.056340785869845936]",100.0,"[0.13092524274439266,0.0864339162609553]",100.0,"[0.02,0.02]",185.7897,0.0,48.0,48.0,109.0,1.0,,,,,,,
,,,,,,,660434638448016695dbc246,684429300757be1571665109,2025-06-07_14h05.07.393,shape_ratio,2024.1.5,Win32,163.9344262,684250e4f00cb30b92d1fa88,,,,,,,,,,,185.7899,186.2872,,,186.5362,187.1003,left,0.5605,,,,,,,,,0.6,,,,,,186.2873,186.5362,187.1003,"[0.15698382642981004,-0.016490597960635584]",4.0,"[0.019995044699703222,-0.15212750750173828]",100.0,"[0.06164721821360807,0.10569873059849239]",100.0,"[0.008258267561554858,0.17372072948440948]",4.0,"[-0.053039654030493294,-0.12450834312511032]",4.0,"[0.08688525319654165,-0.09155292446043747]",100.0,"[-0.09325181594894623,-0.07430332313097844]",100.0,"[0.051795270873793355,0.03801565961633972]",100.0,"[-0.04354604875800787,0.07366795588450449]",100.0,"[0.02246075023750581,-0.00702929497216086]",4.0,"[0.17124607900887387,0.07344749518037592]",100.0,"[-0.1504664771546496,-0.10531811608521272]",4.0,"[-0.15526924241623713,0.00012397275214812132]",100.0,"[0.03298684618951966,-0.1058360359133212]",100.0,"[-0.08999247953681183,-0.007615091406151033]",4.0,"[0.07016498720297393,-0.13760634281251513]",100.0,"[0.10897473120179808,0.10885721363635874]",4.0,"[-0.17554216935824227,-0.06167476223167421]",100.0,"[-0.01620183486320413,0.130800788584521]",100.0,"[-0.15926299730178956,0.04894867613000221]",4.0,"[0.14401530462606685,-0.06982301910592331]",4.0,"[-0.12093834926918848,0.08902003152342113]",100.0,"[0.10628225620347505,0.04659480139626439]",100.0,"[-0.19416853592501185,-0.019542366298466077]",100.0,"[0.05046704780968791,-0.1832400294981074]",4.0,"[-0.014133723524224236,-0.10109500461037386]",100.0,"[0.08906404774867586,-0.011860305668223202]",4.0,"[-0.01948354696463001,-0.027034257678780434]",100.0,"[-0.019540381911082993,0.04010182594474576]",4.0,"[0.03912143542312935,-0.057671170308230824]",100.0,"[0.18436665750971923,0.016249607052425643]",4.0,"[-0.10778038778430361,0.14400601186508985]",100.0,"[0.02,0.02]",188.1985,0.0,49.0,49.0,57.0,1.0,,,,,,,
