right,left,explain.started,explain.stopped,key_resp_3.keys,key_resp_3.rt,key_resp_3.duration,participant,session,date,expName,psychopyVersion,OS,frameRate,study_id,explain_2.started,explain_2.stopped,key_resp_4.keys,key_resp_4.rt,key_resp_4.duration,explain_3.started,explain_3.stopped,key_resp_5.keys,key_resp_5.rt,key_resp_5.duration,fixation.started,fixation.stopped,practice.started,practice.stopped,response.started,response.stopped,key_resp.keys,key_resp.rt,key_resp.duration,feedback.started,feedback.stopped,trials_2.thisRepN,trials_2.thisTrialN,trials_2.thisN,trials_2.thisIndex,trials_2.ran,dot_ratio,explain_4.started,explain_4.stopped,key_resp_6.keys,key_resp_6.rt,key_resp_6.duration,dotDisplay.started,dotDisplay.stopped,ITI.started,polygon_1.pos,polygon_1.edges,polygon_2.pos,polygon_2.edges,polygon_3.pos,polygon_3.edges,polygon_4.pos,polygon_4.edges,polygon_5.pos,polygon_5.edges,polygon_6.pos,polygon_6.edges,polygon_7.pos,polygon_7.edges,polygon_8.pos,polygon_8.edges,polygon_9.pos,polygon_9.edges,polygon_10.pos,polygon_10.edges,polygon_11.pos,polygon_11.edges,polygon_12.pos,polygon_12.edges,polygon_13.pos,polygon_13.edges,polygon_14.pos,polygon_14.edges,polygon_15.pos,polygon_15.edges,polygon_16.pos,polygon_16.edges,polygon_17.pos,polygon_17.edges,polygon_18.pos,polygon_18.edges,polygon_19.pos,polygon_19.edges,polygon_20.pos,polygon_20.edges,polygon_21.pos,polygon_21.edges,polygon_22.pos,polygon_22.edges,polygon_23.pos,polygon_23.edges,polygon_24.pos,polygon_24.edges,polygon_25.pos,polygon_25.edges,polygon_26.pos,polygon_26.edges,polygon_27.pos,polygon_27.edges,polygon_28.pos,polygon_28.edges,polygon_29.pos,polygon_29.edges,polygon_30.pos,polygon_30.edges,polygon_31.pos,polygon_31.edges,polygon_32.pos,polygon_32.edges,dot_size,ITI.stopped,trials.thisRepN,trials.thisTrialN,trials.thisN,trials.thisIndex,trials.ran,break_2.started,break_2.stopped,trials_3.thisRepN,trials_3.thisTrialN,trials_3.thisN,trials_3.thisIndex,trials_3.ran
subject chose dot,subject chose diamond,0.0031,15.6273,space,0.5949,,66095082185479f7db42d782,6842bb16f23b681be4393394,2025-06-06_10h56.14.377,shape_ratio,2024.1.5,Win32,58.47953216,6842b561977af9ba9b0f87ca,,,,,,,,,,,,,,,,,,,,,,,,,,,,,,,,,,,,,,,,,,,,,,,,,,,,,,,,,,,,,,,,,,,,,,,,,,,,,,,,,,,,,,,,,,,,,,,,,,,,,,,,,,,,,,,,,
,,,,,,,66095082185479f7db42d782,6842bb16f23b681be4393394,2025-06-06_10h56.14.377,shape_ratio,2024.1.5,Win32,58.47953216,6842b561977af9ba9b0f87ca,15.6335,49.5705,space,3.9184,,,,,,,,,,,,,,,,,,,,,,,,,,,,,,,,,,,,,,,,,,,,,,,,,,,,,,,,,,,,,,,,,,,,,,,,,,,,,,,,,,,,,,,,,,,,,,,,,,,,,,,,,,,,,
,,,,,,,66095082185479f7db42d782,6842bb16f23b681be4393394,2025-06-06_10h56.14.377,shape_ratio,2024.1.5,Win32,58.47953216,6842b561977af9ba9b0f87ca,,,,,,49.5711,73.9128,space,21.319,,,,,,,,,,,,,,,,,,,,,,,,,,,,,,,,,,,,,,,,,,,,,,,,,,,,,,,,,,,,,,,,,,,,,,,,,,,,,,,,,,,,,,,,,,,,,,,,,,,,,,,,
,,,,,,,66095082185479f7db42d782,6842bb16f23b681be4393394,2025-06-06_10h56.14.377,shape_ratio,2024.1.5,Win32,58.47953216,6842b561977af9ba9b0f87ca,,,,,,,,,,,74.0011,74.4283,74.4294,74.6792,74.6795,75.3471,left,0.5998,,75.3478,76.4426,0.0,0.0,0.0,0.0,1.0,0.2,,,,,,,,,,,,,,,,,,,,,,,,,,,,,,,,,,,,,,,,,,,,,,,,,,,,,,,,,,,,,,,,,,,,,,,,,,,,,,,,,,,,,,
,,,,,,,66095082185479f7db42d782,6842bb16f23b681be4393394,2025-06-06_10h56.14.377,shape_ratio,2024.1.5,Win32,58.47953216,6842b561977af9ba9b0f87ca,,,,,,,,,,,76.4448,76.9415,76.9417,77.1929,77.1931,77.4252,right,0.2161,,77.4254,78.5229,0.0,1.0,1.0,1.0,1.0,0.8,,,,,,,,,,,,,,,,,,,,,,,,,,,,,,,,,,,,,,,,,,,,,,,,,,,,,,,,,,,,,,,,,,,,,,,,,,,,,,,,,,,,,,
,,,,,,,66095082185479f7db42d782,6842bb16f23b681be4393394,2025-06-06_10h56.14.377,shape_ratio,2024.1.5,Win32,58.47953216,6842b561977af9ba9b0f87ca,,,,,,,,,,,,,,,,,,,,,,,,,,,,78.5234,181.5904,space,100.0467,,,,,,,,,,,,,,,,,,,,,,,,,,,,,,,,,,,,,,,,,,,,,,,,,,,,,,,,,,,,,,,,,,,,,,,,,,,,,,,,,,
,,,,,,,66095082185479f7db42d782,6842bb16f23b681be4393394,2025-06-06_10h56.14.377,shape_ratio,2024.1.5,Win32,58.47953216,6842b561977af9ba9b0f87ca,,,,,,,,,,,181.6219,182.1058,,,182.3448,182.5892,left,0.2203,,,,,,,,,0.45,,,,,,182.107,182.3447,182.5909,"[-0.1681952030276317,0.05052060198021379]",4.0,"[0.07018641202679103,0.030637361285388773]",4.0,"[0.16589670682751304,-0.06988051986291755]",100.0,"[-0.025817794330364373,-0.108726694190619]",100.0,"[0.15684630172013458,0.004717208949827636]",4.0,"[-0.1712565145695379,-0.040228893323036995]",100.0,"[0.05761654899596822,-0.1370516174647936]",4.0,"[0.041867427491715806,0.0855260679076043]",4.0,"[0.014363229923556372,0.18984607580170593]",100.0,"[0.11803793536393148,-0.05921832773600218]",4.0,"[0.10162467786681285,0.16180536885318858]",100.0,"[-0.12415276937596957,-0.02950802159708863]",100.0,"[-0.04219861071893932,0.12168083225287801]",4.0,"[0.13396955067850017,-0.13321402799924473]",4.0,"[0.10055510419217256,0.004145441341848974]",100.0,"[-0.10410277918383988,0.15534134434028368]",4.0,"[-0.03213853211070748,0.048692007142565434]",4.0,"[0.19459826735522123,-0.010462819724658498]",100.0,"[-0.10204344088861148,0.09032906585176667]",100.0,"[0.09849886079165387,0.07305083144323515]",4.0,"[0.046697602525878436,0.15593961772178472]",100.0,"[0.023857747830927464,-0.0414344739073485]",4.0,"[0.16036844315331122,0.08240074591483794]",4.0,"[0.0010217966141830587,0.024487272556117125]",100.0,"[-0.016815223089328216,-0.057002587665994385]",4.0,"[-0.11614550989095423,-0.09772907409981445]",100.0,"[-0.16532603903716897,-0.10789000755441659]",4.0,"[-0.07332197470612721,0.05828514482225922]",4.0,"[-0.06731549064905493,-0.07596457793919463]",100.0,"[-0.11801672492424096,-0.13939644242744698]",4.0,"[-0.09978346650131664,0.011484054302584108]",4.0,"[-0.09026279039783766,-0.16886530871174057]",100.0,"[0.02,0.02]",183.6875,0.0,0.0,0.0,133.0,1.0,,,,,,,
,,,,,,,66095082185479f7db42d782,6842bb16f23b681be4393394,2025-06-06_10h56.14.377,shape_ratio,2024.1.5,Win32,58.47953216,6842b561977af9ba9b0f87ca,,,,,,,,,,,183.6884,184.1876,,,184.4413,184.5595,right,0.1008,,,,,,,,,0.4,,,,,,184.1877,184.4412,184.5597,"[-0.10223134333022307,0.019398429560958236]",100.0,"[-0.1142956558051227,0.16380552800868778]",4.0,"[0.007228948279358814,-0.1084973614708364]",4.0,"[0.07505470491243585,-0.013341985339928813]",4.0,"[0.10242502532495713,-0.14025225761242038]",100.0,"[0.06945874406997518,0.14736944722652726]",4.0,"[0.02389137829366154,-0.14610613663464503]",4.0,"[-0.13474443840752812,-0.13754960168363567]",100.0,"[-0.04465412787155938,0.19184191797147992]",4.0,"[-0.06034718332117788,0.0013291603475265076]",4.0,"[-0.12848700700934687,-0.0894757674955294]",100.0,"[0.09700776331419018,-0.07664187370648341]",4.0,"[0.03184734759835461,0.12618960845469185]",4.0,"[-0.14606271731364387,0.053202051465362395]",100.0,"[-0.15055858535305147,-0.019582914171397462]",4.0,"[-0.04935772170774633,-0.09538207498187809]",100.0,"[-0.07116958769017444,0.131310573360173]",4.0,"[0.1414783782629634,-0.017748394504756113]",100.0,"[-0.041300439706334575,0.09916532138814549]",100.0,"[0.06805518916727292,-0.10897761549327693]",100.0,"[0.04982562370166748,0.07502279284203538]",4.0,"[0.03307487247869454,-0.18569862014347296]",4.0,"[0.1666971630380196,-0.05763025105376973]",4.0,"[-0.17880240160802827,-0.08195222166573979]",4.0,"[-0.013808698687248022,0.010642263873721452]",4.0,"[-0.0026229645431688066,0.07861443362151223]",4.0,"[0.17346495079904256,0.04691443209246015]",100.0,"[0.11142392686930001,0.13569870363695394]",4.0,"[-0.19659913798662185,-0.024596475121047342]",100.0,"[0.08570301718644271,0.09674019494967197]",100.0,"[-0.1462488314373074,0.09405884819331439]",100.0,"[-0.111886081163569,-0.05007337254505935]",4.0,"[0.02,0.02]",185.6525,0.0,1.0,1.0,160.0,1.0,,,,,,,
,,,,,,,66095082185479f7db42d782,6842bb16f23b681be4393394,2025-06-06_10h56.14.377,shape_ratio,2024.1.5,Win32,58.47953216,6842b561977af9ba9b0f87ca,,,,,,,,,,,185.6538,186.152,,,186.408,186.8021,left,0.3752,,,,,,,,,0.4,,,,,,186.1522,186.4078,186.8022,"[-0.1509484824584475,-0.007186578763297675]",4.0,"[-0.09310832548069473,-0.10809329164664515]",4.0,"[0.03755468641960937,-0.025853694901429698]",100.0,"[-0.1936419645413656,0.037065666637920845]",4.0,"[-0.08873886651191125,-0.03785841135148263]",4.0,"[0.046222445000083844,0.047017054595150015]",100.0,"[-0.1595219808759118,-0.05816631989323186]",4.0,"[0.08593735909369131,0.12970074969058182]",4.0,"[0.06555305583194625,-0.17844762556937194]",4.0,"[0.04352646121134425,0.18995617119143604]",100.0,"[-0.02938226483234926,0.17213817187279457]",4.0,"[-0.12745078675585572,0.07986581782718705]",100.0,"[-0.06925861041724128,-0.15365786325589656]",4.0,"[0.1574315295351764,-0.08409743622338284]",4.0,"[0.12718933228604204,0.010378976736561508]",100.0,"[0.07782294237778725,-0.13111730179462242]",4.0,"[-0.07277148962086216,0.11579365488745695]",100.0,"[-0.038487375022290014,-0.037731780098242615]",4.0,"[0.08004310734499463,-0.06854319861946123]",100.0,"[-0.13582911454158897,-0.1120972925710122]",4.0,"[0.17975684660241498,0.01980354486745115]",4.0,"[0.1683042173995753,0.07365030927309879]",4.0,"[-0.1941217581401603,-0.0331920230985448]",100.0,"[-0.0035250545173233752,0.03474924910422619]",4.0,"[0.0071588986028752076,-0.07191944023799791]",4.0,"[-0.028613016862898737,0.09955657427289459]",4.0,"[-0.044213060224411564,0.019172055458663493]",100.0,"[-0.10902803316681776,-0.0014414391989403753]",4.0,"[-0.1007268852816327,0.15348664207013205]",100.0,"[0.08908962517966455,0.04823069249501199]",100.0,"[-0.09223059820163063,0.053340416997416]",100.0,"[-0.008835998585173853,-0.009502743867772771]",100.0,"[0.02,0.02]",187.9002,0.0,2.0,2.0,171.0,1.0,,,,,,,
,,,,,,,66095082185479f7db42d782,6842bb16f23b681be4393394,2025-06-06_10h56.14.377,shape_ratio,2024.1.5,Win32,58.47953216,6842b561977af9ba9b0f87ca,,,,,,,,,,,187.9012,188.3998,,,188.6496,189.0828,left,0.4091,,,,,,,,,0.1,,,,,,188.3999,188.6495,189.0829,"[-0.10256637518934465,-0.008123869282704105]",4.0,"[-0.11763826889506286,0.1471767383403489]",4.0,"[-0.023954767739062084,0.04055954877221893]",4.0,"[-0.06711964794005577,-0.15215823186764482]",4.0,"[0.08403943722250812,-0.10127134886582605]",4.0,"[-0.10995891678271108,-0.06604278553145854]",4.0,"[0.1472808097749287,0.046497679234996446]",4.0,"[0.08991307731508914,0.1573968500009956]",100.0,"[-0.06399766280103487,0.13382472958746822]",4.0,"[0.0066774207701619645,-0.184046621113225]",4.0,"[0.1071323655115703,-0.14151152818999002]",4.0,"[0.04755699417266496,-0.04710701891138629]",100.0,"[-0.1750473446919686,0.06348646154557626]",4.0,"[0.05582291222116015,-0.190131061257202]",4.0,"[-0.15995313808391934,-0.05898836982767011]",4.0,"[0.003293803080941202,-0.06962331380607958]",4.0,"[-0.03541023059424259,0.09218339433958192]",4.0,"[-0.1139628247942326,-0.1362651380859379]",4.0,"[0.12276595411647212,0.08721095835424456]",4.0,"[0.16817788265241446,-0.04598321463555137]",4.0,"[0.0181083751559984,0.008835001179284742]",4.0,"[0.12676321769540078,-0.035008333820364584]",4.0,"[0.0921928058595082,0.014526922530204408]",4.0,"[-0.13704021279176065,0.035077838250961814]",4.0,"[-0.07383227230197051,-0.0838942327465096]",4.0,"[0.16359059097988343,0.10195871824414078]",4.0,"[0.06601467256089272,0.08357635244426875]",4.0,"[0.016822731692649022,0.06865634821466839]",4.0,"[0.1594094562305371,-0.11504587751507814]",4.0,"[-0.045205015976023784,-0.05366387890476192]",100.0,"[-0.18134712717516407,-0.004131751367942721]",4.0,"[-0.03659376437892747,-0.10165884852801496]",4.0,"[0.02,0.02]",190.1814,0.0,3.0,3.0,195.0,1.0,,,,,,,
,,,,,,,66095082185479f7db42d782,6842bb16f23b681be4393394,2025-06-06_10h56.14.377,shape_ratio,2024.1.5,Win32,58.47953216,6842b561977af9ba9b0f87ca,,,,,,,,,,,190.1825,190.6808,,,190.9366,191.1479,right,0.1917,,,,,,,,,0.6,,,,,,190.6808,190.9366,191.148,"[0.12409893180154417,0.1072098382183998]",100.0,"[-0.12203530296810532,0.014071321820576948]",4.0,"[0.07335325015071623,0.12207123379043343]",100.0,"[-0.04891077679274244,-0.1225992182200395]",100.0,"[0.0632752499227874,-0.13776721208690249]",100.0,"[-0.03172557094473973,0.07901735219360011]",100.0,"[0.11969256377645685,-0.11905396182345457]",4.0,"[-0.09627791815587418,0.07088414766431554]",100.0,"[0.0276098738236834,-0.04923546394043016]",100.0,"[0.03986862290211354,-0.0018605930061982294]",100.0,"[-0.06315977121630541,-0.07379462838572808]",100.0,"[-0.0011037283000802855,-0.09578911280238092]",4.0,"[0.09691774146003415,0.02033994945206351]",100.0,"[0.07074410677344727,0.1704828548596773]",100.0,"[-0.11846921229943023,-0.058643507597283005]",4.0,"[0.1259279955232275,-0.032567930453521146]",4.0,"[-0.11660639518185066,-0.14555771596193026]",100.0,"[-0.08660217158595614,0.17963512039327423]",100.0,"[0.06971089682334738,-0.05777185354239292]",100.0,"[0.13507677752089103,-0.07682965946107882]",100.0,"[0.032257848193605686,0.13516277599988125]",4.0,"[-0.18052407302963225,0.004474290755244886]",100.0,"[0.18381288769847798,-0.05816972034491498]",100.0,"[-0.07977168021698218,-0.17239466255354596]",4.0,"[-0.052697263694190234,-0.0028021411140508336]",4.0,"[-0.18112828984649657,-0.06768415021723051]",100.0,"[-0.16177557369869192,0.07758944086077982]",4.0,"[-0.028007292449383315,-0.17906849362659832]",100.0,"[0.03981260321337775,-0.1800721095129684]",4.0,"[0.1949938021307353,-0.005709608891105411]",4.0,"[-0.1368535776651033,0.13636737724989387]",4.0,"[-0.03342433097609786,0.1733578668918619]",4.0,"[0.02,0.02]",192.2466,0.0,4.0,4.0,46.0,1.0,,,,,,,
,,,,,,,66095082185479f7db42d782,6842bb16f23b681be4393394,2025-06-06_10h56.14.377,shape_ratio,2024.1.5,Win32,58.47953216,6842b561977af9ba9b0f87ca,,,,,,,,,,,192.2476,192.7457,,,192.9962,193.1784,left,0.1648,,,,,,,,,0.4,,,,,,192.7458,192.996,193.1785,"[0.10047049969762685,-0.04521713788547223]",4.0,"[0.1474398765825533,0.09830788295982633]",4.0,"[0.029063634985350736,-0.011930559326717844]",100.0,"[-0.05828186019658687,0.15909387064422784]",4.0,"[-0.08766006023196364,-0.1176169840259304]",100.0,"[-0.11392606444425452,0.001925659068208664]",4.0,"[0.0198231722580171,0.06889306704750041]",4.0,"[-0.02790568547808127,0.08261037670381902]",4.0,"[-0.02276141718913297,-0.08937263814122336]",4.0,"[0.11406922591764969,-0.1516600400986344]",100.0,"[0.0556282639400747,0.032337100085253964]",4.0,"[0.1560095240619152,-0.11492772984222416]",4.0,"[-0.09491859617608556,-0.1675823993430364]",100.0,"[0.17913293355169976,0.06502490593335071]",4.0,"[-0.06446589936867003,-0.020494858404594314]",4.0,"[-0.1753491803978138,-0.054803275555046715]",100.0,"[-0.012682047105082358,-0.014079094317656471]",100.0,"[0.11952304755648235,-0.0941857047593276]",4.0,"[0.027794483659844417,0.1877212313803219]",100.0,"[0.06262310449218322,0.1360589646307686]",100.0,"[0.09137403960380923,0.07950766023068573]",4.0,"[0.12956618593286648,0.03750705548892794]",100.0,"[-0.04666782882114121,-0.16111594139805688]",4.0,"[0.11305357256171583,0.1383793081872582]",100.0,"[0.1771140236763501,-0.02038145565175433]",4.0,"[0.07351928416277347,0.18281339917510472]",100.0,"[0.0008439630328332697,-0.13410037649906068]",100.0,"[-0.00530452873599192,0.15014551044251967]",100.0,"[-0.0032189338339411277,0.03204961883188002]",4.0,"[0.03911511605557785,-0.1660808929466124]",4.0,"[-0.11714859496462136,-0.07540107979336821]",4.0,"[-0.16293420637985537,0.04954889834297878]",4.0,"[0.02,0.02]",194.2766,0.0,5.0,5.0,168.0,1.0,,,,,,,
,,,,,,,66095082185479f7db42d782,6842bb16f23b681be4393394,2025-06-06_10h56.14.377,shape_ratio,2024.1.5,Win32,58.47953216,6842b561977af9ba9b0f87ca,,,,,,,,,,,194.2775,194.7765,,,195.0268,195.1594,right,0.1197,,,,,,,,,0.4,,,,,,194.7766,195.0267,195.1595,"[-0.1627746891986351,0.09799237127099257]",100.0,"[0.1468801513009176,0.10225462578456372]",100.0,"[0.06107904059515103,0.11969210328174414]",4.0,"[-0.07073355171840849,0.15677618893943787]",4.0,"[0.09174046411589604,-0.03344260372935425]",100.0,"[0.013622153834016153,-0.16705218532959942]",4.0,"[-0.001956559619675857,0.18192101046400777]",4.0,"[-0.17653027730463083,-0.0419568750294331]",100.0,"[-0.07048494965300948,-0.1327677179863779]",4.0,"[0.026924165617899,-0.010632751065680674]",4.0,"[-0.06247603137376387,-0.04193679475876327]",100.0,"[0.10827488194847838,0.045959287858326106]",100.0,"[0.048247605733999874,0.18956582523947524]",100.0,"[-0.05607237656485606,0.10056023146288495]",4.0,"[-0.01704417020391391,-0.13622397813193385]",100.0,"[0.1374563589868434,-0.016665085964003064]",100.0,"[-0.034510454022542006,0.0173431080851444]",4.0,"[0.002136356596395664,-0.05478503976559221]",4.0,"[0.08291448965481783,-0.15258935747014046]",4.0,"[-0.18634664730571615,0.010582796183879657]",4.0,"[-0.11187234947561887,-0.1387599973101496]",100.0,"[-0.029487571015144542,0.14745912825989121]",4.0,"[0.02812800103449894,0.07305910534621848]",100.0,"[-0.14331157285362262,-0.07601705058989386]",4.0,"[0.15723917626166567,0.03547656551353694]",4.0,"[0.1440795483494964,-0.10451612246987121]",4.0,"[0.17791420435317104,0.07522873023239464]",100.0,"[-0.14623362658226,0.02910350536221539]",100.0,"[0.06036476202271158,0.03771312493796365]",4.0,"[0.18262424674651306,0.0033431652821231464]",4.0,"[0.17462740253456302,-0.07510575353218163]",4.0,"[-0.09808612738387212,-0.07223702000805031]",4.0,"[0.02,0.02]",196.2584,0.0,6.0,6.0,152.0,1.0,,,,,,,
,,,,,,,66095082185479f7db42d782,6842bb16f23b681be4393394,2025-06-06_10h56.14.377,shape_ratio,2024.1.5,Win32,58.47953216,6842b561977af9ba9b0f87ca,,,,,,,,,,,196.2594,196.7578,,,197.0128,197.2912,right,0.2536,,,,,,,,,0.9,,,,,,196.7579,197.0127,197.2913,"[0.06560182971948757,-0.1514534099202476]",100.0,"[0.12485107392347194,0.10784160231992161]",4.0,"[0.14584071700438675,0.021685370419485407]",4.0,"[-0.10899452775241672,-0.13995182481246363]",100.0,"[0.020059272312148484,-0.022599498717113763]",100.0,"[-0.0914310046140468,-0.05843416539891314]",100.0,"[0.02764450013401838,-0.11226516536480571]",100.0,"[-0.11826424875327982,0.04595649527009608]",100.0,"[-0.06965651644558626,0.1524607920000701]",100.0,"[-0.1277904615159025,0.14578003568059575]",100.0,"[-0.04888534752698061,-0.15394889805443354]",100.0,"[0.08181669556792068,0.06081133694756098]",100.0,"[0.0035462754985914474,-0.17355779350282524]",4.0,"[-0.15840061876913986,0.0554775515206142]",100.0,"[-0.022776838318782414,0.15894135601504455]",100.0,"[0.003932768496144069,0.03863871009062492]",100.0,"[-0.050575469433126345,-0.09266156748688502]",100.0,"[-0.06733460023649586,0.047340567541975]",100.0,"[-0.13858169915286397,-0.04143830338491213]",100.0,"[0.021899447596405393,0.17429764059324843]",100.0,"[-0.026237944153599403,0.075860547624311]",100.0,"[0.19731616720462827,0.0017294181603922454]",100.0,"[0.078288339779293,-0.034661656315788845]",100.0,"[0.014186701199649602,-0.06974602331777645]",100.0,"[0.1231163856374522,-0.08788254216069834]",100.0,"[0.14030823202519252,-0.02003067786985171]",100.0,"[0.05357891764498829,0.01670981623725905]",100.0,"[0.04620163950672118,0.1124108588049226]",100.0,"[-0.06706245164282768,-0.013545509042036883]",100.0,"[0.18111559659338455,0.041482281150257795]",100.0,"[-0.027301977733525665,0.005044763828759922]",100.0,"[0.0698658051249396,0.1607185837362632]",100.0,"[0.02,0.02]",198.39,0.0,7.0,7.0,20.0,1.0,,,,,,,
,,,,,,,66095082185479f7db42d782,6842bb16f23b681be4393394,2025-06-06_10h56.14.377,shape_ratio,2024.1.5,Win32,58.47953216,6842b561977af9ba9b0f87ca,,,,,,,,,,,198.3911,198.8892,,,199.1394,199.7384,left,0.5821,,,,,,,,,0.45,,,,,,198.8893,199.1394,199.7385,"[-0.02862478273675499,0.11269655357819636]",4.0,"[-0.15657478723024051,-0.07970211329530134]",100.0,"[-0.0028870216607904996,0.19809441801628344]",4.0,"[0.06445293663221588,-0.11764908710526009]",4.0,"[0.13470584073761374,0.13711078067349877]",4.0,"[0.09024915035064707,0.0915692667092582]",4.0,"[0.061699023455417196,0.021097467961545255]",100.0,"[-0.07292844142255811,0.04525443785907731]",100.0,"[0.10919691724803725,-0.09820870904000129]",4.0,"[-0.105261637914032,-0.019870494642642067]",100.0,"[0.12441204544389248,0.06097250531141658]",4.0,"[0.00667857165958017,-0.15738015486764062]",4.0,"[0.05859024907623645,0.18257425261926843]",4.0,"[0.027898386633337977,0.1522395590562789]",100.0,"[-0.08206049951083522,-0.09564873139069208]",100.0,"[0.101701129165246,-0.0034437562783882075]",100.0,"[0.0023299878279526183,-0.1159452755713403]",100.0,"[0.03363790146325506,0.08883372962529869]",100.0,"[-0.1717120833889075,0.08222167996881291]",4.0,"[0.042597908644939106,-0.051976900308928174]",100.0,"[-0.03993500827741959,-0.12320073297132025]",100.0,"[-0.03393545120086108,-0.02892424557655757]",4.0,"[0.1361918563473731,-0.1409770266647826]",100.0,"[0.06247127467443282,0.1264143602846592]",100.0,"[0.0063504298134507055,-0.07200087007494577]",4.0,"[0.010943387205235789,0.00535230355940747]",4.0,"[-0.1366999743408485,-0.14072383355503565]",4.0,"[0.055970124455449244,-0.16741916768054016]",100.0,"[-0.13916492739182076,0.027009476246375654]",4.0,"[-0.11026528840657368,0.06677908892937255]",4.0,"[-0.09293739776369465,-0.13778156856219045]",4.0,"[-0.08675323051771458,0.15634811381220723]",4.0,"[0.02,0.02]",200.8371,0.0,8.0,8.0,149.0,1.0,,,,,,,
,,,,,,,66095082185479f7db42d782,6842bb16f23b681be4393394,2025-06-06_10h56.14.377,shape_ratio,2024.1.5,Win32,58.47953216,6842b561977af9ba9b0f87ca,,,,,,,,,,,200.838,201.3365,,,201.587,201.72,right,0.108,,,,,,,,,0.9,,,,,,201.3366,201.5868,201.7201,"[0.01276353522127393,-0.0783558309297498]",100.0,"[0.10590712948641325,-0.15053967355321407]",100.0,"[0.10184120252204272,0.16924414733973026]",100.0,"[-0.008350799922781257,-0.1581331642718959]",100.0,"[-0.02146103648806187,0.001316216608240186]",4.0,"[-0.08336192403844932,-0.04468647080368751]",100.0,"[-0.00915124761830516,0.09077731530350971]",100.0,"[0.1326635159941206,-0.11020096535190636]",100.0,"[-0.09967303544751337,0.16033759157295996]",100.0,"[0.12611252354745198,0.023117630950926858]",100.0,"[-0.1820815806849269,-0.05559511589581778]",100.0,"[0.008040106203597835,-0.027836892078305003]",100.0,"[-0.06954817135650124,-0.08718138205724875]",100.0,"[0.0641692547913764,0.18450115551377974]",100.0,"[0.05806988939927937,-0.0920183705631949]",100.0,"[0.042115955810270535,-0.1669460372343791]",100.0,"[0.06873533334734747,0.08737438180910548]",100.0,"[0.12269962975748064,-0.039999438878956475]",100.0,"[-0.03298922008654397,-0.05712409297488014]",100.0,"[0.024133357772502837,0.13643486303959396]",4.0,"[0.005015091631013033,0.1786899061711335]",100.0,"[-0.09241990659100413,0.061976754251803906]",100.0,"[0.1240105070757289,0.1254435874977416]",100.0,"[-0.13763696967443056,-0.07628146921822357]",100.0,"[-0.13321304313849872,0.013825188148849078]",100.0,"[-0.14242959973904287,0.06253474565455275]",100.0,"[0.04904036727271592,-0.022544822026665048]",100.0,"[-0.17923609717498246,0.024022083180632765]",100.0,"[0.19331966605387946,0.008723781397981238]",100.0,"[0.05853317431637816,0.04047982805481346]",100.0,"[-0.12527008303928852,0.10859302906299305]",4.0,"[-0.07994070076237929,-0.18014875990436627]",100.0,"[0.02,0.02]",202.8191,0.0,9.0,9.0,8.0,1.0,,,,,,,
,,,,,,,66095082185479f7db42d782,6842bb16f23b681be4393394,2025-06-06_10h56.14.377,shape_ratio,2024.1.5,Win32,58.47953216,6842b561977af9ba9b0f87ca,,,,,,,,,,,202.8201,203.3188,,,203.5676,203.7677,right,0.1842,,,,,,,,,0.55,,,,,,203.3189,203.5676,203.7677,"[0.04535671149075065,0.003259419652265488]",100.0,"[-0.1453405829799895,0.009613996530859762]",4.0,"[0.037645836844609135,-0.13972651013026652]",4.0,"[0.04034634620160225,0.10117766791998838]",4.0,"[0.1880951841088069,0.04649791720055042]",4.0,"[-0.04726350355934169,0.13898403217291766]",4.0,"[-0.05427695465594632,-0.149199511116687]",4.0,"[0.12741099187866992,-0.06588866950049115]",4.0,"[-0.06955448484788952,-0.10023524427976542]",100.0,"[-0.15936744847929676,-0.11782047064133873]",100.0,"[-0.00385949523041269,-0.16230720557773454]",4.0,"[0.019908807163507736,-0.052322892383898326]",4.0,"[-0.15856098821472145,0.10417473989097632]",100.0,"[0.08404853319409507,-0.1019622683465019]",100.0,"[0.10606509235066151,0.08065888693354882]",4.0,"[0.16138513909072014,-0.02951905843891084]",100.0,"[-0.10148471188234066,0.1496659491827772]",100.0,"[-0.1544521837922063,-0.043607590781335956]",100.0,"[-0.043455664001737865,0.05898728417311789]",4.0,"[-0.11062097457869915,-0.14820622353296342]",4.0,"[-0.18656222961791954,0.05668305529398529]",100.0,"[-0.05492572475692989,-0.1894827507072475]",100.0,"[0.0996318701343005,0.0001386842570617647]",100.0,"[0.1354206393856996,-0.13255788552178158]",4.0,"[0.08456174814273859,0.11546880740035687]",100.0,"[0.08281770219002246,-0.05047843680247318]",100.0,"[-0.020126060549399347,-0.1079477476066797]",100.0,"[-0.03288188362429657,-0.015430781923692266]",100.0,"[0.029573647504481188,0.17196577068422245]",4.0,"[0.08842423754747997,-0.14975143959262924]",100.0,"[0.17681059481400788,0.09137688330465271]",100.0,"[-0.10070176377381203,0.05834532392871783]",100.0,"[0.02,0.02]",204.8662,0.0,10.0,10.0,67.0,1.0,,,,,,,
,,,,,,,66095082185479f7db42d782,6842bb16f23b681be4393394,2025-06-06_10h56.14.377,shape_ratio,2024.1.5,Win32,58.47953216,6842b561977af9ba9b0f87ca,,,,,,,,,,,204.867,205.3659,,,205.6167,206.1824,left,0.5493,,,,,,,,,0.1,,,,,,205.3659,205.6167,206.1825,"[0.028718838201655085,-0.11233688248159439]",4.0,"[-0.10799531110022437,0.10339231530337238]",4.0,"[-0.1640564732889581,-0.052978089310870634]",4.0,"[-0.02735316094071397,-0.114102468213847]",4.0,"[-0.10599916625656497,-0.08287793425218924]",4.0,"[0.10342129181134377,0.0650269119073341]",4.0,"[0.17625247367520472,0.0914588909752951]",4.0,"[-0.009701381530403534,-0.03367726624240277]",4.0,"[0.1714367598941867,-0.07291521699215629]",4.0,"[-0.03950249546998799,-0.1685288721193579]",4.0,"[0.09710892049505075,-0.02606864781979229]",4.0,"[0.05418341042196913,0.05569099242148414]",100.0,"[-0.12708620329674472,-0.020502099823137162]",4.0,"[-0.05829395570563606,0.18821395973417115]",4.0,"[0.012658146939790237,0.15391269036158822]",4.0,"[-0.02283228312726415,0.02509388122172763]",100.0,"[-0.17598063997647953,0.040356590173227326]",4.0,"[-0.12705560277268574,0.02908023551836244]",4.0,"[-0.0549443727180171,-0.01211236219739324]",100.0,"[-0.06172025832390233,0.10711237791520908]",4.0,"[0.14594464704328297,-0.014808921662853563]",4.0,"[-0.15129777346658949,-0.10187836087243421]",4.0,"[0.18861851839323057,-0.023777191186698673]",4.0,"[0.07218946890724617,-0.07593514346612383]",4.0,"[0.04349741223456748,-0.18167966895120607]",4.0,"[-0.06392841132437428,0.030800195581284148]",4.0,"[-0.14606985892062851,0.06948788614849388]",4.0,"[0.14525209429997885,-0.13228804181165243]",4.0,"[0.08901592268588317,-0.16208819235494296]",4.0,"[0.03803993300724678,-0.01808989793949716]",4.0,"[0.08863182289597218,0.1350724946830836]",4.0,"[0.15218318994519697,0.04531524901342206]",4.0,"[0.02,0.02]",207.2809,0.0,11.0,11.0,180.0,1.0,,,,,,,
,,,,,,,66095082185479f7db42d782,6842bb16f23b681be4393394,2025-06-06_10h56.14.377,shape_ratio,2024.1.5,Win32,58.47953216,6842b561977af9ba9b0f87ca,,,,,,,,,,,207.2818,207.7801,,,208.0299,208.463,left,0.4254,,,,,,,,,0.9,,,,,,207.7801,208.0299,208.4631,"[0.05287739410339675,0.16770329526718306]",100.0,"[-0.018527359016973128,0.008061072836310518]",4.0,"[-0.16699253345435386,-0.053725159230626]",100.0,"[0.02541749591932985,-0.06364730721372676]",4.0,"[0.14397104556262644,0.007782705790737176]",100.0,"[-0.16367599189774035,0.03438544234523923]",100.0,"[-0.02849643541874573,0.18781557319406514]",100.0,"[-0.07863701819033155,0.15612479108373017]",100.0,"[-0.13646900277141535,-0.09504543611959647]",100.0,"[0.030529742401723924,-0.14169461605593475]",100.0,"[-0.06653874670555743,-0.12611857068948087]",100.0,"[0.13579433299356433,0.05555547304272372]",4.0,"[-0.13066961105448766,0.07312138294680645]",100.0,"[0.15543243844121232,-0.10028954151279205]",100.0,"[0.022452217843861165,-0.19854114303230835]",100.0,"[-0.05140107596010561,0.057059701732012025]",100.0,"[0.052132764365360414,-0.02804504828760383]",100.0,"[0.00992059736876776,0.14913134218543872]",100.0,"[0.09312491175587731,0.125906469378541]",100.0,"[0.08213716521256273,0.034230499827766]",100.0,"[-0.043397880333414934,-0.05526880728808517]",100.0,"[-0.1412009924118371,-0.009947921993179096]",100.0,"[0.028456550732097078,0.07227010962804087]",100.0,"[-0.04600825307515117,0.12304390570948659]",100.0,"[-0.08352562814693866,-0.0009781272421260253]",100.0,"[-0.11838568416550983,-0.16097882004011202]",100.0,"[0.07511630960023144,-0.15737192271113445]",100.0,"[0.12188688628149505,-0.1547106848781902]",100.0,"[0.15899387352118888,0.11831662910063735]",100.0,"[-0.1106559011825357,-0.043387912110618536]",100.0,"[0.003420748611243434,-0.10315416360692599]",100.0,"[-0.1916948784934286,-0.022172556766875778]",100.0,"[0.02,0.02]",209.5612,0.0,12.0,12.0,3.0,1.0,,,,,,,
,,,,,,,66095082185479f7db42d782,6842bb16f23b681be4393394,2025-06-06_10h56.14.377,shape_ratio,2024.1.5,Win32,58.47953216,6842b561977af9ba9b0f87ca,,,,,,,,,,,209.5617,210.0614,,,210.3118,210.7112,left,0.3875,,,,,,,,,0.5,,,,,,210.0615,210.3117,210.7113,"[0.11333135059791774,0.11794405286530642]",100.0,"[0.17289224043256274,-0.03499323612383806]",4.0,"[-0.07178084719247334,-0.17523707758830231]",4.0,"[-0.051109197095867274,0.19288353035893127]",4.0,"[-0.09717950711846948,0.05135473279683078]",100.0,"[-0.14652271922100338,-0.07640769287425968]",4.0,"[0.18035172815891118,0.06798680571347998]",100.0,"[-0.002784094992325302,0.09808556340192157]",4.0,"[0.10160559452806098,-0.02840346846286777]",4.0,"[0.1387991045450739,-0.12766240466766568]",100.0,"[0.03919066613208726,-0.1450296952465764]",4.0,"[-0.011191517736935663,0.16018500502352856]",100.0,"[-0.061135035475148654,-0.07796394511635346]",4.0,"[-0.013972639679136699,-0.008705939632486639]",100.0,"[0.050143516014595976,0.041904232003514355]",100.0,"[-0.03169527445936641,-0.18399645156293384]",100.0,"[0.11954355846221117,0.05813353584489908]",100.0,"[-0.14636264051627282,0.05442418629195602]",100.0,"[0.0319267337180222,0.1962779587506616]",100.0,"[-0.052944311956459156,0.09391865736107019]",4.0,"[-0.09277883986716333,0.12620410082834596]",4.0,"[-0.04357386844605971,0.05137962248294693]",100.0,"[-0.1944528123743047,0.02660989008130123]",100.0,"[-0.0810853030584184,0.013768520822179844]",4.0,"[-0.09671642623263743,-0.0467758708952378]",4.0,"[0.0978973207737019,-0.10433858764406527]",100.0,"[-0.09904717157298244,-0.09166747057201569]",4.0,"[0.057034068804050216,-0.022799463383333874]",4.0,"[-0.17653901317150425,-0.03370456608313712]",4.0,"[0.09300327845304633,0.16688483073398322]",4.0,"[-0.1410295181929564,0.12091598272518908]",100.0,"[0.007838552004789381,-0.09604165000854871]",100.0,"[0.02,0.02]",211.8093,0.0,13.0,13.0,99.0,1.0,,,,,,,
,,,,,,,66095082185479f7db42d782,6842bb16f23b681be4393394,2025-06-06_10h56.14.377,shape_ratio,2024.1.5,Win32,58.47953216,6842b561977af9ba9b0f87ca,,,,,,,,,,,211.81,212.3091,,,212.5644,212.682,right,0.1011,,,,,,,,,0.45,,,,,,212.3091,212.5643,212.6821,"[0.13796367444377872,0.0077843792663334485]",100.0,"[-0.025689385486364413,0.17283988380275345]",4.0,"[-0.10202440611455502,0.017300260389888397]",4.0,"[-0.14644921504169198,-0.08485444541182624]",4.0,"[-0.0732076988467242,0.047603906919748105]",100.0,"[0.10501985524730961,0.15268520993692894]",100.0,"[-0.15109323824295556,0.026681178579038182]",100.0,"[-0.143319768161331,-0.13231588199597202]",4.0,"[-0.034532859165734564,-0.07164525491066864]",4.0,"[-0.0546698289769703,-0.139267969221126]",4.0,"[0.034369068018979945,-0.17143470965502633]",100.0,"[-0.0840043822888908,-0.019092395191370803]",4.0,"[0.054088525665631784,0.10540057764791266]",4.0,"[-0.09597341711809816,-0.15637858737450938]",100.0,"[-0.014797809129664182,0.008157096987552022]",100.0,"[0.08896636177728784,-0.05717469167447404]",4.0,"[0.1467710615693878,0.06238594311156353]",4.0,"[-0.09233487769926865,0.1760703353356048]",4.0,"[-0.0017916625649814436,-0.14741585262135984]",4.0,"[-0.09522792649207125,0.13049887731530016]",100.0,"[-0.12030003797878902,-0.05088862462490324]",4.0,"[0.02180625158965875,0.04788594477493825]",100.0,"[0.0897377309631565,0.01508889014752939]",100.0,"[0.0450695124044817,-0.02994743439307729]",100.0,"[0.05621350768473238,0.15404788276863882]",100.0,"[0.1658834311465989,0.10395363045204739]",4.0,"[-0.05734592428694051,0.10900263654079795]",100.0,"[0.19081207937329747,-0.03850139043114915]",4.0,"[0.08769139161017506,-0.13026610028247226]",4.0,"[0.016747946335127026,0.12023027884499006]",100.0,"[-0.18940552462665491,-0.03971129855735116]",4.0,"[0.027698314881631134,-0.08294525177215559]",4.0,"[0.02,0.02]",213.775,0.0,14.0,14.0,123.0,1.0,,,,,,,
,,,,,,,66095082185479f7db42d782,6842bb16f23b681be4393394,2025-06-06_10h56.14.377,shape_ratio,2024.1.5,Win32,58.47953216,6842b561977af9ba9b0f87ca,,,,,,,,,,,213.776,214.2743,,,214.5239,214.9233,left,0.3876,,,,,,,,,0.5,,,,,,214.2744,214.5239,214.9234,"[0.10005821269137902,0.0911337494339999]",4.0,"[0.14529774973816562,-0.0752656907464093]",4.0,"[0.06679575926007678,-0.11690551322002378]",4.0,"[-0.09281797908825834,0.1665670929565138]",4.0,"[0.02114101935998411,-0.061022225777851685]",100.0,"[0.06095422811952585,0.1581538334082916]",100.0,"[-0.11157644483673547,0.05036983900349242]",4.0,"[-0.19278147992606706,-0.010456424168961266]",100.0,"[0.054910673191850966,-0.18900304574142654]",4.0,"[-0.0712807047936681,-0.16021151239553202]",100.0,"[-0.14211881467171347,-0.08426045356803717]",4.0,"[-0.06005702443992601,0.12053692320398626]",4.0,"[-0.042035387349387554,0.19362760312359328]",4.0,"[0.0691766765405404,0.049533424691820635]",100.0,"[0.006814582936495865,0.014693995832709621]",100.0,"[-0.05042733726356579,0.050186374974867866]",4.0,"[-0.0006198986787791319,-0.10633812688191921]",100.0,"[0.0791389644945347,-0.05192014664513037]",100.0,"[-0.10517670909936437,-0.044951935603701726]",4.0,"[-0.1826403068411532,0.06306206951040326]",100.0,"[0.024358844243486426,0.19695783193799682]",100.0,"[0.12328615230249096,0.05591908450958525]",100.0,"[0.12925658158233128,-0.029211870481427947]",4.0,"[-0.05699360255422294,0.004917989121778781]",100.0,"[-0.027153093918031782,-0.18058293304980558]",100.0,"[0.013048223171997591,-0.19714327807210397]",100.0,"[-0.15204316078797014,0.11508518764467764]",100.0,"[-0.10522039364504658,-0.0006926135158849821]",4.0,"[-0.108696014739216,0.10212590377191666]",4.0,"[0.04271524184216164,0.12245961100163157]",4.0,"[0.015079408179669037,0.08471101899164059]",4.0,"[0.11201820411905557,-0.13535500752233462]",100.0,"[0.02,0.02]",216.022,0.0,15.0,15.0,93.0,1.0,,,,,,,
,,,,,,,66095082185479f7db42d782,6842bb16f23b681be4393394,2025-06-06_10h56.14.377,shape_ratio,2024.1.5,Win32,58.47953216,6842b561977af9ba9b0f87ca,,,,,,,,,,,216.0231,216.5215,,,216.7725,217.188,left,0.4069,,,,,,,,,0.6,,,,,,216.5217,216.7724,217.188,"[0.1650004941163084,0.05656665176986552]",100.0,"[0.027756397561573772,-0.0857415953035318]",100.0,"[0.10526578471217563,-0.03009528897637244]",100.0,"[0.038610448248157354,0.025995028991383097]",100.0,"[0.012812308400782521,-0.016787112219118307]",100.0,"[-0.07297222369258234,-0.04194243544765718]",4.0,"[-0.006530784840578426,0.155833039618663]",100.0,"[-0.12647082910884833,-0.05085966267321052]",100.0,"[0.18063865432663484,-0.07962042868197515]",4.0,"[0.13373844848035873,0.1458623610805478]",4.0,"[0.006247105009396217,-0.1782246849918342]",100.0,"[-0.16930404701727284,-0.052243380971491435]",4.0,"[0.046374777901202154,0.11410142289669348]",4.0,"[-0.12829399337718064,0.14923475511155787]",100.0,"[0.09365615963484772,0.01883597091353333]",100.0,"[-0.08109156334723493,0.10089756091995408]",4.0,"[-0.07412720962056239,-0.17808680512873337]",100.0,"[0.12067431628059429,0.05183309579378752]",4.0,"[0.1515619325543285,-0.034429954637544204]",100.0,"[-0.04022132775978887,0.07927452283675694]",4.0,"[-0.07413027682250899,0.057907533491728384]",100.0,"[-0.01474828230998576,-0.13802644066303116]",100.0,"[0.05700029143604911,-0.12991859356839106]",100.0,"[0.03677441422713126,0.18161153073427166]",4.0,"[-0.0641619946044215,-0.10597773806507596]",100.0,"[-0.15691402705696494,-0.005208820157134764]",100.0,"[0.08903029406371005,-0.1550966583417679]",4.0,"[0.05999057373443903,-0.03425427888572981]",100.0,"[-0.04634414504617968,0.023752243398281234]",4.0,"[-0.13396474728306612,-0.10628245836217776]",4.0,"[-0.046343464529178674,0.17099849619935395]",100.0,"[0.07713097034653006,0.08283102297617813]",4.0,"[0.02,0.02]",218.2869,0.0,16.0,16.0,41.0,1.0,,,,,,,
,,,,,,,66095082185479f7db42d782,6842bb16f23b681be4393394,2025-06-06_10h56.14.377,shape_ratio,2024.1.5,Win32,58.47953216,6842b561977af9ba9b0f87ca,,,,,,,,,,,218.2878,218.7862,,,219.0362,219.5687,left,0.5245,,,,,,,,,0.4,,,,,,218.7863,219.0361,219.5688,"[-0.06796729552148896,0.1579442100579704]",4.0,"[-0.05243755321918038,-0.035617411253813944]",4.0,"[0.010124186004227879,-0.016161428749294767]",100.0,"[0.12258138898322224,0.12066275445213268]",100.0,"[0.09361310687354431,0.07070976459676744]",4.0,"[-0.0072753751858347015,0.16081531592641476]",100.0,"[0.04542936075117764,0.18693411540289348]",4.0,"[-0.18105594795554877,-0.04064727943372337]",4.0,"[-0.06607635188507952,0.083726606187308]",100.0,"[-0.12320223835634293,0.14279639081918585]",4.0,"[0.05137056968362655,-0.12719194245375176]",4.0,"[0.15721318964142228,-0.04043564833435019]",100.0,"[0.17621393920636733,0.020789890299284946]",100.0,"[-0.178658015466271,0.06006071603794618]",4.0,"[-0.012037140800998788,0.01928081904317757]",4.0,"[-0.05806512849920454,0.0051109078483110755]",4.0,"[0.029548847028071888,0.12061326581768564]",100.0,"[-0.07498160408960804,-0.12101226862928079]",100.0,"[-0.027045121523548436,-0.06694961824902852]",4.0,"[-0.03395572721301928,-0.1851084537413955]",4.0,"[-0.028589994140261008,0.09956456876364174]",4.0,"[0.020649598578098716,0.07050801424627684]",4.0,"[-0.12449985099659606,-0.09260240869912714]",4.0,"[0.18046037495517267,-0.07313139284779294]",100.0,"[-0.17137037859617826,-0.08262819518777399]",100.0,"[-0.11477159342548394,-0.00043693842025617697]",100.0,"[0.15573878386968523,0.08334855192717236]",4.0,"[0.013761674905973987,-0.17585884197478108]",4.0,"[0.1247296628806235,-0.08271146170148709]",4.0,"[-0.19231145002873712,-0.0008720622006852756]",4.0,"[-0.09729382288016547,0.11227738815662931]",100.0,"[0.09830622432243291,-0.02408292069137385]",100.0,"[0.02,0.02]",220.6673,0.0,17.0,17.0,169.0,1.0,,,,,,,
,,,,,,,66095082185479f7db42d782,6842bb16f23b681be4393394,2025-06-06_10h56.14.377,shape_ratio,2024.1.5,Win32,58.47953216,6842b561977af9ba9b0f87ca,,,,,,,,,,,220.6683,221.1676,,,221.422,221.9171,right,0.4689,,,,,,,,,0.45,,,,,,221.1677,221.4219,221.9172,"[-0.06326674730035249,-0.04422556565586268]",4.0,"[-0.013704467072120516,-0.17075831171327588]",100.0,"[-0.12399094625046225,-0.08433114026070684]",100.0,"[-0.10000817795626318,0.0022538506756796584]",4.0,"[-0.00036440809480483075,0.035856892764940675]",4.0,"[0.09238682712213588,-0.09383310492793251]",100.0,"[-0.0777800884006576,0.10811633803893608]",4.0,"[0.1741903902972356,0.0804305469450851]",4.0,"[-0.14609691121880683,0.0478136666912205]",4.0,"[0.08192222654624313,0.08305552396327091]",4.0,"[0.0712481023682416,-0.04905031164556409]",4.0,"[0.08297228367739244,0.005603801436129949]",4.0,"[0.030381338359563977,0.07981948616704213]",100.0,"[-0.17644420082567622,0.08773460797904789]",100.0,"[0.04514373876483309,0.12831908912517848]",4.0,"[0.03355498646888757,0.19422532075816745]",100.0,"[0.04533025021485769,-0.12886903342292277]",4.0,"[0.003142042000262563,-0.13353488602591737]",100.0,"[-0.07626659475815566,-0.09099070577333868]",100.0,"[0.14748031149033952,-0.05470153343730549]",100.0,"[-0.12148729340941722,0.10622274277060757]",100.0,"[-0.001802522816157475,0.14604927105523507]",100.0,"[-0.07453660946521737,0.06788846186963766]",4.0,"[0.08326320028796179,0.16926785410684297]",100.0,"[0.12469877027538039,-0.12526922071230345]",4.0,"[0.12406686568259748,0.1561496153791454]",4.0,"[0.1277577326148945,0.05951500289715454]",100.0,"[0.012913592986803233,-0.04863359878887305]",4.0,"[-0.15185289026698384,-0.11665749730216603]",4.0,"[0.04398501798054225,-0.18967522993272815]",4.0,"[-0.059986198692713044,0.01696404297875313]",4.0,"[-0.16930383121334455,-0.04552727791445534]",100.0,"[0.02,0.02]",223.0158,0.0,18.0,18.0,148.0,1.0,,,,,,,
,,,,,,,66095082185479f7db42d782,6842bb16f23b681be4393394,2025-06-06_10h56.14.377,shape_ratio,2024.1.5,Win32,58.47953216,6842b561977af9ba9b0f87ca,,,,,,,,,,,223.0168,223.515,,,223.7656,223.8315,left,0.0481,,,,,,,,,0.6,,,,,,223.5151,223.7655,223.8316,"[0.17811668428563268,-0.05465907488992503]",100.0,"[-0.060529033912823826,-0.04280514559107156]",4.0,"[0.05144550139752347,-0.1442040878702524]",100.0,"[0.11573105987778637,-0.0729801715053719]",100.0,"[-0.1278297260203256,0.047229719205200256]",100.0,"[0.015274657306367343,0.022973856390225075]",100.0,"[-0.043584454013967835,0.048131963372703826]",4.0,"[-0.16466491388365165,-0.03389235113528065]",4.0,"[-0.047983265230310886,0.17621892493246077]",100.0,"[-0.1023963679118322,-0.14240002681150712]",100.0,"[0.19886136995102976,-0.007050721269445707]",4.0,"[0.03756032242619844,-0.10065038506392066]",100.0,"[0.12444383107935322,0.08244018417981919]",4.0,"[0.04031304123727382,-0.18647612990335072]",100.0,"[0.014739581511774857,0.10892274696115163]",4.0,"[-0.18489946614744476,0.07481898346382569]",100.0,"[-0.08414126380761333,-0.17824088669249133]",100.0,"[0.16245420304404434,0.01231726798451239]",4.0,"[0.09331473176590355,0.03901862961382029]",4.0,"[0.1007923392738323,0.15701742988159267]",100.0,"[0.006527485525802505,-0.07354767901565956]",100.0,"[-0.13825139028884248,-0.08692372647934993]",4.0,"[0.05533286009760852,0.17852176225538743]",100.0,"[-0.08926357435589512,0.1671934856173303]",4.0,"[-0.028101010772549742,0.08867591583094042]",100.0,"[-0.07873877312873732,0.010330532512076388]",4.0,"[0.08865092008085923,0.11203825563783211]",100.0,"[0.04261030563030875,-0.03512669337965301]",4.0,"[0.17605678103854164,0.0937570387265666]",100.0,"[0.10985185907148455,-0.1393414493961051]",100.0,"[0.13726605909940007,-0.038713889457395026]",100.0,"[-0.1079441318782786,-0.02882819349785475]",4.0,"[0.02,0.02]",224.9294,0.0,19.0,19.0,30.0,1.0,,,,,,,
,,,,,,,66095082185479f7db42d782,6842bb16f23b681be4393394,2025-06-06_10h56.14.377,shape_ratio,2024.1.5,Win32,58.47953216,6842b561977af9ba9b0f87ca,,,,,,,,,,,224.9298,225.4288,,,225.679,226.0287,left,0.3349,,,,,,,,,0.1,,,,,,225.4289,225.679,226.0287,"[-0.07219063744546647,-0.12258144234330207]",100.0,"[0.012128527167062688,0.18538093440799552]",4.0,"[0.01346539251029341,-0.12003869643972277]",4.0,"[0.0681557643909342,0.13651227125042856]",4.0,"[-0.03700625651804741,-0.06739325734677666]",4.0,"[0.14421585066558126,-0.11564319013748604]",4.0,"[0.029684392915258293,-0.021923219081164427]",4.0,"[0.13069985191404704,0.030981031645001544]",4.0,"[0.16144460280878334,0.061750786423275236]",4.0,"[-0.14027228997265642,-0.057622720993466846]",4.0,"[-0.036753199717158645,0.12800366530863683]",4.0,"[-0.011849945897456771,-0.018803782182060896]",4.0,"[-0.10230953299822448,-0.15463148180378763]",4.0,"[0.13052305147343932,-0.0402011664202416]",4.0,"[-0.08145464981573573,0.09025786991806012]",4.0,"[0.03784459582515575,-0.08046653576829862]",4.0,"[0.18545510276191915,-0.07358324149618008]",4.0,"[-0.18629075168146544,-0.016428360953983423]",100.0,"[0.03870691482467145,0.02625766863729472]",4.0,"[-0.08523736138783711,0.13127912308606807]",4.0,"[0.022477501126516156,0.13636705063550633]",4.0,"[-0.15198171255902604,0.08819271497988206]",4.0,"[-0.13454179468484037,0.05201370924419547]",4.0,"[0.13957429468317878,0.1122481774495916]",4.0,"[-0.06441955328078804,-0.018444669905880597]",4.0,"[0.056184714119205545,-0.13688649067638625]",4.0,"[-0.019123875725860242,-0.19853599024860102]",4.0,"[0.1125413785340938,-0.08004105996823484]",100.0,"[0.08010768051819549,-0.04954218711105768]",4.0,"[-0.10016614118522843,-0.05871896384129823]",4.0,"[-0.18821483307389233,0.06491872554856587]",4.0,"[0.014921704697716493,0.07773903698033909]",4.0,"[0.02,0.02]",227.1273,0.0,20.0,20.0,191.0,1.0,,,,,,,
,,,,,,,66095082185479f7db42d782,6842bb16f23b681be4393394,2025-06-06_10h56.14.377,shape_ratio,2024.1.5,Win32,58.47953216,6842b561977af9ba9b0f87ca,,,,,,,,,,,227.1278,227.6269,,,227.8769,228.1931,right,0.3069,,,,,,,,,0.4,,,,,,227.6269,227.8769,228.1931,"[-0.09747549426326071,0.1381209718949047]",4.0,"[-0.08636766383828967,-0.1757419407036523]",4.0,"[-0.10343286160565154,-0.13597262290376905]",4.0,"[-0.15088727038088937,-0.016676942702999704]",4.0,"[0.11820633701848338,-0.009209440254102915]",4.0,"[0.10151074642796538,-0.06990096387747616]",4.0,"[0.04431202578242213,-0.027726476189424414]",100.0,"[0.06805411489501013,-0.16361807169400072]",4.0,"[0.177519979729337,0.09010179229007093]",100.0,"[0.1599231640018594,0.006146264686514175]",100.0,"[0.025596814259112734,-0.12233426554418408]",4.0,"[0.07571291712195807,-0.12246691749347803]",4.0,"[0.08951791972660517,0.1188941269142256]",4.0,"[0.03361603191848445,-0.07632120084058475]",4.0,"[-0.007283640765890294,0.1420581908563635]",100.0,"[0.12865093893091287,0.035729406098591265]",100.0,"[-0.13826905632611203,0.10007314289482971]",100.0,"[0.12239588029448623,-0.10753359249493628]",4.0,"[-0.005476473654388904,-0.06161287364117928]",4.0,"[0.0023725960760685306,0.005438633353862909]",100.0,"[-0.18659255497195182,-0.04772833216760288]",100.0,"[-0.015728396997875992,0.07155097275902213]",4.0,"[0.05633967395981928,0.1548318231352768]",4.0,"[-0.15567782726647716,0.04476575112314377]",4.0,"[-0.10635433622729244,-0.047894677621219656]",4.0,"[0.05995080526312913,0.07394905588375685]",100.0,"[-0.1606782893236531,-0.10124447017984718]",100.0,"[-0.07311684833854439,0.04259170127360264]",4.0,"[-0.07661244030610148,0.10372713501470249]",100.0,"[-0.041561440709363844,0.004327403883179687]",4.0,"[-0.043061003597352404,-0.13963816666111634]",100.0,"[0.17302299877691024,-0.0969526989115632]",100.0,"[0.02,0.02]",229.2812,0.0,21.0,21.0,178.0,1.0,,,,,,,
,,,,,,,66095082185479f7db42d782,6842bb16f23b681be4393394,2025-06-06_10h56.14.377,shape_ratio,2024.1.5,Win32,58.47953216,6842b561977af9ba9b0f87ca,,,,,,,,,,,229.2816,229.7806,,,230.0296,230.6424,left,0.5852,,,,,,,,,0.6,,,,,,229.7807,230.0295,230.6425,"[0.12877606633028393,0.0163871301637337]",100.0,"[0.054562454308447514,0.12579722915175612]",4.0,"[0.19578829187270225,-0.02468176816352887]",4.0,"[-0.15946025282561216,0.012788165054343062]",100.0,"[-0.1294853281436233,0.058410394696433846]",100.0,"[-0.07500890412378132,-0.1837594954969862]",100.0,"[0.17998550207532757,0.07858821911123846]",100.0,"[0.04162347030562314,-0.13875367249378626]",100.0,"[0.11725063543784123,0.13299093399073536]",4.0,"[-0.11118040894671316,-0.013377956459559321]",100.0,"[-0.0773743197269917,0.09737645047491528]",4.0,"[0.008871383090123619,0.12091351722234547]",4.0,"[0.09519461505299481,-0.0613667150320389]",100.0,"[-0.12347292404370862,-0.11780905550101348]",100.0,"[0.03556216310684386,-0.06689175194662633]",100.0,"[0.18147441601648484,0.01965440567974793]",100.0,"[-0.0036305870844545018,-0.07846795669046168]",4.0,"[0.1488727038494708,-0.11924675699992397]",100.0,"[-0.13526425553799262,0.10942263715019152]",100.0,"[-0.026168258036116766,-0.13263343222753263]",100.0,"[0.026445741215448293,0.15861087766075474]",100.0,"[-0.062124762584302474,-0.016881772048464333]",4.0,"[-0.17879566713249676,0.06651505830918719]",100.0,"[0.05765940160386498,0.009670411748993584]",100.0,"[-0.023398695508330278,0.08987455965635192]",4.0,"[0.07941447245244249,-0.16381969870588034]",4.0,"[0.03146226930621393,-0.18055568577907977]",4.0,"[0.18701618285498117,-0.06482525944918434]",4.0,"[-0.17268677663677182,-0.06930859450007187]",4.0,"[0.14171776068129338,-0.024585651518961305]",100.0,"[-0.09429345433569719,-0.1473578156272586]",4.0,"[0.007982741706360808,0.02448989508513973]",100.0,"[0.02,0.02]",231.7404,0.0,22.0,22.0,43.0,1.0,,,,,,,
,,,,,,,66095082185479f7db42d782,6842bb16f23b681be4393394,2025-06-06_10h56.14.377,shape_ratio,2024.1.5,Win32,58.47953216,6842b561977af9ba9b0f87ca,,,,,,,,,,,231.7414,232.2398,,,232.4899,232.9393,left,0.4382,,,,,,,,,0.45,,,,,,232.2399,232.4898,232.9393,"[0.10434830726976255,0.13349545814982583]",100.0,"[0.046544335557176034,-0.07170795227596491]",4.0,"[0.02007596802712382,0.03534477672331017]",4.0,"[0.10277058133457434,-0.07611507176207703]",100.0,"[-0.002959428113381456,-0.12531030636636087]",100.0,"[0.1648846042583172,0.02341431138489474]",4.0,"[0.13014034998688206,0.061108840742893085]",100.0,"[-0.11423950765374666,0.09366532598312648]",100.0,"[0.10839220511255766,-0.13940850420958684]",4.0,"[0.1296943657551748,-0.022278904010075307]",4.0,"[0.05090599949736151,-0.1572023572989056]",4.0,"[-0.043454399397486625,-0.03144996809139585]",100.0,"[0.05562344621202519,0.05682979099754496]",4.0,"[-0.10308174357647686,-0.049079624172752315]",4.0,"[-0.12678196347263634,-0.10702905155300647]",4.0,"[0.02522190374611224,0.1365356212406949]",4.0,"[0.050389257957533164,0.17936551596477923]",4.0,"[0.0740751789333648,-0.014522024330600515]",100.0,"[-0.05062112206115571,-0.18808751441746754]",4.0,"[0.14770708709548228,-0.10548257899340065]",100.0,"[-0.07068643714868869,-0.09727976524891359]",100.0,"[-0.07505386174307202,0.1151527225337637]",100.0,"[-0.02190435083456922,-0.08100239996965695]",4.0,"[-0.11010812731620946,-0.0027396603013454426]",4.0,"[-0.17286900626462406,-0.02244683281192424]",4.0,"[-0.17817167274221443,0.08358959571396016]",100.0,"[-0.09078879294025279,0.035216561377023795]",4.0,"[0.005730473463936805,0.08207095489765658]",100.0,"[-0.07054515809812602,0.070659887819315]",4.0,"[0.014685235938336389,-0.010821968697685824]",100.0,"[-0.12972163647594245,0.05199805665438656]",100.0,"[-0.06994634937081608,0.18351347828745265]",4.0,"[0.02,0.02]",234.038,0.0,23.0,23.0,126.0,1.0,,,,,,,
,,,,,,,66095082185479f7db42d782,6842bb16f23b681be4393394,2025-06-06_10h56.14.377,shape_ratio,2024.1.5,Win32,58.47953216,6842b561977af9ba9b0f87ca,,,,,,,,,,,234.0387,234.5371,,,234.7926,235.3535,right,0.5355,,,,,,,,,0.9,,,,,,234.5372,234.7925,235.3536,"[-0.11843554199498892,-0.1040760214965618]",100.0,"[0.1139203169050202,0.06039778094420829]",100.0,"[-0.05646085994260268,-0.0837765440305802]",100.0,"[0.11601617738290235,-0.08696141003010026]",100.0,"[-0.0040680197289652345,0.11775565258281151]",100.0,"[-0.13489980662861964,0.025181549798772962]",100.0,"[0.1095480984005557,-0.14642903629689943]",100.0,"[0.036215382916216954,-0.1652689713852533]",100.0,"[-0.04419671996592443,0.1211019577088238]",100.0,"[-0.034759557285242826,-0.027852294327741188]",4.0,"[0.06907737258017715,0.10494172629427481]",100.0,"[0.16195208109176604,0.054723270268298124]",100.0,"[-0.06815062878707401,-0.1262050572019732]",100.0,"[-0.01907124010557433,0.07333566024149905]",100.0,"[0.021012250001705552,0.03744318549786026]",100.0,"[0.034386875422912494,0.19623864402305416]",100.0,"[0.004632717115027645,-0.04581623397963606]",100.0,"[-0.06240988329331169,0.017990725778808368]",100.0,"[0.17954013215038664,-0.031578984203506334]",100.0,"[0.07475134027213631,0.04327671768956318]",4.0,"[-0.03153241487849086,-0.16156857208333783]",100.0,"[-0.16466201108306913,0.10764925146731442]",100.0,"[-0.10022730161281732,0.08292004604845243]",100.0,"[0.1622245703151348,0.008081890254428022]",100.0,"[-0.17182695019380123,-0.0440271422192191]",100.0,"[0.08575731892951463,-0.019674579256892664]",100.0,"[-0.09156220883342482,-0.16801015482189754]",100.0,"[0.08144314659926108,-0.10820621401219829]",100.0,"[-0.11677446328002596,-0.02192150679126192]",100.0,"[0.06195011420286258,-0.05407676852486114]",100.0,"[-0.11000468601240435,0.1509516038432004]",4.0,"[-0.18706181895880158,-0.006457862895561613]",100.0,"[0.02,0.02]",236.4526,0.0,24.0,24.0,21.0,1.0,,,,,,,
,,,,,,,66095082185479f7db42d782,6842bb16f23b681be4393394,2025-06-06_10h56.14.377,shape_ratio,2024.1.5,Win32,58.47953216,6842b561977af9ba9b0f87ca,,,,,,,,,,,236.4535,236.9528,,,237.2076,237.752,left,0.5221,,,,,,,,,0.5,,,,,,236.9528,237.2074,237.7522,"[-0.018873923700116656,-0.19055230351564667]",100.0,"[0.00039046173707899223,-0.08811222620069302]",4.0,"[0.02370872251303423,0.13679336498528988]",4.0,"[0.16604322395582985,0.07501540523024205]",4.0,"[0.0687817988530721,0.0668736010504175]",4.0,"[0.1368207608707775,-0.0810974338871306]",4.0,"[-0.011631790176527986,-0.15085572906873745]",100.0,"[0.05836353790167818,0.16559389060574933]",100.0,"[-0.11733382049202808,0.0807947175949749]",4.0,"[-0.1383152951732046,-0.09941035787981412]",100.0,"[-0.010618708273379213,0.1973242687328497]",4.0,"[0.15553375794589042,0.02086694978400213]",100.0,"[0.1249295582218603,-0.03634847045145409]",100.0,"[-0.11762309699979855,0.02376666133721657]",4.0,"[-0.06211613949424307,-0.1287618966799255]",100.0,"[-0.18699703849232696,0.0386040110312702]",4.0,"[-0.04488741786846902,0.09652585061886682]",100.0,"[-0.09727988712179383,-0.1034314152259197]",4.0,"[-0.042409879965722354,-0.0158765538804501]",4.0,"[0.062203751745811595,-0.1594563011104851]",4.0,"[0.09215283518990916,-0.10578687697375724]",100.0,"[-0.04145541102685499,0.026359010527858575]",100.0,"[-0.18509355773032324,-0.06707091718950547]",100.0,"[-0.0550121746093044,-0.16832292789655937]",100.0,"[0.10363376683078518,-0.15522561299975768]",4.0,"[0.08628031594650237,0.02053882588121441]",100.0,"[0.08280939986326172,-0.03206852475509919]",4.0,"[-0.05620738821762616,0.18483878797951125]",100.0,"[0.008519146403125096,0.0760044867839938]",4.0,"[0.12039442228847055,0.06977423403825252]",100.0,"[0.04315700332399713,-0.04206061980202473]",4.0,"[0.03484965602273898,-0.0017038596513618083]",100.0,"[0.02,0.02]",238.8507,0.0,25.0,25.0,111.0,1.0,,,,,,,
,,,,,,,66095082185479f7db42d782,6842bb16f23b681be4393394,2025-06-06_10h56.14.377,shape_ratio,2024.1.5,Win32,58.47953216,6842b561977af9ba9b0f87ca,,,,,,,,,,,238.8516,239.3497,,,239.6002,239.9997,left,0.3702,,,,,,,,,0.1,,,,,,239.3499,239.6001,239.9999,"[-0.08092478455264063,-0.14910292554060753]",4.0,"[0.14473914501569535,0.03149878072692457]",4.0,"[0.015154644841601804,-0.07172759405452815]",4.0,"[0.18155118960703232,-0.0008463872016871292]",4.0,"[0.04650227201232204,-0.04499793016696432]",4.0,"[-0.023324771011861336,0.02183108625466389]",4.0,"[-0.18021163202143523,0.0615264216097014]",4.0,"[0.04846714324402416,0.011806144340951627]",4.0,"[-0.09313982798498834,0.1680303937157872]",4.0,"[0.06002918927019919,0.13265998207343993]",4.0,"[0.1011400999406419,0.16936306729804773]",4.0,"[-0.09135337841620025,0.06696851442323189]",4.0,"[0.044358406588318015,-0.11177666997851933]",4.0,"[-0.06645913020523365,-0.01118147618298914]",4.0,"[-0.01023820656842054,0.1742819995116979]",4.0,"[-0.15485823812913274,-0.05535513796303384]",4.0,"[0.12998153266807488,-0.07000634122356111]",4.0,"[-0.11300820107677727,-0.05681281613167122]",4.0,"[-0.06028740652319443,0.13117629352725302]",4.0,"[0.09819800486563739,-0.14387194512045662]",100.0,"[0.038608481942759315,-0.1553387755626145]",4.0,"[0.12792905025763754,0.0735822411711658]",4.0,"[0.05248430727344628,0.07300370537575024]",4.0,"[0.04303567523193205,0.18903846026066948]",4.0,"[-0.08697370525500273,0.024030098497787984]",4.0,"[0.13242628666649686,-0.026464679229238973]",4.0,"[-0.03786136363829208,0.0931060961609497]",100.0,"[-0.14907956936432842,0.006162026340140268]",100.0,"[0.12408669379914067,0.11955195458657673]",4.0,"[0.10002468367476718,-0.09773049411820323]",4.0,"[-0.05307579473612042,-0.09998715538862475]",4.0,"[-0.0453056889642681,-0.18430901738866567]",4.0,"[0.02,0.02]",241.0986,0.0,26.0,26.0,199.0,1.0,,,,,,,
,,,,,,,66095082185479f7db42d782,6842bb16f23b681be4393394,2025-06-06_10h56.14.377,shape_ratio,2024.1.5,Win32,58.47953216,6842b561977af9ba9b0f87ca,,,,,,,,,,,241.1002,241.5974,,,241.8484,242.364,right,0.4862,,,,,,,,,0.9,,,,,,241.5976,241.8483,242.3641,"[0.012584900929351828,-0.15475903350420755]",4.0,"[-0.08208606129852568,0.05438339313205672]",100.0,"[0.05575576053968363,-0.0013365298732475029]",100.0,"[0.13189596765784925,-0.07422923158599143]",100.0,"[-0.07024291002453294,-0.10984180257675892]",100.0,"[-0.1380926401013335,-0.05362804665312231]",4.0,"[0.09302461575709768,-0.04712904172197288]",100.0,"[-0.04885007330981811,0.19196590543346836]",100.0,"[-0.07492308827356994,-0.012186462849284554]",100.0,"[0.06742047901715698,0.056453933981260744]",100.0,"[-0.09939210554785093,0.14707711030399226]",100.0,"[-0.11948781437184691,-0.11013502573801251]",100.0,"[0.0369010255913085,0.1374976095694838]",100.0,"[-0.03627619703796234,-0.18709614849030198]",100.0,"[-0.004169397270401747,0.06315493284261021]",100.0,"[-0.02212163976696691,-0.05322349030531201]",100.0,"[0.15426655661956212,-0.02733163364077121]",100.0,"[-0.0023285553231972896,-0.09054264947141516]",100.0,"[-0.005487303825220983,0.16319522672426964]",100.0,"[0.07777998608373039,0.18104886351387323]",100.0,"[-0.14801175590441756,0.06098104021210439]",100.0,"[0.09276737971831726,-0.158555485968275]",100.0,"[-0.11499154150314607,0.02831457161749391]",100.0,"[0.038021187780533316,-0.19422866142515335]",100.0,"[-0.1685535903818389,-0.011868916806224733]",100.0,"[-0.007619875234100372,0.1198969842941842]",4.0,"[0.11714511341812128,0.14458667387858892]",100.0,"[0.17272926714759626,0.06022298251612652]",100.0,"[0.12453796302902052,0.061853226017701976]",100.0,"[-0.1141064167193992,-0.1551221570487204]",100.0,"[0.09140712211700557,-0.10641993730813827]",100.0,"[0.14419246748554818,0.10254986109711504]",100.0,"[0.02,0.02]",243.4625,0.0,27.0,27.0,14.0,1.0,,,,,,,
,,,,,,,66095082185479f7db42d782,6842bb16f23b681be4393394,2025-06-06_10h56.14.377,shape_ratio,2024.1.5,Win32,58.47953216,6842b561977af9ba9b0f87ca,,,,,,,,,,,243.4636,243.9614,,,244.2172,244.6011,left,0.3675,,,,,,,,,0.6,,,,,,243.9615,244.2172,244.6013,"[-0.1283396547836562,0.09812849907988987]",100.0,"[-0.029395155165525527,-0.1946313257995613]",100.0,"[-0.029223019368707137,0.007987746995901225]",4.0,"[-0.02047320938722475,0.08422820834938416]",100.0,"[-0.09391884027278212,0.0044152341849861875]",100.0,"[0.04236570236151008,-0.16158598167008698]",4.0,"[-0.03191129534528438,0.16931243915317473]",4.0,"[-0.03815068677565456,-0.09462554295516848]",4.0,"[0.1384482848060452,0.1362535201617749]",100.0,"[0.06730494450845502,0.020396532153326995]",100.0,"[0.09742096293739277,-0.0714880160631932]",100.0,"[0.12634925388206125,-0.0270970379211755]",100.0,"[-0.08347497642339705,-0.07734653235460769]",4.0,"[-0.07869083935465902,-0.1455123645881711]",100.0,"[0.12785036784495876,-0.09786054035249539]",100.0,"[0.16885058849426546,-0.025040719015490244]",100.0,"[0.034989159836217865,0.1774768824554646]",4.0,"[-0.17277307249825083,0.0985790929637123]",100.0,"[0.006864114919165057,0.1228807868031904]",100.0,"[0.10139689815532307,-0.14868141969659165]",4.0,"[0.0627067511823053,-0.03768511718989471]",4.0,"[-0.011901167732624885,-0.1485201241916095]",4.0,"[-0.0798045258070995,0.07886356659588775]",100.0,"[-0.07927377042336815,0.16219571500423177]",100.0,"[-0.12375976696024606,-0.06819363499209843]",4.0,"[-0.17606154338018562,-0.0627350914378361]",4.0,"[-0.1686995336531517,0.024663986910430938]",4.0,"[0.13565411339426298,0.06585412317096262]",100.0,"[0.17748145009958075,0.08451475855944762]",100.0,"[0.01751664962374657,-0.08642193187770286]",100.0,"[0.07211379245294608,0.14243249099108357]",100.0,"[-0.14850491372395586,-0.11276938255892975]",4.0,"[0.02,0.02]",245.6932,0.0,28.0,28.0,53.0,1.0,,,,,,,
,,,,,,,66095082185479f7db42d782,6842bb16f23b681be4393394,2025-06-06_10h56.14.377,shape_ratio,2024.1.5,Win32,58.47953216,6842b561977af9ba9b0f87ca,,,,,,,,,,,245.6941,246.1929,,,246.4427,246.9422,right,0.4889,,,,,,,,,0.55,,,,,,246.1931,246.4426,246.9423,"[-0.07076860411372336,0.04550932309374935]",100.0,"[-0.009191272856564353,-0.19337302456909156]",100.0,"[0.1492579474401398,0.01727483429559464]",4.0,"[-0.05463451465133217,-0.14108744211801014]",100.0,"[-0.033089789534322685,0.13436543639115775]",100.0,"[-0.07434216596547162,-0.04757227397841532]",100.0,"[-0.12667392425914098,0.09045932872195483]",4.0,"[-0.033536389801345816,-0.0004142074344965049]",100.0,"[0.03639087303855868,-0.011794318772404933]",4.0,"[0.06826677330263078,-0.05008385871230632]",100.0,"[0.10022890428097486,0.11142243601291918]",4.0,"[0.14784673238832186,-0.08428103853964043]",4.0,"[0.0648261157870605,-0.11520925010960202]",100.0,"[-0.13743497726426146,-0.10726507802879298]",4.0,"[0.09746643628109328,0.0310723651182604]",100.0,"[-0.10204994382590503,0.13302222058234733]",4.0,"[0.05372891385288373,0.06328483138519037]",100.0,"[-0.027550554967528958,0.05522804456530527]",100.0,"[0.13469158322453686,-0.04074737018441909]",100.0,"[-0.016245985398156918,-0.07158901936022535]",4.0,"[-0.1143305207855001,-0.029125103360001743]",100.0,"[0.01649166705247128,-0.13126269542194877]",4.0,"[0.08034065464092525,-0.18307156152067705]",100.0,"[-0.11191610027568427,0.01836779267019526]",4.0,"[-0.18987565200793227,0.0510599202801431]",4.0,"[0.015162354297125187,0.0794877479865827]",100.0,"[-0.12344429206832119,-0.06916269522110008]",4.0,"[-0.04622701475588151,0.17608195667621754]",4.0,"[-0.0779207769103053,0.10059753762186972]",4.0,"[0.040826001056523946,0.14407912231792502]",100.0,"[0.176963521724176,0.05049296352644835]",100.0,"[0.07931372580127506,0.15548546924176695]",100.0,"[0.02,0.02]",248.041,0.0,29.0,29.0,89.0,1.0,,,,,,,
,,,,,,,66095082185479f7db42d782,6842bb16f23b681be4393394,2025-06-06_10h56.14.377,shape_ratio,2024.1.5,Win32,58.47953216,6842b561977af9ba9b0f87ca,,,,,,,,,,,248.0418,248.5401,,,248.7793,249.2768,left,0.4709,,,,,,,,,0.6,,,,,,248.5402,248.7792,249.2768,"[-0.10390957440324744,-0.015997547064294723]",4.0,"[0.04452454860833404,-0.02477092413774587]",100.0,"[0.048608445281654956,0.16625271950550896]",4.0,"[-0.08260834655257446,0.1691542612256806]",4.0,"[0.14950090622356985,-0.09775269926341172]",100.0,"[-0.06980201639627956,-0.15750457217883443]",4.0,"[0.14754496277374685,-0.046572107734672706]",100.0,"[-0.1337095819674426,0.08953828181123674]",4.0,"[0.12365368317322449,0.04107563007660747]",100.0,"[0.10633306020976936,-0.01956707902047]",4.0,"[0.09382449859755478,-0.1470609562596245]",100.0,"[-0.04165596091485242,0.1676409878080517]",4.0,"[-0.024508652387461628,0.017864084644637263]",100.0,"[0.014227586475175776,-0.15057943817884553]",100.0,"[-0.005290371362976963,0.05981530057337996]",100.0,"[-0.03176009115702432,-0.06355412587289852]",100.0,"[0.18186630296038248,0.0654903408244167]",100.0,"[-0.06229002001005367,-0.10674097852315763]",100.0,"[-0.16666834651466236,-0.0580708067421043]",4.0,"[0.16561515258346005,0.007225065600706651]",100.0,"[-0.06993872789683883,0.08515097445133106]",4.0,"[-0.024839035939211936,-0.19721848404280176]",100.0,"[0.11157931585266033,0.1317129876072855]",100.0,"[-0.1591104493897019,0.050668135134591966]",100.0,"[-0.03967477119871956,0.12055724359088633]",4.0,"[0.027973974726001362,-0.09261561526404076]",100.0,"[-0.12379270750622537,0.13749170123370713]",100.0,"[-0.11293313766151518,-0.055385706021362106]",100.0,"[0.06838270950612763,0.019795159231611133]",4.0,"[0.07124345278632319,-0.08552379377256242]",4.0,"[0.15117265564427965,0.10926825927302147]",4.0,"[0.03831336807966422,0.1257383034428141]",100.0,"[0.02,0.02]",250.3718,0.0,30.0,30.0,31.0,1.0,,,,,,,
,,,,,,,66095082185479f7db42d782,6842bb16f23b681be4393394,2025-06-06_10h56.14.377,shape_ratio,2024.1.5,Win32,58.47953216,6842b561977af9ba9b0f87ca,,,,,,,,,,,250.3728,250.8721,,,251.1275,251.6219,right,0.4727,,,,,,,,,0.6,,,,,,250.8722,251.1274,251.622,"[0.1611694590578821,-0.06636158426886858]",100.0,"[-0.08298857572327227,-0.18048079120601676]",100.0,"[-0.03788627608370623,0.16948816395725494]",4.0,"[-0.010564642440252354,0.029355077112879855]",100.0,"[0.04781517148122407,-0.17825729642837418]",100.0,"[0.17402273623660616,0.09687415287839238]",100.0,"[0.12838005948613757,-0.14971761589967345]",100.0,"[-0.12422778517957636,0.06873235605176348]",100.0,"[0.19353706199069212,-0.016025287660644275]",100.0,"[-0.06684396554775221,0.10716245764258682]",100.0,"[-0.11630265725273778,-0.1582971419881559]",100.0,"[0.11523451947757643,0.07234585548314862]",4.0,"[0.011723275089770533,0.11813437591194391]",4.0,"[-0.17398068778806108,-0.0957556149134339]",4.0,"[0.10844540794821035,-0.09784181283387854]",100.0,"[-0.04839736954023218,-0.10385922860632678]",100.0,"[-0.0008921828305178136,-0.10145167957133817]",4.0,"[-0.13780271090626525,-0.07379317440202367]",4.0,"[-0.0797274311870305,0.15862931556193308]",100.0,"[0.04785598565120807,0.15634912642976329]",4.0,"[-0.07295610738569848,-0.06324148386496362]",4.0,"[-0.13774165458378115,0.10975378445334714]",100.0,"[-0.07382910144450344,-0.01742671969258792]",100.0,"[0.18764232975588493,0.024449365844131318]",4.0,"[0.0004330339756229717,0.18709538326392117]",100.0,"[-0.022190212396950435,-0.16779688941890653]",4.0,"[-0.03503102791271662,-0.0023429623914070683]",100.0,"[-0.11828911933953813,-0.11134088247325429]",4.0,"[0.036620157888291524,-0.004075228834335866]",100.0,"[-0.19099401661259216,-0.007414220560272061]",4.0,"[0.10655219629618998,0.1499285643306753]",100.0,"[0.07259486758351556,-0.14502978685316237]",4.0,"[0.02,0.02]",252.72,0.0,31.0,31.0,34.0,1.0,,,,,,,
,,,,,,,66095082185479f7db42d782,6842bb16f23b681be4393394,2025-06-06_10h56.14.377,shape_ratio,2024.1.5,Win32,58.47953216,6842b561977af9ba9b0f87ca,,,,,,,,,,,252.721,253.2196,,,253.4702,253.7691,right,0.2684,,,,,,,,,0.9,,,,,,253.2197,253.4701,253.7692,"[-0.01028037672672154,-0.13364288105897504]",100.0,"[0.1249609282269612,-0.13330143003032363]",100.0,"[-0.15150085700149787,0.08011097408173128]",100.0,"[-0.023734080324709934,-0.05381040186258821]",100.0,"[0.07962013869852859,0.13097619469920452]",100.0,"[0.06014311756179205,-0.06366631037987226]",4.0,"[0.00723671447612001,-0.0007377515176676085]",100.0,"[0.08042595967524284,0.04556638088987648]",100.0,"[-0.1543232351548448,-0.0038264807814157426]",100.0,"[0.1513187946450684,-0.025430750269868813]",100.0,"[0.010079364180167475,0.06701171343820514]",4.0,"[0.07989146374676225,-0.01030042847306272]",100.0,"[0.12485243691363017,-0.07601930171057088]",100.0,"[-0.17516726055756804,-0.05855284275039872]",100.0,"[-0.1125166919439996,-0.13777107799361968]",4.0,"[-0.01695655162998365,0.15936233626986035]",100.0,"[0.11640954542326892,0.1550827271664721]",100.0,"[0.1675876117883437,-0.10726887488765068]",100.0,"[-0.035014069587615125,0.04895364511922287]",100.0,"[0.1427808716596131,0.11033735437163023]",100.0,"[0.0381007416778224,-0.1681739429968149]",100.0,"[-0.043463369153749626,0.12334155584561947]",100.0,"[-0.07204161901389881,0.1593361950998096]",100.0,"[0.17166469329672046,0.0751538953812764]",100.0,"[-0.09893660371639637,-0.07800863929258768]",100.0,"[-0.07692669424247622,0.005888109849624838]",100.0,"[0.04715943645293587,0.17546138327497415]",100.0,"[0.1200286291485772,0.03767453006112188]",100.0,"[-0.09932855362188846,0.08503388610559603]",100.0,"[0.08187303777502401,-0.13637986096900678]",100.0,"[-0.19620472600909492,0.02202934913868799]",100.0,"[-0.051727738015127,-0.12325413747322247]",100.0,"[0.02,0.02]",254.8678,0.0,32.0,32.0,2.0,1.0,,,,,,,
,,,,,,,66095082185479f7db42d782,6842bb16f23b681be4393394,2025-06-06_10h56.14.377,shape_ratio,2024.1.5,Win32,58.47953216,6842b561977af9ba9b0f87ca,,,,,,,,,,,254.8689,255.3676,,,255.6179,256.1173,left,0.4811,,,,,,,,,0.55,,,,,,255.3678,255.6179,256.1174,"[0.0037903305027769786,-0.02496575408043341]",4.0,"[-0.05825064534298693,0.11787754856067383]",100.0,"[-0.12917075358882438,-0.0026741576184569713]",100.0,"[-0.07016877773234681,-0.07879204027434278]",100.0,"[0.13560444262502733,-0.03977529872997528]",4.0,"[0.022207237749777696,-0.07366143800860693]",4.0,"[0.00633303454980228,0.12207614396297316]",4.0,"[-0.1343989444065066,0.12746065897869924]",100.0,"[0.06681978641694718,0.08383036522720173]",100.0,"[-0.04146310451574353,0.19525099745977562]",4.0,"[0.08597582521562966,-0.18015331830786233]",4.0,"[0.17194595547884317,0.06041370212276361]",4.0,"[-0.08650014731205707,-0.17007479260357644]",4.0,"[-0.05324794151358654,-0.13760729374269373]",4.0,"[-0.04377786692611971,-0.18755583015588323]",100.0,"[-0.16498228036607854,0.07150379000030742]",4.0,"[-0.15005838987026915,-0.04076583761440016]",4.0,"[0.028679582914658237,-0.17105616590650174]",100.0,"[0.0033020634788376024,-0.12838682601959953]",4.0,"[-0.11780467208496308,0.0481680326458834]",100.0,"[0.1098895218184454,0.05515145499172439]",100.0,"[0.12364315989072712,0.15526208752427162]",4.0,"[0.05710820822452574,0.010124431067591765]",100.0,"[0.09677396068404251,0.11756524806795599]",100.0,"[0.15720116746145596,-0.003064694017327604]",100.0,"[0.14533589742356595,0.11113678768706339]",100.0,"[0.07001429308082349,-0.03792326321321195]",100.0,"[-0.17616990158609105,-0.07364432554756681]",100.0,"[0.10804968400915402,-0.1303861331895579]",100.0,"[0.01413048224727752,0.07393456878285266]",100.0,"[0.029615354501280153,0.16127241438074752]",100.0,"[0.07251743364342793,-0.08342255197412074]",4.0,"[0.02,0.02]",257.2153,0.0,33.0,33.0,85.0,1.0,,,,,,,
,,,,,,,66095082185479f7db42d782,6842bb16f23b681be4393394,2025-06-06_10h56.14.377,shape_ratio,2024.1.5,Win32,58.47953216,6842b561977af9ba9b0f87ca,,,,,,,,,,,257.2162,257.7146,,,257.9651,258.3811,left,0.4019,,,,,,,,,0.45,,,,,,257.7146,257.965,258.3813,"[0.18694133568614432,0.037909271703724726]",4.0,"[0.13564057989943532,0.02338325869476662]",4.0,"[-0.11201010995855147,-0.079017262291233]",4.0,"[0.08945209393627572,0.17883135169843833]",4.0,"[-0.025038006321365876,0.08126807845633105]",4.0,"[0.08671614146536835,-0.06867668577290487]",4.0,"[-0.08550880612422013,0.08212917970894447]",100.0,"[-0.14938298220482968,-0.06430251128055416]",4.0,"[-0.0578129345049738,-0.11602511455722685]",100.0,"[0.11000462144232055,-0.16009746790500323]",4.0,"[-0.04122172459756501,-0.015392686290107071]",4.0,"[-0.13434052812966024,0.014463444564403367]",100.0,"[-0.0006116037261240821,-0.14555773133450026]",4.0,"[-0.1853575617208299,0.05945738859670033]",4.0,"[-0.0017182161577305867,0.15481108560077178]",100.0,"[0.0490275290596702,-0.010500126704413195]",100.0,"[0.11839225867363207,0.1458387744607376]",4.0,"[-0.08566559452739325,0.011664749538399846]",4.0,"[0.01638169249401602,0.06695639017002324]",100.0,"[0.03332796613976853,0.11693157176792314]",100.0,"[0.1341916957223669,-0.10047798386789351]",4.0,"[-0.009770548181109987,-0.056216637201144254]",100.0,"[0.06350800136832375,-0.16674719576837577]",4.0,"[-0.005833017046587174,-0.09956905637498488]",100.0,"[-0.06514272786422023,0.11714231053820355]",100.0,"[-0.11744452489840143,-0.032954685282985556]",100.0,"[0.04513649057658393,-0.09274747483241598]",4.0,"[-0.19392037801525805,-0.0018151744952249397]",100.0,"[0.12772760628192928,-0.022074434959357923]",4.0,"[-0.13980999894853793,0.0893085699789118]",4.0,"[0.06025454154474058,0.08727643460072174]",100.0,"[0.11439859209097981,0.05866504249229398]",100.0,"[0.02,0.02]",259.4799,0.0,34.0,34.0,143.0,1.0,,,,,,,
,,,,,,,66095082185479f7db42d782,6842bb16f23b681be4393394,2025-06-06_10h56.14.377,shape_ratio,2024.1.5,Win32,58.47953216,6842b561977af9ba9b0f87ca,,,,,,,,,,,259.4808,259.979,,,260.2297,260.6122,left,0.3673,,,,,,,,,0.5,,,,,,259.9791,260.2296,260.6122,"[-0.14841362753772813,-0.06818643622793827]",4.0,"[-0.04783889917255629,0.17212750133538282]",100.0,"[0.08593892243256923,-0.07810215561960088]",4.0,"[0.16789173632672008,-0.09460319905128768]",4.0,"[-0.05853093859215171,0.012617113697300904]",100.0,"[0.03689828730224767,-0.12987865901462572]",100.0,"[0.008788748010936234,0.1725846937253607]",100.0,"[0.029067163000222943,-0.011784716947465312]",100.0,"[-0.10921771032252764,0.0004644324381380619]",4.0,"[0.015273101820011068,-0.1772359662217442]",4.0,"[-0.07449782126425464,0.1281386542541043]",4.0,"[-0.01689802464122849,-0.10482833898893079]",100.0,"[0.07509355066155433,-0.16606541450623494]",100.0,"[-0.12798778666556684,0.05987285124813608]",4.0,"[0.027662039015960184,0.05123773198680514]",4.0,"[0.18149124368859249,0.047987661423451684]",4.0,"[0.06376951732527038,0.1826186783687784]",100.0,"[-0.05572455279066213,-0.1500784418890505]",4.0,"[-0.019802641885321715,0.094275792494333]",100.0,"[-0.09395559477308134,-0.07265736963311044]",100.0,"[0.09094640220064495,0.14359634458768264]",4.0,"[-0.10626629397672968,-0.15778573933611154]",4.0,"[-0.1797260794518221,0.05107274464173518]",4.0,"[-0.006642297045908158,0.029859836212354805]",100.0,"[-0.1882616134691124,-0.058899889407016806]",4.0,"[0.033279113092140725,0.10321292994838391]",4.0,"[0.054079530692575484,-0.053820263194709145]",100.0,"[0.1249694296795869,0.05968096627817788]",100.0,"[-0.15954410641699684,0.08832729371091871]",100.0,"[0.19642845261956923,-0.03159116456670941]",4.0,"[-0.13062946179872217,0.14759121929579833]",100.0,"[0.12108448062851176,-0.1152528809000717]",100.0,"[0.02,0.02]",261.711,0.0,35.0,35.0,91.0,1.0,,,,,,,
,,,,,,,66095082185479f7db42d782,6842bb16f23b681be4393394,2025-06-06_10h56.14.377,shape_ratio,2024.1.5,Win32,58.47953216,6842b561977af9ba9b0f87ca,,,,,,,,,,,261.7119,262.2104,,,262.4609,262.8266,left,0.3513,,,,,,,,,0.5,,,,,,262.2105,262.4608,262.8268,"[0.08914585331905037,-0.04165179126752548]",4.0,"[0.11466023865203015,0.03504172565806627]",4.0,"[-0.06423722470461912,0.010779429138913294]",4.0,"[-0.11008133713892558,-0.025644378981722848]",100.0,"[-0.12743912372375252,-0.06830856768200325]",4.0,"[0.017107792157039434,0.17359892204007796]",4.0,"[0.1371247638698842,0.07228242740199665]",100.0,"[-0.04527634688321608,0.06858422360076988]",4.0,"[-0.1384624846358014,-0.11190750779958601]",4.0,"[0.08500590145713836,-0.08147041910569533]",100.0,"[-0.09353560416681365,0.14105402976653436]",100.0,"[0.13884218152457398,-0.1039544123264991]",100.0,"[-0.14650814446366336,0.09039801968873279]",100.0,"[-0.09524422762524774,-0.10389372134801458]",100.0,"[0.09522293288319866,-0.12595135471365795]",100.0,"[-0.0016407624978375251,-0.19202428681499867]",4.0,"[0.038048118922459594,-0.07795248340720604]",4.0,"[-0.018242797017748297,0.14839030320844762]",100.0,"[0.1894849993832985,-0.057547187627282656]",4.0,"[-0.16273916118557868,0.003699315258707655]",4.0,"[0.14417661379512045,-0.03609872748497424]",4.0,"[0.0716674252764226,-0.1863343710208504]",100.0,"[0.1736740062113051,0.047071545950148536]",100.0,"[0.059521365207772306,0.14334101537846952]",4.0,"[-0.08385096943045375,0.05242581453252217]",4.0,"[-0.06381446807269589,-0.17418866302162403]",100.0,"[0.10894209005451083,0.16415398165859751]",100.0,"[0.06502582355428334,0.05443093502875129]",4.0,"[-0.021095827628639,0.1971288634681832]",4.0,"[-0.019408029446779884,-0.1531621392010077]",100.0,"[0.08399178056487941,0.0010082348253048008]",100.0,"[0.11861158269612321,0.11880293624400708]",100.0,"[0.02,0.02]",263.9253,0.0,36.0,36.0,103.0,1.0,,,,,,,
,,,,,,,66095082185479f7db42d782,6842bb16f23b681be4393394,2025-06-06_10h56.14.377,shape_ratio,2024.1.5,Win32,58.47953216,6842b561977af9ba9b0f87ca,,,,,,,,,,,263.9261,264.4249,,,264.676,265.1082,right,0.4111,,,,,,,,,0.6,,,,,,264.425,264.6759,265.1083,"[-0.02564836357121348,0.008691475383604456]",4.0,"[0.06701054794992355,-0.024711698000352278]",4.0,"[0.019950916243722642,0.023104217092442977]",100.0,"[-0.17432014550175082,0.04686643261728349]",4.0,"[0.13740222432438048,0.032793799604387074]",4.0,"[-0.0618782563240478,0.06439727542887096]",100.0,"[-0.027244263693223792,-0.16307268968895738]",100.0,"[-0.11012830632549465,0.10252588836354705]",100.0,"[0.07268558075862702,0.04696117648689738]",100.0,"[0.18282973215763998,-0.07303409168375301]",100.0,"[-0.16222337859542796,-0.10844465091286988]",4.0,"[0.12851322181689825,0.07704395581234365]",4.0,"[0.07188623115198416,0.1106161779367642]",100.0,"[-0.1008623445452526,0.0011569757936181163]",100.0,"[-0.16161392214633227,-0.017230411827083958]",100.0,"[0.10455993580312216,-0.15334658663900058]",4.0,"[0.062340570758048004,-0.14354553102939066]",100.0,"[0.07421972938548639,-0.08644846693521037]",100.0,"[0.13173467013280518,0.14918429404314426]",100.0,"[-0.12124195974523869,-0.08472170125246535]",100.0,"[0.03792349254351828,0.1682642422277535]",100.0,"[-0.06306706741151252,-0.059074358866302065]",4.0,"[-0.002387797414715264,0.16883995861608506]",4.0,"[-0.09245850168890014,-0.15931111820871144]",100.0,"[-0.07048657569181042,0.16569065277666364]",4.0,"[-0.11083449058546152,-0.041797424716783826]",100.0,"[0.11594137640917702,-0.05039637264981161]",4.0,"[-0.0546831388765762,-0.10584842542934375]",100.0,"[0.1822694673011193,0.025389105665799515]",100.0,"[-0.15738968258929667,0.12073509053171125]",100.0,"[0.14426477995256545,-0.10388068537793874]",4.0,"[-0.018351708850514584,0.09858865050010955]",4.0,"[0.02,0.02]",266.2067,0.0,37.0,37.0,36.0,1.0,,,,,,,
,,,,,,,66095082185479f7db42d782,6842bb16f23b681be4393394,2025-06-06_10h56.14.377,shape_ratio,2024.1.5,Win32,58.47953216,6842b561977af9ba9b0f87ca,,,,,,,,,,,266.2077,266.7065,,,266.9613,267.3065,right,0.3231,,,,,,,,,0.55,,,,,,266.7066,266.9612,267.3066,"[-0.08406067580109437,0.04019217539902874]",100.0,"[0.0922558672950044,0.10645124017416141]",4.0,"[-0.0696381484694459,-0.17796722544997873]",4.0,"[0.05703019792112552,-0.13332839473243696]",100.0,"[0.09235015311009083,0.019697234076321582]",100.0,"[0.14530099663692864,-0.10168032473906392]",4.0,"[-0.006058289439460739,0.03161001802825049]",100.0,"[-0.10462092595846303,0.0773823175316377]",4.0,"[0.03309799219617858,-0.08826272148118026]",100.0,"[-0.08599908958508118,-0.10520738530427587]",100.0,"[-0.16337360950545785,0.01620291332669347]",100.0,"[0.02531441185501558,-0.1884140413634905]",4.0,"[0.051181150397262204,0.021663196121069504]",4.0,"[-0.05043671492695481,0.0741949622386384]",100.0,"[0.16516818702904829,-0.004864695304235081]",100.0,"[-0.1154373107659052,0.0015393921181849472]",100.0,"[0.16885930219443102,0.05308105151895004]",100.0,"[-0.014649822018824912,0.17613479670446047]",4.0,"[-0.03319696644035224,-0.024453709503107903]",100.0,"[-0.11676827375112028,-0.14068184373634493]",100.0,"[0.10829342537209262,-0.05793910068436286]",100.0,"[0.10572837565203001,0.058341934987691524]",4.0,"[-0.12798248199035114,0.11082106688935814]",4.0,"[0.01768349667652465,-0.03162057050592517]",4.0,"[0.04563810922745254,0.1422550785484399]",4.0,"[-0.07729004376759269,-0.029991715430414848]",100.0,"[0.06258512367067098,-0.020105185679668236]",4.0,"[0.0643526290626731,-0.06242232487055984]",4.0,"[0.01906213667570214,0.0755672271800513]",100.0,"[-0.015029192984374936,-0.19378013274156913]",100.0,"[0.12801531798453614,-0.022035166845673193]",4.0,"[-0.019924082804588125,0.11546074195131649]",100.0,"[0.02,0.02]",268.4049,0.0,38.0,38.0,60.0,1.0,,,,,,,
,,,,,,,66095082185479f7db42d782,6842bb16f23b681be4393394,2025-06-06_10h56.14.377,shape_ratio,2024.1.5,Win32,58.47953216,6842b561977af9ba9b0f87ca,,,,,,,,,,,268.4059,268.9044,,,269.1538,269.5537,left,0.3877,,,,,,,,,0.1,,,,,,268.9045,269.1538,269.5537,"[0.11266668470145634,-0.021209339345468464]",4.0,"[-0.020375829462756033,0.04595498863561441]",4.0,"[-0.14817543261635924,0.039091026197947576]",4.0,"[0.1099073071184752,0.13019966632175886]",4.0,"[0.03938734662131925,0.1420562583113921]",4.0,"[-0.02974495935712352,0.164414105491696]",4.0,"[0.014473845967761625,0.18177219575673798]",100.0,"[0.16047411303078915,-0.032194350635492426]",4.0,"[0.1093214544241659,0.050912570325110595]",4.0,"[0.14936255426058978,-0.12390511501255672]",4.0,"[-0.051470246901425765,-0.18288153392352627]",4.0,"[-0.07100869764005323,-0.12529198857958873]",4.0,"[-0.16348673074697903,-0.10926855674834175]",4.0,"[-0.10203884882663644,0.04920251757530448]",4.0,"[0.06829405827159257,0.1725184344551853]",4.0,"[-0.07403853684599376,-0.033168887879662864]",4.0,"[0.013863433057968829,-0.19649461720052716]",4.0,"[-0.12399523440746224,-0.05364436755267939]",4.0,"[-0.09549745614804468,0.15016216452157385]",4.0,"[-0.031196520022449978,0.0017714183243213225]",4.0,"[-0.1978167859775966,-0.025522512270894835]",4.0,"[-0.11403883907101021,0.09004205036402492]",4.0,"[-0.11857002468928743,-0.010178177954517503]",4.0,"[0.05769944663093677,-0.006296940533567276]",4.0,"[0.10779385103950329,-0.08598187246842776]",4.0,"[0.05904999485474264,-0.18134100771738612]",4.0,"[0.0176969593376637,-0.1463128334647538]",100.0,"[0.0665512320192995,-0.08651369479558738]",4.0,"[-0.03644190409306234,-0.08529256386811293]",4.0,"[0.015738532036783853,0.0025305747765829215]",100.0,"[0.14718103676258637,0.10797225968451565]",4.0,"[0.04299458248082429,0.10015153558569266]",4.0,"[0.02,0.02]",270.6518,0.0,39.0,39.0,208.0,1.0,,,,,,,
,,,,,,,66095082185479f7db42d782,6842bb16f23b681be4393394,2025-06-06_10h56.14.377,shape_ratio,2024.1.5,Win32,58.47953216,6842b561977af9ba9b0f87ca,,,,,,,,,,,270.6526,271.1544,,,271.4066,271.7514,right,0.3255,,,,,,,,,0.9,,,,,,271.1544,271.4065,271.7515,"[-0.17203227922736455,0.0850239237326596]",100.0,"[-0.10884610633922688,-0.0336261167402234]",100.0,"[0.043374211748875284,-0.07594891327905728]",100.0,"[-0.12780307449606593,-0.13998331768478461]",100.0,"[0.1574803271845572,-0.03526342141511289]",100.0,"[-0.09111232264746734,0.11334648963633294]",100.0,"[0.0756298647502645,-0.018864213252590994]",100.0,"[-0.10818989155941096,0.04945771285773299]",100.0,"[0.14680919175493173,-0.11137304764579273]",100.0,"[-0.02468394789216085,0.1931371397989955]",100.0,"[0.024191649234426144,0.15278309108212262]",100.0,"[0.15260418682668042,0.10728049067025675]",100.0,"[0.1140117706400436,-0.15866372339007603]",100.0,"[0.028310209225301676,0.024480781607557126]",100.0,"[0.014893245417044022,-0.03387309802331766]",100.0,"[-0.02660273588526574,-0.06539612478823335]",100.0,"[0.15174579674638813,0.06706021435147232]",4.0,"[0.08024066763442306,0.07529936603169486]",100.0,"[-0.05016727796592043,-0.09847753226302382]",4.0,"[0.08433007959027565,0.12547409999936543]",100.0,"[-0.06855496111432303,0.17729294278134286]",100.0,"[0.0009336606483297822,-0.16650235668414345]",100.0,"[0.12365011558558521,0.14678985535593855]",100.0,"[0.05858104402684225,-0.11644186663481029]",100.0,"[0.17432358358170935,0.0059678657569420595]",100.0,"[-0.09961236794464595,-0.08447741583790622]",4.0,"[-0.06027824237915877,-0.017978355899252087]",100.0,"[0.08773493269110962,0.16930071261261517]",100.0,"[0.1154098932889599,-0.08458000266063417]",100.0,"[-0.019822992069771443,-0.13204434644424026]",100.0,"[0.00621003197821126,0.07938204621564929]",100.0,"[-0.025262690213044375,0.013269772228057242]",100.0,"[0.02,0.02]",272.8498,0.0,40.0,40.0,12.0,1.0,,,,,,,
,,,,,,,66095082185479f7db42d782,6842bb16f23b681be4393394,2025-06-06_10h56.14.377,shape_ratio,2024.1.5,Win32,58.47953216,6842b561977af9ba9b0f87ca,,,,,,,,,,,272.8507,273.3489,,,273.5998,273.949,left,0.3245,,,,,,,,,0.1,,,,,,273.3491,273.5997,273.9491,"[-0.023633074314985767,-0.02103689380566547]",4.0,"[0.06911796229433174,0.13092083655212897]",4.0,"[0.0538090736465962,-0.08584634422880826]",4.0,"[-0.028214528593238246,0.04114619474731995]",4.0,"[-0.061337637231826024,0.005007019019117909]",100.0,"[0.012612340367722116,-0.10006731897566744]",4.0,"[0.12605779078172066,0.04463470790080002]",4.0,"[-0.0552933064982766,-0.11646875067597925]",4.0,"[-0.12231439979228936,0.07244713376900194]",4.0,"[0.13003512646816204,0.1092536227764197]",4.0,"[-0.15629261287924628,-0.06424274722954182]",4.0,"[0.11249483914707176,-0.05854799189122647]",4.0,"[-0.018172484733436033,0.11692497802857167]",4.0,"[0.16534235218940266,-0.01108322253749666]",100.0,"[-0.14723508473120586,0.017522437063028203]",4.0,"[0.007861117270899037,0.0790638494633725]",4.0,"[0.06308352291710609,0.026927870320912612]",4.0,"[-0.023807459694117725,-0.1759432199883799]",4.0,"[0.0070286992034465515,0.022210084382512152]",4.0,"[0.0772316318584077,0.0854286713655186]",4.0,"[-0.09916812844031844,-0.15010774804894553]",4.0,"[0.07459192305895049,-0.1596002682133631]",4.0,"[-0.10438766095289442,0.01738270704462579]",4.0,"[0.05444648152030898,-0.017079289169407503]",100.0,"[-0.0968665343192887,0.13809680060402554]",4.0,"[-0.07115804043829689,-0.075198345505998]",4.0,"[-0.06586758817994638,0.0659990669002571]",4.0,"[-0.0485320242994846,0.15081446839667884]",4.0,"[-0.0827811098679762,0.17749324692960908]",4.0,"[0.09780147990996814,-0.11840495437167695]",4.0,"[0.16728846728697694,-0.07748720108901043]",4.0,"[0.02467563138556867,0.12725055621471282]",4.0,"[0.02,0.02]",275.0486,0.0,41.0,41.0,202.0,1.0,,,,,,,
,,,,,,,66095082185479f7db42d782,6842bb16f23b681be4393394,2025-06-06_10h56.14.377,shape_ratio,2024.1.5,Win32,58.47953216,6842b561977af9ba9b0f87ca,,,,,,,,,,,275.0497,275.5481,,,275.798,276.181,right,0.358,,,,,,,,,0.9,,,,,,275.5482,275.7978,276.1812,"[0.05763615299991598,0.1567439906646627]",100.0,"[0.1547762045868783,0.05696333170944269]",100.0,"[0.018049093122775278,0.0790935949595366]",100.0,"[-0.05971905061899155,-0.14817248002192374]",100.0,"[0.11284376774628659,-0.004428615551607762]",100.0,"[-0.13220072398138327,0.012825305708519105]",100.0,"[0.045811354304639694,-0.09166349231638717]",100.0,"[-0.11094699414150976,0.08235002280667464]",100.0,"[0.02943643042276553,0.04010517129314659]",100.0,"[0.11421174615917946,0.06763040977319491]",100.0,"[0.18620227382620141,0.012638260669160446]",100.0,"[-0.11298674227602204,0.14042654107030383]",4.0,"[-0.09023582394408358,-0.17646297244485143]",100.0,"[0.006033344517111772,0.14784491804719258]",100.0,"[0.0025262418627542554,-0.08540774893408544]",100.0,"[-0.0269129060424575,-0.008119061732923176]",100.0,"[0.10344820055584124,-0.12154205294874416]",100.0,"[-0.02104546117270044,-0.18292120146241284]",100.0,"[-0.1719752142997814,-0.06807085044469154]",100.0,"[0.053642797818548985,-0.14292883525792416]",100.0,"[-0.1404558616399476,-0.028359759478347544]",100.0,"[0.08269932715203196,0.027379519600374092]",100.0,"[0.05808945983255992,0.07259125033080233]",100.0,"[0.06471043978193408,-0.021537328785670464]",4.0,"[-0.14992469173871908,0.05401419626712366]",100.0,"[0.1388472929296811,0.13409309528947802]",4.0,"[-0.17089046432361496,0.0916482902724031]",100.0,"[0.0981882226449323,-0.16567090638565296]",100.0,"[-0.19309880187436262,-0.028996487693698992]",100.0,"[-0.080795784158126,0.1653703692763583]",100.0,"[0.17796194328544082,-0.07697165840831537]",100.0,"[-0.032449515096890764,0.057106871576430726]",100.0,"[0.02,0.02]",277.2791,0.0,42.0,42.0,28.0,1.0,,,,,,,
,,,,,,,66095082185479f7db42d782,6842bb16f23b681be4393394,2025-06-06_10h56.14.377,shape_ratio,2024.1.5,Win32,58.47953216,6842b561977af9ba9b0f87ca,,,,,,,,,,,277.2799,277.7783,,,278.0304,278.3948,left,0.3425,,,,,,,,,0.5,,,,,,277.7785,278.0304,278.395,"[-0.02581954536759017,0.1511721860536484]",4.0,"[-0.06348592132348553,0.136326622123039]",100.0,"[0.15362669046510813,0.11198134402070892]",4.0,"[-0.14326771272831734,0.11524459484537321]",4.0,"[0.12319483314089424,-0.03956543835451415]",100.0,"[0.04987778295693063,0.19005379542453]",100.0,"[0.003187033916569022,0.11934683510551325]",100.0,"[-0.13250353822299957,-0.13701823425056636]",100.0,"[-0.15356945374593997,0.006639931435556377]",4.0,"[-0.0012908600187086269,-0.14148269118031156]",100.0,"[-0.02298520979071012,-0.10457259669149231]",100.0,"[0.13116109683224303,-0.10792636685143708]",4.0,"[0.0700533805388251,-0.04393750488216963]",4.0,"[-0.1503454312955803,0.04814966551563889]",100.0,"[-0.06658932302057764,-0.1748457780234505]",4.0,"[0.0930373955972907,0.10645151977719967]",100.0,"[0.041048212194809,-0.1263851919925288]",4.0,"[0.01505494331396042,0.0759224917347186]",4.0,"[0.13655657087020276,0.06733933639991727]",4.0,"[-0.08455863976439112,-0.12422778631155576]",100.0,"[-0.13564656352910773,-0.06346386956575169]",100.0,"[-0.12303028009974172,-0.02252664431834519]",100.0,"[0.07440226826651804,-0.10411164792394828]",100.0,"[0.03529308762489853,0.01686216885313829]",100.0,"[-0.10155981250943164,0.07980397476177992]",100.0,"[0.029903355619850722,-0.19357559647624487]",4.0,"[0.01503236660776345,-0.026067006480892326]",100.0,"[-0.09583091531879255,-0.08004690514607274]",4.0,"[0.01622121491380481,-0.07313667397288723]",4.0,"[-0.03606252181024568,0.05536710897828669]",4.0,"[0.09716780247485522,-0.1405683401580928]",4.0,"[0.1101107791034014,0.009245113133151439]",4.0,"[0.02,0.02]",279.494,0.0,43.0,43.0,95.0,1.0,,,,,,,
,,,,,,,66095082185479f7db42d782,6842bb16f23b681be4393394,2025-06-06_10h56.14.377,shape_ratio,2024.1.5,Win32,58.47953216,6842b561977af9ba9b0f87ca,,,,,,,,,,,279.495,279.9933,,,280.2481,280.7593,right,0.4889,,,,,,,,,0.55,,,,,,279.9934,280.2479,280.7595,"[0.12883097502430801,0.11571165630647913]",4.0,"[0.04642792175142604,0.013589784449265193]",100.0,"[0.17812955667374766,0.034131830697643535]",100.0,"[0.11127635915358669,0.1558470429817468]",100.0,"[-0.06098904686169302,-0.1488895538532579]",4.0,"[0.07160947464942544,-0.025238528368396178]",4.0,"[0.03556449990637266,-0.12771413675923549]",4.0,"[-0.06908363658822532,0.1724289912409789]",4.0,"[0.12432658293407958,-0.13866041800660767]",100.0,"[0.030132635962297236,0.18170828308653464]",100.0,"[0.12330968002711007,-0.07595643401842836]",100.0,"[-0.03903991757292418,0.0013970029889975725]",4.0,"[0.17733650244747556,-0.015762612220619646]",100.0,"[-0.1615253563434683,-0.0018407244051650777]",100.0,"[-0.011921304590815507,-0.19537336635303862]",100.0,"[-0.11228048075550365,-0.10596294727679295]",4.0,"[0.1381133417253419,0.017158047854335973]",4.0,"[0.0812869869793036,-0.14870873063185774]",4.0,"[-0.046837059854043524,0.12126852039091886]",100.0,"[-0.015189134484766874,0.19648016601037907]",4.0,"[-0.1144744665374856,0.03093214476711324]",100.0,"[-0.16028521695519027,-0.09118561008149262]",100.0,"[0.02743237524451356,-0.18484195485734986]",100.0,"[0.08675713070898934,0.10523467003971246]",4.0,"[-0.06532300578558832,0.08017639775871997]",100.0,"[-0.017227410266989734,-0.10520813101930684]",100.0,"[0.08972978703978944,0.05438459203374106]",4.0,"[-0.11192569660655248,-0.0540915166592416]",100.0,"[-0.12300480303600365,0.1429224643405634]",100.0,"[-0.07922411715018449,-0.08137371895396538]",100.0,"[-0.0297230326738132,0.05177074968695391]",4.0,"[0.011097400252902068,0.1143606638530409]",4.0,"[0.02,0.02]",281.8581,0.0,44.0,44.0,65.0,1.0,,,,,,,
,,,,,,,66095082185479f7db42d782,6842bb16f23b681be4393394,2025-06-06_10h56.14.377,shape_ratio,2024.1.5,Win32,58.47953216,6842b561977af9ba9b0f87ca,,,,,,,,,,,281.859,282.3581,,,282.6075,282.9895,left,0.3645,,,,,,,,,0.45,,,,,,282.3581,282.6074,282.9895,"[-0.0048127485904091065,-0.12415227761435607]",100.0,"[-0.04537443059119348,-0.08863387630440604]",100.0,"[0.09751153855362939,-0.11692979107178589]",4.0,"[0.06433499188774039,0.06038429780948756]",4.0,"[-0.07893404144773186,0.08608320972923791]",4.0,"[0.02147731600077908,-0.17701085453875826]",4.0,"[0.17314898053936428,-0.043083616931764844]",100.0,"[-0.10520609795726356,-0.16586737596076076]",4.0,"[0.04607868465677826,0.19063786784916023]",4.0,"[0.12568965044359734,0.01153467846882353]",100.0,"[0.0084989185189215,0.04668613987716108]",4.0,"[-0.15131238046653908,0.01489515009158195]",4.0,"[0.03607079058462172,0.007729995923085163]",4.0,"[-0.05155467769642695,-0.007740521296064907]",4.0,"[0.19489611249558897,0.02618503337010469]",4.0,"[-0.010886237923077042,0.08388681790842012]",4.0,"[0.07948591311052902,0.14737743281170834]",4.0,"[0.0865289375523273,-0.0194747793772709]",100.0,"[-0.1039305557225125,0.015665038780485575]",100.0,"[-0.009716975577612811,0.16785373546024526]",100.0,"[0.0669047857805596,-0.07674759168317759]",100.0,"[-0.10183820982077157,-0.06603316132769885]",100.0,"[-0.044607507217684944,0.04335612035381094]",100.0,"[0.013246353191081753,0.12946085801869148]",100.0,"[0.12919770301023947,-0.09056874753983297]",4.0,"[-0.12283841644530509,0.1362187234773128]",4.0,"[-0.15964304039127888,0.08765606755645278]",4.0,"[0.08466958551436082,0.02157641235185158]",4.0,"[0.06912043721657918,0.10804733311319567]",4.0,"[-0.13765151888424396,-0.11421109046633987]",100.0,"[-0.024576130734157573,-0.041420244631497065]",100.0,"[0.1624786866282506,0.05874391151481505]",100.0,"[0.02,0.02]",284.0885,0.0,45.0,45.0,131.0,1.0,,,,,,,
,,,,,,,66095082185479f7db42d782,6842bb16f23b681be4393394,2025-06-06_10h56.14.377,shape_ratio,2024.1.5,Win32,58.47953216,6842b561977af9ba9b0f87ca,,,,,,,,,,,284.0895,284.5882,,,284.8386,285.4373,left,0.5813,,,,,,,,,0.5,,,,,,284.5883,284.8386,285.4374,"[-0.18231040530642503,-0.041983594167125236]",100.0,"[0.1495293355797021,-0.10550312052962821]",100.0,"[-0.16522583011100508,0.027276414845135048]",100.0,"[-0.049120292619573555,0.08327348485326251]",4.0,"[0.026605137386177622,-0.1297160052301854]",4.0,"[0.026340732693498587,-0.0393758267786909]",100.0,"[-0.008274315605040371,0.17960638793785103]",100.0,"[0.12134232564378009,-0.034727591170346093]",4.0,"[0.07935965285026514,-0.12443026047633379]",4.0,"[0.004450948172192184,-0.17857475127380282]",100.0,"[-0.06365984292325269,-0.08724714466112025]",100.0,"[-0.11429340887107448,-0.0407573847836602]",4.0,"[0.08195163568684932,0.06251901245765618]",100.0,"[-0.16954981174707276,-0.10202107806570355]",4.0,"[-0.14511230646059295,0.080728410455894]",100.0,"[-0.03914564312327567,-0.030029667203292917]",4.0,"[-0.11982802104584994,0.025812311670508674]",4.0,"[-0.0864669137035488,0.13083972136531669]",4.0,"[0.10283514321687821,0.13233885287067995]",4.0,"[-0.05682797274002704,0.013622569718900754]",4.0,"[0.1491196812719695,0.13326207003632073]",100.0,"[-0.15422520052403643,0.12689381286258214]",4.0,"[0.05204953511101333,-0.004285629106110805]",100.0,"[-0.001946686776498687,0.11918820252778624]",4.0,"[-0.1035760640954526,-0.12571766386032152]",100.0,"[0.03119621353306328,0.030576250886461386]",100.0,"[-0.07371520165440464,0.17890894302619345]",4.0,"[0.16004254782003563,0.06488021896547115]",4.0,"[0.07651417884610436,-0.08001378798057238]",100.0,"[0.13031867136936603,0.09586056761524663]",4.0,"[-0.05706966113282632,-0.18302571351441893]",100.0,"[-0.11291957697037786,-0.08331763058218788]",100.0,"[0.02,0.02]",286.5368,0.0,46.0,46.0,101.0,1.0,,,,,,,
,,,,,,,66095082185479f7db42d782,6842bb16f23b681be4393394,2025-06-06_10h56.14.377,shape_ratio,2024.1.5,Win32,58.47953216,6842b561977af9ba9b0f87ca,,,,,,,,,,,286.5376,287.0362,,,287.2861,287.6521,right,0.3545,,,,,,,,,0.5,,,,,,287.0362,287.286,287.6522,"[-0.04475320971613061,-0.1855436328596457]",4.0,"[0.0701816700613383,0.18072442020651291]",100.0,"[0.12254352444512391,0.08825653285518811]",100.0,"[0.04757061219944202,-0.09102159799300227]",100.0,"[-0.11294426491397541,0.03713791243206342]",4.0,"[-0.10927835061023351,0.10056947252071277]",100.0,"[-0.03930184760652505,0.12957859469834207]",4.0,"[0.04833342465648652,0.08720818344737988]",100.0,"[0.004204269505842971,-0.18040998903278604]",4.0,"[-0.034449208872252196,0.08064422848634388]",4.0,"[0.1432846421760572,0.04817084027884732]",4.0,"[0.16915463947542522,0.08352601977993543]",4.0,"[-0.17261572369187927,-0.08334265996949403]",100.0,"[-0.12754673373761685,0.14783809973274317]",100.0,"[0.04366862995386461,0.028407239735664707]",100.0,"[0.19364075938010952,0.04647600787001905]",4.0,"[0.03537165042211387,-0.14683945345079785]",100.0,"[0.08479197638724938,-0.01445028836277318]",100.0,"[-0.15083918833256832,0.019287064508537524]",100.0,"[-0.08819050254460314,-0.13605361874196115]",100.0,"[-0.1349896053626112,-0.03665607213425566]",4.0,"[-0.04118429718021864,0.1932047261775031]",100.0,"[-0.05469962138426163,0.006268879855848373]",4.0,"[-0.07833371475531963,-0.08882136283025242]",100.0,"[0.0021613333388787294,0.11977696916143364]",4.0,"[0.12081797121932886,-0.132139220522924]",4.0,"[-0.07814694508259816,0.06252524930440768]",4.0,"[0.1493632191875536,0.11930304715045352]",4.0,"[-0.06418640315767159,-0.03305602052343544]",100.0,"[-0.0034218114608656814,0.018409715248494364]",4.0,"[0.10012588526254479,-0.059706805380084334]",100.0,"[0.07586781616288198,-0.182100159529535]",4.0,"[0.02,0.02]",288.7506,0.0,47.0,47.0,107.0,1.0,,,,,,,
,,,,,,,66095082185479f7db42d782,6842bb16f23b681be4393394,2025-06-06_10h56.14.377,shape_ratio,2024.1.5,Win32,58.47953216,6842b561977af9ba9b0f87ca,,,,,,,,,,,288.7513,289.2504,,,289.5003,289.9834,right,0.4664,,,,,,,,,0.4,,,,,,289.2504,289.5003,289.9836,"[-0.018229778973360356,-0.1522319045785375]",4.0,"[0.027404899730004692,-0.12650929360370713]",4.0,"[0.10447785983393211,-0.11393517755227313]",4.0,"[-0.010276919499363896,-0.10837126992618368]",100.0,"[-0.017655452883723978,0.11396325921872318]",100.0,"[-0.0027219271758906673,-0.03155584030947001]",100.0,"[-0.15932618253147168,0.1172086984345877]",100.0,"[-0.14976972454537368,-0.12368714374072716]",4.0,"[0.04003197149634725,-0.17461937548009127]",4.0,"[-0.1047416197109047,-0.1454381524407104]",100.0,"[0.03761724455779736,-0.03657897960285603]",4.0,"[0.11548954913510127,0.13181874297698493]",100.0,"[0.14015922309091378,0.0036505362686923126]",4.0,"[0.13031906546310182,-0.04274580614766226]",4.0,"[0.06445986839166692,0.1273027361649649]",100.0,"[0.08095385578981508,0.015675907168366046]",4.0,"[-0.05995225431253081,-0.05318229677736655]",100.0,"[0.14792706864470753,0.08601086705510703]",4.0,"[-0.09170418086199872,-0.02118328105920672]",4.0,"[0.05719618841305149,0.18271308501789152]",4.0,"[-0.18486524544268315,0.06637058650383384]",100.0,"[0.18120407686832346,-0.027919622948001325]",100.0,"[-0.1894388632002509,0.022807994103321558]",4.0,"[-0.02984556541355555,0.00007710621686352212]",100.0,"[-0.0045080084438757105,0.04842755001540882]",100.0,"[-0.08296576031778688,-0.10812034680612641]",4.0,"[0.01166781307492703,0.182420131192904]",4.0,"[-0.1642421115325114,-0.011676995953594501]",4.0,"[0.10723369828506711,-0.1578619743429681]",100.0,"[-0.060739601667679104,0.11901331545080181]",4.0,"[0.06341173351366511,-0.10154094107450755]",4.0,"[-0.12461731126701421,0.14728977421584452]",4.0,"[0.02,0.02]",291.0818,0.0,48.0,48.0,176.0,1.0,,,,,,,
,,,,,,,66095082185479f7db42d782,6842bb16f23b681be4393394,2025-06-06_10h56.14.377,shape_ratio,2024.1.5,Win32,58.47953216,6842b561977af9ba9b0f87ca,,,,,,,,,,,291.0826,291.5816,,,291.8315,292.298,left,0.4488,,,,,,,,,0.1,,,,,,291.5817,291.8315,292.2981,"[-0.06419050679992373,-0.17882694380229794]",4.0,"[0.055201649693840435,-0.09052824626094456]",4.0,"[0.046945897300581914,0.09357815290458116]",4.0,"[0.014511311591313974,-0.13428523568377496]",4.0,"[0.1482866371693989,0.1240712221781635]",4.0,"[0.0054614974698326555,0.13137597426602574]",4.0,"[0.06961871584389256,-0.15513626657413435]",4.0,"[-0.10217096123024373,-0.1314762116161408]",4.0,"[0.145504086726528,-0.060504092892724626]",4.0,"[-0.03384034013328327,0.0871494084461427]",4.0,"[0.12378510723322753,0.008535327853578998]",4.0,"[-0.13753802741956025,0.0979022397010221]",4.0,"[-0.04552587527439245,-0.08978413056449594]",100.0,"[0.019209923661842314,-0.05987237175237652]",4.0,"[-0.17079965591555057,-0.014158985615768052]",4.0,"[-0.005854351915052815,0.052457657105922706]",4.0,"[-0.06192181175625381,-0.025190790879776267]",4.0,"[0.1581072713036762,0.04450368236583821]",4.0,"[-0.13232225712488077,0.034626549138831356]",4.0,"[-0.10911238619939997,0.12730044354998973]",4.0,"[-0.017711271042795105,0.1816185636468342]",4.0,"[0.10610287078948995,0.10246750415842083]",4.0,"[-0.005307521568101595,-0.18471397244295137]",4.0,"[0.08041935732653903,0.020706348354325436]",4.0,"[0.10751988582937122,0.15223298365158683]",100.0,"[0.16173247563924656,-0.007376101239378224]",4.0,"[-0.1705427341809508,-0.09762903714541946]",4.0,"[-0.07162996105856777,0.17907548247418595]",100.0,"[-0.060510219088872115,0.05514583444775327]",4.0,"[-0.10146492571592108,-0.07218747634508535]",4.0,"[-0.00474532333532532,0.009479838190933931]",4.0,"[0.05817166442887394,0.16321932005843118]",4.0,"[0.02,0.02]",293.3966,0.0,49.0,49.0,184.0,1.0,,,,,,,
