right,left,explain.started,explain.stopped,key_resp_3.keys,key_resp_3.rt,key_resp_3.duration,participant,session,date,expName,psychopyVersion,OS,frameRate,study_id,explain_2.started,explain_2.stopped,key_resp_4.keys,key_resp_4.rt,key_resp_4.duration,explain_3.started,explain_3.stopped,key_resp_5.keys,key_resp_5.rt,key_resp_5.duration,fixation.started,fixation.stopped,practice.started,practice.stopped,response.started,response.stopped,key_resp.keys,feedback.started,feedback.stopped,trials_2.thisRepN,trials_2.thisTrialN,trials_2.thisN,trials_2.thisIndex,trials_2.ran,dot_ratio,key_resp.rt,key_resp.duration,explain_4.started,explain_4.stopped,key_resp_6.keys,key_resp_6.rt,key_resp_6.duration,dotDisplay.started,dotDisplay.stopped,ITI.started,polygon_1.pos,polygon_1.edges,polygon_2.pos,polygon_2.edges,polygon_3.pos,polygon_3.edges,polygon_4.pos,polygon_4.edges,polygon_5.pos,polygon_5.edges,polygon_6.pos,polygon_6.edges,polygon_7.pos,polygon_7.edges,polygon_8.pos,polygon_8.edges,polygon_9.pos,polygon_9.edges,polygon_10.pos,polygon_10.edges,polygon_11.pos,polygon_11.edges,polygon_12.pos,polygon_12.edges,polygon_13.pos,polygon_13.edges,polygon_14.pos,polygon_14.edges,polygon_15.pos,polygon_15.edges,polygon_16.pos,polygon_16.edges,polygon_17.pos,polygon_17.edges,polygon_18.pos,polygon_18.edges,polygon_19.pos,polygon_19.edges,polygon_20.pos,polygon_20.edges,polygon_21.pos,polygon_21.edges,polygon_22.pos,polygon_22.edges,polygon_23.pos,polygon_23.edges,polygon_24.pos,polygon_24.edges,polygon_25.pos,polygon_25.edges,polygon_26.pos,polygon_26.edges,polygon_27.pos,polygon_27.edges,polygon_28.pos,polygon_28.edges,polygon_29.pos,polygon_29.edges,polygon_30.pos,polygon_30.edges,polygon_31.pos,polygon_31.edges,polygon_32.pos,polygon_32.edges,dot_size,ITI.stopped,trials.thisRepN,trials.thisTrialN,trials.thisN,trials.thisIndex,trials.ran,break_2.started,break_2.stopped,trials_3.thisRepN,trials_3.thisTrialN,trials_3.thisN,trials_3.thisIndex,trials_3.ran
subject chose dot,subject chose diamond,0.0002,32.1084,space,17.0911,,6613f83d1a9cf059d0af91ec,68399cf70df050021737d8f7,2025-05-30_13h56.52.620,shape_ratio,2024.1.5,Win32,59.52380952,683853e18dae57a2147b65e0,,,,,,,,,,,,,,,,,,,,,,,,,,,,,,,,,,,,,,,,,,,,,,,,,,,,,,,,,,,,,,,,,,,,,,,,,,,,,,,,,,,,,,,,,,,,,,,,,,,,,,,,,,,,,,,,,
,,,,,,,6613f83d1a9cf059d0af91ec,68399cf70df050021737d8f7,2025-05-30_13h56.52.620,shape_ratio,2024.1.5,Win32,59.52380952,683853e18dae57a2147b65e0,32.1088,66.4248,space,4.2974,,,,,,,,,,,,,,,,,,,,,,,,,,,,,,,,,,,,,,,,,,,,,,,,,,,,,,,,,,,,,,,,,,,,,,,,,,,,,,,,,,,,,,,,,,,,,,,,,,,,,,,,,,,,,
,,,,,,,6613f83d1a9cf059d0af91ec,68399cf70df050021737d8f7,2025-05-30_13h56.52.620,shape_ratio,2024.1.5,Win32,59.52380952,683853e18dae57a2147b65e0,,,,,,66.4249,70.4579,space,1.0047,,,,,,,,,,,,,,,,,,,,,,,,,,,,,,,,,,,,,,,,,,,,,,,,,,,,,,,,,,,,,,,,,,,,,,,,,,,,,,,,,,,,,,,,,,,,,,,,,,,,,,,,
,,,,,,,6613f83d1a9cf059d0af91ec,68399cf70df050021737d8f7,2025-05-30_13h56.52.620,shape_ratio,2024.1.5,Win32,59.52380952,683853e18dae57a2147b65e0,,,,,,,,,,,70.4682,70.9582,70.9589,71.2079,71.208,72.7077,,72.7078,73.8083,0.0,0.0,0.0,1.0,1.0,0.8,,,,,,,,,,,,,,,,,,,,,,,,,,,,,,,,,,,,,,,,,,,,,,,,,,,,,,,,,,,,,,,,,,,,,,,,,,,,,,,,,,,,,,,,
,,,,,,,6613f83d1a9cf059d0af91ec,68399cf70df050021737d8f7,2025-05-30_13h56.52.620,shape_ratio,2024.1.5,Win32,59.52380952,683853e18dae57a2147b65e0,,,,,,,,,,,73.8093,74.3076,74.3076,74.5578,74.5579,74.8747,right,74.8749,75.9745,0.0,1.0,1.0,0.0,1.0,0.2,0.3041,,,,,,,,,,,,,,,,,,,,,,,,,,,,,,,,,,,,,,,,,,,,,,,,,,,,,,,,,,,,,,,,,,,,,,,,,,,,,,,,,,,,,,,
,,,,,,,6613f83d1a9cf059d0af91ec,68399cf70df050021737d8f7,2025-05-30_13h56.52.620,shape_ratio,2024.1.5,Win32,59.52380952,683853e18dae57a2147b65e0,,,,,,,,,,,,,,,,,,,,,,,,,,,,75.9751,80.4079,space,1.4153,,,,,,,,,,,,,,,,,,,,,,,,,,,,,,,,,,,,,,,,,,,,,,,,,,,,,,,,,,,,,,,,,,,,,,,,,,,,,,,,,,
,,,,,,,6613f83d1a9cf059d0af91ec,68399cf70df050021737d8f7,2025-05-30_13h56.52.620,shape_ratio,2024.1.5,Win32,59.52380952,683853e18dae57a2147b65e0,,,,,,,,,,,80.4157,80.908,,,81.1588,81.4246,right,,,,,,,,0.9,0.2486,,,,,,,80.9088,81.1587,81.4252,"[0.12189664308838152,0.10943586487973643]",100.0,"[0.061586087924841125,0.022455435661080606]",100.0,"[-0.05647614259349046,-0.13659143278065264]",100.0,"[-0.17244394467112042,0.01598770879829312]",100.0,"[-0.06849733856346721,0.0001412381774105682]",100.0,"[0.19392935740913914,-0.004265915916854515]",100.0,"[0.10904866974012972,0.06811544550453026]",100.0,"[-0.07898093205053482,0.10236826039813364]",100.0,"[0.03803049292763678,-0.07014095640576143]",100.0,"[0.16095539141662588,0.05289361801873301]",100.0,"[0.01281661439384325,0.015657731150794902]",100.0,"[-0.11920658047519943,-0.05371926028592815]",100.0,"[-0.13596995833727543,0.07995542704152336]",100.0,"[-0.07387072950558775,0.04932690154114747]",4.0,"[-0.0023785828367137037,0.18785592050692698]",100.0,"[0.024054865335701683,0.07783346120535445]",100.0,"[0.16171435576111368,-0.055022156026926027]",100.0,"[0.08819097549048086,0.16636591359518518]",4.0,"[-0.005803266650998528,-0.06432115843906239]",100.0,"[-0.07988970975845965,0.17769209103426073]",100.0,"[-0.10188234279308171,-0.13972181672092213]",100.0,"[-0.0745903806045673,-0.07552232928182533]",4.0,"[-0.1294484225546314,-0.007156057852045001]",100.0,"[-0.03735224127149643,0.07049821879486005]",100.0,"[0.012636045571179047,-0.14998048897156493]",100.0,"[0.07171163241582455,0.09340327289075141]",100.0,"[0.06389034178698828,-0.10925384972635313]",100.0,"[-0.012802732525147539,0.13055067927965286]",100.0,"[0.11913709533196647,-0.1496888334724297]",100.0,"[-0.1803803622634575,0.06981512376544372]",100.0,"[0.0678423117074993,-0.15355270379170166]",100.0,"[0.11069979260399168,-0.0407396527074145]",100.0,"[0.02,0.02]",82.5247,0.0,0.0,0.0,5.0,1.0,,,,,,,
,,,,,,,6613f83d1a9cf059d0af91ec,68399cf70df050021737d8f7,2025-05-30_13h56.52.620,shape_ratio,2024.1.5,Win32,59.52380952,683853e18dae57a2147b65e0,,,,,,,,,,,82.5251,83.0246,,,83.2749,83.4746,left,,,,,,,,0.6,0.1863,,,,,,,83.0246,83.2749,83.4747,"[-0.1694205024054627,0.07945302076998731]",100.0,"[-0.12887750113654947,-0.040674512599984294]",4.0,"[-0.04725571816784486,-0.08216292608607392]",4.0,"[-0.1312119567680514,0.03348896709731415]",4.0,"[-0.007332609646696252,-0.009027053870850243]",100.0,"[-0.07299557915319056,0.09233185511875987]",4.0,"[0.04412206366383646,-0.027161637929548475]",100.0,"[0.19135684675700956,0.03163404551268415]",100.0,"[0.06477975493319975,-0.160534785289498]",4.0,"[-0.019528881966724213,-0.05059250358949288]",100.0,"[0.01920180511216129,0.13988680755074043]",100.0,"[0.07448564639977646,-0.11730186328552329]",4.0,"[0.05972493317970744,-0.07746822519874588]",100.0,"[0.03410424327794599,0.02978124956731341]",100.0,"[0.007929470061809007,-0.15514010685931146]",4.0,"[-0.1800169524313245,-0.07188027168224145]",100.0,"[0.1571961268363527,0.07508770975905663]",100.0,"[0.1258629577731927,-0.12073619358832965]",4.0,"[-0.05695742550333929,0.052951475713117334]",100.0,"[-0.013506113352447753,0.115164900782419]",100.0,"[0.039205960726862554,0.10057108797078952]",100.0,"[0.08979278913094224,0.14777032542947688]",100.0,"[-0.07360161844864524,-0.02701919927069026]",4.0,"[-0.0666158791331789,0.13429518695697734]",4.0,"[-0.19008930895073256,-0.027711274459469144]",100.0,"[-0.05186370193418947,-0.17048536210790136]",100.0,"[0.00362226534078196,0.1959931198112517]",4.0,"[-0.0420491886398694,-0.12795076013673382]",100.0,"[0.09884972631107497,-0.033588018588088527]",100.0,"[0.10328206803282496,0.07435680749809569]",100.0,"[-0.13723263999114615,-0.1368102466543143]",4.0,"[0.15495330491615456,-0.008132423171217842]",4.0,"[0.02,0.02]",84.5743,0.0,1.0,1.0,36.0,1.0,,,,,,,
,,,,,,,6613f83d1a9cf059d0af91ec,68399cf70df050021737d8f7,2025-05-30_13h56.52.620,shape_ratio,2024.1.5,Win32,59.52380952,683853e18dae57a2147b65e0,,,,,,,,,,,84.5744,85.0746,,,85.3253,85.3914,right,,,,,,,,0.55,0.0564,,,,,,,85.0747,85.3253,85.3915,"[-0.07044929292216563,0.01765805969012044]",100.0,"[0.029907156173784387,0.011373721412031702]",4.0,"[0.04326274182414658,0.179331421750946]",4.0,"[-0.011238761733679678,-0.17562956081366765]",100.0,"[-0.1399459175082718,0.13779451013927965]",4.0,"[0.010379204473431559,-0.11584751421510625]",100.0,"[-0.17306312892038936,-0.04671569789995414]",4.0,"[-0.15198040739337015,-0.08671656572939976]",4.0,"[0.07164824200662152,0.0016071073529757235]",100.0,"[-0.025559975113679204,-0.008387249950893527]",100.0,"[-0.016153857520006216,0.1992228192622746]",100.0,"[-0.05873068299029524,-0.06135682331448396]",100.0,"[-0.15168082017226536,-0.005996752273684366]",4.0,"[0.1615794655312685,0.01668712027444151]",4.0,"[0.04805328375981168,0.0472231286568531]",100.0,"[0.07755848029696932,0.14810651477641593]",4.0,"[0.04655771026690888,-0.03916153173553434]",100.0,"[-0.01425822402671343,-0.08243660851120133]",4.0,"[0.011686718121609756,0.1413210672354237]",100.0,"[0.07775098560344784,-0.08490839668949143]",4.0,"[0.13691056814092997,-0.12549039016399285]",100.0,"[0.0974027676324428,0.044424106136349104]",4.0,"[-0.04529173531044077,0.06762081352924759]",100.0,"[-0.10680132446540101,0.07979185357793976]",100.0,"[0.1356745277539566,0.1315986171534092]",4.0,"[0.08295409497481651,-0.15723963057132914]",100.0,"[0.16773662488979618,0.06635779844110998]",100.0,"[0.08398599608843185,0.1049694664173811]",100.0,"[-0.10857255167674991,-0.10528343081579015]",4.0,"[0.11919149919509686,-0.021070060598409098]",100.0,"[-0.1115411576275695,0.02271507682378868]",100.0,"[-0.00777888446115854,0.040692163964341194]",4.0,"[0.02,0.02]",86.4912,0.0,2.0,2.0,62.0,1.0,,,,,,,
,,,,,,,6613f83d1a9cf059d0af91ec,68399cf70df050021737d8f7,2025-05-30_13h56.52.620,shape_ratio,2024.1.5,Win32,59.52380952,683853e18dae57a2147b65e0,,,,,,,,,,,86.4919,86.9912,,,87.2416,88.741,,,,,,,,,0.6,,,,,,,,86.9913,87.2416,88.741,"[0.13434757488583018,-0.05688421497998774]",100.0,"[-0.028444228896319555,0.15191406452703987]",100.0,"[-0.1404849273801381,0.032543061270985094]",100.0,"[0.053610853248679216,-0.07454925422449592]",100.0,"[-0.18137359013472135,-0.03374065589029936]",100.0,"[0.028607230298767976,-0.19483283705281862]",4.0,"[0.13412593444268,0.06100512073662658]",100.0,"[0.089029963858946,0.05937448538287536]",4.0,"[0.025574899904570035,-0.04028351312863447]",4.0,"[0.08290576699662738,-0.0340312450595791]",4.0,"[0.16917476340054943,0.0857897519529591]",100.0,"[-0.13042426334088686,-0.04675557142429645]",100.0,"[0.045091488563717474,0.12438260567556748]",100.0,"[0.08260771159356621,0.14664444862779594]",100.0,"[0.15463910895434055,-0.016072268186175475]",100.0,"[0.12325502858788283,0.10471563273884633]",4.0,"[-0.08065307629455234,-0.014834275829364859]",4.0,"[-0.05572876231258107,0.08543525326503562]",100.0,"[-0.11818100638768961,0.0867576658960873]",4.0,"[0.08972866991640013,-0.11846236870912985]",4.0,"[-0.13930183337706759,-0.10099032202245324]",4.0,"[0.015698934514579516,0.0727521479524492]",100.0,"[-0.05278520464830838,-0.13958605318006947]",4.0,"[-0.1326817971738827,0.14583938525723558]",4.0,"[-0.02461609175296518,-0.04430093207640798]",100.0,"[0.09447367789683297,0.019220654944102127]",100.0,"[0.00802795168253361,-0.11543141578257042]",4.0,"[-0.038450012062339216,0.03298590490535503]",4.0,"[0.03735712822669275,0.005139302919506463]",100.0,"[-0.0967240594137825,-0.1075412390677391]",100.0,"[0.0617570608402504,-0.15964337043918983]",100.0,"[-0.11078082370365594,-0.14584206053862872]",100.0,"[0.02,0.02]",89.8412,0.0,3.0,3.0,32.0,1.0,,,,,,,
,,,,,,,6613f83d1a9cf059d0af91ec,68399cf70df050021737d8f7,2025-05-30_13h56.52.620,shape_ratio,2024.1.5,Win32,59.52380952,683853e18dae57a2147b65e0,,,,,,,,,,,89.8419,90.3412,,,90.5917,90.9912,right,,,,,,,,0.55,0.3852,,,,,,,90.3414,90.5915,90.9912,"[0.012870721339015869,0.099244542736996]",100.0,"[-0.12633252197494976,-0.03455873733143037]",100.0,"[-0.18654553602443488,-0.0020123768784890174]",4.0,"[0.05973510398870946,0.12951676040683327]",4.0,"[0.09629199236605593,-0.1497917012012125]",100.0,"[0.11343988092977235,0.0423049900140075]",4.0,"[-0.030028232985958303,-0.020063201601753653]",4.0,"[-0.003239911869495887,0.029675789809377982]",100.0,"[0.08059005382615599,-0.07693772032553961]",100.0,"[-0.03667183197543217,0.1471838501288802]",4.0,"[0.14784519404378602,0.0042282224473139075]",100.0,"[0.11394975367823396,-0.027716775725761304]",100.0,"[-0.03396355365476306,0.10017649171408866]",4.0,"[0.19391950867825278,0.014275565827500903]",100.0,"[0.021799219528088023,-0.13342952229605878]",100.0,"[-0.07901985177433853,0.099700369201478]",100.0,"[-0.14565057718144211,0.024410591166904513]",100.0,"[0.17323296558413648,0.06107528934615024]",4.0,"[0.09964343598630009,0.09979985365834262]",100.0,"[-0.043472995714615756,-0.15795654074152463]",100.0,"[-0.12918475918357913,0.11521405885298602]",4.0,"[0.0025131525040055867,-0.1990767035780187]",4.0,"[0.06904064696736059,0.17189583580442325]",100.0,"[0.10939958938658874,0.15549578346745285]",100.0,"[0.14849254449493757,0.1214417903046563]",100.0,"[-0.1711160101696353,-0.06952901983074368]",100.0,"[0.02093328290751208,0.13945780409022962]",4.0,"[0.06904642009189567,-0.11934675146385436]",4.0,"[-0.07870406307579361,-0.13042689301514376]",100.0,"[0.0303916191541514,-0.0046505705376829075]",4.0,"[0.05259271943934829,0.08741488337287912]",4.0,"[-0.08232775651147997,-0.06921282242144165]",4.0,"[0.02,0.02]",92.0912,0.0,4.0,4.0,88.0,1.0,,,,,,,
,,,,,,,6613f83d1a9cf059d0af91ec,68399cf70df050021737d8f7,2025-05-30_13h56.52.620,shape_ratio,2024.1.5,Win32,59.52380952,683853e18dae57a2147b65e0,,,,,,,,,,,92.0918,92.5913,,,92.8418,93.1581,right,,,,,,,,0.6,0.3009,,,,,,,92.5914,92.8417,93.1582,"[-0.02972928623791926,0.09000185768839782]",100.0,"[0.18566162178768844,0.0482123182609174]",100.0,"[0.14153398201919634,-0.015505856706231981]",4.0,"[-0.05575530993202046,-0.050973019616310504]",100.0,"[-0.049502705869847084,0.19216270506349875]",100.0,"[-0.1935093033110672,-0.013015467538732665]",4.0,"[-0.0011038641122106875,-0.14921878906665575]",4.0,"[0.028419998709454188,-0.027765136375567243]",100.0,"[-0.05318085915844276,0.025547578984698616]",100.0,"[0.041971963242630264,-0.14309371873464533]",4.0,"[0.180357943217875,0.005284920763680893]",100.0,"[0.13175938771932796,0.10291620691813368]",100.0,"[0.04540005799703405,-0.09989060844342977]",100.0,"[-0.04845489774203062,-0.1703256919004716]",4.0,"[-0.08037544051569466,0.10146793498317766]",4.0,"[-0.14912105321363278,-0.07972618916904436]",100.0,"[0.0051611336861844825,0.15175035685705604]",4.0,"[0.06418102264823013,0.08631448747971585]",100.0,"[-0.1341410727756386,0.08741943692634764]",100.0,"[0.0776291086015992,0.13450452712094027]",4.0,"[0.05095262530819866,0.18611355900271226]",100.0,"[-0.0024157369377622783,0.017514384778722743]",4.0,"[-0.08237620565695156,-0.08809970934172262]",4.0,"[-0.1550619319439697,0.0012171838881842526]",100.0,"[0.10334374022071188,0.03212550435245106]",100.0,"[0.08045600451203767,-0.0662689667995362]",4.0,"[0.11824292246991552,-0.05272003173818557]",100.0,"[0.11866023164629785,-0.1520016948971269]",100.0,"[-0.06577089207060303,0.13899515655164052]",100.0,"[-0.12085143746859946,-0.14924868934982694]",4.0,"[0.08258868427479972,-0.12512455930992966]",100.0,"[0.027109101601731498,-0.18508255027961787]",4.0,"[0.02,0.02]",94.2581,0.0,5.0,5.0,51.0,1.0,,,,,,,
,,,,,,,6613f83d1a9cf059d0af91ec,68399cf70df050021737d8f7,2025-05-30_13h56.52.620,shape_ratio,2024.1.5,Win32,59.52380952,683853e18dae57a2147b65e0,,,,,,,,,,,94.2588,94.7578,,,95.0083,95.2578,right,,,,,,,,0.9,0.2365,,,,,,,94.7578,95.0083,95.2578,"[0.07027408257118117,-0.11176978425592753]",100.0,"[0.06043543730459145,-0.07277041675596387]",100.0,"[0.022702175450303508,-0.12606490834142878]",100.0,"[0.07456041977849982,0.06258706888807697]",4.0,"[0.03600308321599531,0.15696125750399945]",100.0,"[-0.14070245458049985,0.14112113257066344]",100.0,"[-0.0116124865999175,0.0866905786584983]",100.0,"[-0.13311362473049632,-0.07043627694354043]",100.0,"[0.016102154820563284,-0.05877057683702049]",100.0,"[-0.03125661465576941,0.17988485792003178]",100.0,"[0.11965684286826564,-0.006755552941228297]",100.0,"[-0.09885840908586786,0.12021652408132014]",100.0,"[-0.13186951865633495,-0.14369449480531302]",100.0,"[-0.16367922315031247,-0.024840565279395408]",100.0,"[-0.04241648695321206,0.015433130610050633]",100.0,"[0.10912894397392923,0.1623781143927768]",100.0,"[-0.11766972041646225,0.03253581122469826]",4.0,"[-0.050128038311563254,0.06260435744039944]",100.0,"[0.03508612476546835,-0.16575520672950808]",100.0,"[-0.06330594873163106,-0.18541060638739673]",100.0,"[0.16721498669890128,-0.01840741734721418]",100.0,"[-0.016781871008159404,-0.1389935942759908]",4.0,"[0.10913074313508973,-0.12165247247932078]",100.0,"[0.1599806633705258,0.02432447342301213]",100.0,"[-0.07910079015980605,-0.09739444012231688]",100.0,"[-0.010575027145117342,0.14415738252313606]",100.0,"[-0.07565975712431501,-0.03533101015034937]",100.0,"[-0.06818996496233143,0.15112418594678556]",100.0,"[-0.027236537883647563,-0.0850818270291145]",100.0,"[-0.15600058964649546,0.047751924062724944]",100.0,"[-0.02656372145666432,-0.03233456355790863]",100.0,"[0.03955605090042744,0.03603592859583555]",100.0,"[0.02,0.02]",96.3578,0.0,6.0,6.0,6.0,1.0,,,,,,,
,,,,,,,6613f83d1a9cf059d0af91ec,68399cf70df050021737d8f7,2025-05-30_13h56.52.620,shape_ratio,2024.1.5,Win32,59.52380952,683853e18dae57a2147b65e0,,,,,,,,,,,96.3583,96.8578,,,97.1085,97.3077,left,,,,,,,,0.1,0.185,,,,,,,96.8578,97.1084,97.3077,"[-0.19100481874543543,-0.016873634955472103]",4.0,"[-0.04312133500782057,0.10287890863139615]",4.0,"[0.05394861473469598,-0.024410331677245226]",100.0,"[-0.06828726450655936,0.04090592165152313]",4.0,"[-0.11462820662567728,-0.14457384236603893]",100.0,"[0.07953917484232119,0.1125264651790744]",4.0,"[0.0024582058400843586,0.17584846184016376]",4.0,"[0.08643632389344064,-0.0919639593478688]",4.0,"[0.13526202979271196,0.12051156263321057]",4.0,"[-0.1648973572212968,-0.05098919674876357]",4.0,"[0.01004660148981276,-0.1960592576070107]",100.0,"[-0.006663721202273978,0.05244157467880243]",4.0,"[0.07330613838307067,-0.1665419348509479]",4.0,"[-0.0730557270737267,-0.1560945655064068]",4.0,"[0.057743850116367124,0.07111610824311553]",4.0,"[-0.011667581729098727,-0.05443851848936989]",4.0,"[0.11476398421942519,0.06613937994920317]",4.0,"[-0.0488726892522891,-0.009186650981157138]",4.0,"[0.18708458354077562,-0.054788592876981304]",4.0,"[0.09721696139848814,0.1616317433317433]",4.0,"[-0.015230655188045531,0.13947864793588388]",4.0,"[-0.13641048377933088,0.023528787749489445]",4.0,"[-0.10235379979267602,0.15353954694853703]",4.0,"[0.03744137375397064,0.10783901729990218]",4.0,"[-0.10766576565836322,-0.04328241563992818]",4.0,"[-0.032740504372622846,-0.1255627829048032]",4.0,"[-0.1643825037222264,0.07484630825490797]",4.0,"[0.13611249107631954,-0.08186980152932664]",4.0,"[0.18320997156756488,0.04728975150108996]",4.0,"[0.12443951154693997,-0.0315722462977354]",4.0,"[0.11994204668606953,0.01238542644977946]",4.0,"[0.08243296230863069,0.03422615292822598]",4.0,"[0.02,0.02]",98.408,0.0,7.0,7.0,199.0,1.0,,,,,,,
,,,,,,,6613f83d1a9cf059d0af91ec,68399cf70df050021737d8f7,2025-05-30_13h56.52.620,shape_ratio,2024.1.5,Win32,59.52380952,683853e18dae57a2147b65e0,,,,,,,,,,,98.4085,98.9079,,,99.158,99.4747,left,,,,,,,,0.4,0.2995,,,,,,,98.908,99.158,99.4747,"[0.17451712048792115,-0.029690021399461072]",4.0,"[-0.009403322958144746,0.09973760762774114]",4.0,"[-0.08564139250238874,0.1746618913651982]",100.0,"[-0.16498634905752133,0.003823230755894673]",100.0,"[-0.029581703241943265,-0.04964429453658759]",4.0,"[0.16255170414501155,0.07699933227050602]",4.0,"[-0.11168246636352162,0.04145392451701414]",100.0,"[0.11758635719289758,-0.05648830747444886]",4.0,"[0.1081422166678832,-0.11104414999129993]",4.0,"[0.015499917337396153,-0.07109813850171556]",4.0,"[-0.11197264439933491,-0.10890416619069213]",100.0,"[-0.010439380357305766,-0.18723573477590755]",4.0,"[0.007809167189030993,-0.11203634222906579]",100.0,"[-0.05931112757508121,0.10419660870703133]",100.0,"[0.10706431644961219,0.03126667356351898]",4.0,"[-0.049787446013177916,-0.13577674678394974]",100.0,"[-0.09757727875681874,-0.025550772854275112]",4.0,"[-0.1287093435730163,0.14287024237674947]",4.0,"[0.018451327150222855,0.13140556396639727]",4.0,"[0.06734108133567436,-0.09088104286550283]",100.0,"[-0.17051059109965136,0.09295568954202356]",4.0,"[-0.027030006074607656,0.005534292980493875]",4.0,"[-0.1760564069503266,-0.07465753808676615]",4.0,"[0.08007098398785514,0.061269902776592416]",4.0,"[-0.024747806823863207,0.15689123303765115]",4.0,"[-0.013668558338492273,0.059902080911181266]",100.0,"[0.10094237489022514,0.12683412599339336]",4.0,"[0.03934895860227401,-0.1659605221120203]",100.0,"[0.059638854804535894,0.002490589632857351]",4.0,"[0.11335177799165129,-0.15345073878002252]",100.0,"[0.060107249298265095,0.09671734787202738]",100.0,"[0.013072067409076144,0.00961919793322487]",100.0,"[0.02,0.02]",100.5746,0.0,8.0,8.0,167.0,1.0,,,,,,,
,,,,,,,6613f83d1a9cf059d0af91ec,68399cf70df050021737d8f7,2025-05-30_13h56.52.620,shape_ratio,2024.1.5,Win32,59.52380952,683853e18dae57a2147b65e0,,,,,,,,,,,100.5752,101.0746,,,101.3251,101.441,right,,,,,,,,0.45,0.1062,,,,,,,101.0746,101.325,101.441,"[-0.14371087356010193,-0.1352495478310012]",100.0,"[0.02757151713086889,0.03313982700141162]",100.0,"[0.08131096351742605,0.024102176472193624]",4.0,"[0.08205922135328148,-0.08946298001995465]",100.0,"[0.02257660131537624,-0.055675332106116276]",4.0,"[-0.02943556803719642,0.03152348717577726]",100.0,"[-0.11643220901038975,0.001543219410359104]",4.0,"[-0.08202346562918053,0.09233745988598362]",100.0,"[-0.02053132734933022,0.09985990518683414]",4.0,"[-0.037622080103757435,-0.1179189438899653]",100.0,"[0.022563621559385745,-0.15449957520129703]",100.0,"[0.014340459596168358,0.18302212791874645]",4.0,"[0.010053395595799167,0.12603498138651892]",100.0,"[0.1334289523018282,0.023415582965640433]",100.0,"[-0.04094429980411352,-0.19165957678951343]",4.0,"[-0.1393983958003598,0.09241360818879744]",100.0,"[-0.07078920844539786,0.1452149144206277]",4.0,"[-0.062387473361229476,-0.05669519389153246]",4.0,"[0.1890109402227802,0.061748193026580404]",4.0,"[-0.09713536238756161,-0.13368400835169644]",4.0,"[0.1901708811551983,0.018401948084031127]",4.0,"[0.05227599647894268,0.06863263818956722]",4.0,"[0.05538288004891116,0.15738415097064767]",4.0,"[0.09554047209209725,-0.15252299056507165]",4.0,"[-0.14506553617609586,-0.07256066296078739]",100.0,"[0.1418984324570915,0.10747005723466647]",4.0,"[-0.030881167841891443,0.18927782507056187]",4.0,"[-0.11410470758875452,0.15807699187996727]",100.0,"[0.13695339675898408,-0.021865779703119474]",4.0,"[0.18408509902511247,-0.024996996253025344]",100.0,"[-0.04950023853756116,-0.004398078831654174]",100.0,"[0.0841048446411279,-0.03405890611854198]",4.0,"[0.02,0.02]",102.5414,0.0,9.0,9.0,148.0,1.0,,,,,,,
,,,,,,,6613f83d1a9cf059d0af91ec,68399cf70df050021737d8f7,2025-05-30_13h56.52.620,shape_ratio,2024.1.5,Win32,59.52380952,683853e18dae57a2147b65e0,,,,,,,,,,,102.542,103.041,,,103.2917,103.4912,left,,,,,,,,0.5,0.1843,,,,,,,103.0411,103.2916,103.4913,"[-0.09778813243283349,0.0785143640897273]",100.0,"[-0.167416680976517,-0.04888047815895681]",100.0,"[0.05654941355421347,0.16080670906503736]",4.0,"[-0.11540742320760267,-0.04310673054159617]",100.0,"[0.04084715336323234,-0.11014982201712517]",4.0,"[0.16109108738052216,0.07077191281998702]",4.0,"[0.1709780155446271,-0.0710889062816873]",4.0,"[0.1336340599302205,-0.025170244651001754]",4.0,"[-0.019902117837471735,0.14798286294672766]",100.0,"[-0.0006671928354649521,0.007987075867938708]",4.0,"[-0.040007600518899,0.0831826230143263]",4.0,"[-0.09904773479974487,0.1474899789982716]",100.0,"[0.08444151222486969,-0.1318540081003752]",4.0,"[-0.09373804703057295,0.03788083984838031]",100.0,"[-0.09308283227165501,-0.00726610867863989]",4.0,"[-0.051548458645490326,-0.0953133912196266]",100.0,"[-0.012389398600397674,-0.12554917480867306]",100.0,"[-0.1327055188572179,0.12428642880336886]",100.0,"[-0.03609514648232005,-0.02529629443036882]",4.0,"[-0.1979027613595487,-0.009054532704246856]",100.0,"[-0.12307472814113984,-0.10263409885268206]",100.0,"[-0.17371715606048072,0.078427553609971]",100.0,"[-0.0318598076413135,-0.18164819739441168]",100.0,"[0.1414269369486264,-0.11654759280600138]",100.0,"[-0.0357613778941418,0.02796009906606607]",100.0,"[0.07756742434787894,0.10368947479664029]",4.0,"[0.024308575494511035,0.05347787017781971]",4.0,"[-0.10976219749314303,-0.14440439930048474]",4.0,"[0.028671632677509568,0.19443054650515817]",4.0,"[0.1495712931041707,0.11190427560017956]",100.0,"[0.04993296766420752,-0.17429915479113095]",4.0,"[0.11167784209037407,0.14261881037940652]",4.0,"[0.02,0.02]",104.5909,0.0,10.0,10.0,100.0,1.0,,,,,,,
,,,,,,,6613f83d1a9cf059d0af91ec,68399cf70df050021737d8f7,2025-05-30_13h56.52.620,shape_ratio,2024.1.5,Win32,59.52380952,683853e18dae57a2147b65e0,,,,,,,,,,,104.5911,105.091,,,105.3416,105.5413,right,,,,,,,,0.5,0.1847,,,,,,,105.091,105.3415,105.5414,"[-0.15188286722054029,-0.04713780896905743]",4.0,"[0.1020457877242544,0.023559674469468928]",100.0,"[-0.10035993299375023,0.08260836462092891]",4.0,"[-0.14421090531485808,0.09019924638528598]",100.0,"[-0.07846017268170756,-0.05965125620479864]",4.0,"[-0.10363399513083843,0.12850654833532388]",100.0,"[0.16732299715682492,-0.0663334289197601]",100.0,"[0.11508144239035668,-0.11875928183943732]",4.0,"[0.1561135774330751,0.019307632970792667]",4.0,"[-0.08017664128728565,-0.18041364289009934]",100.0,"[0.047321479536740665,0.013910753849148498]",100.0,"[0.016199913487008822,0.11658212148934359]",4.0,"[-0.11879806159983458,-0.08925788276667818]",4.0,"[-0.0649231693891013,-0.1269457662799014]",100.0,"[-0.026152945325722016,0.009268329825442815]",4.0,"[-0.04167497601476437,-0.08028064800071295]",100.0,"[-0.18255075696638767,0.05262598817722791]",4.0,"[0.07463072762299824,0.14781721450037735]",4.0,"[0.004094018288119009,0.07580464174821709]",100.0,"[-0.0660361264292691,0.18745420406621732]",100.0,"[-0.13678212690448513,-0.14487142398016817]",4.0,"[0.01779046724029779,-0.12999775424340637]",100.0,"[0.04414703438192132,-0.18689084431086217]",4.0,"[-0.0004101548598838026,-0.171076502356799]",4.0,"[0.08737235987238794,-0.1527001127126696]",100.0,"[0.06047109297439211,-0.03437293907635112]",4.0,"[0.12513613908983692,-0.025059048037206967]",100.0,"[0.09922272073235633,0.11542928835499532]",100.0,"[-0.13918938363278816,0.028106472940165935]",100.0,"[0.02620351458224329,0.15642095984000493]",4.0,"[-0.048576822802968725,0.08777700650752102]",4.0,"[0.15634921111108765,0.10135445818760741]",100.0,"[0.02,0.02]",106.6413,0.0,11.0,11.0,112.0,1.0,,,,,,,
,,,,,,,6613f83d1a9cf059d0af91ec,68399cf70df050021737d8f7,2025-05-30_13h56.52.620,shape_ratio,2024.1.5,Win32,59.52380952,683853e18dae57a2147b65e0,,,,,,,,,,,106.6417,107.1412,,,107.3915,107.5579,left,,,,,,,,0.9,0.1519,,,,,,,107.1413,107.3914,107.558,"[-0.009525674582898314,-0.18918881070214222]",100.0,"[0.05595830510142046,0.15715973591692592]",4.0,"[-0.13180608569027133,0.07550806811668342]",100.0,"[0.12382628545978396,-0.004903348470695552]",100.0,"[-0.17274445000664693,-0.019105420291675657]",100.0,"[0.11513478023093181,0.1046813163230065]",100.0,"[-0.12241488966369111,-0.15274052824755935]",100.0,"[0.0787093114355486,-0.00037280172013912284]",100.0,"[0.05976632773223679,0.05687725595657034]",100.0,"[-0.043038597683798516,0.014616771254666743]",100.0,"[0.15121983874778716,-0.06229983338566337]",100.0,"[0.12523889886669987,0.062078312205359025]",100.0,"[-0.07545557020130596,-0.03385340516814119]",100.0,"[-0.06951472784384223,0.12727801770110136]",4.0,"[0.014331673539413881,0.016052199618176152]",100.0,"[-0.059541669761647584,-0.09837077316795156]",100.0,"[0.13008073690178049,-0.09775916039760055]",100.0,"[0.1840707236688337,0.02252613317572198]",100.0,"[0.09429512095943537,-0.1731417191194689]",100.0,"[-0.04310754835045484,0.06425185795605658]",100.0,"[-0.09749347084535787,0.16483069575833736]",100.0,"[0.09345390422329593,-0.0689776201663056]",100.0,"[-0.10636981103518553,-0.09113962457357139]",100.0,"[0.007547227066450928,0.11993238481247681]",4.0,"[-0.08827133052472956,0.02743329182385662]",100.0,"[-0.046774894789528655,-0.1685789321113479]",100.0,"[0.0027980201876517743,0.1744921271314715]",100.0,"[-0.17266937560577392,-0.09078572986921712]",100.0,"[-0.12248057626961015,-0.012480259741774042]",100.0,"[-0.1698427912182598,0.03777628230313418]",100.0,"[0.03357204694607962,-0.18479465540829668]",100.0,"[0.17427008820326226,0.0674965446436388]",100.0,"[0.02,0.02]",108.658,0.0,12.0,12.0,27.0,1.0,,,,,,,
,,,,,,,6613f83d1a9cf059d0af91ec,68399cf70df050021737d8f7,2025-05-30_13h56.52.620,shape_ratio,2024.1.5,Win32,59.52380952,683853e18dae57a2147b65e0,,,,,,,,,,,108.6585,109.1579,,,109.4084,109.6248,right,,,,,,,,0.4,0.1987,,,,,,,109.1579,109.4082,109.6249,"[-0.05443570038205534,-0.012964066972482171]",4.0,"[-0.03467488301780248,-0.14266547936303425]",4.0,"[-0.08746536266202039,0.06689144431884084]",100.0,"[-0.1893542904877701,-0.03376556878298622]",4.0,"[0.07732291680457831,0.058430440054211163]",100.0,"[-0.07499945200662718,-0.16197052543762008]",4.0,"[-0.1307456840251103,0.14157237895234637]",100.0,"[0.016900172466594223,-0.12209751343815836]",100.0,"[0.04730310207238535,-0.017553618268169067]",4.0,"[0.08046117206878645,-0.15028913122815513]",4.0,"[0.10871232222191987,0.08483089269631947]",100.0,"[0.0824710455391394,-0.054113945229902594]",4.0,"[-0.08417281064915742,0.1569873804973384]",4.0,"[-0.09445862747681082,-0.02687099693647023]",100.0,"[0.14039465122104344,0.04748387034504145]",4.0,"[0.14690574310645257,0.005154526700478406]",100.0,"[-0.1820998214688646,0.01390785616846949]",4.0,"[-0.02486497192847044,0.023761397049971492]",4.0,"[-0.005456852900962154,0.06719426808779237]",100.0,"[0.06475200883618547,-0.0964943425354089]",100.0,"[-0.12194592570424137,0.09757622285056192]",4.0,"[0.13381416811942876,-0.05813916683543531]",100.0,"[-0.06916382183498808,-0.1074683681536018]",100.0,"[-0.17429017191019897,0.08511657220295801]",4.0,"[-0.1458062492530061,0.052568527312605175]",100.0,"[-0.012272970534845464,-0.0563672023860103]",100.0,"[-0.02841765320851471,-0.10141262862583793]",4.0,"[-0.13430178956316569,0.012536260943463]",4.0,"[0.06403420530763079,0.1413668216618033]",4.0,"[0.03308847745796744,-0.06183947456140797]",4.0,"[0.04298543029948175,0.19312580702198714]",4.0,"[0.11801829594049444,-0.10401959301436724]",4.0,"[0.02,0.02]",110.7247,0.0,13.0,13.0,168.0,1.0,,,,,,,
,,,,,,,6613f83d1a9cf059d0af91ec,68399cf70df050021737d8f7,2025-05-30_13h56.52.620,shape_ratio,2024.1.5,Win32,59.52380952,683853e18dae57a2147b65e0,,,,,,,,,,,110.7253,111.2245,,,111.4749,111.6577,right,,,,,,,,0.55,0.1721,,,,,,,111.2245,111.4749,111.6577,"[0.10613040615106746,0.11412292186792346]",4.0,"[0.17102446847668926,0.012131169074941356]",4.0,"[0.05831209386486179,-0.16224330799363654]",100.0,"[-0.07772943691578886,-0.037821243888066534]",100.0,"[0.01191509272182887,-0.03467055170117835]",100.0,"[-0.09874075299301979,0.03249082725259837]",4.0,"[0.031510588651871764,-0.09423730124345611]",4.0,"[0.12699541862235286,0.15439505053922523]",100.0,"[-0.10287775990517498,0.143371279367753]",100.0,"[0.06517664274193599,0.017297902228776852]",4.0,"[-0.11174223107766598,-0.06313369306348214]",100.0,"[0.08929184145918329,0.04967884623054509]",100.0,"[0.1299118252786786,-0.04692992934527977]",100.0,"[0.15418307820573807,0.04864418592784127]",100.0,"[-0.12955353154794375,-0.0014586217089548146]",4.0,"[-0.0006316925511540157,0.1395196478522162]",4.0,"[-0.10947246341410191,-0.1372064812589161]",4.0,"[-0.03231681905491998,0.10335643339714974]",4.0,"[0.009345553995829469,-0.17749908510064233]",100.0,"[0.0863614196023602,-0.07299122256833483]",4.0,"[0.1491760286664759,0.10005370399703636]",100.0,"[-0.048765505790222013,0.06333045181183944]",4.0,"[0.04631115162751606,0.13736208137092482]",100.0,"[-0.04236445052016252,-0.12707948660117172]",100.0,"[-0.0009101057464967087,0.04647477990925327]",100.0,"[0.17303685079682068,-0.04666177170462715]",100.0,"[-0.1533499374059889,-0.079231812300521]",100.0,"[-0.17005284296429407,0.03188185719092758]",100.0,"[-0.13976494276288995,0.10233714854819957]",4.0,"[-0.04185162426170256,-0.17869331155250173]",4.0,"[-0.017786843921618164,0.18532642671134567]",100.0,"[0.046307773982495214,0.06062389258183651]",4.0,"[0.02,0.02]",112.7578,0.0,14.0,14.0,81.0,1.0,,,,,,,
,,,,,,,6613f83d1a9cf059d0af91ec,68399cf70df050021737d8f7,2025-05-30_13h56.52.620,shape_ratio,2024.1.5,Win32,59.52380952,683853e18dae57a2147b65e0,,,,,,,,,,,112.7586,113.2577,,,113.5084,113.7914,left,,,,,,,,0.1,0.2731,,,,,,,113.2577,113.5084,113.7914,"[-0.13621429141040342,-0.12881587825692087]",4.0,"[0.08914572563278508,-0.13481185267613618]",4.0,"[0.12678904889609072,0.00019731191372006503]",4.0,"[-0.050198868761131124,-0.061538294692683]",4.0,"[-0.13794456198359217,-0.05542643568371592]",4.0,"[-0.1395994999530315,0.017591465285168376]",4.0,"[0.14833958736180342,-0.11766238480310236]",4.0,"[0.05881242269779574,0.09660005461526329]",4.0,"[-0.12283357644795892,0.130811615751776]",4.0,"[-0.014277039899737907,0.05876995783223116]",4.0,"[-0.052854312434932604,0.1731248296392709]",4.0,"[0.02536280535444251,-0.00241474757124191]",4.0,"[-0.18292025970675732,-0.011690853111008974]",4.0,"[-0.09607797380373673,-0.006157761600603718]",4.0,"[0.011332563480870212,-0.07249093694700093]",4.0,"[-0.04765868430274868,0.12826426160038817]",100.0,"[0.11423760006570441,-0.08860828029349728]",4.0,"[-0.036827369101994606,0.00930966997917836]",100.0,"[0.13234687612334514,0.09120403575579879]",4.0,"[0.10030690565488704,0.14630946827030183]",4.0,"[0.05996169128779041,0.03181930718956377]",4.0,"[-0.01746915718338258,0.09865950924226093]",4.0,"[-0.1815780026426905,-0.05402697964762885]",4.0,"[-0.16500102860344232,0.09963402557820687]",4.0,"[-0.06469454514744494,-0.18132108945539463]",4.0,"[-0.09932763392209663,-0.10581333474633949]",4.0,"[-0.10814177124964276,0.07174427009723024]",100.0,"[-0.06133265631011863,0.07160218432976773]",4.0,"[0.04495710985653202,-0.042536351185921]",4.0,"[0.034671584198185196,0.18882578184457163]",4.0,"[-0.01364121650970947,-0.026833702238979205]",4.0,"[0.16644949488957614,0.03406530281936276]",4.0,"[0.02,0.02]",114.8912,0.0,15.0,15.0,183.0,1.0,,,,,,,
,,,,,,,6613f83d1a9cf059d0af91ec,68399cf70df050021737d8f7,2025-05-30_13h56.52.620,shape_ratio,2024.1.5,Win32,59.52380952,683853e18dae57a2147b65e0,,,,,,,,,,,114.8917,115.3913,,,115.6418,115.9246,right,,,,,,,,0.4,0.2684,,,,,,,115.3914,115.6417,115.9247,"[-0.17584787577773858,-0.010313681296721583]",100.0,"[-0.007705540882940514,0.18540173034947732]",100.0,"[-0.06964400284085324,-0.002495089244359827]",4.0,"[-0.14573072893968142,-0.11578224757030894]",100.0,"[-0.13957992253324997,0.035985757494150235]",4.0,"[0.1287205256020215,-0.06828636683709206]",100.0,"[-0.07032069872416422,0.1857307732309291]",4.0,"[-0.06542180605032315,0.0923705573394407]",4.0,"[0.11277172994275704,0.10483378467042674]",4.0,"[-0.1345996188726175,-0.0646170297469593]",100.0,"[-0.063755762520257,-0.06963255734450585]",100.0,"[0.06288117963508769,0.16602585635465753]",4.0,"[0.060113276229886624,0.025794543876100594]",100.0,"[0.06089884010999146,0.10368819036913478]",4.0,"[0.176720943721788,-0.019187380073848844]",4.0,"[-0.01863909934549436,0.06195585441212773]",100.0,"[0.011071232105072428,-0.011461692030912594]",4.0,"[0.010406212737519729,-0.09698122209224969]",4.0,"[-0.13073325283303272,0.1470174117053708]",4.0,"[0.06688864132496512,-0.05786410300180946]",4.0,"[-0.03663863106273475,-0.131089102899553]",4.0,"[-0.011316556179036616,-0.1701493688678858]",100.0,"[0.13517650232633757,0.03887858444923664]",100.0,"[-0.11040135398054847,-0.140440422162391]",4.0,"[0.15694850448885703,0.11945617015115122]",4.0,"[0.06955759376467484,-0.11840490292633546]",100.0,"[0.12127222173407183,-0.14244573347138684]",4.0,"[0.17077223980559045,-0.06460605343982968]",4.0,"[0.029519130446580822,-0.1562239676890995]",4.0,"[0.10379750757419905,0.010878774870429396]",100.0,"[0.17370449888887968,0.07214961005267978]",100.0,"[-0.027768602990618233,0.007065736452062215]",4.0,"[0.02,0.02]",117.0247,0.0,16.0,16.0,159.0,1.0,,,,,,,
,,,,,,,6613f83d1a9cf059d0af91ec,68399cf70df050021737d8f7,2025-05-30_13h56.52.620,shape_ratio,2024.1.5,Win32,59.52380952,683853e18dae57a2147b65e0,,,,,,,,,,,117.0252,117.5246,,,117.7752,118.0413,right,,,,,,,,0.9,0.2534,,,,,,,117.5246,117.7752,118.0413,"[-0.04297271316387158,0.026443861824220483]",100.0,"[0.052005624833094934,0.18861024804214216]",100.0,"[-0.021960052016919824,-0.11331695432176545]",100.0,"[0.1501531432769846,-0.08752262128658168]",100.0,"[0.0023023954049253784,0.14735406534479775]",100.0,"[0.05400669567986479,-0.17580013250833237]",100.0,"[-0.07732499169041475,-0.010159923183019922]",4.0,"[-0.14777513035686768,0.0062032021347033645]",4.0,"[-0.0023727279773722372,-0.028872686131878784]",100.0,"[0.014900205167778326,-0.18534518540070033]",100.0,"[0.1135182860114083,-0.13725353372047536]",100.0,"[0.18624737956506415,0.007024740347095522]",100.0,"[0.1329337163486717,0.1154980264230369]",100.0,"[0.16886673870210436,-0.03380993558083251]",100.0,"[0.050279799073551984,-0.013069735313091373]",4.0,"[-0.19565490977079897,0.023885919639878083]",100.0,"[0.007760454964770513,0.09304492753569424]",100.0,"[-0.05301550644337874,-0.055172829488538855]",100.0,"[-0.07452102298135378,-0.17648698169302582]",100.0,"[0.10693191000585157,-0.06125564314162711]",100.0,"[-0.08805853928333215,0.11053543849749134]",100.0,"[-0.09862176748911237,-0.06322868572148449]",100.0,"[-0.015070534463160307,0.18681606275942458]",100.0,"[0.10154519945436095,0.03334639515969101]",100.0,"[-0.12602660330708673,0.05444838663283593]",100.0,"[0.0170192120283459,-0.07464996157836373]",100.0,"[-0.192479808156007,-0.026604474558864336]",100.0,"[-0.1533455780103032,-0.051657512942128184]",100.0,"[0.18918161908930478,0.061238641049225974]",100.0,"[-0.0767504854038981,-0.09859803872611256]",100.0,"[0.001728005142140908,0.022597012407064302]",100.0,"[-0.05831662654225077,0.17873851296765872]",100.0,"[0.02,0.02]",119.1412,0.0,17.0,17.0,15.0,1.0,,,,,,,
,,,,,,,6613f83d1a9cf059d0af91ec,68399cf70df050021737d8f7,2025-05-30_13h56.52.620,shape_ratio,2024.1.5,Win32,59.52380952,683853e18dae57a2147b65e0,,,,,,,,,,,119.1418,119.6413,,,119.8911,120.1414,left,,,,,,,,0.5,0.2363,,,,,,,119.6413,119.891,120.1414,"[0.12302018949699149,-0.12162055672530932]",4.0,"[0.16009660460741276,-0.02936311351896197]",100.0,"[-0.1489393418075339,0.04772997137432031]",100.0,"[-0.04518167147762001,-0.07165349323892084]",100.0,"[-0.103220489043602,-0.08253209115073677]",100.0,"[-0.03754037107052022,0.04487411249833502]",4.0,"[-0.12053015556323597,-0.03358123914438889]",100.0,"[0.16768058928370064,0.053882096643530095]",4.0,"[0.0870772571890944,-0.17604542171853801]",4.0,"[-0.051512204583994615,-0.010065089399068063]",100.0,"[-0.00324162753125832,0.10519176734867282]",4.0,"[0.12758549903215308,0.1235572772461504]",4.0,"[0.04495940606894753,0.15194370383144803]",100.0,"[-0.10704902697188375,0.04132928798595333]",4.0,"[0.0022150834462219583,-0.05957122933780325]",100.0,"[0.15524474581047687,-0.08916212207702894]",4.0,"[0.03729365200808177,-0.12432614735425995]",100.0,"[-0.004845791764046608,0.14696521139965935]",4.0,"[-0.12841524957592929,0.130747359923466]",100.0,"[-0.019398703781096212,-0.10789373328573064]",4.0,"[0.08661509701437371,0.08030843346751565]",4.0,"[-0.1885898850830831,-0.008937408158162222]",100.0,"[-0.053475934175789906,-0.12973658874199662]",4.0,"[0.05142303724547782,0.01339794721758912]",4.0,"[-0.14419270414573318,-0.12050860116040611]",100.0,"[-0.009775028496218096,-0.1516129120918734]",4.0,"[-0.17205141503951318,0.09057221867403331]",100.0,"[-0.04107804544643413,0.16725319793961782]",100.0,"[0.02405789163543874,0.1911494693362595]",100.0,"[-0.14729977374630304,-0.06375766627703947]",100.0,"[-0.09489835397741125,0.16893317693566048]",4.0,"[-0.03701043725134229,-0.19278967773107428]",4.0,"[0.02,0.02]",121.2412,0.0,18.0,18.0,103.0,1.0,,,,,,,
,,,,,,,6613f83d1a9cf059d0af91ec,68399cf70df050021737d8f7,2025-05-30_13h56.52.620,shape_ratio,2024.1.5,Win32,59.52380952,683853e18dae57a2147b65e0,,,,,,,,,,,121.242,121.7413,,,121.9915,122.2077,right,,,,,,,,0.6,0.2019,,,,,,,121.7413,121.9915,122.2078,"[0.0963562209173364,0.11958873607622054]",100.0,"[-0.031235524320880392,0.11852070634182599]",100.0,"[-0.056204774347438265,0.043864597116800366]",4.0,"[-0.08198178978301862,0.13776408947965077]",4.0,"[0.11112181388812627,-0.10944224615817034]",4.0,"[-0.1515545066247682,-0.12714031105136203]",4.0,"[-0.15127027384637126,0.10321081981758663]",100.0,"[0.05930860230828219,0.009292050274806164]",100.0,"[-0.005836971335952428,0.1813163730380975]",4.0,"[-0.10509505600490428,-0.08201225787017437]",4.0,"[0.018664707867210053,0.12704430400256733]",4.0,"[0.14750373169263026,0.05246059708247916]",100.0,"[0.08935992083387145,-0.0740688322739203]",100.0,"[-0.15899563295758828,0.010912480115394555]",100.0,"[0.07579506714367977,-0.18080618812737423]",4.0,"[-0.04796128110393745,-0.04209052093547832]",100.0,"[0.0395798407894508,-0.09936799525906846]",4.0,"[0.18497747267368206,0.07327442824613416]",100.0,"[-0.02830720887907777,-0.1103578115298782]",100.0,"[0.046096397351917916,-0.14224612912036502]",100.0,"[-0.08606264054854237,-0.006234521212111469]",100.0,"[0.17903942718622745,-0.039265002994884945]",100.0,"[-0.13767712363947163,0.0646813390529292]",100.0,"[-0.13201323173366436,-0.02544321595648985]",100.0,"[0.13903906710698608,0.008859886466644777]",100.0,"[0.05428660557455478,0.05484449240626491]",4.0,"[-0.1898766097438229,0.043539378159671016]",4.0,"[-0.17798516671885617,-0.06990729388836096]",4.0,"[0.04237219278464817,0.17772695293377289]",4.0,"[0.18171395498107668,0.030132560996729136]",100.0,"[-0.1952463765686524,-0.015320533256962695]",100.0,"[-0.08566206266320674,-0.14729703705847708]",100.0,"[0.02,0.02]",123.3077,0.0,19.0,19.0,39.0,1.0,,,,,,,
,,,,,,,6613f83d1a9cf059d0af91ec,68399cf70df050021737d8f7,2025-05-30_13h56.52.620,shape_ratio,2024.1.5,Win32,59.52380952,683853e18dae57a2147b65e0,,,,,,,,,,,123.3079,123.808,,,124.0582,124.4581,left,,,,,,,,0.55,0.3823,,,,,,,123.808,124.0581,124.4582,"[0.03507794010386693,0.03401039735046446]",100.0,"[0.06295021963217141,-0.17060813818080442]",100.0,"[-0.1398785607829866,0.06695283034300666]",4.0,"[-0.0673597879503503,0.1700080705745795]",4.0,"[-0.1630743075903228,-0.06446157625534198]",100.0,"[0.05528304266478523,0.19218098706059397]",100.0,"[0.09177681421643648,0.013709223454715395]",100.0,"[-0.031868155031780816,-0.19656663248293185]",100.0,"[0.13577648334073733,-0.13020502340583476]",100.0,"[-0.10292288454250213,0.04945805810422666]",4.0,"[0.09388021950718727,0.13771118182097855]",100.0,"[0.06114893975740065,-0.01620794084492292]",100.0,"[-0.15162646988340628,-0.005355125615675571]",100.0,"[-0.06046025621006574,0.08267673564546595]",4.0,"[-0.09467357779039948,0.1061398140461685]",4.0,"[0.07454857979085351,0.07533536706115428]",100.0,"[-0.17850810358492764,0.04211026165799884]",100.0,"[0.1433176141831442,-0.06030322520366073]",100.0,"[0.04201910015828045,0.11909913221295516]",4.0,"[-0.007696736487074449,-0.03781544787901237]",100.0,"[-0.13347696914062343,-0.11797664167477759]",4.0,"[0.1274249981178476,-0.007589042750442836]",4.0,"[0.18015522004597218,0.023862522168722745]",4.0,"[-0.0559834653307746,-0.13965546653005026]",100.0,"[-0.06925005644302198,-0.04541819151928277]",4.0,"[0.08035575502317024,-0.12070393229124193]",100.0,"[-0.012546690509942227,-0.08649574353562443]",100.0,"[0.02499729843855156,-0.10155336051458161]",4.0,"[-0.01586146977911391,0.020876684850246692]",4.0,"[0.1110059482069276,-0.09290715404388167]",100.0,"[-0.1889037438509021,-0.02300715315703595]",4.0,"[0.10158759873117064,-0.15551132002483833]",4.0,"[0.02,0.02]",125.5578,0.0,20.0,20.0,89.0,1.0,,,,,,,
,,,,,,,6613f83d1a9cf059d0af91ec,68399cf70df050021737d8f7,2025-05-30_13h56.52.620,shape_ratio,2024.1.5,Win32,59.52380952,683853e18dae57a2147b65e0,,,,,,,,,,,125.5581,126.058,,,126.3082,126.6743,right,,,,,,,,0.4,0.3519,,,,,,,126.0581,126.3082,126.6743,"[0.07755873247150664,-0.04511374521546316]",4.0,"[-0.11797338206330273,-0.14688157460071616]",4.0,"[-0.07877398956677048,-0.0556095568151536]",4.0,"[0.005830130935627831,-0.12648102682072584]",100.0,"[0.16339229092861823,0.014463811601684974]",4.0,"[-0.12155843967458896,-0.03155806215597216]",100.0,"[0.007452361220822341,-0.06669955432721178]",100.0,"[-0.17216871817548268,-0.04943844117455933]",100.0,"[-0.11595374869610091,-0.07930226720411733]",100.0,"[-0.004694999120364577,0.13495639408882593]",4.0,"[-0.04216545327288783,0.036966608380100026]",100.0,"[0.09700665709535246,-0.10970515598596078]",4.0,"[-0.1420670480087784,0.007370387471243625]",100.0,"[0.07736534598761508,0.12198289443572273]",100.0,"[0.017673638307497457,0.0475297907040143]",4.0,"[-0.0623135323718686,0.09546534783017589]",100.0,"[-0.16469240321293263,0.10475375092514597]",4.0,"[0.14527200740753668,-0.021284922952440798]",4.0,"[0.06041695831232911,0.1694510219054739]",4.0,"[-0.10677198043322278,0.15215587379645568]",4.0,"[0.04422316502892631,0.08276043305915286]",4.0,"[-0.10135911901444675,0.026259573942691915]",4.0,"[0.04446278519061282,-0.15979447332124072]",4.0,"[-0.1439016886589644,0.05048817713579345]",100.0,"[0.145063429587026,-0.07904687621705052]",4.0,"[-0.036524256016655154,0.18746789192741936]",100.0,"[0.012863819010267686,0.18966464030127342]",4.0,"[0.0901437489115508,0.00798131122168061]",4.0,"[-0.01589531494658855,0.0007139863143939034]",100.0,"[-0.06836181719555945,-0.10192177879126667]",100.0,"[0.14970882184644319,0.11392876525678405]",4.0,"[-0.014707255360984002,0.08018541454041783]",4.0,"[0.02,0.02]",127.7745,0.0,21.0,21.0,166.0,1.0,,,,,,,
,,,,,,,6613f83d1a9cf059d0af91ec,68399cf70df050021737d8f7,2025-05-30_13h56.52.620,shape_ratio,2024.1.5,Win32,59.52380952,683853e18dae57a2147b65e0,,,,,,,,,,,127.7753,128.2746,,,128.5252,128.9251,right,,,,,,,,0.1,0.3925,,,,,,,128.2746,128.5252,128.9253,"[0.03734979505158878,0.041604759877258875]",4.0,"[-0.13407735024312029,0.09217554742334119]",4.0,"[0.05297124624268677,-0.03671783125930345]",4.0,"[0.13563791866428593,-0.015956377504747297]",4.0,"[0.07241907300870622,0.06330056383325554]",4.0,"[0.1645291975114635,0.01650348637042088]",4.0,"[0.14483194026387106,-0.10096122457699316]",4.0,"[0.026609345717423207,0.11849744087639559]",4.0,"[-0.022366789316235935,-0.1828411996728381]",4.0,"[-0.16587584564943716,0.021808505187076468]",4.0,"[0.08459779834954911,0.16051215104231867]",4.0,"[-0.01962498202638354,0.05882045188334049]",4.0,"[-0.10875871306665663,-0.04828211783229766]",4.0,"[-0.003827551911654736,0.16073876227669165]",4.0,"[-0.14421305817304844,-0.08419455989677484]",4.0,"[0.06717728319935413,-0.14591333035750567]",4.0,"[-0.07971199483761424,0.03113245647556528]",4.0,"[-0.042382780596591514,0.17251911817968285]",100.0,"[-0.10058996604662,-0.13809425502107853]",4.0,"[0.12215118419996877,0.07100712499515442]",4.0,"[-0.0013973997800650474,0.014619117059234871]",4.0,"[0.010162763149777418,-0.08284973310107382]",4.0,"[-0.1930425111071416,-0.014868881385479996]",100.0,"[0.04024751373080854,-0.19350129114558462]",4.0,"[0.13016795720034938,0.12659777321337234]",100.0,"[-0.06714815343731491,0.07520588621891686]",4.0,"[0.08174702148187588,-0.1004885031150739]",4.0,"[0.08771610495106101,0.02432105977924267]",4.0,"[-0.059999930863323905,-0.039150552947698515]",4.0,"[0.18281269256085964,-0.06550779654421181]",4.0,"[0.012735965891485776,-0.12332203390604568]",4.0,"[-0.1008200845196732,-0.003291464271522578]",4.0,"[0.02,0.02]",130.0245,0.0,22.0,22.0,207.0,1.0,,,,,,,
,,,,,,,6613f83d1a9cf059d0af91ec,68399cf70df050021737d8f7,2025-05-30_13h56.52.620,shape_ratio,2024.1.5,Win32,59.52380952,683853e18dae57a2147b65e0,,,,,,,,,,,130.0252,130.5246,,,130.7749,131.308,left,,,,,,,,0.1,0.519,,,,,,,130.5246,130.7749,131.308,"[-0.07607924686365462,0.11954505807007172]",4.0,"[-0.14500903591711803,0.08636464843750957]",4.0,"[-0.09034246814460367,0.05183036548883302]",4.0,"[0.08050435228025245,-0.013905499072196046]",4.0,"[0.1921955048982325,0.0123252020170058]",4.0,"[0.14057943457742356,-0.12775134347618608]",4.0,"[0.000643299818755004,0.07859049113898046]",100.0,"[-0.07560857760765623,-0.16910494076940602]",4.0,"[0.16308163892194313,-0.020234752340984936]",4.0,"[-0.13329218780225346,-0.01924145127093701]",4.0,"[-0.05623460035765971,0.170035537900846]",4.0,"[-0.19291639125277518,-0.0020642396436080226]",4.0,"[-0.038763889820180635,-0.014709204230310456]",4.0,"[-0.07614577257685184,-0.11279974843912906]",4.0,"[0.00142827061564585,0.12231622828506394]",4.0,"[0.027160957893586905,-0.09714550347848781]",4.0,"[-0.014036792582692564,-0.07575699494145319]",4.0,"[0.08528013280296962,0.12168843784602386]",4.0,"[0.15028659908186812,0.08792491975299073]",4.0,"[-0.0964236955900961,0.004388048655946369]",4.0,"[-0.026462287353756195,-0.1843319288010614]",4.0,"[0.024321356977534216,-0.16582605925316343]",4.0,"[-0.025816663294752955,0.04097826965292472]",100.0,"[-0.1518458798194988,-0.06290999995752973]",4.0,"[-0.09248345201566377,-0.05134536423149081]",4.0,"[-0.17316071452976747,0.045448956831733583]",4.0,"[0.1510455184370022,-0.07082091640616654]",4.0,"[0.10614531668504787,-0.15436160563602347]",4.0,"[0.11841299323366347,0.004645713727307508]",4.0,"[0.05269601303197761,0.05895681854053307]",4.0,"[0.06941354716048044,0.16493065603075596]",100.0,"[0.11245243438890994,-0.0898456521968472]",4.0,"[0.02,0.02]",132.4079,0.0,23.0,23.0,191.0,1.0,,,,,,,
,,,,,,,6613f83d1a9cf059d0af91ec,68399cf70df050021737d8f7,2025-05-30_13h56.52.620,shape_ratio,2024.1.5,Win32,59.52380952,683853e18dae57a2147b65e0,,,,,,,,,,,132.4085,132.9079,,,133.1583,133.6579,right,,,,,,,,0.45,0.4824,,,,,,,132.9079,133.1583,133.6579,"[-0.0794326729664648,-0.034899726531005516]",4.0,"[-0.19349703136099972,0.00835412004305513]",100.0,"[-0.01944504761227067,0.046045627039783064]",100.0,"[0.007897628574877597,-0.07188229818110856]",4.0,"[-0.11101544818419141,0.03418787943913531]",4.0,"[0.13079015509505307,-0.13542011950509644]",100.0,"[0.061295462809598106,0.09613585439014176]",4.0,"[-0.12642344011918163,-0.08351924054758553]",4.0,"[0.15920475754639832,-0.005051167450709305]",4.0,"[-0.03261353118212053,-0.18381985034810353]",4.0,"[0.009632245301027933,0.08921407341852976]",100.0,"[0.09371813454775177,-0.044039021539036056]",100.0,"[-0.13259239235846956,0.10750017420034015]",100.0,"[-0.1052812988520132,-0.12231203298669306]",4.0,"[-0.15518332272942828,-0.11909102791377298]",100.0,"[-0.03754109805414351,0.10269534140879587]",4.0,"[0.046274694243029456,-0.03802499320681911]",4.0,"[0.03987741562926566,-0.15906726363496854]",4.0,"[-0.1825090567552522,0.08112826229700308]",100.0,"[-0.063308270997977,0.16905664339304857]",100.0,"[0.18412255248380308,0.059182929342460375]",100.0,"[0.1543448627763069,-0.0829002089163724]",4.0,"[0.09523424013297298,0.0038004977224838895]",4.0,"[0.1886023992621106,-0.03744962463721762]",100.0,"[-0.06369481054029094,-0.1339257478380128]",4.0,"[0.16291469394729452,0.11069210761227621]",4.0,"[-0.08925769048192837,0.1317707111993498]",100.0,"[-0.17910959245011318,-0.04838653966372934]",4.0,"[0.06854662745380469,0.15893216983934136]",100.0,"[-0.010687456095054296,0.18894499412070823]",4.0,"[0.12981175088390356,0.04082474854811611]",100.0,"[0.02168033113922847,0.03248376309264243]",4.0,"[0.02,0.02]",134.7576,0.0,24.0,24.0,123.0,1.0,,,,,,,
,,,,,,,6613f83d1a9cf059d0af91ec,68399cf70df050021737d8f7,2025-05-30_13h56.52.620,shape_ratio,2024.1.5,Win32,59.52380952,683853e18dae57a2147b65e0,,,,,,,,,,,134.7578,135.258,,,135.5083,135.9414,right,,,,,,,,0.9,0.4152,,,,,,,135.2581,135.5083,135.9415,"[-0.10100044110016881,0.08866970279899923]",100.0,"[-0.1687477524942215,-0.04044235802691645]",100.0,"[0.055959058912634536,-0.1310473229450673]",100.0,"[-0.057383343383087634,-0.1816868539502984]",100.0,"[-0.08443993707795172,-0.02425738759869736]",100.0,"[-0.06045462009391331,0.060653007906156874]",4.0,"[0.15428170322222146,0.034482223882196884]",100.0,"[-0.06868994394734809,-0.09809513481672395]",100.0,"[0.11135054582855652,0.12481081350479052]",100.0,"[-0.01511345605517476,0.030359373504816666]",100.0,"[-0.19513709626313752,0.03068915520201525]",100.0,"[0.03906004556722875,-0.03468521111749266]",100.0,"[0.03915099513865439,0.0681366098206859]",100.0,"[0.07023737573288232,0.02606407538708557]",100.0,"[-0.01807643878946563,-0.03490996488346918]",4.0,"[0.10526715073464774,0.06364223885152137]",100.0,"[-0.007034510580467776,0.12890329979773948]",100.0,"[-0.024793534834998184,-0.1358181385857089]",100.0,"[-0.04615232810584869,0.10237250127486423]",100.0,"[-0.004136917172446938,0.17632687638717878]",100.0,"[0.1786813728622529,0.07422852447291285]",4.0,"[-0.08455406121438286,0.15383247505200212]",100.0,"[0.1094703342958882,-0.09215251450508131]",100.0,"[-0.15283362553407737,-0.12734258930598688]",100.0,"[-0.1632013322070229,-0.08123102847242032]",100.0,"[0.009117465385331747,-0.19497113313623926]",100.0,"[0.1207944455597424,-0.0507985804091371]",100.0,"[0.044761827537635225,0.1461938296403098]",100.0,"[-0.1412483652607287,0.02228626075377999]",100.0,"[-0.10955094986709898,-0.15081230222005637]",100.0,"[0.192333292737074,0.0033775064368935922]",100.0,"[-0.16517668203354763,0.06996460245890194]",100.0,"[0.02,0.02]",137.041,0.0,25.0,25.0,1.0,1.0,,,,,,,
,,,,,,,6613f83d1a9cf059d0af91ec,68399cf70df050021737d8f7,2025-05-30_13h56.52.620,shape_ratio,2024.1.5,Win32,59.52380952,683853e18dae57a2147b65e0,,,,,,,,,,,137.0412,137.5415,,,137.7916,138.2412,left,,,,,,,,0.4,0.4335,,,,,,,137.5415,137.7916,138.2412,"[0.11476964410081586,0.0006533979299356185]",4.0,"[0.0006718615382766314,0.010734786650082142]",4.0,"[-0.14486048735100104,0.08025621534427123]",4.0,"[0.09194323880558064,0.13956712372332516]",4.0,"[0.15060991305119723,0.018947906619908004]",4.0,"[0.06223447630748519,0.013127470129585735]",100.0,"[0.11506104309266946,-0.1196616454645711]",4.0,"[0.15830856548350222,0.11193609013881296]",4.0,"[0.026930402668039113,0.16862378651153137]",4.0,"[-0.055253351298822244,0.13825008474532596]",4.0,"[0.03334959768483494,-0.048428527210521884]",4.0,"[0.11837731784425426,-0.07609702709828951]",4.0,"[0.0545811077860198,0.1166312071565041]",4.0,"[-0.07946481192982562,-0.11658850137331589]",100.0,"[0.10214431688307277,-0.16622654811538218]",100.0,"[-0.07267605019283954,-0.16614348375381194]",100.0,"[-0.1302488534870684,0.022195555553850686]",4.0,"[-0.18978724403305558,0.0054764288834486625]",100.0,"[0.01855874538120535,-0.0921036761338209]",100.0,"[-0.049384168814595,0.01951187597410956]",100.0,"[-0.09109079671060089,0.04391319876229548]",4.0,"[0.10024259300933865,0.0506104969432554]",4.0,"[0.04471656626078125,-0.1473911765714397]",100.0,"[-0.017748383887988748,-0.026339974524851067]",100.0,"[-0.16090752091808916,-0.04333250039789882]",100.0,"[0.07536146087234606,-0.07148407936485093]",4.0,"[-0.037402360349669005,-0.19059714533777677]",100.0,"[-0.11137665323434787,-0.013695262335069569]",4.0,"[0.15955293233771684,-0.08243558202375964]",4.0,"[-0.017161906388249906,0.06257930143497305]",100.0,"[0.13970026654346654,-0.039111450219902054]",100.0,"[-0.09439641992148219,0.09179921002916791]",4.0,"[0.02,0.02]",139.3413,0.0,26.0,26.0,175.0,1.0,,,,,,,
,,,,,,,6613f83d1a9cf059d0af91ec,68399cf70df050021737d8f7,2025-05-30_13h56.52.620,shape_ratio,2024.1.5,Win32,59.52380952,683853e18dae57a2147b65e0,,,,,,,,,,,139.3419,139.8414,,,140.0916,140.6248,right,,,,,,,,0.5,0.5223,,,,,,,139.8415,140.0915,140.6248,"[0.023015124822284103,-0.08421822043012947]",100.0,"[0.08948263636574268,0.0984033461954963]",100.0,"[-0.19001630294123326,0.053878143316548915]",4.0,"[0.1875915562423498,0.03820078405251006]",100.0,"[-0.026200567943925945,-0.14617785789692103]",4.0,"[0.12541362196975261,-0.03699233920368634]",4.0,"[-0.10435642720042117,0.09717656198342417]",4.0,"[-0.06574061029857309,0.009372684728704284]",4.0,"[0.018975407836676093,0.14160446788447562]",4.0,"[0.09953283354269375,0.042055534501443]",100.0,"[-0.14950560250577402,0.08642411093002933]",4.0,"[-0.0974970591852267,-0.14088525344661704]",4.0,"[-0.037873257034064405,-0.08913766690700005]",100.0,"[-0.130343726142521,-0.0470425850138206]",4.0,"[-0.17364282525296065,-0.020857669273873416]",100.0,"[-0.16068933980968558,0.019977840092778653]",100.0,"[-0.05718236177841105,0.17283010653750508]",100.0,"[0.16130336496251343,-0.005560140384870804]",100.0,"[0.022066292177648345,-0.02750948889675218]",100.0,"[-0.017472432178122898,0.1886717964794965]",100.0,"[0.047692419097866035,0.08040994683766595]",4.0,"[-0.043054200131184744,-0.04500721513906366]",4.0,"[-0.00495103946463821,0.09566310260419214]",4.0,"[0.06547016417485689,-0.14635876298643977]",4.0,"[0.09273461787293745,-0.1768357284477455]",100.0,"[0.16977244671017946,0.08154764429734566]",100.0,"[-0.10787958647855224,-0.1016495764392705]",100.0,"[-0.1218184408768718,-0.007789324219899577]",4.0,"[0.11556709098999216,0.15451058338152898]",4.0,"[0.02423719104896758,-0.13122977138232428]",100.0,"[0.08062879561890476,-0.07020459799338113]",4.0,"[0.06430902566140236,-0.030135360897428295]",100.0,"[0.02,0.02]",141.7246,0.0,27.0,27.0,116.0,1.0,,,,,,,
,,,,,,,6613f83d1a9cf059d0af91ec,68399cf70df050021737d8f7,2025-05-30_13h56.52.620,shape_ratio,2024.1.5,Win32,59.52380952,683853e18dae57a2147b65e0,,,,,,,,,,,141.7251,142.2246,,,142.4751,142.9411,left,,,,,,,,0.1,0.4512,,,,,,,142.2247,142.4751,142.9412,"[-0.06985594733890861,0.14004187215361302]",4.0,"[0.1299759154895131,-0.08861091414148291]",4.0,"[0.10274999265436892,0.06227158320084563]",4.0,"[-0.09196052166117408,-0.06582348922797042]",4.0,"[-0.02352468446815902,0.14230981367774959]",100.0,"[-0.03433281848892817,-0.03909426321659664]",4.0,"[-0.0319348483871082,-0.154695473952545]",4.0,"[0.04319167239319135,-0.010690822938858474]",4.0,"[-0.1606369139101642,0.08210645472989793]",4.0,"[0.07546937980224908,-0.0740038317155158]",4.0,"[-0.05746180734078416,0.09540507494586657]",4.0,"[-0.038100553035826955,0.05122815205978009]",100.0,"[-0.08757535772532102,0.027997437961068686]",4.0,"[0.1252123795594752,-0.04661375111492377]",4.0,"[0.18061410708215056,-0.012354426674962218]",4.0,"[0.09966930874677551,0.10837054276443052]",4.0,"[-0.05413753290117108,-0.1094531504575758]",4.0,"[0.01767269410645202,-0.12823012555047514]",4.0,"[0.07782260523417976,0.02169004711767816]",4.0,"[-0.07926153083354012,-0.15902543278183082]",4.0,"[0.03532170538478032,0.05850995041926338]",4.0,"[0.16156749782933114,0.040206421635609585]",4.0,"[0.048662145912826416,-0.17307360962178164]",4.0,"[-0.17210114784812827,-0.009177533367865023]",4.0,"[0.07271129564483551,0.15899080928178733]",4.0,"[0.09532202350821713,-0.1523430408465824]",4.0,"[-0.14400501489254505,-0.09187889148747877]",100.0,"[0.06704169608869642,-0.1192885529337958]",4.0,"[-0.12011140063255611,0.10079373103937146]",4.0,"[-0.010819453138392035,0.19290616979033678]",4.0,"[-0.05926199550632156,0.18088685229532572]",4.0,"[-0.1133550531447564,-0.12854816562198712]",4.0,"[0.02,0.02]",144.0416,0.0,28.0,28.0,180.0,1.0,,,,,,,
,,,,,,,6613f83d1a9cf059d0af91ec,68399cf70df050021737d8f7,2025-05-30_13h56.52.620,shape_ratio,2024.1.5,Win32,59.52380952,683853e18dae57a2147b65e0,,,,,,,,,,,144.0422,144.5414,,,144.7916,145.3412,left,,,,,,,,0.45,0.536,,,,,,,144.5414,144.7915,145.3412,"[0.14947422056386858,-0.0034740281373172458]",4.0,"[-0.10794545269709342,0.12532483930944424]",4.0,"[0.11020608611454416,0.0848834910809649]",4.0,"[-0.05716932222241159,0.02823918437895029]",4.0,"[-0.0788202535122995,-0.043174877942672635]",4.0,"[-0.009805254698382646,-0.09748358641463455]",4.0,"[-0.08783493493201233,-0.12219291491237896]",100.0,"[0.04214451573923599,-0.022423800520806683]",4.0,"[0.03018574233206149,0.16507121214534362]",100.0,"[0.000935524447062685,0.035962567075415244]",100.0,"[0.09892691835481725,-0.12379593593105773]",4.0,"[-0.16399659761731233,0.06198790622146775]",4.0,"[0.05707766032766733,-0.17604332698907554]",100.0,"[0.08391355671772568,-0.04273656356990931]",100.0,"[-0.055131370540928974,-0.15450675232198022]",4.0,"[-0.014229985244280447,-0.04248677232786131]",100.0,"[-0.124707132496571,-0.06912844927107774]",4.0,"[-0.14987662561088524,-0.13021111348025793]",100.0,"[-0.14773130624057684,0.013186559249491253]",4.0,"[0.003112360358541143,0.19579998467393647]",4.0,"[0.0881925360750073,0.17855660136949492]",100.0,"[0.11601246587547498,0.023473027713525874]",100.0,"[-0.156404510993702,0.1018710925792889]",4.0,"[0.06955787099994334,0.08960498119288758]",100.0,"[-0.061569561385307746,0.12305434475221555]",100.0,"[-0.10034705318255395,0.16812169584577882]",100.0,"[-0.1771585323479089,-0.037779461265047345]",4.0,"[0.01533820245491347,0.12683769726717264]",4.0,"[0.05094860311731581,0.019185219536111322]",4.0,"[-0.08531366764685261,0.06935622770881432]",100.0,"[0.13404977625547118,-0.050243423224954786]",100.0,"[0.16503581038865647,-0.10114016785355452]",4.0,"[0.02,0.02]",146.4409,0.0,29.0,29.0,135.0,1.0,,,,,,,
,,,,,,,6613f83d1a9cf059d0af91ec,68399cf70df050021737d8f7,2025-05-30_13h56.52.620,shape_ratio,2024.1.5,Win32,59.52380952,683853e18dae57a2147b65e0,,,,,,,,,,,146.4411,146.9413,,,147.1918,147.7246,left,,,,,,,,0.45,0.5182,,,,,,,146.9413,147.1916,147.7246,"[-0.09098191503930235,0.07746394358841213]",4.0,"[0.1895675979827895,-0.0008309983905070967]",4.0,"[-0.06107906974744091,-0.03097585025796281]",4.0,"[0.07578999654114342,0.05828952158700389]",4.0,"[-0.17483891524937145,-0.0595291629382126]",4.0,"[0.04748353620174872,0.09423248985842295]",100.0,"[-0.126494923904816,0.05224665838787601]",4.0,"[0.009040129469798206,-0.02977949281825325]",4.0,"[0.056109067184333596,-0.10732309579432435]",100.0,"[-0.08989275631642786,-0.09772677571313823]",100.0,"[-0.07592820611098602,-0.15132821252829573]",100.0,"[-0.11249975091878929,0.11332935990742218]",100.0,"[0.024065695729287614,0.13647437961728837]",4.0,"[-0.03484711861353328,0.06790416552839534]",100.0,"[-0.05615129083133403,0.013147420462616027]",4.0,"[0.10670059228702546,-0.013703258796361695]",100.0,"[0.12847392637649108,0.029351934445046513]",100.0,"[-0.13484398110365908,-0.10109531587900153]",4.0,"[0.09260857456294748,-0.05126214304533653]",4.0,"[-0.1425403844586983,-0.017418914857703867]",100.0,"[0.10147106609350035,0.11833820322358775]",100.0,"[0.12619635125528963,-0.09420360169206786]",100.0,"[0.04940666991625782,-0.02192744288860104]",4.0,"[-0.024539415382949632,-0.058736079786296955]",4.0,"[0.011299739259956927,-0.1374068860084759]",100.0,"[0.06454725136475138,-0.1630000345789681]",4.0,"[0.015095751366360387,0.19522433430259548]",100.0,"[-0.05355322911397251,0.1618423903498737]",4.0,"[-0.1836884762188077,0.0032120852779908356]",4.0,"[-0.002177030934053463,0.010007429010505341]",4.0,"[0.1849706392361134,0.05108967563583756]",100.0,"[-0.1483728939392815,0.09241747270414516]",4.0,"[0.02,0.02]",148.8244,0.0,30.0,30.0,124.0,1.0,,,,,,,
,,,,,,,6613f83d1a9cf059d0af91ec,68399cf70df050021737d8f7,2025-05-30_13h56.52.620,shape_ratio,2024.1.5,Win32,59.52380952,683853e18dae57a2147b65e0,,,,,,,,,,,148.8245,149.3242,,,149.5743,149.9914,left,,,,,,,,0.1,0.4004,,,,,,,149.3243,149.5743,149.9915,"[0.03968925295590434,-0.07131702327143616]",4.0,"[-0.046572506037680456,-0.06317989317043293]",100.0,"[-0.01933352712905226,-0.140627230360332]",4.0,"[0.1198545665676139,-0.13029096053441933]",4.0,"[-0.14787741783152436,0.09946228770110027]",4.0,"[0.06839184088476451,0.13099027643367123]",4.0,"[0.04883375857475784,0.05668132013477751]",100.0,"[-0.1279456807576669,-0.08228019702033083]",4.0,"[-0.09093482608716451,0.1527445507292907]",4.0,"[0.01914681048147283,0.025611391195318554]",4.0,"[-0.08761195626405568,-0.17267427456221826]",4.0,"[-0.05762769986122205,0.047882608552904195]",4.0,"[-0.017878036797533074,0.04288745481611538]",4.0,"[0.14677869266335716,0.12620096943051487]",4.0,"[0.03841774140654802,-0.022863295420827785]",4.0,"[-0.07617491595613109,-0.035640682116901266]",100.0,"[0.1908813721121926,0.04842466712405795]",4.0,"[-0.08830693587904204,0.003698530729973458]",4.0,"[0.03290209697631979,-0.1172159043687748]",4.0,"[-0.1452078648443691,-0.006085767623403983]",4.0,"[-0.1666478451765185,0.06314152891826287]",4.0,"[0.13301387221844466,-0.010440576054625852]",4.0,"[0.04402529435923215,-0.19449327099655]",4.0,"[-0.010471745185391616,0.1207171499467538]",4.0,"[-0.10771159991373622,0.06614349513979484]",4.0,"[0.059079500294054635,0.18010395790389186]",4.0,"[0.11041703832998254,0.14851094744910356]",4.0,"[0.16484680942963278,-0.08653926733504066]",4.0,"[0.0912596074837848,-0.10000147394320442]",4.0,"[-0.02553664876692007,0.182985041982735]",4.0,"[0.12657890123139953,-0.07046692393051603]",4.0,"[-0.002562071885317961,-0.055345182205993715]",4.0,"[0.02,0.02]",151.0913,0.0,31.0,31.0,192.0,1.0,,,,,,,
,,,,,,,6613f83d1a9cf059d0af91ec,68399cf70df050021737d8f7,2025-05-30_13h56.52.620,shape_ratio,2024.1.5,Win32,59.52380952,683853e18dae57a2147b65e0,,,,,,,,,,,151.0919,151.5913,,,151.8418,152.258,right,,,,,,,,0.5,0.399,,,,,,,151.5913,151.8417,152.2581,"[0.003108429892119828,-0.18660413964363962]",4.0,"[-0.019423480584515037,0.0980168280346931]",4.0,"[0.09378601832795265,0.021151168348741214]",100.0,"[-0.1338048577599162,0.11001496775539535]",100.0,"[0.08074805862934656,-0.04714083055275296]",100.0,"[-0.08173431237610003,-0.029920048130344164]",4.0,"[0.005018759269890691,0.053506864543450425]",4.0,"[-0.07838100980603586,-0.1129007970184512]",4.0,"[0.0623159388977807,-0.08528082020567625]",4.0,"[-0.19299424686952163,0.04587462081717318]",4.0,"[0.041113684216402525,-0.1400568879635647]",100.0,"[0.04762071984774948,-0.0008284976864603852]",100.0,"[-0.12633541694447256,-0.01598837896182266]",4.0,"[-0.0437372656153224,-0.13966187422987109]",100.0,"[0.1532197083033604,0.11876550363392983]",100.0,"[-0.01540628086079349,-0.029057681372447065]",100.0,"[-0.08007431707284035,0.15188071255148952]",4.0,"[0.1363426461917057,-0.09925721713188833]",4.0,"[-0.048310312333885996,0.012044852961065779]",4.0,"[0.12842199478488933,0.04648149839877383]",100.0,"[-0.10007967985185982,0.07661913122763797]",4.0,"[0.17692585967921304,0.00961933644365512]",100.0,"[0.08178530912370353,0.08030416857463316]",100.0,"[0.13791017099563854,-0.0035148079258751535]",100.0,"[0.013155319775885932,-0.09820296980369461]",4.0,"[-0.0626687233211674,0.10596043016778652]",100.0,"[0.08941651496526347,-0.11732653796283897]",100.0,"[-0.03905951554938953,0.15477241446802806]",4.0,"[-0.052639311509627716,0.058185855528643915]",100.0,"[0.017250482042373446,0.15477475452896577]",4.0,"[-0.04844142724933459,-0.08271744153497691]",4.0,"[-0.13138391102320468,-0.0769988168648219]",100.0,"[0.02,0.02]",153.358,0.0,32.0,32.0,114.0,1.0,,,,,,,
,,,,,,,6613f83d1a9cf059d0af91ec,68399cf70df050021737d8f7,2025-05-30_13h56.52.620,shape_ratio,2024.1.5,Win32,59.52380952,683853e18dae57a2147b65e0,,,,,,,,,,,153.3585,153.8579,,,154.1086,154.6246,left,,,,,,,,0.45,0.4983,,,,,,,153.858,154.1084,154.6247,"[0.019469842857085348,-0.06274740446667337]",100.0,"[0.0015571032861223825,-0.14201741988882058]",100.0,"[0.020463173560823854,0.09492795414388636]",4.0,"[-0.02558650482515285,-0.19131836171696417]",4.0,"[0.01384732517256463,0.16397599276946023]",4.0,"[-0.16022346867573367,0.0866829999663366]",100.0,"[0.07490261439669517,0.039594898554089146]",4.0,"[-0.10141564357447953,-0.03346971506552005]",100.0,"[-0.014028153981109398,-0.03726594610273641]",4.0,"[-0.06281812952737313,-0.13856975471066083]",4.0,"[0.04762943768280192,-0.1351553770319404]",100.0,"[0.13212739103042287,0.052380579176220146]",4.0,"[-0.1884569567673635,0.05322781457101786]",100.0,"[0.1478679677064192,0.09723711050680382]",4.0,"[0.14901732188403008,-0.06641341973045928]",4.0,"[-0.010821799901210983,0.19668820116924013]",4.0,"[-0.08672640721866161,0.03340176953662134]",100.0,"[0.09919501091865587,-0.05224275685459603]",100.0,"[0.10671341372544738,0.11826952022449129]",4.0,"[-0.11126127596847148,0.14019213700837413]",100.0,"[0.09144360926159976,-0.12784175620777977]",100.0,"[0.17242529271320975,0.05218649431367046]",100.0,"[-0.07273686851634197,0.09145294281566439]",100.0,"[-0.14977019489417653,0.12792998948044315]",4.0,"[-0.12267556568998506,0.06576783762234922]",4.0,"[-0.1353509289414229,-0.12075769587431263]",100.0,"[-0.04150303936789771,0.035998746012233226]",4.0,"[0.11518995747001728,-0.0026045067673422517]",4.0,"[-0.17078028892010805,-0.07211319531153476]",4.0,"[-0.07776148488249021,-0.07747882679302591]",4.0,"[-0.08567678080796583,0.17150218699763087]",100.0,"[0.1741215225080992,-0.01918592086465066]",4.0,"[0.02,0.02]",155.7246,0.0,33.0,33.0,137.0,1.0,,,,,,,
,,,,,,,6613f83d1a9cf059d0af91ec,68399cf70df050021737d8f7,2025-05-30_13h56.52.620,shape_ratio,2024.1.5,Win32,59.52380952,683853e18dae57a2147b65e0,,,,,,,,,,,155.7253,156.2247,,,156.475,156.9578,left,,,,,,,,0.55,0.4699,,,,,,,156.2247,156.4749,156.9578,"[-0.047110908921024895,0.02556422805704507]",4.0,"[0.004498689838982933,-0.05731212129960095]",100.0,"[0.05628645624152323,0.18296392768015815]",100.0,"[-0.08265350966514222,0.11943636981546114]",100.0,"[0.019523431937931393,-0.10054014820532362]",4.0,"[0.16444929871514694,0.016523553768652336]",4.0,"[-0.15809386922707006,-0.07602573784225025]",4.0,"[-0.08921528514480122,-0.0891663046581936]",4.0,"[0.06226968449901807,-0.1357274137948448]",100.0,"[-0.05836537724351762,-0.17595607090008494]",100.0,"[0.121180964817051,0.003592402674822476]",4.0,"[0.13041654393298313,0.09742655309444054]",100.0,"[0.06534050078391636,-0.04689617677841853]",100.0,"[-0.15754985987513723,0.10585291134380753]",100.0,"[-0.13547432063906048,0.04935990447530715]",4.0,"[-0.13660994604590482,0.0062221994001527515]",100.0,"[-0.03904979913471086,0.1067834616632861]",100.0,"[-0.04501498447835228,-0.046537884563085705]",100.0,"[0.12305452564460635,-0.14547561534726414]",4.0,"[0.08695440975851772,0.12034357931617372]",100.0,"[0.16526399749803655,-0.03044893628209594]",4.0,"[-0.007647178232421346,0.15201602486305543]",4.0,"[-0.13483528721014346,0.1396433786834014]",100.0,"[-0.1705034407574378,-0.02591229998426735]",100.0,"[-0.024225343630232744,-0.0946518915878782]",100.0,"[0.0892929665300346,-0.08490123740599592]",4.0,"[0.027904481567084197,0.04265866842980591]",100.0,"[0.021783556794665624,-0.19490874623271778]",100.0,"[-0.0864689956833021,0.16371309810774862]",4.0,"[0.0113328250696052,0.11238755070204316]",100.0,"[-0.09291151743760327,-0.045023657245490865]",4.0,"[-0.014483326402339135,-0.1360079969157299]",4.0,"[0.02,0.02]",158.0582,0.0,34.0,34.0,78.0,1.0,,,,,,,
,,,,,,,6613f83d1a9cf059d0af91ec,68399cf70df050021737d8f7,2025-05-30_13h56.52.620,shape_ratio,2024.1.5,Win32,59.52380952,683853e18dae57a2147b65e0,,,,,,,,,,,158.0588,158.5578,,,158.8083,159.2581,right,,,,,,,,0.9,0.4371,,,,,,,158.5578,158.8083,159.2581,"[-0.15983440075933694,0.04459594416727444]",100.0,"[0.18839617753288732,-0.04356954535512482]",100.0,"[0.1462978854283584,0.049595057584767635]",100.0,"[0.030777024085997542,-0.160577326151307]",4.0,"[-0.06013822103221274,0.028713450862500496]",100.0,"[0.08202074814346032,0.07331098804211982]",100.0,"[0.14847495803087848,-0.03284172292181079]",100.0,"[-0.051750658594188405,-0.05146209042381585]",100.0,"[-0.1151832405950275,-0.1484326537370016]",100.0,"[-0.11563797964561044,-0.07331073273242683]",100.0,"[0.050227475434507604,0.16856542247051035]",100.0,"[-0.13633879810094818,-0.022851482314898957]",100.0,"[-0.07349808782066243,0.10426763580013299]",100.0,"[0.07186588044268871,-0.09509623840206181]",100.0,"[-0.0960091596235299,-0.02866261188099468]",100.0,"[-0.06582836434490066,0.15933174434605318]",100.0,"[0.020931932809597473,-0.06085276478622892]",100.0,"[-0.06156378368888688,-0.10710994852114446]",100.0,"[0.1821346833197798,0.015076422552936397]",100.0,"[-0.1636944119620161,0.10039988770456482]",100.0,"[0.041726605751652865,0.1162208827091697]",100.0,"[0.012522249611641422,0.08732370943516048]",100.0,"[0.12883595962164648,-0.13191801090761374]",4.0,"[0.10844703526811897,0.03411428653066369]",100.0,"[-0.1367869760174186,0.13223324279579254]",100.0,"[0.02494149281906644,0.011922322388158005]",100.0,"[-0.18372701544235795,-0.005736008068454518]",100.0,"[0.16546694619278368,0.10002340936836447]",100.0,"[-0.031752132954494826,0.11288582043010145]",100.0,"[-0.014720691794157227,-0.02503498127316239]",100.0,"[0.08605514315783376,0.1158103544929276]",4.0,"[-0.0175713832319849,0.03544624724581905]",100.0,"[0.02,0.02]",160.358,0.0,35.0,35.0,19.0,1.0,,,,,,,
,,,,,,,6613f83d1a9cf059d0af91ec,68399cf70df050021737d8f7,2025-05-30_13h56.52.620,shape_ratio,2024.1.5,Win32,59.52380952,683853e18dae57a2147b65e0,,,,,,,,,,,160.3586,160.8581,,,161.1082,161.5746,right,,,,,,,,0.9,0.4576,,,,,,,160.8581,161.1081,161.5747,"[0.14202600368553134,-0.05249219138941678]",100.0,"[-0.14031957191277203,0.0977792477920154]",100.0,"[-0.07084596935058371,0.013802849110511746]",100.0,"[0.03897218518042878,0.11051739010514232]",100.0,"[-0.10657770781500145,-0.08429842261872898]",4.0,"[0.09496700415079898,-0.17599709445539988]",100.0,"[0.13629394826253569,0.04840872947525278]",100.0,"[-0.00015710696060285606,-0.16074042245199166]",100.0,"[-0.01107516934550716,0.06096959264260658]",100.0,"[-0.0649943154646725,-0.05350019762378586]",100.0,"[0.05887037692608312,0.17168382983517047]",100.0,"[-0.06757754232610728,0.13966461954064674]",100.0,"[-0.11800638037976557,-0.042787617496478886]",100.0,"[-0.10115197453617074,0.1642897571367835]",100.0,"[-0.014923150331563023,-0.07739767372038513]",100.0,"[0.08694196672496292,-0.08982858272449908]",100.0,"[0.07905361451198746,-0.026986072497680685]",100.0,"[0.13642123720556243,-0.13199168380938142]",100.0,"[0.05446399287402758,-0.11784871585549511]",100.0,"[-0.02398382575999769,0.13791440962308613]",4.0,"[0.1716779763401311,0.088699736583898]",100.0,"[-0.138110303566544,-0.13160285904473107]",100.0,"[0.005264258533966502,-0.11507994523243992]",100.0,"[-0.0494245255177912,-0.13923847097712153]",4.0,"[0.015390763590928882,0.15272153357087329]",100.0,"[0.05971650545292378,0.009699658195606874]",100.0,"[0.0990385243968719,0.1032367196389428]",100.0,"[-0.15879847194108657,-0.055729985157082426]",100.0,"[-0.015867614614715874,0.012559247294971066]",100.0,"[0.17783385844546595,-0.07906176724882838]",100.0,"[-0.09630143813990966,0.10144481701366027]",100.0,"[-0.003411641221142306,0.1965612488721989]",100.0,"[0.02,0.02]",162.6745,0.0,36.0,36.0,11.0,1.0,,,,,,,
,,,,,,,6613f83d1a9cf059d0af91ec,68399cf70df050021737d8f7,2025-05-30_13h56.52.620,shape_ratio,2024.1.5,Win32,59.52380952,683853e18dae57a2147b65e0,,,,,,,,,,,162.6751,163.1748,,,163.4248,163.9414,left,,,,,,,,0.55,0.5023,,,,,,,163.1748,163.4248,163.9414,"[0.08669723289436444,0.1666000150862543]",4.0,"[0.07354878698199419,-0.009381656484822408]",4.0,"[0.021161144562512998,-0.13510426247108115]",4.0,"[-0.1090012993257768,0.04431303493776838]",4.0,"[0.04059888324278075,0.13346555391115603]",100.0,"[-0.16821986593887248,0.08765650831700048]",4.0,"[-0.05704519448034132,0.18311114286056976]",100.0,"[-0.14763254557775332,-0.02888513566436681]",100.0,"[-0.011697910642506377,0.009598528036510706]",100.0,"[0.17553174675825603,0.008655249487181169]",100.0,"[0.12806557042670108,0.020337209922334454]",100.0,"[0.003150224087648271,0.09173023545869109]",100.0,"[0.11472020103452513,-0.11987374259121568]",100.0,"[0.035956259378506675,-0.06040077638535975]",4.0,"[0.18554094268154642,0.054573770031244834]",100.0,"[-0.1118738860038204,-0.11978331994366208]",100.0,"[-0.055471110344509814,0.06911235361961851]",100.0,"[0.06780451497528882,-0.08888182382875412]",4.0,"[0.15409923794762317,-0.03597128259570112]",100.0,"[0.04148130525640936,0.18648605021733913]",4.0,"[-0.03930217549268595,-0.08453460558787475]",4.0,"[-0.08699700942786755,0.005130907798317433]",100.0,"[-0.16699714098945106,0.04358012380076984]",4.0,"[-0.10535386515140129,0.16093254755214273]",100.0,"[-0.12041268518039742,0.09787518461401022]",4.0,"[-0.015097405269051276,0.15444646332872347]",4.0,"[-0.08609435461689577,0.12502561095381065]",100.0,"[0.13816410056539954,-0.07678604027643415]",4.0,"[-0.017177665595622123,0.19694495314834257]",4.0,"[0.13268503664190298,0.06421361503758827]",100.0,"[0.0926741037291143,0.0568171662621332]",100.0,"[0.017044208663036298,0.04837703250096408]",100.0,"[0.02,0.02]",165.0414,0.0,37.0,37.0,84.0,1.0,,,,,,,
,,,,,,,6613f83d1a9cf059d0af91ec,68399cf70df050021737d8f7,2025-05-30_13h56.52.620,shape_ratio,2024.1.5,Win32,59.52380952,683853e18dae57a2147b65e0,,,,,,,,,,,165.0418,165.5414,,,165.7918,166.2412,right,,,,,,,,0.6,0.43,,,,,,,165.5415,165.7918,166.2412,"[0.036740944110544974,0.0905611398957609]",100.0,"[0.048191063365754856,0.15833876063257812]",100.0,"[0.14327923837786619,-0.1272496663965991]",100.0,"[-0.10614098010662595,-0.05892670988638687]",100.0,"[-0.16915310427121488,-0.02038866336805409]",100.0,"[-0.032232612399683704,-0.0945704664846801]",4.0,"[-0.07612979600796427,-0.0016980112646661173]",4.0,"[0.05219274114168081,-0.18098906877652274]",100.0,"[0.08256320592074304,0.08947784031704098]",4.0,"[-0.07605040298657033,0.10913217775521275]",100.0,"[-0.11074393479534299,0.06043741021712915]",4.0,"[-0.08818690001777885,-0.1507344308416834]",4.0,"[0.1571378686055633,-0.029376263875196346]",100.0,"[0.1289729107948927,0.11399993864051705]",100.0,"[-0.01584211083617464,-0.053007824976503304]",4.0,"[0.12840209059254387,0.044586308285284204]",4.0,"[-0.18053576339537067,0.04928467313859808]",4.0,"[0.007309795086017344,-0.1566606283184856]",100.0,"[0.051343077518328735,-0.0010295615572319264]",100.0,"[0.09115469114749088,-0.032536875668660606]",100.0,"[0.1706109135835494,0.04023961474850268]",100.0,"[-0.0589636720014478,-0.055089810960162924]",100.0,"[-0.03072336930000971,0.09217846721729199]",100.0,"[0.15387532269236223,-0.07141213406853633]",100.0,"[-0.05020907926188424,0.1871571400133778]",4.0,"[-0.06852021992220785,0.06000418644793209]",4.0,"[-0.10574178134052117,0.136181901879337]",100.0,"[-0.158073293976717,-0.08543666732995144]",4.0,"[-0.018304015435768595,0.14670988373321886]",4.0,"[-0.02511580101243968,-0.19126574222382156]",4.0,"[0.19461197964417137,-0.04531546654969562]",100.0,"[-0.16895524447012208,0.0945391511517852]",100.0,"[0.02,0.02]",167.3412,0.0,38.0,38.0,31.0,1.0,,,,,,,
,,,,,,,6613f83d1a9cf059d0af91ec,68399cf70df050021737d8f7,2025-05-30_13h56.52.620,shape_ratio,2024.1.5,Win32,59.52380952,683853e18dae57a2147b65e0,,,,,,,,,,,167.3417,167.8414,,,168.0918,168.6579,left,,,,,,,,0.45,0.5548,,,,,,,167.8414,168.0917,168.6579,"[-0.06732743953520676,-0.03953677384175334]",4.0,"[-0.17182584058004058,-0.0716242791352092]",100.0,"[0.05325246187508303,0.03873851194669998]",4.0,"[-0.07058294768845795,0.10721175699150462]",100.0,"[0.05552125555539693,0.079455404235974]",100.0,"[-0.13446783468223794,-0.1291269290623551]",100.0,"[0.09894994880688184,0.0297243492283906]",4.0,"[0.06505225064395823,-0.006551173682614083]",4.0,"[-0.15748365059132402,-0.021717025725128087]",4.0,"[0.1991108951245276,0.017524549308909412]",4.0,"[-0.0033143005082385386,0.06439573625449418]",4.0,"[0.017483998808539274,-0.1490338187023931]",4.0,"[-0.10969500205765888,0.09650081174934755]",4.0,"[-0.021408686078200272,-0.17271669485124064]",4.0,"[-0.03159763267602639,0.11932853052574861]",4.0,"[0.01699769410581674,0.19403844635291748]",100.0,"[0.16446834767662993,-0.040778554570177726]",4.0,"[0.136387601552928,0.14409314715732546]",4.0,"[0.13838341500873227,-0.09979392953474975]",100.0,"[0.1003428587090497,-0.03766313357638544]",100.0,"[0.023193694385299213,-0.022433104394543033]",4.0,"[-0.12012960643575403,0.13558774782733615]",4.0,"[0.045168910701055845,0.12621423077639887]",100.0,"[-0.12479516810146556,-0.06765770783994147]",100.0,"[0.06526266071066124,-0.1419130623202004]",4.0,"[0.1389218314988845,0.09328999237052457]",4.0,"[-0.14206732332162836,0.04059667205916]",100.0,"[-0.006925143165014926,0.15174761245104562]",4.0,"[-0.04782066405021721,0.01078035581791259]",100.0,"[-0.06493495928974537,-0.11739647534308695]",100.0,"[-0.07863159061040703,0.036518383443620614]",100.0,"[0.1588742495660587,0.020301279025848384]",100.0,"[0.02,0.02]",169.7579,0.0,39.0,39.0,146.0,1.0,,,,,,,
,,,,,,,6613f83d1a9cf059d0af91ec,68399cf70df050021737d8f7,2025-05-30_13h56.52.620,shape_ratio,2024.1.5,Win32,59.52380952,683853e18dae57a2147b65e0,,,,,,,,,,,169.7584,170.2579,,,170.5082,171.0747,left,,,,,,,,0.4,0.5528,,,,,,,170.258,170.5082,171.0747,"[-0.14730678057913457,0.019635440507277037]",100.0,"[0.042760076456314564,0.003737601159451214]",4.0,"[0.11086293285868146,0.1121718820243888]",100.0,"[-0.061865987474487814,0.12540617215768424]",100.0,"[-0.14591895982357064,0.069565208722615]",4.0,"[0.18313933401977603,0.07114125934032982]",100.0,"[0.16917524657073615,-0.1031392778450757]",4.0,"[-0.07837600249525029,-0.0415007504116439]",4.0,"[0.03849364210348324,0.10477981447901091]",4.0,"[-0.13301409675166637,0.14307892018986146]",100.0,"[0.04411088897535414,-0.1852043977304237]",4.0,"[0.12163855052728506,-0.08235227017156999]",4.0,"[0.025239376116789836,0.1426999001889113]",100.0,"[-0.13217469610559507,-0.14264342371617159]",100.0,"[-0.030281919600474858,-0.09651259917661356]",4.0,"[0.102202131752675,-0.1585099620397482]",100.0,"[-0.029055746293062325,0.02635760414392261]",4.0,"[0.09997664205888161,-0.02337124980193478]",4.0,"[-0.18059426415218266,-0.06408465447196189]",100.0,"[0.07321526100402882,0.13889855478263693]",4.0,"[0.011248759845993746,-0.11999186406571723]",100.0,"[-0.04547634402192997,0.18019122099000018]",4.0,"[-0.03555414750171935,-0.15316926945791406]",4.0,"[0.11875602596566906,0.05278187616682622]",100.0,"[-0.02983133925879588,-0.027121732624139975]",4.0,"[0.17736014399270866,-0.05323703137619645]",4.0,"[-0.12243502184622315,-0.05584401982210912]",4.0,"[-0.17408505784435663,-0.022028102248832792]",4.0,"[-0.012410355706611373,0.09163350292321566]",4.0,"[-0.08278793165386898,-0.09603192716578562]",100.0,"[0.13902199509705682,-0.0019382892753416826]",100.0,"[-0.09255187008971319,-0.16561038286267388]",4.0,"[0.02,0.02]",172.1747,0.0,40.0,40.0,161.0,1.0,,,,,,,
,,,,,,,6613f83d1a9cf059d0af91ec,68399cf70df050021737d8f7,2025-05-30_13h56.52.620,shape_ratio,2024.1.5,Win32,59.52380952,683853e18dae57a2147b65e0,,,,,,,,,,,172.1753,172.6746,,,172.9251,173.3576,left,,,,,,,,0.5,0.4233,,,,,,,172.6747,172.925,173.3577,"[-0.0802545287397288,0.14538978176640663]",100.0,"[0.10781287015097515,-0.11952439816694399]",100.0,"[0.037061640276076065,0.1435301793195487]",100.0,"[0.029910115994290522,-0.05006796524833151]",100.0,"[-0.12213933251453832,0.1150212506607793]",100.0,"[-0.16843875694392726,-0.0031549900391837373]",4.0,"[0.18112757673495936,0.025825838968289806]",4.0,"[0.029200036898341192,0.026658263100792823]",4.0,"[0.152356175596202,-0.004558286410611888]",4.0,"[-0.1158922254313413,-0.09866745383038987]",4.0,"[-0.07637719205345042,-0.026113528579441433]",100.0,"[-0.12442664765103914,0.025054300471145072]",4.0,"[0.0952219195778272,0.112293074549957]",4.0,"[0.0877429415000793,-0.02774926485700114]",4.0,"[0.17128152104378933,-0.06322897931128975]",4.0,"[-0.01535157681933735,0.1647869105803544]",100.0,"[0.10662637890760797,0.05419084986971804]",4.0,"[0.0246913557597101,-0.17383263098798704]",4.0,"[-0.14652453357629538,-0.0552062768173704]",100.0,"[0.07611521341946283,0.018511479454089923]",100.0,"[-0.00525496651733737,0.11204941316062882]",4.0,"[0.012830060256851801,-0.1309715844117648]",4.0,"[0.09645960314889601,-0.169981740114839]",4.0,"[0.054781790672540256,0.08307336135415554]",100.0,"[-0.05062484493603071,-0.07188888251645693]",100.0,"[-0.029682556017535954,0.03031440821134093]",100.0,"[0.056892129641624115,-0.09492591610542919]",100.0,"[-0.07057544866885115,0.026385028755210167]",100.0,"[-0.106909156228968,0.07155480807912244]",4.0,"[0.1627729953347396,0.09373918202200142]",4.0,"[0.09675261947845647,0.1569046585970524]",100.0,"[-0.16608741409847264,0.059805773340931165]",100.0,"[0.02,0.02]",174.458,0.0,41.0,41.0,105.0,1.0,,,,,,,
,,,,,,,6613f83d1a9cf059d0af91ec,68399cf70df050021737d8f7,2025-05-30_13h56.52.620,shape_ratio,2024.1.5,Win32,59.52380952,683853e18dae57a2147b65e0,,,,,,,,,,,174.4584,174.9579,,,175.2085,175.5748,left,,,,,,,,0.9,0.3569,,,,,,,174.9581,175.2085,175.5748,"[-0.05080553644087671,0.1756575496482461]",100.0,"[0.024050443633942584,-0.002755518900265507]",100.0,"[-0.025387231077022468,-0.055598966393553495]",100.0,"[0.03642162396391795,0.19202229680495703]",100.0,"[0.02584472778500263,0.1095400704836562]",100.0,"[-0.10419940731058856,-0.12749696743958952]",100.0,"[-0.15127828709084531,0.12346025942366008]",100.0,"[-0.05230419339483057,0.09340716857503402]",100.0,"[-0.19105262355596073,-0.012423363657931449]",100.0,"[0.06336117596326872,0.03331671058160311]",100.0,"[0.1342974556348515,-0.0431096998632144]",100.0,"[0.14255787881353288,0.09498120589482828]",100.0,"[0.016977923068489536,0.045163891242153045]",4.0,"[-0.11626214246785235,-0.03886510177368425]",100.0,"[0.1809834042309767,-0.07932439053665406]",4.0,"[-0.18414252887154306,-0.05442364077007871]",100.0,"[0.07763221311437803,-0.012966049933485132]",100.0,"[0.05565344542074626,-0.06301659766769772]",100.0,"[0.04933680234155117,-0.11206374267942769]",100.0,"[-0.07581904882830334,-0.1749030072018066]",100.0,"[-0.19157009203669026,0.03840143142879826]",100.0,"[-0.10155180666440697,0.11812247761756543]",100.0,"[-0.05583178668989765,-0.12864260315424067]",100.0,"[-0.12426325020205653,0.027280879678830743]",100.0,"[0.10112201119783251,0.06847007340370172]",4.0,"[0.07820921365752954,0.10335515768685158]",100.0,"[0.18325032583294462,-0.0017403277877974343]",100.0,"[0.12136291178237599,0.13219683994672773]",100.0,"[-0.1664779650844507,0.07320864275552591]",100.0,"[0.1698702941850778,0.059879345883623314]",100.0,"[0.09269161142945057,-0.17192724762109407]",100.0,"[-0.07453997584434112,-0.06320954363586]",100.0,"[0.02,0.02]",176.6745,0.0,42.0,42.0,22.0,1.0,,,,,,,
,,,,,,,6613f83d1a9cf059d0af91ec,68399cf70df050021737d8f7,2025-05-30_13h56.52.620,shape_ratio,2024.1.5,Win32,59.52380952,683853e18dae57a2147b65e0,,,,,,,,,,,176.675,177.1747,,,177.425,177.8081,right,,,,,,,,0.9,0.3725,,,,,,,177.1748,177.425,177.8081,"[0.019856426232707006,0.11767187519856116]",100.0,"[0.1798203502474425,0.06245948917550763]",100.0,"[-0.009902957748933502,-0.11076145819774659]",4.0,"[-0.0314851097982044,0.06758682433584492]",100.0,"[-0.05131716535601651,0.130326286012098]",100.0,"[0.07683521186971125,0.13073357368281502]",100.0,"[-0.02546952625701028,-0.05052198493036133]",100.0,"[0.007500102792686323,0.03878927227911246]",100.0,"[0.014936769384178983,-0.03036000812751783]",100.0,"[-0.14330308472789247,-0.1083657515135662]",100.0,"[-0.14981027161729127,-0.010689879941148433]",100.0,"[0.10931887889798705,0.06856040389536597]",100.0,"[-0.0946161489278116,0.018254644738503252]",100.0,"[0.17282604204727295,-0.018288622009072948]",100.0,"[0.1536833202563033,-0.07948510511751337]",100.0,"[0.05076066301181222,0.08450033483299102]",100.0,"[0.0810062065253042,-0.17426504620373498]",100.0,"[-0.09596456057205746,-0.09368107466339784]",100.0,"[0.13701598435946527,-0.12219095788304156]",4.0,"[-0.15942974418783165,0.05046329232595659]",100.0,"[-0.17636106247856595,-0.051542991983280974]",100.0,"[0.1369234129280871,0.1457059427273846]",100.0,"[-0.11948000719634481,0.15257393986171983]",100.0,"[-0.07958941811938038,0.17833022207658827]",100.0,"[0.08256905512400088,0.002807191247660278]",100.0,"[-0.08384512742671608,0.05746708594359338]",100.0,"[-0.19617235053317225,-0.0132364001553122]",100.0,"[-0.06904333303331744,-0.15075792058176726]",100.0,"[0.12829016246164884,-0.018192143755027108]",4.0,"[0.028772666675390253,-0.08168759843733625]",100.0,"[-0.0795555989889967,-0.02911163758468732]",100.0,"[0.019241365711678445,0.157891788578014]",100.0,"[0.02,0.02]",178.9079,0.0,43.0,43.0,18.0,1.0,,,,,,,
,,,,,,,6613f83d1a9cf059d0af91ec,68399cf70df050021737d8f7,2025-05-30_13h56.52.620,shape_ratio,2024.1.5,Win32,59.52380952,683853e18dae57a2147b65e0,,,,,,,,,,,178.9084,179.4079,,,179.6583,179.9244,right,,,,,,,,0.4,0.2538,,,,,,,179.4079,179.6583,179.9245,"[-0.15211151349566468,-0.03046022984903453]",4.0,"[0.06375152153960263,0.1104123672727294]",100.0,"[-0.039103069373142736,0.11216459212831305]",100.0,"[0.04434600075153143,0.016245748148649434]",4.0,"[0.1375248293808335,-0.1049027616300133]",100.0,"[-0.090405082219407,-0.1428459273805439]",100.0,"[0.0028790981550264887,0.1776637810422079]",100.0,"[0.024921935040498503,-0.15055831744600656]",4.0,"[0.13904054300066745,0.04607840801597492]",100.0,"[0.16206172246093073,-0.022713784330874915]",100.0,"[0.19384588839523578,0.04237130162126632]",100.0,"[0.14722118288176875,-0.05998753237715392]",4.0,"[-0.13833937518938383,-0.12636225539317034]",4.0,"[0.10393930097948846,-0.02345993154279021]",4.0,"[0.10506676234578766,0.09559706452540837]",4.0,"[0.04159035125216654,-0.09341157138596802]",4.0,"[0.01491758754032396,-0.03885263125792071]",4.0,"[-0.11005676763740208,-0.026643300668446324]",4.0,"[-0.0634013846017514,0.16078313063046804]",4.0,"[-0.03122537561776486,-0.04603285663464742]",100.0,"[0.0810262523579798,-0.15990636186749219]",4.0,"[0.026429314711970072,0.09268356970640644]",4.0,"[-0.045523943064020626,0.016437622888438874]",4.0,"[0.08393855387439272,0.15560506372137306]",4.0,"[-0.1580317291167069,-0.09066069497950059]",100.0,"[-0.0846590270852676,-0.07286523358622869]",4.0,"[-0.035519525428756325,-0.19214822978647456]",4.0,"[-0.16074484345111903,0.0879289907887788]",100.0,"[-0.1055282634156871,0.0356325693005065]",4.0,"[-0.039407385927365035,-0.0955763681797234]",100.0,"[-0.10727702511521107,0.1601510416547842]",100.0,"[0.1334142477769482,0.12641981149859002]",4.0,"[0.02,0.02]",181.0245,0.0,44.0,44.0,170.0,1.0,,,,,,,
,,,,,,,6613f83d1a9cf059d0af91ec,68399cf70df050021737d8f7,2025-05-30_13h56.52.620,shape_ratio,2024.1.5,Win32,59.52380952,683853e18dae57a2147b65e0,,,,,,,,,,,181.0252,181.5243,,,181.775,182.1581,right,,,,,,,,0.5,0.3682,,,,,,,181.5243,181.775,182.1581,"[-0.019756237419771096,-0.05443764244061196]",4.0,"[-0.15536205208250772,-0.054740628831070615]",4.0,"[-0.1251436306234656,-0.01217013159766863]",100.0,"[0.1332311249032979,-0.037020356584875666]",4.0,"[-0.0451962861296235,0.07329329257753678]",100.0,"[0.034130800853906997,0.021589076931494932]",4.0,"[0.043875172562564756,-0.19124427269891137]",4.0,"[-0.14539143748527023,0.07018173077060774]",4.0,"[-0.19927308660000734,-0.012731563656514575]",4.0,"[0.11977165496384215,0.11558707295742232]",100.0,"[0.05613145476135624,0.18488792761463954]",4.0,"[-0.0961660222736618,-0.13896842891494882]",4.0,"[0.040040339762480996,-0.12385558749344117]",100.0,"[-0.06049165837249115,0.02525768887495357]",100.0,"[-0.018528045989194705,0.008907295467704893]",100.0,"[0.11924302820190923,-0.11519266375184654]",100.0,"[-0.02464934411113653,0.15311548547141599]",100.0,"[-0.11144871774835981,-0.07303783013117339]",100.0,"[0.10660302720569365,0.031119114453029333]",4.0,"[-0.06053851626912524,-0.07536199160421887]",100.0,"[0.10501596456201595,0.07381770643986471]",100.0,"[-0.08190192376332045,0.16041531907857745]",100.0,"[-0.03067030060287085,0.1967170354176196]",100.0,"[-0.011083513443388558,-0.17426626009018184]",4.0,"[0.14638036501621143,0.035690147676847264]",100.0,"[0.17827636193153726,-0.047081885324753596]",4.0,"[0.06391542395646102,0.05962891085975932]",100.0,"[-0.14982908207279522,0.1139319564008113]",100.0,"[-0.014016751014330028,-0.10696743043438724]",4.0,"[-0.10077893751003435,0.03871270254318756]",4.0,"[-0.13665073584133702,-0.14045659199104324]",4.0,"[-0.063072491076415,-0.18216468848271372]",4.0,"[0.02,0.02]",183.258,0.0,45.0,45.0,96.0,1.0,,,,,,,
,,,,,,,6613f83d1a9cf059d0af91ec,68399cf70df050021737d8f7,2025-05-30_13h56.52.620,shape_ratio,2024.1.5,Win32,59.52380952,683853e18dae57a2147b65e0,,,,,,,,,,,183.2584,183.7579,,,184.008,184.3583,left,,,,,,,,0.6,0.3345,,,,,,,183.7579,184.008,184.3583,"[0.018989281109012723,0.09618780313432063]",100.0,"[0.07201525306291057,0.02153888888248985]",100.0,"[-0.1691870828158531,0.024758631452417423]",100.0,"[0.035441976805295324,-0.06362042533724692]",4.0,"[0.18344598963052683,0.05786471833466792]",4.0,"[-0.030332590562175642,-0.03398880107894355]",100.0,"[0.16789687287775715,-0.05843248241689258]",4.0,"[-0.1801164857059354,-0.07177644960120155]",4.0,"[-0.060458072073849296,0.08354906684261783]",4.0,"[-0.0856697754909498,0.0007315934047991977]",100.0,"[0.123749740066222,0.11125082312090133]",100.0,"[0.11278720754462607,-0.0481308291388866]",4.0,"[0.13953754430833826,0.03333397019855886]",100.0,"[-0.12459545447163142,0.07840782903135456]",100.0,"[-0.12023545513859349,0.15795446857750858]",100.0,"[-0.07075188261342906,0.13430228144425996]",4.0,"[0.024075567980182705,0.14010351394609852]",4.0,"[-0.042812746670621675,0.1642901463551338]",4.0,"[0.05790870241401518,0.19110525155691663]",100.0,"[-0.0008972291912752038,-0.08298160767412782]",4.0,"[0.07945651357025584,-0.11393431146656462]",4.0,"[-0.07976891169629424,-0.141075100233478]",100.0,"[-0.03169221937735243,-0.13434171013764018]",4.0,"[-0.06179473454812389,-0.07478737332110728]",100.0,"[0.002983485493993963,-0.1703787362171178]",4.0,"[0.17987787747819878,0.017377271490873102]",100.0,"[-0.11610063070018893,0.0391080523684075]",100.0,"[0.09647068081333277,0.1639053042627474]",100.0,"[0.027513955991096784,-0.11173035034001438]",100.0,"[0.07131277836978962,0.12775192497202542]",100.0,"[-0.045434516274417976,0.03449669558313603]",100.0,"[0.13572719262738145,-0.10234633410609383]",100.0,"[0.02,0.02]",185.4582,0.0,46.0,46.0,59.0,1.0,,,,,,,
,,,,,,,6613f83d1a9cf059d0af91ec,68399cf70df050021737d8f7,2025-05-30_13h56.52.620,shape_ratio,2024.1.5,Win32,59.52380952,683853e18dae57a2147b65e0,,,,,,,,,,,185.4588,185.958,,,186.2085,186.558,right,,,,,,,,0.55,0.3407,,,,,,,185.9581,186.2084,186.558,"[0.03984928437820692,0.14162328480108008]",100.0,"[0.01101311947145211,-0.12482074754117976]",4.0,"[-0.15031769762557234,-0.1047420409523781]",4.0,"[0.127927298118398,0.07271237328574913]",4.0,"[0.003547800678779401,-0.06970511451156118]",4.0,"[0.05455727056473835,-0.17777226099283974]",100.0,"[-0.043862711911928046,-0.15065092653402604]",4.0,"[-0.05515907082721157,-0.05651182974200111]",4.0,"[0.19390431137675565,-0.025741027723469426]",4.0,"[0.04077355698117885,0.0019855236561008693]",100.0,"[-0.14908900929754704,0.020713617913692032]",100.0,"[0.05702006866916626,-0.07423096451740815]",100.0,"[-0.01986621385492928,0.09088086231463348]",100.0,"[-0.0006397139097001348,-0.1973283908623748]",4.0,"[0.09662282463152723,-0.14091954422262545]",100.0,"[0.16223279341031982,0.00768820015841894]",4.0,"[0.14072939838766102,-0.07354955296319628]",100.0,"[0.14516845158515151,-0.1234268858627425]",100.0,"[-0.0958883539834302,0.04000139776489897]",100.0,"[-0.12878344105828385,0.09168659432181957]",100.0,"[0.007888181578299491,0.18962294726932097]",100.0,"[-0.07823899228801458,0.1427396061577514]",100.0,"[0.10596789889536438,-0.030035659498030234]",4.0,"[-0.06509337856283183,0.086441482764046]",100.0,"[-0.0009974188371595122,0.022020497184908942]",100.0,"[-0.08113266389321344,-0.11643372029422902]",100.0,"[0.17787195962303884,0.08953726568655121]",4.0,"[-0.03935438929067572,-0.10122521655420208]",100.0,"[-0.03290996577814913,0.1593190705132966]",4.0,"[0.10507939344167762,0.03798768933840811]",4.0,"[-0.08068281376941859,0.0015785073831579145]",100.0,"[0.028721366655078205,0.07962423993369827]",4.0,"[0.02,0.02]",187.658,0.0,47.0,47.0,65.0,1.0,,,,,,,
,,,,,,,6613f83d1a9cf059d0af91ec,68399cf70df050021737d8f7,2025-05-30_13h56.52.620,shape_ratio,2024.1.5,Win32,59.52380952,683853e18dae57a2147b65e0,,,,,,,,,,,187.6585,188.1578,,,188.4077,188.7915,right,,,,,,,,0.9,0.3663,,,,,,,188.1579,188.4077,188.7915,"[0.030877387523725364,0.18983537468320988]",4.0,"[0.1788275910828232,0.06535123884201567]",100.0,"[0.0701020378282854,0.14139039963036978]",100.0,"[0.012953895947424793,-0.1223248694725007]",100.0,"[-0.1912119471621944,0.039987780383533074]",100.0,"[0.12185726948895458,-0.13608386384421167]",100.0,"[-0.14715761626785795,0.10867203276501221]",100.0,"[0.022871711792369704,0.036749613327334785]",100.0,"[0.17591501097735782,0.0004744704362875765]",100.0,"[-0.07144931039345469,-0.12972489729958978]",100.0,"[0.11558687004497535,-0.022619005766786833]",4.0,"[0.04192376562086094,-0.09345275626416434]",100.0,"[-0.18638537451316917,-0.025704806339352678]",100.0,"[0.15367698074938782,-0.05764469714899751]",100.0,"[-0.08956675200819182,0.12244919493030243]",100.0,"[0.08245728153485091,-0.16221348112003905]",100.0,"[0.09123896229957212,-0.06070296310177214]",4.0,"[-0.10383717790882165,-0.061352193650284575]",100.0,"[-0.007196546507292807,-0.17181428023480405]",100.0,"[-0.13410136071012774,0.06056847483886271]",100.0,"[0.04574882162880009,0.07565097204631278]",100.0,"[-0.04346858831897936,0.10626735833640098]",100.0,"[-0.14428959821470322,-0.045120860611592754]",100.0,"[0.016268177251224245,0.1280992363524018]",100.0,"[-0.14176976888425935,-0.0002015330994073763]",100.0,"[-0.0018017130162621777,-0.053824644060743033]",100.0,"[-0.05039869244415799,-0.0194058368202664]",100.0,"[-0.1775647813100651,-0.07533004459279752]",100.0,"[-0.1423823755586965,-0.0998245578990395]",100.0,"[0.0727440963391573,-0.02311369090083422]",100.0,"[-0.04401240703847946,-0.09245903664864057]",100.0,"[-0.09368442107630141,0.07598427765648724]",100.0,"[0.02,0.02]",189.8912,0.0,48.0,48.0,7.0,1.0,,,,,,,
,,,,,,,6613f83d1a9cf059d0af91ec,68399cf70df050021737d8f7,2025-05-30_13h56.52.620,shape_ratio,2024.1.5,Win32,59.52380952,683853e18dae57a2147b65e0,,,,,,,,,,,189.8917,190.3912,,,190.6417,190.958,right,,,,,,,,0.9,0.2979,,,,,,,190.3912,190.6417,190.9581,"[-0.08262723601785073,-0.0028820682308482127]",4.0,"[-0.0003383606959707864,0.16247259053387358]",100.0,"[-0.003369299179089517,-0.007212422887083855]",100.0,"[0.038130010608916104,-0.08481756347994415]",4.0,"[0.04277456232592681,-0.14851766432089983]",100.0,"[-0.10316626039785456,-0.0750150731755541]",100.0,"[0.06781494414549236,0.06911874421084438]",100.0,"[-0.16530669059202302,0.0018668312068706378]",100.0,"[0.12473956536459853,-0.047321775270479746]",100.0,"[-0.14893212889773128,0.10886209868735444]",100.0,"[-0.03579390910302052,0.020442461236955773]",100.0,"[0.150606314635816,-0.11058486197867438]",100.0,"[-0.18056338619337126,-0.07760070436967008]",100.0,"[0.1542361350280504,-0.011997243667690557]",100.0,"[-0.14963885932625592,0.053424949836193565]",100.0,"[0.1126361694995495,0.044126059712596824]",100.0,"[0.06682757468709188,-0.016947183610086423]",100.0,"[0.1783289367271236,0.06412755905596801]",4.0,"[0.11223106494944221,0.08458784866407382]",100.0,"[0.06591997284280239,0.11563609779873958]",100.0,"[0.12965809847505666,0.14068113784078956]",100.0,"[-0.09757878116216277,-0.13612146904099462]",100.0,"[-0.15499744475340524,-0.10988279743168057]",100.0,"[-0.020508080043487358,0.10098769784433226]",100.0,"[-0.05890109140327987,-0.17200987214712884]",100.0,"[0.07169313328124755,0.1696176939544664]",100.0,"[-0.019729440566080773,-0.15470746209283207]",100.0,"[0.1708511268193418,-0.04887092050682277]",100.0,"[-0.06527072618847213,-0.11076573084059899]",100.0,"[0.049878923505730005,-0.19212871778438792]",100.0,"[-0.035242025429801274,-0.07628996484354579]",100.0,"[-0.10658036105619961,0.05820113947373404]",100.0,"[0.02,0.02]",192.058,0.0,49.0,49.0,4.0,1.0,,,,,,,
