right,left,explain.started,explain.stopped,key_resp_3.keys,key_resp_3.rt,key_resp_3.duration,participant,session,date,expName,psychopyVersion,OS,frameRate,study_id,explain_2.started,explain_2.stopped,key_resp_4.keys,key_resp_4.rt,key_resp_4.duration,explain_3.started,explain_3.stopped,key_resp_5.keys,key_resp_5.rt,key_resp_5.duration,fixation.started,fixation.stopped,practice.started,practice.stopped,response.started,response.stopped,key_resp.keys,key_resp.rt,key_resp.duration,feedback.started,feedback.stopped,trials_2.thisRepN,trials_2.thisTrialN,trials_2.thisN,trials_2.thisIndex,trials_2.ran,dot_ratio,explain_4.started,explain_4.stopped,key_resp_6.keys,key_resp_6.rt,key_resp_6.duration,dotDisplay.started,dotDisplay.stopped,ITI.started,polygon_1.pos,polygon_1.edges,polygon_2.pos,polygon_2.edges,polygon_3.pos,polygon_3.edges,polygon_4.pos,polygon_4.edges,polygon_5.pos,polygon_5.edges,polygon_6.pos,polygon_6.edges,polygon_7.pos,polygon_7.edges,polygon_8.pos,polygon_8.edges,polygon_9.pos,polygon_9.edges,polygon_10.pos,polygon_10.edges,polygon_11.pos,polygon_11.edges,polygon_12.pos,polygon_12.edges,polygon_13.pos,polygon_13.edges,polygon_14.pos,polygon_14.edges,polygon_15.pos,polygon_15.edges,polygon_16.pos,polygon_16.edges,polygon_17.pos,polygon_17.edges,polygon_18.pos,polygon_18.edges,polygon_19.pos,polygon_19.edges,polygon_20.pos,polygon_20.edges,polygon_21.pos,polygon_21.edges,polygon_22.pos,polygon_22.edges,polygon_23.pos,polygon_23.edges,polygon_24.pos,polygon_24.edges,polygon_25.pos,polygon_25.edges,polygon_26.pos,polygon_26.edges,polygon_27.pos,polygon_27.edges,polygon_28.pos,polygon_28.edges,polygon_29.pos,polygon_29.edges,polygon_30.pos,polygon_30.edges,polygon_31.pos,polygon_31.edges,polygon_32.pos,polygon_32.edges,dot_size,ITI.stopped,trials.thisRepN,trials.thisTrialN,trials.thisN,trials.thisIndex,trials.ran,break_2.started,break_2.stopped,trials_3.thisRepN,trials_3.thisTrialN,trials_3.thisN,trials_3.thisIndex,trials_3.ran
subject chose dot,subject chose diamond,0.0001,37.0113,space,21.9984,,6617c54a41ce14946db85944,68399d3d763592f1b67b7380,2025-05-30_13h57.59.147,shape_ratio,2024.1.5,MacIntel,60.24096386,683853e18dae57a2147b65e0,,,,,,,,,,,,,,,,,,,,,,,,,,,,,,,,,,,,,,,,,,,,,,,,,,,,,,,,,,,,,,,,,,,,,,,,,,,,,,,,,,,,,,,,,,,,,,,,,,,,,,,,,,,,,,,,,
,,,,,,,6617c54a41ce14946db85944,68399d3d763592f1b67b7380,2025-05-30_13h57.59.147,shape_ratio,2024.1.5,MacIntel,60.24096386,683853e18dae57a2147b65e0,37.0116,68.2762,space,1.2354,,,,,,,,,,,,,,,,,,,,,,,,,,,,,,,,,,,,,,,,,,,,,,,,,,,,,,,,,,,,,,,,,,,,,,,,,,,,,,,,,,,,,,,,,,,,,,,,,,,,,,,,,,,,,
,,,,,,,6617c54a41ce14946db85944,68399d3d763592f1b67b7380,2025-05-30_13h57.59.147,shape_ratio,2024.1.5,MacIntel,60.24096386,683853e18dae57a2147b65e0,,,,,,68.2764,71.8264,space,0.5327,,,,,,,,,,,,,,,,,,,,,,,,,,,,,,,,,,,,,,,,,,,,,,,,,,,,,,,,,,,,,,,,,,,,,,,,,,,,,,,,,,,,,,,,,,,,,,,,,,,,,,,,
,,,,,,,6617c54a41ce14946db85944,68399d3d763592f1b67b7380,2025-05-30_13h57.59.147,shape_ratio,2024.1.5,MacIntel,60.24096386,683853e18dae57a2147b65e0,,,,,,,,,,,71.8497,72.343,72.3433,72.5938,72.5941,73.4601,right,0.8356,,73.4602,74.5599,0.0,0.0,0.0,1.0,1.0,0.8,,,,,,,,,,,,,,,,,,,,,,,,,,,,,,,,,,,,,,,,,,,,,,,,,,,,,,,,,,,,,,,,,,,,,,,,,,,,,,,,,,,,,,
,,,,,,,6617c54a41ce14946db85944,68399d3d763592f1b67b7380,2025-05-30_13h57.59.147,shape_ratio,2024.1.5,MacIntel,60.24096386,683853e18dae57a2147b65e0,,,,,,,,,,,74.5606,75.0597,75.0597,75.31,75.3102,75.7598,left,0.4332,,75.7599,76.8596,0.0,1.0,1.0,0.0,1.0,0.2,,,,,,,,,,,,,,,,,,,,,,,,,,,,,,,,,,,,,,,,,,,,,,,,,,,,,,,,,,,,,,,,,,,,,,,,,,,,,,,,,,,,,,
,,,,,,,6617c54a41ce14946db85944,68399d3d763592f1b67b7380,2025-05-30_13h57.59.147,shape_ratio,2024.1.5,MacIntel,60.24096386,683853e18dae57a2147b65e0,,,,,,,,,,,,,,,,,,,,,,,,,,,,76.8601,80.6268,space,0.7365,,,,,,,,,,,,,,,,,,,,,,,,,,,,,,,,,,,,,,,,,,,,,,,,,,,,,,,,,,,,,,,,,,,,,,,,,,,,,,,,,,
,,,,,,,6617c54a41ce14946db85944,68399d3d763592f1b67b7380,2025-05-30_13h57.59.147,shape_ratio,2024.1.5,MacIntel,60.24096386,683853e18dae57a2147b65e0,,,,,,,,,,,80.645,81.1431,,,81.3941,81.9265,left,0.5208,,,,,,,,,0.4,,,,,,81.1436,81.394,81.927,"[0.031839196669997495,0.03294961379118625]",4.0,"[0.0915355818979271,-0.08183381039272487]",4.0,"[-0.030978988377190052,0.17200235060564123]",4.0,"[-0.18439942570146894,0.06466787826875521]",100.0,"[-0.002631090747646208,-0.18380503843735183]",100.0,"[-0.10661437781554893,0.03855907637911913]",4.0,"[-0.04377488181176221,0.03179595712707705]",4.0,"[-0.0943873949725754,-0.000024955323726908992]",100.0,"[0.17549476762775423,-0.06404336635733612]",100.0,"[0.15381118828793625,0.03199591621404696]",4.0,"[-0.07232835742142305,0.0969060420364636]",4.0,"[0.053441503589331925,0.18121489445928987]",4.0,"[-0.16407130409917628,-0.038351099291577824]",4.0,"[0.1272382277879338,0.15222577144426314]",100.0,"[0.07356473401063882,-0.03837341868851197]",100.0,"[-0.06549948154726463,-0.1503948234401077]",4.0,"[0.06681036396373365,0.08176768696495691]",4.0,"[0.10748661872622987,-0.12241236579691689]",100.0,"[-0.04516622959272263,-0.01567708659730247]",100.0,"[0.0764905026572694,0.14602545295623487]",4.0,"[0.0028605390434640553,-0.0120727485542019]",4.0,"[-0.12981425312981398,0.11200159441491685]",100.0,"[0.09133497335446575,0.008855945965915026]",4.0,"[0.1084746620846065,0.05673673466278515]",4.0,"[0.14184657548726767,-0.02478145086403837]",100.0,"[0.19367343926840852,0.026518119801763485]",4.0,"[-0.1976742103667408,-0.012461640621725063]",100.0,"[0.007202913724673507,0.06970537229232915]",4.0,"[0.00008476044443984216,-0.08062603534647178]",4.0,"[-0.10851411987877428,-0.09414718548302278]",100.0,"[-0.12097028971631824,-0.1584727376800926]",100.0,"[-0.04266964417882888,-0.19120469669850546]",4.0,"[0.02,0.02]",83.0266,0.0,0.0,0.0,175.0,1.0,,,,,,,
,,,,,,,6617c54a41ce14946db85944,68399d3d763592f1b67b7380,2025-05-30_13h57.59.147,shape_ratio,2024.1.5,MacIntel,60.24096386,683853e18dae57a2147b65e0,,,,,,,,,,,83.0272,83.5266,,,83.776,84.21,left,0.4176,,,,,,,,,0.1,,,,,,83.5267,83.776,84.21,"[-0.10882456962482975,-0.11424443671261807]",4.0,"[-0.1735943337318339,-0.03130404178943079]",4.0,"[0.181969449428818,0.00012380339712548025]",4.0,"[-0.057218733934053745,-0.13718983193278336]",4.0,"[0.1157362343554088,0.15585245660115665]",4.0,"[0.046916977192700604,-0.15466943158301635]",100.0,"[0.03839323366911256,-0.07342777267838836]",4.0,"[0.10311050579609547,-0.07083194007078833]",4.0,"[-0.04321795745767866,-0.05090089213481684]",4.0,"[-0.05094945466156197,-0.18436443205148176]",4.0,"[0.03138674227036417,-0.19437424065671965]",4.0,"[-0.10583345987177739,0.08753237772835201]",4.0,"[0.16191497489077392,-0.0375220072792738]",4.0,"[0.010330981712378437,-0.12553798126117602]",4.0,"[-0.09566556677499136,-0.06108975202934381]",4.0,"[-0.11588377591466524,0.026284031864466286]",100.0,"[-0.07913014435953276,0.004506795632566619]",4.0,"[0.16157553305710282,0.051026171543390626]",4.0,"[-0.10299346716061952,0.1429722545058688]",4.0,"[-0.049303398622485506,0.05699828331591014]",4.0,"[-0.15128665653893922,-0.1216511915291814]",4.0,"[0.07039726414504023,0.005163006062760265]",4.0,"[0.12462771565538776,-0.11941474762702291]",100.0,"[0.01399199435619143,0.13907412286038176]",4.0,"[0.00964709041535821,-0.03409854710921162]",4.0,"[0.021670098258935754,0.02490112332265625]",4.0,"[-0.13258616251792765,-0.026571908420946637]",4.0,"[0.15311733880972558,0.09499849606949977]",4.0,"[-0.05522671197653388,0.1659725774447331]",4.0,"[-0.15860789759991692,0.07650387583628107]",4.0,"[0.031036389102722203,0.1787991631424982]",4.0,"[-0.06854246288668235,0.10492211837442636]",4.0,"[0.02,0.02]",85.3092,0.0,1.0,1.0,180.0,1.0,,,,,,,
,,,,,,,6617c54a41ce14946db85944,68399d3d763592f1b67b7380,2025-05-30_13h57.59.147,shape_ratio,2024.1.5,MacIntel,60.24096386,683853e18dae57a2147b65e0,,,,,,,,,,,85.3097,85.8099,,,86.0592,86.76,right,0.6868,,,,,,,,,0.1,,,,,,85.8099,86.0592,86.7601,"[-0.1785496634633902,-0.04032089596893449]",4.0,"[-0.1173267742372467,0.11946591349498617]",4.0,"[-0.04623677205134192,-0.010761376111676163]",4.0,"[0.015774244508025094,0.13176817932852566]",100.0,"[-0.08568000001189588,0.17990035132462637]",4.0,"[0.07440402982446527,0.0526975471992244]",4.0,"[-0.04630183803931402,0.10352977548931418]",4.0,"[-0.16661131289834158,0.008406194515809253]",4.0,"[0.15736290963534952,-0.0504168697448442]",4.0,"[0.13602546731636758,0.10029053738834237]",100.0,"[0.03359575322517716,0.1930760275010608]",4.0,"[-0.09467709261078927,-0.012730462231055145]",4.0,"[-0.1141446830124724,-0.12549359848727837]",4.0,"[-0.022847146904013765,0.03767539563467194]",4.0,"[-0.029801170788539715,-0.07829962001911972]",100.0,"[0.007462027201762031,-0.11036982824191942]",4.0,"[-0.14007710911104906,-0.055167965299654696]",4.0,"[0.11695689860643899,-0.1557752842957039]",4.0,"[0.10347311888202909,0.14027187179116576]",4.0,"[-0.05962928285141942,-0.15286379186124585]",4.0,"[-0.011909335688780399,0.16955305049878205]",4.0,"[-0.062414836055463274,-0.05183360353439283]",4.0,"[0.07366068072988557,-0.10628670502410363]",4.0,"[0.01523773746670923,0.06632362852906805]",4.0,"[0.05821358047172715,-0.032495858381936395]",4.0,"[0.11040994170265359,-0.00484767824493494]",4.0,"[0.11644279373944087,0.03513811599024216]",4.0,"[-0.11471541307621554,0.0734329398277097]",4.0,"[0.0748466949264432,-0.17371522011376514]",4.0,"[0.17373296857606207,0.01894193125459181]",4.0,"[0.014728442700499556,0.008110382040942955]",4.0,"[-0.10903737572184749,-0.16628652854965092]",4.0,"[0.02,0.02]",87.86,0.0,2.0,2.0,197.0,1.0,,,,,,,
,,,,,,,6617c54a41ce14946db85944,68399d3d763592f1b67b7380,2025-05-30_13h57.59.147,shape_ratio,2024.1.5,MacIntel,60.24096386,683853e18dae57a2147b65e0,,,,,,,,,,,87.8604,88.3589,,,88.6107,89.1267,right,0.5037,,,,,,,,,0.9,,,,,,88.359,88.6106,89.1268,"[0.11673578601782454,0.04041349242798795]",100.0,"[-0.10298442379051058,0.16680826554466774]",100.0,"[-0.1831232528602214,0.015026627767603069]",100.0,"[0.032929552818703786,0.09610159198776262]",100.0,"[-0.004836153056187236,-0.06094268408831125]",100.0,"[-0.1154141708713998,-0.03352520351836653]",100.0,"[-0.04487325662442216,-0.009392126561526758]",100.0,"[0.15311729217042502,-0.008448282101495452]",100.0,"[-0.16286755062576894,-0.10236363573928398]",100.0,"[0.06988271841112721,-0.059597575974374366]",100.0,"[-0.02944776510312606,0.052921977341541984]",100.0,"[-0.04448449479551828,0.19256576345418824]",100.0,"[0.0842563281328946,-0.177057026610205]",100.0,"[0.024247029959168696,0.04833368760685422]",100.0,"[0.009602014166477794,-0.10254960431373783]",100.0,"[-0.1058332524312142,-0.0743280392068437]",100.0,"[0.1684561415233465,0.094387379498249]",100.0,"[0.16701552382145643,-0.10773432893436125]",100.0,"[-0.07991148779325989,-0.11994994984533393]",4.0,"[-0.047409435337576626,0.10945532925517384]",100.0,"[-0.12390082940858282,0.01707321231498989]",100.0,"[-0.02424810965412221,-0.18801456791055068]",100.0,"[0.14572576570198525,-0.06420399950621491]",4.0,"[-0.1294246085178931,0.07665740755572925]",100.0,"[0.025539606312472644,-0.14532981263175868]",100.0,"[0.18547120062764522,-0.051941729488132984]",100.0,"[0.09099068750746843,0.00022931937446306257]",100.0,"[0.06999977523303898,0.17522655294213843]",100.0,"[-0.17323022127386797,0.06400033872564796]",100.0,"[0.020981030508467988,-0.19275702087682406]",100.0,"[0.06768663636907052,0.12351210978158472]",4.0,"[-0.050780949532394745,-0.06995745174335581]",100.0,"[0.02,0.02]",90.2266,0.0,3.0,3.0,27.0,1.0,,,,,,,
,,,,,,,6617c54a41ce14946db85944,68399d3d763592f1b67b7380,2025-05-30_13h57.59.147,shape_ratio,2024.1.5,MacIntel,60.24096386,683853e18dae57a2147b65e0,,,,,,,,,,,90.2271,90.7267,,,90.9761,91.7925,left,0.7997,,,,,,,,,0.6,,,,,,90.7267,90.976,91.7927,"[0.10194564018970884,0.08499347676661476]",100.0,"[-0.07766176737366036,-0.17882075141776316]",100.0,"[-0.042394924631290916,-0.1542177354516481]",4.0,"[0.17003487881637103,0.056046450434931575]",100.0,"[-0.1626771638436145,-0.07673256935234103]",100.0,"[-0.02747708133895538,-0.01770091469990038]",100.0,"[-0.024782426601043576,0.1478067043399103]",4.0,"[0.12535008796770655,-0.05210925709498857]",100.0,"[-0.1326185930960201,0.003247889237731489]",100.0,"[-0.004321433806493346,-0.08047854945257538]",100.0,"[0.10897475116382047,0.02837108782523748]",4.0,"[0.09883447118060232,0.17058723858371774]",4.0,"[-0.11011075361894054,-0.0401503878221548]",100.0,"[0.14832324028794658,-0.10387445176659929]",4.0,"[0.03382981181631036,0.0478367764309172]",4.0,"[-0.040856221474718325,0.03722215396356418]",4.0,"[0.01229279618369583,-0.006141402560898529]",4.0,"[-0.07478285289399739,0.1321603803581616]",4.0,"[-0.06151733894983931,-0.04099801144814109]",100.0,"[0.05619153277545343,-0.13887791015003295]",4.0,"[-0.12398504050208829,0.14798381385119733]",100.0,"[0.1895967541906033,-0.051826985173959825]",100.0,"[0.062101246010796016,0.10934264750005578]",100.0,"[-0.13745506391380824,0.05345582562804117]",100.0,"[0.06857242976646115,-0.04838086658100532]",100.0,"[-0.1808476742756289,0.0734411749536808]",4.0,"[-0.18923554268332493,-0.02587366381745832]",100.0,"[0.032159545063028865,0.15450488817438296]",100.0,"[0.03886948950227551,-0.08804244625299605]",4.0,"[0.10963921562320632,-0.13434832903738336]",100.0,"[0.03480168224943328,-0.19303906201604135]",4.0,"[-0.08318077591174386,0.07863121546020722]",100.0,"[0.02,0.02]",92.8925,0.0,4.0,4.0,30.0,1.0,,,,,,,
,,,,,,,6617c54a41ce14946db85944,68399d3d763592f1b67b7380,2025-05-30_13h57.59.147,shape_ratio,2024.1.5,MacIntel,60.24096386,683853e18dae57a2147b65e0,,,,,,,,,,,92.8929,93.3924,,,93.6429,94.1769,left,0.5187,,,,,,,,,0.1,,,,,,93.3925,93.6428,94.177,"[0.07128735131087416,-0.15459437120435138]",4.0,"[0.04185779049362404,0.14797692279008484]",4.0,"[-0.0045148828603913975,0.09928120108347686]",4.0,"[-0.15054649754881438,0.10789363649135267]",4.0,"[0.12755390675906894,-0.008016951612388062]",100.0,"[-0.0509268220825638,-0.048503929974684314]",4.0,"[-0.09018109984362627,-0.0843360978340227]",4.0,"[0.16469275754916166,0.10336972801502478]",4.0,"[-0.06687402825770258,0.06708152912276358]",4.0,"[0.15341565992907083,0.051355636876341704]",4.0,"[0.05362348802290051,-0.009248525581351572]",4.0,"[0.08077664572509798,0.02810847227204993]",4.0,"[0.014863204836286708,-0.0974701818861809]",4.0,"[-0.044876515338993485,0.18264433103449862]",4.0,"[-0.05358239156427118,-0.15638410441341813]",4.0,"[0.16300674868068693,-0.031436342543160856]",4.0,"[0.036452212162403574,0.09374468377387632]",4.0,"[-0.1966628079280457,0.0035764626785037587]",4.0,"[-0.17210038868273458,-0.08945498272578731]",4.0,"[-0.09508099303367022,0.01138963640167225]",4.0,"[0.10162873541783972,-0.1268778034171013]",4.0,"[0.018608665482108086,-0.04891470341771198]",4.0,"[0.021635374276717672,-0.15269656153478545]",100.0,"[0.0935884662025814,0.09026121051165296]",4.0,"[-0.08767164093210017,0.11435049797007352]",100.0,"[0.06295745215777836,-0.08292961995306453]",4.0,"[-0.038472973542058274,0.0072852298637567856]",4.0,"[-0.01709758176445894,-0.13123459654161806]",4.0,"[-0.14010951047401812,-0.04994618400227834]",4.0,"[0.1837254062286221,-0.0735225031727175]",4.0,"[0.1332968958515995,0.14149417295977018]",4.0,"[0.020114590968545013,0.1870438189576877]",4.0,"[0.02,0.02]",95.2768,0.0,5.0,5.0,195.0,1.0,,,,,,,
,,,,,,,6617c54a41ce14946db85944,68399d3d763592f1b67b7380,2025-05-30_13h57.59.147,shape_ratio,2024.1.5,MacIntel,60.24096386,683853e18dae57a2147b65e0,,,,,,,,,,,95.2772,95.7767,,,96.0272,96.6439,right,0.6123,,,,,,,,,0.4,,,,,,95.7768,96.0272,96.644,"[-0.16626900482420215,-0.05225193621488562]",100.0,"[-0.13639336287627296,-0.09034147150160911]",100.0,"[-0.07639647401897161,0.1321534337890344]",4.0,"[-0.08609701720901763,0.07757135619046494]",4.0,"[0.16111353262234276,0.031039140088280754]",4.0,"[-0.09452046169890164,-0.0008878043249589504]",100.0,"[0.051421923147451226,-0.14775104813099324]",100.0,"[-0.018919295763767045,0.13009846556100008]",4.0,"[-0.020161532204692988,0.008225061265817582]",100.0,"[0.05531675886107079,-0.022144043858615996]",100.0,"[0.17582397342609457,-0.014817680417925791]",100.0,"[0.038082365604828375,0.0326265834531492]",100.0,"[-0.09507790228831939,-0.15567355529753957]",100.0,"[0.1444813337817857,-0.115814117989776]",4.0,"[-0.054142055448462595,-0.013537983478810007]",4.0,"[0.006996347507343999,-0.16616944626763466]",100.0,"[0.017235631646046533,-0.08310054393356112]",4.0,"[0.11557148998937809,0.04349064853177579]",100.0,"[0.07485359642304262,0.13193009205073464]",4.0,"[0.12996066631542486,-0.028410453528504236]",4.0,"[-0.14293430872862375,-0.019139350883672808]",4.0,"[0.03746570166966969,0.07705982750944827]",4.0,"[-0.06621491975992853,-0.10186429796904221]",4.0,"[-0.0493253019920272,-0.16642413567355238]",4.0,"[-0.0956350688653048,-0.06506471692284174]",4.0,"[0.0967907080210057,-0.11001473407518743]",4.0,"[-0.11804471099668513,0.13692334468597572]",100.0,"[0.12480727428070128,0.08435252424860362]",4.0,"[0.12941557958628427,0.12481173460757401]",100.0,"[0.07196819415099655,-0.05914244911769204]",4.0,"[0.08327965429517185,-0.17577548829822753]",4.0,"[0.03521700778082893,0.19023820911118353]",4.0,"[0.02,0.02]",97.7434,0.0,6.0,6.0,162.0,1.0,,,,,,,
,,,,,,,6617c54a41ce14946db85944,68399d3d763592f1b67b7380,2025-05-30_13h57.59.147,shape_ratio,2024.1.5,MacIntel,60.24096386,683853e18dae57a2147b65e0,,,,,,,,,,,97.7439,98.2436,,,98.494,99.0438,right,0.5303,,,,,,,,,0.6,,,,,,98.2436,98.494,99.0438,"[-0.11455208918475805,-0.0023323939434833885]",100.0,"[0.18914418517597986,0.015020229999275448]",100.0,"[0.11222370736655365,0.12297224302667771]",100.0,"[0.018077774598020006,-0.1392735585060042]",100.0,"[-0.1322022467921022,-0.05065099515663162]",100.0,"[-0.039523560806208224,-0.1025578401869098]",100.0,"[0.08751667934168542,-0.07562269745331285]",100.0,"[0.15420811899814407,0.07068104813808382]",4.0,"[0.04388555140086311,0.022547995173797845]",100.0,"[-0.04091162173896623,-0.15000895546180165]",100.0,"[0.028310535041405196,0.06117734679183572]",4.0,"[0.02890226060059528,0.10628802614361707]",4.0,"[-0.08118535610224677,-0.0649420160117253]",100.0,"[-0.009570309326479997,-0.04211361937206337]",4.0,"[0.03596330063648981,0.19617935258367056]",100.0,"[0.016299737803671176,-0.07617946299564149]",4.0,"[-0.06162306924931391,0.039179922345236304]",4.0,"[0.10135717521412545,-0.031083778214968875]",100.0,"[-0.007227447358467103,-0.17345312417171055]",100.0,"[0.08216673825932304,0.09125394716910272]",4.0,"[0.1514538519165633,-0.0863021783653702]",4.0,"[0.09874136751630465,0.03228002655999544]",4.0,"[0.0011756740150008203,0.15341108421020094]",4.0,"[-0.18548944896207337,0.05678328534105849]",100.0,"[-0.10284841386941629,0.0447828407581715]",4.0,"[0.054360356616837656,-0.18585587004001125]",100.0,"[-0.15330986765591262,0.007976842931913582]",100.0,"[0.07983574874875668,0.15202962063852865]",100.0,"[-0.10505759738040019,-0.15792043193129487]",100.0,"[-0.13122573475112548,0.1296479864978421]",4.0,"[-0.025293006198681984,0.09253862212104294]",100.0,"[-0.19729703195058812,-0.025660101727724975]",4.0,"[0.02,0.02]",100.1433,0.0,7.0,7.0,49.0,1.0,,,,,,,
,,,,,,,6617c54a41ce14946db85944,68399d3d763592f1b67b7380,2025-05-30_13h57.59.147,shape_ratio,2024.1.5,MacIntel,60.24096386,683853e18dae57a2147b65e0,,,,,,,,,,,100.1438,100.6426,,,100.8939,101.6095,right,0.6987,,,,,,,,,0.4,,,,,,100.6426,100.8939,101.6095,"[0.043040665321182316,0.1912617798869809]",100.0,"[-0.11426545061290595,-0.033303898745944326]",100.0,"[0.05215216271218977,0.14935689327114565]",100.0,"[0.16522353430509615,0.07863110130768734]",100.0,"[-0.061311630820554415,0.07670859810207305]",100.0,"[-0.003920403665535426,-0.00829192086502232]",4.0,"[-0.01303503370324394,-0.17166394515618072]",4.0,"[-0.1738451091460142,0.021449547382954612]",4.0,"[0.14567713762479215,0.010703547967031523]",100.0,"[-0.11430183686731164,-0.1289112071047055]",100.0,"[-0.04273154557497702,-0.04986230052184]",4.0,"[0.18689600017649294,0.003351313261560855]",4.0,"[-0.07547657112483194,-0.16439101680061882]",100.0,"[0.07643923826288357,-0.14487708545206793]",4.0,"[-0.06929842851265237,0.029236006441470116]",4.0,"[0.16462102484769991,-0.054428088427934104]",4.0,"[0.03418142644653718,0.06311894381234585]",4.0,"[0.019771612666492373,-0.11888393219731724]",100.0,"[-0.045700131829993544,0.12024491334870573]",4.0,"[0.14217158008392505,-0.10521203093663122]",4.0,"[-0.16089900034383312,0.07999316580289183]",4.0,"[0.12125402021579844,0.10399401893535626]",4.0,"[0.08060598112693021,-0.012118613371181709]",100.0,"[-0.15186789927583502,0.12979099635740246]",4.0,"[-0.06386617869778316,0.1695301717460619]",100.0,"[-0.13719223032359854,0.044356035820448954]",100.0,"[-0.1007008787115931,0.11302958890290028]",4.0,"[-0.06738111222487525,-0.0108674446960652]",4.0,"[0.036325522401516146,-0.15770315545766864]",4.0,"[0.11477496557571538,-0.053347908171986064]",4.0,"[-0.14586603718897953,-0.09330668480833935]",100.0,"[-0.11110533665639245,0.16090675934377002]",4.0,"[0.02,0.02]",102.7093,0.0,8.0,8.0,179.0,1.0,,,,,,,
,,,,,,,6617c54a41ce14946db85944,68399d3d763592f1b67b7380,2025-05-30_13h57.59.147,shape_ratio,2024.1.5,MacIntel,60.24096386,683853e18dae57a2147b65e0,,,,,,,,,,,102.7097,103.2103,,,103.461,104.2428,left,0.7656,,,,,,,,,0.5,,,,,,103.2103,103.4609,104.2428,"[-0.022429241796512983,-0.03928809915728538]",4.0,"[0.12047620640663395,0.040530994619981754]",4.0,"[-0.011854412640822258,0.045434916547978044]",4.0,"[0.14666508590878438,0.08336487484635015]",4.0,"[0.09678290904853794,-0.02415968078054627]",4.0,"[0.12153002767386713,-0.07854215036871834]",4.0,"[-0.07859195367643311,-0.11369283090427158]",100.0,"[0.16644583655496883,0.007559098153325642]",100.0,"[-0.07218522522389216,-0.009582840161856527]",4.0,"[0.004425273651934804,0.18403215564512276]",4.0,"[-0.037773606856297805,-0.09060074084210665]",100.0,"[0.03186758897916637,-0.11347868328021461]",100.0,"[0.055687954929195906,-0.003871032582093973]",100.0,"[0.025158611556218253,0.10127191390485944]",100.0,"[-0.09869717070874601,0.07952426851399458]",100.0,"[-0.08314684137252977,0.04038574550131505]",100.0,"[-0.16242460486745314,0.061015901450735564]",4.0,"[0.019362829602823792,-0.06475133818689152]",4.0,"[-0.13185098656318525,-0.12560915558682226]",100.0,"[-0.13680091995017427,0.011705280333713356]",100.0,"[-0.05637757554637529,0.12902793314871414]",4.0,"[-0.05793791105663075,-0.17680677743995787]",4.0,"[-0.18631910176080033,-0.03961631245119178]",100.0,"[0.08289655299490602,0.08116659808226934]",4.0,"[-0.026330703029356334,-0.13534251521728374]",100.0,"[-0.11795629551165068,0.15464015210788648]",4.0,"[0.11268634306018353,0.1434661430700612]",100.0,"[0.009968334443099509,-0.18671048904275903]",100.0,"[0.18223525096198026,-0.0571415931005224]",4.0,"[-0.14807373820080502,0.10491506158070266]",4.0,"[-0.10062582292608394,-0.05694917312450704]",100.0,"[0.11844230909666138,-0.14547295322774242]",100.0,"[0.02,0.02]",105.3437,0.0,9.0,9.0,117.0,1.0,,,,,,,
,,,,,,,6617c54a41ce14946db85944,68399d3d763592f1b67b7380,2025-05-30_13h57.59.147,shape_ratio,2024.1.5,MacIntel,60.24096386,683853e18dae57a2147b65e0,,,,,,,,,,,105.344,105.8428,,,106.0944,106.8094,right,0.699,,,,,,,,,0.45,,,,,,105.8428,106.0943,106.8095,"[-0.1616122766372202,-0.11314548821995674]",100.0,"[-0.027522672947371596,0.14038295925245733]",100.0,"[0.03282592457756413,0.19398198425861016]",4.0,"[0.10263543924046956,0.12370637032561796]",100.0,"[-0.033078215942060785,-0.16794901177516644]",4.0,"[-0.0889314460539693,0.04967091237603352]",4.0,"[-0.06431810120857902,-0.019165715779241217]",100.0,"[0.08247961014547894,0.07102195537351245]",4.0,"[0.01913908402580783,-0.11512084273523844]",100.0,"[0.08531900734873242,-0.16143555568444204]",100.0,"[0.09752223640377702,-0.06801134877069608]",4.0,"[-0.13823457900502514,0.013549752450947387]",100.0,"[0.06095792774799909,0.12491080270756122]",4.0,"[0.0993973659473961,0.027930940023538065]",4.0,"[0.17818009128884738,-0.08609206095718165]",100.0,"[0.10777548519999684,-0.011303869305430925]",4.0,"[0.173817880687189,0.009834794494411669]",100.0,"[-0.018905280975082026,-0.0390023692068483]",100.0,"[-0.02652328126414157,0.03293465433608825]",4.0,"[-0.025550161253548434,0.09458546932071658]",4.0,"[0.019986812401449203,-0.002144038404059629]",4.0,"[0.12934742646571037,0.08808684554381929]",4.0,"[-0.08554508850724414,0.09741021368044642]",4.0,"[-0.06722029133972542,-0.13590272639205553]",4.0,"[-0.16927264077790877,0.09613169548733047]",4.0,"[0.0447459264895559,-0.03720987967252179]",100.0,"[-0.1243102688674541,0.08740590092590252]",4.0,"[0.03419133772321113,-0.1658316101669807]",100.0,"[0.021924856378875226,0.07220668061060097]",4.0,"[0.18311876300351423,0.05408949753463927]",100.0,"[-0.11258532779662626,-0.07852379165946578]",100.0,"[0.10816353012741925,-0.12835565855705236]",4.0,"[0.02,0.02]",107.9104,0.0,10.0,10.0,149.0,1.0,,,,,,,
,,,,,,,6617c54a41ce14946db85944,68399d3d763592f1b67b7380,2025-05-30_13h57.59.147,shape_ratio,2024.1.5,MacIntel,60.24096386,683853e18dae57a2147b65e0,,,,,,,,,,,107.9108,108.4094,,,108.6608,109.1439,left,0.4659,,,,,,,,,0.1,,,,,,108.4094,108.6608,109.1441,"[0.027983844555382876,0.033140082559676855]",4.0,"[-0.07733074739269975,0.13791250364353322]",4.0,"[-0.15153647243197202,0.09162804044805198]",4.0,"[0.03355870801145956,-0.17378415908230735]",4.0,"[0.06752586477190001,-0.03275037997108307]",4.0,"[-0.03036342270852175,0.05895524637465315]",4.0,"[0.010444844660103808,-0.11407561090814505]",4.0,"[0.05192110719592557,0.1796915838307609]",4.0,"[-0.09210311236883574,0.05503638428273642]",4.0,"[0.18854422072631488,0.03689599158782115]",4.0,"[0.11583068060404823,0.16234227953330818]",4.0,"[-0.16430664719934948,0.030507730032032544]",4.0,"[-0.14634402707364283,-0.0976372269862593]",100.0,"[0.007350239111046154,0.13868839803538013]",4.0,"[0.09587723452603993,-0.1172260263779028]",4.0,"[0.05296295160666467,0.10590671415883333]",100.0,"[-0.06177718414753546,-0.172509623792808]",4.0,"[-0.0211935463085159,0.0019314913438376945]",4.0,"[-0.03174678706508024,0.09925310610323203]",4.0,"[0.021429976113300185,-0.03583161143320479]",100.0,"[0.14497596789283268,-0.06971445190312964]",4.0,"[-0.07337746606116788,-0.13383345075219522]",4.0,"[0.14254829825411952,0.034482158819110764]",4.0,"[-0.0038933378752268512,0.1936590527129245]",4.0,"[-0.092767579311828,-0.009815661827765146]",4.0,"[0.179245928506906,-0.03460983037275195]",4.0,"[-0.16981418400068232,-0.01809167692999649]",4.0,"[-0.1076631808085791,-0.16285404832419645]",4.0,"[0.1282152174840307,0.12092826438081951]",4.0,"[-0.03394423496370968,-0.0577458008142838]",4.0,"[0.09253321001176082,-0.1603096926517118]",4.0,"[-0.08679825109088805,-0.04960636777515624]",4.0,"[0.02,0.02]",110.2428,0.0,11.0,11.0,202.0,1.0,,,,,,,
,,,,,,,6617c54a41ce14946db85944,68399d3d763592f1b67b7380,2025-05-30_13h57.59.147,shape_ratio,2024.1.5,MacIntel,60.24096386,683853e18dae57a2147b65e0,,,,,,,,,,,110.2431,110.7428,,,110.9942,111.7439,left,0.7332,,,,,,,,,0.1,,,,,,110.7428,110.9942,111.744,"[0.13737019268859743,0.015577139169661561]",4.0,"[0.13840822544839712,0.09370428677355395]",100.0,"[-0.13281791370393461,-0.07906781615061022]",4.0,"[-0.025125984661564304,-0.01509328753752838]",4.0,"[-0.07621067730704957,-0.02575086170041641]",4.0,"[-0.09140497118152278,-0.1141935082665257]",4.0,"[0.0475977867935442,-0.18989934821173016]",4.0,"[0.049918084966540016,0.030515245387763183]",4.0,"[0.038813663665601836,0.14553413341645569]",4.0,"[0.17879256913861177,0.07852162533317397]",4.0,"[0.027991144977132947,-0.06259648734550775]",4.0,"[-0.05060484023248343,0.16720655684192168]",4.0,"[-0.012063905917872033,0.11110474412955143]",4.0,"[0.056851528893245705,-0.09886282491594862]",4.0,"[-0.13584654630885265,-0.020193379248374273]",4.0,"[0.023074135954834686,0.07276977148984042]",4.0,"[-0.13297713359787627,0.14422834287440686]",100.0,"[0.15898749360888934,-0.09563932786902551]",4.0,"[-0.09022859877238723,0.13038485245280693]",4.0,"[-0.05404267289137187,-0.07393052968629685]",4.0,"[0.08998489625496958,-0.12240163981660292]",4.0,"[0.10708731211357765,0.05058082069054358]",4.0,"[-0.15188951036793935,0.0730233887837508]",100.0,"[-0.06703988999391239,0.021440043472661298]",4.0,"[-0.03308935147244316,0.0442478862271605]",4.0,"[-0.0361251838715125,-0.14544540778376125]",4.0,"[0.07652649042850422,0.10688804452031027]",4.0,"[0.04559459552952313,-0.13857174879924045]",4.0,"[0.15453217090107138,-0.05205800427167141]",4.0,"[0.1015689787214664,0.15830899583951652]",4.0,"[-0.10712767868704307,0.09116119528028768]",4.0,"[-0.18577353349042117,0.027906993742417292]",4.0,"[0.02,0.02]",112.8434,0.0,12.0,12.0,189.0,1.0,,,,,,,
,,,,,,,6617c54a41ce14946db85944,68399d3d763592f1b67b7380,2025-05-30_13h57.59.147,shape_ratio,2024.1.5,MacIntel,60.24096386,683853e18dae57a2147b65e0,,,,,,,,,,,112.8437,113.3433,,,113.5944,114.011,right,0.4123,,,,,,,,,0.5,,,,,,113.3433,113.5943,114.011,"[-0.19048518575164494,0.05184816498832026]",100.0,"[0.05094831674191235,0.0021073977801728677]",100.0,"[0.1456201865081422,0.09046268521342656]",4.0,"[0.08281727609197331,-0.060530452967660436]",100.0,"[-0.06610454672595308,-0.14272677969964914]",100.0,"[0.04812109585905009,-0.08453332164991723]",4.0,"[-0.1102411347173777,0.022905053508113383]",4.0,"[-0.11338318770190897,-0.059853192368880974]",4.0,"[0.031998956268382776,0.04105690841413355]",100.0,"[-0.055690740183221364,0.052984121333495234]",100.0,"[0.001695031472512059,-0.006382390132139838]",100.0,"[-0.16189234294121702,-0.09646811592233379]",100.0,"[0.13322819747268308,-0.044275217914225284]",4.0,"[0.11528457850607429,-0.09067905800340711]",4.0,"[0.13895080323466727,-0.14345697966817916]",4.0,"[0.1204556776298623,0.14847465307219176]",4.0,"[0.18112389514521468,0.008639267570200396]",4.0,"[-0.16949791147636772,0.09856439317110816]",4.0,"[-0.05128328797755093,0.13672751225746185]",4.0,"[0.11934820527222444,0.04869717584833205]",4.0,"[0.09171780896717832,0.015891922481977735]",100.0,"[-0.09137405920464588,-0.09671271920212347]",100.0,"[-0.0066669784057869705,-0.1803499222539708]",100.0,"[0.007656731581599952,0.09463168235575556]",100.0,"[0.00901184879623137,0.18706392373636363]",4.0,"[-0.17298914945005558,-0.04470587450897898]",100.0,"[0.08935138140362159,0.10723492638101992]",4.0,"[-0.12761153377739173,0.13245545810973974]",100.0,"[0.08672559789259894,-0.16124260750203168]",100.0,"[-0.024247785218738722,-0.07857821558261066]",4.0,"[0.002325341014138316,0.14237662004040208]",100.0,"[-0.06450726646924347,0.18048677946067448]",4.0,"[0.02,0.02]",115.1106,0.0,13.0,13.0,95.0,1.0,,,,,,,
,,,,,,,6617c54a41ce14946db85944,68399d3d763592f1b67b7380,2025-05-30_13h57.59.147,shape_ratio,2024.1.5,MacIntel,60.24096386,683853e18dae57a2147b65e0,,,,,,,,,,,115.1111,115.6096,,,115.8612,116.6434,left,0.7644,,,,,,,,,0.4,,,,,,115.6097,115.8612,116.6435,"[0.026802705035681145,-0.12563583315126403]",4.0,"[-0.06486524525386515,-0.16278489424495066]",4.0,"[-0.004471042064624733,-0.165457552414681]",4.0,"[0.028200348759862975,-0.0005568969299815102]",4.0,"[-0.00888961940741877,0.11967315896887969]",4.0,"[-0.14149184378879254,0.07260476648885057]",100.0,"[-0.08154649027746462,0.07992019006895477]",4.0,"[-0.04157204528226196,-0.007932153327271223]",4.0,"[0.0951202861716607,-0.16611689410872782]",100.0,"[-0.17788152740657542,-0.020272389231009724]",4.0,"[0.10316672140981918,-0.10516737003014372]",4.0,"[0.09940649627817429,0.06302470380314934]",4.0,"[0.13316811779052345,0.096221874750208]",100.0,"[-0.11247840324294388,0.14391681016751257]",4.0,"[-0.12154075173389815,-0.11032970549353445]",4.0,"[-0.042017399953575535,-0.0628363103697468]",4.0,"[-0.15298081902415625,-0.0516332334771933]",4.0,"[0.19232026440078545,-0.004795627489821841]",4.0,"[0.018603544585955818,0.19630572733970086]",4.0,"[0.023661906606827467,-0.06676460437402616]",4.0,"[0.08840047667130428,-0.051727110239398855]",4.0,"[0.17462994093486978,-0.06016402490929369]",100.0,"[0.07667493610569344,0.17096668644773044]",100.0,"[0.1547922437019645,-0.12007361329965614]",100.0,"[0.17042405167508984,0.030689490236347816]",100.0,"[-0.12909415940954147,-0.008223933810272858]",100.0,"[0.07587288559344876,0.006997423528297687]",100.0,"[0.05699077492821387,-0.18949593119536887]",100.0,"[0.04503982061661993,0.13078119220379067]",4.0,"[-0.05499290019351837,0.14620179647467454]",100.0,"[-0.024679984110660295,0.19781401015143898]",100.0,"[-0.169255037135081,-0.10380264105943204]",100.0,"[0.02,0.02]",117.7428,0.0,14.0,14.0,161.0,1.0,,,,,,,
,,,,,,,6617c54a41ce14946db85944,68399d3d763592f1b67b7380,2025-05-30_13h57.59.147,shape_ratio,2024.1.5,MacIntel,60.24096386,683853e18dae57a2147b65e0,,,,,,,,,,,117.743,118.2439,,,118.4942,119.1099,left,0.6,,,,,,,,,0.5,,,,,,118.2439,118.4942,119.1099,"[0.04120272054672352,-0.07192236688947645]",100.0,"[0.14236396617466665,-0.08202743499706894]",4.0,"[0.04080515309578703,-0.13197995128809667]",100.0,"[-0.013531615446896843,0.12697442067268086]",100.0,"[-0.016696652608418093,-0.08308060625050369]",4.0,"[0.1188024020044977,0.10844980712048725]",100.0,"[-0.06655267376975924,0.16311584096883647]",100.0,"[0.10696601742847993,-0.11381767066421009]",4.0,"[-0.14504746454383366,0.0383882606928232]",4.0,"[-0.06288621612447902,-0.1256672768083286]",100.0,"[-0.11718146514978421,0.11416793819548807]",4.0,"[0.18808820586468833,0.00031804014865552963]",100.0,"[-0.1746611371590411,-0.06915544584750363]",100.0,"[-0.09844659874664083,-0.07756733644685344]",4.0,"[-0.1469455693912261,-0.11760642824365253]",4.0,"[0.06195825924043057,0.1721063965516706]",4.0,"[0.023191591186932307,-0.033080012189398544]",4.0,"[-0.009607792622965466,-0.15269658188968233]",4.0,"[0.13712904790377378,0.06114581604275088]",100.0,"[0.08358136565546075,-0.16591881747879264]",4.0,"[-0.1398633093181709,0.08070420075096421]",100.0,"[0.18705956492464101,0.06787118103222138]",100.0,"[-0.10605513479460918,0.004358966903656153]",4.0,"[0.009955271827204838,0.08718337325755467]",100.0,"[0.09533371165425765,-0.018696408429810837]",100.0,"[0.08564953237254329,0.08600658005538318]",100.0,"[0.053945206689928596,0.0059759881732746765]",100.0,"[0.01614431132139087,0.177591773638603]",4.0,"[-0.10552636291033476,-0.1407818218698774]",100.0,"[-0.06213291466081929,-0.025163518421286998]",4.0,"[0.05804445323651275,0.1257879308449709]",4.0,"[-0.012857471764770811,0.04629874429119488]",4.0,"[0.02,0.02]",120.2098,0.0,15.0,15.0,90.0,1.0,,,,,,,
,,,,,,,6617c54a41ce14946db85944,68399d3d763592f1b67b7380,2025-05-30_13h57.59.147,shape_ratio,2024.1.5,MacIntel,60.24096386,683853e18dae57a2147b65e0,,,,,,,,,,,120.2101,120.7106,,,120.9609,121.3775,right,0.399,,,,,,,,,0.9,,,,,,120.7107,120.9609,121.3776,"[-0.13142600057480183,-0.14285614299599086]",100.0,"[-0.03650663376519969,-0.0034002762112888695]",100.0,"[-0.07443148834553716,0.018988143621157413]",100.0,"[0.16232123242149463,-0.11202370799148355]",100.0,"[0.006677437218006773,0.10894145621706512]",100.0,"[0.03621707010494104,-0.027931485042594507]",100.0,"[0.1195024225194477,0.12630493429400858]",100.0,"[0.10044890868185889,-0.15527697877031835]",4.0,"[0.1562896995347491,0.06209446533771649]",100.0,"[0.12831004565839374,-0.034614928929294166]",100.0,"[-0.18844375753186463,0.04863487722179553]",100.0,"[0.08404342758915216,0.022644231632384812]",100.0,"[-0.08049133356577257,0.09721109591024679]",100.0,"[0.003356834091311535,-0.19547855077004134]",100.0,"[-0.11060904246799974,-0.0451044664959247]",100.0,"[-0.010429315596711362,-0.04794304597726473]",100.0,"[-0.039823099667882604,-0.1751389833683284]",100.0,"[-0.12938391397597676,0.07861049441886955]",100.0,"[0.07926705456854509,0.1576151735916861]",100.0,"[-0.16590356117823782,-0.05216657412634601]",100.0,"[-0.04388948393058155,-0.11246052036415986]",100.0,"[-0.05247706373087821,0.13996917067652678]",100.0,"[-0.07356349480762372,-0.15252669222573617]",100.0,"[0.07901286685692598,-0.056306243240442186]",100.0,"[0.019625793729679562,-0.09550469278644665]",100.0,"[0.06944125688715849,0.08043250209719034]",4.0,"[0.011428554723904104,0.17108398529316035]",100.0,"[0.16173411654376368,-0.010548314251370509]",4.0,"[0.13494088025662931,-0.08100200757101965]",100.0,"[0.120134693498404,0.08252524911842757]",100.0,"[-0.11906399996390434,0.011463924040957606]",100.0,"[-0.18759784194162482,-0.007090225330845054]",100.0,"[0.02,0.02]",122.4774,0.0,16.0,16.0,5.0,1.0,,,,,,,
,,,,,,,6617c54a41ce14946db85944,68399d3d763592f1b67b7380,2025-05-30_13h57.59.147,shape_ratio,2024.1.5,MacIntel,60.24096386,683853e18dae57a2147b65e0,,,,,,,,,,,122.4781,122.9775,,,123.2263,123.8942,right,0.6651,,,,,,,,,0.45,,,,,,122.9775,123.2263,123.8943,"[0.08979231748800375,0.11381442680790342]",100.0,"[0.04475071911911392,0.16210959263995478]",100.0,"[0.07419348575536111,-0.07660418925053165]",100.0,"[0.13507732660366703,0.14277477561375168]",4.0,"[-0.19298723073004878,-0.031287630138594306]",4.0,"[0.10180700463884035,-0.12922415168470336]",4.0,"[0.1710802647493165,0.04482280560341724]",4.0,"[-0.10412900831342586,-0.08926185096251968]",100.0,"[-0.037286053400805146,-0.18767348541551424]",4.0,"[0.1568112185414286,-0.06432893104935504]",4.0,"[0.030963332469657018,0.03485154848517348]",100.0,"[0.13123149740180515,0.09565254037104336]",100.0,"[0.04130609644939704,-0.10007846246309356]",100.0,"[-0.01572197833226434,0.06995995953540966]",4.0,"[0.12805482048885655,0.05444348859928103]",4.0,"[-0.12127284651353006,0.03763758149487881]",100.0,"[-0.03467852898427713,0.1305119937018735]",4.0,"[0.04915162335488425,-0.028652747578170566]",4.0,"[-0.005616041370693055,-0.07844416418328062]",4.0,"[-0.09982682871300247,0.16249929068196353]",4.0,"[0.08054373419609485,-0.17640291724556426]",4.0,"[0.07667818932845312,0.0691895290520459]",4.0,"[-0.19545396851378935,0.026830273160891798]",100.0,"[-0.06499832274399407,-0.04434136094080954]",4.0,"[0.003954905004811756,-0.1532011341095141]",100.0,"[-0.09901257712462473,0.10212003040109055]",100.0,"[-0.02449009079646974,-0.03396615743082115]",100.0,"[0.1957082844882866,-0.02262461147844448]",4.0,"[-0.11555225551606285,-0.02881671168156338]",100.0,"[-0.05959212308496152,-0.09138440439984596]",100.0,"[-0.06869041813565124,0.026329214651863303]",4.0,"[0.003017839336823048,0.15017313709496202]",4.0,"[0.02,0.02]",124.9943,0.0,17.0,17.0,145.0,1.0,,,,,,,
,,,,,,,6617c54a41ce14946db85944,68399d3d763592f1b67b7380,2025-05-30_13h57.59.147,shape_ratio,2024.1.5,MacIntel,60.24096386,683853e18dae57a2147b65e0,,,,,,,,,,,124.9951,125.4941,,,125.7447,126.3945,right,0.6365,,,,,,,,,0.55,,,,,,125.4941,125.7446,126.3946,"[-0.10464058106442582,-0.15750939230739108]",100.0,"[0.10019193623663394,-0.05705419568340858]",4.0,"[0.033741706913177086,0.10618884851822578]",4.0,"[-0.10130129274831579,-0.013925854528627022]",4.0,"[-0.09072770413513351,0.04855757231453195]",100.0,"[0.11069909489524501,0.027041497419444525]",100.0,"[-0.008982128983571877,-0.1663561876590187]",4.0,"[0.00742305811468583,0.17032761853896758]",100.0,"[-0.03939498690054326,0.11332681085066817]",100.0,"[0.04394706900139861,0.15222354650867745]",4.0,"[0.037029747261476356,-0.15986050611328692]",100.0,"[-0.15634994715861947,-0.09998029082584207]",100.0,"[0.14237236937332115,0.07093210994891372]",100.0,"[0.01381096665368534,0.024274312271216802]",100.0,"[-0.17009409847677334,-0.05592865509596924]",4.0,"[-0.06512104437378398,-0.07160716510161572]",4.0,"[0.007680289839585897,0.0730084328263765]",100.0,"[0.0008903433900869835,-0.08224285491914084]",4.0,"[-0.14424079381189828,-0.014105260997325843]",100.0,"[0.12901125045897743,-0.13233039450344466]",4.0,"[0.1557628314769363,0.11634654959443406]",100.0,"[-0.15524242603129826,0.058492770403121744]",100.0,"[0.08649647722706336,0.0895992947005811]",100.0,"[0.1504967263679428,-0.04059693883057251]",100.0,"[-0.04351963487863828,0.010773098391720807]",4.0,"[0.17194476248666804,0.024892053077808576]",100.0,"[0.06619223364759569,-0.108528744854319]",4.0,"[-0.0594546075199234,-0.15257887090196395]",100.0,"[0.04211777992582008,-0.05888750868266167]",4.0,"[-0.04463907354190037,-0.1912251978037461]",4.0,"[0.005678378368400595,-0.024433382840355008]",100.0,"[0.06750738530499599,-0.009116982894669359]",4.0,"[0.02,0.02]",127.4933,0.0,18.0,18.0,76.0,1.0,,,,,,,
,,,,,,,6617c54a41ce14946db85944,68399d3d763592f1b67b7380,2025-05-30_13h57.59.147,shape_ratio,2024.1.5,MacIntel,60.24096386,683853e18dae57a2147b65e0,,,,,,,,,,,127.4937,127.9942,,,128.2439,128.711,left,0.4527,,,,,,,,,0.55,,,,,,127.9942,128.2438,128.7111,"[0.1189781819428162,-0.08700053991304618]",100.0,"[-0.1532755373712644,-0.03371269169176695]",100.0,"[0.11827521928809377,-0.04672975287061284]",100.0,"[0.13446130226992548,0.12308208865926265]",100.0,"[-0.105784449169767,0.13511007840298536]",4.0,"[0.0006179303556723673,0.12739139766738047]",100.0,"[-0.08252092757692785,-0.16618322462217314]",4.0,"[0.044968029232442766,-0.030255186254136878]",4.0,"[0.029221898555063217,-0.07891099296670916]",4.0,"[0.05434257520319277,0.16803049210232548]",100.0,"[-0.05906566872676884,-0.00808464576846594]",100.0,"[0.08424759432035464,0.08731711792005571]",100.0,"[0.13246100022816126,0.057572393231653356]",4.0,"[0.12973583414355105,0.0062245328629385675]",100.0,"[0.04825754621023861,-0.17379906844382667]",100.0,"[-0.003998036942455843,-0.04346542254299254]",4.0,"[0.06408828111902783,0.04068673408243674]",100.0,"[-0.06247820660834749,0.13207085283311235]",4.0,"[-0.12134439860058739,0.060969259594220324]",4.0,"[-0.0985882123682907,0.018804700647952984]",100.0,"[-0.02887173735820481,-0.09139242992382096]",4.0,"[-0.03723024563338459,0.18316685101465216]",4.0,"[-0.09047540720311492,-0.09288704667382608]",100.0,"[0.17829588137453453,-0.014338714850936626]",100.0,"[0.05029858972705441,-0.1187260502412425]",100.0,"[-0.07298193941993994,0.0854391495880642]",4.0,"[0.1572974439279473,-0.10378216814235997]",100.0,"[0.0111259887875858,-0.15182362372014774]",4.0,"[-0.17001550193628395,-0.07462119293554123]",4.0,"[-0.1489550393730019,-0.12596751995524363]",100.0,"[0.019118488569995633,0.027762527269163027]",100.0,"[-0.07224571914841973,-0.053395910223948476]",4.0,"[0.02,0.02]",129.8109,0.0,19.0,19.0,80.0,1.0,,,,,,,
,,,,,,,6617c54a41ce14946db85944,68399d3d763592f1b67b7380,2025-05-30_13h57.59.147,shape_ratio,2024.1.5,MacIntel,60.24096386,683853e18dae57a2147b65e0,,,,,,,,,,,129.8113,130.311,,,130.5607,131.0111,left,0.4353,,,,,,,,,0.1,,,,,,130.311,130.5606,131.0111,"[-0.19255936086608352,0.05122142079635416]",4.0,"[-0.020415729837121584,-0.19817175591807196]",100.0,"[-0.08950987014442678,0.054439803282048574]",4.0,"[0.08535286213953754,0.03205376391651963]",4.0,"[0.013918511498688309,0.0888613108501863]",4.0,"[0.024724262847792212,0.040693512176352566]",100.0,"[-0.009843710853855504,-0.09555283540340798]",4.0,"[-0.13621840681070255,0.07635981244803171]",4.0,"[0.07212580066122672,0.09439937021781791]",4.0,"[-0.12863936786759306,0.13346453705471112]",4.0,"[0.1541766146646067,0.041519031881329674]",4.0,"[0.14775372749032673,-0.01590631491182248]",4.0,"[-0.1417304331242464,-0.05935120419094892]",4.0,"[-0.14145424562063266,-0.10733971692571125]",4.0,"[0.08353914382155059,-0.017159936121533336]",4.0,"[-0.004659867679869816,0.18073051151096328]",4.0,"[0.031345669079205586,-0.0008882158483643974]",4.0,"[0.1569598727191428,-0.08258888127764841]",4.0,"[-0.015762718451890013,0.12312448627944378]",4.0,"[-0.08435562935443353,-0.028973189152584768]",4.0,"[-0.19713051748357507,0.005020954432668586]",4.0,"[0.03722657572007334,-0.04662150080653789]",4.0,"[0.03522801298573429,0.17275312381814237]",4.0,"[-0.051681139647804374,-0.16679245787101057]",100.0,"[0.09010319555850499,-0.16154731828075164]",4.0,"[0.04125271437526095,-0.1484495148481479]",4.0,"[0.15502158683733244,0.10938026630419906]",4.0,"[-0.07182422369349707,0.12879246437877861]",4.0,"[0.08155481769661131,0.16142014399796395]",4.0,"[-0.07171160079342188,-0.12585932959671528]",4.0,"[0.08874995400460405,-0.10567653390957865]",4.0,"[-0.0274409480548202,-0.043169459287630677]",4.0,"[0.02,0.02]",132.1109,0.0,20.0,20.0,181.0,1.0,,,,,,,
,,,,,,,6617c54a41ce14946db85944,68399d3d763592f1b67b7380,2025-05-30_13h57.59.147,shape_ratio,2024.1.5,MacIntel,60.24096386,683853e18dae57a2147b65e0,,,,,,,,,,,132.1113,132.6102,,,132.8604,133.3767,left,0.5049,,,,,,,,,0.4,,,,,,132.6103,132.8604,133.3768,"[-0.01531032163751745,0.11522928000372425]",4.0,"[0.004012455081384051,-0.18461567850615726]",100.0,"[-0.057535069000586594,0.19037460391803795]",4.0,"[-0.026972615559093197,-0.12330611574192551]",100.0,"[-0.02481547127244058,0.07556555065700249]",4.0,"[0.09159105065957213,-0.149848084388984]",4.0,"[0.10374070859159107,-0.06955210262028018]",4.0,"[0.08588914813395856,0.03776116530138276]",4.0,"[-0.12603779764168846,0.03496290961946295]",4.0,"[0.10084939559986855,-0.02237402821104538]",100.0,"[0.01891140900926889,0.16948026631398774]",100.0,"[0.045792645436834874,0.07574927773709397]",100.0,"[-0.1286242938868362,0.10972622962873428]",4.0,"[0.01218259133979749,0.00828233180785365]",4.0,"[0.0937344770949822,0.14741618093214426]",100.0,"[-0.16254223503962534,-0.057826062154198665]",4.0,"[-0.18463652277398218,0.06424475927866823]",100.0,"[-0.07392156947434124,-0.07726278037267494]",100.0,"[-0.19828075225527864,0.02292925910695863]",4.0,"[0.0382479238819285,0.11635271785643723]",4.0,"[-0.06542233544281378,0.14569272886818152]",100.0,"[0.1584933483085247,0.07928769789991812]",4.0,"[0.18943997490658931,0.01113789667445876]",100.0,"[-0.07184765992691204,0.03773500356293532]",4.0,"[-0.01691826680951187,-0.08200245841225212]",100.0,"[-0.08961231002783948,-0.016140362256593075]",4.0,"[-0.13708783658616416,-0.12624199949772003]",100.0,"[-0.03154417781452659,-0.16594496667784406]",4.0,"[0.056786865675255704,0.007850223497808778]",4.0,"[0.12074769159558081,0.014072679030100128]",4.0,"[0.15031302246550526,-0.03705836112921463]",4.0,"[0.05568360299880212,-0.04668834096238621]",100.0,"[0.02,0.02]",134.4777,0.0,21.0,21.0,150.0,1.0,,,,,,,
,,,,,,,6617c54a41ce14946db85944,68399d3d763592f1b67b7380,2025-05-30_13h57.59.147,shape_ratio,2024.1.5,MacIntel,60.24096386,683853e18dae57a2147b65e0,,,,,,,,,,,134.4782,134.9777,,,135.2284,135.6945,right,0.461,,,,,,,,,0.4,,,,,,134.9777,135.2283,135.6945,"[-0.184412266489561,-0.0537806586634304]",4.0,"[0.056573498896852176,0.04137037505320544]",4.0,"[-0.07793949437896408,0.059964504321362494]",4.0,"[0.10923526137076695,0.02702489880164484]",4.0,"[-0.05773610433605299,0.18190280737986075]",4.0,"[0.08726923245965106,0.17676516895802924]",100.0,"[0.14480217675756568,-0.03098983501113856]",4.0,"[-0.042933672302951184,-0.13929025089689528]",4.0,"[0.032530351698250304,-0.0033250389954010617]",100.0,"[0.022850948016103,-0.10165282082304951]",4.0,"[-0.10490325862599316,-0.04673932136218569]",100.0,"[-0.012103563729015089,0.017316340658396517]",4.0,"[0.03200645564961994,0.133502757272991]",100.0,"[0.04294691549407814,-0.05212471995668484]",100.0,"[0.172900455683825,0.024386291806871213]",4.0,"[-0.03618486191865129,0.1268825092417439]",4.0,"[-0.012859348564296788,-0.07191422831649696]",4.0,"[0.06248598355987647,-0.16232775450211112]",100.0,"[-0.12889664885384258,-0.1405945976841619]",100.0,"[-0.0889102718503323,-0.1754798362397591]",4.0,"[-0.12395223229535575,0.12153179949025245]",100.0,"[-0.1663720570827427,0.032469665558013394]",100.0,"[-0.11825610395769745,0.004496000486928159]",4.0,"[0.10511299915015326,-0.1123235072517574]",100.0,"[0.16910518331702223,0.09741478083274346]",4.0,"[-0.008078908504569103,0.17320993234179524]",4.0,"[-0.15627966479827154,-0.10295015625032493]",100.0,"[0.05385689764695698,0.09196375473487611]",100.0,"[-0.08987174150753326,-0.10808522670300126]",4.0,"[-0.015273151843454397,-0.19900899413483109]",4.0,"[0.14555770322628864,-0.11535938265997434]",100.0,"[0.08457486417547776,-0.0167856163164147]",4.0,"[0.02,0.02]",136.7945,0.0,22.0,22.0,178.0,1.0,,,,,,,
,,,,,,,6617c54a41ce14946db85944,68399d3d763592f1b67b7380,2025-05-30_13h57.59.147,shape_ratio,2024.1.5,MacIntel,60.24096386,683853e18dae57a2147b65e0,,,,,,,,,,,136.7948,137.2944,,,137.5438,138.0279,left,0.4696,,,,,,,,,0.1,,,,,,137.2945,137.5438,138.0279,"[0.13693289579534967,0.07521543186949707]",4.0,"[0.050059894123492134,-0.023620479744854133]",4.0,"[-0.1690516611074789,-0.05981642095230665]",4.0,"[0.04398501824640898,-0.06336017769271597]",4.0,"[-0.0811096085353287,-0.0267634290049723]",4.0,"[-0.17918094325283593,0.021744583902818086]",4.0,"[-0.030292945007899186,0.15506603166711816]",4.0,"[0.13074746336136991,-0.02412357742039947]",4.0,"[-0.010083960946215257,0.05519411940504097]",4.0,"[-0.010361865118175535,-0.11343359334569314]",4.0,"[-0.04750478506402381,0.02391708350965398]",4.0,"[-0.09693553551559582,-0.15990731837148528]",4.0,"[0.07730170975660537,0.06390479203221022]",4.0,"[0.09718164473314782,0.1098615761393254]",4.0,"[-0.10322470671794332,0.013993523409363173]",4.0,"[0.07712989161858354,0.14715218224128027]",100.0,"[-0.17092505756375073,0.07143002317569733]",4.0,"[0.053451430884727695,-0.17031422941925595]",4.0,"[0.00849493976383717,0.18227456890483465]",4.0,"[-0.08486727499119724,-0.11364012923645465]",4.0,"[-0.09371676616965238,-0.06499689872135393]",4.0,"[-0.05623538762298816,-0.14738814680390008]",4.0,"[-0.08736362028800346,0.1451863482796637]",100.0,"[0.1355409639499305,0.12262619706033916]",4.0,"[0.08998407853922341,0.009908457914280045]",4.0,"[0.02697360596628928,0.12111034053916207]",4.0,"[-0.048386513071577736,0.06966543784096843]",4.0,"[-0.017392595891099604,-0.1570547879705429]",4.0,"[0.08214997454542546,-0.13435168201764858]",4.0,"[0.15774238579323568,-0.08140673349633182]",100.0,"[0.1872796914353572,0.03474452325439637]",4.0,"[-0.1614213178452304,-0.10153859772430451]",4.0,"[0.02,0.02]",139.1269,0.0,23.0,23.0,182.0,1.0,,,,,,,
,,,,,,,6617c54a41ce14946db85944,68399d3d763592f1b67b7380,2025-05-30_13h57.59.147,shape_ratio,2024.1.5,MacIntel,60.24096386,683853e18dae57a2147b65e0,,,,,,,,,,,139.1273,139.6278,,,139.8775,140.4447,left,0.5498,,,,,,,,,0.45,,,,,,139.6278,139.8775,140.4447,"[0.16244250930602055,-0.05035758094281056]",4.0,"[-0.04997899190559283,0.17078664006337319]",100.0,"[0.03531862909986907,0.16054015167149505]",100.0,"[0.10072570777681486,0.060446060488701187]",100.0,"[-0.007103165063253339,0.07669878138044191]",4.0,"[-0.17901308312495964,0.07226359661060192]",4.0,"[-0.08439861249230807,0.10126395600704803]",100.0,"[0.14645512387764675,0.1248894560903734]",4.0,"[-0.1539266219962287,0.10405292952351897]",4.0,"[-0.025850583183775287,0.031138025271949563]",4.0,"[-0.08542295773548401,0.05156149913837006]",100.0,"[-0.12043830240446603,-0.1441449266221498]",4.0,"[-0.09229574271186522,-0.016774530021235065]",4.0,"[-0.1149168439545957,0.1328832908615805]",100.0,"[0.1502755187631184,0.000441996239902457]",4.0,"[-0.08122951471901785,-0.12702759768863559]",4.0,"[0.08431548230539755,-0.000009242119736168026]",100.0,"[0.06501937397285672,0.18879565094303505]",100.0,"[0.05342072551872632,-0.07720253710893067]",100.0,"[-0.13601851734975284,0.05884266616550213]",100.0,"[-0.005968236557335975,0.1825040990074775]",4.0,"[-0.1600116969972922,-0.06841941471246804]",100.0,"[0.022044569893443465,0.028750977701318372]",4.0,"[-0.1365088397221564,-0.011630174241354754]",4.0,"[-0.015235143610361542,-0.058845488448152676]",100.0,"[0.07054121310147317,0.13235180170987007]",4.0,"[0.11376827868878087,-0.09446264418135891]",4.0,"[-0.014488427539306471,-0.14914061349941884]",4.0,"[0.0992901963886962,-0.16256221964066397]",100.0,"[0.0361482032659027,0.07451445946714803]",100.0,"[0.09866197310695482,-0.040026244100144666]",4.0,"[-0.0780349624859655,-0.056900127572089405]",4.0,"[0.02,0.02]",141.5436,0.0,24.0,24.0,126.0,1.0,,,,,,,
,,,,,,,6617c54a41ce14946db85944,68399d3d763592f1b67b7380,2025-05-30_13h57.59.147,shape_ratio,2024.1.5,MacIntel,60.24096386,683853e18dae57a2147b65e0,,,,,,,,,,,141.544,142.0441,,,142.2941,142.727,left,0.4222,,,,,,,,,0.45,,,,,,142.0442,142.2941,142.727,"[0.13492239725700114,-0.03634676470365084]",100.0,"[0.12288438623090707,0.06260147939166219]",4.0,"[-0.13222380440285775,0.04559830889221487]",100.0,"[0.07691966509299988,-0.06361100526024757]",100.0,"[-0.16263437510329165,-0.08051965405679198]",100.0,"[-0.032779610189959854,-0.09372644557688298]",100.0,"[0.1506065868526088,0.026504973865270485]",4.0,"[-0.10048659211842437,-0.1034742345387918]",4.0,"[-0.15720082195339274,-0.02915966084156448]",100.0,"[-0.03384845780176506,-0.174166936702385]",4.0,"[0.10870299608785268,0.013304001882905998]",100.0,"[0.005906182841718485,-0.0011835901420862713]",4.0,"[-0.08014233171087301,0.1816056105242014]",4.0,"[-0.08216296227256946,0.09492759078800338]",4.0,"[-0.05793407926356492,-0.0063862845218595225]",100.0,"[-0.009651374764371909,-0.1409349909552149]",100.0,"[0.11239426273009223,-0.14004588968958576]",4.0,"[0.08486281235668117,0.1262498367733771]",4.0,"[-0.019520503087800116,-0.03712162729804737]",4.0,"[-0.07455997215496256,-0.06972237222155164]",4.0,"[0.019259256513142517,-0.0535679221575592]",4.0,"[-0.04489732475351844,0.0783967902847338]",4.0,"[0.028601297253502554,0.18936616512825258]",100.0,"[0.06422336936900679,0.07400262728077933]",100.0,"[-0.17782528719937796,0.0525639591073461]",4.0,"[-0.13820584027221408,-0.13585596511845663]",100.0,"[-0.10891412192196352,-0.013085679971397672]",100.0,"[0.07349000430985313,-0.17155786794981856]",4.0,"[-0.16363100875317224,0.09119302115095486]",4.0,"[0.17755622411046573,0.0866250115702811]",4.0,"[0.058423415114683394,0.011438548932962849]",100.0,"[0.012702458022911528,-0.09960531962505939]",4.0,"[0.02,0.02]",143.8279,0.0,25.0,25.0,140.0,1.0,,,,,,,
,,,,,,,6617c54a41ce14946db85944,68399d3d763592f1b67b7380,2025-05-30_13h57.59.147,shape_ratio,2024.1.5,MacIntel,60.24096386,683853e18dae57a2147b65e0,,,,,,,,,,,143.8283,144.3279,,,144.5786,145.3614,left,0.7657,,,,,,,,,0.6,,,,,,144.3279,144.5786,145.3614,"[0.03532256142443029,0.1491878048015261]",100.0,"[0.09937950052188813,-0.11664668304995127]",4.0,"[0.0364427019356635,-0.0938269862340771]",4.0,"[-0.02065256254579155,0.05283077356099698]",4.0,"[0.10739577777534749,0.12750196377885384]",4.0,"[-0.026296316244248778,0.1924208279627695]",100.0,"[0.06276500513343496,0.07781355355506236]",4.0,"[-0.11470273093661998,-0.11743039787351427]",100.0,"[0.07561894918046531,0.039930799744040416]",4.0,"[-0.11861833628008164,0.11047982221757918]",100.0,"[-0.13057606608041156,0.05129869655702125]",100.0,"[-0.10880379486219505,0.014122048681955641]",100.0,"[0.05140837302534104,0.0037591028935145517]",4.0,"[0.14433277593773045,0.0002069747534575914]",4.0,"[0.030354642580278066,-0.1660712028362221]",4.0,"[-0.08175287858256933,-0.023845170819983958]",4.0,"[0.09571615605887583,-0.0003048500457342869]",4.0,"[-0.17289949274493285,-0.06745824738829181]",100.0,"[-0.173033713365292,0.06534339981259722]",100.0,"[0.008314121076990547,0.012805670025223325]",100.0,"[-0.08210110810921223,-0.08324848298690826]",4.0,"[-0.045541700132312284,0.08874714799260648]",4.0,"[-0.03473977600088168,-0.11859598382479841]",100.0,"[0.182893296054561,-0.014520700303163119]",100.0,"[-0.01863969363460902,-0.17479119897629045]",100.0,"[-0.10768697035832513,-0.1631340227258515]",100.0,"[0.08742293110935583,0.17148179683520284]",100.0,"[0.18311024879647148,0.048716671066175485]",100.0,"[0.15792556051808512,0.08445719038304109]",100.0,"[-0.03913928392094846,0.010492154740314799]",100.0,"[0.12643349533234244,-0.05709145097954264]",100.0,"[-0.09669033407007721,0.153250890681299]",100.0,"[0.02,0.02]",146.4613,0.0,26.0,26.0,45.0,1.0,,,,,,,
,,,,,,,6617c54a41ce14946db85944,68399d3d763592f1b67b7380,2025-05-30_13h57.59.147,shape_ratio,2024.1.5,MacIntel,60.24096386,683853e18dae57a2147b65e0,,,,,,,,,,,146.4617,146.9614,,,147.2119,147.9448,left,0.7174,,,,,,,,,0.45,,,,,,146.9614,147.2118,147.9449,"[0.0825522059323394,-0.1370671898465723]",100.0,"[0.14416895962568532,-0.05652811305292246]",100.0,"[-0.05582738373489277,0.1406449752442345]",100.0,"[0.006879697517820708,0.002096763838944391]",100.0,"[0.1520983857855704,0.012925747887211793]",4.0,"[-0.04522716620126477,-0.1366238981596984]",100.0,"[0.013618845410485862,-0.05188656984578422]",4.0,"[-0.08640246004209644,-0.04679380898993234]",4.0,"[0.0761059409021636,0.0721192411169026]",100.0,"[0.050560296583531734,-0.07950272231829397]",100.0,"[-0.11029948348823529,0.048555714623842526]",4.0,"[-0.02653509450982114,-0.07813999081006845]",100.0,"[0.015370929983588843,0.1652542339243861]",4.0,"[0.0071771605709410715,0.05987338143376878]",100.0,"[-0.1454098411887051,-0.06685327521019703]",4.0,"[0.003558972861948653,-0.1986632569186363]",4.0,"[0.18871624325967848,0.06460226570411572]",4.0,"[-0.18804101359281014,-0.016586572720315513]",100.0,"[0.040768904387263896,-0.17995950152377674]",100.0,"[0.14420629701159354,-0.12278747777143695]",4.0,"[0.13466073293719735,0.1362027735613858]",100.0,"[-0.13657095491745513,0.010347480284869662]",4.0,"[-0.0687559148426748,0.06968971483623009]",4.0,"[-0.13427363718387467,-0.11541405747372689]",100.0,"[0.054172349016204165,0.14029272371791812]",4.0,"[-0.0731114315881749,-0.16578281697190028]",4.0,"[0.10928166491904301,0.04086707561471989]",4.0,"[0.14753010730118607,0.09372576133409456]",4.0,"[0.02805169350555587,-0.11442917401067557]",4.0,"[0.12579060744216203,-0.017563088737645102]",4.0,"[-0.09484697251421119,-0.13115329971261883]",4.0,"[-0.1304626492391523,0.10292270388097331]",100.0,"[0.02,0.02]",149.0447,0.0,27.0,27.0,127.0,1.0,,,,,,,
,,,,,,,6617c54a41ce14946db85944,68399d3d763592f1b67b7380,2025-05-30_13h57.59.147,shape_ratio,2024.1.5,MacIntel,60.24096386,683853e18dae57a2147b65e0,,,,,,,,,,,149.0451,149.5438,,,149.7943,150.1615,right,0.3551,,,,,,,,,0.5,,,,,,149.5438,149.7943,150.1616,"[-0.011288817840898897,-0.1435404259564695]",4.0,"[0.07664041936965331,-0.17685691612478072]",100.0,"[0.15267407113442344,0.02211898269870315]",4.0,"[0.028144767345382567,-0.053582333407175824]",100.0,"[-0.06176083457084635,0.1793226878695255]",4.0,"[-0.06469309616085084,0.07429234836508769]",100.0,"[-0.09962624918262888,0.10936793462299682]",100.0,"[0.11502856484209525,-0.1264228497718067]",4.0,"[-0.13436112611877452,-0.11152214539407583]",100.0,"[0.1925505145668405,-0.020109272520026693]",100.0,"[0.08491494198050462,-0.08760165468372413]",4.0,"[-0.16133858900420486,0.08720837802658918]",4.0,"[0.16901951374225962,-0.09050525064398841]",100.0,"[-0.14040438510166994,-0.033638057277910555]",100.0,"[-0.1556406275118868,0.017099810974196734]",4.0,"[-0.09066311069831412,-0.15335558051031864]",4.0,"[0.1689058229809684,0.09111011859539687]",100.0,"[0.13358103659200715,0.06028221471319533]",100.0,"[0.05866018297358488,0.07335198971560254]",100.0,"[-0.19950279182021688,-0.00955710982334335]",100.0,"[0.096022274212037,0.12483424818766982]",4.0,"[-0.07773536808841314,-0.10235129603522376]",100.0,"[-0.03874078069071668,-0.027960522854698314]",4.0,"[0.04481201703308805,0.11727521777465312]",100.0,"[-0.002737540305274837,0.09615629813147702]",4.0,"[-0.0034978252539120177,-0.19535797234281055]",4.0,"[-0.002283496927796009,0.04093587577464967]",4.0,"[0.05255599910182336,0.18415861216675247]",4.0,"[0.11587481763833475,-0.009795879468539052]",4.0,"[-0.09450290756841395,0.027811228601099348]",4.0,"[0.19473896993938639,0.028752717697932306]",100.0,"[0.11014889535583929,0.16492331593046441]",100.0,"[0.02,0.02]",151.2605,0.0,28.0,28.0,104.0,1.0,,,,,,,
,,,,,,,6617c54a41ce14946db85944,68399d3d763592f1b67b7380,2025-05-30_13h57.59.147,shape_ratio,2024.1.5,MacIntel,60.24096386,683853e18dae57a2147b65e0,,,,,,,,,,,151.261,151.7606,,,152.012,152.9941,left,0.9652,,,,,,,,,0.5,,,,,,151.7606,152.0119,152.9941,"[-0.0800638697990722,-0.10162550404514636]",4.0,"[0.0028893889912143984,0.024631161263725693]",100.0,"[0.02837549253894269,-0.18871818100195376]",100.0,"[0.02779557539182436,-0.1092202707533749]",100.0,"[-0.0832754235809466,-0.14400140090691524]",100.0,"[-0.17871257458204887,-0.06800032083237682]",100.0,"[-0.012852888894587959,-0.058951632027541424]",100.0,"[-0.08505388026044673,0.044665366097925055]",4.0,"[0.09735345664376649,-0.14808239371488527]",100.0,"[-0.08386780460252023,-0.007528087459034744]",4.0,"[-0.10847965096043094,0.09746248721652281]",4.0,"[0.018116963610170532,0.07682706400347156]",100.0,"[0.01452950498367208,0.1175957253057893]",100.0,"[0.14342085972496024,0.10272569083230507]",4.0,"[-0.007018212570519179,-0.1627629350777084]",4.0,"[0.12369676668629742,-0.02292460685352356]",4.0,"[0.1803357137595987,0.009511392173755167]",4.0,"[-0.16064100391135636,0.10574120059255547]",100.0,"[-0.04680305158647197,0.12243820321126592]",100.0,"[0.060596799392521994,0.06990906729559086]",4.0,"[0.13593226385722496,-0.08278213120302254]",100.0,"[-0.03735327057365211,-0.02635710739116219]",100.0,"[-0.08752630310881647,-0.05612624684075363]",100.0,"[-0.1388832137113201,0.024694400648362393]",4.0,"[0.0467402189953185,0.032359689477000186]",100.0,"[0.1165855179817691,0.13950802012830152]",4.0,"[0.043019471905894426,0.1913221362361262]",4.0,"[0.08507870654030507,-0.08896042159719703]",4.0,"[-0.17459693410760088,-0.009488522089765833]",100.0,"[0.11106084883611934,0.04385670448815874]",4.0,"[0.051823582337932654,-0.03269943435745692]",4.0,"[-0.027886932709248736,0.1820067171697581]",4.0,"[0.02,0.02]",154.0948,0.0,29.0,29.0,106.0,1.0,,,,,,,
,,,,,,,6617c54a41ce14946db85944,68399d3d763592f1b67b7380,2025-05-30_13h57.59.147,shape_ratio,2024.1.5,MacIntel,60.24096386,683853e18dae57a2147b65e0,,,,,,,,,,,154.0953,154.5948,,,154.8454,155.4283,left,0.5659,,,,,,,,,0.5,,,,,,154.5949,154.8454,155.4283,"[0.07835292798297724,-0.03710922695540127]",4.0,"[-0.18644114193613667,-0.04786745597482833]",4.0,"[-0.17595696370041292,0.04299194928880742]",100.0,"[0.016527569572096043,-0.020931691431544393]",100.0,"[-0.05991301585829407,-0.17350797513381178]",100.0,"[-0.02130689595729674,-0.14729016008162357]",4.0,"[0.11044554113988991,0.13117938176436636]",4.0,"[-0.16589885493613013,0.09495112057159479]",4.0,"[0.16331597469629197,0.04743872097813771]",100.0,"[-0.009597902406823103,-0.07620184467646997]",4.0,"[0.12581465523403135,-0.10222742094714]",4.0,"[0.1281737973647994,-0.15136458653775606]",100.0,"[0.07207137632091333,-0.07728306764819601]",100.0,"[0.07356668475831453,0.17441206310350457]",100.0,"[-0.13050124674876576,0.039213587719999984]",4.0,"[-0.028035958342051172,0.10858718607383305]",100.0,"[0.008064504145974297,-0.1829243337666357]",4.0,"[-0.1254748713884764,-0.07217105228921845]",4.0,"[0.07485511058135205,-0.16291830235358562]",100.0,"[0.11825525708096603,-0.031464193513055246]",4.0,"[-0.11779368481580214,-0.013889628061906635]",100.0,"[-0.001414831426602514,0.06097755048737867]",4.0,"[-0.10792488085255043,0.08201536676847587]",4.0,"[-0.03828605010797543,-0.01660378155639977]",100.0,"[0.02811864266644668,0.19257600051018528]",4.0,"[-0.08569625519893916,0.12732703353987665]",100.0,"[-0.057261659141469495,-0.07986824754277438]",100.0,"[-0.057968402220799665,0.057952391013223]",4.0,"[-0.03490134069923721,0.18427638337424732]",4.0,"[0.17843008197873164,0.0016670957859410813]",100.0,"[0.06985455077259761,-0.12155520808327562]",100.0,"[-0.19580455699106675,-0.004545475625260801]",100.0,"[0.02,0.02]",156.5274,0.0,30.0,30.0,99.0,1.0,,,,,,,
,,,,,,,6617c54a41ce14946db85944,68399d3d763592f1b67b7380,2025-05-30_13h57.59.147,shape_ratio,2024.1.5,MacIntel,60.24096386,683853e18dae57a2147b65e0,,,,,,,,,,,156.5278,157.0274,,,157.2778,157.6117,right,0.3172,,,,,,,,,0.9,,,,,,157.0275,157.2778,157.6118,"[0.047547871500344306,-0.15766148787427348]",100.0,"[0.09208103785090317,0.12372628934021455]",100.0,"[0.05271903599010078,0.02643950722949312]",100.0,"[0.04570219391781632,-0.05770699423407693]",4.0,"[-0.06689935837461539,-0.12698133015473095]",100.0,"[-0.04868340729225962,-0.1806311251167829]",100.0,"[-0.11010151847879839,0.1572997062542795]",100.0,"[0.15517853090600298,0.09437402714710225]",100.0,"[-0.18327742525761417,-0.015655587680178065]",100.0,"[0.1215220732288258,-0.09242924497355287]",100.0,"[-0.030923777849102378,-0.040554449955530834]",4.0,"[0.09922398617094721,-0.1712882116111342]",100.0,"[-0.12348389352443465,0.08133570506714952]",100.0,"[-0.15933882308809708,-0.11669004800128395]",100.0,"[-0.13847361441305514,-0.01280401053885409]",100.0,"[0.07995627499330021,0.07069416061929726]",100.0,"[0.04485181884984351,0.12561320366936057]",100.0,"[0.18356351974135318,-0.07504752924641386]",100.0,"[0.0604503517243971,-0.11200296375620299]",100.0,"[-0.06933307486593973,-0.06978416097474234]",100.0,"[-0.0019369341658926871,-0.13206333517219465]",100.0,"[0.04390356318820171,0.17979497206077394]",100.0,"[0.08053064384809948,-0.02282782636862039]",100.0,"[0.14269305949737834,-0.13410034746004942]",4.0,"[-0.012948761607388757,0.05487755643964734]",100.0,"[0.1408701256426038,-0.04513850308086145]",100.0,"[-0.07707117544976909,-0.013928740575642556]",100.0,"[0.19302370948591913,0.008295332033149683]",100.0,"[-0.11389513000682061,-0.07181223020229693]",100.0,"[0.017231608275117792,0.003263001342325303]",100.0,"[-0.03286668410357231,0.0048383419055145925]",100.0,"[0.15153716341934306,0.008022423617394121]",100.0,"[0.02,0.02]",158.7107,0.0,31.0,31.0,23.0,1.0,,,,,,,
,,,,,,,6617c54a41ce14946db85944,68399d3d763592f1b67b7380,2025-05-30_13h57.59.147,shape_ratio,2024.1.5,MacIntel,60.24096386,683853e18dae57a2147b65e0,,,,,,,,,,,158.711,159.2107,,,159.4624,159.945,left,0.4782,,,,,,,,,0.5,,,,,,159.2108,159.4623,159.945,"[0.009490387536554415,-0.004947299061523666]",4.0,"[-0.10503972298078472,-0.12775418555123733]",100.0,"[-0.06306024768427342,-0.1200077128458764]",4.0,"[0.012248262131153395,-0.17908077652276683]",100.0,"[0.17358310350975312,-0.01712112626409789]",100.0,"[-0.11825594210753824,0.1304943041630247]",4.0,"[-0.14092906697230628,0.05588139642298375]",100.0,"[0.08327398421827044,0.044047730279308105]",100.0,"[0.14567878295832992,0.12578292273088254]",4.0,"[-0.10698018119460669,-0.07104895359112791]",100.0,"[-0.030026515898074594,-0.17762054110892886]",100.0,"[0.11017592276659267,0.07541851253745312]",4.0,"[0.12617329956242673,0.0047750567788334575]",4.0,"[0.06831884262368722,-0.11772978100091765]",100.0,"[-0.018623030524407853,-0.0780430743862812]",4.0,"[0.00372982392718187,0.06278112330596253]",100.0,"[0.05216547526855429,-0.1681982669926889]",4.0,"[-0.07248430863026324,0.11407601498343813]",100.0,"[0.07040903098453534,0.1576342771045758]",4.0,"[-0.1928429336136866,0.04831958328850716]",100.0,"[-0.07602694612542227,-0.16201526782875383]",4.0,"[-0.06404278268224706,0.18715116279249827]",100.0,"[-0.06963175095658086,-0.04896286012162042]",4.0,"[-0.10566343526541766,0.003136865986816256]",4.0,"[0.08529559087819216,-0.03380282773564328]",100.0,"[-0.15811650043558823,0.10412852766540968]",100.0,"[0.19306465561808642,0.047848832020174106]",4.0,"[0.08037510993910332,0.11292893543778754]",100.0,"[-0.06956656633991734,0.04412934857245193]",100.0,"[-0.1707880174297375,-0.010309285158123741]",4.0,"[0.18279870775607843,-0.07971042840273458]",4.0,"[0.1326871131941926,-0.07745950625732315]",4.0,"[0.02,0.02]",161.0442,0.0,32.0,32.0,114.0,1.0,,,,,,,
,,,,,,,6617c54a41ce14946db85944,68399d3d763592f1b67b7380,2025-05-30_13h57.59.147,shape_ratio,2024.1.5,MacIntel,60.24096386,683853e18dae57a2147b65e0,,,,,,,,,,,161.0446,161.5441,,,161.795,162.1785,right,0.3695,,,,,,,,,0.55,,,,,,161.5441,161.795,162.1786,"[0.03278934294707281,-0.03486891669187546]",4.0,"[-0.08793776384902706,-0.07939400109377664]",4.0,"[-0.17317325082685708,0.09741058878106078]",4.0,"[-0.10155978197857364,-0.15938242325106572]",100.0,"[-0.08101709392770197,0.11970136025123775]",100.0,"[-0.15660925417277186,-0.10059152775476779]",4.0,"[-0.06985285901515251,0.045688410689950526]",4.0,"[-0.05721028245594466,0.08480279290733879]",4.0,"[0.1257658476829556,-0.07058149454414069]",100.0,"[-0.055244353655571315,-0.10691354328099319]",100.0,"[-0.013528191231429296,-0.14477719514953216]",100.0,"[-0.10595518227525791,-0.03520847266430302]",4.0,"[0.09190061375849391,-0.14898339655104526]",100.0,"[-0.17842124292420108,-0.03479391842621583]",4.0,"[0.0842058525953136,0.17190910381750854]",100.0,"[0.13922188101016406,-0.026649420708964578]",4.0,"[0.19287311529704737,-0.02156204143657113]",100.0,"[0.1497038924209373,0.12964898246165749]",4.0,"[-0.024644936464577105,0.1409484521108339]",4.0,"[0.01515782770225334,0.18193440568380945]",4.0,"[0.17549617202367787,-0.09246009178352167]",100.0,"[0.15063628022054187,0.04894305431846411]",100.0,"[-0.043673697501040956,-0.012732174321567858]",100.0,"[0.15014046998510705,-0.12966293560084738]",100.0,"[-0.009208082434028486,-0.09837268105769474]",100.0,"[0.03798533740988617,0.0795422540858945]",4.0,"[-0.05189141137838122,0.17505783449143056]",100.0,"[-0.1189478600548477,0.15609046896788412]",100.0,"[0.06282400495208763,0.01983845101178388]",100.0,"[0.08761867202293204,0.05236707011125496]",100.0,"[-0.0014046451237678906,0.0940624179040506]",4.0,"[0.014391886425815466,-0.18771605900554017]",100.0,"[0.02,0.02]",163.2774,0.0,33.0,33.0,64.0,1.0,,,,,,,
,,,,,,,6617c54a41ce14946db85944,68399d3d763592f1b67b7380,2025-05-30_13h57.59.147,shape_ratio,2024.1.5,MacIntel,60.24096386,683853e18dae57a2147b65e0,,,,,,,,,,,163.2779,163.7784,,,164.0287,164.4119,left,0.3673,,,,,,,,,0.1,,,,,,163.7785,164.0287,164.4119,"[0.010089102171769395,-0.09543622694617973]",4.0,"[-0.03442612263637368,0.0866051049355246]",4.0,"[-0.04352350000216488,-0.12538147065586058]",100.0,"[0.1403869331064023,0.03918493636178695]",4.0,"[0.12118962405476086,-0.1319419757065143]",4.0,"[0.012159425851054798,0.1004071194309602]",100.0,"[-0.09656804812414516,0.07902727596212723]",4.0,"[-0.11925716521149182,-0.007405428894521725]",4.0,"[-0.09296706549897678,-0.14307865564537925]",4.0,"[-0.13071651072063936,-0.08167810098144639]",4.0,"[0.06769025713123732,0.1677427526666077]",4.0,"[-0.06134939782391138,0.02376768211999019]",4.0,"[0.17352680411575272,-0.059800427616560736]",4.0,"[0.04292434889775525,-0.12498802135443643]",4.0,"[-0.0016175835455506484,0.006464482587074304]",4.0,"[-0.1421276648337282,0.07461136764527578]",4.0,"[0.10632141899946332,-0.04293321234892145]",4.0,"[0.1751567825508427,0.018760796887376096]",4.0,"[-0.06839884815211424,0.18029041920018793]",4.0,"[0.017638499140677364,-0.052996061558388256]",4.0,"[0.0742878488556123,-0.17550802322489176]",4.0,"[-0.17130234030451436,-0.002939167376529965]",4.0,"[0.001069745731516274,-0.1978401995816139]",4.0,"[-0.177077810153338,-0.0786917725288155]",4.0,"[0.1537620373133441,-0.1014873401303435]",4.0,"[0.024013180896565477,0.17036775148994027]",4.0,"[0.10305190354282004,0.12349494295726866]",4.0,"[-0.0715019637834044,-0.04603673754419446]",100.0,"[-0.11289667930698846,0.0335699097531176]",4.0,"[-0.14346025011771865,-0.03942921001379263]",4.0,"[-0.11087855024269744,0.14169965491208847]",4.0,"[-0.031113422361407964,-0.06234014761429233]",4.0,"[0.02,0.02]",165.5117,0.0,34.0,34.0,208.0,1.0,,,,,,,
,,,,,,,6617c54a41ce14946db85944,68399d3d763592f1b67b7380,2025-05-30_13h57.59.147,shape_ratio,2024.1.5,MacIntel,60.24096386,683853e18dae57a2147b65e0,,,,,,,,,,,165.5121,166.0117,,,166.2615,166.7952,right,0.5289,,,,,,,,,0.55,,,,,,166.0117,166.2614,166.7953,"[0.070668945086832,-0.03738426490398591]",4.0,"[0.12832977835561862,0.14122107917213847]",100.0,"[-0.01162265823007037,-0.03342449239211348]",4.0,"[0.048394797511559576,0.15665405300162025]",100.0,"[0.06598998652643046,-0.15498236128390255]",100.0,"[-0.04455556454448345,-0.10178493854759957]",4.0,"[-0.09521071691087614,-0.07239287977508561]",4.0,"[0.01965013375404113,0.02295772641702132]",100.0,"[0.09689678550524845,-0.07769869564600779]",100.0,"[-0.1472319970981379,0.06533641719600466]",4.0,"[-0.16968878465157514,-0.04165127891562924]",4.0,"[0.1353931314917052,-0.1291399096642401]",4.0,"[-0.14479458429731948,0.12239195339668558]",4.0,"[-0.12985660847117986,-0.009316139650902529]",4.0,"[-0.028359155901498612,0.09588551029456378]",100.0,"[0.08078241600746343,0.030516942012344617]",100.0,"[-0.12296296899159104,0.15753482900608554]",100.0,"[0.005911197900452374,0.1939894858893834]",100.0,"[0.17774576063786374,0.012654536489025713]",100.0,"[0.06783334163006534,-0.11208975815108124]",4.0,"[-0.06387455662140375,0.11461972389905026]",4.0,"[-0.1651280981421091,-0.10289773720103032]",100.0,"[-0.10129498590984826,0.058751954580729675]",100.0,"[-0.06801207843591274,0.160509082053696]",100.0,"[0.136422628737907,-0.007181017862732279]",100.0,"[0.1815348144087302,-0.06079194645901474]",100.0,"[0.08797570489879332,0.14868204552074624]",100.0,"[-0.19791889143241737,0.013389624161715328]",100.0,"[-0.022567489454288034,-0.1939107692004425]",100.0,"[0.012441381982624575,-0.1487061206785911]",4.0,"[-0.059641491465845076,-0.017477166825721722]",4.0,"[0.053840148195794094,0.09959905931552268]",4.0,"[0.02,0.02]",167.8943,0.0,35.0,35.0,67.0,1.0,,,,,,,
,,,,,,,6617c54a41ce14946db85944,68399d3d763592f1b67b7380,2025-05-30_13h57.59.147,shape_ratio,2024.1.5,MacIntel,60.24096386,683853e18dae57a2147b65e0,,,,,,,,,,,167.8946,168.3947,,,168.6454,169.0621,right,0.4062,,,,,,,,,0.9,,,,,,168.3948,168.6454,169.0622,"[-0.18190836169086888,-0.06101249629334862]",100.0,"[-0.05033517665433126,-0.12782528680502953]",4.0,"[-0.009913948118743084,0.12816657320619645]",4.0,"[-0.12864987066008518,-0.11175247437868983]",100.0,"[0.09600843153004182,-0.02075618089450579]",100.0,"[-0.12008777332221779,0.008907782392685646]",100.0,"[0.04643462146054309,-0.07038633334631043]",100.0,"[0.06309518771563113,0.16051719351830782]",100.0,"[0.03841873453543966,0.028114065943621883]",100.0,"[0.09983556681118458,-0.12134343535977993]",100.0,"[0.13685243022886978,0.03260558152533223]",100.0,"[-0.002556158328876936,-0.1725199856557244]",100.0,"[0.06916765060578842,0.0681701434366836]",100.0,"[0.1980728716945,-0.006521280824324089]",100.0,"[0.17197999218709173,-0.08199039776822276]",100.0,"[-0.012000858681134917,-0.03012293278099557]",100.0,"[-0.05053563052070315,0.1253414898162059]",100.0,"[0.030983506342611225,0.09465868489717803]",100.0,"[-0.12370611594377477,-0.043487583684288934]",4.0,"[-0.025940130168743063,0.023114798842281643]",100.0,"[-0.05395837369984468,-0.1714433081176392]",100.0,"[-0.07453602469527587,0.18284141785193989]",100.0,"[0.02658714978787728,-0.13741284191066908]",100.0,"[-0.12167176616707162,-0.15151477424348012]",100.0,"[0.10804377599652529,-0.16471474890517138]",100.0,"[-0.06261379052279978,-0.08370834762691692]",100.0,"[0.15486971029537633,-0.024229948545356355]",100.0,"[-0.011663805617136267,-0.10389035894918089]",100.0,"[-0.07057531928529975,-0.03753578857690702]",100.0,"[-0.10296535031227111,0.14072408892377844]",100.0,"[0.023694904520540336,0.18855101954679543]",100.0,"[-0.19625062879015512,0.0029106566323792824]",100.0,"[0.02,0.02]",170.1618,0.0,36.0,36.0,17.0,1.0,,,,,,,
,,,,,,,6617c54a41ce14946db85944,68399d3d763592f1b67b7380,2025-05-30_13h57.59.147,shape_ratio,2024.1.5,MacIntel,60.24096386,683853e18dae57a2147b65e0,,,,,,,,,,,170.1623,170.6619,,,170.9114,171.4954,left,0.5691,,,,,,,,,0.1,,,,,,170.6619,170.9114,171.4955,"[-0.02811550164909609,-0.1188296559810323]",4.0,"[0.07601772812951868,0.10261477234671475]",4.0,"[0.11984172411668104,-0.00015802735087422628]",4.0,"[0.13799219412692523,0.08270713408232229]",4.0,"[0.0948456573536592,-0.13214764117073916]",4.0,"[-0.15909164773816803,-0.06354631240886476]",4.0,"[0.01714159487399473,0.17709314702669438]",4.0,"[-0.10535742947047634,-0.030465588016052265]",4.0,"[-0.19059580406745125,-0.02807190989517594]",4.0,"[-0.011975431834065383,-0.021370192675159924]",4.0,"[-0.02753319451111235,0.15657062149752693]",4.0,"[0.016835352229688277,-0.0789852063572366]",4.0,"[0.02521411884887273,0.007096042250979459]",4.0,"[-0.14486111665505783,0.084858039247564]",100.0,"[0.004339863390341515,0.13214381263522548]",4.0,"[-0.18835726209371376,0.04092667571187933]",4.0,"[-0.08763447845903213,0.17564286596604098]",4.0,"[-0.16774621151376357,0.0056129877252048335]",4.0,"[-0.10029759260799509,-0.12347747312945805]",4.0,"[0.18090638825206484,0.026533728337410693]",4.0,"[0.08806422080350092,-0.04695921693032358]",4.0,"[0.17895995675549897,-0.050453644301946]",4.0,"[0.04536078033767143,-0.03680022321942919]",4.0,"[0.1304780827447533,-0.0801214817450421]",4.0,"[0.012414642224021314,-0.19450090827629152]",4.0,"[0.05635552051381671,-0.1444572715900191]",4.0,"[-0.06563445588305133,0.03581563198803165]",4.0,"[-0.04565252563872996,-0.07197255858492733]",100.0,"[0.07289827423945193,0.05854839852153299]",4.0,"[-0.11689429140297335,0.11572598924671106]",4.0,"[-0.043859891739605514,0.11054734479312843]",4.0,"[-0.1323014540928544,0.030321084001803396]",100.0,"[0.02,0.02]",172.5953,0.0,37.0,37.0,206.0,1.0,,,,,,,
,,,,,,,6617c54a41ce14946db85944,68399d3d763592f1b67b7380,2025-05-30_13h57.59.147,shape_ratio,2024.1.5,MacIntel,60.24096386,683853e18dae57a2147b65e0,,,,,,,,,,,172.5956,173.0953,,,173.3448,173.8121,right,0.4504,,,,,,,,,0.4,,,,,,173.0953,173.3448,173.8121,"[-0.04879815331651779,-0.04079217591915416]",4.0,"[0.14487573934340717,0.02618443899992756]",100.0,"[-0.08735845518619871,0.17759309264035095]",4.0,"[0.19118195593202625,-0.04085321137533677]",4.0,"[-0.036200849659178226,0.05578813767311315]",100.0,"[-0.17713884719195183,0.03341000527335239]",4.0,"[0.11215597318160726,0.14893764064749707]",4.0,"[0.0244689034971723,-0.11726307712986003]",100.0,"[-0.0005382980434074341,0.10106464975823412]",4.0,"[0.03717466715741931,0.11834656767328068]",100.0,"[-0.06622985294251202,-0.18052198172169337]",4.0,"[-0.17842338072584443,-0.012248866545288768]",4.0,"[0.05485474425269876,-0.07747559247361094]",100.0,"[0.09451605949293324,-0.023116505497606816]",100.0,"[0.1261917636319439,0.0738742474860801]",4.0,"[0.07297622137003405,-0.16217578906245808]",100.0,"[-0.1508093519538976,0.07090429769197255]",100.0,"[0.14072079475700786,-0.12468397458525536]",4.0,"[0.07570466796511906,0.09843385781744948]",100.0,"[0.04839688419249311,0.17232820378944397]",4.0,"[0.09784229182930103,-0.06300176067126882]",4.0,"[0.0689451182847415,0.02299583719249642]",4.0,"[-0.08555549316462077,-0.14082598584628847]",4.0,"[-0.0803482958990699,0.05113040581845702]",4.0,"[0.1889514364797903,0.032639551528421254]",4.0,"[-0.045038147042673435,-0.11647343539554063]",100.0,"[-0.07392102641464662,0.12390588215487419]",100.0,"[0.035642397973951974,0.045683795135257506]",4.0,"[-0.007401588329712751,0.1907531964052181]",4.0,"[-0.10564484599327989,-0.0483813476776603]",100.0,"[-0.1507774491992809,-0.04163577691024936]",4.0,"[-0.13826031960390361,0.1282698259228554]",100.0,"[0.02,0.02]",174.9112,0.0,38.0,38.0,174.0,1.0,,,,,,,
,,,,,,,6617c54a41ce14946db85944,68399d3d763592f1b67b7380,2025-05-30_13h57.59.147,shape_ratio,2024.1.5,MacIntel,60.24096386,683853e18dae57a2147b65e0,,,,,,,,,,,174.9116,175.412,,,175.6617,176.3289,right,0.6499,,,,,,,,,0.45,,,,,,175.412,175.6617,176.3289,"[-0.18465572098587305,0.015577836691800209]",100.0,"[-0.1469417364658971,0.10955271397505169]",4.0,"[-0.0780789452569775,0.02024646075838959]",100.0,"[-0.0005764292430268205,-0.13935882960020282]",4.0,"[0.027718576344724428,-0.1815901597332993]",100.0,"[0.04365449505333496,0.046983296513703594]",100.0,"[0.12999822618771806,0.1022843380241462]",4.0,"[0.09024710559638827,-0.17391778112877085]",4.0,"[-0.08378298041329645,-0.10671197266094172]",4.0,"[0.18992361650348977,-0.03258492623593573]",4.0,"[-0.04546528021211038,0.1226337179014393]",100.0,"[0.10181486263892053,0.14712625346464667]",100.0,"[0.005757200998371623,-0.0054816336686715015]",4.0,"[-0.06871684345011767,-0.030146741742946688]",100.0,"[0.06481709657349,-0.012861124728370761]",4.0,"[0.17853930906865884,0.07108884025077221]",4.0,"[-0.0081043816887991,0.09655707404582455]",100.0,"[-0.0968569143563626,0.10605207465523887]",4.0,"[0.14456078613081158,-0.13157983834260387]",4.0,"[-0.03657008255412119,-0.16715914376213517]",100.0,"[0.05491738917367311,-0.14013798492013102]",100.0,"[-0.11227112977707725,0.06515427365937414]",100.0,"[-0.16195365371759432,-0.03951510245066027]",4.0,"[-0.07389272236691367,-0.14912680085498667]",4.0,"[0.14037753579053971,-0.018668544729343154]",100.0,"[-0.15418320955444206,-0.1228561651681515]",100.0,"[0.14170325271403975,0.02301310200367056]",100.0,"[0.0775138952808513,-0.06916156892879803]",4.0,"[0.10117090684536247,0.013107131983900372]",4.0,"[0.06356104428568983,0.1877731385710564]",4.0,"[-0.09219361316029777,0.17356897627486118]",4.0,"[0.13912359959190437,-0.07781198066946769]",4.0,"[0.02,0.02]",177.4287,0.0,39.0,39.0,139.0,1.0,,,,,,,
,,,,,,,6617c54a41ce14946db85944,68399d3d763592f1b67b7380,2025-05-30_13h57.59.147,shape_ratio,2024.1.5,MacIntel,60.24096386,683853e18dae57a2147b65e0,,,,,,,,,,,177.4291,177.9287,,,178.1784,178.6612,right,0.4671,,,,,,,,,0.5,,,,,,177.9287,178.1784,178.6613,"[0.11877729037534161,0.05954245384891197]",100.0,"[0.01089892429279841,-0.018544023615118744]",4.0,"[-0.002721527607657004,-0.16578036958208886]",4.0,"[0.05090307672148601,-0.11994981591283173]",100.0,"[0.11254446149698849,-0.022190385882274555]",100.0,"[-0.03442971412941538,-0.11227089468987289]",4.0,"[-0.10820101517918411,-0.043185460413046536]",4.0,"[0.17479827466786665,-0.08893776808661241]",100.0,"[0.039256777089732776,0.03438859801946507]",100.0,"[-0.05710885830228059,-0.023026836028428047]",4.0,"[0.10474977653383472,0.0987802433389644]",100.0,"[-0.01831359377845317,0.023382570999777752]",4.0,"[0.17650227150025277,0.01563996570027067]",4.0,"[0.12884173095634202,-0.07574703625582259]",4.0,"[-0.02648280165663442,0.08470676561994558]",4.0,"[-0.1615917891582959,0.10420781974099033]",4.0,"[-0.035886498473471064,0.16983998703980727]",4.0,"[-0.09723386954814627,0.04337389122313647]",100.0,"[0.1962763854460322,-0.02793426442775315]",4.0,"[-0.16476207415302596,-0.09474324701359671]",4.0,"[-0.0937577761848387,0.15341726054729948]",100.0,"[0.1718191904084108,0.08005314491316069]",4.0,"[0.08782656650525038,0.15279903034177794]",100.0,"[-0.06139220261957344,-0.07595303436686267]",100.0,"[-0.13045652450894307,-0.13357139461875472]",100.0,"[0.034160569991018096,0.16609063149274383]",100.0,"[-0.015573554573390259,-0.0544477254475942]",100.0,"[-0.05964242026840972,-0.1573582617996965]",100.0,"[0.06371095478001694,-0.18403204339885668]",4.0,"[-0.17813638276518737,0.056943481443816585]",100.0,"[0.14133714345043327,0.13061472093019044]",4.0,"[0.04717442980557643,-0.04055240238158892]",100.0,"[0.02,0.02]",179.7612,0.0,40.0,40.0,118.0,1.0,,,,,,,
,,,,,,,6617c54a41ce14946db85944,68399d3d763592f1b67b7380,2025-05-30_13h57.59.147,shape_ratio,2024.1.5,MacIntel,60.24096386,683853e18dae57a2147b65e0,,,,,,,,,,,179.7616,180.2622,,,180.5127,180.9123,right,0.3853,,,,,,,,,0.4,,,,,,180.2622,180.5126,180.9123,"[0.09006398414634723,0.07240241066109596]",4.0,"[-0.08041735904677148,0.15456605237742235]",4.0,"[-0.0279382517714985,0.12322104661796186]",100.0,"[-0.1344108842782993,-0.02938224815817203]",100.0,"[0.0812848875599779,0.028772959486755192]",4.0,"[0.15002233912879553,-0.03076963434223899]",4.0,"[0.13307746123725722,0.11871630778278379]",4.0,"[-0.17092519106450138,0.018078618810673387]",100.0,"[0.10427755295594318,-0.04266705174930026]",4.0,"[0.05406761577524929,-0.0085981235009545]",4.0,"[-0.13711643948188243,-0.07798455960512228]",4.0,"[-0.10883179173888455,-0.15280394585373225]",100.0,"[0.01302799851293345,-0.14775773202384035]",100.0,"[0.14060341761570844,-0.07858876614553532]",4.0,"[-0.07477591349450743,0.06092869954179209]",4.0,"[-0.06460630361714438,-0.0739247328613496]",100.0,"[-0.05068768470604644,0.01885009968690463]",4.0,"[0.0784212794049073,-0.17343228629184534]",100.0,"[-0.1170269929783033,0.0217827362020013]",4.0,"[0.18623479480703004,-0.07214549868123499]",100.0,"[0.066074696945431,0.12018564835693395]",4.0,"[-0.01566668160115186,0.18176711862126843]",100.0,"[-0.10085977615362884,-0.112802297825808]",4.0,"[-0.0633084703212454,-0.13935769307147555]",100.0,"[0.09691246769188754,0.1609464743231988]",100.0,"[-0.150863388929461,0.09615377034103859]",4.0,"[0.029761716280722196,0.1381430602130648]",100.0,"[-0.009114774869464836,-0.11316424732831848]",4.0,"[-0.12116634425125389,0.06473803824139629]",4.0,"[0.021569197608781322,-0.04710729499540879]",4.0,"[0.011146134502993637,0.026969528130402837]",4.0,"[0.000338972490478775,-0.19014299738534893]",100.0,"[0.02,0.02]",182.0122,0.0,41.0,41.0,165.0,1.0,,,,,,,
,,,,,,,6617c54a41ce14946db85944,68399d3d763592f1b67b7380,2025-05-30_13h57.59.147,shape_ratio,2024.1.5,MacIntel,60.24096386,683853e18dae57a2147b65e0,,,,,,,,,,,182.0125,182.5121,,,182.7628,183.0952,right,0.3157,,,,,,,,,0.9,,,,,,182.5121,182.7627,183.0952,"[-0.09711778522409203,0.05449243547362021]",100.0,"[-0.036730053424921714,-0.015390400462966605]",100.0,"[0.14366461534040473,-0.02648615479452736]",100.0,"[0.14157258439492498,-0.09903939203932763]",4.0,"[-0.030880223308253473,0.15367216840731937]",100.0,"[0.16566085521281154,-0.06385905069258564]",100.0,"[-0.1391126559047406,0.035173861645382]",100.0,"[0.04703141442770352,-0.06490194658002964]",4.0,"[0.15095946695049145,0.10933529310615082]",100.0,"[-0.05315163183175713,0.06407989096598828]",100.0,"[0.0736247996816763,0.09652169643174321]",100.0,"[-0.14702275114325872,0.07693336124314085]",100.0,"[-0.054298487259052154,-0.08650014737088035]",100.0,"[0.11350762749325323,-0.14287458959058996]",100.0,"[0.046292373110243853,0.1269144046281918]",100.0,"[0.1445884248697865,0.061316956322816765]",100.0,"[-0.017428268754286297,-0.12147035030410523]",100.0,"[-0.08206296188964039,0.1784851724736043]",100.0,"[0.18821902195851173,-0.011034002571247035]",100.0,"[-0.1799885443471063,0.04162047810766551]",100.0,"[-0.1480710091756014,-0.06783444698091258]",100.0,"[-0.15932301735391685,-0.02267684899929562]",100.0,"[0.018646284311296488,0.01131581362250616]",100.0,"[0.1263828141624021,0.01746021868773516]",100.0,"[-0.10405270184238748,0.10349896709558551]",100.0,"[-0.13536457377481595,0.1354317444146495]",100.0,"[0.018635031753379213,0.06347975795898336]",100.0,"[0.06158955226511045,-0.12790351264564198]",100.0,"[-0.049434692979584534,-0.1555671924321263]",100.0,"[-0.1082157949225133,0.006807051202467628]",4.0,"[-0.011809378709529843,-0.06835173567613402]",100.0,"[-0.08723174011599029,-0.11376372077722122]",100.0,"[0.02,0.02]",184.1947,0.0,42.0,42.0,16.0,1.0,,,,,,,
,,,,,,,6617c54a41ce14946db85944,68399d3d763592f1b67b7380,2025-05-30_13h57.59.147,shape_ratio,2024.1.5,MacIntel,60.24096386,683853e18dae57a2147b65e0,,,,,,,,,,,184.1951,184.6956,,,184.9459,185.3457,right,0.3825,,,,,,,,,0.9,,,,,,184.6956,184.9458,185.3457,"[-0.05996319035774842,-0.04545879100967236]",100.0,"[0.05273674774577946,-0.10308551466730323]",100.0,"[0.14279731548577992,-0.09592464340287486]",100.0,"[-0.15224274525241807,0.07839491036677326]",100.0,"[0.06471570409939205,0.14918525764093157]",100.0,"[-0.09032983829881752,0.1321165472512867]",100.0,"[-0.05627131635572389,0.08713683858522493]",100.0,"[0.019055188467756633,-0.1417292996859927]",100.0,"[0.18116448270310667,-0.03843832690445114]",4.0,"[-0.13371503976312893,-0.07236171476765817]",100.0,"[-0.054192264531873806,0.16016385347558534]",100.0,"[0.02338238318682904,0.04480326269184665]",100.0,"[-0.02077535880530766,-0.03521974413543701]",4.0,"[-0.029869681288425872,-0.09362411086539854]",100.0,"[0.03250208020924059,-0.06700594628959694]",100.0,"[0.07682944739176945,0.01862271767728061]",100.0,"[-0.008094094398660618,0.11981899233428803]",100.0,"[-0.01404656084218808,-0.17993748753517264]",4.0,"[-0.17620013664570117,0.016392318055502977]",100.0,"[0.13882935264792615,-0.005375877069949819]",100.0,"[0.07122894846579553,-0.16503773272031297]",100.0,"[0.07125649045655286,0.0693117450271012]",100.0,"[-0.05917086494089921,0.02258023557912718]",100.0,"[-0.13344521158985723,0.12855357931536993]",100.0,"[0.16963289691276728,0.07376068185279416]",100.0,"[-0.1541872795414531,-0.03334002686347185]",100.0,"[-0.18014394198334435,-0.06757974192719803]",100.0,"[0.08857081405959998,-0.037085392238626044]",100.0,"[0.01952935920202126,0.001806171281112017]",100.0,"[-0.12436432449550983,-0.1344691428294522]",100.0,"[0.10263091701841866,0.12231597887135201]",100.0,"[-0.005502224756052113,0.17253718250821828]",100.0,"[0.02,0.02]",186.4456,0.0,43.0,43.0,3.0,1.0,,,,,,,
,,,,,,,6617c54a41ce14946db85944,68399d3d763592f1b67b7380,2025-05-30_13h57.59.147,shape_ratio,2024.1.5,MacIntel,60.24096386,683853e18dae57a2147b65e0,,,,,,,,,,,186.4459,186.9448,,,187.1961,187.6124,right,0.4113,,,,,,,,,0.6,,,,,,186.9448,187.1961,187.6124,"[-0.10202091201719213,-0.029389115754290252]",100.0,"[-0.0005105748806793755,-0.09936750938572132]",100.0,"[0.05622723533057708,0.0967851971470185]",100.0,"[-0.12923219309622555,-0.15142300534698902]",100.0,"[0.15355672440357293,-0.050384234017067965]",100.0,"[0.07098751591189371,0.005010474276147238]",4.0,"[-0.14953876125147889,0.012509464460303344]",100.0,"[-0.028307728470751466,0.06083550877720986]",4.0,"[0.13452557750152622,0.046792381487754914]",100.0,"[-0.05902945893601215,-0.0683542649617009]",100.0,"[0.05721352166781938,-0.046835039607135344]",100.0,"[0.11105126709363153,-0.1254187804173804]",4.0,"[0.030654991996813794,0.00804201963073044]",100.0,"[-0.09269555646400884,0.019539919918398815]",4.0,"[-0.003151852466331718,-0.1924730897967336]",4.0,"[-0.017754747584908345,0.13160607112708042]",4.0,"[0.18266885386670914,-0.017897039109447628]",4.0,"[0.04988717121635118,-0.11357534834062928]",100.0,"[-0.03706865397845185,-0.11840386416609036]",4.0,"[0.10767703034699463,-0.03247575322238784]",4.0,"[0.03416974730434813,0.144143646164253]",100.0,"[0.12463232163275141,0.11681658868330169]",4.0,"[0.07654750454840138,0.16844519374152844]",100.0,"[-0.1321096186875284,-0.06163419520881518]",4.0,"[-0.001571261596161209,-0.027501157483772864]",4.0,"[-0.1376402341241421,0.10988976982951187]",100.0,"[0.013286347172406628,0.058671182696532535]",4.0,"[0.04419308033216671,-0.16259796723558775]",100.0,"[-0.18123998635927915,-0.020302626849450486]",100.0,"[-0.10508489944326983,0.07057541304578732]",100.0,"[0.17612931172397742,0.0534799410877986]",100.0,"[-0.0937211938069667,0.1437461079551538]",100.0,"[0.02,0.02]",188.7123,0.0,44.0,44.0,57.0,1.0,,,,,,,
,,,,,,,6617c54a41ce14946db85944,68399d3d763592f1b67b7380,2025-05-30_13h57.59.147,shape_ratio,2024.1.5,MacIntel,60.24096386,683853e18dae57a2147b65e0,,,,,,,,,,,188.7128,189.2115,,,189.4626,189.8624,right,0.3867,,,,,,,,,0.9,,,,,,189.2115,189.4625,189.8624,"[-0.1680054571034179,-0.06960769262156899]",4.0,"[0.14223092854953706,0.12308376677252157]",100.0,"[0.00005002124743722823,-0.1469881949907309]",100.0,"[-0.03925545521423214,0.019131042433381165]",100.0,"[-0.03811580150313146,-0.13282183196453465]",100.0,"[0.008120759805288015,0.09288485213865565]",100.0,"[-0.06144472377255669,-0.18969747114541663]",100.0,"[-0.05865435201893733,-0.09813442489585794]",100.0,"[0.08309008970681442,0.04829483076781706]",100.0,"[0.016848367624844273,-0.06859573305237397]",100.0,"[0.07762888080467147,-0.1204488709476571]",100.0,"[0.13756391338546933,-0.003945316736999553]",100.0,"[-0.06546881437838907,-0.04226967851394658]",100.0,"[-0.11570638219021043,0.0009421700481352318]",100.0,"[-0.07900046614753155,0.0616208048084026]",100.0,"[-0.10439442564225669,0.13093059913601182]",100.0,"[0.1333858001436236,-0.058190113908534374]",100.0,"[0.15974781293194606,0.054358215402773004]",100.0,"[-0.14349319625489027,0.0806850675300452]",100.0,"[0.002220319121261577,0.04845445135858335]",4.0,"[0.09320263118922743,0.11583164600958193]",100.0,"[0.17842195987073026,-0.0660386155957589]",100.0,"[0.001650606517477802,0.1673538988060581]",100.0,"[-0.08969611646736969,-0.14158777663506572]",100.0,"[0.03773584731623261,0.022355696572594643]",100.0,"[0.05073156895247688,0.12855307084159553]",100.0,"[-0.141125429336423,-0.1093043400234483]",100.0,"[0.06912662943666838,-0.07683730644702358]",100.0,"[-0.19622574328591239,-0.017322554379121745]",4.0,"[-0.04084509972449398,0.18843592780868976]",100.0,"[0.01676487517790087,-0.015414827399434998]",100.0,"[-0.04286804725217976,0.11830831674730934]",100.0,"[0.02,0.02]",190.9619,0.0,45.0,45.0,24.0,1.0,,,,,,,
,,,,,,,6617c54a41ce14946db85944,68399d3d763592f1b67b7380,2025-05-30_13h57.59.147,shape_ratio,2024.1.5,MacIntel,60.24096386,683853e18dae57a2147b65e0,,,,,,,,,,,190.9623,191.4615,,,191.712,192.046,right,0.3294,,,,,,,,,0.4,,,,,,191.4615,191.712,192.046,"[-0.06664805408249434,-0.0004478046496341994]",4.0,"[-0.1255001389643262,-0.15374526275928277]",100.0,"[0.0024169925427073645,-0.07246121223654449]",4.0,"[0.02896039788411043,-0.1445194104966019]",100.0,"[0.07024975114181856,-0.03169807459225825]",100.0,"[-0.03203998508655748,0.10076940158907825]",4.0,"[0.07985833030181114,-0.16648705145099893]",4.0,"[-0.051586738342043297,-0.1594440596348402]",4.0,"[-0.11524703615900618,-0.06682073013666494]",100.0,"[0.10451447744219322,-0.06682190955118471]",100.0,"[0.06696422915887716,0.05583325403622429]",4.0,"[-0.07137482921675632,0.07447876603888996]",100.0,"[-0.025007886785992015,0.17063928361380798]",4.0,"[0.08786710168785765,0.015417751421073704]",100.0,"[-0.15611402753372053,0.08952152202353815]",4.0,"[-0.05249755678723476,-0.09985842406009643]",4.0,"[0.0916614195699863,0.14178890162133734]",100.0,"[-0.16535292184180497,-0.10772130435051001]",4.0,"[0.044213055121315674,-0.08673640595737052]",100.0,"[0.18002306624730496,-0.009458192046555127]",4.0,"[-0.15345600724915914,0.04020600797824539]",4.0,"[-0.12261956608439456,-0.011476435725082917]",100.0,"[-0.13051587433957898,0.13956224586586288]",4.0,"[0.057003092886323936,0.09978698214624962]",100.0,"[0.06280212986023576,0.17652452887024572]",100.0,"[0.02339887713506464,0.02635323752171226]",4.0,"[0.12147512450124846,-0.14094039518216722]",100.0,"[0.14399121531159556,0.11886715840232556]",4.0,"[0.16596397922957665,-0.09268238105992879]",4.0,"[-0.18482787276368198,-0.05210487229215079]",4.0,"[0.18681308642922007,0.07115439436788919]",4.0,"[0.014480866947529845,-0.03382568219537795]",4.0,"[0.02,0.02]",193.1458,0.0,46.0,46.0,168.0,1.0,,,,,,,
,,,,,,,6617c54a41ce14946db85944,68399d3d763592f1b67b7380,2025-05-30_13h57.59.147,shape_ratio,2024.1.5,MacIntel,60.24096386,683853e18dae57a2147b65e0,,,,,,,,,,,193.1462,193.6448,,,193.8961,194.6292,right,0.7218,,,,,,,,,0.45,,,,,,193.6448,193.8961,194.6292,"[-0.08093700011767649,-0.03553599476122335]",4.0,"[-0.03790916684741639,-0.12130274350091118]",100.0,"[0.12627851217241903,0.062466574832666245]",100.0,"[-0.026207346949745473,0.05901823031532712]",100.0,"[0.165230178888039,0.10233931281989575]",100.0,"[0.016863212917915954,0.14880577785394944]",4.0,"[-0.09695460557542508,0.10053635985002385]",4.0,"[-0.1511067009711175,0.06857415916596593]",100.0,"[-0.002026105884798124,0.11163031357250783]",100.0,"[0.1764828005933755,-0.07373576807833931]",4.0,"[-0.1183611088415077,-0.0037181818399937778]",4.0,"[-0.15795665208718876,0.1091673132287499]",4.0,"[-0.19767470689404038,0.00653032786119344]",4.0,"[-0.10510095102088406,0.03505020492529726]",100.0,"[0.00544097152108868,-0.16407310815350534]",100.0,"[-0.07827999057134587,-0.16025811470371254]",4.0,"[0.13161483393801857,0.13841872544186248]",4.0,"[0.09188816166948778,0.1301341851457191]",100.0,"[-0.12701337437468233,0.14311721311395037]",100.0,"[0.02600487427278002,0.0514833286224783]",100.0,"[0.08513538297720324,-0.1440620394348996]",4.0,"[-0.08315658797539315,0.16594454075455517]",4.0,"[-0.03670659844058136,-0.012884824059890889]",4.0,"[-0.03530978203858009,-0.19010438571809113]",4.0,"[0.15149093084028017,0.02367880422101927]",100.0,"[0.07137650491146597,0.0894617275743102]",100.0,"[0.02430034984179309,-0.02319404629587333]",4.0,"[0.12654063652113276,-0.10538747537673429]",4.0,"[-0.047545515648493894,0.1281842056876651]",100.0,"[0.01915558714091794,-0.09137605119104945]",4.0,"[0.18303107792043952,-0.019187391124015286]",4.0,"[0.06821394356257549,0.0031279167528585287]",4.0,"[0.02,0.02]",195.7293,0.0,47.0,47.0,138.0,1.0,,,,,,,
,,,,,,,6617c54a41ce14946db85944,68399d3d763592f1b67b7380,2025-05-30_13h57.59.147,shape_ratio,2024.1.5,MacIntel,60.24096386,683853e18dae57a2147b65e0,,,,,,,,,,,195.7298,196.2292,,,196.48,196.8295,right,0.3323,,,,,,,,,0.5,,,,,,196.2293,196.48,196.8295,"[-0.07899933665122562,-0.04939835135149254]",100.0,"[0.018869563741486732,-0.16272316438232412]",4.0,"[0.1578251773113961,-0.07960483520159611]",4.0,"[-0.023184311990976324,0.05566529309665481]",100.0,"[0.02971515996536728,-0.11285697209130242]",100.0,"[-0.08440185355519385,-0.11781779599287351]",100.0,"[-0.09835670939621029,0.06363115013661229]",4.0,"[-0.09056350644979583,0.1338820215261374]",100.0,"[0.17753315676545195,0.08880821675563627]",100.0,"[0.13522527461688835,0.0061370939117572736]",4.0,"[0.04920869250514117,-0.005070177345692927]",4.0,"[-0.13973499169486067,-0.12238831129575972]",100.0,"[0.06624240898884294,0.056766011560101]",4.0,"[-0.15371580016272335,0.1278587612211331]",100.0,"[0.07739910468301384,0.11177131213360106]",100.0,"[0.012158472404798485,0.12784831174644473]",4.0,"[0.10016176730029798,-0.08790677774906812]",4.0,"[0.00047503043408982397,-0.08485374028306832]",4.0,"[-0.05359577691733253,0.10847960143488197]",4.0,"[0.07006309735757689,0.16272530590421638]",4.0,"[-0.033195661457899914,-0.01386368122684321]",4.0,"[0.10719508117526821,0.041093969215255405]",4.0,"[-0.17869767862466582,0.03477718445086432]",100.0,"[-0.02153503786874764,0.17373170845614327]",100.0,"[0.07399053408806597,-0.12770635381571188]",100.0,"[0.051861569285728236,-0.07061678242656402]",4.0,"[-0.039930044099320404,-0.18000922335139685]",100.0,"[0.12097850634109489,-0.03239108755657381]",4.0,"[-0.19174197198603027,-0.02158723146602498]",100.0,"[0.009022314093409955,-0.026518633105093156]",100.0,"[-0.14089282352896634,0.06776208829225948]",100.0,"[0.16310433679951356,-0.027588149330332636]",4.0,"[0.02,0.02]",197.9292,0.0,48.0,48.0,91.0,1.0,,,,,,,
,,,,,,,6617c54a41ce14946db85944,68399d3d763592f1b67b7380,2025-05-30_13h57.59.147,shape_ratio,2024.1.5,MacIntel,60.24096386,683853e18dae57a2147b65e0,,,,,,,,,,,197.9296,198.4293,,,198.6796,199.0127,right,0.3159,,,,,,,,,0.45,,,,,,198.4294,198.6796,199.0128,"[-0.06728153362012775,-0.18060721823358244]",100.0,"[-0.10881461932360686,-0.06630949086396366]",4.0,"[-0.11779412272655937,-0.12752669221199012]",4.0,"[0.18139254052421572,-0.0029831227997961394]",4.0,"[0.11592804220939176,-0.08772493819584148]",4.0,"[-0.018498342235316344,0.15380221987728498]",100.0,"[-0.1454449691003816,0.12605317304905478]",4.0,"[-0.13790448589529866,0.04532256671001265]",100.0,"[-0.04819647491255776,-0.12045988843556399]",100.0,"[0.05809815359743813,0.046842513600776674]",100.0,"[0.0405051146887419,0.1749377328768713]",100.0,"[-0.01153022626531889,0.086367442608303]",4.0,"[0.023964994718276456,0.12233337378970588]",4.0,"[0.1464239939849595,-0.12061590178425777]",100.0,"[-0.1848242455783572,-0.010862452386953676]",4.0,"[0.022580390727186987,-0.07767095548361777]",4.0,"[0.09104303090515967,-0.008428122535733096]",100.0,"[-0.03335556021663113,0.05253307532964927]",100.0,"[0.08388177656272973,0.09688332291631287]",100.0,"[0.04032942022929079,-0.008723047533661859]",100.0,"[-0.11869167447212957,-0.020486288666917735]",4.0,"[-0.0646340787676397,0.1372193136019399]",4.0,"[-0.07598948551757696,-0.03740254028609722]",4.0,"[-0.010568494616308257,-0.019251568582505547]",100.0,"[0.16540165538221133,0.07646698437503463]",4.0,"[0.14457799095878776,-0.02893587582240822]",4.0,"[0.07267156873831389,-0.15610457524030297]",100.0,"[0.06446820279383952,-0.04777637095454775]",100.0,"[-0.11114420348128405,0.15353788835955487]",4.0,"[0.11412216843177664,0.0526642891592315]",4.0,"[0.09358602954401819,0.1496389546603784]",4.0,"[-0.007365244877106729,-0.11044932597408476]",4.0,"[0.02,0.02]",200.1126,0.0,49.0,49.0,146.0,1.0,,,,,,,
