right,left,explain.started,explain.stopped,key_resp_3.keys,key_resp_3.rt,key_resp_3.duration,participant,session,date,expName,psychopyVersion,OS,frameRate,study_id,explain_2.started,explain_2.stopped,key_resp_4.keys,key_resp_4.rt,key_resp_4.duration,explain_3.started,explain_3.stopped,key_resp_5.keys,key_resp_5.rt,key_resp_5.duration,fixation.started,fixation.stopped,practice.started,practice.stopped,response.started,response.stopped,key_resp.keys,key_resp.rt,key_resp.duration,feedback.started,feedback.stopped,trials_2.thisRepN,trials_2.thisTrialN,trials_2.thisN,trials_2.thisIndex,trials_2.ran,dot_ratio,explain_4.started,explain_4.stopped,key_resp_6.keys,key_resp_6.rt,key_resp_6.duration,dotDisplay.started,dotDisplay.stopped,ITI.started,polygon_1.pos,polygon_1.edges,polygon_2.pos,polygon_2.edges,polygon_3.pos,polygon_3.edges,polygon_4.pos,polygon_4.edges,polygon_5.pos,polygon_5.edges,polygon_6.pos,polygon_6.edges,polygon_7.pos,polygon_7.edges,polygon_8.pos,polygon_8.edges,polygon_9.pos,polygon_9.edges,polygon_10.pos,polygon_10.edges,polygon_11.pos,polygon_11.edges,polygon_12.pos,polygon_12.edges,polygon_13.pos,polygon_13.edges,polygon_14.pos,polygon_14.edges,polygon_15.pos,polygon_15.edges,polygon_16.pos,polygon_16.edges,polygon_17.pos,polygon_17.edges,polygon_18.pos,polygon_18.edges,polygon_19.pos,polygon_19.edges,polygon_20.pos,polygon_20.edges,polygon_21.pos,polygon_21.edges,polygon_22.pos,polygon_22.edges,polygon_23.pos,polygon_23.edges,polygon_24.pos,polygon_24.edges,polygon_25.pos,polygon_25.edges,polygon_26.pos,polygon_26.edges,polygon_27.pos,polygon_27.edges,polygon_28.pos,polygon_28.edges,polygon_29.pos,polygon_29.edges,polygon_30.pos,polygon_30.edges,polygon_31.pos,polygon_31.edges,polygon_32.pos,polygon_32.edges,dot_size,ITI.stopped,trials.thisRepN,trials.thisTrialN,trials.thisN,trials.thisIndex,trials.ran,break_2.started,break_2.stopped,trials_3.thisRepN,trials_3.thisTrialN,trials_3.thisN,trials_3.thisIndex,trials_3.ran
subject chose diamond,subject chose dot,0.0004,65.5112,space,50.4763,,663b638be7226d4e3fcc255f,68442bda9dc808d6db82a869,2025-06-07_13h12.57.504,shape_ratio,2024.1.5,Win32,29.94011976,684250e4f00cb30b92d1fa88,,,,,,,,,,,,,,,,,,,,,,,,,,,,,,,,,,,,,,,,,,,,,,,,,,,,,,,,,,,,,,,,,,,,,,,,,,,,,,,,,,,,,,,,,,,,,,,,,,,,,,,,,,,,,,,,,
,,,,,,,663b638be7226d4e3fcc255f,68442bda9dc808d6db82a869,2025-06-07_13h12.57.504,shape_ratio,2024.1.5,Win32,29.94011976,684250e4f00cb30b92d1fa88,65.5124,121.374,space,25.8224,,,,,,,,,,,,,,,,,,,,,,,,,,,,,,,,,,,,,,,,,,,,,,,,,,,,,,,,,,,,,,,,,,,,,,,,,,,,,,,,,,,,,,,,,,,,,,,,,,,,,,,,,,,,,
,,,,,,,663b638be7226d4e3fcc255f,68442bda9dc808d6db82a869,2025-06-07_13h12.57.504,shape_ratio,2024.1.5,Win32,29.94011976,684250e4f00cb30b92d1fa88,,,,,,121.3744,134.6404,space,10.2305,,,,,,,,,,,,,,,,,,,,,,,,,,,,,,,,,,,,,,,,,,,,,,,,,,,,,,,,,,,,,,,,,,,,,,,,,,,,,,,,,,,,,,,,,,,,,,,,,,,,,,,,
,,,,,,,663b638be7226d4e3fcc255f,68442bda9dc808d6db82a869,2025-06-07_13h12.57.504,shape_ratio,2024.1.5,Win32,29.94011976,684250e4f00cb30b92d1fa88,,,,,,,,,,,134.6955,135.1725,135.1733,135.4063,135.4067,136.5059,right,1.0601,,136.5063,137.6059,0.0,0.0,0.0,1.0,1.0,0.8,,,,,,,,,,,,,,,,,,,,,,,,,,,,,,,,,,,,,,,,,,,,,,,,,,,,,,,,,,,,,,,,,,,,,,,,,,,,,,,,,,,,,,
,,,,,,,663b638be7226d4e3fcc255f,68442bda9dc808d6db82a869,2025-06-07_13h12.57.504,shape_ratio,2024.1.5,Win32,29.94011976,684250e4f00cb30b92d1fa88,,,,,,,,,,,137.6077,138.1054,138.1055,138.3395,138.3395,139.4058,left,1.0462,,139.406,140.5051,0.0,1.0,1.0,0.0,1.0,0.2,,,,,,,,,,,,,,,,,,,,,,,,,,,,,,,,,,,,,,,,,,,,,,,,,,,,,,,,,,,,,,,,,,,,,,,,,,,,,,,,,,,,,,
,,,,,,,663b638be7226d4e3fcc255f,68442bda9dc808d6db82a869,2025-06-07_13h12.57.504,shape_ratio,2024.1.5,Win32,29.94011976,684250e4f00cb30b92d1fa88,,,,,,,,,,,,,,,,,,,,,,,,,,,,140.5062,168.7722,space,25.231,,,,,,,,,,,,,,,,,,,,,,,,,,,,,,,,,,,,,,,,,,,,,,,,,,,,,,,,,,,,,,,,,,,,,,,,,,,,,,,,,,
,,,,,,,663b638be7226d4e3fcc255f,68442bda9dc808d6db82a869,2025-06-07_13h12.57.504,shape_ratio,2024.1.5,Win32,29.94011976,684250e4f00cb30b92d1fa88,,,,,,,,,,,168.8062,169.3035,,,169.5384,170.4699,left,0.9242,,,,,,,,,0.9,,,,,,169.3044,169.5383,170.4708,"[0.09069080323562836,-0.010808769822979793]",100.0,"[-0.08774500012468149,0.10284016341176495]",100.0,"[0.001753798179783757,0.0031288985601832303]",100.0,"[0.025469879168330316,-0.06080855782890255]",100.0,"[-0.026369846345881777,0.05200066761722071]",100.0,"[0.15147846667988307,0.0348791687779829]",100.0,"[0.1372867859406657,-0.12935521066566988]",4.0,"[-0.04920961951732753,0.11898126427694125]",100.0,"[0.05694465793511922,0.07965113574387461]",100.0,"[-0.009010114781186808,-0.17722447202602803]",100.0,"[0.19834700813370074,0.002785812239943103]",100.0,"[-0.16191890885954077,-0.04247416591834545]",100.0,"[0.16498528621345657,0.07584538880157322]",100.0,"[-0.13406749491187,-0.08375191289689472]",100.0,"[0.1488943375760002,-0.02995863080816685]",4.0,"[0.07721665537665641,-0.06106624034586844]",100.0,"[0.14531114593638042,-0.08979934000303842]",100.0,"[-0.0731918652944325,0.0033348269931005284]",100.0,"[-0.09367681140123302,0.050102122378458964]",100.0,"[-0.0024473327312128966,0.17120401696836912]",100.0,"[-0.06133562292688375,0.16833313517580126]",100.0,"[-0.004797839947490531,0.1186943196160004]",100.0,"[0.08739725257951136,0.13225934547271148]",100.0,"[-0.015034320739605558,-0.07748936192226244]",100.0,"[-0.040313236442617674,-0.1431130174582253]",100.0,"[0.03300749925653558,-0.10741066267546026]",100.0,"[0.07961376250148734,-0.12625337974794798]",100.0,"[0.1155464803787952,0.08508002396182897]",100.0,"[-0.07794730625268202,-0.09685797255208507]",100.0,"[0.04347401411553037,0.025013512699295953]",100.0,"[0.031955158090547726,-0.19181387137771513]",100.0,"[-0.10857049689623352,-0.14863042995553577]",4.0,"[0.02,0.02]",171.5704,0.0,0.0,0.0,17.0,1.0,,,,,,,
,,,,,,,663b638be7226d4e3fcc255f,68442bda9dc808d6db82a869,2025-06-07_13h12.57.504,shape_ratio,2024.1.5,Win32,29.94011976,684250e4f00cb30b92d1fa88,,,,,,,,,,,171.5717,172.0701,,,172.3048,172.9366,left,0.6028,,,,,,,,,0.9,,,,,,172.0702,172.3047,172.9367,"[0.07044552374186515,0.03841334273442413]",100.0,"[-0.0813445505576623,-0.05510720493985929]",100.0,"[-0.020760661684695553,0.04901343752109463]",4.0,"[-0.021818780304849728,-0.014353546924857071]",100.0,"[0.14372752431017088,-0.08445137684431808]",100.0,"[-0.004235620419091669,0.14611470989118067]",100.0,"[-0.12234160832922142,0.08454557650928249]",4.0,"[0.06865931672698002,-0.027512037260866023]",100.0,"[-0.028614963611839832,-0.17997828087687814]",100.0,"[0.07301346457510183,0.08867474176482959]",100.0,"[-0.11685753852234414,-0.13887072559844357]",100.0,"[0.060467824830323987,0.1428368902453628]",100.0,"[-0.1578522421868061,-0.08228782321187315]",100.0,"[0.16348296333011347,-0.029936724482701568]",100.0,"[-0.005152424046110953,0.19065222897332829]",100.0,"[0.13529044069334076,-0.13964386157213973]",100.0,"[-0.07501595651606562,0.1710354492871207]",100.0,"[0.02492161528451711,0.014421140461576757]",100.0,"[-0.1553043812900805,0.12355985786977251]",100.0,"[-0.15591772104157306,0.036377211495930394]",100.0,"[0.008743173470464403,-0.11946873272044378]",4.0,"[-0.04036735856515151,-0.055192145350689385]",100.0,"[0.05025453561174725,-0.17248150397050765]",100.0,"[-0.11301133822474617,-0.027956438734470544]",100.0,"[-0.04242324478739347,0.13157417133357002]",100.0,"[-0.08316822109397491,0.10549370568215904]",100.0,"[0.1176637377978259,0.06219395067380484]",100.0,"[-0.15403136017672023,-0.018674598832665232]",100.0,"[0.00903593864861424,-0.04119435040806848]",100.0,"[-0.033356200880376816,-0.10277545573066421]",100.0,"[-0.05744677875794606,-0.14379347193194678]",100.0,"[0.10651310475709624,-0.009312116370572705]",100.0,"[0.02,0.02]",174.037,0.0,1.0,1.0,13.0,1.0,,,,,,,
,,,,,,,663b638be7226d4e3fcc255f,68442bda9dc808d6db82a869,2025-06-07_13h12.57.504,shape_ratio,2024.1.5,Win32,29.94011976,684250e4f00cb30b92d1fa88,,,,,,,,,,,174.0376,174.5365,,,174.7708,175.603,right,0.8131,,,,,,,,,0.5,,,,,,174.5365,174.7707,175.6032,"[0.0009226443745996355,0.07880106155607287]",4.0,"[0.07317927852091353,-0.010476554903748075]",4.0,"[0.002819779948179654,-0.08193797225882378]",100.0,"[0.1874486309683279,0.04272794622616293]",4.0,"[-0.08561164118277705,-0.11069216063728987]",4.0,"[-0.12445122467132262,-0.07988119487589473]",4.0,"[0.1422180133440145,-0.0891846930365155]",100.0,"[-0.020992949142531178,0.021221222415262135]",100.0,"[0.125851792308666,0.14758525226202027]",100.0,"[0.04764019117057038,-0.19355393139574495]",100.0,"[-0.09227697933663447,-0.16860881622143278]",4.0,"[0.05484566559550836,-0.10436895879531317]",100.0,"[0.09182176506698557,0.03175737665663346]",4.0,"[-0.0003296834594334663,0.12222906936436091]",100.0,"[-0.049264279858170716,0.18894552062903955]",4.0,"[-0.058752647032845336,0.10163009242654765]",100.0,"[0.12840563769791236,-0.011140742462969628]",100.0,"[-0.0321617106465371,-0.14180285691614614]",4.0,"[-0.04308322603043742,-0.1905499656703055]",4.0,"[-0.1261504966208484,0.0020336490510341277]",100.0,"[-0.14408989281344511,-0.1207416034373172]",4.0,"[-0.18472377700097486,0.05883642197356543]",100.0,"[0.07918929061650003,0.11923161831337453]",100.0,"[0.07605851972513006,-0.16170966531266148]",4.0,"[0.07559378143988481,0.18263807814610536]",100.0,"[-0.0877758825307804,0.14391283791142503]",100.0,"[-0.03137926672343401,-0.0510102320234278]",100.0,"[-0.1024047724859831,-0.04293765002867063]",4.0,"[-0.15000442703650804,0.08743125572057764]",4.0,"[-0.19771204504749007,-0.025542578591078474]",4.0,"[0.12209256264162728,-0.14302683759720233]",4.0,"[0.0066106481215057475,0.17152040686034525]",100.0,"[0.02,0.02]",176.7032,0.0,2.0,2.0,102.0,1.0,,,,,,,
,,,,,,,663b638be7226d4e3fcc255f,68442bda9dc808d6db82a869,2025-06-07_13h12.57.504,shape_ratio,2024.1.5,Win32,29.94011976,684250e4f00cb30b92d1fa88,,,,,,,,,,,176.7039,177.2033,,,177.4376,178.3362,right,0.8738,,,,,,,,,0.6,,,,,,177.2034,177.4374,178.3363,"[0.08697585319925033,-0.15860407019025644]",100.0,"[0.006556331368063906,0.11007621673094391]",100.0,"[0.02504086983868208,-0.16493182041745952]",4.0,"[-0.03137156750486993,0.17551870093160274]",100.0,"[0.026378507548919846,-0.014835286189374018]",4.0,"[0.1547156284071767,-0.05720946519569717]",100.0,"[-0.13346422712661435,0.023082045859158226]",100.0,"[0.12972259850154533,0.0823307685877215]",100.0,"[0.19222252587440605,-0.011493555491043923]",100.0,"[-0.0814328282016868,0.11311778647476932]",100.0,"[-0.1265238975052816,-0.0697662447917723]",4.0,"[0.013309487218152338,0.18188951485181135]",4.0,"[0.07893788351947492,-0.003724189120727943]",4.0,"[-0.1303629461448542,0.13223358597078008]",100.0,"[-0.06492547109064668,-0.018551330837391414]",100.0,"[-0.0257959261494126,0.01905611740830986]",100.0,"[-0.06745188545915609,-0.1463262403535916]",4.0,"[-0.0576635729840606,0.06045070656266117]",4.0,"[0.10419278901084453,0.1585590189855369]",100.0,"[0.1376021467640844,0.12658554127598734]",100.0,"[-0.17620968982407068,-0.0278048320950193]",100.0,"[0.0039020637227357856,-0.1222468950251013]",100.0,"[-0.13184525205926773,-0.12083521620012687]",4.0,"[0.04315638833327679,0.13584111123176595]",4.0,"[0.06253095250368931,0.04842817820409107]",100.0,"[-0.16759875289868859,0.09900567674721052]",100.0,"[0.11439078170832505,-0.11030338628024026]",100.0,"[-0.08009414682944076,-0.055614304222059194]",4.0,"[0.1690217510485782,0.029691988731859367]",4.0,"[-0.009312711922288303,0.07132550337092775]",100.0,"[0.0948567074021574,0.10797724101992269]",4.0,"[-0.11759248283968114,0.06937501128198378]",4.0,"[0.02,0.02]",179.4362,0.0,3.0,3.0,31.0,1.0,,,,,,,
,,,,,,,663b638be7226d4e3fcc255f,68442bda9dc808d6db82a869,2025-06-07_13h12.57.504,shape_ratio,2024.1.5,Win32,29.94011976,684250e4f00cb30b92d1fa88,,,,,,,,,,,179.4377,179.9361,,,180.17,181.1701,right,0.9796,,,,,,,,,0.6,,,,,,179.9363,180.17,181.1703,"[-0.0840554557512301,0.10995878469185227]",100.0,"[-0.017677619067710086,-0.06506437388821598]",4.0,"[-0.0005356005487710848,0.18333047245680378]",4.0,"[-0.11226015968794645,-0.09966036939877256]",100.0,"[0.1062326337062131,-0.014306244461551756]",100.0,"[-0.035831194901433834,-0.012820470090282034]",4.0,"[-0.07804954688229519,0.15602266984769633]",100.0,"[0.06194939794861972,0.0013942267890967286]",4.0,"[-0.1878019766128028,-0.04029054692166864]",100.0,"[0.03768028577882862,-0.13709467067641554]",100.0,"[0.15065366879842507,0.08756732111432083]",4.0,"[-0.1965721419042486,0.03339797648873626]",100.0,"[0.15147469241295722,0.0078034530741886805]",4.0,"[-0.14590879041690408,0.11779783995461256]",100.0,"[0.0226541537477765,-0.021451148317383692]",100.0,"[0.06436043809407399,0.1458390265239493]",4.0,"[0.0011734574190994647,0.06879457588382702]",100.0,"[-0.1439324605946641,0.0276016331996717]",100.0,"[-0.09560643046058996,-0.05532899756743206]",4.0,"[0.15332436459717802,-0.061483914000987516]",100.0,"[-0.09442207011913693,-0.0008017606205325241]",100.0,"[0.07744273571429007,0.08721232803038383]",4.0,"[-0.15916893252106984,-0.11193901825830352]",100.0,"[0.02963919434632225,-0.07093903076735263]",4.0,"[0.10210290766549492,-0.12472053910734164]",4.0,"[0.09275034660141686,0.032541948636749994]",100.0,"[0.11477180492223997,0.15014424899297887]",100.0,"[-0.044750214052179035,-0.13999040607888394]",100.0,"[0.0040148652546663725,0.11368044817181053]",100.0,"[-0.03565703610819825,0.15956386958593588]",4.0,"[0.07350309981989468,-0.06280205565291679]",4.0,"[-0.1392452055964968,-0.06619514501682079]",100.0,"[0.02,0.02]",182.2693,0.0,4.0,4.0,37.0,1.0,,,,,,,
,,,,,,,663b638be7226d4e3fcc255f,68442bda9dc808d6db82a869,2025-06-07_13h12.57.504,shape_ratio,2024.1.5,Win32,29.94011976,684250e4f00cb30b92d1fa88,,,,,,,,,,,182.2706,182.7692,,,183.0038,184.0692,right,1.0351,,,,,,,,,0.4,,,,,,182.7692,183.0035,184.0693,"[-0.048941883091055086,0.10621557561661522]",4.0,"[-0.09934165831419088,-0.16228605770332546]",4.0,"[0.027458231696091632,0.008377283741321821]",4.0,"[0.00014814348146389829,0.08467226407624635]",4.0,"[0.09764208986417251,-0.09905231050894761]",4.0,"[0.15402840291650777,0.08858240689519806]",100.0,"[-0.035254738767099954,-0.06997108334324047]",4.0,"[-0.07846884138488046,-0.08980319298417423]",4.0,"[-0.10993096813850692,0.017397446848722]",100.0,"[0.17794882919804658,0.05160051718926053]",4.0,"[-0.02239656637523666,0.017457472097922856]",4.0,"[-0.025548977065801597,0.15862482264615163]",4.0,"[-0.09028579491902208,-0.021378042147570893]",100.0,"[0.18815080178363197,-0.06513165061232937]",4.0,"[0.07642197694417864,-0.17852840551245192]",4.0,"[-0.19341544754919793,0.04800113558031522]",100.0,"[-0.17102501101834813,0.011808536792227858]",100.0,"[-0.01989507719597342,-0.14289162948215925]",100.0,"[0.08524049251306104,0.038841174025715006]",4.0,"[-0.0896093224904417,0.15656860452859223]",100.0,"[0.03655393538596112,-0.11551798528624146]",100.0,"[0.12763446506572187,-0.043493200970318835]",100.0,"[0.12852931320528097,0.13743818673070804]",100.0,"[0.1308774279751179,0.0207717589366547]",4.0,"[0.04468468043419707,0.11142215419618758]",100.0,"[-0.14416233204793252,-0.02898114535174245]",4.0,"[0.0917365930343381,-0.009770415828331576]",4.0,"[-0.14248508908330937,-0.08618944025671044]",4.0,"[0.026515381623004902,-0.0714943298833754]",4.0,"[-0.13249456378541805,0.07946623663618384]",100.0,"[0.10442722809781343,-0.14073563575906733]",100.0,"[0.0619945227906737,0.1869182324868121]",4.0,"[0.02,0.02]",185.1692,0.0,5.0,5.0,163.0,1.0,,,,,,,
,,,,,,,663b638be7226d4e3fcc255f,68442bda9dc808d6db82a869,2025-06-07_13h12.57.504,shape_ratio,2024.1.5,Win32,29.94011976,684250e4f00cb30b92d1fa88,,,,,,,,,,,185.1706,185.6688,,,185.9029,186.969,left,1.034,,,,,,,,,0.6,,,,,,185.6689,185.9029,186.9693,"[-0.04959959874833639,-0.01662066774372552]",4.0,"[0.02499489555305511,0.005765489130525417]",100.0,"[-0.14004894038400562,0.021400909710362313]",4.0,"[0.020162053328529266,0.08428192247603133]",4.0,"[0.07372124583509103,-0.07901315525287919]",4.0,"[0.1120086045090688,0.0618301510402305]",100.0,"[0.18089464602564506,-0.04046639850757791]",100.0,"[0.033277401112687545,-0.0638872493558652]",100.0,"[-0.06860814213173638,-0.09765496970882206]",4.0,"[0.032747363116255576,-0.1382002434776304]",100.0,"[-0.045589899959944495,0.0328489638426307]",100.0,"[-0.10720732439451579,-0.12816713550994946]",100.0,"[-0.003998974237026383,0.1877193340092131]",4.0,"[0.1475954861514788,0.03513010497063345]",100.0,"[-0.14233540651680765,0.09456425176415968]",100.0,"[-0.10785405840705789,0.051025612826650406]",4.0,"[-0.040194952601962854,-0.15453529241131]",100.0,"[0.11782484870140755,-0.09087543621647438]",100.0,"[-0.01945716900215437,0.1431828239111212]",100.0,"[0.07782280962129738,0.14835053241357604]",100.0,"[-0.11542025990076153,0.13250480580216123]",4.0,"[-0.013169059775558363,-0.06256551106833382]",4.0,"[-0.005813857555781961,0.04859470897229062]",4.0,"[-0.14527290614447336,-0.11057083650649237]",100.0,"[-0.1301439157247446,-0.05042992686592628]",4.0,"[0.052549952015227594,0.1855792031431393]",100.0,"[0.15388964109054723,0.10450041503450563]",4.0,"[0.10945378649755794,-0.00006512123891585211]",100.0,"[0.16013378840060463,-0.00623530782751866]",100.0,"[-0.029336235414504235,-0.11126229638717566]",100.0,"[-0.06111146998898995,0.09331920490712879]",100.0,"[0.1921664864758834,0.026285929573422885]",4.0,"[0.02,0.02]",188.0688,0.0,6.0,6.0,53.0,1.0,,,,,,,
,,,,,,,663b638be7226d4e3fcc255f,68442bda9dc808d6db82a869,2025-06-07_13h12.57.504,shape_ratio,2024.1.5,Win32,29.94011976,684250e4f00cb30b92d1fa88,,,,,,,,,,,188.0694,188.5687,,,188.8032,189.636,right,0.8091,,,,,,,,,0.4,,,,,,188.5688,188.8032,189.6361,"[0.11112348877910884,0.11022219925265325]",100.0,"[-0.0739822554846101,-0.15679209723179277]",4.0,"[-0.19572246252607486,-0.0025232186965168787]",4.0,"[0.022478403792070757,-0.01493036500118949]",4.0,"[0.10145186628230335,-0.00024215922283490215]",4.0,"[-0.10695115912956134,-0.00039711398914068634]",100.0,"[0.1611365910792251,-0.029206159278095722]",4.0,"[0.040678808798898215,0.1631283485884667]",4.0,"[-0.05378196195396694,0.1456568258243461]",100.0,"[-0.09954433304873027,0.09412908045006217]",100.0,"[-0.10692543144098238,-0.06718276507540068]",4.0,"[-0.09923599436308064,0.046334882730415534]",4.0,"[-0.00867908770299912,0.08100743128120787]",4.0,"[-0.15764904303357244,-0.10210815330574954]",4.0,"[-0.15716468235920644,0.02214602260404792]",100.0,"[-0.05101506703534912,-0.06578489114839935]",100.0,"[0.04306246872461098,-0.1728961693900637]",4.0,"[-0.00629948877450999,0.16762166245274923]",100.0,"[0.14322151767122546,0.03343221863719747]",4.0,"[0.09866007442766983,-0.12236904760549618]",100.0,"[-0.05853789159708163,0.025054221964660117]",4.0,"[0.07949962919228461,0.08526184871022627]",4.0,"[0.15270392539535416,-0.12542875094054182]",100.0,"[-0.0009202898524599538,0.03126293992922452]",4.0,"[-0.09377287841247478,-0.11817372913850864]",4.0,"[0.19373158710221838,0.003421365431374115]",100.0,"[0.12036040542326962,-0.055847074300456885]",4.0,"[0.08579529734932358,0.17292126857677464]",100.0,"[-0.01903879598375399,-0.014515413705291098]",100.0,"[-0.05969229425112724,0.0895432054855032]",4.0,"[0.07425549279155172,-0.04171134567220828]",4.0,"[-0.05145683642882427,-0.19307020187221732]",100.0,"[0.02,0.02]",190.7358,0.0,7.0,7.0,177.0,1.0,,,,,,,
,,,,,,,663b638be7226d4e3fcc255f,68442bda9dc808d6db82a869,2025-06-07_13h12.57.504,shape_ratio,2024.1.5,Win32,29.94011976,684250e4f00cb30b92d1fa88,,,,,,,,,,,190.737,191.2355,,,191.47,192.4352,left,0.9442,,,,,,,,,0.5,,,,,,191.2356,191.4699,192.4353,"[0.18954369498702228,-0.0007175676132799851]",100.0,"[0.11502356336677905,0.14214258189806836]",100.0,"[0.0777048105245987,0.08786717673381135]",100.0,"[0.07614776925730134,-0.17916967413903792]",100.0,"[0.15929564000243562,0.11326576857297756]",100.0,"[-0.0005247249301495625,-0.13227380927849722]",100.0,"[0.0981516000362621,-0.07476815606595373]",4.0,"[0.15286652894325264,0.04817735675453459]",100.0,"[0.012220905477418022,0.06144253171213504]",100.0,"[-0.03236993072258741,-0.16935164535967567]",4.0,"[-0.048630238884408226,0.057234378989508804]",4.0,"[-0.11381946376419362,0.15213570343521943]",100.0,"[0.11569030032034672,-0.11139149869740372]",100.0,"[0.04519054313069966,0.13813516236138074]",4.0,"[0.0053189699873124555,-0.1883428600374516]",100.0,"[-0.1794037484338021,0.043395830279210644]",100.0,"[-0.058861988162617666,-0.08386342765207294]",4.0,"[0.06960877539835283,0.1757844036390378]",4.0,"[-0.17041336548500102,0.09334253813319238]",4.0,"[-0.0690319350957248,0.18309204284877825]",4.0,"[-0.1742982229493269,-0.08245472459894983]",4.0,"[-0.0025808532878444945,0.17857396388303254]",100.0,"[0.08302622653498487,-0.014539303481249441]",100.0,"[-0.061299587473167015,0.12022225081527606]",4.0,"[-0.09915470265927208,-0.022044683393091385]",4.0,"[0.0064192599222331215,-0.0817703820754817]",100.0,"[-0.04251865423865987,-0.038928800008868635]",4.0,"[-0.016836519082401122,0.12341861397384779]",4.0,"[-0.09148447942499666,-0.15223805376354707]",4.0,"[0.14928918821944032,-0.014200391679423633]",4.0,"[0.035529794634082706,-0.14980875364331522]",100.0,"[-0.13248479774945648,-0.079981823640647]",4.0,"[0.02,0.02]",193.5354,0.0,8.0,8.0,90.0,1.0,,,,,,,
,,,,,,,663b638be7226d4e3fcc255f,68442bda9dc808d6db82a869,2025-06-07_13h12.57.504,shape_ratio,2024.1.5,Win32,29.94011976,684250e4f00cb30b92d1fa88,,,,,,,,,,,193.5363,194.0353,,,194.2697,195.2351,left,0.9518,,,,,,,,,0.5,,,,,,194.0354,194.2697,195.2353,"[-0.14067487441563312,-0.032690689015532556]",100.0,"[0.021274975825679922,-0.1543765143424146]",4.0,"[-0.038209490248822225,0.12350341043437106]",100.0,"[0.1354708166119112,0.019333004085883114]",4.0,"[0.02690450620064485,-0.06517617300990862]",100.0,"[-0.15009410269572174,-0.08058910445448815]",4.0,"[-0.13999798519905043,0.13951895273989712]",100.0,"[0.005362389963851745,0.13446123711680652]",4.0,"[0.1024922514048261,0.04821474676792471]",100.0,"[-0.08710674118414014,0.12399373423543972]",100.0,"[0.19387852718467105,-0.00579310259079543]",4.0,"[-0.1205593658284245,-0.1580235593407436]",4.0,"[-0.05972938789619981,-0.08352486827886979]",4.0,"[0.0618589224705832,0.11621847108872368]",100.0,"[0.09562350365105417,-0.0475587328278317]",100.0,"[0.14973559457435726,0.12967065977538916]",4.0,"[0.051026501867740146,0.1635772487725833]",100.0,"[0.17756206751695575,-0.04829879748807142]",100.0,"[-0.08812293144125125,-0.1284675049242]",4.0,"[-0.081652773934808,0.05445957884275926]",100.0,"[0.00855413065186098,0.0659158093468246]",4.0,"[0.0634502988160283,-0.0918470484919009]",100.0,"[0.05865977092411655,-0.020151104139910028]",4.0,"[0.09744140472192674,0.1659183302900591]",100.0,"[0.14078495111561035,0.08040605363847826]",100.0,"[-0.07710562106686843,-0.1742224236244987]",4.0,"[-0.19784251455704643,0.0030281129384891]",100.0,"[0.12638076775021007,-0.08674978962217365]",100.0,"[-0.06930189893745345,0.1721479510720811]",4.0,"[0.11521467611328089,-0.14858764705503938]",4.0,"[-0.12740883607545314,0.07686243155569386]",4.0,"[0.00955136122368508,-0.19674814647445427]",4.0,"[0.02,0.02]",196.335,0.0,9.0,9.0,106.0,1.0,,,,,,,
,,,,,,,663b638be7226d4e3fcc255f,68442bda9dc808d6db82a869,2025-06-07_13h12.57.504,shape_ratio,2024.1.5,Win32,29.94011976,684250e4f00cb30b92d1fa88,,,,,,,,,,,196.336,196.8355,,,197.0691,197.9684,right,0.8809,,,,,,,,,0.4,,,,,,196.8356,197.069,197.9685,"[-0.05351401994632504,0.02818323301363894]",4.0,"[-0.10778232369044302,0.14180992324211317]",4.0,"[-0.12588683150404925,-0.011502422100671091]",4.0,"[0.07412370265686248,0.16173085450352184]",100.0,"[-0.15481211671492467,-0.041216015758269164]",4.0,"[0.1139168044668801,0.15503477272307953]",100.0,"[-0.12011841003669536,0.039519849590082284]",100.0,"[0.10548817805360111,0.07902242629144535]",4.0,"[-0.10579179128646046,-0.1019861358626647]",4.0,"[0.17403455164865844,-0.012369540672023512]",100.0,"[0.09137172580819791,-0.1766145493609942]",4.0,"[-0.031056293553608266,-0.08199381244616907]",4.0,"[-0.021280222126584977,0.19586265990768026]",100.0,"[0.040856447062732226,0.18863079190293222]",4.0,"[-0.10111369312053226,-0.16076920181288248]",4.0,"[0.062301573306444404,-0.08983025207844514]",4.0,"[0.05885482308241486,-0.0432941826906752]",4.0,"[-0.02028158848408089,0.0783596356077181]",100.0,"[-0.005965035536777264,-0.15176293285221742]",100.0,"[0.11215090739789838,-0.1036664153613133]",4.0,"[0.03381096877400673,0.11127107848177387]",100.0,"[-0.18608613855837744,0.06560287834326685]",4.0,"[-0.1626425586871295,-0.09671153725983188]",4.0,"[-0.08516308284389439,-0.011827584648333252]",100.0,"[-0.084376570125025,0.08937437196715922]",100.0,"[0.08962993113103201,0.03621365543426064]",100.0,"[0.13613511839699094,-0.03630227399776143]",100.0,"[-0.1574899574224817,0.020461009931689342]",4.0,"[0.17216792259305985,-0.0992925854597115]",100.0,"[-0.04577765602227711,-0.17612883297563262]",4.0,"[0.17516616847206667,-0.05910704362923673]",4.0,"[0.0011579970171457538,-0.040598368851912495]",4.0,"[0.02,0.02]",199.0688,0.0,10.0,10.0,166.0,1.0,,,,,,,
,,,,,,,663b638be7226d4e3fcc255f,68442bda9dc808d6db82a869,2025-06-07_13h12.57.504,shape_ratio,2024.1.5,Win32,29.94011976,684250e4f00cb30b92d1fa88,,,,,,,,,,,199.0694,199.5685,,,199.8023,200.7683,right,0.9353,,,,,,,,,0.6,,,,,,199.5686,199.8022,200.7684,"[0.060222999098177986,-0.14755458916681113]",100.0,"[-0.07000503539954749,-0.1782582130351356]",100.0,"[-0.133733430415251,0.056391137061580776]",100.0,"[0.17174580574139453,0.09614512443543258]",4.0,"[0.15981040389478118,-0.06495383809524213]",100.0,"[0.022555078030780686,0.04972585990309134]",4.0,"[0.09698039383559069,0.12136308033210566]",4.0,"[-0.10386527639045508,0.1271152997370827]",4.0,"[0.01265516580328259,0.1683073830008722]",4.0,"[0.18974356749913035,-0.026426082114378736]",100.0,"[-0.1114730626772686,-0.021848612039519322]",4.0,"[0.10361000263164283,0.06838911685031218]",100.0,"[-0.11607736904046995,-0.07421237276233444]",100.0,"[-0.012670756894219305,-0.007425448358686245]",4.0,"[-0.14724986893842743,0.13070510358658363]",4.0,"[-0.05099687509486762,-0.02137301864572632]",100.0,"[-0.0765271061465384,0.18078594709174758]",4.0,"[-0.06548211575118873,0.03678272911296812]",100.0,"[-0.0006985511944623486,-0.128721288235328]",100.0,"[0.058460343746532833,0.015314078703876506]",100.0,"[-0.17746599428691767,-0.05062789633261011]",4.0,"[0.0410284558249068,-0.061429766273949526]",100.0,"[-0.06931591994675881,-0.12038200876967003]",100.0,"[-0.14891806311624353,-0.11041780944235968]",4.0,"[-0.0677943240531447,-0.06265554621227183]",100.0,"[-0.02567086550551065,-0.1949923945847634]",100.0,"[0.11970935397328665,-0.0912367754763639]",100.0,"[0.07242953773237913,-0.027699802536520955]",100.0,"[0.1348640632080062,-0.1367962223538454]",100.0,"[0.14202017563950212,0.021978498899329835]",4.0,"[-0.1952758851163729,0.02182537686504818]",4.0,"[-0.03610040151763907,0.1278021185628276]",100.0,"[0.02,0.02]",201.8676,0.0,11.0,11.0,32.0,1.0,,,,,,,
,,,,,,,663b638be7226d4e3fcc255f,68442bda9dc808d6db82a869,2025-06-07_13h12.57.504,shape_ratio,2024.1.5,Win32,29.94011976,684250e4f00cb30b92d1fa88,,,,,,,,,,,201.8679,202.3675,,,202.6012,203.4345,left,0.8269,,,,,,,,,0.5,,,,,,202.3675,202.6012,203.4345,"[0.018041049480127972,-0.16815901278890139]",100.0,"[-0.05603540291730097,-0.044125695877960266]",4.0,"[0.12551332906115123,-0.13367745858480362]",100.0,"[-0.17223215721807494,-0.016704591689076318]",4.0,"[-0.059042359707181184,0.10105464277393424]",100.0,"[-0.12572313876021343,-0.14160584773273155]",4.0,"[-0.08055520115224726,0.058227537457389435]",4.0,"[-0.017796399199399154,0.19843070395249368]",100.0,"[-0.002179726595116896,0.05442377137170753]",100.0,"[-0.08401108740214923,0.17904286979679487]",100.0,"[0.01630916503739291,-0.006481005193683455]",100.0,"[0.1442045686658098,-0.05167989169713701]",100.0,"[-0.054116457264430366,-0.09123072670788836]",4.0,"[-0.1198887003248512,-0.08711218997195737]",4.0,"[0.16137126935755808,-0.0018934133153467765]",4.0,"[-0.17367031977187602,0.050880545139777474]",100.0,"[-0.15680427463776828,-0.06096776335695038]",4.0,"[0.0747817316877326,0.12383339828050909]",4.0,"[0.011493313188582092,-0.12521284462447516]",100.0,"[0.11277797546977208,-0.0947225101438489]",100.0,"[0.059932805152861486,-0.16656470805814041]",100.0,"[0.1288281055568963,0.1172989488663836]",100.0,"[0.083095934349799,-0.0533202769396761]",100.0,"[0.07972345948594606,-0.007487322824945594]",100.0,"[0.12820233058965735,0.03278120811442452]",4.0,"[0.03344910355128939,0.03463491676803762]",100.0,"[0.014892517324803076,0.11967663668446744]",4.0,"[-0.021872841127501357,-0.15399896446528127]",4.0,"[-0.12891168025070332,0.045381558607551664]",4.0,"[-0.041770329072642685,0.0038788616708354713]",4.0,"[-0.10157462961131977,-0.028416116114075497]",4.0,"[0.06870127782451026,0.06753724610909838]",4.0,"[0.02,0.02]",204.5344,0.0,12.0,12.0,97.0,1.0,,,,,,,
,,,,,,,663b638be7226d4e3fcc255f,68442bda9dc808d6db82a869,2025-06-07_13h12.57.504,shape_ratio,2024.1.5,Win32,29.94011976,684250e4f00cb30b92d1fa88,,,,,,,,,,,204.5355,205.0348,,,205.2684,206.201,right,0.9032,,,,,,,,,0.6,,,,,,205.0348,205.2683,206.2011,"[-0.0015904463742732594,0.1846783076459535]",100.0,"[-0.16008477085927286,0.05119654775281959]",4.0,"[0.10671674509217442,-0.03432923852608774]",100.0,"[0.07889479379440446,0.12076187969774077]",100.0,"[-0.007643392571700954,-0.09762637963342176]",100.0,"[-0.0978056471696585,-0.11858189580023484]",4.0,"[-0.15436880689204688,0.10360531074516972]",4.0,"[0.042238846776658075,-0.15378797565129745]",4.0,"[0.07540902125871539,0.16124134437515106]",100.0,"[-0.0585704293578676,0.053401756338899875]",100.0,"[-0.07394043556469199,-0.015369343231641483]",100.0,"[0.14879696079271748,-0.0009953908705192184]",4.0,"[-0.10841587316645901,0.04723082635518132]",100.0,"[-0.08213797412830161,0.118676781814741]",100.0,"[-0.03994784009501774,-0.05685271317346566]",100.0,"[-0.11023775600567268,-0.0602804376467508]",100.0,"[-0.1623706486765387,-0.06181270101841221]",100.0,"[-0.029096356434625614,0.14147828232110482]",100.0,"[0.14088134917271555,-0.08402078211255058]",4.0,"[-0.19813721796835698,-0.02101690686597744]",4.0,"[0.18438375297989681,-0.020551565008007873]",4.0,"[0.13237761286498836,-0.1260264393604636]",4.0,"[0.08095203716874325,-0.08133014716581552]",100.0,"[0.031123536353055987,0.03825275688508666]",4.0,"[-0.12108563703035724,0.13453641598418356]",4.0,"[0.024839848908720118,-0.0586987793540347]",100.0,"[0.1291525484182649,0.11257499856472117]",100.0,"[0.09758487044028877,-0.1585110621782535]",100.0,"[0.023062903761454746,-0.013103636731983375]",100.0,"[-0.08305515824638952,-0.16874104969674714]",100.0,"[0.14106874661781388,0.0413897251525325]",4.0,"[-0.020639044728857688,-0.166790055092007]",4.0,"[0.02,0.02]",207.3004,0.0,13.0,13.0,39.0,1.0,,,,,,,
,,,,,,,663b638be7226d4e3fcc255f,68442bda9dc808d6db82a869,2025-06-07_13h12.57.504,shape_ratio,2024.1.5,Win32,29.94011976,684250e4f00cb30b92d1fa88,,,,,,,,,,,207.3008,207.8008,,,208.0356,209.1005,right,1.0341,,,,,,,,,0.5,,,,,,207.8008,208.0353,209.1006,"[-0.08297310411459134,-0.16997611981343302]",100.0,"[-0.01138571599731838,-0.15700752510541086]",4.0,"[0.0631011591608825,0.16276300217591777]",4.0,"[0.07947757510214254,-0.11487834616645168]",100.0,"[-0.03775615807180257,-0.19137267228713284]",4.0,"[0.024119495001484633,0.08102263618683947]",100.0,"[0.06954920365386474,-0.013041509617096908]",4.0,"[-0.10821719996802072,0.04340788703646569]",4.0,"[0.08667804970321924,0.11506336337796687]",4.0,"[-0.08028883538487815,0.11861203096806291]",4.0,"[-0.14533854295676138,-0.0941457399664122]",4.0,"[-0.15464528034865185,0.0063049036331477475]",100.0,"[-0.061520675886025396,0.00008091897206297074]",100.0,"[0.04814470303635492,-0.06181072800532594]",4.0,"[0.1615919995761232,0.051881658557804994]",4.0,"[-0.183022727711412,-0.06550947422558827]",100.0,"[0.027999202959508068,0.03163442664882249]",100.0,"[-0.1760575604591305,0.04203143763756194]",100.0,"[-0.010661817921547934,-0.0829392611580556]",100.0,"[0.15465396138165624,-0.09791236003292897]",4.0,"[-0.12647793821556258,0.10704788184351825]",4.0,"[0.10533081350486734,0.03275886024592138]",100.0,"[-0.12413409629955752,-0.026627193529411338]",100.0,"[-0.0031739786605497022,0.16830689435438742]",100.0,"[0.010947540638485315,-0.0073920536586796004]",4.0,"[-0.025819337009276987,0.05388151101229494]",100.0,"[-0.012254569376548374,0.11791156260011554]",4.0,"[-0.1449992049069969,0.07069827070035511]",100.0,"[0.06873898115546392,0.06706875442918414]",100.0,"[-0.06874718203262044,0.18122324724840297]",100.0,"[0.16682264292246282,0.0074988285146322855]",4.0,"[0.11998613008659893,-0.1347087610571066]",4.0,"[0.02,0.02]",210.2004,0.0,14.0,14.0,99.0,1.0,,,,,,,
,,,,,,,663b638be7226d4e3fcc255f,68442bda9dc808d6db82a869,2025-06-07_13h12.57.504,shape_ratio,2024.1.5,Win32,29.94011976,684250e4f00cb30b92d1fa88,,,,,,,,,,,210.201,210.7003,,,210.934,211.9003,left,0.957,,,,,,,,,0.45,,,,,,210.7003,210.9339,211.9004,"[-0.028803201418053176,-0.08608305313083316]",100.0,"[-0.17348139872326557,-0.04425317934762202]",4.0,"[-0.08776501220662475,0.14018748038843756]",4.0,"[-0.11010228395207679,0.0915270473395208]",100.0,"[-0.13093230161476552,0.05352344683240556]",100.0,"[0.16775879052231552,0.07522874948208552]",100.0,"[-0.06413292936326204,0.06891572743403002]",100.0,"[0.06740454426035629,0.08273484219066467]",4.0,"[-0.09559902864961974,-0.0823132787245977]",4.0,"[0.00633044605866544,0.12181168710547524]",100.0,"[-0.15312760015194607,0.011982380975872214]",4.0,"[-0.04697097090508025,-0.17212990096613043]",100.0,"[0.11138464847466026,0.0819994189195094]",100.0,"[0.006895954810300149,-0.13181380403459994]",100.0,"[-0.0007512013894056633,-0.1958796915214399]",100.0,"[0.0035216854113627647,-0.05405359800660621]",4.0,"[-0.10433323988977429,-0.017298602750949264]",4.0,"[0.04504181936941046,0.15995382004492728]",100.0,"[0.12977673571697337,0.1415213744618614]",4.0,"[0.08127174024962963,-0.14333614694841948]",100.0,"[0.040340857350470244,-0.17684525842325954]",4.0,"[0.05441077421092014,-0.050758107169136514]",100.0,"[-0.14399997916018187,0.13476196279753044]",4.0,"[0.0205576514387002,0.018122794674056347]",4.0,"[0.04932557815822984,0.11964510789425804]",4.0,"[-0.05960317838004616,-0.13184737490007178]",100.0,"[-0.03436589721497623,0.18747234566878299]",4.0,"[0.01725291499574451,0.07576334845603784]",4.0,"[-0.11008160731136254,-0.13544266576612113]",4.0,"[-0.06032231976153159,-0.03443988857517445]",4.0,"[0.08141037819220984,0.042939544071214614]",4.0,"[0.08307085260615059,0.0018365050029102198]",4.0,"[0.02,0.02]",213.0003,0.0,15.0,15.0,137.0,1.0,,,,,,,
,,,,,,,663b638be7226d4e3fcc255f,68442bda9dc808d6db82a869,2025-06-07_13h12.57.504,shape_ratio,2024.1.5,Win32,29.94011976,684250e4f00cb30b92d1fa88,,,,,,,,,,,213.0007,213.5001,,,213.7339,214.8339,right,1.0684,,,,,,,,,0.55,,,,,,213.5001,213.7339,214.834,"[-0.0445313475516183,-0.007750342401217272]",100.0,"[-0.17061014793080295,0.007228989083278491]",100.0,"[0.13120271686096427,-0.012019288736351667]",100.0,"[0.03838095350285006,-0.11171659098349943]",4.0,"[-0.1430466181392263,-0.061746572337128644]",4.0,"[-0.01857941402109428,0.1923641519874893]",4.0,"[0.06499669583705,0.028738313178756556]",4.0,"[-0.042984023268340374,0.07653268342868974]",100.0,"[0.13970370546908897,0.13237867216225466]",100.0,"[0.014987022817150593,-0.19674306090574714]",4.0,"[-0.005653348984518334,-0.06576524463252728]",100.0,"[-0.11239503244663464,-0.13506934419930783]",4.0,"[-0.06739468293432456,-0.057215363824779625]",100.0,"[-0.0864230776123755,0.14091466960477272]",100.0,"[-0.07255058126148396,-0.11767651759944894]",4.0,"[0.0033662911128822266,0.13345961421094876]",4.0,"[0.1100069753687766,-0.15754009754092838]",4.0,"[-0.15149247143882388,0.12210776199501494]",4.0,"[0.006948229187516985,-0.141132799431524]",100.0,"[-0.1250056647529551,-0.010598951680142453]",100.0,"[-0.09607491292144081,0.03410002283838974]",100.0,"[0.10464173886972718,0.036347278754957024]",100.0,"[0.1170796677180091,-0.10609615190519055]",100.0,"[0.14642982917112127,0.047147114411902384]",100.0,"[0.07725834185234666,0.17884988619234024]",4.0,"[0.08697365105999635,-0.04325000986634628]",100.0,"[-0.17102822580421698,0.05339789597728405]",100.0,"[-0.04904035832801914,-0.18867809233942562]",4.0,"[0.018239699869185656,0.04235981574363913]",100.0,"[0.19146695391926147,-0.014402634839885763]",4.0,"[0.031686979971595,-0.037883251280115694]",100.0,"[-0.055706682217580246,0.11522966711246982]",4.0,"[0.02,0.02]",215.9334,0.0,16.0,16.0,61.0,1.0,,,,,,,
,,,,,,,663b638be7226d4e3fcc255f,68442bda9dc808d6db82a869,2025-06-07_13h12.57.504,shape_ratio,2024.1.5,Win32,29.94011976,684250e4f00cb30b92d1fa88,,,,,,,,,,,215.9338,216.4333,,,216.6672,217.6002,right,0.9203,,,,,,,,,0.6,,,,,,216.4333,216.6672,217.6002,"[-0.09614387432540135,-0.12273254753833736]",100.0,"[0.008538400881557481,-0.03120511429912488]",4.0,"[-0.046612174107771784,-0.145767128004632]",100.0,"[0.14246515855084366,-0.0015575979291641575]",4.0,"[-0.13521892586386755,0.14574463375493044]",100.0,"[0.01189534118027614,0.08354397815676162]",100.0,"[0.12468533059946539,0.11835624544436589]",100.0,"[-0.12687870876736176,-0.0264327650197622]",4.0,"[0.048932862615613186,-0.12108673150848473]",4.0,"[-0.1457797185907778,0.025362736076916866]",100.0,"[-0.04504635813773246,0.18955070971833585]",100.0,"[-0.0964817831490103,-0.16482983871374257]",100.0,"[-0.06432821118478299,-0.05386567854475413]",4.0,"[0.06523193872663664,0.1507486988064424]",100.0,"[0.06552507991580431,0.09888954730915286]",100.0,"[0.053391375581674776,0.023180977312987162]",100.0,"[-0.10014530536323807,0.12446420788574761]",4.0,"[0.09199060966663705,-0.15625312871776137]",100.0,"[-0.04100881681695279,0.047446525673929346]",4.0,"[0.17201801870598488,-0.05249371549983758]",100.0,"[-0.03131300401664181,0.12289161556269346]",100.0,"[-0.14286023480982296,-0.07501745759071901]",100.0,"[0.07402981871273298,-0.01805227332826872]",4.0,"[-0.012181358607129137,-0.08224762679035665]",4.0,"[0.13371141651065177,-0.09768443915693131]",4.0,"[-0.13240020712616457,0.07728703124042764]",4.0,"[0.18615352132595553,0.06011969080048274]",4.0,"[-0.18036049006245677,0.05586472845997399]",100.0,"[0.058801102125976945,-0.19013502875214314]",100.0,"[0.009912355350880647,0.12575355002447766]",4.0,"[0.0694720580694377,-0.060197690506304614]",100.0,"[0.09626381577955664,0.07145004684758241]",100.0,"[0.02,0.02]",218.7003,0.0,17.0,17.0,46.0,1.0,,,,,,,
,,,,,,,663b638be7226d4e3fcc255f,68442bda9dc808d6db82a869,2025-06-07_13h12.57.504,shape_ratio,2024.1.5,Win32,29.94011976,684250e4f00cb30b92d1fa88,,,,,,,,,,,218.7014,219.2004,,,219.4346,220.267,right,0.8018,,,,,,,,,0.55,,,,,,219.2004,219.4345,220.267,"[0.16813144094180266,0.10153980942755779]",100.0,"[0.03307760329446006,-0.028013873319318917]",100.0,"[-0.12743733667545293,0.0056222594927087645]",4.0,"[-0.19391788085688302,-0.019407715598034343]",100.0,"[-0.13547811455326095,-0.1357106531819211]",100.0,"[-0.10389450413551021,0.12381140754653536]",4.0,"[0.0361478068688086,-0.14695664630035704]",4.0,"[0.003362478835694658,0.16309240405028072]",4.0,"[0.11440651553535444,0.034597234032997554]",100.0,"[-0.1427246244243387,0.09747002594456557]",100.0,"[0.09873093085542206,0.11352147688851538]",100.0,"[0.015415468077958723,0.04304627839505073]",4.0,"[-0.08815401229027378,-0.017212571973244155]",100.0,"[-0.14570811069100512,-0.04287279194966981]",100.0,"[0.0754038931222038,-0.13280167358328332]",4.0,"[-0.013888139682214556,-0.1653626430826314]",100.0,"[-0.011063317017499191,-0.11084971234278611]",4.0,"[-0.04101998409857076,0.12063643369870096]",4.0,"[-0.17180964210791366,0.030684553805215644]",100.0,"[0.07301394878394492,0.17293774710025192]",100.0,"[0.01873703341528832,0.10760896630880881]",100.0,"[0.1649054570115166,-0.09364849525154723]",100.0,"[-0.026235152828977853,-0.04154784519441087]",4.0,"[-0.025454728704727883,0.05948105870656996]",4.0,"[-0.06577309320296366,-0.08788349437820694]",4.0,"[0.11753012872997234,-0.054491356518254506]",100.0,"[0.15963058422280782,-0.013600320378823407]",4.0,"[-0.18336737576772735,-0.05883048955629423]",100.0,"[-0.03542381224028938,0.010840727161073534]",4.0,"[-0.061437129518877025,0.1787418631528767]",4.0,"[0.0445794793182791,0.14134845789829048]",100.0,"[0.05413219372417388,-0.07220522867792153]",100.0,"[0.02,0.02]",221.367,0.0,18.0,18.0,83.0,1.0,,,,,,,
,,,,,,,663b638be7226d4e3fcc255f,68442bda9dc808d6db82a869,2025-06-07_13h12.57.504,shape_ratio,2024.1.5,Win32,29.94011976,684250e4f00cb30b92d1fa88,,,,,,,,,,,221.3681,221.8667,,,222.1006,223.0671,right,0.9477,,,,,,,,,0.55,,,,,,221.8668,222.1005,223.0672,"[-0.029276168174641713,-0.011233543225849078]",100.0,"[0.03708801104885931,0.10200608354533446]",4.0,"[-0.05340580138996858,0.13825615445218317]",4.0,"[-0.15510297841873677,-0.048905295956176466]",4.0,"[-0.11570873897740029,0.07577713328525204]",100.0,"[0.018056630831261467,0.1794570527384476]",100.0,"[-0.028875098428118633,0.05917712607134473]",4.0,"[0.10769279648464966,-0.13857045970865303]",100.0,"[-0.08562961534241424,0.17765766524619284]",4.0,"[0.12196557550964288,-0.028487856456642466]",100.0,"[-0.09258404439290424,-0.043734790986630516]",4.0,"[-0.10704360828062359,0.0006358401557876844]",100.0,"[0.09041812598524641,-0.07885431992388046]",4.0,"[0.14648854520296659,-0.09918397891332191]",4.0,"[0.06918661550071166,0.055522622316849034]",100.0,"[-0.026371746016407273,0.1931775087247333]",100.0,"[-0.06976832933991821,0.024406026367012053]",100.0,"[-0.05912196871177198,-0.1016918247988695]",100.0,"[0.13431751702617525,0.13464759300058302]",100.0,"[-0.06869252361682464,-0.17154444855361986]",100.0,"[-0.09864217798514685,0.13882236660887323]",100.0,"[-0.004119103215547333,0.0262880884902401]",4.0,"[-0.009623716626312064,0.13495353265921148]",4.0,"[-0.18740793640041,0.057637052802538474]",4.0,"[0.08554559034206735,-0.1798139808472947]",100.0,"[0.014751281686103354,-0.12885626083859508]",100.0,"[0.010174009225543056,-0.06275522338692836]",100.0,"[-0.03207205425677026,-0.19625579310215743]",100.0,"[0.03147294999869632,-0.0065822701894787975]",4.0,"[0.16979840414803954,0.01478596005325484]",4.0,"[-0.19019621686079027,0.008475399061444506]",100.0,"[-0.1528737620793785,-0.09829406242553636]",4.0,"[0.02,0.02]",224.1669,0.0,19.0,19.0,66.0,1.0,,,,,,,
,,,,,,,663b638be7226d4e3fcc255f,68442bda9dc808d6db82a869,2025-06-07_13h12.57.504,shape_ratio,2024.1.5,Win32,29.94011976,684250e4f00cb30b92d1fa88,,,,,,,,,,,224.1679,224.6667,,,224.9006,225.7999,right,0.871,,,,,,,,,0.4,,,,,,224.6667,224.9005,225.8,"[0.028163737921375293,0.0826587612542691]",100.0,"[0.027175637201548756,0.15586818216203382]",100.0,"[-0.033612244098497335,0.10989640358752378]",100.0,"[0.046930585449482067,-0.1330896139524066]",4.0,"[0.1550117129039595,-0.0775477411220837]",100.0,"[-0.01975861402858927,-0.196536722807993]",4.0,"[0.11693174114502285,0.05567315928641139]",100.0,"[0.14616677808274212,0.08821254785730835]",4.0,"[-0.10281951772801838,-0.08693651319554856]",4.0,"[0.08263624031765493,-0.15909976320203822]",4.0,"[0.10779922564556604,0.015995081053144695]",100.0,"[-0.1359111768274882,0.0077628862325733695]",4.0,"[-0.0019895605991696206,-0.09938940739850631]",4.0,"[-0.15992710183847225,0.08872719846126058]",100.0,"[0.1052113296013478,0.0943606596416013]",4.0,"[-0.19155122574504282,-0.00189515236066951]",4.0,"[-0.06367450827222677,0.019446973464553367]",4.0,"[-0.14058658409867822,-0.06335435492627695]",4.0,"[0.04578468535614613,-0.06771217381844934]",4.0,"[0.061215566851935445,0.10532345768954642]",100.0,"[0.04090555556757428,0.03972958821453289]",4.0,"[0.17942588338572638,0.047299237486151176]",100.0,"[-0.02720933170371006,0.18903350703880714]",4.0,"[-0.051717399877584454,0.06819502691868155]",4.0,"[-0.09050304066362358,0.14387686498159807]",100.0,"[0.011338774509342873,-0.02324967183821322]",4.0,"[0.08509560487521893,0.15614355838740215]",100.0,"[-0.05614297860235614,-0.02314762200690476]",4.0,"[-0.04561397624392516,-0.0899853960170238]",4.0,"[0.04566786208236961,-0.0015121926011524153]",100.0,"[0.01257466320710136,0.19668832345326237]",100.0,"[0.08103420797773878,-0.04836274480560584]",4.0,"[0.02,0.02]",226.9,0.0,20.0,20.0,151.0,1.0,,,,,,,
,,,,,,,663b638be7226d4e3fcc255f,68442bda9dc808d6db82a869,2025-06-07_13h12.57.504,shape_ratio,2024.1.5,Win32,29.94011976,684250e4f00cb30b92d1fa88,,,,,,,,,,,226.9015,227.3999,,,227.6342,228.4333,left,0.7791,,,,,,,,,0.9,,,,,,227.3999,227.6342,228.4334,"[0.18656764740152523,0.03391997125734001]",100.0,"[-0.04641603270964386,-0.13782464432844654]",100.0,"[-0.0072864048071920404,-0.045879374185702836]",100.0,"[-0.11530784534861509,-0.13550580347193997]",100.0,"[-0.17417044792384817,0.053237876419196806]",100.0,"[0.1166341871402872,-0.08962153363484376]",100.0,"[-0.00968019458643033,-0.18741857602616538]",100.0,"[-0.16143779401854985,-0.04013473176314336]",100.0,"[-0.0848626896934106,0.07265475536802929]",4.0,"[0.08409620654741827,0.08958981240364526]",100.0,"[0.07989814027012708,-0.017877870727321075]",100.0,"[0.09218354195531915,-0.13858499671671945]",100.0,"[0.019672224930490482,0.14071377592844697]",100.0,"[0.06378221870189703,0.15894378398686407]",100.0,"[-0.026258636248766204,0.08983667266469358]",100.0,"[0.019354345864304907,-0.1297095593353475]",100.0,"[-0.11602534571154806,-0.04953326306611662]",100.0,"[-0.05862684711720702,-0.08598703702668832]",4.0,"[0.16134750029544762,-0.05560608528099781]",100.0,"[0.12881362903247248,0.07751778330963106]",100.0,"[0.07377163227567379,-0.06658007572926554]",100.0,"[-0.04864723952963412,-0.046530772176720844]",100.0,"[0.14104433778786904,0.1356712233011859]",100.0,"[0.14109234094962994,-0.017951721772104696]",100.0,"[-0.03493425013013764,0.02737395891945922]",100.0,"[-0.13687153137705133,0.10187473494768437]",100.0,"[-0.1461286664148168,-0.08289102499396116]",100.0,"[-0.11958529508190088,0.14032851843757843]",100.0,"[-0.0684983617377607,-0.18717189224508216]",100.0,"[-0.043879742275799764,0.12859171784430706]",100.0,"[-0.16689791082306907,-0.00035183763166362237]",100.0,"[0.053247532487794236,0.01600689993539759]",4.0,"[0.02,0.02]",229.5332,0.0,21.0,21.0,15.0,1.0,,,,,,,
,,,,,,,663b638be7226d4e3fcc255f,68442bda9dc808d6db82a869,2025-06-07_13h12.57.504,shape_ratio,2024.1.5,Win32,29.94011976,684250e4f00cb30b92d1fa88,,,,,,,,,,,229.5344,230.0329,,,230.2661,230.7999,right,0.5153,,,,,,,,,0.1,,,,,,230.0329,230.2661,230.8,"[0.0160061507856672,0.09348621500150786]",4.0,"[-0.056549896805069444,-0.03171835224295933]",4.0,"[0.07748946837977956,-0.10908542737281965]",4.0,"[-0.025672193863674298,0.12892577045744766]",100.0,"[0.13168115949696424,0.00018090445029139268]",4.0,"[0.13108946739045552,0.11026626925666488]",4.0,"[0.006753286627756451,-0.11201981765859798]",4.0,"[0.17611810204263265,-0.015802950262558884]",4.0,"[-0.002526934335614191,-0.17675482933586475]",100.0,"[0.10628644355113546,0.04464924551141871]",4.0,"[0.16348634806211937,0.07999318392304254]",4.0,"[0.060504777487351516,0.10739786570815466]",4.0,"[-0.055444783059700554,-0.13004244368089676]",4.0,"[-0.10607857057571791,0.1677987402838494]",4.0,"[0.0504463346091371,0.14756198663463224]",4.0,"[-0.015267673895227825,0.008838123778082694]",4.0,"[-0.13513308613778513,-0.0008913469365144362]",4.0,"[0.1266370828128705,-0.09706974770071577]",4.0,"[0.06133907746289992,-0.158886432833265]",4.0,"[0.12649189470771435,-0.14930255126806796]",4.0,"[-0.14061049495595238,0.08989584722540922]",4.0,"[-0.09390194176221331,-0.052427089109170724]",4.0,"[0.03282091335034157,0.013508732311725637]",4.0,"[0.0010074895892415745,-0.03159395803584969]",100.0,"[-0.08296520545889965,0.005461991506468726]",4.0,"[0.04733646041056301,-0.06737192910994329]",4.0,"[-0.15665063045403793,0.04817100979126699]",4.0,"[-0.05429501166467092,0.17711339345941565]",4.0,"[0.11348386722152679,-0.05067291124886138]",4.0,"[0.1815960679989756,0.03152206809075321]",4.0,"[-0.14777060159205585,-0.10677365738156928]",4.0,"[-0.10843089331610416,0.11400003316896826]",4.0,"[0.02,0.02]",231.8999,0.0,22.0,22.0,203.0,1.0,,,,,,,
,,,,,,,663b638be7226d4e3fcc255f,68442bda9dc808d6db82a869,2025-06-07_13h12.57.504,shape_ratio,2024.1.5,Win32,29.94011976,684250e4f00cb30b92d1fa88,,,,,,,,,,,231.9012,232.3996,,,232.6335,233.3665,right,0.6983,,,,,,,,,0.1,,,,,,232.3996,232.6334,233.3666,"[-0.07577863344255657,-0.17267402149997707]",4.0,"[-0.045105350249731425,0.07432453460976121]",100.0,"[0.13488841178436828,0.00519619956394343]",100.0,"[0.033632323844401,0.10844154565305733]",4.0,"[0.07852019494891478,-0.09051108544051718]",4.0,"[0.09564981946394202,-0.15920357188291176]",4.0,"[0.011211889840603803,-0.05808131858061692]",4.0,"[-0.13137437147614875,-0.07831867906744555]",4.0,"[0.15586411550106666,-0.11910317874442591]",4.0,"[0.06483123968417165,0.0653639767470118]",4.0,"[0.00493310815104548,-0.10491008220527387]",100.0,"[-0.03698583322233002,-0.07255022325355662]",4.0,"[-0.07297202151394817,-0.040051140255570404]",4.0,"[0.11845999095184258,-0.07273485457990365]",4.0,"[0.05067337381511747,-0.1611744306807999]",4.0,"[-0.0024661980708165225,-0.010758812001230035]",4.0,"[0.17165094236160905,0.03484085301859365]",4.0,"[-0.16155434261229124,0.06638815616434456]",4.0,"[0.09597033249180843,0.15624968711477075]",4.0,"[-0.10016239568527611,0.10974545614026837]",4.0,"[-0.034272169344099566,0.13876902794580234]",4.0,"[-0.0006947147154315065,0.1945424642533593]",4.0,"[-0.17217194986873663,-0.039631867973941276]",4.0,"[0.12243020563152776,0.09093722844954778]",4.0,"[-0.0007678396968736668,0.053226887828057075]",4.0,"[-0.10243751833021607,0.16843652805306703]",4.0,"[-0.1018218630693532,0.004171297020586185]",4.0,"[0.07288519311989705,0.004297104940019662]",4.0,"[-0.06292889586847522,-0.12653266740747388]",4.0,"[-0.02053593294609936,-0.13779443317259046]",4.0,"[-0.13602477621154715,-0.12545812217164412]",4.0,"[0.1469247245124811,0.13259751833621045]",4.0,"[0.02,0.02]",234.4662,0.0,23.0,23.0,207.0,1.0,,,,,,,
,,,,,,,663b638be7226d4e3fcc255f,68442bda9dc808d6db82a869,2025-06-07_13h12.57.504,shape_ratio,2024.1.5,Win32,29.94011976,684250e4f00cb30b92d1fa88,,,,,,,,,,,234.4674,234.9662,,,235.1998,235.8665,right,0.6475,,,,,,,,,0.1,,,,,,234.9662,235.1997,235.8665,"[-0.12450506886420103,-0.09550398420071807]",4.0,"[0.057480503334766044,-0.04815064130341992]",4.0,"[0.1214662559053622,-0.05425979634322302]",100.0,"[-0.06188359593488505,0.06500612278244032]",4.0,"[0.09583115220038003,-0.15360049655508695]",4.0,"[-0.06753144472768605,-0.1204758593471504]",4.0,"[0.004522165600392907,0.1328206389510323]",4.0,"[-0.015210259585132073,-0.15902250457339065]",4.0,"[0.10101131718212224,0.09937008506714409]",4.0,"[-0.038444151217514384,-0.19581396014441702]",4.0,"[0.05145514549366335,-0.11287223839359453]",4.0,"[-0.12713989670602677,0.08980809364010375]",100.0,"[0.12114415278507638,0.04565327911701694]",4.0,"[-0.1462865748393662,0.1251362472149379]",4.0,"[0.1841389370740623,-0.030744349751757764]",4.0,"[-0.03448277995571118,-0.04311215478742179]",4.0,"[-0.11390616758400261,-0.027467276080996826]",4.0,"[-0.08800984050619974,0.115944638625059]",4.0,"[-0.07592734929450548,0.16522746070957173]",4.0,"[-0.0034252351074539333,0.03213529411515501]",4.0,"[0.13865129712908314,0.0027558560306638236]",4.0,"[0.18602964126367924,0.02658381815697626]",4.0,"[0.04703224335838478,0.07922063994750493]",4.0,"[-0.028280920262799353,0.10810098085978834]",4.0,"[-0.08501816214971908,0.012617245152352399]",4.0,"[-0.15713390602045027,-0.06957201715873863]",4.0,"[0.1420277539893624,0.13672097887247334]",4.0,"[0.02909017378429213,0.17898795264364276]",4.0,"[0.1500113636122372,-0.1018748797754187]",4.0,"[0.009657558344838155,-0.03449374623293257]",100.0,"[-0.01810555543097429,-0.09711959265900208]",4.0,"[-0.17524577732523025,0.07393131463138786]",4.0,"[0.02,0.02]",236.9658,0.0,24.0,24.0,197.0,1.0,,,,,,,
,,,,,,,663b638be7226d4e3fcc255f,68442bda9dc808d6db82a869,2025-06-07_13h12.57.504,shape_ratio,2024.1.5,Win32,29.94011976,684250e4f00cb30b92d1fa88,,,,,,,,,,,236.9666,237.4661,,,237.7,238.2331,left,0.5033,,,,,,,,,0.9,,,,,,237.4662,237.7,238.2332,"[-0.06787937333928605,0.05177110341654067]",100.0,"[-0.16857499493712969,-0.03652991248688907]",100.0,"[-0.025730275061576238,-0.010123064431857317]",100.0,"[0.10401361008507806,-0.012039413735814854]",100.0,"[-0.02296612522576935,-0.1682541836365072]",100.0,"[0.03195819558324933,-0.1483113793167715]",100.0,"[0.1235652861517503,0.09114045054616798]",100.0,"[0.181715116111047,-0.0814156863152482]",100.0,"[-0.05632458622058305,0.12043628036803299]",100.0,"[0.018759719417681498,0.09354058458470842]",100.0,"[-0.018846560971698064,0.18261428272867747]",100.0,"[0.11350226171273335,0.02780236504736949]",100.0,"[-0.1108648078538551,0.15331127796434893]",100.0,"[0.023336201961858316,0.1340368841423746]",100.0,"[0.049275447113337346,0.05620714490969281]",4.0,"[-0.06313497376484566,-0.09280435617311827]",100.0,"[0.09323291515452055,-0.1530321767515571]",100.0,"[-0.10204551910088258,0.09380257480785756]",100.0,"[-0.10044308966344734,-0.0021876506940938442]",100.0,"[0.013090418218757583,-0.051199611703868636]",100.0,"[-0.1782624486933715,0.08263903833794661]",100.0,"[-0.1494240908489531,-0.11723951101524947]",100.0,"[0.08828465490235095,-0.10111846342649825]",100.0,"[-0.06163987055843467,-0.04624746663625229]",100.0,"[0.19425523427603011,0.00718622962300998]",100.0,"[-0.0688819843242093,0.18473487328961477]",100.0,"[-0.12075645294448797,0.044736346550822384]",4.0,"[0.05088920663144077,-0.08120977264689236]",100.0,"[0.14831853637437234,-0.03326283145541291]",100.0,"[0.07140958260019138,0.09169741184302185]",4.0,"[0.15511895776663326,0.12225981775459051]",100.0,"[-0.1374947096232583,-0.063680961116572]",100.0,"[0.02,0.02]",239.3326,0.0,25.0,25.0,23.0,1.0,,,,,,,
,,,,,,,663b638be7226d4e3fcc255f,68442bda9dc808d6db82a869,2025-06-07_13h12.57.504,shape_ratio,2024.1.5,Win32,29.94011976,684250e4f00cb30b92d1fa88,,,,,,,,,,,239.3339,239.8329,,,240.0669,240.7659,right,0.6717,,,,,,,,,0.6,,,,,,239.833,240.0666,240.766,"[0.09552547059460674,-0.051363257161136676]",100.0,"[-0.03324064101771414,-0.04114788329287279]",100.0,"[-0.05737702552359234,0.11668153722170921]",4.0,"[-0.13303163704274765,0.14158182071946881]",4.0,"[0.14321326927868544,-0.0683637278939344]",100.0,"[-0.11804286401990605,-0.10909026271204746]",100.0,"[-0.021385221520201135,0.18403344450488948]",100.0,"[0.15166109157572022,-0.019394116232706538]",4.0,"[0.18630162612980394,0.03614147646648701]",100.0,"[0.09678695117127017,-0.11472777541889209]",100.0,"[0.15823396380259896,0.11400482046486878]",100.0,"[0.1120049169995622,0.016717107120367867]",100.0,"[-0.1596000818004867,-0.08949687582606176]",100.0,"[0.02705904253727028,-0.1365009877202555]",100.0,"[0.0815882067580866,0.14022088599517799]",4.0,"[-0.07644162827274487,-0.1364356070671999]",100.0,"[-0.07186086100906941,-0.18299590351833772]",4.0,"[-0.1648334131872937,0.06505809351741197]",100.0,"[-0.027931616086505604,-0.19626955083436107]",4.0,"[0.007938314307201318,0.08386983005917685]",100.0,"[0.12784540017248602,0.14925954256610569]",100.0,"[-0.09020136179095653,-0.0035055052990284885]",4.0,"[-0.03555886787193162,-0.11720967033182284]",4.0,"[-0.024585765315050943,0.020157029293696595]",4.0,"[0.036448714501943404,-0.0469505147907565]",4.0,"[0.0299045635608958,0.11736484026984595]",100.0,"[0.017710999224158912,0.007099970957415299]",4.0,"[-0.14175933800284524,-0.030164653429816703]",100.0,"[-0.09870063131197288,0.06250514005080368]",100.0,"[0.06405151000871519,0.1866609498126502]",4.0,"[-0.05644011730576493,0.06902295786122307]",100.0,"[-0.17444530922863516,0.02133715091248898]",4.0,"[0.02,0.02]",241.8662,0.0,26.0,26.0,52.0,1.0,,,,,,,
,,,,,,,663b638be7226d4e3fcc255f,68442bda9dc808d6db82a869,2025-06-07_13h12.57.504,shape_ratio,2024.1.5,Win32,29.94011976,684250e4f00cb30b92d1fa88,,,,,,,,,,,241.8669,242.3656,,,242.6014,243.0992,right,0.474,,,,,,,,,0.1,,,,,,242.3656,242.6013,243.0993,"[-0.18272910985354118,0.07382008328449273]",4.0,"[-0.06029806664825607,-0.11029944852488871]",4.0,"[-0.03507657693707895,-0.0047018579611129065]",4.0,"[0.1348556495470368,-0.12235328588254699]",4.0,"[0.012399831295359355,-0.17078783564488026]",4.0,"[0.06479892271405072,-0.10211376900646184]",4.0,"[0.19695165154635394,-0.025117796996384223]",100.0,"[-0.062103337180288515,0.07199016228660574]",4.0,"[0.028064090778246044,0.07325517374390446]",4.0,"[0.0256550954956664,-0.005391870903585776]",4.0,"[-0.10718402871673084,-0.08166700876855375]",4.0,"[-0.14473071829436432,0.046558543712649295]",4.0,"[0.01994151248458419,0.1877806895748693]",4.0,"[0.08049311235565768,0.11305077123693186]",4.0,"[-0.12674874605405903,0.09680101602217162]",4.0,"[0.010229813425972884,-0.11191364552248594]",100.0,"[0.07020294364165829,0.15870523688001073]",4.0,"[-0.09169099619800831,-0.14918392085868154]",4.0,"[0.06364988158657177,-0.02747689264096818]",4.0,"[-0.18974774054672652,-0.024514738474244437]",4.0,"[-0.07150873090251851,0.1807928995692841]",4.0,"[0.17058045872140334,0.06581950831512241]",4.0,"[-0.08311533721707055,0.12632837815278933]",4.0,"[0.1265177770836949,0.05029302010619081]",4.0,"[0.10558809472541168,-0.02218954746322986]",4.0,"[-0.08408924001868491,-0.04574339518669467]",4.0,"[0.01775132382143273,-0.06596655586006135]",4.0,"[0.143185957623781,-0.03988737862820456]",4.0,"[-0.034902010643434796,0.12401477821799863]",4.0,"[-0.0962039760124872,0.03073671745097573]",4.0,"[-0.04171951997374984,-0.059909590993073567]",4.0,"[-0.12911759026089753,0.0004978860920517794]",100.0,"[0.02,0.02]",244.1988,0.0,27.0,27.0,202.0,1.0,,,,,,,
,,,,,,,663b638be7226d4e3fcc255f,68442bda9dc808d6db82a869,2025-06-07_13h12.57.504,shape_ratio,2024.1.5,Win32,29.94011976,684250e4f00cb30b92d1fa88,,,,,,,,,,,244.2003,244.6985,,,244.9326,245.5322,left,0.5684,,,,,,,,,0.5,,,,,,244.6986,244.9325,245.5324,"[0.04314023780371785,0.17501290192789795]",4.0,"[0.10317028354786148,-0.013492762115476151]",4.0,"[0.013896714592719121,-0.07751854068854845]",4.0,"[0.10719432387692901,0.06626626749599283]",100.0,"[0.02402881461207126,-0.023245599741770814]",100.0,"[-0.06787192306318876,-0.04862899752745157]",4.0,"[-0.10320070741376348,0.06712252760525428]",4.0,"[-0.04993722776511781,-0.17277854464556966]",4.0,"[0.08297541112769641,0.12811408675383276]",4.0,"[-0.03134825066316114,-0.12862796199039989]",100.0,"[0.0025393042991099833,0.1406750120567455]",100.0,"[-0.1543058877967932,-0.038843170512309455]",100.0,"[-0.10461052762269624,-0.10170367884245222]",100.0,"[0.06879431588969731,-0.1650602918448654]",4.0,"[0.12339962398131925,-0.048017286072018286]",100.0,"[-0.04369223416839502,0.1591164903101032]",4.0,"[-0.02527606155051976,-0.013757584501775416]",100.0,"[0.021777385909917037,0.028594461364844646]",100.0,"[0.16753946820635648,-0.0032570497532244122]",4.0,"[-0.046663241653277863,0.035470529869966745]",4.0,"[0.12086652090707295,0.15081660712315187]",100.0,"[0.08388838620415717,-0.05965102658249222]",4.0,"[-0.16959572556630328,0.02044139367153518]",100.0,"[-0.041940026118385536,0.11866430240545653]",4.0,"[0.06484869898119477,0.015328858917402034]",100.0,"[0.15221298867188693,-0.08559333789376516]",100.0,"[-0.08593075089851411,0.1429594061311182]",100.0,"[-0.13999675493263006,0.1418562622373899]",100.0,"[-0.176262212931988,0.08341739987353639]",100.0,"[0.019135321519643034,-0.1355824955465513]",4.0,"[0.16890461965428183,0.05977550616032789]",4.0,"[-0.12368283472125498,-0.15478996505695516]",4.0,"[0.02,0.02]",246.6331,0.0,28.0,28.0,113.0,1.0,,,,,,,
,,,,,,,663b638be7226d4e3fcc255f,68442bda9dc808d6db82a869,2025-06-07_13h12.57.504,shape_ratio,2024.1.5,Win32,29.94011976,684250e4f00cb30b92d1fa88,,,,,,,,,,,246.6339,247.1318,,,247.3659,247.8323,left,0.4478,,,,,,,,,0.9,,,,,,247.1319,247.3659,247.8323,"[-0.08503509408133872,-0.009816470384866351]",100.0,"[-0.010594488873787054,-0.0843120315562607]",100.0,"[0.05085686502698541,-0.11991834069820645]",100.0,"[-0.13036541896162984,0.0843155955611057]",100.0,"[-0.01988301473021744,-0.1735459482946104]",100.0,"[0.1323029825037556,-0.05486476032366785]",100.0,"[0.14493728396252428,-0.10969244684482878]",100.0,"[-0.03234707910092185,0.035681245456411936]",100.0,"[-0.1526768597186443,-0.006990301661748374]",4.0,"[0.053592648257098884,0.09532128540700245]",100.0,"[-0.13673555108249583,0.14425249316344033]",100.0,"[0.09147851989695219,-0.07706455450734007]",100.0,"[-0.012017795049225177,-0.031053392232668446]",100.0,"[-0.09003132613594289,0.09971776519582688]",100.0,"[-0.06427261469400786,-0.04549896946077364]",100.0,"[-0.062206128701509336,-0.12858989915765157]",100.0,"[0.09368041359025717,0.15315487599439262]",100.0,"[0.09406055804532418,0.017585936330340366]",100.0,"[-0.026688286969506526,0.09031905251310643]",100.0,"[-0.16953829854263633,0.07109503980480172]",100.0,"[0.1848107502349273,0.044753146180965854]",4.0,"[0.11601142136531253,0.06208353706542958]",100.0,"[-0.1276684915800745,-0.09050674943813262]",100.0,"[0.10296993437310868,-0.026710224588381706]",4.0,"[-0.09904826736399211,0.04102786523066792]",100.0,"[-0.03309533053133331,0.13625640486710322]",100.0,"[0.05751688868932037,0.17599555194729383]",100.0,"[-0.16454040254509095,-0.0711176270651689]",100.0,"[0.1924208802067819,0.004267094449277794]",100.0,"[0.1716124456814223,-0.03953752606789365]",100.0,"[-0.14487011720767115,-0.1329239797461925]",100.0,"[-0.05855032855786437,0.16821585608051692]",100.0,"[0.02,0.02]",248.9321,0.0,29.0,29.0,18.0,1.0,,,,,,,
,,,,,,,663b638be7226d4e3fcc255f,68442bda9dc808d6db82a869,2025-06-07_13h12.57.504,shape_ratio,2024.1.5,Win32,29.94011976,684250e4f00cb30b92d1fa88,,,,,,,,,,,248.9334,249.432,,,249.6663,250.3653,left,0.6904,,,,,,,,,0.4,,,,,,249.4321,249.6662,250.3654,"[-0.05131740166040862,0.14197338509425989]",4.0,"[-0.1364092172077214,0.010455243531814082]",4.0,"[-0.05514687038017541,0.021584130789015263]",100.0,"[0.01707375233259245,-0.07452974886498039]",100.0,"[-0.1119283831493701,-0.026121765931282712]",100.0,"[0.0765251313896755,-0.06467208489340183]",100.0,"[0.033921217258375894,0.08333657847836988]",4.0,"[0.03070576959618087,-0.19212855440066506]",4.0,"[0.16658700042431981,-0.013343583319626007]",4.0,"[0.08360848345785209,0.020490570562408]",100.0,"[0.009981925914854533,-0.1477464815978312]",4.0,"[0.1681970133577496,-0.08707747186668405]",100.0,"[0.04043559434403903,0.17846956489381666]",4.0,"[0.0088654564105938,0.11631737740959595]",4.0,"[0.026942875600613213,-0.02268940244727632]",4.0,"[0.07134876513499767,0.13193614045508392]",4.0,"[0.1308290548196906,0.11887857391078667]",100.0,"[-0.01671647837350735,0.03623625103434726]",100.0,"[0.04788571813554742,0.0425653110332326]",4.0,"[-0.1405433590865548,0.10412697003717115]",100.0,"[-0.04709297558183216,-0.15991361355632636]",4.0,"[-0.010844385197431345,-0.10626621451776838]",4.0,"[-0.11932762147205454,-0.07933007339034456]",4.0,"[-0.19846696977748776,0.007573871238699073]",4.0,"[0.0911078960186257,-0.13075430254770373]",100.0,"[-0.10412991084057417,0.04302683132158026]",100.0,"[-0.13830989919926925,-0.12963534628472323]",4.0,"[-0.014992865960768187,-0.01770879230047916]",4.0,"[-0.1096451853043023,0.14180822945455826]",100.0,"[-0.014629071364495403,0.18155867396829872]",100.0,"[0.1159041628568558,-0.013802139800668063]",4.0,"[-0.1745502357535792,-0.04635092392443443]",4.0,"[0.02,0.02]",251.4652,0.0,30.0,30.0,162.0,1.0,,,,,,,
,,,,,,,663b638be7226d4e3fcc255f,68442bda9dc808d6db82a869,2025-06-07_13h12.57.504,shape_ratio,2024.1.5,Win32,29.94011976,684250e4f00cb30b92d1fa88,,,,,,,,,,,251.4659,251.9652,,,252.1993,252.8988,right,0.6896,,,,,,,,,0.5,,,,,,251.9652,252.1992,252.8989,"[-0.04014427377120442,0.05482960156261413]",100.0,"[0.09195574907418579,-0.1681549368603911]",100.0,"[0.08099149750857278,0.040161390398388064]",100.0,"[-0.0703276846801036,0.14457211704551035]",4.0,"[-0.13625217121355832,0.1063743581353982]",4.0,"[0.07633012755834705,-0.10047946691901243]",4.0,"[0.04473718411302623,0.10996004019218072]",4.0,"[-0.048849898511590946,-0.04901942192534822]",100.0,"[0.024276851536511795,-0.12118764797829315]",100.0,"[0.09635260391715121,-0.008435687008338685]",100.0,"[-0.11196076446622572,-0.14044549944025955]",4.0,"[0.19212134192768032,-0.024870577243633223]",100.0,"[-0.1198926344738068,-0.009080961163833222]",4.0,"[-0.02326902420935832,0.1545418362280267]",100.0,"[-0.17433514248447055,0.06608409717000835]",4.0,"[0.0897503769048105,-0.057064780186147836]",100.0,"[-0.025585818054851637,-0.10117804377621598]",100.0,"[0.0011627472042467773,-0.1725008962328728]",4.0,"[0.10754031607670982,0.09037300506490883]",4.0,"[0.14134842799632172,-0.05100520938393523]",100.0,"[-0.13360253053740842,0.0642832376722928]",100.0,"[0.026774251872475164,0.057695739895131756]",4.0,"[-0.014629149850917778,0.010733968582756444]",4.0,"[0.16591403489293877,-0.10324508201767993]",100.0,"[-0.1595096238924294,-0.05695803884684811]",4.0,"[0.12067243976098817,0.13269106750059215]",100.0,"[0.015738074609367447,0.1965475718212437]",4.0,"[0.13257074531597002,-0.13665719537836962]",4.0,"[0.12342116367740683,0.03727867265847603]",4.0,"[0.051927893131699335,-0.17924843067124321]",100.0,"[-0.11031551886524162,-0.06065357030109944]",100.0,"[-0.05882628440203748,0.017647700996720354]",4.0,"[0.02,0.02]",253.9983,0.0,31.0,31.0,117.0,1.0,,,,,,,
,,,,,,,663b638be7226d4e3fcc255f,68442bda9dc808d6db82a869,2025-06-07_13h12.57.504,shape_ratio,2024.1.5,Win32,29.94011976,684250e4f00cb30b92d1fa88,,,,,,,,,,,253.9995,254.498,,,254.7325,255.6652,right,0.9003,,,,,,,,,0.4,,,,,,254.4981,254.7325,255.6653,"[0.1277074606166084,-0.013037352710326654]",4.0,"[-0.1659581075219239,-0.00032018449231560863]",4.0,"[0.13252194674163884,-0.1360999805168979]",4.0,"[0.0751078245011782,-0.1023389291815589]",4.0,"[0.08928444225841176,0.12620815169259578]",100.0,"[-0.050953624169251435,0.027901760142753917]",100.0,"[-0.10806090263995405,0.10805564074340152]",100.0,"[-0.08025728320008996,-0.04251018195591465]",4.0,"[0.17078203461738156,0.05644519945808423]",100.0,"[-0.08253224550578644,-0.11207206788499206]",100.0,"[0.0032642033607131107,-0.1547465779529002]",4.0,"[0.0791676251730924,0.03427363938565548]",100.0,"[-0.01306180661188058,-0.10692255181967267]",4.0,"[-0.010532140802587506,-0.024069754667382197]",4.0,"[-0.053527825518072385,0.1816724913658322]",4.0,"[0.11514426095189227,-0.0560416086221214]",4.0,"[-0.1232280806121372,-0.024384530099726298]",4.0,"[0.09744517250962582,0.08375655908584693]",100.0,"[-0.07798078316182358,0.07416227366047369]",4.0,"[-0.01668415163419071,0.10907073965865674]",4.0,"[-0.14227496184997981,-0.13488771714217318]",4.0,"[0.17491725569534047,0.004871413610525625]",100.0,"[-0.18498044558328058,0.05980983991297765]",4.0,"[0.13373708335087597,0.13273842278338635]",4.0,"[-0.17039649129936962,-0.05119005768134806]",100.0,"[-0.10482753108778929,-0.15844928505441916]",100.0,"[-0.007357629689374786,0.16071028057703865]",100.0,"[-0.16082106625660983,0.1057229988886066]",100.0,"[-0.12832453796367016,0.052716539300035795]",4.0,"[0.0756891411817016,-0.1671350276224113]",4.0,"[0.16259219992232313,-0.08536836845697619]",100.0,"[-0.052779105347023826,0.12806449898001548]",4.0,"[0.02,0.02]",256.7652,0.0,32.0,32.0,172.0,1.0,,,,,,,
,,,,,,,663b638be7226d4e3fcc255f,68442bda9dc808d6db82a869,2025-06-07_13h12.57.504,shape_ratio,2024.1.5,Win32,29.94011976,684250e4f00cb30b92d1fa88,,,,,,,,,,,256.7665,257.265,,,257.4994,258.4649,right,0.9487,,,,,,,,,0.45,,,,,,257.265,257.4994,258.4649,"[0.08131369755066067,-0.1583138035820271]",100.0,"[-0.03607233668412043,-0.07333828188360336]",100.0,"[0.09590353842854774,0.0005591258511959815]",4.0,"[0.009129143436983511,0.1016281277593367]",100.0,"[0.0021437537793258096,0.025885971098683846]",4.0,"[0.05362540823034511,-0.06106043782557361]",100.0,"[0.13621092745023175,-0.09642185617207448]",4.0,"[-0.0635316341372522,-0.12068819666861265]",100.0,"[-0.0045362525424137035,0.1998694078116721]",4.0,"[0.1238305084581557,0.11273313857060584]",100.0,"[0.08016719307744659,-0.10855724660001134]",4.0,"[-0.15340951969334585,-0.05836814321864272]",4.0,"[0.08334672130677916,0.09995253798620946]",100.0,"[-0.10350228206216198,-0.0983057296221193]",4.0,"[0.011723135672884102,-0.08533459505601511]",100.0,"[0.14969417560446222,0.009197484061750664]",4.0,"[-0.07421306876141329,0.10801292752964285]",4.0,"[0.17857896003409038,-0.06110026971440143]",4.0,"[-0.02130161845087662,-0.020259387890564588]",4.0,"[0.08329717422397857,0.1646757571820594]",4.0,"[-0.05541280526957827,0.05233239139077083]",4.0,"[-0.012248463237478916,-0.16096218466448803]",4.0,"[0.03394960253856735,-0.19407430763355163]",4.0,"[-0.14192371288788233,0.011172322784446341]",4.0,"[-0.06591928178767496,-0.026047007240738943]",4.0,"[-0.15817636206119168,-0.09907022580451476]",100.0,"[-0.028043861771619178,0.15123426802038992]",4.0,"[-0.1630595021619508,0.0811474411708862]",100.0,"[-0.09609010865956993,0.03142375114881272]",100.0,"[-0.1902857093386138,0.03431236425426221]",100.0,"[0.1275001610260993,-0.03688339684594284]",100.0,"[-0.05038246545077093,-0.1877676745941201]",100.0,"[0.02,0.02]",259.5647,0.0,33.0,33.0,141.0,1.0,,,,,,,
,,,,,,,663b638be7226d4e3fcc255f,68442bda9dc808d6db82a869,2025-06-07_13h12.57.504,shape_ratio,2024.1.5,Win32,29.94011976,684250e4f00cb30b92d1fa88,,,,,,,,,,,259.566,260.0647,,,260.2989,261.0978,right,0.768,,,,,,,,,0.6,,,,,,260.0647,260.2989,261.0979,"[-0.09391283731568249,-0.09507945296744069]",100.0,"[-0.020028057911754157,0.12980830297923765]",100.0,"[0.04146580849360758,0.17604875850086638]",100.0,"[-0.025778416848832555,-0.018509983696244393]",100.0,"[0.127024075187086,0.135855099448994]",4.0,"[0.0872956825500768,-0.13628843913611974]",4.0,"[-0.06308605378724892,-0.18456847095181783]",4.0,"[-0.09391576931506156,0.17518510104821675]",4.0,"[0.05375731056620269,-0.0955361353049862]",100.0,"[-0.015418964981219578,-0.09097779236998986]",4.0,"[-0.05446809165237983,0.047879171761917465]",100.0,"[0.18331664865584885,-0.010804068090463524]",4.0,"[-0.13988021500239647,-0.11962950064207671]",100.0,"[-0.145319530565133,-0.03475494425526459]",4.0,"[0.049660462396607756,0.0946020614043556]",100.0,"[-0.09955744187691351,0.07528580893998243]",100.0,"[0.16045544389688798,-0.05976422522038544]",100.0,"[-0.10129194487885396,-0.04085807780892232]",100.0,"[-0.15520688087242349,0.10260638582414325]",100.0,"[0.06225304916888944,-0.045495156051283084]",100.0,"[0.008003370504274361,-0.15364772345591363]",100.0,"[0.09997159910759912,-0.06220285498935121]",100.0,"[0.08397398974756308,0.007283551183897612]",4.0,"[0.14098752691444102,0.05562089096173634]",4.0,"[0.07708438792746751,0.05559683302607683]",100.0,"[-0.19410379869967398,-0.03520465659385591]",4.0,"[-0.012086571879248522,0.18306694683311545]",4.0,"[-0.17922371732352943,0.06652157835799351]",100.0,"[0.005198399999046046,0.017238549042894423]",100.0,"[-0.15584926015549241,-0.0745889855042521]",4.0,"[0.13416532537684225,0.0022472614460215287]",100.0,"[0.14103897791355663,-0.1371527694752152]",4.0,"[0.02,0.02]",262.1979,0.0,34.0,34.0,45.0,1.0,,,,,,,
,,,,,,,663b638be7226d4e3fcc255f,68442bda9dc808d6db82a869,2025-06-07_13h12.57.504,shape_ratio,2024.1.5,Win32,29.94011976,684250e4f00cb30b92d1fa88,,,,,,,,,,,262.1989,262.6979,,,262.932,263.5313,left,0.5695,,,,,,,,,0.9,,,,,,262.698,262.9319,263.5315,"[0.14230793958748583,-0.024231403306251766]",4.0,"[0.027642868158927615,0.09177775696066708]",100.0,"[-0.03644064876800687,-0.05730320641636096]",100.0,"[0.19132733389592718,0.05137138834691511]",100.0,"[-0.08095452813212764,-0.008956428726250186]",100.0,"[-0.044021938190904185,0.06552006433992998]",100.0,"[-0.04474508717126068,0.14150441779096845]",100.0,"[0.05973088348306348,0.15741095631188612]",100.0,"[-0.12751429957412855,-0.05662456438124801]",100.0,"[-0.10570268059744468,-0.13948313334953893]",100.0,"[0.0854412278401442,0.10662070566211541]",100.0,"[0.13671243562786736,0.04859835633020514]",100.0,"[0.007196924957803135,-0.03288545730140876]",100.0,"[-0.13469771779134315,0.1350829637434048]",100.0,"[0.09011086315995644,-0.044144847277978905]",100.0,"[-0.16743510261925354,0.08084910788841015]",100.0,"[-0.040084926889399124,-0.17833520237305872]",4.0,"[0.04060670245696677,0.016751577475053583]",100.0,"[0.05931932499335304,0.06296855900156217]",100.0,"[0.013259617223104538,-0.15226260187415155]",100.0,"[-0.09132791633194974,0.04905430945140619]",100.0,"[-0.13844378485833544,0.031150044888918458]",100.0,"[-0.03979071902890844,0.19474940758792442]",4.0,"[-0.15669750270988214,-0.011640287615896135]",100.0,"[-0.09546280231653677,-0.09446778915245099]",100.0,"[0.13231162110677555,0.10051263820365418]",100.0,"[-0.15436033740055552,-0.1120641600992971]",100.0,"[0.15559119068235383,-0.06959764244240334]",100.0,"[-0.09422827736512153,0.1732408472839586]",100.0,"[0.19602994848707153,0.010416545121779756]",100.0,"[0.05226246903082912,-0.10479752820985896]",100.0,"[0.08393409388782348,0.01006708534598225]",100.0,"[0.02,0.02]",264.6313,0.0,35.0,35.0,7.0,1.0,,,,,,,
,,,,,,,663b638be7226d4e3fcc255f,68442bda9dc808d6db82a869,2025-06-07_13h12.57.504,shape_ratio,2024.1.5,Win32,29.94011976,684250e4f00cb30b92d1fa88,,,,,,,,,,,264.6321,265.1313,,,265.365,265.8646,right,0.4753,,,,,,,,,0.1,,,,,,265.1314,265.3649,265.8648,"[-0.09561211992582812,0.14568352718736663]",4.0,"[-0.006723485583571598,-0.15742031221356143]",4.0,"[0.12962679477939687,-0.019920269808013244]",4.0,"[-0.17436726384480247,-0.01604513339173957]",4.0,"[0.11651803993695188,0.056453953202562704]",4.0,"[0.1186664033222352,0.15125130784826132]",4.0,"[0.062326886464138385,-0.10086544219775294]",4.0,"[0.05168097097574412,0.1109703276244825]",4.0,"[-0.022949292864019057,0.008775959207479148]",4.0,"[-0.03360606268100166,0.10615550428432156]",100.0,"[0.14094492641821293,-0.12516104798768782]",4.0,"[0.04547477366922529,0.015435474228492377]",4.0,"[0.17916973082336715,0.06988101763804708]",4.0,"[-0.0924325748054088,0.009742187300887425]",4.0,"[0.18612496464257033,-0.06641807448992752]",4.0,"[-0.06035148653847305,-0.13401575068448407]",4.0,"[-0.14976745986689544,0.06774473346727006]",4.0,"[-0.08408173074917698,0.07720687019390798]",4.0,"[-0.1094755685750694,-0.1592743844288648]",4.0,"[0.027963209244489407,-0.03848614476026196]",4.0,"[-0.08180759317148593,-0.0968792337355556]",4.0,"[0.06195147790360226,0.15829636985338708]",100.0,"[0.08562364480896267,-0.06499649839679283]",4.0,"[0.052505735664552806,-0.1623345163935938]",4.0,"[-0.016033933312526165,-0.10106278712635326]",4.0,"[-0.031193091289734836,0.15721718935187765]",4.0,"[-0.05128342367190447,-0.05840953776801371]",4.0,"[-0.014532069012381327,-0.038934881517427126]",100.0,"[-0.15100507340334637,0.11079990730032561]",4.0,"[-0.06315791993511784,-0.18397915333320503]",4.0,"[0.03177893873410664,0.05498557553966192]",4.0,"[0.10098071285076285,-0.141542313476277]",4.0,"[0.02,0.02]",266.9645,0.0,36.0,36.0,185.0,1.0,,,,,,,
,,,,,,,663b638be7226d4e3fcc255f,68442bda9dc808d6db82a869,2025-06-07_13h12.57.504,shape_ratio,2024.1.5,Win32,29.94011976,684250e4f00cb30b92d1fa88,,,,,,,,,,,266.9652,267.4645,,,267.6985,268.1641,right,0.4538,,,,,,,,,0.1,,,,,,267.4646,267.6984,268.1641,"[0.19021211169068078,-0.04563142385949067]",4.0,"[-0.07671897224424996,-0.12595424089458812]",4.0,"[-0.1366194338976976,-0.11906031276907697]",4.0,"[0.13733118127254765,0.048685723360745156]",4.0,"[-0.00011887955700489846,0.11643602437307703]",4.0,"[-0.13127985406234263,-0.070838888453313]",4.0,"[-0.1513801487266767,0.05478976169279235]",4.0,"[0.04872428137115844,0.19233761816651254]",100.0,"[-0.12540955683335614,0.1132701730873016]",4.0,"[0.10599820143413748,-0.0669052418071926]",4.0,"[0.1518328329140087,-0.1267885736372149]",4.0,"[0.06955300719921988,-0.18032213243874085]",4.0,"[-0.10374738326924039,0.15073559820516905]",4.0,"[0.04403480210907188,0.09003567573975413]",4.0,"[-0.004491433407496771,-0.1933778194333078]",4.0,"[-0.0651352361491589,-0.013657621577205787]",4.0,"[0.012657461203967482,-0.08216521765089482]",4.0,"[-0.037399626603181045,0.167296375406323]",4.0,"[0.09570821953439575,0.15289752933739725]",4.0,"[-0.1506232960075603,-0.008890082744487248]",4.0,"[0.061791505643696995,-0.07509402642930735]",4.0,"[-0.05676333538985632,-0.07153020242334586]",4.0,"[0.08410569901163273,0.08256065374341194]",4.0,"[0.07706237127151394,-0.12119828207487861]",4.0,"[-0.06496455915961545,0.1379699120759529]",100.0,"[-0.06653063692007154,0.03073699520927457]",4.0,"[-0.06529171043933031,0.08548259848166441]",4.0,"[0.12475437857389811,0.1193320274325857]",4.0,"[0.1704665563018156,-0.006436515866042272]",4.0,"[0.045645948492863894,0.028425903786629923]",4.0,"[0.07278433780813401,-0.01617709462699917]",100.0,"[-0.020804892981035644,-0.035401963490302196]",4.0,"[0.02,0.02]",269.2641,0.0,37.0,37.0,189.0,1.0,,,,,,,
,,,,,,,663b638be7226d4e3fcc255f,68442bda9dc808d6db82a869,2025-06-07_13h12.57.504,shape_ratio,2024.1.5,Win32,29.94011976,684250e4f00cb30b92d1fa88,,,,,,,,,,,269.2648,269.7643,,,269.9982,270.5307,right,0.5226,,,,,,,,,0.5,,,,,,269.7644,269.9981,270.5308,"[-0.030630600240689934,0.12572821768267325]",100.0,"[-0.032585973878140564,-0.07597894279757816]",4.0,"[-0.024882145708688436,0.03126513590375126]",4.0,"[-0.06057815853695142,-0.1488806171334824]",100.0,"[-0.12168776666406596,0.12098878938256387]",100.0,"[0.017127683308095894,-0.1478885786294928]",4.0,"[-0.09575600134695485,-0.024204311839140142]",4.0,"[0.06146855006895909,-0.053743790901450025]",4.0,"[-0.15580001005445998,-0.004242375344888288]",4.0,"[-0.15105437064280022,0.09205121325584145]",100.0,"[-0.06086907526183261,0.16541214865808665]",4.0,"[0.1021748080778707,-0.15903509134364371]",4.0,"[-0.08442154445742046,-0.06877294789569]",100.0,"[0.006895008989521243,0.07359448867601441]",100.0,"[-0.16836893266227546,-0.04669898655194349]",100.0,"[0.016882893038422896,-0.19495628137058743]",100.0,"[0.07067983404362353,0.03620359019944803]",4.0,"[0.17485609551633594,0.08357173129207542]",4.0,"[0.06439022006012066,-0.17739319937619324]",100.0,"[0.10402676131839517,0.13856003802605482]",4.0,"[0.09305581464112346,0.09965852593201109]",100.0,"[-0.10118966021195924,0.04439646492053484]",4.0,"[-0.001970986003785589,0.18503027895500102]",100.0,"[0.14885264056752937,-0.06073177650066969]",100.0,"[0.0893710450920696,-0.013010941471795247]",100.0,"[-0.08649454033500363,-0.11736351104591898]",4.0,"[-0.02352027820122072,-0.12782595001210487]",4.0,"[-0.1719396422575872,-0.09085389870639406]",100.0,"[0.15812388845483222,-0.11802322491991568]",100.0,"[0.11933160497105293,0.05053408147873465]",4.0,"[0.005910114614069935,-0.1004573953359081]",100.0,"[-0.07091509326082536,0.11761549026548045]",4.0,"[0.02,0.02]",271.631,0.0,38.0,38.0,112.0,1.0,,,,,,,
,,,,,,,663b638be7226d4e3fcc255f,68442bda9dc808d6db82a869,2025-06-07_13h12.57.504,shape_ratio,2024.1.5,Win32,29.94011976,684250e4f00cb30b92d1fa88,,,,,,,,,,,271.6316,272.1306,,,272.3647,273.2642,left,0.8826,,,,,,,,,0.45,,,,,,272.1307,272.3646,273.2643,"[0.14728927852253812,0.07483132451605536]",4.0,"[0.10549665032390267,-0.16344327675229087]",4.0,"[0.06428410805244618,0.1867015113500298]",4.0,"[-0.045665348668965676,0.18556599382123012]",4.0,"[0.170255907801029,-0.02833546783743438]",4.0,"[0.01693689632139672,0.04796640808471518]",4.0,"[-0.06578403795589965,0.12224765439781651]",100.0,"[-0.1271324242692557,-0.011891670205493098]",100.0,"[-0.07691605977683562,-0.12675983373505773]",100.0,"[-0.08537140826923464,0.048311653300876514]",100.0,"[-0.012076706859752097,-0.13134734630379719]",4.0,"[-0.052505948466058,0.0830985952218446]",100.0,"[0.03424258114206511,0.08780559187510316]",4.0,"[-0.0008735887816602208,-0.07562684138978651]",4.0,"[-0.1551468927049806,0.017321539345727745]",4.0,"[0.15289696066343111,-0.07335945464346424]",100.0,"[-0.04890878669377438,0.017831453910894447]",4.0,"[0.017959104326931125,-0.1706359806579481]",100.0,"[-0.12624813057229917,0.053650223844163215]",4.0,"[0.06166867006444256,-0.021801408282487025]",4.0,"[0.07717292320070664,0.12122822799217875]",4.0,"[0.04137261504862975,-0.10556755227958875]",4.0,"[-0.007153450679321151,0.1227588098420664]",100.0,"[-0.18554262986691375,0.05829367551118224]",100.0,"[-0.10581593275836432,-0.05466239187026167]",4.0,"[-0.07346928277788281,-0.173625943559838]",4.0,"[0.0857647308713987,-0.08768653992897409]",100.0,"[-0.16329311280926923,-0.07524156887170934]",100.0,"[-0.021809665404542013,-0.17647379664659235]",100.0,"[0.14089928850937147,0.1259794248296424]",100.0,"[-0.1545987400471002,0.09143312706759685]",4.0,"[0.007518953819684548,0.00673399831212052]",100.0,"[0.02,0.02]",274.3639,0.0,39.0,39.0,142.0,1.0,,,,,,,
,,,,,,,663b638be7226d4e3fcc255f,68442bda9dc808d6db82a869,2025-06-07_13h12.57.504,shape_ratio,2024.1.5,Win32,29.94011976,684250e4f00cb30b92d1fa88,,,,,,,,,,,274.3646,274.8641,,,275.0978,275.5636,right,0.4493,,,,,,,,,0.1,,,,,,274.8642,275.0978,275.5637,"[-0.06355420976565225,0.12228771391080602]",4.0,"[-0.05333371572970285,-0.14083768133248573]",4.0,"[0.0638586356706854,-0.018114813917267325]",4.0,"[0.04120711715397407,0.01779434139613139]",4.0,"[0.14404316575769688,0.04276104163550109]",4.0,"[0.014241056366726785,-0.057841801673575464]",4.0,"[-0.18559126732965603,0.04528764863583832]",4.0,"[0.02105346587599885,-0.1880295656156799]",4.0,"[0.14668478502886825,-0.01628197276135066]",4.0,"[0.17927109806104438,-0.04498573179627029]",4.0,"[0.09548531798479773,-0.06436563669867738]",4.0,"[0.029544731222760214,0.08338963092703489]",4.0,"[-0.1336501659506883,0.07762568584308696]",4.0,"[0.11003241717225622,0.0933321141869785]",4.0,"[-0.02953585866155264,0.02916037734421106]",4.0,"[-0.11943470156343157,0.14564350279648053]",100.0,"[-0.14913097466724531,-0.02813587644927041]",4.0,"[-0.035782044503956764,-0.06670187618207793]",4.0,"[-0.12814839065099437,-0.1448801686377276]",4.0,"[0.09191042087117508,0.17345074152373227]",4.0,"[0.15770625973657926,-0.08539353789070392]",4.0,"[-0.16427633089943935,0.11005352382852078]",4.0,"[-0.03482549648679598,-0.0125446356058523]",4.0,"[-0.07701792331632736,-0.04211532257282731]",4.0,"[-0.14600857020999738,-0.09982214021916792]",100.0,"[0.0648509976026556,0.12723385233691317]",4.0,"[0.0692755068919018,-0.1780394691827874]",4.0,"[-0.14268417722582952,0.03685287615908359]",4.0,"[-0.10136574574555614,0.0274183177225673]",4.0,"[0.037509876059609176,-0.10062910205302716]",100.0,"[-0.021584450144429355,-0.11067882123324845]",4.0,"[-0.030446093186105052,0.09625333902938454]",4.0,"[0.02,0.02]",276.6649,0.0,40.0,40.0,198.0,1.0,,,,,,,
,,,,,,,663b638be7226d4e3fcc255f,68442bda9dc808d6db82a869,2025-06-07_13h12.57.504,shape_ratio,2024.1.5,Win32,29.94011976,684250e4f00cb30b92d1fa88,,,,,,,,,,,276.6656,277.1638,,,277.3979,277.7972,left,0.3656,,,,,,,,,0.9,,,,,,277.1638,277.3978,277.7974,"[0.013094458741614965,0.19039570282032844]",100.0,"[0.15777955241359554,0.11262026313497048]",100.0,"[-0.08288874240272474,0.02557106289082146]",4.0,"[-0.0475676950897174,-0.1418221818785393]",100.0,"[-0.10349491527233888,0.07215093376463699]",100.0,"[0.006146523330314012,-0.1820653773781481]",100.0,"[0.05705755032617376,0.12566146802102623]",100.0,"[0.10407553232190743,0.03321701864809082]",100.0,"[-0.1741829266468503,-0.01573962327014437]",100.0,"[-0.10588463850020972,0.13438465091859325]",4.0,"[0.11288277640803533,0.12917111047822724]",100.0,"[0.05044824058157536,-0.1447328489306175]",100.0,"[-0.018094391717903183,-0.07029650190792998]",4.0,"[0.006093920374647686,0.00528951917905978]",100.0,"[-0.14519856769704198,-0.09597497340490278]",100.0,"[0.16332854505640562,-0.06077126951050589]",100.0,"[-0.00574671232438698,0.09681029627424147]",100.0,"[-0.05798543669535054,-0.0425394140776824]",100.0,"[0.009027196813853326,0.1486091257057209]",100.0,"[0.1602687244154549,0.059718366795340254]",100.0,"[0.14103104657040955,-0.006094177279813359]",100.0,"[0.11804857981328809,-0.07263347219569842]",100.0,"[0.05331315016114671,0.16782131379415566]",100.0,"[-0.06655633874559953,-0.09125076201361938]",100.0,"[0.12185765932546698,-0.15461062753580754]",100.0,"[0.18802981644074349,-0.011613156123335635]",100.0,"[-0.16426422835965215,0.06631912796505951]",100.0,"[0.14550567777272366,-0.12228177170751589]",100.0,"[0.056758852811006434,-0.07594609225618307]",100.0,"[0.04617599989479916,-0.1925973439242062]",100.0,"[0.04785103567990195,0.05847152964143779]",100.0,"[-0.12909799634435634,0.019699230730222134]",100.0,"[0.02,0.02]",278.8966,0.0,41.0,41.0,2.0,1.0,,,,,,,
,,,,,,,663b638be7226d4e3fcc255f,68442bda9dc808d6db82a869,2025-06-07_13h12.57.504,shape_ratio,2024.1.5,Win32,29.94011976,684250e4f00cb30b92d1fa88,,,,,,,,,,,278.8981,279.3967,,,279.6311,280.064,right,0.3994,,,,,,,,,0.55,,,,,,279.3967,279.631,280.0641,"[-0.12831771992987287,0.05098412624196068]",100.0,"[-0.09606921285616671,-0.13144996436660308]",100.0,"[0.1664811491522781,0.09307934448391754]",100.0,"[-0.06324966257456377,0.16506577742332854]",100.0,"[0.027113535920935093,-0.0917156458418638]",4.0,"[0.11554262597979625,0.051502031941395444]",100.0,"[0.040443463831922585,0.10243474738046039]",4.0,"[-0.08190888170067569,0.060724653997662456]",100.0,"[-0.08711548442034486,-0.05413483216859323]",4.0,"[0.06515440690911121,0.02152245875076144]",4.0,"[-0.16727674281322408,-0.01333246839048714]",100.0,"[0.10645192827120901,0.10319258708405776]",100.0,"[-0.014717032222739894,0.05475594982472039]",100.0,"[0.06246421839660015,-0.05194502375776292]",100.0,"[0.042778875613252824,0.1909979990613764]",100.0,"[0.12874066174915205,-0.052723637048479564]",4.0,"[0.001208810042606101,-0.19388456337471335]",4.0,"[0.04835442912193922,0.059894390819964755]",100.0,"[-0.04972048128649454,-0.16031659182834934]",4.0,"[-0.1708928685242544,0.059148820094598396]",100.0,"[-0.18744379539146577,-0.06156004667525037]",100.0,"[-0.06794045474873543,-0.09135293641473792]",4.0,"[0.08675458398358922,0.17986140562679204]",100.0,"[0.15023054290575158,-0.12763518322495482]",100.0,"[0.14641121594598003,-0.009098096278819245]",4.0,"[-0.008175918591797931,0.008900195209917538]",4.0,"[-0.07502122572503088,-0.0042674543843082835]",4.0,"[0.19451724229379747,0.023427191374221536]",4.0,"[-0.13885807864217542,-0.13701806626389273]",100.0,"[-0.1342826093185965,0.12738883788309446]",100.0,"[-0.09114854522919977,0.12085491308070873]",4.0,"[-0.02580728024896254,-0.11599281497675021]",4.0,"[0.02,0.02]",281.1632,0.0,42.0,42.0,88.0,1.0,,,,,,,
,,,,,,,663b638be7226d4e3fcc255f,68442bda9dc808d6db82a869,2025-06-07_13h12.57.504,shape_ratio,2024.1.5,Win32,29.94011976,684250e4f00cb30b92d1fa88,,,,,,,,,,,281.1646,281.6672,,,281.8971,282.9968,right,1.0718,,,,,,,,,0.5,,,,,,281.6673,281.8971,282.9969,"[0.10818702348297565,-0.04520179433342991]",4.0,"[0.11820840626699977,0.044869365536057144]",100.0,"[-0.12842518758556432,-0.04799311568272591]",100.0,"[-0.08288744662735967,-0.07381482972751323]",100.0,"[0.1812461747881707,-0.0363121667468715]",4.0,"[-0.07015504802419632,0.04377180779252312]",4.0,"[0.07284794870805068,-0.06723438569367911]",4.0,"[0.018410824822511676,-0.19533974928625383]",4.0,"[-0.0936920329632371,0.15592398470438448]",4.0,"[0.028988599844419777,0.1058261932355598]",4.0,"[0.10649121887473152,0.1066456757060675]",100.0,"[-0.18879299063072863,-0.03724160740868313]",4.0,"[-0.10633678078966197,0.010364869545528486]",4.0,"[0.019624297796791104,-0.008114333889016933]",100.0,"[-0.12355265564378963,0.09808830441509936]",100.0,"[0.024202380136478272,0.1612308317853769]",4.0,"[0.07288363675800287,-0.13952784775108185]",100.0,"[-0.053590470289601816,-0.17974318291437907]",4.0,"[0.10386994200826506,0.003873855641407762]",100.0,"[0.05893202369646474,0.010361463852898933]",100.0,"[-0.07226967673340141,0.09657757534872011]",100.0,"[-0.03348625836329512,-0.08488815025717426]",100.0,"[0.07174482403405427,0.14338889402879454]",4.0,"[-0.14579836323219406,-0.1361358009494168]",4.0,"[-0.038238009571746584,-0.13118384339849187]",4.0,"[0.0647529950910043,-0.1888053697865524]",100.0,"[-0.1184310367530126,0.05636820744794587]",4.0,"[0.16629587307162652,0.06972424779144779]",100.0,"[-0.05202564568144426,0.18395904550376876]",100.0,"[-0.005595878609062196,0.04970837710396912]",4.0,"[-0.010960218551817866,0.1239072278257917]",100.0,"[-0.16418825967885586,0.08993484684189842]",100.0,"[0.02,0.02]",284.0971,0.0,43.0,43.0,91.0,1.0,,,,,,,
,,,,,,,663b638be7226d4e3fcc255f,68442bda9dc808d6db82a869,2025-06-07_13h12.57.504,shape_ratio,2024.1.5,Win32,29.94011976,684250e4f00cb30b92d1fa88,,,,,,,,,,,284.098,284.5966,,,284.831,285.7634,right,0.9136,,,,,,,,,0.4,,,,,,284.5968,284.8309,285.7635,"[0.03348766717354443,0.16523158428219908]",4.0,"[-0.14616632372965277,-0.0010981384026660687]",4.0,"[0.0067003855504294664,-0.1758865056049155]",100.0,"[-0.03932761075700316,-0.0280249380996348]",4.0,"[-0.04132428442912274,0.01528916097772313]",100.0,"[-0.14016027948419488,0.05788643611624711]",4.0,"[-0.18159300150706664,0.04170350598273923]",4.0,"[-0.1033018820950443,-0.16042205161101863]",4.0,"[-0.0596448677046143,0.09463137777478722]",100.0,"[-0.18222910203690237,-0.053894866707799874]",4.0,"[-0.04570233566374018,-0.08364004030470994]",100.0,"[0.08266204509885837,0.08751610736746714]",4.0,"[0.15263965096553436,0.02717224113418366]",4.0,"[0.12719428649295716,-0.06107106797008104]",4.0,"[0.1213610471968394,-0.11081029231451837]",4.0,"[0.07056909657456735,-0.026710628163203944]",100.0,"[0.021343058818958,-0.13125172422524897]",100.0,"[-0.1597205558612306,0.09345249288882304]",100.0,"[-0.08063511340529658,0.15937606963483092]",4.0,"[0.1120067760964488,0.01512742512946201]",4.0,"[0.17028392159989078,0.06722658710197163]",100.0,"[0.07555594741281353,-0.17566843532354165]",100.0,"[0.021626213866246444,0.07787447555302804]",4.0,"[-0.025975685706912527,0.13655118958532486]",100.0,"[-0.1980325860444015,-0.00008740702062594291]",4.0,"[-0.04787970569979708,-0.16529755349356806]",4.0,"[0.062452278482029014,0.04486693399046538]",100.0,"[0.034943518304842366,0.12063610055520065]",4.0,"[-0.10225056024607612,-0.11431512417062402]",100.0,"[-0.097888651738083,0.041376815082126095]",4.0,"[-0.005144669753551787,0.03740559521941592]",100.0,"[-0.1464694170847442,-0.10493167342983258]",4.0,"[0.02,0.02]",286.863,0.0,44.0,44.0,150.0,1.0,,,,,,,
,,,,,,,663b638be7226d4e3fcc255f,68442bda9dc808d6db82a869,2025-06-07_13h12.57.504,shape_ratio,2024.1.5,Win32,29.94011976,684250e4f00cb30b92d1fa88,,,,,,,,,,,286.8642,287.363,,,287.5966,288.0299,left,0.4025,,,,,,,,,0.5,,,,,,287.363,287.5966,288.03,"[0.030348316057563905,0.002190641587461866]",100.0,"[0.17222498072096226,0.06655143418466414]",100.0,"[0.009009794049934338,-0.05131823601695687]",100.0,"[0.013498550164813473,0.09928053970482487]",100.0,"[0.07309812073962428,-0.02327998347375223]",4.0,"[0.04119688053105632,0.1919602088920558]",100.0,"[0.10101104807606519,0.08132162198130484]",100.0,"[-0.1455664433495848,-0.1212141971091127]",4.0,"[-0.05388918592786484,-0.07068265504954913]",4.0,"[0.12633814703987944,0.12547852277173271]",4.0,"[0.047131201076865296,-0.12531476369406097]",4.0,"[-0.09543048761603014,0.154603399871612]",4.0,"[-0.01376427124337153,-0.15261315336164477]",4.0,"[0.1197444323759355,0.023448790879943462]",4.0,"[0.0611809508114932,-0.1706500219515225]",100.0,"[0.1746254214243005,-0.024985508261561467]",100.0,"[-0.12327241489037287,0.12084634740919396]",100.0,"[-0.02650951187601171,0.13047874714797678]",4.0,"[0.07158916882954783,0.15685770829577983]",4.0,"[0.12365839547032746,-0.05619438297858498]",4.0,"[0.1754474254619024,0.01533540594903736]",4.0,"[-0.14123613212406125,0.06532666784801151]",100.0,"[-0.0004738828902732493,0.17348697751346678]",100.0,"[-0.014257244416266511,-0.007933000505259385]",100.0,"[-0.13276996685833692,-0.04358888049290295]",4.0,"[-0.11083013026712465,0.03629344014825589]",100.0,"[0.07142870719939763,-0.0824697230230282]",100.0,"[-0.18152897216134742,-0.08121063178626209]",4.0,"[-0.09074137128102,0.09441780535698834]",100.0,"[-0.05764420000703389,0.18310548047111896]",4.0,"[-0.19573036369245375,-0.02514887294753055]",4.0,"[0.020544658941827616,0.04554942932575122]",100.0,"[0.02,0.02]",289.1297,0.0,45.0,45.0,92.0,1.0,,,,,,,
,,,,,,,663b638be7226d4e3fcc255f,68442bda9dc808d6db82a869,2025-06-07_13h12.57.504,shape_ratio,2024.1.5,Win32,29.94011976,684250e4f00cb30b92d1fa88,,,,,,,,,,,289.1304,289.6296,,,289.8634,290.4298,left,0.5455,,,,,,,,,0.5,,,,,,289.6296,289.8634,290.4299,"[-0.005378052209252402,-0.08593047943430103]",100.0,"[0.09076643380567728,0.12996042082331052]",4.0,"[0.047545000978103054,0.12852779625379554]",100.0,"[-0.06642782627394514,-0.17307009593107237]",4.0,"[0.06498755694867997,0.17986071636109063]",4.0,"[0.16515518132135987,-0.05673661073357691]",100.0,"[-0.003917619118585748,0.023745889956092312]",100.0,"[-0.1582837089533136,0.0045372705290059176]",4.0,"[-0.055287056869763776,-0.10100668031557611]",4.0,"[-0.18407225412425138,0.06815772806354133]",4.0,"[0.10148742485063537,-0.060042743311905206]",4.0,"[-0.18947195951004542,-0.0412676842514985]",100.0,"[-0.12597899497048584,0.077546792961599]",100.0,"[0.07195818634007653,0.036997630387551515]",100.0,"[0.1843885445015813,0.059646440699399526]",100.0,"[0.06195047008867415,0.08576948903123892]",100.0,"[0.1550998792895614,0.010435722228763046]",100.0,"[-0.11504447354703672,0.1255034994516038]",4.0,"[0.027984700485593452,-0.046850369317396695]",4.0,"[-0.03352850941912802,-0.02795026584302553]",100.0,"[0.016516490098369453,0.08970796782425697]",100.0,"[-0.02076366345865312,0.10794313331612478]",100.0,"[0.06566608079461952,-0.15302785256033685]",100.0,"[-0.047943584323245414,0.15839987477498527]",4.0,"[0.01741747159915902,-0.17451819688735568]",4.0,"[-0.025929673384789725,-0.17276420879986232]",4.0,"[-0.10154124524227212,-0.12587339845157314]",4.0,"[0.04835691650561784,-0.08681741813161657]",4.0,"[0.0272087972167264,0.19667334271610518]",4.0,"[-0.0863738428099526,-0.00828328278427609]",100.0,"[-0.021759695259798355,0.19157240167118297]",4.0,"[-0.14959067032276585,-0.09199701735583476]",100.0,"[0.02,0.02]",291.5297,0.0,46.0,46.0,111.0,1.0,,,,,,,
,,,,,,,663b638be7226d4e3fcc255f,68442bda9dc808d6db82a869,2025-06-07_13h12.57.504,shape_ratio,2024.1.5,Win32,29.94011976,684250e4f00cb30b92d1fa88,,,,,,,,,,,291.5308,292.0293,,,292.2639,292.7629,left,0.4744,,,,,,,,,0.55,,,,,,292.0294,292.2639,292.763,"[0.19055295868889288,-0.04269868246628973]",100.0,"[0.025650990959531387,-0.17993644127404781]",100.0,"[0.032782004280718854,0.03438572117885187]",100.0,"[-0.16345194808723507,0.032494171228975584]",4.0,"[-0.028525772371556537,0.07409998271114956]",4.0,"[-0.11530089341207078,-0.009121389407370336]",100.0,"[-0.15918756363488207,-0.06539402439377448]",100.0,"[0.059970567013207216,-0.0475126959212121]",100.0,"[0.1610780350546644,-0.0868720695456217]",4.0,"[0.058757065827059356,0.08030609484967498]",4.0,"[-0.07747741420612685,0.058171131924712516]",100.0,"[-0.04311391589805242,-0.16331750607706924]",4.0,"[0.10660009054332999,-0.12421553154203724]",100.0,"[0.018781645003978945,-0.04433195281851671]",4.0,"[0.1420140855894382,0.05923268279619441]",4.0,"[-0.059029767314326506,-0.024341006272753683]",4.0,"[-0.12931539546416776,0.12185121610758459]",4.0,"[0.03943274093755998,0.14535034633352284]",4.0,"[-0.1294640327133799,0.06110040093654475]",100.0,"[0.19181079636279336,0.014450824733943568]",100.0,"[0.08756594258853449,0.05135779534232965]",100.0,"[0.11705023581355015,-0.015601011563363406]",100.0,"[-0.026583959882785696,-0.10745202757754552]",100.0,"[0.12762803288060195,0.1142034551026132]",4.0,"[-0.12031690018711567,-0.1348019602299586]",4.0,"[-0.08951720644589609,0.17563058044848975]",4.0,"[-0.07233702182469484,-0.06321427725284903]",4.0,"[-0.19081992491552652,-0.006613691501978132]",100.0,"[-0.08316382068388094,-0.1135029851236964]",100.0,"[0.012978964051464023,0.18122955093737522]",100.0,"[0.05731829635923166,-0.13168285026473087]",100.0,"[0.04552766844610809,-0.08576885150214664]",100.0,"[0.02,0.02]",293.8628,0.0,47.0,47.0,60.0,1.0,,,,,,,
,,,,,,,663b638be7226d4e3fcc255f,68442bda9dc808d6db82a869,2025-06-07_13h12.57.504,shape_ratio,2024.1.5,Win32,29.94011976,684250e4f00cb30b92d1fa88,,,,,,,,,,,293.8641,294.3626,,,294.5968,295.3635,left,0.7587,,,,,,,,,0.45,,,,,,294.3627,294.5967,295.3636,"[-0.10532536819985629,-0.040537599283449625]",4.0,"[-0.07642511391746942,0.10525811693317358]",4.0,"[-0.05803360430129388,-0.02117356841053988]",100.0,"[0.10272213610134294,-0.08899172509689736]",100.0,"[-0.13739806338879026,0.010927776358853898]",4.0,"[0.04619629995772506,-0.1050053227730288]",100.0,"[0.015410849047375774,-0.0673470468410962]",100.0,"[-0.13156920480299064,0.14365459223526464]",100.0,"[0.10953277823494147,0.1409506367260919]",100.0,"[0.011722960980459437,0.06601795733173309]",4.0,"[-0.005596214310128901,0.15062261633409008]",4.0,"[0.028859365844774044,0.17676860407483921]",4.0,"[0.16463883788992614,-0.011474976988377619]",100.0,"[-0.08224637417203921,-0.08868630459124394]",100.0,"[0.00012865035398762785,-0.1705896317545379]",4.0,"[0.11993604062629944,-0.029891392263384196]",4.0,"[-0.007651042207100238,-0.006544495153481626]",100.0,"[-0.16279772291518177,-0.051408643654017414]",4.0,"[-0.060334262572119754,0.18157108648121748]",100.0,"[0.117087944066793,0.03878884049949789]",100.0,"[0.1507914165953707,-0.12613733960112522]",4.0,"[-0.03910027696562968,0.12143528675104147]",4.0,"[0.05327361052418144,0.127067442739119]",4.0,"[-0.14843430296376825,-0.08997973080709458]",100.0,"[0.05942458614642803,-0.1522580130771295]",4.0,"[-0.046866482044727764,-0.13512361627754643]",100.0,"[-0.09951963716865303,-0.13179389603185432]",4.0,"[-0.09200191281939375,0.004467400497473435]",100.0,"[-0.13656317806050763,0.05629274257227242]",4.0,"[-0.05543654306741372,0.028365912358862128]",4.0,"[0.04729779837348868,0.006832191804608871]",4.0,"[0.16341616427458341,-0.06123122826399677]",4.0,"[0.02,0.02]",296.4624,0.0,48.0,48.0,145.0,1.0,,,,,,,
,,,,,,,663b638be7226d4e3fcc255f,68442bda9dc808d6db82a869,2025-06-07_13h12.57.504,shape_ratio,2024.1.5,Win32,29.94011976,684250e4f00cb30b92d1fa88,,,,,,,,,,,296.4637,296.9627,,,297.1956,297.696,right,0.4798,,,,,,,,,0.45,,,,,,296.9627,297.1955,297.6961,"[-0.14432538743193363,-0.026229248821129064]",4.0,"[0.004880266263319495,-0.11307890790397265]",100.0,"[0.08316337277396989,0.1525194964749955]",4.0,"[0.11851923606093956,-0.15270330162034412]",4.0,"[0.07760235841857882,0.07518945603336372]",100.0,"[0.1806045606717696,0.06780933853161125]",100.0,"[0.1890136556734297,0.028640999965336842]",4.0,"[0.05366619429029516,0.0011421714566719249]",4.0,"[0.11646359040885744,-0.00960512061059803]",100.0,"[0.14049778277112393,-0.08938104726693956]",4.0,"[-0.030908002536361043,0.07577667381738046]",100.0,"[0.07627616505482725,-0.11610578423703824]",4.0,"[-0.13503330813064046,-0.08097226828260373]",100.0,"[0.09024975227328151,0.029938224080123928]",4.0,"[-0.09393731829114414,0.08290809444680242]",4.0,"[-0.07163053143369204,-0.050441394441730146]",100.0,"[0.13445049947104423,0.11703367116325507]",100.0,"[0.1580818598418466,-0.025071513785657435]",100.0,"[0.02438738614181469,0.05992885653321761]",100.0,"[-0.054422389504070995,-0.11894004935693671]",4.0,"[-0.17217905803172442,0.09274031597890199]",4.0,"[-0.17142120691170684,-0.09914038196301986]",4.0,"[0.11334623995541424,-0.049548170565388835]",100.0,"[-0.029341547814650284,0.18107493912990635]",100.0,"[0.017175424063019567,0.15333685267030156]",4.0,"[-0.08023802171050981,0.009091318545215997]",4.0,"[-0.00007833272226042799,-0.05992154789598019]",100.0,"[0.06256251377141361,0.11541075127050297]",4.0,"[0.12487857149105928,0.049980606658288206]",4.0,"[-0.17685130180528708,0.037928348971068344]",100.0,"[-0.10028032143856072,0.14603692928633402]",4.0,"[0.05434506632113682,-0.1853616019618863]",4.0,"[0.02,0.02]",298.796,0.0,49.0,49.0,146.0,1.0,,,,,,,
