right,left,explain.started,explain.stopped,key_resp_3.keys,key_resp_3.rt,key_resp_3.duration,participant,session,date,expName,psychopyVersion,OS,frameRate,study_id,explain_2.started,explain_2.stopped,key_resp_4.keys,key_resp_4.rt,key_resp_4.duration,explain_3.started,explain_3.stopped,key_resp_5.keys,key_resp_5.rt,key_resp_5.duration,fixation.started,fixation.stopped,practice.started,practice.stopped,response.started,response.stopped,key_resp.keys,feedback.started,feedback.stopped,trials_2.thisRepN,trials_2.thisTrialN,trials_2.thisN,trials_2.thisIndex,trials_2.ran,dot_ratio,key_resp.rt,key_resp.duration,explain_4.started,explain_4.stopped,key_resp_6.keys,key_resp_6.rt,key_resp_6.duration,dotDisplay.started,dotDisplay.stopped,ITI.started,polygon_1.pos,polygon_1.edges,polygon_2.pos,polygon_2.edges,polygon_3.pos,polygon_3.edges,polygon_4.pos,polygon_4.edges,polygon_5.pos,polygon_5.edges,polygon_6.pos,polygon_6.edges,polygon_7.pos,polygon_7.edges,polygon_8.pos,polygon_8.edges,polygon_9.pos,polygon_9.edges,polygon_10.pos,polygon_10.edges,polygon_11.pos,polygon_11.edges,polygon_12.pos,polygon_12.edges,polygon_13.pos,polygon_13.edges,polygon_14.pos,polygon_14.edges,polygon_15.pos,polygon_15.edges,polygon_16.pos,polygon_16.edges,polygon_17.pos,polygon_17.edges,polygon_18.pos,polygon_18.edges,polygon_19.pos,polygon_19.edges,polygon_20.pos,polygon_20.edges,polygon_21.pos,polygon_21.edges,polygon_22.pos,polygon_22.edges,polygon_23.pos,polygon_23.edges,polygon_24.pos,polygon_24.edges,polygon_25.pos,polygon_25.edges,polygon_26.pos,polygon_26.edges,polygon_27.pos,polygon_27.edges,polygon_28.pos,polygon_28.edges,polygon_29.pos,polygon_29.edges,polygon_30.pos,polygon_30.edges,polygon_31.pos,polygon_31.edges,polygon_32.pos,polygon_32.edges,dot_size,ITI.stopped,trials.thisRepN,trials.thisTrialN,trials.thisN,trials.thisIndex,trials.ran,break_2.started,break_2.stopped,trials_3.thisRepN,trials_3.thisTrialN,trials_3.thisN,trials_3.thisIndex,trials_3.ran
subject chose diamond,subject chose dot,0.0009,22.422,space,7.4065,,663e222c34bca8dd891321ce,684429139d61b53eeae0ac3c,2025-06-07_14h00.15.607,shape_ratio,2024.1.5,Win32,59.17159763,684250e4f00cb30b92d1fa88,,,,,,,,,,,,,,,,,,,,,,,,,,,,,,,,,,,,,,,,,,,,,,,,,,,,,,,,,,,,,,,,,,,,,,,,,,,,,,,,,,,,,,,,,,,,,,,,,,,,,,,,,,,,,,,,,
,,,,,,,663e222c34bca8dd891321ce,684429139d61b53eeae0ac3c,2025-06-07_14h00.15.607,shape_ratio,2024.1.5,Win32,59.17159763,684250e4f00cb30b92d1fa88,22.4224,66.9186,space,14.4521,,,,,,,,,,,,,,,,,,,,,,,,,,,,,,,,,,,,,,,,,,,,,,,,,,,,,,,,,,,,,,,,,,,,,,,,,,,,,,,,,,,,,,,,,,,,,,,,,,,,,,,,,,,,,
,,,,,,,663e222c34bca8dd891321ce,684429139d61b53eeae0ac3c,2025-06-07_14h00.15.607,shape_ratio,2024.1.5,Win32,59.17159763,684250e4f00cb30b92d1fa88,,,,,,66.9197,71.4954,space,1.5599,,,,,,,,,,,,,,,,,,,,,,,,,,,,,,,,,,,,,,,,,,,,,,,,,,,,,,,,,,,,,,,,,,,,,,,,,,,,,,,,,,,,,,,,,,,,,,,,,,,,,,,,
,,,,,,,663e222c34bca8dd891321ce,684429139d61b53eeae0ac3c,2025-06-07_14h00.15.607,shape_ratio,2024.1.5,Win32,59.17159763,684250e4f00cb30b92d1fa88,,,,,,,,,,,71.5494,72.0175,72.0178,72.2526,72.2526,73.7445,,73.7452,74.835,0.0,0.0,0.0,1.0,1.0,0.8,,,,,,,,,,,,,,,,,,,,,,,,,,,,,,,,,,,,,,,,,,,,,,,,,,,,,,,,,,,,,,,,,,,,,,,,,,,,,,,,,,,,,,,,
,,,,,,,663e222c34bca8dd891321ce,684429139d61b53eeae0ac3c,2025-06-07_14h00.15.607,shape_ratio,2024.1.5,Win32,59.17159763,684250e4f00cb30b92d1fa88,,,,,,,,,,,74.8397,75.3511,75.3511,75.6179,75.618,76.1167,right,76.1168,77.2213,0.0,1.0,1.0,0.0,1.0,0.2,0.4807,,,,,,,,,,,,,,,,,,,,,,,,,,,,,,,,,,,,,,,,,,,,,,,,,,,,,,,,,,,,,,,,,,,,,,,,,,,,,,,,,,,,,,,
,,,,,,,663e222c34bca8dd891321ce,684429139d61b53eeae0ac3c,2025-06-07_14h00.15.607,shape_ratio,2024.1.5,Win32,59.17159763,684250e4f00cb30b92d1fa88,,,,,,,,,,,,,,,,,,,,,,,,,,,,77.2241,84.8025,space,4.5628,,,,,,,,,,,,,,,,,,,,,,,,,,,,,,,,,,,,,,,,,,,,,,,,,,,,,,,,,,,,,,,,,,,,,,,,,,,,,,,,,,
,,,,,,,663e222c34bca8dd891321ce,684429139d61b53eeae0ac3c,2025-06-07_14h00.15.607,shape_ratio,2024.1.5,Win32,59.17159763,684250e4f00cb30b92d1fa88,,,,,,,,,,,84.8204,85.2731,,,85.5075,85.7686,left,,,,,,,,0.9,0.2341,,,,,,,85.2739,85.5074,85.771,"[0.12953443065030204,0.1166813352381369]",100.0,"[0.14461416508070518,0.05543402889846239]",100.0,"[-0.007269271792003728,0.06576804813862633]",4.0,"[0.01417396016017217,-0.010590488094801362]",100.0,"[0.19750780192922007,0.030923300603548507]",100.0,"[0.002048432856487399,-0.10749883402541315]",100.0,"[-0.05548470899562447,-0.060368677168184004]",100.0,"[-0.1435097137649968,-0.07889526978498393]",100.0,"[-0.09303055446611133,-0.14705942130128938]",100.0,"[0.1375052951885188,-0.07500637573620683]",100.0,"[-0.1778403689182473,-0.003162036284319636]",100.0,"[0.006381597516121836,-0.18216525551311702]",100.0,"[0.09158836636739326,0.002210886683041985]",100.0,"[-0.16592462709987074,0.09934913253118771]",100.0,"[-0.07301256275127407,-0.004816278798286099]",100.0,"[-0.05949242361626975,0.1487610669513544]",100.0,"[0.06797821598665094,-0.1091998864387242]",4.0,"[0.13198815655588314,-0.03399071419810538]",100.0,"[-0.029276992059540877,0.025620456846489708]",100.0,"[-0.1119876694010135,0.08973048900479728]",100.0,"[0.16901933128396968,0.09384915141567687]",100.0,"[0.06775636287226486,0.08121312835773101]",100.0,"[0.06782382161034028,-0.065096611664528]",100.0,"[0.11210277490530839,-0.14274555368813127]",4.0,"[-0.12729310531242324,0.045240357363196405]",100.0,"[0.02276744195379328,-0.055029079719540575]",100.0,"[0.05098517084944492,0.17877449256191816]",100.0,"[0.1839655796267637,-0.008378638784374969]",100.0,"[0.0470643746584133,-0.19050236891718733]",100.0,"[-0.1225050328497626,-0.11834819568525172]",100.0,"[-0.006757428590731865,0.13725570154155142]",100.0,"[0.05998893703774609,-0.02431564787172932]",100.0,"[0.02,0.02]",86.8682,0.0,0.0,0.0,14.0,1.0,,,,,,,
,,,,,,,663e222c34bca8dd891321ce,684429139d61b53eeae0ac3c,2025-06-07_14h00.15.607,shape_ratio,2024.1.5,Win32,59.17159763,684250e4f00cb30b92d1fa88,,,,,,,,,,,86.8706,87.3554,,,87.6402,88.0265,left,,,,,,,,0.5,0.3648,,,,,,,87.3556,87.6401,88.0265,"[-0.11723202795822148,0.1502395547933573]",4.0,"[-0.03334417579496029,0.05698772116535877]",4.0,"[0.00677251808178683,-0.07178831851092676]",4.0,"[0.09053918851195834,-0.11358783402821603]",4.0,"[-0.129532513897508,0.0012267970740437479]",100.0,"[-0.06197347803446716,-0.0329900541912226]",100.0,"[-0.056432225447027355,-0.1905689874948684]",4.0,"[0.025701579446922425,-0.02238240918291716]",100.0,"[-0.023850857381721043,0.13260361656980157]",100.0,"[-0.07418851295934631,-0.15011464467598196]",100.0,"[-0.10292792371638453,0.03416562762224379]",100.0,"[0.0014606925666249535,-0.19175303457336085]",4.0,"[0.14668543499990408,0.010164234447069981]",4.0,"[-0.005209237143284907,-0.11973741416342755]",4.0,"[0.08284182669633519,-0.015393482477758978]",4.0,"[-0.15274568602681876,0.08452778363311667]",4.0,"[-0.15552920734969494,-0.09573261374966285]",4.0,"[0.17553855953031688,-0.05281078701840634]",4.0,"[0.0756255730291871,0.06694420869448829]",100.0,"[0.093093231140851,-0.059792803086167585]",100.0,"[0.022884774254397174,0.04458824063775392]",100.0,"[-0.013256764347225142,-0.0065853159104819654]",4.0,"[0.12533634848425612,0.07293317006198531]",100.0,"[0.03643017169188557,0.1828626067762229]",100.0,"[-0.04711982042811479,-0.11542270446910464]",100.0,"[0.025085194219347445,-0.15532897038233096]",100.0,"[0.11680167239073135,0.11511776856955531]",4.0,"[-0.11420415303569967,0.10407936987519102]",4.0,"[-0.12490361090020143,-0.15154561495510185]",100.0,"[-0.030676371337601708,0.17665474556353233]",4.0,"[-0.1672464903577513,-0.05731940025790857]",100.0,"[-0.06879410455910315,0.15583856639856056]",100.0,"[0.02,0.02]",89.1316,0.0,1.0,1.0,104.0,1.0,,,,,,,
,,,,,,,663e222c34bca8dd891321ce,684429139d61b53eeae0ac3c,2025-06-07_14h00.15.607,shape_ratio,2024.1.5,Win32,59.17159763,684250e4f00cb30b92d1fa88,,,,,,,,,,,89.1325,89.6366,,,89.8839,90.2047,left,,,,,,,,0.4,0.2873,,,,,,,89.6366,89.8837,90.2049,"[-0.11774593126051812,-0.1469779154039457]",100.0,"[0.10754479084461821,0.006485796033173792]",100.0,"[-0.09147396855537632,-0.08894672382043234]",4.0,"[0.051378398214128394,0.11208889392946178]",4.0,"[0.10695400677940929,0.13808526258675227]",4.0,"[-0.0852276076996409,0.10265292771573972]",4.0,"[-0.03222605269245009,0.16865182718288785]",100.0,"[-0.09001433395422295,-0.015202852565984007]",4.0,"[-0.14156827452935306,0.07593051000292539]",4.0,"[0.05797998931396815,-0.023881658332172366]",100.0,"[0.14037726574527903,0.1062384941463123]",4.0,"[-0.00048040348739643524,0.045501514405664766]",100.0,"[0.06257050938023817,-0.11796206238011064]",4.0,"[-0.1799422576972082,0.018052283922904026]",4.0,"[-0.009599264662888662,-0.10686423975219572]",100.0,"[0.043194714651285424,-0.16470884393883548]",4.0,"[-0.08124599471048334,0.05532773156320018]",100.0,"[0.11444559860886207,-0.048927400574904634]",100.0,"[0.17087553342147024,0.047640411639686124]",4.0,"[0.0051613344714451495,-0.05797976608504121]",100.0,"[0.19318208440032594,-0.04921445568857101]",4.0,"[-0.07826061689520859,-0.16429724245094918]",100.0,"[-0.16182256195331418,-0.0453367398076749]",100.0,"[0.041944487617455485,0.016608779612938555]",4.0,"[-0.10809826489231418,0.14397159392292389]",4.0,"[-0.041692823848807,-0.012303523070589024]",4.0,"[0.16565158954710593,-0.01622556369035983]",100.0,"[-0.14828072521565927,0.11882619592632529]",4.0,"[0.04985150340549663,-0.07642051113642089]",4.0,"[0.08727513966631495,0.174859465916274]",4.0,"[-0.036640689409490314,-0.18301794628853826]",100.0,"[0.11732611651646703,-0.15527284193619367]",4.0,"[0.02,0.02]",91.3054,0.0,2.0,2.0,178.0,1.0,,,,,,,
,,,,,,,663e222c34bca8dd891321ce,684429139d61b53eeae0ac3c,2025-06-07_14h00.15.607,shape_ratio,2024.1.5,Win32,59.17159763,684250e4f00cb30b92d1fa88,,,,,,,,,,,91.3058,91.8059,,,92.0356,92.5407,right,,,,,,,,0.1,0.4733,,,,,,,91.806,92.0356,92.5408,"[0.12568128744958693,0.10147005113911778]",4.0,"[-0.031112829145238625,0.13096278030063097]",4.0,"[-0.10279655085151966,-0.05532360002546709]",4.0,"[0.10515009691515281,0.010677498606964726]",100.0,"[0.07199443031484812,0.0435610383074769]",4.0,"[0.1421881632711258,-0.12682331232807653]",4.0,"[-0.03958209890107666,-0.1138863153819515]",4.0,"[0.08222241799667004,0.13360116292358704]",4.0,"[0.09979616964092121,-0.039121875184051205]",4.0,"[-0.03094672536006932,-0.023770169565895574]",4.0,"[-0.05764701713104683,0.17505271975041645]",4.0,"[0.033836793253296596,-0.09569659536101893]",4.0,"[-0.09471522348976553,-0.146639362970087]",4.0,"[0.17496492950136552,-0.04636747839439498]",4.0,"[-0.17177746836741528,0.09676783696070815]",100.0,"[-0.010620666535987588,0.06287949692120565]",4.0,"[-0.07964564436895759,0.05037254679084112]",4.0,"[-0.17518247384387822,0.02531708640868735]",4.0,"[0.12571400163038868,0.0566205274841025]",4.0,"[0.0006518490955014453,-0.17845395386292723]",4.0,"[-0.14225554566930423,-0.07513335903006652]",4.0,"[-0.07963723594900678,0.09729392719601046]",4.0,"[0.02937797206141528,0.06130628125444296]",4.0,"[-0.13390864849507222,0.0299817962619082]",4.0,"[-0.06393879239206082,-0.18535471688175534]",4.0,"[-0.1823572391875865,-0.08090301225287064]",4.0,"[0.16621928429886018,-0.0032083536224422086]",100.0,"[0.07171055963605072,0.18443649676860643]",4.0,"[0.010711257977162669,-0.06094220838293386]",4.0,"[-0.044329595115787664,0.013972930722188895]",4.0,"[0.14849070145882498,-0.08728519816135431]",4.0,"[-0.12876725256946017,-0.0179036130612314]",4.0,"[0.02,0.02]",93.6346,0.0,3.0,3.0,204.0,1.0,,,,,,,
,,,,,,,663e222c34bca8dd891321ce,684429139d61b53eeae0ac3c,2025-06-07_14h00.15.607,shape_ratio,2024.1.5,Win32,59.17159763,684250e4f00cb30b92d1fa88,,,,,,,,,,,93.6351,94.1374,,,94.3769,94.8741,right,,,,,,,,0.55,0.4727,,,,,,,94.1374,94.3769,94.8743,"[-0.12248163495248988,-0.06035077395053448]",4.0,"[0.02031878501555925,-0.06247430041089822]",100.0,"[-0.023907872390097545,-0.09467806343195653]",100.0,"[0.09169377351874773,-0.1598487804664153]",4.0,"[-0.10373791632830252,0.03417449263684625]",100.0,"[0.12065276868607011,0.11313815633148758]",100.0,"[0.04750558220115008,0.10748177868010036]",100.0,"[0.07884327624277286,0.020456209652098323]",100.0,"[0.17726565073842634,-0.09201631017511336]",4.0,"[0.12767150952161568,0.04189900463224646]",4.0,"[-0.09359225369003585,-0.16150872411443423]",100.0,"[-0.03646635237546794,0.008173220167155288]",4.0,"[-0.030326643664664935,-0.15115562523730747]",4.0,"[0.010185233996541549,0.040713914266791794]",100.0,"[-0.1500266510406938,0.10567317775690786]",100.0,"[-0.047079855336697514,0.1738619201730355]",4.0,"[-0.16126671042629465,0.017926298462372904]",100.0,"[0.024954350572219005,-0.015726762187051633]",4.0,"[0.052347985998055194,-0.13757227137484787]",4.0,"[0.0026194365824567067,0.19317727896611334]",100.0,"[0.06040897619993068,0.16022196718598028]",100.0,"[0.02539118864227847,-0.1931040994197392]",100.0,"[0.19708736230409948,0.0006340587582584689]",4.0,"[-0.031999449541184374,0.1075739264813655]",4.0,"[-0.105422452689691,-0.014015784836859311]",100.0,"[-0.032620060108412355,-0.1969764677477408]",100.0,"[-0.10529098029412746,0.09935002927900523]",100.0,"[0.1230703703022011,-0.002463601725861413]",4.0,"[-0.10770759765263424,-0.11256425757190598]",100.0,"[0.10520723654401583,-0.0665827238940191]",100.0,"[-0.19194246765722858,-0.02251066515629825]",4.0,"[-0.1676674452481139,-0.07317250429179359]",4.0,"[0.02,0.02]",95.9823,0.0,4.0,4.0,85.0,1.0,,,,,,,
,,,,,,,663e222c34bca8dd891321ce,684429139d61b53eeae0ac3c,2025-06-07_14h00.15.607,shape_ratio,2024.1.5,Win32,59.17159763,684250e4f00cb30b92d1fa88,,,,,,,,,,,95.9832,96.4745,,,96.7344,97.1656,left,,,,,,,,0.9,0.4134,,,,,,,96.4745,96.7342,97.1656,"[-0.14266795483156475,-0.07302964990948975]",100.0,"[-0.13771655848470038,0.11472844887444911]",100.0,"[-0.09397295899947851,0.062224255453757676]",100.0,"[0.0989563437408888,-0.07924914691427988]",100.0,"[-0.023473270753455875,-0.11691118690205039]",4.0,"[-0.182338049723994,-0.02354138346102826]",100.0,"[-0.12692160165945995,-0.14142457748080403]",100.0,"[0.0527688539324947,-0.16291743628785357]",4.0,"[-0.011002274878605918,-0.06671985650542113]",100.0,"[0.07533016268753158,0.07949395791688169]",100.0,"[-0.08173521806070108,-0.09104758322787347]",100.0,"[0.06358995970709864,0.02293239222545158]",100.0,"[0.16234263610311167,-0.05539976369988558]",100.0,"[-0.1675524939985207,0.046390006005480815]",100.0,"[0.1175770937459329,0.028578994700762698]",100.0,"[-0.0031810546260328315,0.1921222059656452]",4.0,"[-0.12311525566396107,-0.0006356100332501485]",100.0,"[-0.05863731372646277,-0.17507818484017337]",100.0,"[0.1760412294794857,0.03834613589752209]",100.0,"[-0.02887280659258974,0.07331523681177068]",100.0,"[-0.054351657913921214,0.12334596632157525]",100.0,"[0.005708574816206661,-0.01700834925240804]",100.0,"[0.02509310063227524,0.13620284068139962]",100.0,"[-0.054178847355807365,-0.031748827331221315]",100.0,"[0.02353932959211762,0.03669836299353591]",100.0,"[0.09807608416793913,0.16215479808328812]",100.0,"[0.0010939309116544007,-0.1994851373960625]",100.0,"[-0.08206138696423533,0.0038080652975982896]",100.0,"[0.11058175157524187,-0.16479516627637392]",100.0,"[0.19760475126444232,-0.02600859457012887]",100.0,"[-0.0818859801134651,0.16066518812514657]",100.0,"[0.14837888715055694,-0.0024902636551348283]",100.0,"[0.02,0.02]",98.2705,0.0,5.0,5.0,6.0,1.0,,,,,,,
,,,,,,,663e222c34bca8dd891321ce,684429139d61b53eeae0ac3c,2025-06-07_14h00.15.607,shape_ratio,2024.1.5,Win32,59.17159763,684250e4f00cb30b92d1fa88,,,,,,,,,,,98.2709,98.7465,,,99.0024,99.2543,right,,,,,,,,0.4,0.2363,,,,,,,98.7466,99.0024,99.2543,"[0.048985920485813086,-0.08417617245357145]",4.0,"[0.03281166424960891,-0.1292017671145088]",4.0,"[-0.0519245391076517,0.12036794545579002]",100.0,"[-0.13882122441884068,-0.09997678024824397]",100.0,"[0.09993166035088108,0.050691676577783985]",4.0,"[0.17466543963159278,0.03034117194000326]",4.0,"[-0.1560583370469453,-0.011713142000773221]",100.0,"[-0.10455509379652929,0.11934952044995215]",100.0,"[0.01818834990215507,-0.028630342885473566]",100.0,"[-0.024972588615197553,0.1669493884507442]",4.0,"[-0.19275950020121924,0.03776362446265275]",4.0,"[-0.09696174074963647,-0.17482172431368057]",100.0,"[-0.1444498842850794,-0.05871296566702461]",4.0,"[0.12741372337970858,0.13121637776320022]",4.0,"[-0.022400548284816545,-0.15427169518385753]",4.0,"[-0.07525954102316855,0.009881982577704474]",4.0,"[0.08798354891379619,0.09909128489183071]",4.0,"[0.15439451576902685,0.08144275305484144]",100.0,"[0.18810013104528323,-0.012974895582563263]",4.0,"[0.14401153674451106,-0.07487687331798623]",100.0,"[0.01652581271307112,0.08264885824611182]",100.0,"[-0.12490497446455157,0.027340756015935164]",4.0,"[0.04903140519258095,0.0061170770794652714]",4.0,"[-0.049371390580777955,-0.1024389150117134]",4.0,"[-0.12157476557735561,0.06769223219178432]",100.0,"[0.0665391771371178,-0.03515117693281275]",100.0,"[0.030246303046495792,0.17440689109984123]",4.0,"[0.01593094553383918,0.032984856625858455]",100.0,"[-0.10873990514512524,-0.03147108243517662]",100.0,"[0.025913036982254355,-0.18856001395562128]",4.0,"[0.10037925184831417,-0.08393297170703491]",4.0,"[-0.024034483894732624,-0.06298206992252005]",4.0,"[0.02,0.02]",100.3545,0.0,6.0,6.0,165.0,1.0,,,,,,,
,,,,,,,663e222c34bca8dd891321ce,684429139d61b53eeae0ac3c,2025-06-07_14h00.15.607,shape_ratio,2024.1.5,Win32,59.17159763,684250e4f00cb30b92d1fa88,,,,,,,,,,,100.3569,100.8529,,,101.1044,101.4622,right,,,,,,,,0.1,0.3399,,,,,,,100.853,101.1044,101.4624,"[-0.024529725441475556,-0.020949216273148066]",4.0,"[0.04401752122102521,0.11063758624834402]",4.0,"[0.1107038783313819,0.13716686426642685]",4.0,"[0.14775458937482702,0.10123208750594156]",4.0,"[0.17492353892475415,0.03406930840175114]",4.0,"[0.11173670892070857,0.047277526957814675]",4.0,"[0.05539148358778565,-0.1821987186962792]",4.0,"[0.03885137061750381,-0.005398975250527682]",4.0,"[-0.1524780249322879,0.037909736423874234]",4.0,"[-0.13169677177898656,-0.020756128763067483]",4.0,"[0.09751364779771249,0.09301923739092269]",4.0,"[0.15350165637084978,-0.06838352218199939]",4.0,"[0.19573641626124244,-0.033420975934193915]",4.0,"[-0.1869517771270039,-0.021161556970555082]",100.0,"[-0.14492301218231748,0.0938588400444533]",4.0,"[-0.09004496643497999,0.10061596061278623]",4.0,"[-0.01633788032658882,-0.134214534236955]",4.0,"[-0.004647668070653407,-0.08928227031560165]",4.0,"[-0.06195241896745848,0.011713787218223162]",4.0,"[0.017130251450898852,0.038792612055264734]",4.0,"[-0.06381238426067698,-0.07361893807849142]",4.0,"[-0.000838430011546814,0.11017632062937016]",4.0,"[-0.08457833365412018,-0.1526386599018181]",4.0,"[0.04209707135874975,-0.09281245495373222]",4.0,"[-0.0759504269114323,0.05599668507399448]",4.0,"[-0.17456363020230792,-0.07067649665149661]",100.0,"[0.08178191603889351,0.17938467261634145]",4.0,"[-0.04684567576415821,-0.185126624535348]",4.0,"[0.12806402738995767,-0.021134304443713687]",4.0,"[-0.09932573867249143,0.15393489813750016]",100.0,"[-0.005597425655196802,-0.1875299440261319]",4.0,"[-0.10441826420994123,-0.060102232795951394]",4.0,"[0.02,0.02]",102.5606,0.0,7.0,7.0,209.0,1.0,,,,,,,
,,,,,,,663e222c34bca8dd891321ce,684429139d61b53eeae0ac3c,2025-06-07_14h00.15.607,shape_ratio,2024.1.5,Win32,59.17159763,684250e4f00cb30b92d1fa88,,,,,,,,,,,102.5611,103.0488,,,103.2941,103.722,left,,,,,,,,0.5,0.4091,,,,,,,103.0491,103.294,103.722,"[-0.07999588058227552,-0.17168527205406953]",4.0,"[0.08179810607862868,-0.15850055748320374]",100.0,"[0.06649329601325103,0.16609157934778024]",100.0,"[-0.17166733035243623,-0.049411117643437856]",100.0,"[0.16570986520885125,0.0005072938508355877]",4.0,"[0.13299976891007778,-0.06408973161162879]",100.0,"[-0.18894828795936064,0.050070935766024685]",4.0,"[0.043524575715513346,0.042323506958174745]",100.0,"[0.0855319583082335,-0.05064318843060608]",4.0,"[-0.09363695414148289,0.14645217002248068]",4.0,"[-0.11486842555530007,0.04044843953508858]",100.0,"[0.14359521246095525,-0.1230869846640129]",100.0,"[-0.07944280628028089,0.07687194627536797]",100.0,"[-0.008199955004671862,-0.15031579937348263]",4.0,"[-0.12434487356916622,-0.10684539893399228]",4.0,"[-0.013258495449655704,0.010877585216039152]",4.0,"[0.029859457815427065,-0.183595493468205]",100.0,"[0.11316620039157743,0.04171670642424728]",100.0,"[-0.034382062026415694,0.14757248899029912]",4.0,"[-0.04848194162974807,-0.009586954207703948]",4.0,"[-0.043991933976273,-0.11181134171377873]",4.0,"[0.025064340201774525,-0.025486891033863503]",100.0,"[0.16043865878238356,0.09585415566144781]",100.0,"[0.06348103648837099,0.11615770077457534]",4.0,"[-0.16130359061436253,0.10368343255172277]",4.0,"[0.002170271968806462,0.16715605437436776]",4.0,"[0.044282247029414724,-0.07681799410752001]",4.0,"[0.1960816249451534,-0.03691511705228336]",100.0,"[0.11870041527509544,0.12647156651823724]",100.0,"[-0.12196486778271344,-0.020233243038775443]",4.0,"[-0.01638823004729715,-0.05512436028792869]",100.0,"[0.010644160236159135,0.0730092706396067]",100.0,"[0.02,0.02]",104.8179,0.0,8.0,8.0,97.0,1.0,,,,,,,
,,,,,,,663e222c34bca8dd891321ce,684429139d61b53eeae0ac3c,2025-06-07_14h00.15.607,shape_ratio,2024.1.5,Win32,59.17159763,684250e4f00cb30b92d1fa88,,,,,,,,,,,104.8183,105.3228,,,105.57,105.8929,left,,,,,,,,0.9,0.303,,,,,,,105.3229,105.57,105.8929,"[-0.034065607274571086,-0.13050500525150804]",100.0,"[0.05574063293105856,-0.07950694422172376]",100.0,"[0.06103582230956617,-0.17143260777291922]",100.0,"[0.029817063122360515,0.03965554758843659]",100.0,"[-0.025257356860606282,-0.07086249948193218]",100.0,"[-0.15457584525508816,-0.06007882686173847]",100.0,"[-0.07819911097930238,0.04515909592667691]",100.0,"[0.1869489286434479,0.06946115982484777]",100.0,"[0.143659989848814,0.02553928136306631]",100.0,"[0.09949956674217314,-0.09982000151626898]",100.0,"[0.17072189163609694,-0.029453516708273744]",100.0,"[-0.10928567363377407,0.011968822433090054]",4.0,"[-0.0978684870245342,0.1497349511670086]",100.0,"[-0.12441880135487399,-0.1417652640059733]",4.0,"[-0.0827994127489805,-0.07769474552332971]",100.0,"[-0.02006523356855395,0.1582960104988831]",100.0,"[0.105374613442983,0.15461027143671208]",100.0,"[0.11598562123238329,-0.00920976996787739]",100.0,"[0.006112881315397625,-0.12450931230333107]",4.0,"[-0.16943658809621776,0.0015342090988533334]",100.0,"[0.08953288131803243,0.08967261106878575]",100.0,"[0.03709995439035778,-0.01512337303355226]",100.0,"[-0.19015925472247602,0.03836705876629219]",100.0,"[-0.02502239973778816,0.05848142866510127]",100.0,"[-0.016625480960931742,-0.17701747594711456]",100.0,"[-0.0909341262762321,-0.028388360835073276]",100.0,"[-0.12218818774674511,0.08612127171368775]",100.0,"[0.027587043409619493,0.19772215718274053]",100.0,"[0.023840090738126818,0.13661701231991893]",100.0,"[-0.1458363522649981,0.040719393194427335]",100.0,"[0.06936445060971218,0.04866612037505086]",100.0,"[0.14694377760065355,-0.108630918776395]",100.0,"[0.02,0.02]",106.9871,0.0,9.0,9.0,23.0,1.0,,,,,,,
,,,,,,,663e222c34bca8dd891321ce,684429139d61b53eeae0ac3c,2025-06-07_14h00.15.607,shape_ratio,2024.1.5,Win32,59.17159763,684250e4f00cb30b92d1fa88,,,,,,,,,,,106.988,107.4857,,,107.7375,108.067,right,,,,,,,,0.1,0.3136,,,,,,,107.4858,107.7375,108.067,"[0.14393829935233216,0.05193749443445162]",4.0,"[0.04380173132165584,0.18016276583800148]",4.0,"[-0.18180638750232342,0.06472733078670863]",4.0,"[-0.09911074067792758,-0.012401197820166826]",4.0,"[-0.03632018892022317,0.0015481026401042513]",100.0,"[0.12550903952776796,-0.14695213082076572]",4.0,"[0.09442206666808461,0.13168582579684038]",4.0,"[0.003913818764562109,-0.07939120506405335]",4.0,"[-0.0802006024209071,0.061834448100188386]",4.0,"[-0.1181683550052129,-0.09928175938118446]",4.0,"[-0.07149622317361885,-0.15785233277348287]",4.0,"[-0.02374828693211729,0.16902946242338515]",4.0,"[-0.009049096056372762,-0.028621296680782626]",4.0,"[0.07951150680970646,-0.0889853489346258]",4.0,"[-0.12478959272292074,0.09328881023316105]",4.0,"[0.036522178828900305,0.09495646154962709]",100.0,"[0.05896501832591949,0.05520103299844914]",4.0,"[0.1527438794148854,0.09792202154002773]",4.0,"[-0.128365948918931,0.15019518034304402]",4.0,"[-0.02382525498585776,-0.12036675461690355]",4.0,"[-0.010104287723619954,0.08291341475350747]",100.0,"[-0.07824756214149488,-0.08566705989440106]",4.0,"[0.18283012049369274,-0.0787066098729847]",4.0,"[-0.1557856353366061,-0.062117014791060306]",4.0,"[0.1211828382377198,0.005500008440563449]",4.0,"[0.13690363104893855,-0.050424224045525844]",4.0,"[-0.004046632827300146,0.12976198701582162]",4.0,"[0.14356464439633343,-0.10829873859782777]",4.0,"[0.053574605617897904,-0.03633550632966715]",4.0,"[-0.18789705418332378,0.006916569005995073]",4.0,"[-0.003757018911004935,-0.16209087417143403]",4.0,"[-0.062011813142035556,0.14617545971183155]",4.0,"[0.02,0.02]",109.1601,0.0,10.0,10.0,193.0,1.0,,,,,,,
,,,,,,,663e222c34bca8dd891321ce,684429139d61b53eeae0ac3c,2025-06-07_14h00.15.607,shape_ratio,2024.1.5,Win32,59.17159763,684250e4f00cb30b92d1fa88,,,,,,,,,,,109.161,109.6522,,,109.9178,110.1404,right,,,,,,,,0.5,0.2044,,,,,,,109.6525,109.9177,110.1405,"[-0.11128740536912812,-0.06359878285796414]",100.0,"[0.15360598148966176,0.051627500374973455]",4.0,"[-0.0658736105734151,-0.1528142006244787]",100.0,"[0.10409443350855148,-0.049228221948781285]",4.0,"[0.08901344338907106,-0.09565617552513896]",4.0,"[-0.0459807282090745,-0.0701667952094624]",4.0,"[-0.10185644224727253,0.07994895521821652]",100.0,"[0.115703243891291,0.12020085870922721]",100.0,"[-0.040821355641531595,0.1929821990264456]",100.0,"[-0.12712020902484308,0.12657831429252706]",4.0,"[0.17473729467029384,0.007645113222406895]",4.0,"[-0.014687095074298375,-0.03243128363692871]",100.0,"[-0.15466750654444972,-0.08986159491443425]",4.0,"[-0.05639032573881939,0.0608893165062064]",100.0,"[-0.019407191012398076,0.15293336639524038]",100.0,"[0.012557253974724106,-0.08985969863974065]",4.0,"[0.012429954974839279,0.12102412460249308]",4.0,"[0.05187085723175888,-0.051230199455685806]",100.0,"[-0.1730357611520958,-0.000018060172784610492]",100.0,"[-0.0746947466638543,0.011653762075322588]",4.0,"[-0.0032922098107593923,0.029744419497178393]",4.0,"[0.07620296242122573,0.15723834604132103]",4.0,"[0.13442947384866896,-0.12740107469103704]",100.0,"[-0.005403769098871677,-0.14836470387530806]",100.0,"[-0.022830557812717065,0.09780009636748292]",4.0,"[-0.06426225849416636,0.15134844617507862]",100.0,"[-0.15207211668684031,0.07709063828299098]",4.0,"[0.009256595776889257,0.19458875653357652]",100.0,"[-0.02611650131815367,-0.1878030535956268]",4.0,"[0.0647254733183505,-0.13844266638526367]",100.0,"[0.02684175583324391,-0.010789729763791374]",4.0,"[0.08953778607542488,0.05762158416386937]",100.0,"[0.02,0.02]",111.2314,0.0,11.0,11.0,99.0,1.0,,,,,,,
,,,,,,,663e222c34bca8dd891321ce,684429139d61b53eeae0ac3c,2025-06-07_14h00.15.607,shape_ratio,2024.1.5,Win32,59.17159763,684250e4f00cb30b92d1fa88,,,,,,,,,,,111.2318,111.7241,,,111.9827,112.3377,right,,,,,,,,0.45,0.337,,,,,,,111.7242,111.9826,112.3378,"[-0.09498393311141506,0.1261080834427959]",4.0,"[0.10635013169998336,0.07626544351096465]",4.0,"[-0.14317144234482343,0.09239916407240423]",4.0,"[-0.05779829918880726,-0.008479259900709165]",100.0,"[0.060937217162767565,-0.09910880188579241]",100.0,"[0.06000050981593479,0.123823646951437]",100.0,"[0.12116791946012605,-0.1090257702806588]",4.0,"[0.018545040904686436,-0.19038446837648126]",100.0,"[0.07330625138188837,-0.05374932980583308]",4.0,"[-0.019496251615189395,-0.032429912189042225]",100.0,"[-0.049253296881989365,-0.07537029231771053]",4.0,"[-0.15561962132715984,-0.0789926342325863]",4.0,"[0.17906673520794955,-0.06320541250669583]",4.0,"[-0.012601520741368603,-0.14837190765537206]",4.0,"[0.17003180077493762,0.010855788220773597]",4.0,"[0.06875726717339788,0.028682359726535975]",100.0,"[-0.012577653669243486,0.09351137057074564]",4.0,"[-0.1969714760889208,-0.012568897292713974]",100.0,"[0.01970528267453218,0.03969978435891059]",100.0,"[0.1520520186025938,0.05794302654864674]",4.0,"[0.04296980548798176,-0.1475441185681366]",100.0,"[-0.0745586608220871,-0.13619082747093672]",100.0,"[-0.03689920890329147,0.18960671782167907]",100.0,"[0.04510610789984588,0.16841263333201717]",4.0,"[-0.06776479018164805,-0.1777066972253164]",100.0,"[0.12043630607086421,-0.005252466095776882]",4.0,"[-0.00026453272516775597,-0.08332367192758672]",100.0,"[-0.14109308335489645,0.006104439898142852]",4.0,"[-0.09752860909346674,-0.06607008099027534]",4.0,"[0.003979151268659376,0.17312262526970895]",100.0,"[0.08390579337017706,-0.14823150396988466]",4.0,"[-0.12448012706978664,-0.1429015976156795]",4.0,"[0.02,0.02]",113.4397,0.0,12.0,12.0,138.0,1.0,,,,,,,
,,,,,,,663e222c34bca8dd891321ce,684429139d61b53eeae0ac3c,2025-06-07_14h00.15.607,shape_ratio,2024.1.5,Win32,59.17159763,684250e4f00cb30b92d1fa88,,,,,,,,,,,113.4404,113.9303,,,114.1702,114.8071,left,,,,,,,,0.5,0.6044,,,,,,,113.9306,114.1699,114.8071,"[0.06963649038550211,-0.11714663593840935]",100.0,"[-0.09825054607846237,0.07092774041946504]",4.0,"[-0.13721078829411676,-0.10362582826564581]",100.0,"[0.12899821325018931,-0.14824975992000197]",100.0,"[-0.0007673850363622433,-0.1520494677038787]",4.0,"[-0.0054218682734200425,0.1854298820621005]",4.0,"[0.12305082190383858,0.018490881651792142]",100.0,"[0.06827446033507457,0.02872483810161253]",100.0,"[-0.17528700891712104,-0.020090519638770118]",4.0,"[-0.14782571368953304,0.010744920233978036]",4.0,"[-0.10076824314907169,-0.07549915641315602]",100.0,"[-0.016044359872265507,-0.09213285180772399]",4.0,"[0.0833331235677018,0.12979981222284273]",100.0,"[-0.04603409551788214,-0.014741776741890766]",4.0,"[-0.0604163194491183,0.04279771947125906]",100.0,"[0.1853937948755891,-0.04675562931401585]",4.0,"[0.06754632591466204,-0.013205688675240928]",4.0,"[-0.14563892336334525,0.055955717045332656]",4.0,"[-0.046148414762890645,0.182568059863235]",100.0,"[0.022354271112721837,-0.19792447067873056]",4.0,"[0.002603479770772751,-0.04102124739432443]",100.0,"[0.16716058368413803,-0.08388405865641589]",100.0,"[0.15011557049928434,0.052408489635845934]",100.0,"[0.01812387208230722,0.00028403848493717735]",4.0,"[0.05390575452660952,0.18433026342890688]",4.0,"[0.11510426841160984,-0.058075558264980065]",4.0,"[0.08096206519650875,0.08620206673612855]",4.0,"[-0.18622832973198822,0.053062624572930234]",100.0,"[-0.12107019928570183,-0.14887871136663994]",100.0,"[-0.11676319396009371,0.15823654069395754]",100.0,"[0.040102583045583576,0.060834875718197165]",100.0,"[-0.019916272171605007,0.1271713722959948]",4.0,"[0.02,0.02]",115.9032,0.0,13.0,13.0,106.0,1.0,,,,,,,
,,,,,,,663e222c34bca8dd891321ce,684429139d61b53eeae0ac3c,2025-06-07_14h00.15.607,shape_ratio,2024.1.5,Win32,59.17159763,684250e4f00cb30b92d1fa88,,,,,,,,,,,115.9047,116.4077,,,116.6365,117.0716,right,,,,,,,,0.55,0.4154,,,,,,,116.4077,116.6365,117.0716,"[0.1344045008184857,-0.01663448472915448]",4.0,"[-0.11117730243347566,-0.08547256224485475]",100.0,"[0.034094371012726124,-0.17762187081456055]",4.0,"[-0.06447886428186163,0.10032511171151959]",100.0,"[0.15870029468281655,0.08393504698418502]",100.0,"[0.03214254652867841,0.08573468092579072]",4.0,"[0.04063978076684134,0.13446924458724482]",4.0,"[0.09817877268380029,0.037824555349641874]",4.0,"[-0.050259441803367166,-0.012769342280111234]",4.0,"[0.0896448619899384,0.11829578092047356]",4.0,"[0.03822805328257832,-0.08627270935159306]",100.0,"[-0.15763908665411483,0.07333894392039612]",100.0,"[-0.16348643480660321,0.011329405320159608]",4.0,"[-0.026412074282507608,0.14097001031401496]",4.0,"[0.038625588702996747,-0.00461378476832478]",100.0,"[-0.07290175146292252,0.053452212654433263]",100.0,"[0.08829087345926245,-0.007545259255926576]",4.0,"[-0.09643147533259892,-0.048097844584247124]",100.0,"[0.036681638764422875,0.18957083558128018]",100.0,"[-0.006265478314858551,-0.055628825597710874]",100.0,"[-0.07942121149115973,-0.12354078258991107]",100.0,"[0.1428262880871175,-0.06698650287585597]",100.0,"[-0.18371487776875758,-0.045633230848356895]",4.0,"[-0.10062304924121102,0.12750946268770777]",4.0,"[-0.12598428939722078,0.04621541214969105]",100.0,"[0.047095925015015194,-0.13349407550683728]",100.0,"[-0.02427877934713694,0.07805010013993044]",100.0,"[-0.0328631617339374,-0.12975887477734502]",4.0,"[-0.09634754385076523,0.0049735111104327245]",100.0,"[-0.0104892055323934,0.03615473872782115]",4.0,"[0.17635264570348724,-0.019983130230441803]",100.0,"[-0.05725176907719491,0.1887379211683653]",100.0,"[0.02,0.02]",118.1725,0.0,14.0,14.0,78.0,1.0,,,,,,,
,,,,,,,663e222c34bca8dd891321ce,684429139d61b53eeae0ac3c,2025-06-07_14h00.15.607,shape_ratio,2024.1.5,Win32,59.17159763,684250e4f00cb30b92d1fa88,,,,,,,,,,,118.1746,118.6677,,,118.9215,119.2552,right,,,,,,,,0.1,0.3025,,,,,,,118.6677,118.9215,119.2552,"[-0.08171187127203203,-0.05886399275320078]",4.0,"[0.06613849002835906,0.02977121361589389]",4.0,"[-0.14398799413988753,-0.1229195566040234]",4.0,"[-0.18019430564009176,0.04105273241900174]",4.0,"[0.02755216265163129,0.10933542105522462]",4.0,"[0.12006192986490521,-0.015811645843479324]",4.0,"[-0.15827439590795273,-0.07571734695550154]",100.0,"[0.024669928501619334,-0.1521764376334362]",4.0,"[-0.03297922471039181,-0.06071898036828368]",4.0,"[0.12465964382053216,0.02540423641244671]",4.0,"[-0.1525700664723202,0.1228168988299849]",4.0,"[0.058584630827571475,-0.042049165427690896]",4.0,"[-0.0765101122443244,0.10270513730636481]",4.0,"[-0.10936820941014067,-0.0011258382522722854]",4.0,"[0.07338666801239256,0.07656189974728767]",4.0,"[-0.07880812297676502,-0.12957482123358977]",4.0,"[0.10720954400972028,0.1346222994082]",4.0,"[-0.030526540286077132,0.015568818688047688]",4.0,"[0.03218959801179195,0.18839219020118733]",4.0,"[0.033746831657837206,-0.07538693073721477]",100.0,"[-0.11383891560891717,0.045605765927564865]",4.0,"[0.1753466900798136,-0.04514205933248754]",100.0,"[0.10115055606351947,-0.0901264067306735]",4.0,"[-0.07137996181844848,-0.1856489968685621]",4.0,"[-0.047025636738504156,0.15165535400416988]",4.0,"[0.1629384144137536,0.11051329098756278]",4.0,"[-0.00022571530367962878,0.047541941842589266]",4.0,"[0.14265560368161245,-0.0961092476628023]",4.0,"[0.17463726324049464,0.060784504632183406]",4.0,"[-0.14583789415909004,0.07383947928712212]",4.0,"[0.07016286675966747,-0.1310347705652778]",4.0,"[-0.0689348055060473,0.05585204102156865]",4.0,"[0.02,0.02]",120.3654,0.0,15.0,15.0,186.0,1.0,,,,,,,
,,,,,,,663e222c34bca8dd891321ce,684429139d61b53eeae0ac3c,2025-06-07_14h00.15.607,shape_ratio,2024.1.5,Win32,59.17159763,684250e4f00cb30b92d1fa88,,,,,,,,,,,120.3658,120.8618,,,121.0996,121.3302,right,,,,,,,,0.55,0.2126,,,,,,,120.8619,121.0996,121.3302,"[-0.16347787833812472,-0.07757868930952226]",4.0,"[0.11552873596495467,-0.08975072496242877]",100.0,"[-0.11119798249872925,-0.13178851506729453]",100.0,"[0.0005595485535936272,0.1386663828609929]",4.0,"[-0.002952473225760906,-0.1908569247260591]",100.0,"[-0.08228625372574092,0.13368738731234506]",100.0,"[0.03525774074645251,-0.16511136124250247]",100.0,"[0.17185690117388475,0.039948406446321645]",100.0,"[0.034261464109719406,-0.018001497219704694]",100.0,"[-0.06491327353001862,0.07747424162660499]",4.0,"[-0.1502787272125353,0.10887021804135082]",100.0,"[0.08464245176822197,0.10055769999500341]",100.0,"[-0.18547049285304562,0.06450743715667848]",100.0,"[0.1775825527791707,-0.026083459649226926]",4.0,"[-0.06521607098463988,0.011130913419658077]",100.0,"[-0.05023814983278843,-0.1614877607582465]",4.0,"[-0.0894207313416743,-0.06166172449679747]",4.0,"[0.033227766286698615,-0.06987495895812998]",4.0,"[-0.1195568981740771,0.04696162073502979]",100.0,"[0.06681655977766109,0.058299210935024375]",100.0,"[0.16441831881857516,0.09265878689860216]",4.0,"[-0.008051662022265456,0.07023104644305103]",4.0,"[0.07389465827896853,-0.006505434143061741]",4.0,"[-0.14117780573332728,-0.022091964055033126]",100.0,"[-0.09134523961827243,-0.17169399089585674]",4.0,"[0.05860765264574204,-0.1265240222398007]",100.0,"[0.0576708492607654,0.1850284177528886]",4.0,"[0.04261493823330863,0.142146725894494]",4.0,"[0.15471934745520555,-0.07722891662670128]",100.0,"[-0.06650430620554626,0.1766865761663437]",4.0,"[-0.12244001330251342,-0.08554335748132491]",100.0,"[0.002885372516223188,-0.12113147446173052]",100.0,"[0.02,0.02]",122.4336,0.0,16.0,16.0,76.0,1.0,,,,,,,
,,,,,,,663e222c34bca8dd891321ce,684429139d61b53eeae0ac3c,2025-06-07_14h00.15.607,shape_ratio,2024.1.5,Win32,59.17159763,684250e4f00cb30b92d1fa88,,,,,,,,,,,122.4356,122.9287,,,123.17,123.4917,right,,,,,,,,0.6,0.2406,,,,,,,122.9289,123.17,123.4927,"[-0.15955490632665317,0.011904546070556667]",100.0,"[0.13206313463639394,0.012943371264743774]",100.0,"[-0.07366533740028904,0.07098882216591275]",4.0,"[0.07514665247629242,0.12193337695007887]",100.0,"[0.10266876487909105,-0.13054018792468539]",4.0,"[0.025213915268398324,-0.009357378095147756]",100.0,"[-0.11963837939756426,0.15085704660343321]",100.0,"[-0.03670236433525696,0.03690740629567386]",100.0,"[0.03011160898393165,-0.12838769312598447]",4.0,"[-0.036546084127914935,-0.055283646258634335]",100.0,"[0.0360416909652501,0.14031963544314985]",100.0,"[0.022447560946507513,0.04860582268206447]",100.0,"[0.17629279589894295,-0.07676330020921884]",4.0,"[-0.07857391128080772,0.012007149434328773]",4.0,"[-0.1573882175848931,0.11604362633377782]",4.0,"[-0.034715584616111655,0.18407262282641534]",100.0,"[-0.09957575019526242,-0.056480305840092684]",100.0,"[-0.007877234555810296,0.10906109187838249]",4.0,"[0.05591712795870267,0.18775220079720792]",100.0,"[-0.18717655644851047,-0.03725420812619931]",100.0,"[-0.15677740409691096,-0.06830339379298077]",100.0,"[0.014604795522060331,-0.08469687647694613]",4.0,"[-0.042272898027780406,-0.18112700113819635]",100.0,"[-0.0118168858968005,-0.11686897367307869]",4.0,"[0.17334518930907689,0.0073506966812160145]",4.0,"[-0.13827324616951578,0.0704305390938095]",100.0,"[0.147730425247894,-0.0400237591272642]",4.0,"[0.11228055762400577,0.14218775068914008]",100.0,"[0.09601912510980751,0.07629583297234772]",100.0,"[-0.10613312578318776,-0.10073799627630667]",4.0,"[0.05664764006838421,-0.08762813530658334]",4.0,"[-0.08856162903958041,0.12101600882411902]",100.0,"[0.02,0.02]",124.583,0.0,17.0,17.0,36.0,1.0,,,,,,,
,,,,,,,663e222c34bca8dd891321ce,684429139d61b53eeae0ac3c,2025-06-07_14h00.15.607,shape_ratio,2024.1.5,Win32,59.17159763,684250e4f00cb30b92d1fa88,,,,,,,,,,,124.5864,125.0824,,,125.3245,125.6478,right,,,,,,,,0.4,0.2989,,,,,,,125.0825,125.3245,125.648,"[-0.0019158900691573157,-0.19634880308962324]",4.0,"[0.09729119320087405,-0.1705807667905451]",4.0,"[-0.005283767626124233,-0.025237035802768478]",4.0,"[-0.13795989249926874,-0.09507308341967431]",4.0,"[0.030093233401616046,-0.15406131678158255]",4.0,"[-0.18408951082608385,0.033131386105118434]",100.0,"[0.10869198919561125,0.16781765225177944]",100.0,"[-0.004001203356413983,0.031172569054935297]",100.0,"[0.10557262466295188,-0.06919787959571226]",4.0,"[-0.09068476546309762,-0.1741602229884772]",100.0,"[-0.025993079286986923,0.13647800924179476]",100.0,"[0.07437179620014377,0.03200071087685668]",100.0,"[-0.1030880685561338,-0.12701811942516242]",4.0,"[-0.07873543805763092,-0.016783124697257137]",4.0,"[0.06186837280717752,0.12711573097098508]",4.0,"[-0.1289498988215214,0.024536204802398993]",4.0,"[-0.0424980672282634,-0.18193804070914835]",4.0,"[0.14430531161806506,0.08719516575781922]",4.0,"[0.08969891957280826,0.07762608458188923]",4.0,"[0.053556412208415165,-0.06405835238220414]",100.0,"[-0.10156956343594875,0.09635244412905726]",4.0,"[0.16336534624476243,-0.04353206531633955]",100.0,"[-0.14447713509905558,-0.13551547064963623]",4.0,"[-0.029349950561550084,0.07734492475749451]",4.0,"[0.16100640133491745,0.030122779034178683]",4.0,"[0.11873521541095738,0.03251330875921898]",100.0,"[0.041057999759904026,0.19486813654543986]",100.0,"[-0.05776856822673819,-0.06696905755443767]",100.0,"[-0.03031624951481006,-0.13910662473188792]",100.0,"[-0.03719320555562531,0.1942971929922478]",100.0,"[-0.08194391411263295,0.17012986899997928]",4.0,"[0.18679453587664877,-0.01015137508759624]",4.0,"[0.02,0.02]",126.7419,0.0,18.0,18.0,152.0,1.0,,,,,,,
,,,,,,,663e222c34bca8dd891321ce,684429139d61b53eeae0ac3c,2025-06-07_14h00.15.607,shape_ratio,2024.1.5,Win32,59.17159763,684250e4f00cb30b92d1fa88,,,,,,,,,,,126.7427,127.2441,,,127.5011,127.8405,left,,,,,,,,0.9,0.3199,,,,,,,127.2441,127.5011,127.8406,"[-0.016275150308458483,-0.16953202054222938]",100.0,"[0.15025715108405796,0.10798389145671462]",100.0,"[-0.015491999253239302,0.09543676309940433]",100.0,"[-0.02674787515361078,-0.07743154914387289]",4.0,"[-0.04713821556688674,0.04326028322069911]",100.0,"[0.1843907081591683,0.004124650784442744]",100.0,"[0.021744353276206656,-0.11653131742081803]",100.0,"[-0.12575850091174864,-0.04129641286421182]",100.0,"[0.10211649698128918,-0.06659679731642947]",100.0,"[0.14714645620658456,-0.05393095866053794]",100.0,"[-0.10720871605098344,0.06290952476415447]",100.0,"[0.06684352516577166,0.1671143465279913]",100.0,"[0.06891238333782237,-0.14256309756520932]",100.0,"[0.07075197856048496,-0.10053614461278126]",100.0,"[-0.0996470735214629,-0.08786982176241696]",100.0,"[-0.04666798900903775,-0.1400133001288015]",100.0,"[0.05252758473874858,0.11145113920675549]",100.0,"[0.11251901953800779,0.01209294151944293]",100.0,"[0.14422936182151377,-0.12997212685363324]",100.0,"[-0.12384959787914239,0.1527103858735045]",100.0,"[-0.13875964170568503,-0.0031717744506563478]",100.0,"[-0.1449318217365326,0.041014877020359476]",4.0,"[-0.18390823223028113,-0.058730373244613804]",100.0,"[0.0825272475324912,-0.02348192096499374]",100.0,"[-0.06361469348978262,0.11105309974401613]",100.0,"[-0.10495118466781526,-0.13917181035326304]",100.0,"[0.02216784069383655,0.01147894646085836]",100.0,"[-0.08010734420266702,0.0047171049065676506]",4.0,"[0.07539668467643645,0.0603710696932969]",100.0,"[-0.006732254794215775,0.14871597394928596]",100.0,"[0.03703552157837337,0.1961409428554678]",100.0,"[-0.023303148980469625,-0.018124262545871257]",100.0,"[0.02,0.02]",128.9341,0.0,19.0,19.0,25.0,1.0,,,,,,,
,,,,,,,663e222c34bca8dd891321ce,684429139d61b53eeae0ac3c,2025-06-07_14h00.15.607,shape_ratio,2024.1.5,Win32,59.17159763,684250e4f00cb30b92d1fa88,,,,,,,,,,,128.935,129.4351,,,129.6993,130.0223,right,,,,,,,,0.9,0.3055,,,,,,,129.4352,129.6992,130.0225,"[0.18595422932060304,0.038056857808777975]",100.0,"[-0.11217080363727874,0.05843285366431831]",100.0,"[0.14459083110517412,-0.057710373547961456]",100.0,"[0.1290660511819526,-0.122447820006237]",100.0,"[0.07800093233486202,-0.13542184370278174]",100.0,"[-0.051821697550330816,0.07953800606412868]",100.0,"[-0.1819039702852299,0.029695775004098996]",100.0,"[0.007775781383287411,-0.060401742740077306]",100.0,"[-0.07413527605764897,-0.010492479490789986]",100.0,"[-0.178023416118472,0.07245604804913536]",100.0,"[0.07507824335719418,0.10040279245227487]",100.0,"[-0.11450141205802536,-0.11788153880592589]",100.0,"[0.03916781668733196,-0.11360642643904778]",100.0,"[-0.0845016508377492,0.12644268045701013]",100.0,"[0.09912823759001474,-0.08938949838780269]",100.0,"[0.06352654991879252,-0.18333816153305338]",100.0,"[-0.046893400630995466,-0.10199703517592218]",100.0,"[-0.06532570048811874,-0.14933875566209853]",4.0,"[0.1292492508522899,0.008281898326360596]",100.0,"[-0.1483069823744508,0.10644452063984211]",100.0,"[-0.023400074202964413,0.12500067993158506]",4.0,"[0.058384045015425275,-0.050062031711658024]",100.0,"[0.07089630174608638,0.16907639496069626]",100.0,"[0.08115086718804215,-0.007523674385498124]",100.0,"[-0.16253036843042262,-0.08530456440210761]",100.0,"[0.19646098746037088,-0.0020721652613109915]",100.0,"[0.016969560474250238,0.01814465226989088]",100.0,"[0.11818867915563175,0.11039404650757802]",100.0,"[-0.05146611106256386,-0.047505088050474674]",100.0,"[-0.024019817869510993,0.195625173116778]",4.0,"[0.01295690331661834,0.07464806242294668]",100.0,"[0.014413998051719395,-0.1646163295941313]",100.0,"[0.02,0.02]",131.1219,0.0,20.0,20.0,28.0,1.0,,,,,,,
,,,,,,,663e222c34bca8dd891321ce,684429139d61b53eeae0ac3c,2025-06-07_14h00.15.607,shape_ratio,2024.1.5,Win32,59.17159763,684250e4f00cb30b92d1fa88,,,,,,,,,,,131.1239,131.6275,,,131.8696,132.2786,right,,,,,,,,0.1,0.3754,,,,,,,131.6277,131.8696,132.2787,"[0.15195607429926267,0.10733149184771475]",4.0,"[-0.11007972369056677,-0.024367640733337536]",4.0,"[-0.15820769050612757,-0.10875454525330787]",4.0,"[-0.09862835541171598,0.08349956257578144]",4.0,"[-0.07227068683982002,0.16636104666683624]",4.0,"[0.007936529448912212,0.15201103369164165]",4.0,"[0.019991578898326638,-0.1339182771747931]",4.0,"[-0.1748111093498489,0.05492044369530007]",4.0,"[-0.12636650549322045,0.051400041133402304]",4.0,"[-0.09577157025598128,-0.14753959650474843]",4.0,"[0.1567201368267997,0.0016413264951509715]",4.0,"[0.07750675735188246,-0.06875422695709751]",100.0,"[0.1906428297725495,0.053611713202312]",4.0,"[0.044288376586615864,0.11771791426883803]",4.0,"[-0.09102237449777688,0.014017620716182134]",4.0,"[-0.156578956600438,-0.025396585252299285]",100.0,"[-0.14722942453961146,-0.06673611381074553]",4.0,"[-0.020210178873516706,0.11973553888403682]",4.0,"[0.0528420446248571,0.043478476356262535]",4.0,"[0.016079516799871497,0.006515199841700402]",4.0,"[-0.04661272867090007,-0.012100678625837524]",4.0,"[0.152308474436302,-0.05696005116707503]",4.0,"[0.10883331593241123,-0.09754848502788024]",4.0,"[-0.0319289589384114,0.08118896269325411]",4.0,"[0.10175296004051294,-0.16909786151741377]",100.0,"[-0.08074838228146967,-0.08512444535788548]",4.0,"[-0.14892145602246062,0.08607530759014738]",4.0,"[0.042682912481431565,-0.03919344397235547]",4.0,"[0.012127372961044672,-0.06521086426885413]",4.0,"[-0.0018386264784103442,-0.1766559169120878]",4.0,"[-0.11219894515599439,0.15296848280146239]",4.0,"[-0.033947255913842955,-0.06547579148785584]",4.0,"[0.02,0.02]",133.3665,0.0,21.0,21.0,196.0,1.0,,,,,,,
,,,,,,,663e222c34bca8dd891321ce,684429139d61b53eeae0ac3c,2025-06-07_14h00.15.607,shape_ratio,2024.1.5,Win32,59.17159763,684250e4f00cb30b92d1fa88,,,,,,,,,,,133.3671,133.8656,,,134.109,134.5683,right,,,,,,,,0.45,0.4334,,,,,,,133.8658,134.1089,134.5683,"[0.14276154412903208,-0.0882075314496296]",4.0,"[-0.18926354529037184,-0.0526352961091613]",100.0,"[0.11768110765586025,0.1206101909923419]",4.0,"[0.006593815868427155,-0.016500656667922317]",4.0,"[-0.04427190142552877,0.14242853894167246]",100.0,"[-0.17272260259235953,0.07048492023816824]",4.0,"[0.07888963293182985,-0.14402247808294746]",4.0,"[0.12445449176248351,0.035357969802134064]",100.0,"[0.0338188552044377,0.13622742116727007]",100.0,"[-0.10424094750306398,-0.12536464512592677]",4.0,"[0.044053031652027806,0.03520282311945584]",100.0,"[0.03141220982239344,-0.1100366348101606]",100.0,"[0.05577540258303802,-0.03051646174633823]",100.0,"[-0.00546391970667657,0.05008056631476806]",4.0,"[-0.066367302180622,0.18226880979706442]",100.0,"[0.0017501900754647785,-0.06716833290903813]",100.0,"[-0.0035869538582088954,-0.16511317222855768]",4.0,"[0.09362845048056506,0.16330030957902564]",100.0,"[-0.14168297290252668,0.12409314159808227]",100.0,"[-0.015870903322819836,0.19153091040607273]",100.0,"[0.1909068338082151,-0.015066968439381863]",4.0,"[-0.1373330070145473,0.013670192712315659]",4.0,"[-0.009434235255267973,0.0992487384752471]",4.0,"[-0.10387050002640333,0.0840230824092475]",4.0,"[-0.13509041088014684,-0.05266610650300925]",4.0,"[-0.0535143594221539,-0.153613108308805]",4.0,"[-0.04434459882999471,-0.004349980848067414]",100.0,"[0.033198810017769136,0.18048457116304917]",4.0,"[0.08018140687124567,0.0932510992758403]",4.0,"[-0.06231982895339279,0.055898976868998904]",4.0,"[0.10189750889399778,-0.036806024607442]",4.0,"[-0.18932695742038355,0.01957562420002109]",100.0,"[0.02,0.02]",135.65,0.0,22.0,22.0,130.0,1.0,,,,,,,
,,,,,,,663e222c34bca8dd891321ce,684429139d61b53eeae0ac3c,2025-06-07_14h00.15.607,shape_ratio,2024.1.5,Win32,59.17159763,684250e4f00cb30b92d1fa88,,,,,,,,,,,135.6523,136.1525,,,136.4012,136.9,left,,,,,,,,0.5,0.4801,,,,,,,136.1527,136.4012,136.9,"[-0.020678156735924005,0.03368939709029251]",4.0,"[0.1438697843467805,0.09293883601031097]",4.0,"[0.01933431930700084,-0.06004135588912476]",100.0,"[0.09016994319969,0.14778514418134803]",4.0,"[-0.07739500309705075,-0.08565732317377338]",4.0,"[-0.14007532812804152,-0.09846324046233496]",4.0,"[0.09609932385561214,-0.08198718370616317]",100.0,"[-0.013632759465662244,-0.01835138786816638]",100.0,"[0.1695914388816751,0.051792809293410326]",100.0,"[-0.018296090387424472,-0.07935931124294014]",4.0,"[-0.06524991898972472,0.028633543887399696]",100.0,"[-0.11045130225996393,0.038499858779235105]",100.0,"[-0.18339285642272363,0.028126380119134733]",4.0,"[0.026113053761647045,0.18426967773355368]",100.0,"[0.06128075989136949,-0.1681819122307793]",100.0,"[0.08999057764447795,0.03776773588330699]",4.0,"[0.010496997091788909,0.07981145290179367]",100.0,"[0.1348263508840912,-0.024095239276698675]",100.0,"[0.16944775482182614,-0.06747485580955967]",4.0,"[-0.07408761751365066,-0.17381057213432913]",100.0,"[0.09144555660901316,0.10753726761174369]",4.0,"[-0.16762396827491538,0.10882317973501802]",100.0,"[0.059060355007023196,-0.042515687982753854]",4.0,"[-0.04521882813844325,0.10970907254079182]",4.0,"[-0.16940918504422367,-0.06456792696316312]",4.0,"[-0.11911815993350763,-0.009144745240408418]",100.0,"[0.012138388268073274,-0.19870448731013401]",100.0,"[0.05541391764490305,0.07669497840299427]",4.0,"[0.09812269607290922,-0.12422408600479597]",100.0,"[-0.021157026175969436,0.17079875630936997]",4.0,"[0.04588260892525246,0.12432501298673615]",4.0,"[-0.08714696890861945,0.08200637479296022]",100.0,"[0.02,0.02]",138.0051,0.0,23.0,23.0,96.0,1.0,,,,,,,
,,,,,,,663e222c34bca8dd891321ce,684429139d61b53eeae0ac3c,2025-06-07_14h00.15.607,shape_ratio,2024.1.5,Win32,59.17159763,684250e4f00cb30b92d1fa88,,,,,,,,,,,138.0077,138.5006,,,138.7342,139.0737,right,,,,,,,,0.5,0.322,,,,,,,138.5008,138.7341,139.0738,"[-0.022555578130912197,-0.12365968901034556]",100.0,"[-0.02658548766939011,-0.06064203732787081]",100.0,"[0.044659776014593276,0.14101108033114856]",4.0,"[0.10040959995098964,0.14226666334625485]",4.0,"[-0.007152424495511379,0.06186354049626736]",4.0,"[-0.16536846521852516,-0.02109331218887491]",100.0,"[0.16554468930353874,-0.011647762100940992]",100.0,"[0.09578748088002227,-0.014610928279929618]",4.0,"[0.1745393115391224,0.09549064604261184]",100.0,"[-0.012550481758808699,0.17311057075015598]",100.0,"[-0.12082650059553085,-0.04422953049699245]",100.0,"[-0.06751603320677725,0.11538850933948053]",4.0,"[-0.13873402476413263,0.12376329978573428]",4.0,"[0.1130061480664225,0.05814909064288748]",4.0,"[0.14352516018852798,-0.13166714677307315]",4.0,"[0.05636893511667996,-0.06295488331746582]",100.0,"[-0.07829239034604987,0.061145988294995735]",4.0,"[-0.11841344874096743,0.0015851990493892293]",4.0,"[-0.023397485427926138,0.11664792283302852]",100.0,"[0.00028687229240534644,0.013965154194805249]",100.0,"[-0.07034972169701183,-0.04199200748151243]",100.0,"[-0.13588885923794597,-0.1366808150379634]",100.0,"[-0.07390556918822662,0.16462890427717097]",4.0,"[0.08835982074911568,-0.17758861660355357]",4.0,"[-0.14615095755850369,0.04520071180720539]",100.0,"[0.1410272186416611,-0.0812895036872624]",100.0,"[-0.05772214012199136,0.02475186543256425]",4.0,"[0.07105633832564827,0.08425727128414706]",4.0,"[0.16291649284014256,0.04349166590105421]",4.0,"[0.057080318382641236,0.04513178960771923]",100.0,"[-0.04303484382158864,-0.1914614466268978]",4.0,"[-0.12683889276053434,0.08443184557976606]",100.0,"[0.02,0.02]",140.1676,0.0,24.0,24.0,94.0,1.0,,,,,,,
,,,,,,,663e222c34bca8dd891321ce,684429139d61b53eeae0ac3c,2025-06-07_14h00.15.607,shape_ratio,2024.1.5,Win32,59.17159763,684250e4f00cb30b92d1fa88,,,,,,,,,,,140.1682,140.6564,,,140.907,141.392,left,,,,,,,,0.5,0.4578,,,,,,,140.6566,140.9069,141.392,"[0.0350244615444807,-0.16839590143197805]",100.0,"[-0.09188512285401573,-0.009103787324926395]",100.0,"[0.1252378766438503,0.0852416752136952]",4.0,"[0.16209895574345268,0.06545645389766025]",100.0,"[-0.10021613368477425,-0.09471618239804294]",4.0,"[-0.05018622148529429,-0.18254157164741308]",100.0,"[-0.12835582144321997,-0.03966663764707649]",100.0,"[0.003934169990425529,-0.13760476885319495]",4.0,"[0.036506313892526086,0.17332452618445096]",4.0,"[0.0867860700702724,0.17725555613547753]",4.0,"[0.07078099448568062,-0.038575694286025135]",4.0,"[0.0027955224681118847,-0.06117824548391336]",100.0,"[-0.15471059534997597,0.08317357638058394]",4.0,"[-0.18012907775267908,-0.003749606615891119]",4.0,"[0.05203042801050623,0.03714338436759039]",100.0,"[0.10639575906104476,-0.12582827902895868]",100.0,"[0.05114857843031067,0.08010182765903318]",100.0,"[0.12668510949083986,-0.07786706238068926]",4.0,"[0.1938140908973912,-0.03222901266680741]",100.0,"[0.1427301793297112,-0.004356309187842782]",100.0,"[-0.01367405318363793,0.08887075330832747]",100.0,"[0.05211642770784777,-0.10570891215241945]",4.0,"[0.012397310429119767,-0.006007969060862936]",4.0,"[-0.09004076425077986,-0.1596893904870479]",4.0,"[-0.07473013344241111,0.1275838750214792]",4.0,"[-0.09367551788810521,0.0627021260837164]",4.0,"[0.08544419606892263,-0.07854681438717935]",100.0,"[-0.05310382715184784,0.06464785912307897]",100.0,"[-0.1393327756663041,-0.11096876774605292]",100.0,"[0.013527068240730088,0.12218519656079933]",4.0,"[-0.03375773960409502,0.17997041285017285]",100.0,"[0.1731642278885635,-0.08249465724501662]",4.0,"[0.02,0.02]",142.487,0.0,25.0,25.0,113.0,1.0,,,,,,,
,,,,,,,663e222c34bca8dd891321ce,684429139d61b53eeae0ac3c,2025-06-07_14h00.15.607,shape_ratio,2024.1.5,Win32,59.17159763,684250e4f00cb30b92d1fa88,,,,,,,,,,,142.4893,142.9893,,,143.2332,143.5599,left,,,,,,,,0.9,0.3083,,,,,,,142.9894,143.2332,143.56,"[0.05137100594976621,0.05985741034740292]",100.0,"[0.009876064586702177,0.08801435237308698]",100.0,"[-0.06255074260450073,-0.1790660854692877]",100.0,"[-0.18840094821587203,-0.012548217558016547]",100.0,"[-0.07119024001006764,-0.015294369084459298]",100.0,"[0.17347683430719432,0.07655373700476842]",100.0,"[-0.013815634282325,0.1532079771327067]",100.0,"[0.00809438566681387,0.024625690968231632]",100.0,"[-0.11513193335449097,0.08996883383224494]",100.0,"[0.06856351465386097,-0.15989515427428372]",100.0,"[0.04037209833735854,-0.04421185980255394]",100.0,"[0.09770759582814836,-0.04797359260426995]",100.0,"[0.15289991577486378,0.02867709448196289]",100.0,"[-0.030496821924189867,0.11595667131855891]",4.0,"[-0.138395277622017,-0.1135029163787097]",100.0,"[-0.0924370039310613,0.1434345667098031]",4.0,"[0.10265717122445472,0.014581965615976593]",100.0,"[-0.1581613338370496,0.051779460219043595]",100.0,"[-0.04737559394898575,-0.11079849322005743]",100.0,"[0.11489144564075997,0.12665850646921856]",100.0,"[0.1938413311989366,0.007887115540417761]",100.0,"[-0.11536019734447306,-0.040374567086676055]",4.0,"[-0.12716147814165385,0.004116497913620433]",100.0,"[-0.01629072167233846,-0.05185810751960903]",100.0,"[0.1589027439681398,-0.03243489886507582]",100.0,"[0.0649488703302492,0.1846095094205079]",100.0,"[-0.0180145385477563,0.05549416176185828]",100.0,"[0.026335015070797926,0.1730094672568676]",100.0,"[-0.045639307195863295,0.18477019689139765]",100.0,"[-0.07781232830689398,0.04680820681739137]",100.0,"[0.027257331702039245,-0.13315444048443237]",100.0,"[0.09883395306564906,0.08665109625606873]",100.0,"[0.02,0.02]",144.6577,0.0,26.0,26.0,5.0,1.0,,,,,,,
,,,,,,,663e222c34bca8dd891321ce,684429139d61b53eeae0ac3c,2025-06-07_14h00.15.607,shape_ratio,2024.1.5,Win32,59.17159763,684250e4f00cb30b92d1fa88,,,,,,,,,,,144.6584,145.1513,,,145.3928,145.6844,right,,,,,,,,0.55,0.2665,,,,,,,145.1514,145.3928,145.6845,"[-0.07688539312374029,0.015536014237369875]",100.0,"[0.054590512635466645,-0.06137453178544404]",4.0,"[-0.009335210492588595,-0.012593509350833821]",100.0,"[-0.1684481854482497,0.08050475456327737]",100.0,"[-0.11350532114531527,-0.12581998929292956]",100.0,"[0.031145059665050864,0.01781568012673602]",100.0,"[-0.08571202629138366,0.14482518116785548]",4.0,"[-0.0173630627900177,0.16661554684358734]",100.0,"[-0.0012944263043256025,-0.1966945076937331]",4.0,"[0.1501110074168959,0.1232901267652214]",100.0,"[0.022648690022594415,0.0622113915779095]",100.0,"[0.06278109897980484,-0.12304892753430441]",100.0,"[-0.013579812382395008,-0.13466459524153218]",100.0,"[0.12302165148587159,-0.06286781225375829]",100.0,"[0.06624041456501695,-0.18262750923576965]",100.0,"[0.01831089099772624,0.13592673051557772]",100.0,"[-0.12533314052788247,-0.031236319333875853]",4.0,"[-0.1864292713471994,-0.0696478949949983]",4.0,"[0.10419931440159597,0.061977267288036604]",4.0,"[-0.03295277724875419,0.04425928796516897]",100.0,"[0.16636873902028906,-0.01427195001453473]",4.0,"[-0.0483832519443711,0.12160190409671344]",4.0,"[0.17741184467995952,0.07758986392729213]",4.0,"[0.008263086185059443,-0.049592237447851795]",100.0,"[-0.13303045260305355,0.014789678451793695]",4.0,"[-0.076953199209044,0.08778153856503863]",100.0,"[-0.05971610250145796,-0.13278478797057142]",4.0,"[0.047731507273111505,0.09468572502906517]",4.0,"[-0.04907281022945878,-0.017524307496705957]",100.0,"[0.11353593473225909,-0.1071100277003887]",100.0,"[0.05805838080427806,0.19061129055595874]",4.0,"[0.14132893056015544,-0.1397136703061999]",4.0,"[0.02,0.02]",146.7688,0.0,27.0,27.0,63.0,1.0,,,,,,,
,,,,,,,663e222c34bca8dd891321ce,684429139d61b53eeae0ac3c,2025-06-07_14h00.15.607,shape_ratio,2024.1.5,Win32,59.17159763,684250e4f00cb30b92d1fa88,,,,,,,,,,,146.77,147.2517,,,147.4938,147.9735,left,,,,,,,,0.9,0.464,,,,,,,147.2519,147.4938,147.974,"[-0.0727268965714468,-0.03837377868735318]",100.0,"[-0.14664251699635358,0.09782392841935723]",100.0,"[0.14891156523089977,-0.12350607215032001]",4.0,"[-0.1518816718650077,-0.12582703426726516]",100.0,"[-0.09165146774720283,0.06254447340463955]",100.0,"[0.006005616352614775,-0.18336953751773602]",100.0,"[0.1453776329115616,-0.025006100247712073]",100.0,"[-0.12441177067988887,-0.055529262609313616]",100.0,"[-0.16899788615477737,0.019492304502463854]",100.0,"[0.1291029292517472,0.02907342260383628]",100.0,"[0.06403967136121133,0.006795458070040668]",100.0,"[-0.08507408753777199,0.14130530163650884]",100.0,"[0.03705872364654298,0.10530517457741802]",100.0,"[0.07183379099482241,-0.04202768338469075]",100.0,"[-0.09738793814361488,-0.12729534306669701]",100.0,"[-0.07265647257124254,-0.08220499747702144]",100.0,"[-0.012020066485302735,-0.08725441929397872]",100.0,"[-0.03053730371403005,0.024379014306276533]",100.0,"[0.087889251326763,0.14363734737592834]",100.0,"[-0.07817535852301193,0.011487598879391691]",100.0,"[0.04861967584338629,0.18112015218900848]",100.0,"[0.10483654192593728,0.07246323224097884]",100.0,"[0.1129427917800159,-0.07003754127189905]",4.0,"[0.05697198636791512,-0.10339914683158176]",100.0,"[0.05916616949117468,-0.15476392135826156]",100.0,"[0.16795548094009852,0.045318461271628085]",100.0,"[0.007774942065316245,0.0481201281798359]",100.0,"[0.17924724406488218,-0.07794648610058609]",100.0,"[-0.06885847739115453,-0.1783889880931189]",4.0,"[-0.039566172883960304,0.0973013861024695]",100.0,"[0.17757944389911795,0.004028749840018706]",100.0,"[-0.17646052047186112,-0.048234739770224196]",100.0,"[0.02,0.02]",149.0719,0.0,28.0,28.0,11.0,1.0,,,,,,,
,,,,,,,663e222c34bca8dd891321ce,684429139d61b53eeae0ac3c,2025-06-07_14h00.15.607,shape_ratio,2024.1.5,Win32,59.17159763,684250e4f00cb30b92d1fa88,,,,,,,,,,,149.0745,149.5671,,,149.8022,150.2048,left,,,,,,,,0.9,0.3833,,,,,,,149.5671,149.8022,150.205,"[-0.08717143321115697,0.1695566265375421]",100.0,"[0.02767831701565587,-0.043687509370228285]",100.0,"[0.003971275347562797,0.06012986405195393]",100.0,"[0.10241068412728795,-0.09890267826872279]",100.0,"[0.06329708651101504,0.015489538928240544]",100.0,"[-0.03271566243096496,0.1608406861647252]",100.0,"[0.11019163661454567,-0.0244284609745331]",100.0,"[-0.08621813793161479,0.03407268636122679]",100.0,"[0.16002209962451547,-0.02448364811614316]",100.0,"[-0.13476655903841364,0.03467532128274528]",100.0,"[0.15655938175370357,-0.06515695681744235]",100.0,"[0.0686061692282504,0.10750887352065987]",4.0,"[0.04186853310197633,-0.18084307147155884]",4.0,"[-0.09801389859969382,-0.10656638367031435]",100.0,"[-0.027896845888650462,-0.020305059849265523]",100.0,"[0.06970315775780471,-0.12351722642117129]",100.0,"[-0.17668675872397438,0.05125040830825722]",100.0,"[-0.17779363730289127,-0.06110089441404338]",100.0,"[0.0885364586587761,0.060675517872417914]",100.0,"[-0.0027051980964043344,-0.1522045318965513]",4.0,"[0.09681776727420117,0.16832172109251337]",100.0,"[0.031635760186475195,0.09011745920432432]",100.0,"[-0.07657849624052507,0.11971838394483454]",100.0,"[0.023499308180382483,0.16082595406618075]",100.0,"[-0.08507486828565253,-0.16680485679104465]",100.0,"[-0.18898309037656458,-0.0016307995855435772]",100.0,"[0.16486479155144543,0.08342432922787096]",100.0,"[-0.13678192545652088,-0.04339125614532926]",100.0,"[0.06873818773069838,-0.02668854162182801]",100.0,"[0.0021530911160245925,-0.08373783461055777]",100.0,"[-0.057314066276783475,-0.12124667804857071]",100.0,"[-0.12698858199918178,0.14196654358209237]",100.0,"[0.02,0.02]",151.3181,0.0,29.0,29.0,13.0,1.0,,,,,,,
,,,,,,,663e222c34bca8dd891321ce,684429139d61b53eeae0ac3c,2025-06-07_14h00.15.607,shape_ratio,2024.1.5,Win32,59.17159763,684250e4f00cb30b92d1fa88,,,,,,,,,,,151.3189,151.8104,,,152.0517,152.3866,left,,,,,,,,0.45,0.3169,,,,,,,151.8108,152.0516,152.3867,"[0.03265317100959577,-0.058334952615058555]",4.0,"[0.0629457463956788,-0.029402819190894273]",4.0,"[-0.16353800386132503,0.014557615031578272]",100.0,"[-0.11664868331869897,0.10367406447319248]",4.0,"[-0.08846244734172505,-0.03929572267701519]",100.0,"[0.034201402468186565,-0.15993357449355203]",4.0,"[-0.040666092781246964,0.13337778538521278]",100.0,"[-0.10159855150491853,0.05799118047846677]",100.0,"[0.16897643032609558,-0.06082356733133486]",4.0,"[-0.164495626181538,-0.07337169444134388]",4.0,"[-0.0872815515535307,-0.13912046526169705]",4.0,"[-0.05796925648574898,-0.0902381813694669]",4.0,"[0.034500247974923695,0.08032372643096775]",4.0,"[0.18692810028067297,0.0020158192804284277]",100.0,"[0.1952988199729248,0.04215078638866005]",4.0,"[-0.06912272920887577,-0.1802142393785497]",4.0,"[-0.07530321507487539,0.014447407493387751]",4.0,"[-0.035373728546089,-0.008344025258082357]",100.0,"[0.059299576500597,0.15862264059096387]",100.0,"[0.022341491684710998,-0.01626406002302812]",100.0,"[0.13010541765101108,0.0894278886235694]",100.0,"[0.10851952898779665,0.02687680815372336]",4.0,"[-0.05190554785127256,0.06161098776261755]",100.0,"[0.08054927593316423,-0.13055799939345314]",4.0,"[0.12340473346859375,0.14354600897308803]",100.0,"[-0.06104770679845484,0.17524280343156506]",100.0,"[0.06805205395323204,0.10755432547768161]",4.0,"[-0.007968005402689066,-0.15138019866059937]",4.0,"[-0.02002365027433999,-0.06788578733850499]",100.0,"[0.1073745386400547,-0.025749883599855257]",100.0,"[-0.183974662732395,-0.02284664282766785]",4.0,"[0.08787608222002694,0.07274738283087451]",4.0,"[0.02,0.02]",153.486,0.0,30.0,30.0,131.0,1.0,,,,,,,
,,,,,,,663e222c34bca8dd891321ce,684429139d61b53eeae0ac3c,2025-06-07_14h00.15.607,shape_ratio,2024.1.5,Win32,59.17159763,684250e4f00cb30b92d1fa88,,,,,,,,,,,153.4889,153.9883,,,154.2335,154.4311,right,,,,,,,,0.6,0.1626,,,,,,,153.9883,154.2333,154.4312,"[0.00597757667103488,-0.12071513301031415]",4.0,"[-0.051193963401771396,-0.1925210084014538]",100.0,"[-0.0028339137126723556,-0.18167457013372407]",100.0,"[-0.1605635045589838,-0.06717542730713223]",4.0,"[-0.05962480562463056,-0.06110099306310893]",100.0,"[0.12830124348127367,-0.04284807657748189]",100.0,"[0.08376279840441186,-0.07511348757017405]",100.0,"[-0.1631377552458781,0.0013655061350532263]",4.0,"[-0.09574621038636233,0.027640431905715617]",100.0,"[0.12298354756684626,0.1411164935862082]",100.0,"[0.13036181535925112,0.08423488954170676]",100.0,"[-0.02561310765821666,0.043723991390821906]",100.0,"[-0.09991941548773164,-0.04794039914405505]",100.0,"[0.061681492085587195,-0.1520231915628317]",100.0,"[-0.1394143022091331,-0.1142016594739391]",4.0,"[-0.1108761582442532,0.0984470102132119]",4.0,"[-0.03975344979841419,0.17414245442953116]",100.0,"[-0.005770632073672142,0.0981258281679344]",4.0,"[0.09350653178978828,0.035733940244214044]",4.0,"[0.0790864787153322,0.17707233867889338]",100.0,"[0.022244336663720696,0.03600905179614607]",100.0,"[0.14315243813594078,0.011825811546422902]",4.0,"[-0.05537485624748343,-0.13395943581747927]",4.0,"[0.1647503413107821,0.04793083162065676]",100.0,"[0.015204360608358265,-0.05060734218141334]",4.0,"[0.07488347156973207,0.10271958503389234]",4.0,"[0.13225709784591858,-0.09367560771320735]",100.0,"[-0.17614300872496702,0.06322739857698481]",100.0,"[-0.08112535164028024,0.12559490150373176]",4.0,"[-0.030223894264925794,0.1311457279463562]",4.0,"[-0.09589770789231257,-0.09099292810866637]",100.0,"[-0.021059411433934,-0.013446684354795272]",100.0,"[0.02,0.02]",155.5343,0.0,31.0,31.0,49.0,1.0,,,,,,,
,,,,,,,663e222c34bca8dd891321ce,684429139d61b53eeae0ac3c,2025-06-07_14h00.15.607,shape_ratio,2024.1.5,Win32,59.17159763,684250e4f00cb30b92d1fa88,,,,,,,,,,,155.5348,156.0357,,,156.2868,156.6731,right,,,,,,,,0.4,0.3547,,,,,,,156.036,156.2867,156.6731,"[-0.14615975687712074,0.06405356362067718]",4.0,"[0.16334835251791716,0.06360888284687513]",100.0,"[-0.17494741038673287,0.09327129731385546]",4.0,"[-0.16300183173731173,0.009272423278675593]",100.0,"[-0.1400638405386708,-0.028568319734060186]",4.0,"[-0.17562506914177078,-0.0894490399161767]",4.0,"[0.003628733894237313,0.0741883487744229]",4.0,"[0.03936385169607532,0.02552264570934686]",100.0,"[0.12154215055670432,0.12032720350915127]",100.0,"[0.060162629565826554,0.08381935474824584]",4.0,"[-0.13389938063899434,-0.10392425511378373]",100.0,"[-0.05171674600537561,-0.022867246227487613]",100.0,"[0.025115936061809375,-0.0998276484597741]",100.0,"[0.0895630683409734,0.04285269168169234]",4.0,"[0.1262059672385767,-0.04989997907402002]",100.0,"[-0.10762656506874972,-0.06238723492483064]",4.0,"[-0.07384156717986812,0.04982486010193395]",4.0,"[0.07770079620938747,-0.02620230620504405]",100.0,"[-0.030062243617054205,-0.14652336134549743]",100.0,"[-0.02159934235209574,-0.05128638130937473]",100.0,"[0.04216288056550534,-0.15294573851792678]",4.0,"[0.1567811253577568,-0.11952360210543127]",4.0,"[0.049443971490019785,0.131846757247046]",4.0,"[-0.10716998293833663,0.003124157514260436]",100.0,"[-0.12123060012772154,0.12516930277220742]",100.0,"[-0.09063228495234911,-0.16988589353985556]",4.0,"[0.17229093464076128,-0.018605524005878223]",4.0,"[0.046502660993078884,-0.06088036071037854]",4.0,"[0.05582652235703516,0.1720138748043224]",4.0,"[0.09348597931150145,-0.13063115684642215]",4.0,"[-0.03776583319625977,0.11517799862177233]",4.0,"[0.0024835054677449886,-0.01276603754758911]",4.0,"[0.02,0.02]",157.7697,0.0,32.0,32.0,160.0,1.0,,,,,,,
,,,,,,,663e222c34bca8dd891321ce,684429139d61b53eeae0ac3c,2025-06-07_14h00.15.607,shape_ratio,2024.1.5,Win32,59.17159763,684250e4f00cb30b92d1fa88,,,,,,,,,,,157.7721,158.2738,,,158.5097,158.7739,left,,,,,,,,0.6,0.2373,,,,,,,158.2741,158.5086,158.774,"[0.08169075011628704,-0.06420478717604582]",100.0,"[-0.05545606438982548,-0.012946693824539047]",4.0,"[-0.1962078866435636,-0.01851045670761449]",100.0,"[-0.1029163646452147,-0.09396576942154597]",100.0,"[-0.12306675031980781,0.1468678443206394]",100.0,"[-0.08886387274247534,0.078369322713905]",100.0,"[0.05193270787102938,-0.14612389649835325]",100.0,"[-0.06706654240541056,0.12509646550343778]",100.0,"[-0.1235568455981994,-0.034501817802792975]",100.0,"[-0.0793709929073581,-0.050155092693928406]",4.0,"[0.09053318850525863,0.10003270384517894]",4.0,"[0.1642176601068065,0.09913732087337314]",4.0,"[-0.1765737882364116,0.06495649861446623]",100.0,"[0.029621341379785966,0.1649994752952849]",100.0,"[-0.0598355229762995,-0.11201305521209386]",100.0,"[0.013700801362691237,-0.06791526297742344]",4.0,"[0.11032430940476697,0.020386285708122818]",4.0,"[-0.10295048282441475,-0.15986201978064976]",4.0,"[0.03563678156787951,-0.02682501038741587]",4.0,"[0.06319983797362826,0.005010200807768655]",4.0,"[0.13618387418027844,0.061269589237393285]",100.0,"[0.1319748351163251,-0.05374624152401897]",4.0,"[-0.15476681622914545,0.014750845125721633]",100.0,"[0.12953591996591624,0.14709703109923689]",100.0,"[0.1684246295735191,-0.024851892969637836]",4.0,"[-0.16696943655204782,-0.09885063319647656]",4.0,"[0.0037895749702191554,-0.10835499833516246]",100.0,"[0.057546174701100676,0.0576304574985741]",4.0,"[0.18440872310658635,-0.07614485279986671]",100.0,"[-0.14465713577759956,-0.1324468495848082]",100.0,"[0.009320963257913116,0.05765136024739772]",100.0,"[0.022483589607764743,0.11656670191902167]",100.0,"[0.02,0.02]",159.8692,0.0,33.0,33.0,48.0,1.0,,,,,,,
,,,,,,,663e222c34bca8dd891321ce,684429139d61b53eeae0ac3c,2025-06-07_14h00.15.607,shape_ratio,2024.1.5,Win32,59.17159763,684250e4f00cb30b92d1fa88,,,,,,,,,,,159.8716,160.3606,,,160.5997,160.9237,right,,,,,,,,0.45,0.2871,,,,,,,160.3608,160.5997,160.9238,"[-0.025217521416189454,-0.17527089028623374]",100.0,"[-0.08291919418202617,0.15282868331206223]",4.0,"[0.126711519439851,0.017136343245300556]",100.0,"[0.14373261522746197,0.12102047473764266]",100.0,"[-0.1533907257011982,0.05237973096381271]",4.0,"[0.13321248187408632,-0.10814371774033331]",100.0,"[-0.12538000058815718,-0.01995344346912225]",4.0,"[-0.04419108448232205,0.18756592308470052]",4.0,"[0.07283691025555043,-0.04451417893967197]",4.0,"[0.04462377563211443,0.11516323537119465]",4.0,"[-0.0008326629828221238,0.10406600437042154]",100.0,"[0.06570341298466204,-0.12474258415627537]",4.0,"[-0.09311027924854623,-0.1358274814835979]",4.0,"[-0.19154963267675665,0.025967896173599497]",100.0,"[0.051061925317863056,0.17971369824328254]",4.0,"[0.04521638870058833,0.04629455492953394]",4.0,"[0.10090825262058323,0.1572753379135304]",4.0,"[0.16106769564934906,0.05850387153996817]",4.0,"[-0.08133118846787124,0.020174565127162633]",100.0,"[-0.015374320968169548,-0.09154966273745377]",100.0,"[-0.08882931903230355,0.10375738685905854]",100.0,"[-0.0717400407369107,-0.09658285088392697]",4.0,"[-0.022359634806096068,0.036506012712141066]",4.0,"[0.0012121749765943803,-0.0002947358885994802]",100.0,"[-0.13808889676880987,-0.14179458247472346]",100.0,"[0.08017312302735229,0.07662495869442362]",100.0,"[0.17062639921167175,-0.04586631608376959]",4.0,"[-0.1629715626794583,0.10564974475387957]",4.0,"[0.07840667597493803,-0.0018232545928809137]",100.0,"[-0.17449422589699293,-0.05495576251989797]",4.0,"[-0.05205783306881384,0.08072190033917574]",100.0,"[0.004281647334336022,0.16409347763757295]",4.0,"[0.02,0.02]",162.015,0.0,34.0,34.0,137.0,1.0,,,,,,,
,,,,,,,663e222c34bca8dd891321ce,684429139d61b53eeae0ac3c,2025-06-07_14h00.15.607,shape_ratio,2024.1.5,Win32,59.17159763,684250e4f00cb30b92d1fa88,,,,,,,,,,,162.0176,162.5182,,,162.7624,163.0179,right,,,,,,,,0.6,0.2327,,,,,,,162.5186,162.7623,163.0179,"[0.0862768676273423,0.13038523377919664]",100.0,"[-0.05771107405508666,-0.03157191378154226]",100.0,"[0.09826265388545424,-0.10729890451528311]",4.0,"[0.030697486111539725,-0.0829604797132329]",4.0,"[0.050512922084858046,0.18972497199549043]",100.0,"[0.030931442050824202,-0.1416799754530217]",100.0,"[0.0037616761860977945,0.15914832671623472]",100.0,"[-0.10917310449290576,-0.08880173739083069]",4.0,"[-0.021353894524654898,0.083509399288375]",100.0,"[-0.08532872936268644,-0.15612622330740447]",4.0,"[0.11700045035344302,0.10448400762675841]",100.0,"[0.14320600288489155,-0.024641955647721602]",100.0,"[0.12089029496298466,0.05607871116575208]",4.0,"[0.14292800168642142,-0.10051475079241547]",100.0,"[-0.04880244809081178,0.181633442482522]",100.0,"[0.045578805207498234,0.012894147680038897]",100.0,"[-0.04710152285187875,0.05226236983321117]",4.0,"[-0.11512706582749627,0.09267032522964054]",100.0,"[0.025970950904169038,-0.03138794239814846]",100.0,"[0.1184015431571358,0.15468509232225208]",4.0,"[-0.012757638436961524,-0.048551227479420124]",100.0,"[-0.01527407387378482,0.008647160342293774]",4.0,"[0.07020790881270564,0.08269106828276171]",4.0,"[-0.04414083864570482,-0.18483729811694707]",100.0,"[-0.06052807178677805,-0.0831607161037635]",100.0,"[0.16023273426946877,0.06988016561113713]",4.0,"[0.17794839498745282,0.00798263213114437]",100.0,"[0.19310625337773943,-0.044616006860659085]",4.0,"[0.0822729036244126,-0.15289568928972566]",4.0,"[0.1245506684818773,-0.15092054589820106]",100.0,"[-0.12152090343427806,0.01851338922443386]",100.0,"[-0.0743803388692722,0.018932417087490837]",4.0,"[0.02,0.02]",164.1234,0.0,35.0,35.0,43.0,1.0,,,,,,,
,,,,,,,663e222c34bca8dd891321ce,684429139d61b53eeae0ac3c,2025-06-07_14h00.15.607,shape_ratio,2024.1.5,Win32,59.17159763,684250e4f00cb30b92d1fa88,,,,,,,,,,,164.1238,164.6215,,,164.8498,165.1836,left,,,,,,,,0.9,0.3175,,,,,,,164.6217,164.8498,165.1837,"[0.17830094754930872,-0.057329544409119707]",100.0,"[-0.08231401131425652,-0.11999451891695723]",100.0,"[0.15155367051028543,0.07736026695367026]",100.0,"[-0.0282518465012392,0.09151117152733738]",100.0,"[0.004737738901489737,0.1636095397379511]",100.0,"[0.1122993423130823,0.15953324144775047]",100.0,"[0.08789989549232641,0.10650413450652242]",100.0,"[-0.012565314526590746,-0.10041353494467804]",100.0,"[-0.16049013986532062,0.04215759706706136]",100.0,"[-0.12842390391421876,0.14563601206426627]",100.0,"[0.06580943480875096,-0.009895610750568478]",100.0,"[0.16051427043716712,-0.012727922509220418]",100.0,"[0.059034155479729546,0.18139047918749124]",4.0,"[-0.07062572172834332,-0.039573048680064504]",100.0,"[-0.14136036504854707,-0.028520126690404858]",100.0,"[0.028931690957232126,-0.18777681044121217]",100.0,"[-0.1161024331183216,-0.07965541724159177]",100.0,"[0.020404278802880406,0.04333296737741988]",100.0,"[0.03647493687132144,-0.07443262812996164]",100.0,"[0.03627163958872729,0.13108522622322877]",100.0,"[0.10626912004138384,-0.11604799895413162]",100.0,"[0.07206687109021703,0.06834014744165189]",100.0,"[0.16889511949528002,0.036261688665652714]",100.0,"[-0.03345697909164692,0.024074523019054522]",100.0,"[-0.07613459003323375,-0.17486119860767496]",4.0,"[0.14509531825078836,-0.08046976583155012]",100.0,"[0.06315421554606332,-0.1541558940434368]",100.0,"[-0.03238187978628803,-0.1864359037492454]",100.0,"[-0.11757297530087674,0.09393707269285888]",4.0,"[-0.07446453501495964,0.04788995620014495]",100.0,"[-0.12169518863994055,0.03224205974974631]",100.0,"[0.037190020899021056,-0.11589719202739442]",100.0,"[0.02,0.02]",166.2793,0.0,36.0,36.0,24.0,1.0,,,,,,,
,,,,,,,663e222c34bca8dd891321ce,684429139d61b53eeae0ac3c,2025-06-07_14h00.15.607,shape_ratio,2024.1.5,Win32,59.17159763,684250e4f00cb30b92d1fa88,,,,,,,,,,,166.2798,166.7717,,,167.016,167.3741,left,,,,,,,,0.1,0.3398,,,,,,,166.7722,167.0159,167.3742,"[0.13298634057354128,0.10851153937488178]",100.0,"[-0.0969299638675851,0.02427712110729257]",100.0,"[-0.08081577227569409,-0.10082551295446775]",4.0,"[0.05607171334609355,-0.17769928671209131]",4.0,"[-0.03250678954130864,-0.05313008628587775]",4.0,"[0.017731282762009557,0.12352764902199949]",100.0,"[0.09997099959487425,-0.051483659324959435]",4.0,"[-0.19444894121340034,0.02542044683738731]",4.0,"[-0.1872939280379209,-0.014385610986954718]",4.0,"[0.17759709211856425,-0.017223910837434252]",4.0,"[-0.02670867694706198,-0.1461389102469949]",4.0,"[-0.08825894389801237,0.07905811135696973]",4.0,"[0.021964400375156325,0.18744054380558467]",4.0,"[0.06521150646433571,0.04422316677376877]",4.0,"[0.09543835302754071,0.005940389735486463]",4.0,"[0.004859993396676433,-0.0745886883375611]",4.0,"[0.10839299134832339,0.15019892274198576]",4.0,"[0.12891785966987224,0.05222282320960138]",4.0,"[0.09793397427135572,-0.14760259996431888]",4.0,"[-0.04345434966637059,0.12122297739651564]",4.0,"[-0.10506157565896473,0.12659883636204022]",4.0,"[-0.13708703896576147,0.050790723593724316]",4.0,"[0.05988989074515342,-0.13185167165858477]",4.0,"[0.022319186328652048,0.020435049818375312]",4.0,"[0.15079978376273662,-0.06333459568321453]",4.0,"[0.06454027071099738,-0.07695031528423274]",4.0,"[-0.1095940040983015,-0.1600584906858871]",4.0,"[0.026633626632900177,-0.03497004711408401]",4.0,"[0.01687272057165659,-0.1443967420941322]",4.0,"[-0.07314173197267895,-0.032505271201599927]",4.0,"[-0.03762423113360118,0.029023996867481593]",4.0,"[0.0035406559596892965,0.06478177481657783]",4.0,"[0.02,0.02]",168.4717,0.0,37.0,37.0,181.0,1.0,,,,,,,
,,,,,,,663e222c34bca8dd891321ce,684429139d61b53eeae0ac3c,2025-06-07_14h00.15.607,shape_ratio,2024.1.5,Win32,59.17159763,684250e4f00cb30b92d1fa88,,,,,,,,,,,168.4737,168.9781,,,169.2185,169.4775,right,,,,,,,,0.1,0.2405,,,,,,,168.9782,169.2185,169.4776,"[-0.1266343580124311,0.0392203135692022]",4.0,"[0.09084870705372597,-0.09439578185057337]",4.0,"[-0.05614201141951246,0.17104216246908552]",4.0,"[0.007383575976545262,0.03517106225643594]",4.0,"[0.057477651620898094,0.1802377366845941]",4.0,"[0.14539687073991187,-0.014885069390502128]",4.0,"[0.10693300686481774,0.09630876420852795]",4.0,"[-0.04728536992051735,0.11797924829153397]",4.0,"[-0.037207198180796285,-0.18526632014114996]",4.0,"[0.15899094502498906,0.099159441314351]",4.0,"[-0.1059047564616732,-0.16400503878166134]",4.0,"[0.13074480846377665,0.1308917267711003]",4.0,"[-0.006857200864777582,-0.06740459902008034]",100.0,"[-0.1731813413208801,0.09091894066744628]",4.0,"[-0.13435687522750386,-0.10263092957588822]",4.0,"[0.13932180827733087,0.06167685858659069]",4.0,"[0.10304315626531904,-0.17003118458988123]",4.0,"[-0.04365149730660931,-0.010376096412943367]",4.0,"[0.07406658447460414,0.025306033162734113]",4.0,"[-0.014371527451355224,0.1556348083102784]",100.0,"[-0.10913850912198933,-0.07046187877620118]",4.0,"[0.030648284919552193,-0.1145118615839801]",4.0,"[0.03738911054837877,-0.016488609702237336]",4.0,"[-0.1380664492334501,-0.03297341455757503]",4.0,"[-0.10301735623243849,0.09342184531206368]",4.0,"[0.00792833982731443,-0.17467355869459145]",100.0,"[0.07388753898772993,0.1210831756437231]",4.0,"[-0.04621613009693388,-0.13540738970331434]",4.0,"[0.027257408936099892,0.09060728490692145]",4.0,"[-0.1981169723762635,-0.017394429588344404]",4.0,"[0.16099228645568844,-0.09228191544595739]",4.0,"[0.1934559700170177,-0.020048457349612064]",4.0,"[0.02,0.02]",170.569,0.0,38.0,38.0,208.0,1.0,,,,,,,
,,,,,,,663e222c34bca8dd891321ce,684429139d61b53eeae0ac3c,2025-06-07_14h00.15.607,shape_ratio,2024.1.5,Win32,59.17159763,684250e4f00cb30b92d1fa88,,,,,,,,,,,170.5713,171.0764,,,171.3162,171.6499,right,,,,,,,,0.1,0.3154,,,,,,,171.0764,171.3162,171.65,"[-0.17927165540788528,-0.08408633028628047]",4.0,"[-0.1988643430608621,-0.00276293154450235]",4.0,"[0.07008963512473572,0.16462700254136037]",4.0,"[-0.11553673171237498,-0.1383373126261125]",4.0,"[0.017629918312464708,-0.019738038938339333]",4.0,"[0.049406080421761665,-0.14037138641936617]",4.0,"[-0.1331417868896885,-0.09130431239431987]",4.0,"[0.1582325082670359,0.1071272831804384]",100.0,"[-0.003664299102656636,-0.18795029562845364]",4.0,"[-0.12543177530844468,-0.03572261326455531]",4.0,"[-0.007293801422357666,-0.09374896033925657]",4.0,"[-0.12070057692976748,0.013919507698562292]",4.0,"[-0.06979302405968323,-0.09041678979515934]",4.0,"[0.13447020435804077,0.014778387932203733]",4.0,"[0.09135292564006425,0.12893033350858937]",4.0,"[0.007476087205034512,0.05980467885620418]",4.0,"[-0.06942325073422025,-0.1550698039538476]",4.0,"[0.04339312549820542,0.08128083691527276]",4.0,"[0.13454269371440938,0.0583901467626352]",4.0,"[0.1386820946922349,-0.10253804627993929]",100.0,"[0.08794670296523321,-0.08641111791635722]",4.0,"[-0.08604447635845063,0.11541455841961858]",100.0,"[-0.1616061856991238,0.012235126981853509]",4.0,"[-0.036178309841194294,0.18158174969742766]",4.0,"[-0.017336558538422423,0.10781072322405462]",4.0,"[-0.03909171441072197,0.14146877661254464]",4.0,"[-0.02199335880828767,0.009462432336920628]",4.0,"[0.08127296323152192,0.03401043651919379]",4.0,"[0.031175972147309272,0.13673109309989603]",4.0,"[0.18667085100089859,0.021879399332405874]",4.0,"[0.08370627923460112,-0.014701101224973413]",4.0,"[-0.14658757766653657,0.06186631498598995]",4.0,"[0.02,0.02]",172.7389,0.0,39.0,39.0,190.0,1.0,,,,,,,
,,,,,,,663e222c34bca8dd891321ce,684429139d61b53eeae0ac3c,2025-06-07_14h00.15.607,shape_ratio,2024.1.5,Win32,59.17159763,684250e4f00cb30b92d1fa88,,,,,,,,,,,172.7408,173.231,,,173.4403,173.9003,left,,,,,,,,0.6,0.4406,,,,,,,173.2311,173.4403,173.9004,"[0.09753472508977651,0.0029438918771121357]",100.0,"[-0.03574571872575703,-0.11126929032367867]",100.0,"[0.025010158783120313,0.01010573117442922]",100.0,"[-0.09202949488696577,-0.011172999124577873]",4.0,"[-0.19621900134368495,0.03059668561764297]",4.0,"[0.14445878523344277,0.09245367890066744]",4.0,"[0.07949899827282814,-0.08199101532947657]",100.0,"[-0.022806224250752894,0.18677490605665945]",100.0,"[-0.18041539056256514,-0.08466106217360393]",100.0,"[0.04842492194417859,0.0917279525574391]",4.0,"[-0.13828095694243242,0.09400551241875985]",4.0,"[-0.03245285185545041,0.09831889737858848]",4.0,"[0.10451079679662711,0.07167485662441173]",100.0,"[0.07131371626949011,0.169917202034926]",100.0,"[0.16170196773189005,-0.10651985853349949]",100.0,"[-0.13154013294856282,0.019494554573444255]",100.0,"[0.19389397869905095,0.027106978272471893]",4.0,"[0.03527040567681723,0.1428878380252373]",4.0,"[0.15283481156920173,-0.032743177596319555]",100.0,"[0.0938630283336775,-0.17618588742095714]",100.0,"[-0.09561288819956162,-0.11058454617493135]",100.0,"[-0.15175095509435874,-0.1196142336650333]",4.0,"[-0.11846868745338208,0.151359334575331]",100.0,"[-0.14699613515362756,-0.059047531539603015]",4.0,"[-0.04442203184555515,-0.07018394640487752]",100.0,"[-0.0846905708737309,-0.1583113486222781]",100.0,"[0.10246441997324003,-0.12067637382547249]",100.0,"[0.09651943712402435,0.11902951081220954]",100.0,"[-0.020453606587905574,0.027674791873022294]",4.0,"[-0.19249919397425344,-0.02551453040709242]",4.0,"[0.052564873996673284,-0.019032351195881942]",4.0,"[-0.040785588378380234,-0.024025838435337267]",100.0,"[0.02,0.02]",174.9906,0.0,40.0,40.0,56.0,1.0,,,,,,,
,,,,,,,663e222c34bca8dd891321ce,684429139d61b53eeae0ac3c,2025-06-07_14h00.15.607,shape_ratio,2024.1.5,Win32,59.17159763,684250e4f00cb30b92d1fa88,,,,,,,,,,,174.9931,175.4857,,,175.7373,176.3495,left,,,,,,,,0.55,0.5918,,,,,,,175.4857,175.7373,176.3495,"[0.1858974847108194,0.030944360736452528]",4.0,"[0.13842189830158627,-0.13865575397171914]",100.0,"[-0.02193232729840588,-0.0327990164417682]",100.0,"[0.07981762484496377,-0.00509909971169022]",4.0,"[0.1983219492019787,-0.018761915103533422]",100.0,"[0.12781933006921598,0.08351389676793955]",100.0,"[-0.15484799011398415,0.01639031211703319]",100.0,"[0.04122813524831569,0.12038548623384074]",4.0,"[-0.08485340274248837,0.1731261105183914]",4.0,"[-0.013302721575648734,0.18324235376497666]",100.0,"[-0.05554226752540392,0.0015986967948571748]",100.0,"[-0.10104837629995672,0.12389919460483671]",4.0,"[-0.0870739599535783,-0.1502226590515474]",4.0,"[0.012954099784999725,-0.09601405621109775]",100.0,"[-0.05345048741575335,-0.09488687668155704]",100.0,"[-0.18016291023115721,0.06030440180923537]",100.0,"[0.03736224363178073,0.02376393557847472]",4.0,"[0.10562383828413503,0.0447301689013984]",4.0,"[0.03459472254197059,0.1873034507219979]",100.0,"[0.046029086796401684,-0.13454138783857297]",100.0,"[0.1740888818397442,0.07272181702993977]",4.0,"[0.14373340011593122,-0.07077939349272991]",4.0,"[-0.07693572383383011,0.04321750045314621]",4.0,"[-0.042286397193483045,0.09380264043373458]",100.0,"[-0.08935710581212115,-0.035181991684845974]",100.0,"[-0.14156487345942156,-0.08276031494267305]",4.0,"[0.023756657199491445,-0.18455224115114843]",100.0,"[-0.12755012729057516,0.06606130282005278]",100.0,"[-0.06165053954526058,-0.18324523987254893]",100.0,"[0.10916839201360069,0.16170371035344433]",4.0,"[0.07820685805226986,0.09724189259259242]",100.0,"[-0.021390100847215168,0.1402671117709579]",4.0,"[0.02,0.02]",177.4546,0.0,41.0,41.0,89.0,1.0,,,,,,,
,,,,,,,663e222c34bca8dd891321ce,684429139d61b53eeae0ac3c,2025-06-07_14h00.15.607,shape_ratio,2024.1.5,Win32,59.17159763,684250e4f00cb30b92d1fa88,,,,,,,,,,,177.4571,177.9569,,,178.2043,178.8765,right,,,,,,,,0.45,0.6402,,,,,,,177.9569,178.204,178.8766,"[-0.060911895967846144,-0.1730258811774354]",100.0,"[-0.03452566752764127,-0.03396510085624525]",100.0,"[0.1571185822259171,-0.06313982691979783]",4.0,"[-0.11609880213932404,-0.0028059641003964184]",100.0,"[-0.12616378686521826,-0.07850719417361679]",100.0,"[0.04251031897670015,0.147318305052821]",4.0,"[0.006588470409869825,-0.15990259956724004]",4.0,"[-0.049541439212778704,0.1592861216726824]",4.0,"[-0.10738801245412238,-0.15659188847298142]",4.0,"[-0.19245199203467397,-0.0240743466220231]",4.0,"[-0.08939593136347404,0.07825140204819195]",100.0,"[-0.1180730280665235,0.14313547160559745]",4.0,"[0.12271138012278378,0.053192414435128114]",100.0,"[-0.08630012022179327,-0.0925051435624962]",4.0,"[0.05041525143869508,0.009967908318006913]",4.0,"[-0.022250742446200424,0.0670647133345146]",100.0,"[0.07146502680705656,0.11911142952833584]",100.0,"[0.18243075903743566,0.07747624974635244]",4.0,"[0.0026132342622933215,0.10510177707346059]",100.0,"[0.15207068644637356,-0.007557606694234627]",100.0,"[0.045296427967232426,0.06378038217568957]",4.0,"[-0.15916632496782745,0.06633610528165519]",4.0,"[0.000020871333371982198,0.19841328122636787]",4.0,"[0.11373560537181268,-0.10677123623592023]",100.0,"[0.10516313054064892,0.09514669802192015]",4.0,"[-0.14521112091021637,-0.13417657484278683]",4.0,"[0.03912117282393331,-0.08974257394196702]",4.0,"[-0.0961927178902012,0.03688051088843762]",100.0,"[0.0499327780031556,-0.0343404298976639]",100.0,"[0.08763667005131841,-0.17498691501686064]",4.0,"[0.08816033942673886,0.15864603205305264]",100.0,"[-0.18162972834423302,0.031016252485290878]",4.0,"[0.02,0.02]",179.9571,0.0,42.0,42.0,122.0,1.0,,,,,,,
,,,,,,,663e222c34bca8dd891321ce,684429139d61b53eeae0ac3c,2025-06-07_14h00.15.607,shape_ratio,2024.1.5,Win32,59.17159763,684250e4f00cb30b92d1fa88,,,,,,,,,,,179.9582,180.4478,,,180.6855,181.2332,left,,,,,,,,0.6,0.5294,,,,,,,180.4479,180.6855,181.2332,"[0.03270884741935071,-0.0648998191608168]",4.0,"[0.14428165192829398,0.08484796912343728]",4.0,"[-0.03777319555901196,-0.12747693163526044]",100.0,"[-0.06812628309939026,-0.03894034242290617]",100.0,"[0.12916254232473132,-0.060032761603571565]",100.0,"[-0.18095151031446854,0.0695693573135048]",100.0,"[-0.06588313604555449,-0.18497867687897265]",100.0,"[-0.19925774386002978,-0.015499062467923918]",100.0,"[0.1187088334257532,-0.1371058576323942]",100.0,"[0.1587865254913102,-0.09991429700551736]",100.0,"[0.06561935331236723,0.16629557892525942]",4.0,"[-0.008727503345841877,0.07715149111217162]",100.0,"[0.11391762611624298,-0.014223566849663659]",100.0,"[0.05409132774689003,-0.11210178695939925]",100.0,"[-0.04218296222963681,0.05262238398146406]",4.0,"[0.024721625290890743,0.047359870262601314]",4.0,"[0.04735441664930163,0.013427020595024179]",100.0,"[-0.08094399260075433,-0.11294073451247484]",4.0,"[-0.16972962478766626,-0.0842711797629143]",4.0,"[0.12893183137086345,0.14525349188092482]",4.0,"[-0.03401878051592819,0.1409072360805556]",100.0,"[-0.09359731280463073,0.14464613949934402]",100.0,"[0.024316838846430898,0.15290716702796878]",100.0,"[-0.13345893569561817,-0.1463605365387073]",100.0,"[-0.006770709513267827,-0.09453152032800569]",100.0,"[-0.12185322070727887,0.004407456693667594]",4.0,"[0.1798800438564025,-0.05885388909270401]",4.0,"[-0.12816731342255083,0.10139156237731427]",100.0,"[-0.0021557045858386194,-0.03354346687067578]",100.0,"[0.023260851776180987,-0.1409017755976976]",4.0,"[0.10221816995826012,0.0444590613784197]",4.0,"[-0.09018979427839446,-0.15231341000825746]",4.0,"[0.02,0.02]",182.3362,0.0,43.0,43.0,42.0,1.0,,,,,,,
,,,,,,,663e222c34bca8dd891321ce,684429139d61b53eeae0ac3c,2025-06-07_14h00.15.607,shape_ratio,2024.1.5,Win32,59.17159763,684250e4f00cb30b92d1fa88,,,,,,,,,,,182.337,182.8516,,,183.0906,183.5053,left,,,,,,,,0.5,0.3866,,,,,,,182.8517,183.0906,183.5053,"[-0.06042776702369333,-0.13449121361817987]",4.0,"[0.00651812256188029,0.006127181684496712]",100.0,"[0.1957085598949442,0.01719620748025059]",100.0,"[0.10693098647868113,-0.06281337481516495]",100.0,"[-0.10084302587547253,0.008132976675818387]",4.0,"[-0.002774874933697667,0.1674927929793884]",100.0,"[-0.12670457352267217,-0.05488813160759378]",100.0,"[0.05585346534301466,0.14639984406044465]",4.0,"[0.17997813381047462,-0.027370743074185248]",100.0,"[0.0025573302064970517,-0.15526694526270204]",100.0,"[0.10772091311767415,0.04137069694586249]",4.0,"[0.12980641639522575,0.09524835608282606]",4.0,"[-0.036357975941262353,-0.17395140566271727]",4.0,"[-0.1253849903528117,-0.12184741519062223]",4.0,"[0.05399208029917745,-0.1792384941426844]",4.0,"[0.022991652739737307,-0.09303688976056806]",100.0,"[-0.02739379076274225,-0.10171673063198265]",4.0,"[-0.10477653961695166,0.11727050096477128]",4.0,"[-0.08012899992921638,0.15293514704753738]",4.0,"[-0.1561831146571048,0.09713317345940727]",100.0,"[-0.1104820973510489,0.05471275667431303]",100.0,"[0.1733019160170712,-0.06759014555746598]",100.0,"[0.06867433100994422,-0.09032222655957582]",100.0,"[0.14272424365829808,-0.12694674703823527]",100.0,"[-0.05034267239730228,-0.061279416728836675]",4.0,"[0.02937128293302301,0.056278987885720194]",100.0,"[0.15093970838014303,0.04642166529167846]",4.0,"[0.07867049167943962,0.09516708672086596]",100.0,"[-0.042040099542266875,0.1190617828198397]",100.0,"[-0.04282074869745671,0.07880032875658907]",4.0,"[0.018238189196016864,0.13044810132527374]",4.0,"[-0.167565030304475,-0.028460984345624208]",4.0,"[0.02,0.02]",184.5981,0.0,44.0,44.0,108.0,1.0,,,,,,,
,,,,,,,663e222c34bca8dd891321ce,684429139d61b53eeae0ac3c,2025-06-07_14h00.15.607,shape_ratio,2024.1.5,Win32,59.17159763,684250e4f00cb30b92d1fa88,,,,,,,,,,,184.6009,185.1564,,,185.3575,185.8052,right,,,,,,,,0.45,0.4208,,,,,,,185.1564,185.3574,185.8055,"[0.09535135086693519,-0.11537151358387018]",100.0,"[0.1549551947002957,0.04610309681370066]",100.0,"[-0.08184482904662158,0.14693714021016793]",4.0,"[-0.04151912230374761,-0.1031957615259803]",100.0,"[0.06287028658309207,-0.05354939471429683]",100.0,"[0.0070294750720722565,-0.09458062456046526]",100.0,"[0.07922233324363048,0.00400085706795176]",100.0,"[0.015103527814883515,0.13011299597846818]",4.0,"[-0.1388222567214885,0.06270155764358067]",100.0,"[-0.16832129810047236,-0.06668712094806581]",4.0,"[-0.033163540231701906,0.15066830406156934]",100.0,"[0.04782119096664762,0.18713249581109506]",4.0,"[0.17432696877672213,-0.03567821417264907]",100.0,"[-0.04817153136673616,0.05930286727321856]",100.0,"[-0.017892643611867626,0.02130068958224471]",4.0,"[-0.0835647378674197,-0.1034232295707525]",4.0,"[0.08691162147813546,0.09044692016807458]",4.0,"[-0.05375589931643956,-0.02609633738772243]",100.0,"[0.030763452118301143,0.028594210025001416]",4.0,"[0.03198076571455838,-0.15571126934225069]",4.0,"[0.08940543938994729,0.04893561540893974]",100.0,"[0.04578540564986949,0.10404601669223372]",4.0,"[-0.014243942798204252,-0.16614195368257992]",4.0,"[-0.10963325116988129,0.030270645287103683]",4.0,"[0.15388695474720473,0.10082827118133739]",4.0,"[0.14222362431954358,-0.006033909416833995]",4.0,"[-0.001667708371553253,0.18116479075471761]",4.0,"[0.09423151573500567,0.13377194115499527]",100.0,"[-0.0667738547246285,0.09966896147150381]",4.0,"[0.13796743799992578,-0.10973025480159777]",100.0,"[-0.16351716476022832,-0.005783886713290045]",4.0,"[0.020772134250741512,-0.032054010743878585]",4.0,"[0.02,0.02]",186.8954,0.0,45.0,45.0,123.0,1.0,,,,,,,
,,,,,,,663e222c34bca8dd891321ce,684429139d61b53eeae0ac3c,2025-06-07_14h00.15.607,shape_ratio,2024.1.5,Win32,59.17159763,684250e4f00cb30b92d1fa88,,,,,,,,,,,186.8978,187.3943,,,187.6402,188.1376,left,,,,,,,,0.5,0.477,,,,,,,187.3944,187.6402,188.1376,"[-0.07235575757701106,-0.1785924873657285]",100.0,"[0.027694398666477327,-0.0947950250998526]",100.0,"[-0.050911357197262565,0.11481611139462987]",4.0,"[0.07955154753103699,0.10479126455958088]",100.0,"[0.19460846586548,0.032943842273829536]",4.0,"[0.16600109147876613,0.003099925391746678]",100.0,"[0.08916021351085872,-0.013624008882840453]",4.0,"[-0.001104045409489557,-0.14118792050196532]",100.0,"[-0.17237862375368349,-0.04916911340373744]",4.0,"[-0.07378031557049297,0.1835759153378028]",4.0,"[0.00008477113754949381,0.13100942343111108]",100.0,"[0.14532120135005325,0.11096728675991575]",100.0,"[-0.041990657795933424,-0.11065336236215455]",4.0,"[0.027731100017570665,0.08685789091605667]",100.0,"[-0.024219753748455405,-0.019865883812415244]",100.0,"[0.0027937046316468886,-0.19382129079130417]",100.0,"[-0.028354195388417307,0.02093650105767761]",4.0,"[0.020303615649646622,0.028202314344736575]",100.0,"[0.060302527696270994,-0.17683768267135735]",4.0,"[-0.19481236177810976,-0.014240204217243708]",4.0,"[-0.1199360998647641,0.08344709346778698]",100.0,"[-0.10954510666120883,-0.15632928409362495]",4.0,"[0.17829528616049312,-0.06365054026737728]",100.0,"[-0.030496451189215675,0.16211392764114058]",4.0,"[0.02047999361536576,-0.047340578084716714]",4.0,"[-0.020389398112252127,0.06893702920845285]",100.0,"[0.1207107161795443,0.028959084245332865]",4.0,"[0.05886264696302783,0.014950006344056204]",4.0,"[-0.07427667391790932,0.07674016793830994]",100.0,"[-0.13690553860110402,-0.12129874157241036]",4.0,"[0.01404055763881266,0.16977042171870832]",100.0,"[0.06430971542496713,-0.12761208671574234]",4.0,"[0.02,0.02]",189.2288,0.0,46.0,46.0,93.0,1.0,,,,,,,
,,,,,,,663e222c34bca8dd891321ce,684429139d61b53eeae0ac3c,2025-06-07_14h00.15.607,shape_ratio,2024.1.5,Win32,59.17159763,684250e4f00cb30b92d1fa88,,,,,,,,,,,189.2309,189.7338,,,189.9829,190.392,left,,,,,,,,0.45,0.3892,,,,,,,189.734,189.9829,190.392,"[-0.11679645403472293,0.09010081762508945]",4.0,"[0.1834455833941052,-0.04943875858139314]",4.0,"[0.03278902555269673,0.025953611617798623]",4.0,"[-0.01878931016407393,0.046511782982464424]",100.0,"[-0.16611338829432845,0.021710509164100493]",100.0,"[-0.11533521284432947,0.1530241312924578]",4.0,"[0.14854640813702355,-0.008690643015184742]",100.0,"[-0.06666779656638001,-0.0637772372742778]",4.0,"[0.12762692610818976,-0.06739368822401806]",100.0,"[0.07341418079821113,0.14299666268579142]",4.0,"[-0.12375307444933116,-0.07202665773034306]",4.0,"[0.056638934694508244,-0.03906000889205621]",100.0,"[0.07355501504294334,0.02924518207349622]",4.0,"[0.18913173027353022,0.05519505010464112]",4.0,"[-0.09558950710553037,-0.12092719509884792]",100.0,"[-0.11075387781498483,0.005972614180552688]",100.0,"[-0.02450593737333431,-0.0206979529702194]",100.0,"[-0.0012207151703052194,-0.15265796876635307]",4.0,"[0.07887338052618921,-0.1037229342989375]",100.0,"[0.028219135317486942,-0.07085337531898296]",4.0,"[-0.17107728859928517,-0.09987984570175489]",4.0,"[-0.0386449470547824,0.1607319435702844]",4.0,"[0.12382723804227179,0.062418182077302924]",100.0,"[-0.07110804571600765,0.02854366237998215]",100.0,"[0.008627490297019405,0.17620899201783402]",100.0,"[-0.049014641443837485,-0.1334660254875227]",4.0,"[0.0844757589408371,-0.18122184204028358]",4.0,"[0.03065482092483507,0.14013833172843373]",100.0,"[-0.16999271186050774,-0.055205216590877536]",4.0,"[0.039905982343231595,0.08186575029778097]",4.0,"[-0.19736334101290415,-0.023028386676892398]",4.0,"[0.19913619070556077,-0.008305139620182308]",100.0,"[0.02,0.02]",191.4926,0.0,47.0,47.0,124.0,1.0,,,,,,,
,,,,,,,663e222c34bca8dd891321ce,684429139d61b53eeae0ac3c,2025-06-07_14h00.15.607,shape_ratio,2024.1.5,Win32,59.17159763,684250e4f00cb30b92d1fa88,,,,,,,,,,,191.494,191.9992,,,192.2541,192.8509,left,,,,,,,,0.6,0.5643,,,,,,,191.9994,192.2539,192.851,"[-0.05886605526518729,0.037355968091519164]",4.0,"[-0.016727756605298506,0.16245239455832747]",100.0,"[-0.08051846487986827,-0.13707231177208837]",100.0,"[-0.11900129948476298,-0.09468507006566095]",100.0,"[0.15379844332299872,0.10475812446999032]",100.0,"[0.07951680062560254,0.12501168242147123]",100.0,"[0.04237181298236658,-0.1744876903141203]",100.0,"[-0.13339793113711157,0.019498570645914988]",100.0,"[-0.0739604341861953,-0.07494372267378237]",4.0,"[0.03243906683756726,0.10895932850736789]",4.0,"[0.038641247652462074,0.15048084391763464]",100.0,"[-0.010570675867755069,0.0688307992705429]",100.0,"[-0.06961456283523684,-0.028671161443572526]",4.0,"[0.17381110808956754,0.058037616797548555]",4.0,"[0.046368895147928316,-0.024153601667050068]",4.0,"[0.16051103689713372,-0.10410660313766469]",4.0,"[-0.033459415620244494,-0.16749225756623237]",100.0,"[0.018975083383800845,-0.1044350045791233]",100.0,"[0.11761116726238968,-0.1109235646153253]",4.0,"[-0.18442968880966912,0.00936272431941328]",4.0,"[0.15753771456211174,-0.048242552743721745]",100.0,"[-0.14992727873701692,0.12418557530941145]",100.0,"[0.1185565206632204,-0.01940740094463928]",4.0,"[0.17508070658588906,0.012233369684954759]",4.0,"[0.01917847175881958,0.02641793656268223]",4.0,"[0.07441347389894139,0.04400773730956036]",100.0,"[0.12460750197043692,0.07690154053283435]",100.0,"[0.06830093811737373,-0.11159288974922506]",100.0,"[0.04798737453649404,-0.0735897641087918]",100.0,"[0.005429386684181256,-0.14529021491929492]",100.0,"[-0.09953024289653888,0.10941532555153119]",4.0,"[-0.08510104436256005,0.17435103727553247]",100.0,"[0.02,0.02]",193.9527,0.0,48.0,48.0,34.0,1.0,,,,,,,
,,,,,,,663e222c34bca8dd891321ce,684429139d61b53eeae0ac3c,2025-06-07_14h00.15.607,shape_ratio,2024.1.5,Win32,59.17159763,684250e4f00cb30b92d1fa88,,,,,,,,,,,193.9548,194.4622,,,194.7009,194.972,right,,,,,,,,0.4,0.2535,,,,,,,194.4622,194.7009,194.9723,"[-0.0737916985015416,0.06094086909888662]",4.0,"[0.040348117969716636,0.09375500790620894]",4.0,"[0.04609891809493086,0.14091341846070632]",100.0,"[0.002841589195634224,0.01848676506754471]",4.0,"[-0.10598762546671214,0.12917789729467072]",100.0,"[-0.008470469178087619,-0.0260771541000405]",100.0,"[0.11188928670314481,0.029212666710201705]",100.0,"[-0.13516007316862155,-0.050864139977268276]",100.0,"[0.04659312701077869,-0.08192149888970349]",4.0,"[-0.12989837849012442,0.05716489351535103]",4.0,"[0.06365094485055257,-0.17945157327278408]",4.0,"[-0.1166662188332706,-0.10180711513039893]",100.0,"[-0.07131582827610147,0.16369643746153856]",4.0,"[-0.17985543469718,-0.00016825872223752303]",4.0,"[-0.01658303950768439,0.10779152722674447]",4.0,"[0.09081857575530584,0.17693023947519002]",4.0,"[-0.17664636933280273,0.06895824595175155]",4.0,"[0.05381244424529033,0.042856722600092004]",4.0,"[0.007898752527424956,0.18990616502508686]",4.0,"[-0.011951823818731742,-0.10248639133239544]",100.0,"[-0.06311285571380726,0.11561141376575436]",100.0,"[-0.045912758757001154,-0.14521228147734502]",100.0,"[0.12946473191043362,-0.09838325743021399]",4.0,"[0.11997374043494302,0.10299726926956834]",4.0,"[0.17725128267719223,0.04249458976221233]",4.0,"[0.1612795882189208,0.0039003330502945187]",4.0,"[0.03123713521643613,-0.15030506864181614]",4.0,"[-0.05352658872742869,-0.0721548952540886]",100.0,"[-0.07294109175424272,-0.17488841248242637]",100.0,"[-0.012198237854803453,-0.18984401975396883]",100.0,"[-0.06173807163496385,-0.01775739261863457]",4.0,"[0.13954808023004026,0.06496507538580536]",100.0,"[0.02,0.02]",196.0679,0.0,49.0,49.0,163.0,1.0,,,,,,,
