right,left,explain.started,explain.stopped,key_resp_3.keys,key_resp_3.rt,key_resp_3.duration,participant,session,date,expName,psychopyVersion,OS,frameRate,study_id,explain_2.started,explain_2.stopped,key_resp_4.keys,key_resp_4.rt,key_resp_4.duration,explain_3.started,explain_3.stopped,key_resp_5.keys,key_resp_5.rt,key_resp_5.duration,fixation.started,fixation.stopped,practice.started,practice.stopped,response.started,response.stopped,key_resp.keys,key_resp.rt,key_resp.duration,feedback.started,feedback.stopped,trials_2.thisRepN,trials_2.thisTrialN,trials_2.thisN,trials_2.thisIndex,trials_2.ran,dot_ratio,explain_4.started,explain_4.stopped,key_resp_6.keys,key_resp_6.rt,key_resp_6.duration,dotDisplay.started,dotDisplay.stopped,ITI.started,polygon_1.pos,polygon_1.edges,polygon_2.pos,polygon_2.edges,polygon_3.pos,polygon_3.edges,polygon_4.pos,polygon_4.edges,polygon_5.pos,polygon_5.edges,polygon_6.pos,polygon_6.edges,polygon_7.pos,polygon_7.edges,polygon_8.pos,polygon_8.edges,polygon_9.pos,polygon_9.edges,polygon_10.pos,polygon_10.edges,polygon_11.pos,polygon_11.edges,polygon_12.pos,polygon_12.edges,polygon_13.pos,polygon_13.edges,polygon_14.pos,polygon_14.edges,polygon_15.pos,polygon_15.edges,polygon_16.pos,polygon_16.edges,polygon_17.pos,polygon_17.edges,polygon_18.pos,polygon_18.edges,polygon_19.pos,polygon_19.edges,polygon_20.pos,polygon_20.edges,polygon_21.pos,polygon_21.edges,polygon_22.pos,polygon_22.edges,polygon_23.pos,polygon_23.edges,polygon_24.pos,polygon_24.edges,polygon_25.pos,polygon_25.edges,polygon_26.pos,polygon_26.edges,polygon_27.pos,polygon_27.edges,polygon_28.pos,polygon_28.edges,polygon_29.pos,polygon_29.edges,polygon_30.pos,polygon_30.edges,polygon_31.pos,polygon_31.edges,polygon_32.pos,polygon_32.edges,dot_size,ITI.stopped,trials.thisRepN,trials.thisTrialN,trials.thisN,trials.thisIndex,trials.ran,break_2.started,break_2.stopped,trials_3.thisRepN,trials_3.thisTrialN,trials_3.thisN,trials_3.thisIndex,trials_3.ran
subject chose diamond,subject chose dot,0.0004,68.3974,space,53.3581,,664b7ccb73885d9432d06796,684428ccf239b1c8cdfef85e,2025-06-07_15h01.45.850,shape_ratio,2024.1.5,Win32,40,684250e4f00cb30b92d1fa88,,,,,,,,,,,,,,,,,,,,,,,,,,,,,,,,,,,,,,,,,,,,,,,,,,,,,,,,,,,,,,,,,,,,,,,,,,,,,,,,,,,,,,,,,,,,,,,,,,,,,,,,,,,,,,,,,
,,,,,,,664b7ccb73885d9432d06796,684428ccf239b1c8cdfef85e,2025-06-07_15h01.45.850,shape_ratio,2024.1.5,Win32,40,684250e4f00cb30b92d1fa88,68.3986,124.8454,space,26.4044,,,,,,,,,,,,,,,,,,,,,,,,,,,,,,,,,,,,,,,,,,,,,,,,,,,,,,,,,,,,,,,,,,,,,,,,,,,,,,,,,,,,,,,,,,,,,,,,,,,,,,,,,,,,,
,,,,,,,664b7ccb73885d9432d06796,684428ccf239b1c8cdfef85e,2025-06-07_15h01.45.850,shape_ratio,2024.1.5,Win32,40,684250e4f00cb30b92d1fa88,,,,,,124.8461,132.9711,space,5.1033,,,,,,,,,,,,,,,,,,,,,,,,,,,,,,,,,,,,,,,,,,,,,,,,,,,,,,,,,,,,,,,,,,,,,,,,,,,,,,,,,,,,,,,,,,,,,,,,,,,,,,,,
,,,,,,,664b7ccb73885d9432d06796,684428ccf239b1c8cdfef85e,2025-06-07_15h01.45.850,shape_ratio,2024.1.5,Win32,40,684250e4f00cb30b92d1fa88,,,,,,,,,,,133.0176,133.4857,133.4861,133.7383,133.7388,134.1606,right,0.3409,,134.161,135.26,0.0,0.0,0.0,1.0,1.0,0.8,,,,,,,,,,,,,,,,,,,,,,,,,,,,,,,,,,,,,,,,,,,,,,,,,,,,,,,,,,,,,,,,,,,,,,,,,,,,,,,,,,,,,,
,,,,,,,664b7ccb73885d9432d06796,684428ccf239b1c8cdfef85e,2025-06-07_15h01.45.850,shape_ratio,2024.1.5,Win32,40,684250e4f00cb30b92d1fa88,,,,,,,,,,,135.2629,135.7595,135.7597,136.0108,136.011,136.359,left,0.3242,,136.3593,137.4577,0.0,1.0,1.0,0.0,1.0,0.2,,,,,,,,,,,,,,,,,,,,,,,,,,,,,,,,,,,,,,,,,,,,,,,,,,,,,,,,,,,,,,,,,,,,,,,,,,,,,,,,,,,,,,
,,,,,,,664b7ccb73885d9432d06796,684428ccf239b1c8cdfef85e,2025-06-07_15h01.45.850,shape_ratio,2024.1.5,Win32,40,684250e4f00cb30b92d1fa88,,,,,,,,,,,,,,,,,,,,,,,,,,,,137.4594,147.4248,space,6.9393,,,,,,,,,,,,,,,,,,,,,,,,,,,,,,,,,,,,,,,,,,,,,,,,,,,,,,,,,,,,,,,,,,,,,,,,,,,,,,,,,,
,,,,,,,664b7ccb73885d9432d06796,684428ccf239b1c8cdfef85e,2025-06-07_15h01.45.850,shape_ratio,2024.1.5,Win32,40,684250e4f00cb30b92d1fa88,,,,,,,,,,,147.4761,147.9482,,,148.1993,148.5233,right,0.3144,,,,,,,,,0.55,,,,,,147.9497,148.1991,148.5246,"[-0.09399771219970023,-0.1549343911511279]",4.0,"[0.015187917765956953,-0.1811762963212166]",4.0,"[-0.02418087084889504,0.027332637055678323]",100.0,"[0.0062144214330030305,0.10109667441817032]",100.0,"[-0.06803735197506211,0.1311963518900139]",4.0,"[0.05609545648481104,-0.10135658295542398]",100.0,"[0.05751585522962709,0.09188057331262753]",100.0,"[0.13138873746629853,0.1337680851546303]",4.0,"[-0.14222155068923617,-0.08666873873654447]",100.0,"[0.14249454583770899,-0.023630526006943296]",4.0,"[-0.15323908435464856,0.10157554692588577]",4.0,"[-0.11053368386312797,0.054980367327353355]",100.0,"[0.13259692931572578,0.05880567232426204]",4.0,"[0.086235539642494,-0.06824103748632661]",4.0,"[0.08913216403432585,0.17469044457987304]",100.0,"[0.17563231155179718,-0.053061855680459645]",4.0,"[0.0788328377731732,-0.023393873125268697]",100.0,"[0.08853088193705531,0.13023006497083753]",100.0,"[-0.18857004347148573,-0.059997010894067906]",4.0,"[0.09919818689310267,-0.1729795609080345]",100.0,"[-0.13206082115637685,-0.03483622979177129]",100.0,"[0.0035613552922832154,-0.05311655802820816]",100.0,"[0.15229977226525418,0.09763896613176586]",4.0,"[-0.14950054416019004,0.015916139561719857]",100.0,"[-0.060859113185602956,0.009253709976200428]",100.0,"[0.18804324026984737,0.015481798909237966]",100.0,"[0.010129853921706547,0.003627224957669159]",100.0,"[-0.03086827777374469,-0.19407838294841107]",4.0,"[-0.026636402589332312,0.18924338963194734]",4.0,"[-0.0625481001635162,-0.038616276725373724]",4.0,"[0.0006574874332953121,-0.13968552392517114]",100.0,"[0.08950728585743788,0.04842337347216121]",100.0,"[0.02,0.02]",149.6223,0.0,0.0,0.0,85.0,1.0,,,,,,,
,,,,,,,664b7ccb73885d9432d06796,684428ccf239b1c8cdfef85e,2025-06-07_15h01.45.850,shape_ratio,2024.1.5,Win32,40,684250e4f00cb30b92d1fa88,,,,,,,,,,,149.6241,150.1211,,,150.3728,150.7704,left,0.3698,,,,,,,,,0.4,,,,,,150.1212,150.3727,150.7705,"[0.0753112392180974,-0.10057279314195133]",100.0,"[-0.03931475727193138,0.13600884540113575]",100.0,"[-0.09616729856940992,-0.16845882515868418]",100.0,"[0.16032500520217666,0.004882018952824724]",4.0,"[-0.07339669307427484,-0.1300384645538631]",4.0,"[0.02256358964259144,-0.16425468109936103]",100.0,"[-0.11786807209979358,-0.10289759026618805]",100.0,"[-0.05059510515245609,0.04753601402397914]",4.0,"[0.1457253562471457,-0.13329492920018854]",4.0,"[-0.1334847505785979,0.09831615549725245]",4.0,"[0.1656298543956687,0.07022122018473131]",4.0,"[0.052192082629081905,0.19287309748583514]",100.0,"[-0.08960757863783601,0.11189996454717012]",100.0,"[-0.026536649667342066,-0.11695324166211891]",100.0,"[0.040105385603349135,-0.1276518084276986]",4.0,"[0.11734360852545832,-0.02492289376978258]",4.0,"[0.10652941971246818,0.13885863488763894]",4.0,"[0.025987133312978136,0.0465133209405521]",100.0,"[0.1787497413376894,-0.06768255593790844]",4.0,"[0.03109131453543271,0.09227448016078321]",4.0,"[-0.07491820848444221,0.15763939660404583]",4.0,"[-0.08508665927532894,-0.0650419436286442]",100.0,"[-0.02064802672492336,-0.05881098238629875]",4.0,"[-0.09264684280005893,0.0229412837450366]",4.0,"[0.035066210517173416,-0.019857688475027883]",100.0,"[-0.1294565836874187,-0.027824348546662908]",4.0,"[-0.1775864539099627,-0.08254794911734065]",100.0,"[-0.03738081150900619,-0.16687314315780385]",4.0,"[-0.09745610330698494,0.06467400903862032]",100.0,"[0.0008925090373722518,0.19458785527212788]",4.0,"[0.08856372305474416,-0.1476072128560746]",4.0,"[0.1413946030597031,0.10660255227523328]",4.0,"[0.02,0.02]",151.8695,0.0,1.0,1.0,173.0,1.0,,,,,,,
,,,,,,,664b7ccb73885d9432d06796,684428ccf239b1c8cdfef85e,2025-06-07_15h01.45.850,shape_ratio,2024.1.5,Win32,40,684250e4f00cb30b92d1fa88,,,,,,,,,,,151.8707,152.3687,,,152.621,152.8444,right,0.1984,,,,,,,,,0.1,,,,,,152.3688,152.621,152.8446,"[0.05406032833737776,-0.13344233266103087]",4.0,"[-0.016157209548137427,0.14423567806821597]",4.0,"[0.11484031221062249,-0.06019647439065978]",4.0,"[-0.041706907850707915,0.01311033839396282]",4.0,"[0.058836006563708375,0.11745501823315692]",4.0,"[-0.0266521607991371,-0.16408167183096847]",4.0,"[-0.15058971037654126,0.04080722948102044]",4.0,"[0.00500602905283588,-0.0491735510675024]",4.0,"[-0.04324304963507531,0.078181439334504]",4.0,"[-0.08115313824049007,0.17799944496830858]",4.0,"[0.1894752570562985,0.021308648022947994]",4.0,"[0.052658931365055346,-0.010202973460868632]",4.0,"[0.12046632996680194,0.033257174978523006]",4.0,"[-0.052999143318677014,-0.0709635589481593]",4.0,"[-0.0907141671651479,0.0955643597675641]",4.0,"[0.12607858860099777,0.11971287831288688]",4.0,"[-0.09672594806866641,-0.1601171033470735]",4.0,"[-0.035614173658151865,0.19640151375227058]",100.0,"[0.04069460153022344,-0.07999402963223776]",4.0,"[-0.15452919312843155,0.11557317988715374]",4.0,"[0.04694517052160534,0.04136470977787572]",4.0,"[-0.11775026072781104,-0.12336057521718317]",4.0,"[-0.06090167709187281,0.13491575877221187]",4.0,"[0.09717846726157989,0.06827097323852731]",4.0,"[0.13310923353579804,-0.14280916085006387]",4.0,"[0.09826570053886632,-0.10698434838061388]",4.0,"[0.011971617467067453,0.09061863790161291]",4.0,"[0.16180891565244207,-0.04896922797591647]",4.0,"[0.06211865906000215,0.16409566751724886]",4.0,"[-0.16404170900374695,-0.09193683864671226]",100.0,"[-0.16272007004038075,-0.02227855555113273]",4.0,"[-0.12667234649579534,-0.04883497206737593]",100.0,"[0.02,0.02]",153.9429,0.0,2.0,2.0,198.0,1.0,,,,,,,
,,,,,,,664b7ccb73885d9432d06796,684428ccf239b1c8cdfef85e,2025-06-07_15h01.45.850,shape_ratio,2024.1.5,Win32,40,684250e4f00cb30b92d1fa88,,,,,,,,,,,153.944,154.4422,,,154.6923,155.2163,left,0.4958,,,,,,,,,0.5,,,,,,154.4423,154.6923,155.2164,"[0.012876851108619584,0.13207837995912358]",100.0,"[-0.04871281824540488,0.17219714676219441]",4.0,"[0.128155082614487,0.01566509628860397]",4.0,"[-0.12861740850374573,-0.10763136080982554]",4.0,"[-0.1745832365689657,-0.03060133225816914]",100.0,"[0.15695569537426113,-0.10216969348995548]",4.0,"[-0.033104755364548585,-0.11540661854789175]",4.0,"[-0.10851838264963193,-0.049795127152805436]",100.0,"[-0.1563624370571454,0.08915876527092412]",100.0,"[0.057949482920806164,-0.03347310832186236]",4.0,"[0.04830232003557444,0.11343943311066625]",4.0,"[0.01105221245594549,-0.017706597577587902]",100.0,"[-0.10842630789324456,-0.14675107067156523]",4.0,"[0.12445128243042228,0.11636598138885673]",100.0,"[-0.007954497249589127,0.058086351753688474]",100.0,"[-0.08231629954940317,0.0631243055957765]",4.0,"[0.18135425006466857,-0.022404970320889697]",100.0,"[-0.07380448619291079,-0.17864840558487394]",4.0,"[-0.10987933669044024,0.033917883849699106]",100.0,"[0.08957044765138969,0.16759610813353365]",100.0,"[-0.10316178816047837,0.1158511410685157]",100.0,"[0.08478117859575397,0.07795854897339723]",4.0,"[-0.028148760627761338,0.09695416471558378]",100.0,"[0.026703316469417464,-0.1267775861693827]",100.0,"[0.11580071759504547,-0.12339084354349553]",4.0,"[0.18855975203992112,-0.06304105853681145]",4.0,"[0.06857280066159104,-0.09254625032927437]",100.0,"[0.16321639322834527,0.03857080086447691]",100.0,"[-0.020408669145759725,-0.0755194835428718]",4.0,"[0.05727167346608176,-0.18419914626318867]",100.0,"[-0.07672001153561346,-0.021490696874254533]",4.0,"[0.010105269936649872,0.17293391435835775]",4.0,"[0.02,0.02]",156.3156,0.0,3.0,3.0,104.0,1.0,,,,,,,
,,,,,,,664b7ccb73885d9432d06796,684428ccf239b1c8cdfef85e,2025-06-07_15h01.45.850,shape_ratio,2024.1.5,Win32,40,684250e4f00cb30b92d1fa88,,,,,,,,,,,156.3172,156.8145,,,157.0666,157.5395,left,0.4479,,,,,,,,,0.5,,,,,,156.8146,157.0664,157.5397,"[0.006818559873248149,-0.10948139948456427]",100.0,"[-0.15607708798981706,0.01731227499687626]",100.0,"[-0.06937274679507174,-0.10759571335484887]",100.0,"[-0.0416563206679037,-0.03359507846884488]",100.0,"[-0.0856499228428288,0.09679640691635902]",4.0,"[0.11260445853849224,0.13517428914366678]",100.0,"[0.09321561161649093,-0.06062557038541404]",100.0,"[0.1630468885302842,0.09979080877179876]",100.0,"[0.010781518593546967,0.15266690736585065]",4.0,"[-0.06073137368916831,0.048133141830535034]",100.0,"[-0.16190627226325088,0.0714621018885329]",4.0,"[-0.003969798821643986,-0.15077107298876335]",4.0,"[-0.08780877988540602,0.1548048174667595]",4.0,"[0.18836359905687491,-0.013066891607512869]",100.0,"[-0.10708594686849275,-0.13221274165268096]",4.0,"[-0.10363332399568935,-0.06664834671115587]",100.0,"[0.12588815217013252,-0.11039835204802084]",4.0,"[0.03461303311939813,-0.1953989780944256]",4.0,"[0.0940427977450189,-0.15370590705573747]",4.0,"[0.04413388100169202,0.1099258090231151]",100.0,"[0.003150677610193107,0.008126502966939354]",100.0,"[-0.11280356673052568,-0.011626210175212266]",4.0,"[0.06949569469518971,0.02176229815414508]",4.0,"[-0.022268346983791626,0.1814745324127611]",4.0,"[0.15736321475777085,0.014172547067430926]",100.0,"[0.17207880164245418,-0.05524765976695569]",4.0,"[0.04100740348715246,0.06702616472989867]",4.0,"[-0.16915714570669108,-0.09336148717455676]",4.0,"[-0.12033723546666798,0.060066910755577275]",100.0,"[0.04362705813878081,-0.04861454665890387]",4.0,"[0.11459229520811684,0.011322680861135052]",100.0,"[0.10208660261742851,0.07108817157771982]",100.0,"[0.02,0.02]",158.6381,0.0,4.0,4.0,97.0,1.0,,,,,,,
,,,,,,,664b7ccb73885d9432d06796,684428ccf239b1c8cdfef85e,2025-06-07_15h01.45.850,shape_ratio,2024.1.5,Win32,40,684250e4f00cb30b92d1fa88,,,,,,,,,,,158.6389,159.1377,,,159.3878,159.7126,right,0.3,,,,,,,,,0.1,,,,,,159.1378,159.3878,159.7127,"[-0.028479764885991892,-0.12149353438381304]",4.0,"[-0.1191991845717719,0.12027948841716503]",4.0,"[0.02727001652803625,0.07049402478814065]",4.0,"[-0.09209335602610748,-0.020879206841245997]",4.0,"[-0.11357535582760575,0.025595788322526597]",4.0,"[-0.04825946963052129,0.19269594047696081]",4.0,"[0.003126438391616536,-0.1473049180240007]",4.0,"[-0.05679379173281869,-0.060201799503667566]",4.0,"[-0.15645701001174434,-0.04476777788406044]",4.0,"[0.06110205863810987,0.11468593972007823]",4.0,"[-0.052446092944453855,-0.00603843065315723]",4.0,"[0.17330972562014987,0.07937831391980511]",4.0,"[-0.08815635626546209,0.06956371267884259]",4.0,"[0.07148211088500477,-0.09715449384019932]",4.0,"[-0.12849710614700366,-0.10970870969879859]",100.0,"[0.06287984610116457,0.05143454397526956]",4.0,"[0.13044755561629298,-0.02717345201307938]",4.0,"[-0.032332275446815,0.09963016631548703]",100.0,"[0.025319513887795214,0.14861064011884836]",4.0,"[0.016789255097320804,-0.19292458732566758]",4.0,"[0.12970908315677565,0.01947529121067319]",4.0,"[-0.16298916616318418,0.062015647788350864]",4.0,"[0.08481308110736108,0.1635995331978178]",4.0,"[0.12457416685772456,0.12933660071197184]",4.0,"[0.0966259650307114,0.08539895455475183]",100.0,"[0.03926006926963046,-0.005475863771049658]",4.0,"[-0.09830492092261081,-0.14923510068387416]",4.0,"[0.10953047169585926,-0.07533135260811463]",4.0,"[-0.06625559517379266,-0.1872286928842744]",4.0,"[0.15258319568625658,-0.0637806136484403]",4.0,"[0.09413872886024056,-0.15963565015951528]",4.0,"[0.08716152163619253,-0.03059986413491377]",4.0,"[0.02,0.02]",160.8117,0.0,5.0,5.0,199.0,1.0,,,,,,,
,,,,,,,664b7ccb73885d9432d06796,684428ccf239b1c8cdfef85e,2025-06-07_15h01.45.850,shape_ratio,2024.1.5,Win32,40,684250e4f00cb30b92d1fa88,,,,,,,,,,,160.8132,161.3106,,,161.5609,161.9359,left,0.3517,,,,,,,,,0.9,,,,,,161.3107,161.5608,161.936,"[-0.04077622719409625,0.08901173149963491]",100.0,"[-0.13096514532156445,-0.026054224639309946]",100.0,"[0.050710506771888805,-0.15857133407455548]",100.0,"[-0.12422749125604148,-0.06766544223712607]",100.0,"[0.054044771578679866,0.13129350935057688]",100.0,"[0.14576812617996182,0.03542983489089578]",100.0,"[-0.14111116045348432,0.12387972756369059]",100.0,"[-0.11054356015393696,0.15704559674255797]",100.0,"[-0.05828487815644551,-0.045060101444748424]",100.0,"[0.041623342757547234,0.04995627856344841]",100.0,"[0.09979710432847932,0.1247028067493581]",100.0,"[0.00010803810708507079,0.031140636563190497]",100.0,"[-0.1832360512761494,-0.004193118342360205]",100.0,"[0.19204258674067196,0.015885190782622266]",4.0,"[-0.18567000823986435,-0.07009202674070282]",4.0,"[-0.06922911925195062,-0.1324814031886641]",100.0,"[-0.054236666163667326,0.19217950177178642]",4.0,"[0.08530084094313145,0.0014017335097157757]",100.0,"[-0.07651694039982487,0.10943793450456106]",100.0,"[0.02446348611875653,0.15996952020891053]",100.0,"[0.1471839689279652,0.0891794398657261]",100.0,"[-0.028676269872767553,-0.005619168604488703]",100.0,"[-0.028209477381248488,-0.14185991549086427]",100.0,"[-0.0042570321390980334,0.19020843321670997]",100.0,"[0.05496658563636415,-0.04484909498116383]",100.0,"[0.09373386818685829,-0.08477558213702437]",100.0,"[-0.17373699919722135,0.08924503211413992]",100.0,"[-0.14821134990899895,-0.12831514021379614]",100.0,"[0.09251577349316016,0.16672520647079853]",100.0,"[0.14579102400240804,-0.07988047312473336]",100.0,"[0.012479664891101187,-0.12749530703467413]",100.0,"[0.10215980884132773,-0.14769463469858451]",100.0,"[0.02,0.02]",163.0347,0.0,6.0,6.0,1.0,1.0,,,,,,,
,,,,,,,664b7ccb73885d9432d06796,684428ccf239b1c8cdfef85e,2025-06-07_15h01.45.850,shape_ratio,2024.1.5,Win32,40,684250e4f00cb30b92d1fa88,,,,,,,,,,,163.036,163.5341,,,163.7853,164.2838,left,0.4829,,,,,,,,,0.1,,,,,,163.5342,163.7851,164.284,"[-0.05666712775668189,0.1270128081469021]",4.0,"[-0.17724128321771843,0.04190936009840073]",100.0,"[-0.16629902890072823,-0.034225435356176725]",4.0,"[-0.11172192420370057,0.045465811755638574]",4.0,"[-0.15824486111671116,-0.09526626407203913]",4.0,"[-0.07136147683256137,-0.14526341050633026]",4.0,"[0.09100194183725345,0.08300826438621309]",4.0,"[-0.10143095408256765,-0.006286145407450819]",4.0,"[-0.11438459112427836,-0.06990668935739038]",4.0,"[0.15476842921581635,-0.08738976953692248]",4.0,"[-0.05833706673980815,0.1891000667845301]",4.0,"[0.007897840279599479,-0.07664775867359547]",4.0,"[-0.029806130119219582,0.055452795019192015]",4.0,"[0.14446866181306253,0.11522038608195166]",4.0,"[0.1390029538125447,-0.13726986124717042]",100.0,"[0.054502779291787935,-0.10261769569752345]",4.0,"[0.026995603438394026,0.1484611650343402]",4.0,"[0.054517744732293406,-0.030564177147120918]",4.0,"[0.08530559082492445,0.16867314865736452]",4.0,"[-0.10754441151623773,0.1325646472971565]",4.0,"[-0.19672047370563478,-0.002539552491446675]",4.0,"[0.006639484449563944,-0.024861407268168892]",4.0,"[-0.13980309125217188,0.07587975197434954]",4.0,"[0.01270791062196333,-0.14613660354159472]",4.0,"[-0.018049916125918,0.14612191836300506]",4.0,"[0.14777476185121824,0.017184682954116865]",4.0,"[0.1404341689734091,0.06066088184020565]",4.0,"[0.03638704743238355,-0.1916726944837265]",100.0,"[-0.05085531661689793,0.006247449294411817]",4.0,"[0.17889770556915385,-0.04347882633283817]",4.0,"[0.0667156019923049,0.12476193187013047]",4.0,"[0.02670531823007806,0.07159935297758886]",4.0,"[0.02,0.02]",165.3827,0.0,7.0,7.0,206.0,1.0,,,,,,,
,,,,,,,664b7ccb73885d9432d06796,684428ccf239b1c8cdfef85e,2025-06-07_15h01.45.850,shape_ratio,2024.1.5,Win32,40,684250e4f00cb30b92d1fa88,,,,,,,,,,,165.3838,165.8815,,,166.1331,166.4821,right,0.3325,,,,,,,,,0.1,,,,,,165.8815,166.1329,166.4823,"[0.08963270365943081,-0.11394086005191015]",4.0,"[-0.0887586675583292,0.034506450327226726]",4.0,"[-0.058432339770489304,0.14873529120705112]",4.0,"[0.13379621243640322,-0.1265922412805618]",4.0,"[0.06954709250092886,0.15812382650956996]",4.0,"[-0.11932643373020704,0.14544130789929804]",4.0,"[-0.11495414530961405,-0.049572702608568844]",4.0,"[0.031827668378386645,0.10810187494518941]",4.0,"[0.06736425997039075,-0.05838270136322654]",4.0,"[-0.028271130320597897,0.10833747754581215]",4.0,"[-0.17433066988387338,-0.044837031578207544]",4.0,"[0.1193775301758986,-0.05843476140671008]",4.0,"[-0.01865806892602445,-0.16081817701852433]",4.0,"[0.0043988042996246065,0.019014242345485027]",4.0,"[-0.12305981005270651,0.08250402517743008]",4.0,"[0.07220407121146273,0.029567736143629526]",4.0,"[0.13802539781304177,0.11834090389528677]",100.0,"[0.049689525050835966,-0.16864052447179095]",4.0,"[0.04992004053902526,-0.017541898842540846]",4.0,"[-0.1342347212001839,-0.008338232330899314]",4.0,"[-0.0032029190778642114,0.06541299367855713]",4.0,"[-0.17090350817186295,-0.08646970746563849]",4.0,"[0.13350261000439617,-0.011925098639917548]",4.0,"[-0.07370960331233012,-0.09804933343159733]",4.0,"[-0.11203887593759841,-0.13505493907060687]",4.0,"[-0.031143185813658273,-0.04240092840294438]",4.0,"[0.006588247657587096,0.18525962980757382]",4.0,"[0.04442630533595794,-0.10694536683075577]",4.0,"[-0.03607819773082028,0.028244339475908722]",100.0,"[0.17122875390060832,0.007919877707550352]",4.0,"[0.13757274050422796,0.031193671659171047]",100.0,"[-0.1454734295395628,0.032255821547185246]",4.0,"[0.02,0.02]",167.5805,0.0,8.0,8.0,197.0,1.0,,,,,,,
,,,,,,,664b7ccb73885d9432d06796,684428ccf239b1c8cdfef85e,2025-06-07_15h01.45.850,shape_ratio,2024.1.5,Win32,40,684250e4f00cb30b92d1fa88,,,,,,,,,,,167.5817,168.0802,,,168.3359,169.0552,left,0.681,,,,,,,,,0.4,,,,,,168.0804,168.3359,169.0554,"[0.10634320104445909,0.06583785577954382]",100.0,"[0.1454115701875295,0.08432806727837797]",100.0,"[0.07377532035000861,0.18109190897662522]",4.0,"[0.013886615400919056,0.1242811427655931]",4.0,"[0.07924472322297149,-0.11962896274326551]",4.0,"[-0.06412860438474098,0.1808858066474701]",4.0,"[-0.010255856570255883,-0.018438324197309175]",100.0,"[-0.045686538376273955,-0.04197531057418546]",4.0,"[0.10497189181208186,0.00030577882551139734]",4.0,"[-0.11491302426024266,-0.0150132312349856]",100.0,"[0.08654800882482973,0.13190685311961617]",100.0,"[-0.04649422884074826,-0.16675818957872254]",100.0,"[-0.03288421890851758,-0.10292572979395691]",4.0,"[-0.1545008357145936,0.055081584707886704]",4.0,"[0.16008082884633332,0.02064680952172869]",100.0,"[0.048600025212582006,0.0857855134223054]",100.0,"[-0.1155881883146785,-0.08872663932396448]",4.0,"[0.026829732332478737,-0.1171004158132506]",4.0,"[-0.08058006091621932,-0.11598081658149126]",100.0,"[-0.16713344485662354,-0.0856282239210059]",4.0,"[0.1407801382813134,-0.043108542480359474]",4.0,"[-0.1637020233694576,0.10034585680363971]",100.0,"[-0.06394921366875114,0.11613952757696165]",4.0,"[-0.16709356895200167,-0.016944769389062506]",4.0,"[-0.1335846836334761,-0.13842207981679125]",4.0,"[0.1822773732671021,-0.05343733527283677]",4.0,"[-0.02166571915226764,0.0876290521607764]",100.0,"[-0.1237434398190277,0.10515699448844538]",4.0,"[0.1905827910578806,-0.008353559844827552]",100.0,"[-0.11374123209552618,0.043591596155190454]",4.0,"[0.08261905628828099,-0.1675596132534003]",4.0,"[0.0030373028974052226,0.19567218543584577]",100.0,"[0.02,0.02]",170.1533,0.0,9.0,9.0,168.0,1.0,,,,,,,
,,,,,,,664b7ccb73885d9432d06796,684428ccf239b1c8cdfef85e,2025-06-07_15h01.45.850,shape_ratio,2024.1.5,Win32,40,684250e4f00cb30b92d1fa88,,,,,,,,,,,170.1548,170.6528,,,170.9026,171.2023,right,0.2653,,,,,,,,,0.1,,,,,,170.653,170.9024,171.2024,"[-0.02508507254954613,0.09147593300241763]",4.0,"[0.035634014761275395,-0.004256698719878384]",4.0,"[0.15097757505740553,-0.04303741269535588]",4.0,"[0.039540505205365194,0.07738346795051743]",4.0,"[-0.05821372580985637,-0.10153790646482232]",100.0,"[0.05580228601527215,-0.05018215907648248]",4.0,"[-0.1739049216104888,-0.04978722889028955]",4.0,"[-0.04821932098419632,0.00951507445482431]",4.0,"[-0.1497936677185809,-0.1094538387167201]",4.0,"[0.02135816263501157,0.17378601923670198]",4.0,"[-0.07921459467377903,0.10534140111946522]",4.0,"[0.13094164497816838,-0.0813516642589808]",100.0,"[0.10893714648026596,0.030040413406729468]",4.0,"[0.03146940344776537,-0.08556023958293779]",4.0,"[-0.12458838879836077,0.011885428895414274]",4.0,"[-0.03418508033819828,-0.06851192948908409]",4.0,"[-0.10501294347005628,-0.04965389257022818]",4.0,"[0.008258583727238306,-0.15369156098779058]",4.0,"[-0.14641982802235812,0.12006616348350208]",4.0,"[0.11027478614848052,0.08308727189418963]",4.0,"[0.15816504235784942,0.10161546491747196]",100.0,"[-0.08718499208159665,-0.1414123363826314]",4.0,"[-0.15882190124087667,0.06309062495872049]",4.0,"[0.060950165023063226,0.13295467331930247]",4.0,"[-0.04742147614298016,-0.18068112104070652]",4.0,"[0.16407088491855654,0.03512537071893414]",4.0,"[-0.06083928773927539,0.1746099303496466]",4.0,"[-0.015807702947651926,-0.10427528209640294]",4.0,"[0.013105562610845042,0.11322124881991291]",4.0,"[-0.1004603830212502,0.16875649600589593]",4.0,"[0.0637132138151037,-0.16967236579124653]",4.0,"[-0.17599629276100706,0.02352071235537399]",4.0,"[0.02,0.02]",172.3005,0.0,10.0,10.0,207.0,1.0,,,,,,,
,,,,,,,664b7ccb73885d9432d06796,684428ccf239b1c8cdfef85e,2025-06-07_15h01.45.850,shape_ratio,2024.1.5,Win32,40,684250e4f00cb30b92d1fa88,,,,,,,,,,,172.3011,172.801,,,173.0503,173.5251,right,0.4613,,,,,,,,,0.6,,,,,,172.8011,173.0503,173.5252,"[0.17851027515581808,0.0519360322360566]",100.0,"[-0.14201489338364773,0.026872770382507332]",100.0,"[0.1278805991272242,-0.11381388145648878]",100.0,"[0.02782434132578751,-0.169318332172388]",100.0,"[-0.07159276405415191,0.019198345574141785]",4.0,"[-0.067099014915958,-0.14159936917082555]",100.0,"[-0.058729542336845894,0.16380375165164188]",4.0,"[0.07158773760640051,-0.11411252221164096]",100.0,"[-0.07449696367315517,0.08888009231068433]",100.0,"[0.04524875663661748,0.16637636477043977]",4.0,"[0.08819751957110013,0.08179744783354807]",4.0,"[0.10898308508112362,-0.15876848302274768]",100.0,"[-0.061001150805771676,-0.09843545752671196]",100.0,"[0.02205929541902945,-0.020993587845410364]",4.0,"[0.13446962520117148,-0.05203137176661904]",4.0,"[-0.008757264363581327,0.059485358897264175]",4.0,"[0.0096064549257537,-0.12045257002224995]",100.0,"[0.15429098598971014,0.11158602795356341]",100.0,"[-0.014136662450113911,0.19425848938857862]",4.0,"[-0.019471026131870975,0.1251763326766075]",4.0,"[-0.1387390958361963,-0.0450464227956509]",4.0,"[0.06168803020150683,0.012095856640476826]",4.0,"[-0.11625438311898989,-0.1303057757830456]",4.0,"[0.17258615223572188,-0.08701379612106297]",100.0,"[-0.0361039044416454,-0.06377644995298315]",4.0,"[0.06982088320136652,-0.057289452067789716]",100.0,"[-0.021970106536838983,-0.1647799238800959]",100.0,"[-0.10214871305080976,-0.016581326746835056]",100.0,"[0.041920839601858925,0.06218916206089405]",100.0,"[0.19482019672022804,-0.040106174242915286]",100.0,"[0.005488636027861243,0.02157252236825554]",100.0,"[-0.17731847871797568,-0.06446747145215156]",100.0,"[0.02,0.02]",174.6237,0.0,11.0,11.0,33.0,1.0,,,,,,,
,,,,,,,664b7ccb73885d9432d06796,684428ccf239b1c8cdfef85e,2025-06-07_15h01.45.850,shape_ratio,2024.1.5,Win32,40,684250e4f00cb30b92d1fa88,,,,,,,,,,,174.6244,175.1229,,,175.3742,175.8976,left,0.4967,,,,,,,,,0.45,,,,,,175.1229,175.3741,175.8977,"[-0.10157449664905702,0.09597550096047396]",100.0,"[0.13991237030131745,-0.09431512965982701]",4.0,"[0.15544911755626878,-0.013142269750752791]",4.0,"[-0.013073851829328206,-0.10759300283256445]",4.0,"[0.06137328732509153,-0.07318838055145754]",100.0,"[0.013167601679423286,-0.06469239618922248]",100.0,"[0.03751526382145444,-0.14208672649287768]",4.0,"[-0.016892435373402962,-0.024468197771571266]",100.0,"[-0.0607739522970211,0.021555527695959014]",100.0,"[-0.16571526384205096,0.022094893522180883]",100.0,"[-0.06276114271962446,-0.0897820705040728]",100.0,"[0.08659264243707161,0.0474883231603936]",4.0,"[-0.14050308018687754,-0.01719341806502805]",100.0,"[-0.00375037385444023,0.013533149749853616]",100.0,"[-0.042775643790029266,0.08999355603621696]",4.0,"[-0.01683268124598048,0.1432125650310096]",4.0,"[0.026957675214647925,0.18056385459009197]",100.0,"[0.1647745985404018,-0.05965711206721502]",4.0,"[0.1253155373278097,-0.14625025218940663]",100.0,"[0.02696831483100041,-0.012860966695331938]",4.0,"[0.03507219603737262,0.0909551835904264]",4.0,"[0.13810410273348822,0.13802306919985702]",100.0,"[-0.14571615270929605,-0.06272171991705089]",4.0,"[-0.07071478356086164,0.13176518397241765]",4.0,"[-0.14192115524051807,0.089003372109554]",4.0,"[0.0667303842071876,-0.026326482191197487]",100.0,"[-0.08471912829017687,-0.1799409214608835]",4.0,"[0.157017645655615,0.038458104342309056]",100.0,"[0.15307504687247342,0.1008477725544093]",4.0,"[0.05206499274356086,0.01844798155922935]",4.0,"[0.1141793053677747,-0.033329908990155664]",4.0,"[-0.11233964763268166,0.05166557456731135]",4.0,"[0.02,0.02]",176.9971,0.0,12.0,12.0,139.0,1.0,,,,,,,
,,,,,,,664b7ccb73885d9432d06796,684428ccf239b1c8cdfef85e,2025-06-07_15h01.45.850,shape_ratio,2024.1.5,Win32,40,684250e4f00cb30b92d1fa88,,,,,,,,,,,176.9981,177.4966,,,177.7478,178.1456,right,0.3738,,,,,,,,,0.45,,,,,,177.4967,177.7476,178.1456,"[-0.1036618768847137,0.09309755648589668]",4.0,"[-0.15590119870236396,-0.06545978593085777]",100.0,"[-0.03384100383085832,-0.13924728221751184]",4.0,"[-0.05920754977796552,0.14224382701363159]",4.0,"[-0.18580370309660507,-0.006849136864451768]",4.0,"[-0.021750733724423266,0.06086167467020183]",100.0,"[0.033910585872807264,0.10788202293996012]",4.0,"[0.005111730085116744,-0.01052935749530795]",4.0,"[-0.021512161969357273,-0.0451151428675435]",4.0,"[0.03067897516017801,-0.15936421671099077]",4.0,"[-0.1243645585215496,-0.13779078993248733]",100.0,"[0.039615073958338805,0.03188089623573118]",100.0,"[0.06944337028569825,-0.041791991418742395]",100.0,"[0.1986573597183945,-0.018482334635180214]",100.0,"[-0.11201877062150434,-0.018116616182463872]",4.0,"[0.14157112378499997,0.021183634739999232]",100.0,"[-0.034403583375991434,0.021612199341882805]",4.0,"[0.14842387425470513,-0.01900399904983569]",100.0,"[-0.0037611362784812146,0.19310206560591872]",4.0,"[0.027640739151333797,-0.09420687853842388]",4.0,"[0.08235034237661737,-0.09683562177659036]",100.0,"[0.1302683569485799,-0.05505356837306332]",100.0,"[-0.1496737932752921,0.06483336731618883]",4.0,"[0.05156903852730032,0.14826072473058413]",100.0,"[0.16471745104866073,-0.0768631471640946]",100.0,"[0.14427903491275032,0.08423317491652306]",4.0,"[0.07814514225181397,0.09715315793468696]",4.0,"[0.19057189972145022,0.0390687062788926]",4.0,"[0.09754618610147277,0.15110832971082916]",100.0,"[-0.09599614497310291,0.035032204652691516]",4.0,"[-0.19267417634107478,0.04401705299210167]",100.0,"[-0.07870497245323786,-0.14165765447384904]",4.0,"[0.02,0.02]",179.2448,0.0,13.0,13.0,131.0,1.0,,,,,,,
,,,,,,,664b7ccb73885d9432d06796,684428ccf239b1c8cdfef85e,2025-06-07_15h01.45.850,shape_ratio,2024.1.5,Win32,40,684250e4f00cb30b92d1fa88,,,,,,,,,,,179.2464,179.7445,,,179.9956,180.6191,right,0.5992,,,,,,,,,0.45,,,,,,179.7446,179.9955,180.6193,"[-0.007031884048319473,0.03603441112217527]",4.0,"[0.02476528187800144,-0.02365115922726419]",100.0,"[-0.02501413638838921,-0.11890101518362316]",4.0,"[-0.09555781843566112,0.057994491836516976]",4.0,"[0.1592543331392228,0.010467604537721992]",4.0,"[0.11036302187147612,0.07701027850606008]",100.0,"[0.04184345734565056,-0.16316681695072383]",4.0,"[0.009385959481201835,0.12328149134367103]",4.0,"[-0.036970409008545785,0.1945296883720082]",100.0,"[0.051673594218180526,-0.08999577845006859]",100.0,"[0.1358902607636839,0.11592640756673643]",100.0,"[0.18748060275412623,-0.04506286367710625]",100.0,"[-0.0860416061286278,-0.15204200148694527]",4.0,"[-0.13414483427022125,0.12022487779669504]",100.0,"[-0.07503478811635902,-0.007882361475465812]",100.0,"[0.11431179954449887,-0.1358578718489426]",4.0,"[0.04240668628223224,0.0838823210386539]",100.0,"[0.09452795250210319,-0.041824078343226656]",100.0,"[0.07358445977708099,-0.003893635116228837]",4.0,"[-0.016227576514995148,-0.04650017050817666]",4.0,"[-0.07983846309758434,0.18031639897536772]",4.0,"[0.13013825433495696,-0.07502529191870408]",100.0,"[-0.1774137543366712,0.008870117150019435]",4.0,"[0.0029582545698867532,-0.1734135474278889]",4.0,"[0.12076823631125187,0.03640551329950173]",4.0,"[0.06059609589089885,0.0448771542023514]",4.0,"[-0.18490852298489988,0.06193392804001774]",4.0,"[-0.15894697917735068,-0.07443969631468561]",4.0,"[0.0858998449082974,0.11837827446719361]",100.0,"[0.013820975357401007,0.16413343980391354]",100.0,"[-0.10898045318159948,-0.06578891438251788]",100.0,"[0.19297865679174453,0.04724420345483745]",4.0,"[0.02,0.02]",181.7179,0.0,14.0,14.0,130.0,1.0,,,,,,,
,,,,,,,664b7ccb73885d9432d06796,684428ccf239b1c8cdfef85e,2025-06-07_15h01.45.850,shape_ratio,2024.1.5,Win32,40,684250e4f00cb30b92d1fa88,,,,,,,,,,,181.7189,182.2167,,,182.4668,182.967,right,0.4766,,,,,,,,,0.4,,,,,,182.2167,182.4668,182.9671,"[-0.05051723580775756,0.002578821985760269]",4.0,"[0.12524626600824182,-0.15377027729690412]",100.0,"[-0.00731311536459357,0.07647102258996882]",4.0,"[0.03368372231674459,0.19610691925814225]",4.0,"[0.15647713195994792,-0.00394645293741786]",100.0,"[0.08388387802008115,0.1694096349489112]",100.0,"[-0.03176366866319739,-0.16907834305694172]",4.0,"[0.1481143514923036,-0.07598083966929126]",100.0,"[0.06548018553320092,0.05926990481938611]",100.0,"[0.06779028473921246,-0.006474524847616392]",4.0,"[-0.05710137600770318,0.12199115633019532]",100.0,"[-0.16178301625489921,-0.025255339217402206]",4.0,"[-0.10105240756115208,0.13093214266918632]",100.0,"[-0.1311976352820027,0.044872418494137374]",4.0,"[-0.15022152028769145,0.0832241999782888]",4.0,"[-0.02641867723587333,0.04123123067350763]",4.0,"[0.15272818606529973,0.0921975991641768]",4.0,"[-0.09737048817815293,0.07772654725553464]",4.0,"[-0.029935612868816484,-0.05767658265614442]",4.0,"[0.08480018609656897,-0.17009248157576382]",4.0,"[0.19023785360143722,-0.051392265795459836]",4.0,"[0.014686332031038411,-0.1803797487895991]",100.0,"[-0.12495145594671254,-0.14333232482654398]",4.0,"[-0.08148571675527884,-0.1590046834962112]",4.0,"[-0.018574079549233378,0.15347913009834097]",100.0,"[0.1083813682726932,-0.08480093497150998]",100.0,"[0.015361593032062113,0.11735462025906482]",100.0,"[0.10291888558267112,0.09081599194078807]",4.0,"[0.15646447983324813,0.04076198689338549]",4.0,"[-0.14528924848138045,0.12372443284750434]",100.0,"[0.06331028755214457,-0.10131632296715373]",4.0,"[-0.004784293857696676,-0.09237645620500026]",100.0,"[0.02,0.02]",184.0649,0.0,15.0,15.0,159.0,1.0,,,,,,,
,,,,,,,664b7ccb73885d9432d06796,684428ccf239b1c8cdfef85e,2025-06-07_15h01.45.850,shape_ratio,2024.1.5,Win32,40,684250e4f00cb30b92d1fa88,,,,,,,,,,,184.0654,184.5646,,,184.8145,185.439,left,0.5966,,,,,,,,,0.4,,,,,,184.5646,184.8145,185.439,"[-0.12069270659973887,-0.06162721903422205]",100.0,"[0.0023110757686944047,0.1619489003495931]",4.0,"[-0.07583905565142411,-0.17687247295561911]",100.0,"[0.14933796234883132,0.02545230877591695]",4.0,"[0.10969884162370708,-0.06247415589982807]",100.0,"[0.047904954047987384,-0.10223701517823383]",100.0,"[0.014559236775352051,-0.14937006993643215]",100.0,"[-0.06423114257941694,-0.07327045161330081]",4.0,"[0.12975823761063326,0.11987201337943743]",100.0,"[-0.14559229130331441,0.03120785303595083]",4.0,"[-0.06626121176272444,0.1297687285176687]",4.0,"[-0.016803891156392595,-0.013941161329231054]",100.0,"[-0.022737592722086662,-0.19567700409841884]",4.0,"[0.013778113375480744,-0.056020682814911654]",4.0,"[0.05984171798157323,0.0010476388773663545]",4.0,"[0.16468183688687907,-0.10079703331622436]",100.0,"[0.11193679293197326,0.16228326469257487]",4.0,"[0.06009881665790851,0.18293655979270806]",4.0,"[0.16207330407620313,-0.03352898601932948]",100.0,"[-0.08769364719482033,0.029456893996012947]",4.0,"[0.014519840961282143,0.01867352064445008]",100.0,"[0.04541767262616183,0.05131183271241182]",4.0,"[0.06425241057051288,-0.06212426182287175]",4.0,"[-0.026217010492535556,-0.13624517959976717]",4.0,"[-0.020007706807991056,0.11027613170386072]",4.0,"[-0.08634932723111705,0.17329040094803105]",100.0,"[0.05728416330498612,-0.16018979910644135]",4.0,"[-0.1670642788341668,0.10327664469999788]",100.0,"[-0.11500076168927587,-0.10860911723539708]",100.0,"[0.17142675429925922,0.05992301414536407]",4.0,"[0.12927057022444713,0.0716455437178867]",4.0,"[0.19002336271020795,0.009172885949311399]",4.0,"[0.02,0.02]",186.5386,0.0,16.0,16.0,153.0,1.0,,,,,,,
,,,,,,,664b7ccb73885d9432d06796,684428ccf239b1c8cdfef85e,2025-06-07_15h01.45.850,shape_ratio,2024.1.5,Win32,40,684250e4f00cb30b92d1fa88,,,,,,,,,,,186.5396,187.0371,,,187.2876,187.713,right,0.4173,,,,,,,,,0.45,,,,,,187.0372,187.2875,187.7132,"[-0.003276055125395521,0.13908974259573276]",100.0,"[-0.09072088242045576,0.1425373351421195]",4.0,"[0.1917141191405132,0.015330428674260536]",4.0,"[-0.10745343868151605,0.08996659160209985]",4.0,"[0.044607757273573634,-0.060157559047176346]",4.0,"[0.09306118308388858,0.07375424859512307]",4.0,"[0.120986299268876,0.010850871942875212]",100.0,"[0.11479931061015032,-0.1333207365750024]",100.0,"[-0.03681323500658099,-0.01881499545204611]",4.0,"[0.007557588327849704,-0.10601033472356532]",100.0,"[0.18496660975923387,0.07493402133585031]",4.0,"[-0.0357433855113254,-0.09699113560645832]",4.0,"[-0.18152075764598138,-0.055424311653594814]",4.0,"[-0.0907894950965279,0.035837549179418]",4.0,"[-0.130594804147107,-0.11172589056280101]",4.0,"[0.059409717378659056,-0.16478867310334094]",100.0,"[-0.16349544942966635,0.09497387468543388]",100.0,"[-0.05117560593679246,-0.15191359442055444]",100.0,"[0.07809806639872159,0.030274717805865232]",100.0,"[0.07542574959471245,0.11743980072343653]",4.0,"[-0.16420553339294708,0.043297969186916814]",4.0,"[-0.05489369595489905,0.11437610914882831]",100.0,"[0.02479528098618167,-0.006135283361396681]",100.0,"[-0.13791289446985378,0.129507147456953]",4.0,"[-0.10886303729487727,-0.05178140664736751]",4.0,"[0.12992713070373857,-0.052316541497135736]",100.0,"[0.025827813543443635,0.08758959283604963]",4.0,"[0.18631553384097296,-0.0380063943961901]",100.0,"[0.15483188760639124,-0.11858378894121437]",4.0,"[0.018156714594646323,-0.16405350031518737]",4.0,"[0.07856594132857661,-0.014634754582576417]",100.0,"[0.1188485909745386,0.1159232255437308]",100.0,"[0.02,0.02]",188.8116,0.0,17.0,17.0,136.0,1.0,,,,,,,
,,,,,,,664b7ccb73885d9432d06796,684428ccf239b1c8cdfef85e,2025-06-07_15h01.45.850,shape_ratio,2024.1.5,Win32,40,684250e4f00cb30b92d1fa88,,,,,,,,,,,188.8128,189.3107,,,189.5603,189.9358,left,0.355,,,,,,,,,0.6,,,,,,189.3108,189.5602,189.9359,"[-0.13621498776437724,-0.034605749278338434]",100.0,"[-0.12503727294116587,0.1542649612581516]",4.0,"[-0.14153328507548715,0.03548191328115477]",100.0,"[0.1772386361246419,-0.0591124720702856]",100.0,"[-0.017112711454167148,0.13875065312898113]",4.0,"[0.12564990610250398,-0.08135604795181269]",100.0,"[-0.058772495512078596,0.03718523308017424]",100.0,"[-0.07891753623592324,-0.10309125379035615]",100.0,"[0.1511688694566348,0.00938082919270648]",4.0,"[0.12831639130951766,-0.03519779176639147]",4.0,"[-0.04602590272429663,0.1018474052287776]",100.0,"[-0.0716605583544417,-0.0041461609984529855]",100.0,"[0.020248783590812634,-0.10809223381158989]",100.0,"[0.14183283030665253,-0.12212490238507158]",100.0,"[-0.035753857304169724,-0.1901726886929664]",4.0,"[0.0758382431594862,0.17171825710467695]",100.0,"[0.026855963810457656,0.16380492561637564]",100.0,"[-0.14175767570767742,-0.07536434737514634]",4.0,"[0.12854002086983865,0.09340531027939708]",4.0,"[-0.0007731123862410846,0.07857206320941383]",4.0,"[0.09763569293947157,0.036965039228671843]",100.0,"[0.0498084277283772,-0.1775173082448644]",4.0,"[-0.07305208050090053,-0.05952938182042444]",100.0,"[0.09148861896482295,-0.17418926834377893]",100.0,"[-0.1096937171626587,-0.15997074616920376]",4.0,"[-0.09628266523427158,0.05108632918347013]",100.0,"[-0.11532382878379702,0.10529369388895522]",4.0,"[-0.06328215015023646,0.17818486336908296]",100.0,"[-0.018209305246217,-0.07785721683079289]",100.0,"[-0.19321709462366732,-0.045123692459392344]",4.0,"[0.03115550441577193,0.12077063523539851]",100.0,"[0.08463025472158238,-0.061644577463510396]",4.0,"[0.02,0.02]",191.0344,0.0,18.0,18.0,31.0,1.0,,,,,,,
,,,,,,,664b7ccb73885d9432d06796,684428ccf239b1c8cdfef85e,2025-06-07_15h01.45.850,shape_ratio,2024.1.5,Win32,40,684250e4f00cb30b92d1fa88,,,,,,,,,,,191.0355,191.5338,,,191.7849,192.1588,right,0.3587,,,,,,,,,0.45,,,,,,191.5339,191.7848,192.1591,"[0.011213751579592942,0.17126970195313349]",4.0,"[0.049907734661283745,-0.03853264642773839]",4.0,"[-0.07590853877455822,0.011043273599790642]",4.0,"[-0.14423827537021128,0.11490495318740931]",100.0,"[0.15650393394180498,-0.018837887572156237]",100.0,"[0.06282673237798621,0.05376811723473412]",100.0,"[0.1236914083438324,0.15026308738891586]",100.0,"[0.004314717048498399,0.08719002222372575]",4.0,"[-0.09682632504708015,0.10600815564976442]",100.0,"[0.10249794747706867,0.0231817433355164]",4.0,"[0.017878050038691754,-0.07263896355383656]",4.0,"[-0.10951855733653958,-0.15952489427428343]",4.0,"[0.022606453216475718,0.04655156955316564]",100.0,"[0.11160248870875612,-0.09764466856440164]",4.0,"[-0.03346911646492098,-0.05498890020851289]",100.0,"[0.05948632213450842,0.13976259724309947]",4.0,"[0.07146339402804511,-0.16609301964782233]",4.0,"[0.11043716315378947,-0.056656821900559776]",100.0,"[-0.1431145773791087,-0.008430735674977343]",4.0,"[0.016229161162564572,-0.13599050208016153]",4.0,"[-0.06603838725789983,0.05443299752235875]",4.0,"[-0.12164628381963055,-0.09434938673862027]",100.0,"[-0.022947075788527112,-0.16095645042522425]",4.0,"[-0.0495209496114121,-0.1147203621566985]",4.0,"[-0.02288487996234151,0.14916987210478944]",4.0,"[0.09665724823869977,0.08035180774374075]",4.0,"[-0.0686384723199482,0.17560201497804814]",100.0,"[0.18851248821270342,0.021667443805137836]",100.0,"[-0.0018371835686870474,0.014114348910325139]",4.0,"[0.17135039667417853,-0.08505138052389762]",100.0,"[0.08642158257267088,0.17600066655544366]",100.0,"[-0.06275004517763577,0.1350241396227059]",100.0,"[0.02,0.02]",193.257,0.0,19.0,19.0,140.0,1.0,,,,,,,
,,,,,,,664b7ccb73885d9432d06796,684428ccf239b1c8cdfef85e,2025-06-07_15h01.45.850,shape_ratio,2024.1.5,Win32,40,684250e4f00cb30b92d1fa88,,,,,,,,,,,193.2577,193.7578,,,194.0127,194.356,left,0.3105,,,,,,,,,0.5,,,,,,193.7579,194.0127,194.356,"[0.04875334275763756,0.10420248693541481]",100.0,"[-0.15527162357924995,0.09811663479060947]",100.0,"[-0.10675726764056354,0.09487884308151748]",4.0,"[-0.00021551968461262097,0.007072206303894643]",100.0,"[0.009902532992683337,-0.10720015154752408]",100.0,"[-0.19761196114270654,-0.014193239604220954]",100.0,"[-0.037436780340003264,0.02471030995323824]",100.0,"[-0.012934611261981767,-0.1901852933195002]",100.0,"[-0.07355774040692516,-0.06067643680215501]",100.0,"[0.10094473603837849,0.0048291121361618405]",100.0,"[0.07770210446236468,0.1545498620124641]",100.0,"[-0.027049555848865873,0.18848751747804532]",4.0,"[0.04571090649279225,-0.057918652404903674]",4.0,"[0.009819588715950154,0.16580014281546235]",100.0,"[-0.06789471102392255,0.1540326955125375]",4.0,"[0.19642470849962723,0.03191234279936239]",4.0,"[-0.026264716198305418,0.08281263946648909]",4.0,"[0.08425199204185907,-0.1149760205679051]",100.0,"[-0.12344501676296912,0.0008496237767526515]",4.0,"[-0.1842227038367527,0.04713194298090159]",100.0,"[-0.1579638655267591,-0.09991207274690829]",4.0,"[-0.09021813683385549,-0.14450398650373988]",100.0,"[-0.017086394277386313,-0.06468853263166274]",4.0,"[0.05271632764853889,-0.008576766303844297]",100.0,"[0.13353960580759205,0.061749786813288916]",4.0,"[0.04886889174251668,-0.19170121054667683]",4.0,"[-0.03578658266716328,-0.11657181767954433]",4.0,"[0.03783345230073539,0.06321211727215105]",4.0,"[-0.07653517821406755,0.0036976753550199666]",100.0,"[0.09428202343482053,0.10443644862708099]",4.0,"[0.13054049460825246,-0.023744434306480367]",4.0,"[0.15748591870712605,-0.08312624058770694]",4.0,"[0.02,0.02]",195.4557,0.0,20.0,20.0,112.0,1.0,,,,,,,
,,,,,,,664b7ccb73885d9432d06796,684428ccf239b1c8cdfef85e,2025-06-07_15h01.45.850,shape_ratio,2024.1.5,Win32,40,684250e4f00cb30b92d1fa88,,,,,,,,,,,195.4572,195.955,,,196.1875,196.6053,left,0.3791,,,,,,,,,0.5,,,,,,195.9551,196.1875,196.6056,"[-0.10682716117809761,-0.13500948150500675]",100.0,"[-0.1967653449944893,-0.0046758956195512265]",4.0,"[-0.05548467219879734,-0.02890005859505834]",100.0,"[-0.14143136310412927,-0.06672239535460314]",100.0,"[0.14815135059759196,-0.1022679409381249]",100.0,"[0.04037577718646579,0.01883002875247442]",4.0,"[0.04689035268454837,-0.026630464256947366]",4.0,"[0.12617833384325183,0.035033202942390415]",4.0,"[-0.14046076766240287,0.1210585990625652]",100.0,"[0.18945999128037647,0.01038622038402061]",100.0,"[-0.09839792601983068,0.059997057866623606]",100.0,"[-0.1822595876034402,0.05644165648114267]",100.0,"[-0.0686202360586265,-0.1534228384381736]",100.0,"[-0.1822859512647206,-0.07454172567922031]",4.0,"[-0.024986290287819696,0.18730918448383665]",4.0,"[-0.09842928961050426,-0.06042686685176471]",100.0,"[0.1139320008221947,-0.15385117208438648]",4.0,"[-0.012862707789591808,0.12263774558803066]",4.0,"[-0.0042366894368865505,-0.02910187680899307]",4.0,"[-0.00987308847839806,-0.07974224377803069]",4.0,"[-0.1504250274105626,-0.12015737857342704]",100.0,"[0.11997665491463887,0.14442680247574904]",4.0,"[-0.025052600287160737,0.06347001748524825]",4.0,"[0.057004287270132965,0.10350665637827149]",100.0,"[0.09152570527459049,-0.08725850551319475]",100.0,"[0.1762011958498394,0.0659197477867768]",4.0,"[0.09707857496338443,-0.031656713529130756]",100.0,"[-0.0177346660911632,-0.16381421827705667]",4.0,"[0.16789084304175522,-0.042390745138988085]",4.0,"[-0.04418150733274209,0.01871982462344975]",100.0,"[-0.07761985539743625,0.09943362422328636]",4.0,"[0.043747124491806524,-0.10736067416456573]",100.0,"[0.02,0.02]",197.7034,0.0,21.0,21.0,116.0,1.0,,,,,,,
,,,,,,,664b7ccb73885d9432d06796,684428ccf239b1c8cdfef85e,2025-06-07_15h01.45.850,shape_ratio,2024.1.5,Win32,40,684250e4f00cb30b92d1fa88,,,,,,,,,,,197.7049,198.2031,,,198.4384,198.8532,right,0.3777,,,,,,,,,0.4,,,,,,198.2032,198.4383,198.8535,"[0.12861430834508839,0.0037378735474780603]",100.0,"[-0.06847688221829187,0.12305838441484818]",4.0,"[0.11689565789034433,0.155614362698857]",4.0,"[0.01593711320211003,-0.020355523348712132]",4.0,"[-0.1334550789123047,-0.04131816218985665]",4.0,"[-0.08899356450145296,-0.06092814266336359]",4.0,"[-0.023139722053889412,0.0854337752806005]",4.0,"[-0.1758841460525055,-0.013299226938210163]",100.0,"[0.058555471922470535,0.06690650119791051]",4.0,"[-0.1593450527343118,0.025500921997110206]",4.0,"[0.07787557401151564,0.13126610554014856]",4.0,"[0.1520334641024633,0.0418996895510052]",4.0,"[-0.01205592782794136,0.01853658067634542]",100.0,"[-0.12688528777109945,-0.10724879802800169]",100.0,"[0.017149971730615016,-0.10266885517323822]",4.0,"[-0.05934076131723998,0.19047002652168132]",100.0,"[0.06941541031207156,0.0001547090073375206]",100.0,"[0.05501828197918048,-0.06371251719204107]",100.0,"[-0.08738688342652572,0.07971765920889058]",4.0,"[0.16442757417858056,-0.1134006486679189]",4.0,"[0.00830849471200611,-0.16516860624196206]",100.0,"[-0.0089417057665349,0.15289420645213408]",100.0,"[0.10363737631882493,-0.06845710827813595]",4.0,"[-0.11844707683761958,0.13025353978459195]",4.0,"[-0.031197610836096533,-0.1830571733951072]",100.0,"[0.0327069541734575,0.10088612335193473]",4.0,"[0.0831895596035516,-0.12221402675748341]",4.0,"[-0.09283779271371295,-0.16449401165895042]",4.0,"[-0.050316055837600536,-0.1327973964780385]",100.0,"[-0.1020337021320266,0.036690199151106766]",100.0,"[0.16327253040948206,-0.04680964524857513]",4.0,"[-0.14275148917686342,0.09134413020806076]",100.0,"[0.02,0.02]",199.9514,0.0,22.0,22.0,162.0,1.0,,,,,,,
,,,,,,,664b7ccb73885d9432d06796,684428ccf239b1c8cdfef85e,2025-06-07_15h01.45.850,shape_ratio,2024.1.5,Win32,40,684250e4f00cb30b92d1fa88,,,,,,,,,,,199.9532,200.4511,,,200.7089,201.3758,left,0.6285,,,,,,,,,0.6,,,,,,200.4512,200.7088,201.376,"[-0.02385767810218285,0.060521740043274735]",100.0,"[-0.0418107264232505,0.17672555413713248]",4.0,"[0.16833475040436607,-0.0015284437736870521]",100.0,"[-0.003554017490273052,-0.0856139447258168]",100.0,"[0.039118913292187175,-0.0655240970000184]",4.0,"[-0.19339175574880002,-0.020758003722455603]",4.0,"[-0.11268767568255043,0.1550899407506453]",4.0,"[0.09516122417139176,-0.12650564830428399]",100.0,"[0.040444937595606106,-0.1716953968928185]",4.0,"[-0.09648858309369676,0.05490869112658888]",4.0,"[0.052873233107851976,0.14350981061790047]",100.0,"[-0.08172888884772567,-0.1725799155479586]",100.0,"[0.0931326490205881,0.01926411769103873]",4.0,"[0.021880845416404462,0.04642132198348282]",100.0,"[0.12786556780719446,0.04998560807788992]",4.0,"[-0.16673893376018462,0.025398286331335618]",100.0,"[0.18464760876246195,-0.06786948218536393]",100.0,"[0.11618785352657708,0.15100228489214043]",100.0,"[-0.14275614176996756,0.12860459867092008]",100.0,"[0.07098430326559317,0.07684755314406982]",4.0,"[-0.002675980580911882,-0.043007260755075605]",100.0,"[-0.1470828914622574,-0.06138914752792704]",100.0,"[-0.1734569534157165,0.0923976867522637]",100.0,"[0.08657095572799145,0.12113271897593474]",100.0,"[-0.06924124096762464,-0.12260252989424522]",100.0,"[-0.017033820132192623,-0.16421178512965978]",4.0,"[0.01291594909730006,0.11607878446814811]",100.0,"[-0.11611128789425419,-0.004195984810852215]",100.0,"[-0.06489839127492458,0.13125821914053773]",4.0,"[0.046401020486392545,0.008221264424170087]",4.0,"[-0.010442068593650015,0.021455099046979918]",100.0,"[0.09939599503692421,-0.07815519168966853]",4.0,"[0.02,0.02]",202.4741,0.0,23.0,23.0,46.0,1.0,,,,,,,
,,,,,,,664b7ccb73885d9432d06796,684428ccf239b1c8cdfef85e,2025-06-07_15h01.45.850,shape_ratio,2024.1.5,Win32,40,684250e4f00cb30b92d1fa88,,,,,,,,,,,202.4755,202.9732,,,203.2096,203.7233,left,0.4776,,,,,,,,,0.45,,,,,,202.9733,203.2095,203.7235,"[0.0391113592139662,-0.022596908308527192]",4.0,"[-0.053921808656013884,-0.11098725604882964]",100.0,"[0.1902954143311115,0.0019834729226703767]",100.0,"[-0.1666315870531812,0.10407477811497136]",4.0,"[-0.0827682191873082,-0.04898598935819523]",4.0,"[0.02632665954981629,-0.0933575218503915]",100.0,"[-0.14881186786146366,0.057813576069554944]",4.0,"[0.14113359004368123,0.09003406490252616]",4.0,"[-0.14679233955828888,-0.004705210676628473]",100.0,"[0.07047180719357657,-0.05509101222480912]",4.0,"[-0.1298654382359027,-0.11490540228330201]",100.0,"[0.009979678774312235,0.15248893526253463]",100.0,"[-0.011929654470910038,-0.05964853751837456]",4.0,"[0.05449193608703069,0.10103920031196523]",100.0,"[-0.01832069283535091,0.08129763704771639]",4.0,"[0.05059296574730194,-0.16869339301336295]",100.0,"[-0.027874425925730657,0.005892952901042712]",100.0,"[0.09480478564500919,0.06687016395422297]",4.0,"[-0.09539773992781185,0.03491295579597754]",4.0,"[0.16847413277909035,-0.04167970056729889]",100.0,"[0.10951175539070604,-0.1562321502387423]",4.0,"[0.10162707572699996,0.007890162574174159]",100.0,"[-0.19121741938556644,-0.013794978699771773]",4.0,"[-0.06766294285809216,0.16451052811543357]",100.0,"[0.005290399286865663,0.030376066180973167]",4.0,"[-0.12587211037734936,-0.0723690216752958]",100.0,"[0.060626104117771404,-0.11815381284681822]",4.0,"[-0.10548080514052596,0.07471808779251542]",4.0,"[0.14348779244933452,-0.005100918401004053]",4.0,"[0.059645789638844426,0.15541793688082914]",100.0,"[-0.06208511662301228,-0.16283416249722682]",4.0,"[-0.04634963022605218,0.1274378225374003]",4.0,"[0.02,0.02]",204.8214,0.0,24.0,24.0,129.0,1.0,,,,,,,
,,,,,,,664b7ccb73885d9432d06796,684428ccf239b1c8cdfef85e,2025-06-07_15h01.45.850,shape_ratio,2024.1.5,Win32,40,684250e4f00cb30b92d1fa88,,,,,,,,,,,204.822,205.3211,,,205.5766,206.2218,left,0.6055,,,,,,,,,0.6,,,,,,205.3211,205.5766,206.2221,"[-0.009933154709542213,0.1974607303238092]",4.0,"[0.03834026739821288,0.12272442884523567]",4.0,"[-0.039257385649009165,0.07546947036316391]",100.0,"[-0.07656407844320026,0.16908521831613643]",4.0,"[-0.09134989203574025,0.052788320861337786]",100.0,"[-0.003521450720464686,-0.01129642238051838]",100.0,"[0.06417547040481601,0.015590246845326443]",100.0,"[-0.04472699139210068,0.13329256033192452]",100.0,"[0.04452776262082264,-0.14971989577343028]",100.0,"[0.1264778370488025,0.11923394466465097]",100.0,"[0.030444958965056307,-0.03511680870195008]",100.0,"[0.19921980020513236,-0.01506748164862145]",100.0,"[0.007757044601102853,-0.12876952313758747]",4.0,"[0.10398132101139634,0.15671105464091842]",100.0,"[-0.15271254607248794,0.07367030497914123]",4.0,"[-0.12240603310888258,-0.08735155758678571]",4.0,"[-0.10203793455148086,-0.04032648092571531]",100.0,"[0.09590796397479807,0.07181833441130182]",4.0,"[-0.05987782941301438,-0.13602139544863878]",100.0,"[0.06089223123037821,-0.06547590731484508]",100.0,"[-0.027990340352048317,-0.1760037889319634]",4.0,"[0.022022417675956175,0.07834779260209329]",4.0,"[0.16898910269853107,-0.09663598959730864]",4.0,"[0.004851321873884695,-0.07799273853272963]",100.0,"[-0.04902049485535166,0.018782201259595486]",100.0,"[0.13094838605148973,-0.11774311833248566]",4.0,"[-0.1223168477946093,0.012316593851531598]",100.0,"[-0.18056195355939803,-0.041126592276937476]",100.0,"[0.17038636242030697,0.03052999096635753]",100.0,"[-0.04332238628313783,-0.09881270448988973]",4.0,"[0.15774859454165946,0.08031413364881275]",100.0,"[0.15761620366863868,-0.01712991919820173]",4.0,"[0.02,0.02]",207.3199,0.0,25.0,25.0,55.0,1.0,,,,,,,
,,,,,,,664b7ccb73885d9432d06796,684428ccf239b1c8cdfef85e,2025-06-07_15h01.45.850,shape_ratio,2024.1.5,Win32,40,684250e4f00cb30b92d1fa88,,,,,,,,,,,207.3215,207.8195,,,208.0709,208.4437,right,0.3536,,,,,,,,,0.45,,,,,,207.8197,208.0707,208.4438,"[0.061103838768847264,-0.0799993298168465]",4.0,"[0.08294013097996727,0.05281136298521828]",4.0,"[-0.08274115365598225,0.06306074436029747]",100.0,"[0.11606547374640469,-0.15779681211896235]",4.0,"[0.03373265587818585,0.1813432602204104]",4.0,"[-0.14645448133147754,-0.00013615469338751433]",100.0,"[-0.16512068307431335,0.061922013526240036]",4.0,"[0.05849512847820866,-0.12288508235977287]",100.0,"[0.03252887761291723,0.12406768011640212]",100.0,"[0.1949091947291375,-0.0010570892341038131]",4.0,"[0.13050731954658698,0.07818328698648432]",100.0,"[-0.02741746712317959,-0.13740170913884808]",4.0,"[0.14548016010874798,-0.11701371716078786]",100.0,"[0.12206764614103358,0.017820675554195434]",4.0,"[-0.13483059629972227,0.10990888804494493]",4.0,"[0.02241176493857251,-0.17511546806102946]",4.0,"[-0.012245582911121301,0.11683072838675435]",4.0,"[0.026971856619945996,0.08400506826697991]",100.0,"[0.04372516165237054,0.008256058178283582]",4.0,"[-0.04501227912850312,0.17234332942772584]",100.0,"[0.11732232308916055,0.16126353278366296]",4.0,"[-0.04018518433875928,-0.03164607951694462]",100.0,"[-0.11547116623856357,0.15356145773535246]",4.0,"[-0.17298043002276003,-0.05108578243453484]",4.0,"[-0.07402932915587267,-0.15513003663464253]",4.0,"[0.11439805846432448,-0.07413879066525138]",100.0,"[0.00700650461150887,-0.05235789678137364]",100.0,"[0.16950607095937065,0.09873320551152963]",4.0,"[-0.03926779640009637,0.08279915246356583]",4.0,"[-0.18619022633227073,-0.007822203285425728]",100.0,"[-0.1292519488146127,-0.13476457609891196]",100.0,"[-0.07310123413309053,0.11400603426593159]",100.0,"[0.02,0.02]",209.5421,0.0,26.0,26.0,141.0,1.0,,,,,,,
,,,,,,,664b7ccb73885d9432d06796,684428ccf239b1c8cdfef85e,2025-06-07_15h01.45.850,shape_ratio,2024.1.5,Win32,40,684250e4f00cb30b92d1fa88,,,,,,,,,,,209.5425,210.0423,,,210.2917,210.767,right,0.4526,,,,,,,,,0.4,,,,,,210.0424,210.2917,210.7672,"[0.12888326468000308,0.07960799453121215]",4.0,"[0.13405768563619744,-0.12424729398980662]",4.0,"[-0.01639577049357727,0.18565694981774328]",4.0,"[0.0621875369840497,0.1537037364461356]",4.0,"[-0.06897647963460724,-0.08666625843695869]",100.0,"[-0.09762633123997283,0.018297080675298914]",100.0,"[-0.08391052705199187,0.13737034407493928]",4.0,"[0.013520509982535978,0.05005228495553418]",4.0,"[0.14607344326491103,-0.04148498504663476]",4.0,"[0.034214734666067496,-0.18598214781137876]",100.0,"[-0.16266909754799128,-0.048576588228553416]",100.0,"[0.07480446981415545,0.11028335827059708]",4.0,"[-0.038015502675450355,0.1483531971722441]",100.0,"[-0.14438604745461114,0.04712438662042001]",100.0,"[0.17357455154267895,-0.08842513409101443]",100.0,"[0.16734724289064695,0.04777940134907605]",4.0,"[-0.10064111056104025,-0.16132591175826477]",100.0,"[-0.09656290536464993,0.06312567259979945]",100.0,"[0.0300898799135065,0.1886176340723246]",100.0,"[0.12877013580854643,0.0062006585415510865]",4.0,"[-0.01056719871547387,-0.03660998490473552]",4.0,"[-0.16542309742586236,-0.0977685866862425]",4.0,"[0.0512621170147785,-0.016588119544925346]",100.0,"[0.10722018470160899,0.16129622833837243]",100.0,"[-0.10415670646907388,-0.1120014474328256]",100.0,"[-0.012734144672257898,0.01587253911611326]",4.0,"[0.07724590069318646,0.048048531324693826]",4.0,"[-0.06414789149459493,-0.1302611356252191]",4.0,"[-0.13221769931336813,0.13649293977536034]",4.0,"[-0.026594254359591278,0.10337362546238808]",4.0,"[-0.19222409363456952,-0.014082856681552087]",4.0,"[0.09590496173976996,-0.04004124213200641]",4.0,"[0.02,0.02]",211.8655,0.0,27.0,27.0,175.0,1.0,,,,,,,
,,,,,,,664b7ccb73885d9432d06796,684428ccf239b1c8cdfef85e,2025-06-07_15h01.45.850,shape_ratio,2024.1.5,Win32,40,684250e4f00cb30b92d1fa88,,,,,,,,,,,211.8669,212.3648,,,212.6161,213.1649,right,0.5293,,,,,,,,,0.55,,,,,,212.3648,212.616,213.1649,"[0.0872953015695671,-0.03005414424721769]",4.0,"[-0.02018497066450873,-0.05696863054101137]",4.0,"[0.14651440253244366,-0.06444520642499316]",4.0,"[0.12587713864665365,0.14505337740808363]",4.0,"[-0.14275884764705807,0.05597517005796616]",100.0,"[-0.008071430672613077,0.08245448900989963]",100.0,"[0.1508730416691558,0.09623576568890317]",100.0,"[-0.0770487303922752,0.057567351164432734]",4.0,"[0.05636372307717096,-0.14972125081077173]",100.0,"[0.03783673413316207,-0.19575715284180698]",4.0,"[0.02895988756211212,0.1498333603074386]",100.0,"[0.030195093478892494,-0.05979841491797537]",4.0,"[-0.14266114937168525,-0.008317280959647623]",100.0,"[-0.03786809272843971,0.1856160680339444]",100.0,"[-0.03340156355239546,0.04201761340442808]",4.0,"[-0.17959888848666092,0.07734589004255947]",4.0,"[-0.07815258867026144,-0.07343921984633169]",100.0,"[-0.11932604397804891,-0.13219605578642035]",100.0,"[0.12424481964857906,-0.0983085101240308]",4.0,"[-0.08006962323640118,-0.16935556586037026]",100.0,"[0.15887539355099203,0.014343200263377806]",4.0,"[-0.1132387516763819,0.1368008137898326]",4.0,"[-0.19381582913906722,0.0149200751700763]",4.0,"[-0.02017793933753879,-0.13051045009139148]",100.0,"[-0.13208626023807907,-0.0757561796447374]",100.0,"[-0.08530428698199659,-0.029123587167728334]",100.0,"[0.007825864526750012,-0.16793931078744392]",100.0,"[0.04613477478897982,0.07783296556238316]",4.0,"[0.024776518064015297,-0.007962057614793957]",100.0,"[0.12264042318474554,-0.14720806544660203]",100.0,"[-0.03900152194213802,-0.16767478802617355]",100.0,"[0.08501415761513144,0.10402033180451226]",100.0,"[0.02,0.02]",214.2635,0.0,28.0,28.0,89.0,1.0,,,,,,,
,,,,,,,664b7ccb73885d9432d06796,684428ccf239b1c8cdfef85e,2025-06-07_15h01.45.850,shape_ratio,2024.1.5,Win32,40,684250e4f00cb30b92d1fa88,,,,,,,,,,,214.2648,214.7631,,,214.9964,215.4735,left,0.4521,,,,,,,,,0.9,,,,,,214.7633,214.9963,215.4737,"[0.04747406503993675,0.16393331849900533]",100.0,"[0.013710857219288965,-0.02058841726576144]",100.0,"[-0.1567871868054246,0.07079424201157386]",4.0,"[0.18491159860578438,0.04801815218896489]",100.0,"[0.1393435596914453,-0.04612732282939401]",100.0,"[0.05290453932122388,0.08713620416731524]",100.0,"[0.07928202480962712,-0.0332810959709245]",100.0,"[0.12146783611294133,0.010875480914448041]",100.0,"[-0.13672117925660393,-0.018616626843115245]",100.0,"[-0.08137066042568745,-0.0828422471809383]",100.0,"[-0.08309583704297928,0.05460611004803587]",100.0,"[0.10262717208939655,0.07570120766662528]",100.0,"[-0.17817962564822065,-0.0249686567584107]",100.0,"[-0.007376715242653928,-0.12430751322752895]",100.0,"[-0.09813623891945891,0.10611366460577133]",100.0,"[-0.001991159678422147,0.16373271008799692]",100.0,"[-0.03305292998887295,0.07730384249354554]",100.0,"[0.08735683386483271,-0.15948284621033565]",4.0,"[-0.011583023985004524,-0.0690917072446476]",100.0,"[-0.13628826813199776,0.13442955381387303]",100.0,"[-0.03887500817056625,-0.03920366903471881]",100.0,"[-0.09306452908999983,0.14800615251925614]",100.0,"[0.04631662631378882,0.004056723661502809]",100.0,"[-0.08913296442900845,-0.023477712639207792]",100.0,"[-0.14278075576935575,-0.06258993294301121]",100.0,"[0.12662140940550926,0.1201835733121962]",100.0,"[0.03469746336880171,-0.15315740874461786]",100.0,"[0.10223958394214565,-0.09721404071095205]",100.0,"[-0.048079153768318506,0.1758348928241564]",100.0,"[-0.054947359903868606,0.0011475262402664164]",100.0,"[0.0034847425518848758,0.09595671210761918]",100.0,"[-0.043591030560882316,-0.17615935021372203]",4.0,"[0.02,0.02]",216.5613,0.0,29.0,29.0,29.0,1.0,,,,,,,
,,,,,,,664b7ccb73885d9432d06796,684428ccf239b1c8cdfef85e,2025-06-07_15h01.45.850,shape_ratio,2024.1.5,Win32,40,684250e4f00cb30b92d1fa88,,,,,,,,,,,216.5632,217.061,,,217.2964,217.7934,right,0.4734,,,,,,,,,0.1,,,,,,217.0612,217.2963,217.7936,"[0.17590293176726537,-0.026026446180153026]",4.0,"[-0.16560302970067767,0.042657490796146606]",4.0,"[-0.021972856241807507,-0.01857561438636908]",4.0,"[-0.06931921898272797,0.0019914097546976203]",4.0,"[0.04265618157379971,-0.0039014648692572923]",4.0,"[-0.1749264454781163,0.08826952290124762]",100.0,"[-0.1150336467045779,0.10681849207258118]",4.0,"[-0.12010406002033587,0.01729632100601703]",4.0,"[0.16192138435093426,0.10672071374415826]",4.0,"[-0.051846141942171575,0.05214114977665599]",4.0,"[0.12589820947987146,-0.11809965223249588]",4.0,"[-0.10659808807556939,-0.13249133833331972]",4.0,"[0.027280081023754916,-0.12368688346645187]",4.0,"[-0.05216044831061087,-0.10343072239446417]",4.0,"[-0.06417891727144852,0.16007290401286614]",4.0,"[-0.046190879533755023,-0.1834776333187856]",4.0,"[-0.005691332263125301,0.1880349818536526]",4.0,"[0.00577704116399344,-0.05382806898877462]",4.0,"[0.0681186676699321,-0.16431797332960774]",4.0,"[-0.11118866073232157,0.16496767472447318]",4.0,"[0.12151968994204547,-0.061492103495850624]",4.0,"[0.06803639752601547,0.11010943510719533]",4.0,"[-0.006205477233183143,-0.1591147609845686]",4.0,"[0.11989018650027894,0.04201993325025064]",100.0,"[0.0187628142885921,0.06893341684547613]",100.0,"[-0.11723053667419497,-0.08095950310240946]",4.0,"[0.01197230506749011,0.11869596049952978]",4.0,"[0.183241117201405,0.018599102151766137]",4.0,"[-0.1875977427701729,-0.017641951636983184]",4.0,"[0.0769408898182765,-0.03652009572852048]",4.0,"[0.0917764296656762,0.15530830706667195]",4.0,"[0.10479486750415522,0.09298021541405448]",4.0,"[0.02,0.02]",218.8844,0.0,30.0,30.0,187.0,1.0,,,,,,,
,,,,,,,664b7ccb73885d9432d06796,684428ccf239b1c8cdfef85e,2025-06-07_15h01.45.850,shape_ratio,2024.1.5,Win32,40,684250e4f00cb30b92d1fa88,,,,,,,,,,,218.8856,219.3838,,,219.6181,220.2842,left,0.6311,,,,,,,,,0.4,,,,,,219.384,219.618,220.2844,"[-0.01201593046005646,-0.19407347096400307]",4.0,"[0.08881116729784373,0.14227400254518013]",100.0,"[0.06686009773924922,-0.05026036952394138]",4.0,"[-0.06928798444202083,0.07007174615027369]",4.0,"[-0.10996079717533253,0.0973479849797867]",100.0,"[-0.04438263121830531,-0.007690430187121392]",100.0,"[-0.09136286135745646,-0.061702710490832216]",100.0,"[-0.08641931404693524,0.02572100519202306]",4.0,"[0.04281959085827516,0.07617347069384602]",100.0,"[0.12968208057794037,-0.151298902197233]",4.0,"[0.039653239091817345,-0.13830114637574611]",4.0,"[-0.1627592482745611,-0.0962281865089438]",4.0,"[0.0008665996265882214,0.09034554870271919]",100.0,"[0.14262267619866184,0.021329778069534334]",100.0,"[0.00825916608173224,-0.058357723961041864]",100.0,"[0.19147367562117923,0.01273054134437603]",100.0,"[-0.155174446643115,0.11085329234614386]",100.0,"[0.08599543136705504,-0.09859787878484645]",4.0,"[0.011991002457543904,0.14713317441597132]",4.0,"[-0.023492218834206317,-0.09160490147533272]",4.0,"[-0.010971584203063062,0.04941082999958431]",4.0,"[-0.06934440689673214,0.11675232233145827]",4.0,"[0.001906294814035379,-0.15352142185358406]",100.0,"[0.03551445921448549,0.1874257617955483]",4.0,"[0.10687778714770768,0.08117385485698907]",100.0,"[0.02604050163383353,0.013099035400869603]",4.0,"[-0.1835491244208874,0.04111513146526414]",4.0,"[-0.08228014205218945,-0.13047081440539923]",4.0,"[0.1249021567881294,-0.0830632687293803]",4.0,"[0.13573375225318837,-0.029913378017066256]",100.0,"[0.17626802869030178,-0.06141421853603712]",4.0,"[-0.14498837300475012,-0.03782977079953203]",4.0,"[0.02,0.02]",221.3821,0.0,31.0,31.0,165.0,1.0,,,,,,,
,,,,,,,664b7ccb73885d9432d06796,684428ccf239b1c8cdfef85e,2025-06-07_15h01.45.850,shape_ratio,2024.1.5,Win32,40,684250e4f00cb30b92d1fa88,,,,,,,,,,,221.3837,221.8817,,,222.1416,222.5922,right,0.426,,,,,,,,,0.1,,,,,,221.8818,222.1415,222.5923,"[-0.09091771782788839,0.031668984250358766]",4.0,"[0.005588885228665544,-0.08843278672665154]",4.0,"[0.09557640524070256,-0.04879549637731964]",4.0,"[0.17944852453962232,0.08454953581022832]",4.0,"[-0.034522283263921705,0.17870709758293077]",4.0,"[-0.06516077924642964,-0.12584713201545566]",4.0,"[0.0498364963429149,0.09056809635877743]",4.0,"[-0.13821968291948697,0.024197784817952386]",4.0,"[-0.04754356923440343,-0.16537522785600367]",4.0,"[-0.005898377228202224,0.09459803768178657]",4.0,"[-0.16861446766466812,0.08266143995141967]",4.0,"[0.1651358631747617,-0.01531406501392486]",100.0,"[-0.19508482235169347,0.029202255233269934]",4.0,"[-0.00491757843527099,-0.01612689563770585]",100.0,"[-0.02480379939303213,0.02970194999211681]",4.0,"[0.015372073400257914,-0.16302476159822338]",4.0,"[-0.09425890989107698,0.12353001559252405]",4.0,"[0.07590694750164816,-0.15060060647332407]",100.0,"[0.07156522293221625,0.011941445422316996]",4.0,"[-0.10633820001319351,-0.13502696266857522]",4.0,"[0.08626499278621796,0.15245643881762008]",4.0,"[0.032927136822515156,-0.0019004872911753568]",4.0,"[-0.14164623654474207,-0.11086937127287616]",4.0,"[0.0905864616161042,-0.0963242372060216]",4.0,"[-0.04895710208746515,0.06459995199735422]",4.0,"[0.02006231925040623,0.15636025805461004]",4.0,"[-0.10227479882568276,-0.0655142101773143]",4.0,"[-0.17194052525389344,-0.04983895397764747]",4.0,"[-0.12431674011787672,0.06328165771370403]",4.0,"[-0.0883358078677345,-0.02158389650968399]",4.0,"[0.051211551167783316,-0.11706956842513667]",4.0,"[0.13910462516081962,0.10763953294472887]",4.0,"[0.02,0.02]",223.6801,0.0,32.0,32.0,180.0,1.0,,,,,,,
,,,,,,,664b7ccb73885d9432d06796,684428ccf239b1c8cdfef85e,2025-06-07_15h01.45.850,shape_ratio,2024.1.5,Win32,40,684250e4f00cb30b92d1fa88,,,,,,,,,,,223.6816,224.1798,,,224.4153,225.9033,,,,,,,,,,,0.5,,,,,,224.1799,224.4151,225.9035,"[-0.11783320566323688,-0.1516360951097814]",100.0,"[0.07665198486660645,-0.03181452081001302]",4.0,"[-0.011696627664959063,-0.0038826159457222183]",4.0,"[-0.006674558019304313,-0.1889280444139466]",100.0,"[-0.08697202610929944,0.1693106346527599]",4.0,"[-0.12103203796397366,0.07264054236574932]",100.0,"[-0.032848109382821046,0.034355834591615744]",4.0,"[0.11625655347341124,0.041174369092957595]",4.0,"[0.17176172974012258,-0.02682043137426439]",100.0,"[-0.04703139753387858,0.11272076825658987]",100.0,"[0.18235044766025477,0.03026327394324508]",100.0,"[-0.04793443772601356,-0.09039139311354015]",100.0,"[0.13578343137861598,-0.05228016468959776]",100.0,"[0.1534684022460144,0.07478345651194625]",4.0,"[0.10600179805733011,0.1501306205409054]",4.0,"[-0.14070134968391645,0.011406185633016453]",4.0,"[-0.12067978693872371,-0.04618135506689831]",4.0,"[0.04598167982247065,-0.14539800446311865]",4.0,"[-0.0732543098742321,0.039118232558660926]",100.0,"[-0.029344939354572004,-0.13957470906147396]",100.0,"[-0.08182163249631377,-0.0574391223499191]",100.0,"[0.10518350424414932,-0.14026426056603397]",4.0,"[0.0077958797307110745,-0.04360028802167191]",4.0,"[0.07339998834151239,0.017004680838580727]",4.0,"[0.028293583588337553,0.18169119583500912]",100.0,"[-0.07542490592619239,-0.010937040039534985]",4.0,"[-0.00570110458391727,0.13726596954699757]",100.0,"[0.0935077153621742,0.0799098850091756]",100.0,"[-0.1462014723201944,-0.10059143548993893]",100.0,"[0.04278839012475916,0.07622044093379583]",100.0,"[-0.1713745718927907,0.04041882244601089]",4.0,"[0.12159834450007642,-0.09511844085395685]",4.0,"[0.02,0.02]",227.0022,0.0,33.0,33.0,117.0,1.0,,,,,,,
,,,,,,,664b7ccb73885d9432d06796,684428ccf239b1c8cdfef85e,2025-06-07_15h01.45.850,shape_ratio,2024.1.5,Win32,40,684250e4f00cb30b92d1fa88,,,,,,,,,,,227.0043,227.5016,,,227.7571,228.3005,left,0.5129,,,,,,,,,0.55,,,,,,227.5017,227.757,228.3006,"[0.16834190317681316,0.07667421381139572]",100.0,"[-0.03050658230510196,0.19490107323728562]",4.0,"[-0.07220650973157319,0.1236939156544527]",100.0,"[0.04264785627191974,0.18545331820712802]",100.0,"[0.01849182435108691,-0.06469364309939075]",4.0,"[0.11488446327205108,-0.1285955200443396]",100.0,"[-0.18204324539950992,-0.04616692945031026]",100.0,"[-0.036627999418793696,0.012588436594500168]",100.0,"[0.10185165370656803,0.0840295306023972]",4.0,"[-0.0527909612384354,0.06240683715684398]",100.0,"[-0.09433148201037762,-0.13520552658839433]",100.0,"[0.15271121387215514,0.11450847057180631]",100.0,"[0.09246008620967512,-0.06924582833076326]",100.0,"[0.11664125356776867,0.03152252977966566]",4.0,"[0.07585502982713292,-0.10565736091195807]",4.0,"[0.14127446152683673,-0.09352988158334832]",4.0,"[-0.005710752887905414,-0.16112389886018696]",4.0,"[-0.14642229706334434,-0.023326144253486315]",4.0,"[-0.1872159068883631,0.02567635173520431]",100.0,"[-0.04942996817021125,-0.16805708155824395]",100.0,"[-0.015316881350414969,-0.09611718553273846]",4.0,"[-0.10897428636994945,0.062069919991131615]",100.0,"[-0.08622926926306014,-0.00018209451305369233]",100.0,"[-0.08945667141101638,-0.0438177391649548]",100.0,"[-0.15686985814822732,0.12169413310417691]",4.0,"[-0.06736132387032268,-0.09121236268886172]",4.0,"[-0.11354051612923459,0.15400028904869506]",4.0,"[0.014965204484966466,-0.014415396472622312]",4.0,"[-0.14248151274870574,-0.12211514065320724]",100.0,"[0.18655840121655823,-0.00043751421313550947]",100.0,"[0.1599867267164221,-0.04199844122102134]",100.0,"[0.08822251325923107,0.1313880139625258]",4.0,"[0.02,0.02]",229.3993,0.0,34.0,34.0,88.0,1.0,,,,,,,
,,,,,,,664b7ccb73885d9432d06796,684428ccf239b1c8cdfef85e,2025-06-07_15h01.45.850,shape_ratio,2024.1.5,Win32,40,684250e4f00cb30b92d1fa88,,,,,,,,,,,229.3997,229.8997,,,230.1495,230.4999,right,0.3292,,,,,,,,,0.5,,,,,,229.8998,230.1494,230.5,"[-0.028355522139873864,-0.1193958636689452]",100.0,"[0.005423176760392996,0.09228593068112556]",100.0,"[0.07781935896350516,-0.053345608458791896]",4.0,"[-0.07035681415029589,0.051029789398898115]",4.0,"[-0.1730424259571761,-0.09991099629220093]",4.0,"[-0.13716990815662003,-0.03494372602676345]",4.0,"[0.038204344158844335,0.1750270735852022]",4.0,"[-0.17219136038158028,0.006327335463457137]",100.0,"[0.09776807416402553,0.1435353553388909]",4.0,"[-0.19011613844794467,0.0446837505212007]",4.0,"[-0.0017398965220774682,0.14136434756912472]",100.0,"[0.11048271694224612,-0.10750193637947215]",100.0,"[0.043122253377430926,0.13083771778250416]",4.0,"[0.09522379115239456,-0.1625999190602283]",100.0,"[-0.07782228694062698,-0.03577227080034372]",100.0,"[-0.07130415669746021,-0.1161141486080255]",100.0,"[-0.05712244209341243,0.12982738729220408]",100.0,"[0.04241025911203132,-0.18287860505840065]",100.0,"[-0.020795381554960437,0.18779875375350408]",4.0,"[0.17652691682302388,0.08291729315190143]",4.0,"[0.1146162669490196,-0.015608984768776821]",100.0,"[0.08228626830350937,0.09416461382565798]",4.0,"[0.15787221331810924,-0.02054399477199571]",100.0,"[-0.12031189621730845,0.06600375109937816]",4.0,"[0.15698235257490373,-0.06351837961286409]",100.0,"[0.047430085784924365,-0.005403277036863041]",4.0,"[-0.13710878622097553,0.14388172235362293]",100.0,"[-0.17156734282696198,0.10124161658119704]",4.0,"[-0.11267725658012899,0.010185966697283857]",4.0,"[0.07437472283688067,-0.1270037492753357]",100.0,"[0.02685208752905889,-0.11825763332752498]",100.0,"[-0.1281073504521078,-0.12990959432463575]",4.0,"[0.02,0.02]",231.5972,0.0,35.0,35.0,111.0,1.0,,,,,,,
,,,,,,,664b7ccb73885d9432d06796,684428ccf239b1c8cdfef85e,2025-06-07_15h01.45.850,shape_ratio,2024.1.5,Win32,40,684250e4f00cb30b92d1fa88,,,,,,,,,,,231.5976,232.0976,,,232.3477,232.7502,right,0.394,,,,,,,,,0.5,,,,,,232.0978,232.3476,232.7503,"[0.1412112214080958,-0.016320501632688104]",100.0,"[0.014040613364122703,-0.05604594312842284]",4.0,"[0.06001003543696114,-0.10109663089391926]",4.0,"[0.13052767895105605,0.11428985712159193]",100.0,"[-0.04810338346841358,-0.059188812885656895]",4.0,"[-0.023653244610503863,0.04463061310183584]",4.0,"[0.005259095457782986,0.10980292019017478]",100.0,"[0.02486796773316232,0.0008983391231128476]",100.0,"[-0.1137786545693086,0.15428832087848782]",4.0,"[-0.07864707386972583,-0.018249459334510495]",100.0,"[0.12778912950146762,0.042641348306858354]",4.0,"[-0.03443915165113177,-0.1897137833279964]",100.0,"[0.1833616269355574,-0.03889488664351481]",100.0,"[-0.12097358513284252,0.09914980286860457]",4.0,"[-0.12584740343568143,-0.10648775748766263]",100.0,"[0.015076689252813967,-0.1640166100130781]",4.0,"[-0.08240548365836038,-0.09874905229626522]",4.0,"[-0.11342350891173919,-0.055085663435586935]",4.0,"[-0.029586308539435953,-0.1439565722156569]",100.0,"[0.0803294790637498,0.012450801193118683]",4.0,"[-0.03920069911908276,0.18603268963959055]",100.0,"[0.07707672233296854,0.10587703702884974]",4.0,"[0.05682437025494118,-0.17011450557318863]",100.0,"[-0.022223255551519355,-0.09927501261516271]",4.0,"[-0.15768328297923637,-0.032185464598661465]",100.0,"[-0.0595571322766071,0.10323366727488784]",100.0,"[-0.10743511888734,-0.16818739850160205]",4.0,"[-0.14123027958774875,0.01864762487150149]",4.0,"[0.07393383393082577,-0.027608479603349816]",4.0,"[0.09772527526493353,-0.16222143322651247]",100.0,"[-0.15696102213523408,-0.07259449809141978]",100.0,"[0.00003929564908756788,0.15179552357790288]",100.0,"[0.02,0.02]",233.8461,0.0,36.0,36.0,118.0,1.0,,,,,,,
,,,,,,,664b7ccb73885d9432d06796,684428ccf239b1c8cdfef85e,2025-06-07_15h01.45.850,shape_ratio,2024.1.5,Win32,40,684250e4f00cb30b92d1fa88,,,,,,,,,,,233.8471,234.3457,,,234.5966,235.1204,left,0.5008,,,,,,,,,0.5,,,,,,234.3459,234.5964,235.1206,"[-0.009271864439999118,0.03190857375730289]",100.0,"[0.18058063544380332,0.010926361020635846]",100.0,"[-0.019797562189997727,0.1407642576719492]",4.0,"[-0.04052614928315391,-0.12797848807837503]",4.0,"[0.10665620097263591,-0.11487051988027765]",100.0,"[0.08715059237687983,-0.05490515565902893]",100.0,"[-0.01701783039744007,-0.029075234427419234]",4.0,"[0.12005848530449793,0.1223241269096355]",100.0,"[0.10906135896750997,0.03620271759124397]",100.0,"[-0.05292211285421857,-0.05052395696204924]",100.0,"[0.0723964690732428,0.054727028318302576]",4.0,"[-0.09875137912460798,-0.009199848511959392]",100.0,"[-0.10534724249810208,-0.06478672341400543]",100.0,"[-0.16307788364014572,-0.08621569990657593]",100.0,"[0.004536289993019449,0.09915843381334377]",4.0,"[-0.15813766289048503,-0.04085641082376483]",4.0,"[0.027240328152758717,0.051333848452810235]",4.0,"[0.07873511632963176,-0.0003643202655782637]",4.0,"[0.05460569100282207,0.10701608190251546]",4.0,"[-0.07310667933839242,0.12493280841856487]",100.0,"[0.022744872571228498,-0.001084276563263086]",100.0,"[0.15565564954369687,0.07756360661854524]",100.0,"[0.0791521762782768,0.15880972637807197]",100.0,"[0.04723240421865997,-0.041324012711448886]",4.0,"[-0.1262756392814474,0.06271200544610188]",4.0,"[-0.004405944578468855,-0.10023871200906537]",4.0,"[0.1529190030322309,-0.10721889466608059]",4.0,"[-0.13067667487033982,0.1203609337315726]",4.0,"[0.18918275662818926,-0.05576294919903521]",4.0,"[0.044750385945830806,-0.16479947550059637]",4.0,"[-0.12345649814197679,-0.13408466413929182]",100.0,"[-0.1820887760273324,0.06799841370643926]",100.0,"[0.02,0.02]",236.2181,0.0,37.0,37.0,107.0,1.0,,,,,,,
,,,,,,,664b7ccb73885d9432d06796,684428ccf239b1c8cdfef85e,2025-06-07_15h01.45.850,shape_ratio,2024.1.5,Win32,40,684250e4f00cb30b92d1fa88,,,,,,,,,,,236.2185,236.7177,,,236.9687,237.4433,left,0.4503,,,,,,,,,0.9,,,,,,236.7178,236.9686,237.4434,"[-0.044616036007352304,0.03727101821391141]",100.0,"[0.05701780573643826,0.18463028068310866]",100.0,"[0.011612592114974464,0.18985445789349312]",4.0,"[0.11873580450943044,-0.09807751670385431]",100.0,"[0.012575046478375547,-0.06289687188010575]",100.0,"[-0.09468425338182186,0.1600983406292914]",100.0,"[0.055804289758274526,-0.02972005001034252]",100.0,"[-0.13496044692365006,-0.13104340530111513]",4.0,"[0.09827190923072446,0.06942251004742359]",100.0,"[0.1701824992061641,-0.06961296785475646]",100.0,"[-0.01290666221183324,-0.023985040251449964]",100.0,"[-0.1758963054712318,-0.09163614421798272]",100.0,"[0.1678492325791312,0.0005541395712448689]",100.0,"[0.19821264783083445,-0.025626080520306946]",100.0,"[-0.17666330509472525,-0.010066340259534545]",100.0,"[0.0670524804731291,-0.1299177839585478]",100.0,"[0.13875591461778258,0.07455967637020797]",100.0,"[-0.07899600109634015,-0.0624551508060598]",100.0,"[0.12062583303379087,-0.03665281934162387]",100.0,"[0.011914701143796178,0.12758037304687475]",100.0,"[0.12394223897298752,0.011102513154071883]",100.0,"[-0.031199637647896933,-0.09036435581048526]",4.0,"[0.07713421152978273,-0.07835041509917572]",100.0,"[0.06786782704017805,0.11228150192781508]",100.0,"[-0.17881880471012782,0.05148961708966659]",100.0,"[-0.08159077647065927,0.012294767218896876]",100.0,"[-0.015429033230202834,-0.1643739083646202]",100.0,"[-0.1228183215723433,0.042698183232716444]",100.0,"[-0.09270317206019554,0.10532996958370011]",100.0,"[-0.08825835456007351,-0.10611046055507006]",100.0,"[-0.05844197213774994,-0.13603039950815213]",100.0,"[-0.05506600160149388,-0.027906228020243593]",100.0,"[0.02,0.02]",238.5419,0.0,38.0,38.0,3.0,1.0,,,,,,,
,,,,,,,664b7ccb73885d9432d06796,684428ccf239b1c8cdfef85e,2025-06-07_15h01.45.850,shape_ratio,2024.1.5,Win32,40,684250e4f00cb30b92d1fa88,,,,,,,,,,,238.5429,239.0413,,,239.2915,239.8665,left,0.5528,,,,,,,,,0.6,,,,,,239.0414,239.2914,239.8666,"[0.05949675811860249,-0.016037342526246615]",100.0,"[-0.053256109796900646,-0.10311627683920553]",100.0,"[-0.0015297384993216937,0.17081163386955775]",100.0,"[0.17017478408560305,0.028802545129127808]",100.0,"[-0.013168168727577893,0.027774748173597198]",100.0,"[-0.17457023224982396,0.07498191154928298]",100.0,"[-0.05159681769288628,0.06383758536952758]",100.0,"[-0.11120718679481861,0.03090046662368815]",100.0,"[-0.10631739965690186,-0.16041933510202483]",4.0,"[0.08412638760488707,0.021493777909473627]",100.0,"[-0.18993472055212698,-0.020902142571154504]",4.0,"[0.06494671163912304,0.13200671425245997]",4.0,"[0.16010420433241854,-0.04600195812692068]",4.0,"[-0.030470978339596128,0.12780135969675172]",100.0,"[0.08027867846608946,-0.08522061916193556]",100.0,"[0.14831240919617036,0.08649389260176482]",4.0,"[-0.0373543040248809,0.19176930790923766]",4.0,"[-0.08040892808677583,0.11198879424343089]",100.0,"[0.014267705941633575,0.10507264789990832]",4.0,"[-0.05128310057088335,-0.01945632236295379]",100.0,"[0.01654894299187847,-0.06949120498552434]",4.0,"[-0.14021791992957588,-0.12615977789949612]",4.0,"[-0.008160287519662048,-0.1575851701245804]",100.0,"[0.04654018224771409,0.03597316042560711]",100.0,"[-0.025269901503037186,-0.05981935416803004]",100.0,"[-0.15707770690139722,0.004623429865695835]",4.0,"[-0.04823678957377992,-0.17097574113690198]",100.0,"[-0.17737581724356108,-0.08724702177631312]",4.0,"[-0.09923309161553366,-0.0435209543762851]",100.0,"[-0.14322819840015072,-0.03500050111386581]",100.0,"[0.007304836555309547,-0.11638394343284403]",4.0,"[-0.13437015064556282,0.07131911978565805]",4.0,"[0.02,0.02]",240.9646,0.0,39.0,39.0,52.0,1.0,,,,,,,
,,,,,,,664b7ccb73885d9432d06796,684428ccf239b1c8cdfef85e,2025-06-07_15h01.45.850,shape_ratio,2024.1.5,Win32,40,684250e4f00cb30b92d1fa88,,,,,,,,,,,240.9658,241.4642,,,241.7136,242.1136,right,0.3809,,,,,,,,,0.4,,,,,,241.4643,241.7135,242.1137,"[-0.0048605107085698184,0.02647249860034213]",4.0,"[0.09283468290309148,-0.13101654968981646]",100.0,"[-0.05871061281061332,-0.07320993372337865]",100.0,"[-0.14288012802349037,0.030076990535173043]",100.0,"[-0.002167674648261488,0.13144341068023668]",100.0,"[-0.09400980515701998,-0.021730871819112343]",4.0,"[0.03651367002047235,-0.1431128409632981]",4.0,"[0.1268992535223997,0.07326248821433026]",100.0,"[-0.059356018682599154,0.0667397789695582]",100.0,"[0.1621162041979168,-0.0752471591592876]",4.0,"[0.027401134854360472,-0.019469178530818487]",100.0,"[-0.13242681448087523,-0.00953067334779188]",4.0,"[-0.09721397220846072,-0.11665618603603442]",4.0,"[0.0403130981729151,-0.18539435346778357]",4.0,"[-0.09052923004921991,0.1547405463842491]",4.0,"[-0.11256869692875734,0.11309543944907388]",100.0,"[-0.016051959897732695,-0.12499896011924184]",4.0,"[0.07871877842515793,0.07824684400946091]",100.0,"[-0.011308657048716739,-0.17209324737360188]",4.0,"[0.024922730973509444,0.07320184820187361]",4.0,"[0.07042789181843644,-0.08050312770179334]",100.0,"[0.027857439728805018,-0.09330830511690136]",4.0,"[-0.166304055435038,0.09983018750804205]",4.0,"[-0.09587351710084002,0.03923966090186757]",100.0,"[0.006573107447752189,0.19978624521408134]",100.0,"[0.054373813853011876,0.18430361020897432]",4.0,"[-0.035749916691077036,0.10138567824756332]",4.0,"[-0.17654961669337121,-0.006780541742797168]",4.0,"[-0.04252964963829542,0.15896470045317435]",100.0,"[0.16327663019386662,0.00039629644032058265]",4.0,"[-0.05452990334884825,-0.0018059228701816873]",4.0,"[0.11274710187709028,0.16246143433085303]",4.0,"[0.02,0.02]",243.213,0.0,40.0,40.0,178.0,1.0,,,,,,,
,,,,,,,664b7ccb73885d9432d06796,684428ccf239b1c8cdfef85e,2025-06-07_15h01.45.850,shape_ratio,2024.1.5,Win32,40,684250e4f00cb30b92d1fa88,,,,,,,,,,,243.2141,243.7131,,,243.9624,244.437,right,0.4533,,,,,,,,,0.55,,,,,,243.7131,243.9623,244.4371,"[0.1007418219398125,-0.14645915085192487]",100.0,"[0.06617131280729231,0.17578474978021374]",100.0,"[-0.021763886804513115,0.18828330248806072]",100.0,"[-0.0913042497289538,0.13369041450028202]",100.0,"[0.16700382439841346,-0.0025514926849642605]",4.0,"[-0.0026883062936774362,0.15256907286474003]",100.0,"[0.03283240168410085,-0.08926894883770432]",4.0,"[-0.1608890064976284,-0.04330111562304509]",4.0,"[0.0970823761365501,-0.07545856056543017]",4.0,"[0.1303733219595783,0.05060766650827399]",4.0,"[0.03529632796726863,0.028677439762518145]",4.0,"[-0.12356436472750587,-0.07033890181853403]",100.0,"[-0.07780172455297672,0.03772214616233378]",100.0,"[-0.1806624210164163,0.07476959119092147]",100.0,"[0.17154091936816726,0.05072523651692541]",100.0,"[-0.05150514191409435,0.1000094099134295]",100.0,"[-0.13098543896963602,0.02016376747992116]",100.0,"[-0.03959323173660773,-0.0352429417697959]",100.0,"[0.08287347582733864,0.07953167450035586]",4.0,"[-0.044825290607143096,-0.1266314861107826]",100.0,"[0.0403983352747079,0.07787392562478435]",4.0,"[0.007076871235588011,-0.13999696915620535]",4.0,"[0.06526596536688249,-0.011800067417069694]",4.0,"[-0.1058065205546331,-0.16952233766009553]",4.0,"[-0.07179560258473934,0.1755257982459029]",100.0,"[-0.1325680544469683,0.08211982563549117]",100.0,"[-0.04274525926407658,0.011001044715844992]",4.0,"[0.08665418024688314,0.025662994381294386]",4.0,"[-0.15994319068395352,-0.10322776409460542]",100.0,"[-0.08796715120628912,-0.020583892003877318]",100.0,"[-0.0003332911407748531,0.0032706779578729065]",100.0,"[0.10609867672561442,0.15296754834538198]",4.0,"[0.02,0.02]",245.5355,0.0,41.0,41.0,77.0,1.0,,,,,,,
,,,,,,,664b7ccb73885d9432d06796,684428ccf239b1c8cdfef85e,2025-06-07_15h01.45.850,shape_ratio,2024.1.5,Win32,40,684250e4f00cb30b92d1fa88,,,,,,,,,,,245.5365,246.0355,,,246.2845,246.8588,left,0.5624,,,,,,,,,0.45,,,,,,246.0355,246.2845,246.8589,"[0.08399592049538876,-0.11257314922356361]",4.0,"[0.09681092489123547,-0.012356556037446245]",4.0,"[0.049869400705588804,0.18512881508993628]",100.0,"[-0.04006749017243022,0.19031863498322732]",100.0,"[0.045932883387332084,0.05484445035943856]",100.0,"[-0.1396296063314087,-0.13930582601686725]",4.0,"[-0.056753208684398496,-0.029932413526685017]",4.0,"[-0.006083189967764068,-0.09878584541276557]",4.0,"[-0.0002613205988056526,0.013131078482790319]",4.0,"[0.027425802078549794,0.1257376213673981]",4.0,"[0.11402338492858652,-0.16184331747978756]",100.0,"[0.05085891670303201,-0.041988821365110146]",100.0,"[-0.0621363022403009,0.10247230341498124]",4.0,"[-0.01936233850911593,-0.17363814762079668]",4.0,"[0.16669154511515932,-0.0882849549225761]",4.0,"[-0.03208810870730488,0.04757864110476713]",4.0,"[-0.13699903710933017,0.027471011672418125]",4.0,"[0.16602280693058485,0.05799690757108695]",4.0,"[-0.10657145603340551,-0.08620448853105463]",100.0,"[-0.06394484176324626,-0.11526662715130336]",100.0,"[0.1482279058092554,0.1230742119878641]",100.0,"[0.04652798955321316,-0.139544142720775]",4.0,"[-0.1971294123454515,-0.012656758058558865]",100.0,"[0.08469513479297207,0.10605840704211958]",100.0,"[0.003525806965805506,0.08562579107400019]",4.0,"[-0.09807370906268112,0.06525090106076627]",100.0,"[0.035651306319771515,-0.09101743848241733]",4.0,"[-0.08885670322260213,0.011158339031671943]",100.0,"[-0.10907747969948439,0.14008435964693552]",4.0,"[-0.16799677220045994,-0.07770805741235248]",4.0,"[-0.18001992387367158,0.060248286675893485]",100.0,"[0.11979368870234149,0.06615033399686604]",100.0,"[0.02,0.02]",247.9576,0.0,42.0,42.0,147.0,1.0,,,,,,,
,,,,,,,664b7ccb73885d9432d06796,684428ccf239b1c8cdfef85e,2025-06-07_15h01.45.850,shape_ratio,2024.1.5,Win32,40,684250e4f00cb30b92d1fa88,,,,,,,,,,,247.958,248.4578,,,248.709,249.3828,left,0.6506,,,,,,,,,0.9,,,,,,248.458,248.7089,249.3829,"[-0.008287792672235115,0.16094313005333039]",100.0,"[-0.021352040030809892,0.11148298403741146]",100.0,"[0.018196794614362202,-0.0004955367953934707]",100.0,"[-0.11183340524440641,0.10310509483945607]",100.0,"[0.17561345540861736,-0.08258761041188853]",100.0,"[0.1116258630131197,-0.08141788177638773]",100.0,"[-0.011051498294261447,-0.1897641211863053]",100.0,"[-0.030002198072771488,-0.13915221532047453]",100.0,"[-0.1901948044583473,0.008182994981549535]",100.0,"[0.06808908567073883,0.16416543899068547]",100.0,"[0.025619816602685738,-0.15571307688008612]",100.0,"[-0.05666503438132058,0.005883624490710512]",100.0,"[-0.0262186632543268,-0.03640341054095097]",100.0,"[-0.0628850242236856,0.057452975746383465]",100.0,"[-0.09972725632285478,0.000335008003239647]",100.0,"[0.15420464492622402,0.058462716117282466]",100.0,"[-0.05954483485696712,-0.09914550134301665]",4.0,"[0.09549758717240936,0.07230489590284017]",100.0,"[-0.15048648582045843,-0.018721768850599625]",4.0,"[0.012094865389010648,-0.10946765746853777]",100.0,"[0.13389951070184936,0.11927972166405511]",100.0,"[-0.1565023740864795,-0.06500550276854374]",100.0,"[0.08334780731628491,-0.16926867795905431]",100.0,"[0.07788600375487091,-0.04516077767707124]",100.0,"[-0.06940626359389951,0.1118773818086157]",100.0,"[0.07542522915387874,-0.1074598089244541]",100.0,"[0.042292252828484395,0.05143867329150716]",4.0,"[-0.09705705214850514,-0.05336076189575714]",100.0,"[0.10819734293020543,-0.018750635479189853]",100.0,"[0.13135978718841285,-0.13322461355217904]",100.0,"[-0.08313238250494444,-0.14946291828601443]",100.0,"[-0.1667002273381709,0.07026708099341394]",100.0,"[0.02,0.02]",250.4804,0.0,43.0,43.0,24.0,1.0,,,,,,,
,,,,,,,664b7ccb73885d9432d06796,684428ccf239b1c8cdfef85e,2025-06-07_15h01.45.850,shape_ratio,2024.1.5,Win32,40,684250e4f00cb30b92d1fa88,,,,,,,,,,,250.481,250.9808,,,251.232,251.7806,left,0.537,,,,,,,,,0.45,,,,,,250.9809,251.2318,251.7807,"[0.07607943185021228,-0.058936397967148814]",4.0,"[-0.04657073370040303,0.09293613176995366]",100.0,"[-0.04525321781714856,0.005128139052013705]",4.0,"[0.024659297268127437,0.04893998609147905]",100.0,"[0.11593714562041323,-0.027589830524734717]",100.0,"[0.08603761659492633,0.007885924615124]",4.0,"[0.15873688890362117,-0.01471498535168542]",100.0,"[0.058663858391368354,0.17018630303544027]",100.0,"[-0.08634311753588908,-0.15699708910714896]",4.0,"[0.019848159118536015,-0.08444663384706613]",4.0,"[-0.11760898457262553,0.0728002764622193]",4.0,"[-0.024368400122369474,0.04625310499982895]",100.0,"[0.18616908824916817,0.03535448525698607]",4.0,"[-0.1047603873463972,0.14479475978941428]",100.0,"[0.0921677062035232,0.14786014467146794]",4.0,"[0.14652107953919027,-0.13514779431520607]",4.0,"[-0.19331235302855457,0.0016558368896741461]",4.0,"[-0.08861307821330114,-0.11647148867067648]",4.0,"[0.03698351399111865,-0.13302663289569597]",4.0,"[-0.002932350493368089,0.15688045199938475]",100.0,"[-0.152032003522921,-0.11513955240672755]",100.0,"[-0.16914103999137917,-0.0722680187583915]",4.0,"[-0.11471831114920028,0.029829550834818776]",4.0,"[-0.13250624599077881,-0.03896975894908121]",4.0,"[0.025092133677702848,0.19439355460533142]",100.0,"[0.17287375953230025,-0.07603825750299986]",100.0,"[0.0031560307967939205,-0.1726503098040061]",4.0,"[-0.0448503427266534,-0.05686376165099807]",100.0,"[-0.07507440296226404,-0.02171951539081778]",100.0,"[0.10278717713456359,0.07541851078419785]",100.0,"[0.15822422078393736,0.0805237757797252]",4.0,"[0.09489066327905919,-0.16413023078488387]",4.0,"[0.02,0.02]",252.8789,0.0,44.0,44.0,133.0,1.0,,,,,,,
,,,,,,,664b7ccb73885d9432d06796,684428ccf239b1c8cdfef85e,2025-06-07_15h01.45.850,shape_ratio,2024.1.5,Win32,40,684250e4f00cb30b92d1fa88,,,,,,,,,,,252.88,253.3785,,,253.6277,254.1274,left,0.4846,,,,,,,,,0.55,,,,,,253.3786,253.6277,254.1274,"[-0.15411748908130485,0.1059724986209773]",4.0,"[0.003617913947439766,-0.1061274082672742]",100.0,"[0.18769520297682554,-0.026454485742410324]",100.0,"[-0.09961611647267836,-0.10079915581579449]",100.0,"[-0.15279094576251376,0.03890882081092117]",100.0,"[0.12452791386662936,-0.1391229113647074]",4.0,"[0.12137744570455523,0.07647302618562331]",100.0,"[-0.027178420735051834,0.1680268165983626]",4.0,"[-0.07363302200407303,0.07524517254141355]",4.0,"[-0.028095225762730207,0.12533293248962446]",4.0,"[0.12887328804010648,0.14054506737049755]",100.0,"[0.045279963118804216,-0.09181920330085974]",100.0,"[0.14937263427390968,0.036947857273723045]",4.0,"[0.033700832222309976,-0.04386469035223833]",4.0,"[-0.13811655012958463,-0.07025473406029484]",4.0,"[0.171109920571391,0.0995491581966072]",100.0,"[-0.09848181571412748,0.17365142806824185]",4.0,"[0.1088117406405846,-0.0997302286477271]",100.0,"[-0.10475411238877404,0.04823669973949708]",4.0,"[0.11141374789468331,0.004866518214271617]",100.0,"[-0.10958166546360885,0.12742646944045935]",100.0,"[0.06952447340545426,-0.14522532956521403]",4.0,"[0.07209110124606809,0.030549055768527025]",100.0,"[0.021630768204577995,0.09549376631683126]",100.0,"[-0.053379582444007215,-0.1852289429690383]",100.0,"[0.0964269940149411,0.11048815457655825]",4.0,"[0.01847345226122504,0.1920726392577306]",4.0,"[-0.08329294075815732,-0.1375323391080582]",100.0,"[-0.07299077057690435,-0.06554435330690027]",4.0,"[-0.05255814575959425,-0.009895081971818485]",100.0,"[-0.02330256496351984,-0.1397231006638412]",100.0,"[0.03957349543070664,-0.17176193276798452]",100.0,"[0.02,0.02]",255.226,0.0,45.0,45.0,87.0,1.0,,,,,,,
,,,,,,,664b7ccb73885d9432d06796,684428ccf239b1c8cdfef85e,2025-06-07_15h01.45.850,shape_ratio,2024.1.5,Win32,40,684250e4f00cb30b92d1fa88,,,,,,,,,,,255.2263,255.7256,,,255.9757,256.6501,left,0.6646,,,,,,,,,0.9,,,,,,255.7256,255.9756,256.6501,"[0.004221149908395622,-0.17491929989814517]",100.0,"[0.15206727126701164,0.03685096606463448]",100.0,"[0.05103491646158455,-0.07081604296436704]",100.0,"[-0.04091866015762085,0.03566820943183361]",100.0,"[0.1595471261157162,0.08775774624353178]",100.0,"[-0.0949438754689211,0.07774469865495996]",100.0,"[-0.00857247747200324,0.10690844094608253]",100.0,"[-0.12237868238182954,0.04645692703880686]",100.0,"[0.08616848409695031,-0.14597172183103538]",100.0,"[0.17939622222058846,-0.007029341521974798]",100.0,"[0.11925503869951576,-0.0659422388073414]",100.0,"[0.05159388245618119,0.043455403130507594]",100.0,"[0.12103302791213763,0.15418645477596116]",100.0,"[-0.010556653124838795,0.17563342600385168]",100.0,"[-0.05604022457676065,0.10095163362601905]",4.0,"[-0.05163843267126659,-0.14289637899953295]",100.0,"[-0.08437954136418116,-0.00598870158242869]",100.0,"[-0.008180810762375012,-0.08153911779177654]",4.0,"[0.06860586249784992,-0.10706829549442262]",100.0,"[-0.10945399483388649,0.14850126167830055]",100.0,"[0.06547344315263508,0.1821167673850559]",100.0,"[-0.14153839838452498,-0.04080861847765503]",100.0,"[0.08459340021896988,0.09874610031813202]",100.0,"[-0.1251567966142755,-0.11130330202474303]",100.0,"[0.15595513892097917,-0.04538215217114112]",100.0,"[0.041603516627229845,0.1340137629541665]",100.0,"[0.055921269938050744,-0.028990978772537732]",100.0,"[0.10575028608717371,-0.000026388636629813854]",100.0,"[-0.046441211034968496,-0.09553676833680033]",4.0,"[0.011929191955446667,-0.016038706573840596]",100.0,"[0.09981055281106453,0.05490415721720587]",100.0,"[-0.07516244101495217,-0.18269939135359428]",100.0,"[0.02,0.02]",257.7496,0.0,46.0,46.0,21.0,1.0,,,,,,,
,,,,,,,664b7ccb73885d9432d06796,684428ccf239b1c8cdfef85e,2025-06-07_15h01.45.850,shape_ratio,2024.1.5,Win32,40,684250e4f00cb30b92d1fa88,,,,,,,,,,,257.7509,258.2485,,,258.5007,259.1737,right,0.658,,,,,,,,,0.5,,,,,,258.2486,258.5006,259.1739,"[-0.1788389712692013,0.0076014711649501744]",100.0,"[0.11282654852954496,-0.014483120759035694]",100.0,"[0.18955112429567317,-0.05775919553485203]",4.0,"[0.005586124013903372,0.06507918892697967]",4.0,"[0.10082204666990807,0.08527846859716941]",100.0,"[-0.11074189049679611,0.07085451255888693]",100.0,"[0.016356963321630967,-0.08820414226751332]",100.0,"[0.04561310393106088,-0.11836647561173781]",4.0,"[0.05184403750110461,-0.037185792346324645]",100.0,"[0.11776816102607926,0.12515576950208926]",100.0,"[-0.010253482254434022,0.11165821187134327]",4.0,"[-0.08324325767360673,0.04121390293493928]",4.0,"[0.01850523659143208,0.025055889067144326]",4.0,"[0.06851896060223846,0.0032235910894672882]",4.0,"[-0.1588629478231092,-0.028027066963285913]",4.0,"[-0.09361561319011483,0.15118117043226625]",4.0,"[-0.00558710226045317,-0.03464324501483088]",4.0,"[0.08708643950545505,-0.15868102775483567]",100.0,"[0.1149443198577716,-0.07503457934771506]",100.0,"[0.038904969552935265,-0.1874705681588502]",4.0,"[0.15205671780206312,0.03681706254316614]",100.0,"[-0.02239882051444949,0.007104744176607425]",4.0,"[-0.08223329522352425,-0.09262527958541399]",100.0,"[-0.00823816232027986,-0.13879900429559702]",100.0,"[-0.14195683255416353,-0.12485589174316024]",100.0,"[0.18167710619678168,-0.017583663324195385]",100.0,"[-0.15826350623948562,-0.0745486200919289]",100.0,"[0.15751479797507087,0.09798150238383038]",4.0,"[-0.09538600340359953,-0.02872526241872159]",100.0,"[0.08783726694123345,0.04723175494403093]",4.0,"[0.006333193996094713,0.15323756484043005]",4.0,"[-0.06256851013890626,0.17936973483126337]",4.0,"[0.02,0.02]",260.2723,0.0,47.0,47.0,100.0,1.0,,,,,,,
,,,,,,,664b7ccb73885d9432d06796,684428ccf239b1c8cdfef85e,2025-06-07_15h01.45.850,shape_ratio,2024.1.5,Win32,40,684250e4f00cb30b92d1fa88,,,,,,,,,,,260.2734,260.772,,,261.0226,261.8206,right,0.7867,,,,,,,,,0.55,,,,,,260.7721,261.0225,261.8207,"[0.09288523058184806,-0.06217091281596332]",100.0,"[-0.09601142818965719,-0.1407406750662926]",100.0,"[-0.019785479889364365,-0.13377386456980095]",100.0,"[0.12885895105595283,-0.03357803305001125]",100.0,"[0.04037568011454245,0.027564050546374556]",100.0,"[0.0026432919547659576,0.17508885370389995]",4.0,"[0.006265572435724889,0.08734239054368657]",4.0,"[-0.06367158591648402,0.15659187903551608]",4.0,"[0.03082994157112757,0.14240134076093353]",100.0,"[-0.06425052941361824,0.09814961286194651]",4.0,"[-0.045085059755451365,-0.003613525873918326]",4.0,"[0.07204251147976701,-0.15677013663467018]",100.0,"[0.07996457069719767,0.0664719355702733]",4.0,"[-0.18825129633528098,0.019556138227098292]",100.0,"[-0.022768048969597842,0.12674994292600059]",100.0,"[-0.19715310003195724,-0.03115182947441015]",100.0,"[-0.0524313305711973,-0.06237922146197157]",100.0,"[-0.14262980548602094,-0.1184405900546756]",4.0,"[0.14384676551296857,0.04190940263600488]",4.0,"[0.1119514251024101,-0.13547106418981605]",100.0,"[0.10261589598688717,0.10077377230648488]",4.0,"[-0.1551660818164385,0.04372289619014148]",4.0,"[0.001918382493611362,-0.005495034648482497]",100.0,"[-0.12268353440854692,0.01871166894923039]",100.0,"[-0.08009650795010058,0.023483304379387362]",4.0,"[-0.12812003967392446,0.15180300796595791]",4.0,"[0.14621769337027835,0.09246433209044261]",4.0,"[0.14467034193119563,-0.10214480198422225]",100.0,"[0.1801184941142441,0.004860029974928171]",100.0,"[-0.08612652198718615,-0.09646747304905723]",100.0,"[-0.11816624115119904,0.09142861387265129]",4.0,"[-0.007988371154553225,-0.18131365205441266]",100.0,"[0.02,0.02]",262.9189,0.0,48.0,48.0,65.0,1.0,,,,,,,
,,,,,,,664b7ccb73885d9432d06796,684428ccf239b1c8cdfef85e,2025-06-07_15h01.45.850,shape_ratio,2024.1.5,Win32,40,684250e4f00cb30b92d1fa88,,,,,,,,,,,262.9193,263.4185,,,263.6686,264.2944,left,0.6103,,,,,,,,,0.55,,,,,,263.4187,263.6686,264.2946,"[0.07840475215065741,-0.1161441942560799]",4.0,"[0.1889482763093088,0.05629882400458351]",100.0,"[0.0936193124157866,-0.032639186900830286]",100.0,"[-0.0028760714034617636,0.109075731557294]",4.0,"[0.0055954028981466545,-0.011068417009209056]",100.0,"[-0.0947309377007422,-0.16143420508565443]",100.0,"[0.008455818783337203,0.06905327613796258]",100.0,"[-0.17934220626059671,-0.07670043292588073]",100.0,"[0.11876923494859234,-0.100507575823431]",100.0,"[0.0016288996623469076,-0.17385801606600132]",100.0,"[0.05711696442152255,-0.050083294331652164]",100.0,"[-0.03752703114449696,-0.13572000937415635]",4.0,"[0.1915632913894382,-0.03977478884428001]",100.0,"[0.11164771652541074,0.06567725335324973]",100.0,"[-0.11056002279038059,-0.019740667230887726]",100.0,"[-0.07098064835953623,-0.05242823182544422]",4.0,"[0.08942040609918579,0.16923874678588163]",4.0,"[-0.1510935088731897,0.005487722890179387]",100.0,"[0.050463345856656495,0.0824779663067378]",100.0,"[0.11179490970683678,-0.1495107460688337]",4.0,"[-0.19773191870063486,-0.019997321209558733]",4.0,"[0.1657326382004028,-0.0966300258680741]",4.0,"[-0.02893223093411657,-0.09614775032563812]",100.0,"[0.08159794042438688,0.017355792765452478]",4.0,"[-0.07238713396283843,0.10732827813756596]",4.0,"[0.057231651473200716,-0.1750356329615439]",4.0,"[0.015483096375014785,0.19439795229458653]",4.0,"[-0.09383866802330414,-0.09353479563711721]",4.0,"[0.12639332316038104,0.1178820278609874]",4.0,"[-0.18860243672615346,0.043564247196544004]",100.0,"[-0.028690456271233924,0.15459900660902748]",100.0,"[0.016646513293938466,-0.09934034122181853]",100.0,"[0.02,0.02]",265.3918,0.0,49.0,49.0,63.0,1.0,,,,,,,
