right,left,explain.started,explain.stopped,key_resp_3.keys,key_resp_3.rt,key_resp_3.duration,participant,session,date,expName,psychopyVersion,OS,frameRate,study_id,explain_2.started,explain_2.stopped,key_resp_4.keys,key_resp_4.rt,key_resp_4.duration,explain_3.started,explain_3.stopped,key_resp_5.keys,key_resp_5.rt,key_resp_5.duration,fixation.started,fixation.stopped,practice.started,practice.stopped,response.started,response.stopped,key_resp.keys,key_resp.rt,key_resp.duration,feedback.started,feedback.stopped,trials_2.thisRepN,trials_2.thisTrialN,trials_2.thisN,trials_2.thisIndex,trials_2.ran,dot_ratio,explain_4.started,explain_4.stopped,key_resp_6.keys,key_resp_6.rt,key_resp_6.duration,dotDisplay.started,dotDisplay.stopped,ITI.started,polygon_1.pos,polygon_1.edges,polygon_2.pos,polygon_2.edges,polygon_3.pos,polygon_3.edges,polygon_4.pos,polygon_4.edges,polygon_5.pos,polygon_5.edges,polygon_6.pos,polygon_6.edges,polygon_7.pos,polygon_7.edges,polygon_8.pos,polygon_8.edges,polygon_9.pos,polygon_9.edges,polygon_10.pos,polygon_10.edges,polygon_11.pos,polygon_11.edges,polygon_12.pos,polygon_12.edges,polygon_13.pos,polygon_13.edges,polygon_14.pos,polygon_14.edges,polygon_15.pos,polygon_15.edges,polygon_16.pos,polygon_16.edges,polygon_17.pos,polygon_17.edges,polygon_18.pos,polygon_18.edges,polygon_19.pos,polygon_19.edges,polygon_20.pos,polygon_20.edges,polygon_21.pos,polygon_21.edges,polygon_22.pos,polygon_22.edges,polygon_23.pos,polygon_23.edges,polygon_24.pos,polygon_24.edges,polygon_25.pos,polygon_25.edges,polygon_26.pos,polygon_26.edges,polygon_27.pos,polygon_27.edges,polygon_28.pos,polygon_28.edges,polygon_29.pos,polygon_29.edges,polygon_30.pos,polygon_30.edges,polygon_31.pos,polygon_31.edges,polygon_32.pos,polygon_32.edges,dot_size,ITI.stopped,trials.thisRepN,trials.thisTrialN,trials.thisN,trials.thisIndex,trials.ran,break_2.started,break_2.stopped,trials_3.thisRepN,trials_3.thisTrialN,trials_3.thisN,trials_3.thisIndex,trials_3.ran
subject chose dot,subject chose diamond,0.0006,38.6698,space,23.6429,,664b7cea18fe17cd31b5ab5e,6842bbfd5f14aa46597a0e67,2025-06-06_13h00.07.783,shape_ratio,2024.1.5,Win32,59.88023952,6842b561977af9ba9b0f87ca,,,,,,,,,,,,,,,,,,,,,,,,,,,,,,,,,,,,,,,,,,,,,,,,,,,,,,,,,,,,,,,,,,,,,,,,,,,,,,,,,,,,,,,,,,,,,,,,,,,,,,,,,,,,,,,,,
,,,,,,,664b7cea18fe17cd31b5ab5e,6842bbfd5f14aa46597a0e67,2025-06-06_13h00.07.783,shape_ratio,2024.1.5,Win32,59.88023952,6842b561977af9ba9b0f87ca,38.672,139.6373,space,70.9338,,,,,,,,,,,,,,,,,,,,,,,,,,,,,,,,,,,,,,,,,,,,,,,,,,,,,,,,,,,,,,,,,,,,,,,,,,,,,,,,,,,,,,,,,,,,,,,,,,,,,,,,,,,,,
,,,,,,,664b7cea18fe17cd31b5ab5e,6842bbfd5f14aa46597a0e67,2025-06-06_13h00.07.783,shape_ratio,2024.1.5,Win32,59.88023952,6842b561977af9ba9b0f87ca,,,,,,139.6381,155.6444,space,12.9921,,,,,,,,,,,,,,,,,,,,,,,,,,,,,,,,,,,,,,,,,,,,,,,,,,,,,,,,,,,,,,,,,,,,,,,,,,,,,,,,,,,,,,,,,,,,,,,,,,,,,,,,
,,,,,,,664b7cea18fe17cd31b5ab5e,6842bbfd5f14aa46597a0e67,2025-06-06_13h00.07.783,shape_ratio,2024.1.5,Win32,59.88023952,6842b561977af9ba9b0f87ca,,,,,,,,,,,155.7317,156.1583,156.1595,156.4112,156.4127,157.8439,right,1.3789,,157.846,158.9412,0.0,0.0,0.0,0.0,1.0,0.2,,,,,,,,,,,,,,,,,,,,,,,,,,,,,,,,,,,,,,,,,,,,,,,,,,,,,,,,,,,,,,,,,,,,,,,,,,,,,,,,,,,,,,
,,,,,,,664b7cea18fe17cd31b5ab5e,6842bbfd5f14aa46597a0e67,2025-06-06_13h00.07.783,shape_ratio,2024.1.5,Win32,59.88023952,6842b561977af9ba9b0f87ca,,,,,,,,,,,158.9439,159.4403,159.4404,159.6957,159.6958,160.7304,left,1.0165,,160.7307,161.8236,0.0,1.0,1.0,1.0,1.0,0.8,,,,,,,,,,,,,,,,,,,,,,,,,,,,,,,,,,,,,,,,,,,,,,,,,,,,,,,,,,,,,,,,,,,,,,,,,,,,,,,,,,,,,,
,,,,,,,664b7cea18fe17cd31b5ab5e,6842bbfd5f14aa46597a0e67,2025-06-06_13h00.07.783,shape_ratio,2024.1.5,Win32,59.88023952,6842b561977af9ba9b0f87ca,,,,,,,,,,,,,,,,,,,,,,,,,,,,161.8257,190.549,space,25.7015,,,,,,,,,,,,,,,,,,,,,,,,,,,,,,,,,,,,,,,,,,,,,,,,,,,,,,,,,,,,,,,,,,,,,,,,,,,,,,,,,,
,,,,,,,664b7cea18fe17cd31b5ab5e,6842bbfd5f14aa46597a0e67,2025-06-06_13h00.07.783,shape_ratio,2024.1.5,Win32,59.88023952,6842b561977af9ba9b0f87ca,,,,,,,,,,,190.6123,191.0627,,,191.3027,192.4039,left,1.086,,,,,,,,,0.4,,,,,,191.0644,191.3025,192.4059,"[-0.1237386365156721,-0.10760491827835396]",4.0,"[0.06480551948678996,-0.11943901828689889]",100.0,"[0.16079308879977516,-0.053238232770699424]",100.0,"[0.008494658626576038,-0.19181776747136803]",4.0,"[-0.1495929128791454,0.13182032572636024]",4.0,"[0.11199381945448347,-0.10293158447290056]",100.0,"[0.060075347299929686,0.0111758386799225]",4.0,"[-0.06606433083783633,0.009993421185681127]",100.0,"[0.157460937534946,0.018062743766906423]",4.0,"[-0.06617507026581568,0.1847345772460416]",4.0,"[-0.15582027700895176,0.038770005664302526]",4.0,"[0.017494457035341027,-0.010230446148511416]",4.0,"[-0.14912035210859137,-0.0639900437112497]",4.0,"[-0.004070485092857939,0.11194707132252875]",100.0,"[-0.03517236212740251,-0.14285563964298517]",100.0,"[0.06794472392334892,-0.16779247518673324]",100.0,"[-0.0545390204096549,-0.0782307118308208]",4.0,"[0.08651134116524839,0.14620050091728154]",4.0,"[0.15739585768451944,-0.11861975827926526]",4.0,"[0.1543065993457064,0.10154670392267318]",4.0,"[0.012537386422745914,-0.08377373711625526]",4.0,"[-0.12165795628330693,-0.15370619322960977]",4.0,"[0.014267200857574516,0.038958003130061515]",100.0,"[-0.11310555219358018,0.09252013528434921]",4.0,"[-0.15479289753463485,0.08064967571388379]",100.0,"[0.09504438414647606,0.05696409044769735]",100.0,"[0.09557643360927469,-0.032770734760696904]",100.0,"[-0.11195217512722583,-0.042706541909126414]",100.0,"[-0.07507442401958887,0.1426368423127382]",100.0,"[0.026531847260608917,0.17515367835026752]",4.0,"[0.06297826802795506,0.09674344183506561]",4.0,"[-0.04612333808796475,0.11335402870123222]",4.0,"[0.02,0.02]",193.4967,0.0,0.0,0.0,162.0,1.0,,,,,,,
,,,,,,,664b7cea18fe17cd31b5ab5e,6842bbfd5f14aa46597a0e67,2025-06-06_13h00.07.783,shape_ratio,2024.1.5,Win32,59.88023952,6842b561977af9ba9b0f87ca,,,,,,,,,,,193.4983,193.9965,,,194.2477,194.7018,right,0.4325,,,,,,,,,0.5,,,,,,193.9967,194.2475,194.7019,"[0.1626858855295336,0.1065011562538865]",100.0,"[0.02200347235262407,0.06469734972463845]",100.0,"[-0.15213908951105176,-0.11070649359770425]",4.0,"[0.10518902665001224,0.1586004286982546]",100.0,"[-0.026470688938317874,-0.17679676446812478]",100.0,"[0.06211547274162424,-0.037640845824196474]",100.0,"[-0.10692129940325522,0.026832457036993322]",100.0,"[0.1288791756863124,-0.14458213876150314]",100.0,"[0.01824388969009142,-0.07272366444869537]",4.0,"[-0.10954442913054512,-0.021105279612269958]",4.0,"[-0.07872501510746235,-0.09933293655576207]",4.0,"[0.02358348639829745,-0.14700931086608454]",4.0,"[0.1068341164786431,0.03934699737499175]",4.0,"[-0.11265015158990963,0.1638080806852102]",4.0,"[-0.13264126345184532,-0.1491711235405225]",100.0,"[0.07440562247826313,-0.10987334133513285]",100.0,"[-0.09301590210927785,-0.05995615743435001]",100.0,"[0.02082054220982873,-0.19273753236772417]",4.0,"[0.11615957117924743,-0.09708366843098883]",100.0,"[0.10566304019592582,-0.03353040825604769]",100.0,"[0.1507446222132802,0.059217957842824395]",4.0,"[0.16816496482968077,-0.053331212377268164]",4.0,"[0.19401483825604635,-0.0033501225873038957]",100.0,"[-0.017773287408124974,-0.1252641835970627]",4.0,"[0.10665153406913624,0.0868656360197933]",100.0,"[-0.02814456496822133,0.07161611816466885]",4.0,"[-0.020982627669997304,-0.04882036174631745]",4.0,"[0.06218361293471504,-0.1744934626865866]",100.0,"[0.025474397798159604,0.1816523084101311]",4.0,"[-0.008380434275243728,0.11453429742140826]",4.0,"[-0.07450452096344343,0.18219703717615096]",4.0,"[-0.004267537795438068,0.01974699939672684]",100.0,"[0.02,0.02]",195.7941,0.0,1.0,1.0,114.0,1.0,,,,,,,
,,,,,,,664b7cea18fe17cd31b5ab5e,6842bbfd5f14aa46597a0e67,2025-06-06_13h00.07.783,shape_ratio,2024.1.5,Win32,59.88023952,6842b561977af9ba9b0f87ca,,,,,,,,,,,195.7957,196.295,,,196.5472,197.1656,right,0.6071,,,,,,,,,0.9,,,,,,196.2952,196.5469,197.1658,"[-0.035909122508419454,0.01489725409337936]",100.0,"[-0.05460171754032106,0.08599172766157938]",100.0,"[0.00479475008800673,-0.19694932596050996]",100.0,"[0.12159587200066561,0.052803386947348124]",100.0,"[0.18680354772072041,0.06805877422184978]",100.0,"[-0.043794597255164346,-0.15826260558699592]",100.0,"[0.1760656824527985,-0.0026773421812294374]",100.0,"[-0.04429527777045214,-0.08903207841347117]",100.0,"[0.09992835735801345,-0.0004104819392553402]",100.0,"[0.07174144356387648,0.16256374632903722]",100.0,"[-0.009713900344697901,0.07270235867822618]",100.0,"[0.05943822934385417,0.11118733906735524]",100.0,"[0.046712270285470314,-0.08280516711196352]",100.0,"[0.11234932439352383,-0.15329623936122985]",4.0,"[0.12016748700017889,0.14716006582809402]",100.0,"[-0.001032755386534933,-0.04482385347995516]",100.0,"[-0.01769354388972698,0.19482856281013644]",4.0,"[-0.14289532424098317,0.0882085420308148]",100.0,"[-0.09873822647530811,0.014866396425069909]",100.0,"[0.07026761170992521,-0.045161856496530955]",100.0,"[-0.13392926242131548,-0.09666830363671534]",100.0,"[-0.17008883358682822,-0.01556238997155382]",100.0,"[0.11050438792836786,0.10301087221751529]",100.0,"[0.18345681339765113,-0.06349834400804363]",100.0,"[0.009247771478815033,0.016082188798403185]",100.0,"[-0.000015017454562458558,-0.14536326580353448]",100.0,"[-0.0980666816155605,0.155115686180384]",4.0,"[0.080835429864676,0.07061996270306904]",100.0,"[0.0023981995943710456,0.12421540036813253]",100.0,"[0.1327049473158626,-0.05939723630904035]",100.0,"[-0.12879062119131354,-0.05489793610696812]",100.0,"[-0.09144475690059771,-0.09856602680669281]",100.0,"[0.02,0.02]",198.2615,0.0,2.0,2.0,15.0,1.0,,,,,,,
,,,,,,,664b7cea18fe17cd31b5ab5e,6842bbfd5f14aa46597a0e67,2025-06-06_13h00.07.783,shape_ratio,2024.1.5,Win32,59.88023952,6842b561977af9ba9b0f87ca,,,,,,,,,,,198.264,198.7608,,,199.0121,199.5936,right,0.5674,,,,,,,,,0.55,,,,,,198.761,199.0119,199.594,"[0.08386553439922641,0.09065072247045075]",100.0,"[-0.059238930461902435,0.002923241179353803]",100.0,"[0.08606884347681489,-0.1547212933391793]",100.0,"[0.08095897395764985,-0.05734127564781652]",4.0,"[-0.10803570325981629,-0.00657706687073498]",4.0,"[0.13586417236389978,0.12961609320254772]",4.0,"[-0.07157812350185637,0.10755338411484537]",4.0,"[-0.16203472290606524,0.09212739139946007]",100.0,"[-0.13766530081800082,-0.05415386067394778]",100.0,"[0.13246056722375701,-0.09229051164561483]",4.0,"[0.02053076463928669,0.10530582977124547]",100.0,"[-0.06574435453809338,0.15279732528360682]",4.0,"[0.05196773412909698,-0.11041874245153381]",4.0,"[-0.010238797634654014,-0.15404144305395875]",100.0,"[0.09101736562523198,0.0005457891076069456]",4.0,"[0.17555167469734426,0.033561943340177355]",100.0,"[0.04858485038036478,0.05632991461297618]",100.0,"[0.01988339799307255,0.0051781798871252315]",4.0,"[0.017875636361904257,-0.18555991402199298]",100.0,"[-0.1294900493417089,0.06781043249194418]",100.0,"[0.14842545359842918,0.08201368595603643]",100.0,"[-0.17084206608042182,0.03870924541535344]",100.0,"[-0.087444915691322,-0.09446721731556217]",100.0,"[-0.1162932732666709,0.16212768904939465]",4.0,"[-0.11027542261079033,0.12194342007173761]",100.0,"[-0.1981056881346911,-0.020465959222592343]",4.0,"[0.17165367815204804,-0.06264120069381625]",4.0,"[-0.07187636998838656,-0.1328794929731971]",4.0,"[-0.007053807965207832,0.14947371473613835]",100.0,"[-0.13864911868643157,-0.11526252066663699]",4.0,"[-0.0813578590255897,-0.17828014948628632]",100.0,"[-0.026754274019473032,0.1026293681848042]",100.0,"[0.02,0.02]",200.6927,0.0,3.0,3.0,78.0,1.0,,,,,,,
,,,,,,,664b7cea18fe17cd31b5ab5e,6842bbfd5f14aa46597a0e67,2025-06-06_13h00.07.783,shape_ratio,2024.1.5,Win32,59.88023952,6842b561977af9ba9b0f87ca,,,,,,,,,,,200.6948,201.1924,,,201.4447,202.1272,left,0.6671,,,,,,,,,0.6,,,,,,201.1927,201.4446,202.1277,"[0.06754733679940968,-0.04735704152985479]",100.0,"[0.011820883980717282,0.1942296649297205]",100.0,"[-0.09224603121778853,0.0600576651598264]",100.0,"[-0.047723726169164905,-0.11901021052777647]",4.0,"[0.11948315025720502,0.020389414293937317]",4.0,"[-0.15824540696449305,0.1120434733094219]",100.0,"[-0.18315595019076036,0.05734330521496614]",100.0,"[0.1074875217568557,-0.022081020567989516]",4.0,"[0.061856055039336305,0.0020322598501890323]",100.0,"[-0.16221542940126252,-0.09646486643370572]",4.0,"[-0.02830424371529632,0.14635716785348385]",100.0,"[0.04718343646977036,-0.1701359384570061]",4.0,"[-0.12764717813455992,0.01586086517128649]",100.0,"[-0.12475396649000703,-0.07966668420368084]",100.0,"[-0.0739215507613039,-0.0026836720963291766]",4.0,"[0.09515454207690992,0.1410408576759177]",100.0,"[-0.10796892724933718,0.13846196606584904]",100.0,"[0.0009944620040674692,0.03094294783792606]",100.0,"[0.059724432992196985,-0.10843664821490617]",100.0,"[0.0618903674617839,0.179919372013741]",100.0,"[-0.17349237533184023,-0.02714529674445963]",4.0,"[0.0016618768928837943,-0.07264421218204874]",100.0,"[0.13022074571108597,0.11839822917527815]",100.0,"[-0.06085557323352584,-0.16026171608125336]",4.0,"[0.10525452872739045,0.08157258960034199]",4.0,"[0.1750718709949578,-0.09036821075312801]",4.0,"[0.17681195789429607,0.007999491703191898]",4.0,"[0.19081902997156236,-0.03617964018345217]",4.0,"[-0.11233643538129567,-0.024447698740332365]",100.0,"[0.0008193774428504893,0.09518811310466269]",100.0,"[-0.020848077597918888,-0.0318142835367816]",100.0,"[0.10475741126532132,-0.1272991232846012]",4.0,"[0.02,0.02]",203.2249,0.0,4.0,4.0,58.0,1.0,,,,,,,
,,,,,,,664b7cea18fe17cd31b5ab5e,6842bbfd5f14aa46597a0e67,2025-06-06_13h00.07.783,shape_ratio,2024.1.5,Win32,59.88023952,6842b561977af9ba9b0f87ca,,,,,,,,,,,203.2266,203.7253,,,203.9773,205.1966,left,1.2037,,,,,,,,,0.55,,,,,,203.7255,203.9771,205.1968,"[-0.024175129268633157,-0.11654959516270395]",100.0,"[-0.06181276128300815,-0.047172027400707896]",100.0,"[-0.1379112375040973,-0.02265041205963046]",100.0,"[0.06550391902205166,-0.10297228373163107]",4.0,"[0.09876969925792388,0.10151904192798607]",4.0,"[0.053012820120183435,-0.0003498741518713736]",100.0,"[-0.0013395269117156229,0.014722744659957494]",4.0,"[0.027951635719828203,0.05143792685435123]",100.0,"[-0.0882177822242748,0.09803615079827296]",4.0,"[0.10945777340735127,-0.11937299952824788]",100.0,"[-0.036985028633995595,0.08750022981215469]",4.0,"[0.027879446564629578,0.1946174242505994]",100.0,"[0.09370740212423359,0.0509627240024094]",100.0,"[0.01795069468199625,-0.09600179075538656]",100.0,"[-0.1329911205901238,0.09269989940277447]",100.0,"[-0.10467624428144395,-0.06857130481625094]",100.0,"[0.04310522837175332,-0.1825289973126994]",4.0,"[0.12415775588837431,0.01262087814823348]",4.0,"[0.18022107026344342,-0.07019304420363584]",100.0,"[-0.10653093048915525,0.1532242433585145]",4.0,"[0.13527338581019305,-0.03557488872681326]",4.0,"[0.12904715563504848,0.1286312767984522]",100.0,"[-0.02039316916759992,0.15703287957874723]",4.0,"[-0.17190064015482331,0.07217093224757182]",4.0,"[0.05651216657956979,0.14495069088334264]",4.0,"[-0.12311847184177271,-0.13779380904320407]",4.0,"[0.19389015164293827,0.02691099217685091]",100.0,"[0.07037215936032247,0.18283310268415018]",100.0,"[-0.05824100307620942,0.1855724870068908]",100.0,"[-0.017286977692155526,-0.05190516829724418]",100.0,"[0.011617069705570606,0.09047842842612869]",100.0,"[-0.026049435413086873,-0.15723576170922024]",4.0,"[0.02,0.02]",206.2916,0.0,5.0,5.0,87.0,1.0,,,,,,,
,,,,,,,664b7cea18fe17cd31b5ab5e,6842bbfd5f14aa46597a0e67,2025-06-06_13h00.07.783,shape_ratio,2024.1.5,Win32,59.88023952,6842b561977af9ba9b0f87ca,,,,,,,,,,,206.2939,206.7917,,,207.0446,208.2412,right,1.1756,,,,,,,,,0.55,,,,,,206.7918,207.0445,208.2414,"[0.003354200512678099,-0.08190958461633889]",100.0,"[0.07620707870943749,0.14380283688659656]",100.0,"[0.00924428988159335,-0.19648588977652068]",100.0,"[-0.05345081688124291,-0.1099710890541819]",4.0,"[-0.07067366220492602,0.019198502519039654]",100.0,"[0.18895737043466307,0.005520821357083471]",100.0,"[0.036622881965847565,0.1050279961228612]",4.0,"[0.0743401503434492,-0.1667643734262434]",4.0,"[0.15000249486584663,0.05461956443156807]",100.0,"[-0.009893501507357173,0.01875082332779747]",4.0,"[0.13888476210698464,-0.06268214102501508]",100.0,"[0.022117078736565605,0.18917557288951223]",100.0,"[-0.03772665240498895,-0.14819732944566064]",4.0,"[0.07791169296543862,0.08167550244412507]",100.0,"[-0.05369139495963991,-0.019996620959082945]",4.0,"[-0.026455000300986516,0.10149093739924614]",4.0,"[0.008857546961336626,0.13627916631310685]",100.0,"[-0.07800178407799566,-0.14366556082030707]",4.0,"[-0.10050299459394803,-0.047927988788562075]",4.0,"[-0.009333452420582667,-0.037575445325387063]",4.0,"[0.05124130183584512,0.04525145068608442]",4.0,"[-0.0819435044206537,0.12161676050846033]",100.0,"[-0.13679180884809158,0.022227586182451464]",100.0,"[-0.1496890223330632,0.08968401115193125]",4.0,"[0.1848322869400319,-0.059609166303665403]",100.0,"[0.056888092645080914,-0.06839609576828837]",100.0,"[-0.02362367732105109,0.16508593543225417]",100.0,"[0.04541482968371795,0.005547530919568397]",100.0,"[0.0905130976304505,-0.11781739769504858]",100.0,"[0.14821722342016108,0.11174886388139173]",4.0,"[-0.15819011979623984,-0.051596550531536535]",4.0,"[-0.08165580563718831,0.08126649285698899]",100.0,"[0.02,0.02]",209.3413,0.0,6.0,6.0,79.0,1.0,,,,,,,
,,,,,,,664b7cea18fe17cd31b5ab5e,6842bbfd5f14aa46597a0e67,2025-06-06_13h00.07.783,shape_ratio,2024.1.5,Win32,59.88023952,6842b561977af9ba9b0f87ca,,,,,,,,,,,209.3473,209.8407,,,210.0963,211.0431,right,0.9226,,,,,,,,,0.4,,,,,,209.8407,210.0963,211.0439,"[-0.17861389521042847,0.003271101463149283]",4.0,"[0.07609528454020652,-0.10804600747004067]",4.0,"[-0.043335144770352725,-0.15443843643443697]",4.0,"[0.1007175636208663,0.09301071183329335]",4.0,"[-0.018825166732266238,-0.017007062833935865]",4.0,"[0.18835158050357037,-0.008600510937434011]",4.0,"[-0.004773066642509775,0.04600979139060398]",4.0,"[-0.041495095278313104,0.1313928744317101]",100.0,"[0.14273758752825738,0.11486503642966678]",4.0,"[0.00853085290787716,0.19835153124936605]",4.0,"[-0.04487118712016968,0.050517662797049626]",4.0,"[0.04426473320147689,0.06605232437707721]",4.0,"[0.029616801858737867,0.012121751868261726]",100.0,"[-0.1012854992777251,-0.030784342218088415]",100.0,"[0.15817216592496852,-0.04677777655556016]",100.0,"[0.10637309145206225,0.01570101637446762]",100.0,"[0.1259026618000655,-0.12955250167853635]",4.0,"[-0.13322690188562517,0.11792357934493469]",4.0,"[-0.09237186063773657,-0.11689292567380437]",100.0,"[-0.06470147712621413,-0.07677966488898336]",4.0,"[-0.09083338020964171,0.11414958985924155]",100.0,"[-0.10777328364132417,0.05355960556746978]",4.0,"[-0.18132612425516123,-0.07344874482786419]",100.0,"[0.02662547891833295,-0.14586094792267332]",100.0,"[0.14279029322307543,0.058378567569200235]",100.0,"[-0.08959466083866532,-0.161356454484241]",100.0,"[0.004536618914403357,0.08965448931081212]",4.0,"[0.06514639877469312,0.11257896753498854]",4.0,"[0.02173090501127586,-0.08664321596427735]",4.0,"[0.07471794147743603,-0.175872026556452]",100.0,"[0.03564907487718645,-0.19565937815960832]",4.0,"[0.060290978023399194,-0.038547217238561325]",100.0,"[0.02,0.02]",212.1394,0.0,7.0,7.0,164.0,1.0,,,,,,,
,,,,,,,664b7cea18fe17cd31b5ab5e,6842bbfd5f14aa46597a0e67,2025-06-06_13h00.07.783,shape_ratio,2024.1.5,Win32,59.88023952,6842b561977af9ba9b0f87ca,,,,,,,,,,,212.1414,212.639,,,212.8898,213.906,left,1.0019,,,,,,,,,0.5,,,,,,212.6394,212.8898,213.9061,"[0.07472882845159726,0.032768348737824464]",4.0,"[0.03197632786451609,0.1438121152221133]",100.0,"[0.07808585898530909,-0.1416843500420816]",100.0,"[0.1649945635320284,0.02120353016717068]",100.0,"[0.005729532192588407,0.09189992957105869]",100.0,"[0.08895260510280784,-0.036803312135887105]",100.0,"[-0.04721896732692217,-0.00014293865085947177]",4.0,"[0.026984303935655984,0.19434739323674832]",100.0,"[0.14759880435937836,0.07536876086252209]",4.0,"[-0.12104617153212809,0.15413600352738324]",4.0,"[0.00833230343437492,0.044640747613719105]",4.0,"[-0.014416425214976755,0.17242747513943577]",100.0,"[0.10512700978865892,0.08274065342718563]",100.0,"[0.11173463792521497,0.16342708326530175]",4.0,"[-0.09505855883741611,0.10746087810614151]",4.0,"[0.005635701821972407,-0.12245295399193197]",100.0,"[-0.07527867887078538,-0.0382245984228009]",100.0,"[0.02895087340874765,-0.16833736526322046]",4.0,"[-0.08381746238651505,0.06054183342821392]",4.0,"[0.13613032447001971,-0.13221937593323818]",4.0,"[0.17241382981380773,-0.03714797005693079]",4.0,"[-0.18836260276155994,0.011930011123639946]",100.0,"[-0.13818626286150026,-0.05059817388638641]",4.0,"[0.05782090025581393,0.1099351013195222]",4.0,"[-0.06630536071786414,0.18603263438957002]",100.0,"[0.04237714256224214,-0.06757165967803959]",100.0,"[-0.056779341323320374,0.14368721892483471]",4.0,"[-0.03118370977815611,-0.1587075021731455]",100.0,"[-0.15059193229509774,0.06807373787794466]",4.0,"[-0.09392365875583542,-0.11580385623993]",100.0,"[-0.002012084290117359,-0.04573439711880387]",4.0,"[0.1245003341835589,0.11835511618166027]",100.0,"[0.02,0.02]",215.0044,0.0,8.0,8.0,92.0,1.0,,,,,,,
,,,,,,,664b7cea18fe17cd31b5ab5e,6842bbfd5f14aa46597a0e67,2025-06-06_13h00.07.783,shape_ratio,2024.1.5,Win32,59.88023952,6842b561977af9ba9b0f87ca,,,,,,,,,,,215.0062,215.5041,,,215.7429,216.4261,left,0.6647,,,,,,,,,0.4,,,,,,215.5042,215.7429,216.4263,"[0.13419906575318,0.03148549775380158]",4.0,"[-0.150140903113812,-0.06913061887864005]",100.0,"[0.19254534986485877,-0.023569365336014426]",4.0,"[-0.14962854879153384,0.08846194370291119]",4.0,"[-0.1702108626952202,0.016090075840969408]",100.0,"[-0.06339190244394838,0.14658430635913194]",4.0,"[0.14802166295265126,-0.006566144393236943]",4.0,"[-0.08770661680213322,-0.08135997484215969]",4.0,"[0.10038982199791838,0.08708957104150092]",100.0,"[-0.01422907141939029,-0.031087615411784113]",100.0,"[-0.048962562005935906,0.10785373237994124]",100.0,"[-0.16410338083035572,-0.029718022283813046]",100.0,"[0.08579897170850063,-0.0900137059770545]",4.0,"[0.005369636883480732,-0.1093627753709411]",4.0,"[-0.0777322762001149,0.03204199431429855]",4.0,"[-0.011865097254477954,0.06195319155405978]",100.0,"[0.07854920741360989,0.16879509704567836]",4.0,"[0.051312376142145774,-0.1113244047879191]",100.0,"[0.02107933669206363,0.17884911371480297]",100.0,"[0.04748633322940558,0.09356399219954205]",100.0,"[-0.03998276766416702,-0.14788301548180754]",4.0,"[-0.010157513494427495,0.1531669651977326]",4.0,"[0.01029912299800753,-0.1633248968457331]",4.0,"[0.12059155378661539,-0.1505196502509292]",4.0,"[-0.04622762659065484,-0.08651443048945488]",4.0,"[0.1352895319189696,-0.08405352650923233]",4.0,"[-0.10316481600305961,-0.16103122997575786]",100.0,"[0.18361208946082405,0.07534717467870791]",4.0,"[0.0336271302793078,-0.055244094781422365]",4.0,"[-0.14906026004101322,-0.11206829400225274]",100.0,"[0.1149440465017405,0.14442037678624492]",100.0,"[0.04446607817248915,0.0497124647676617]",4.0,"[0.02,0.02]",217.5208,0.0,9.0,9.0,166.0,1.0,,,,,,,
,,,,,,,664b7cea18fe17cd31b5ab5e,6842bbfd5f14aa46597a0e67,2025-06-06_13h00.07.783,shape_ratio,2024.1.5,Win32,59.88023952,6842b561977af9ba9b0f87ca,,,,,,,,,,,217.5234,218.0214,,,218.2722,218.8716,left,0.5853,,,,,,,,,0.5,,,,,,218.0214,218.272,218.8717,"[-0.04173852218160989,-0.1162404960813671]",100.0,"[-0.07747447775246347,-0.08219422848837447]",4.0,"[-0.12369029418305301,-0.033394663615827457]",4.0,"[0.047690838716489964,0.012372953612546261]",4.0,"[-0.14018165745221578,-0.10455457218846245]",4.0,"[-0.18336626155208205,-0.05495842178250632]",4.0,"[-0.1620397199851689,0.02821816813717338]",4.0,"[0.13374680700300104,-0.11674505327518955]",100.0,"[0.12488246325160968,-0.020506268309707906]",4.0,"[0.0103996155800417,0.04178155402126858]",100.0,"[-0.03076870792384758,0.03227941888224874]",100.0,"[-0.1164308948224932,0.1190141245455433]",4.0,"[-0.08423771393487914,0.049608286531057776]",4.0,"[-0.026320189044581044,0.12172481391683823]",100.0,"[0.08623791925382658,0.06546163295453752]",4.0,"[-0.06521333819790504,0.0014550162954187734]",100.0,"[0.16557079472161046,-0.0057472546433475205]",4.0,"[0.0883400111928487,-0.17373472283746536]",4.0,"[-0.1476078760241591,0.08670204505449092]",4.0,"[0.006249011486549025,-0.07480401334804246]",100.0,"[0.008109053888806724,-0.12062288818973697]",100.0,"[0.020911341793778303,0.17364280602687493]",100.0,"[0.08741404233120446,-0.0009261722541031394]",100.0,"[0.18881082085361334,0.0338001802448915]",100.0,"[0.07844566447545848,-0.08511982227659179]",4.0,"[0.05065460598947146,0.13410182265887977]",100.0,"[-0.03812267276190032,-0.0734767055162928]",100.0,"[0.011237624389040498,-0.17202308578165637]",100.0,"[0.09082414512174407,0.13224228201551466]",4.0,"[-0.06831788072343313,-0.15240829378315401]",100.0,"[0.013205350755993947,0.10424663838189334]",100.0,"[0.1823976626270926,-0.05912242583115108]",4.0,"[0.02,0.02]",219.9697,0.0,10.0,10.0,115.0,1.0,,,,,,,
,,,,,,,664b7cea18fe17cd31b5ab5e,6842bbfd5f14aa46597a0e67,2025-06-06_13h00.07.783,shape_ratio,2024.1.5,Win32,59.88023952,6842b561977af9ba9b0f87ca,,,,,,,,,,,219.9713,220.469,,,220.7092,221.4403,left,0.7099,,,,,,,,,0.5,,,,,,220.4692,220.7091,221.4405,"[0.03516390746224102,-0.022014190379238577]",4.0,"[-0.17994490802882623,-0.036479308676068384]",100.0,"[0.03879584277573146,0.06419546638857689]",4.0,"[0.03783872995594973,0.16322062587206496]",4.0,"[-0.11308105650163991,0.0026500417874392203]",100.0,"[0.052535168533283105,-0.11373180574177569]",4.0,"[-0.13035617264249755,-0.052251283304535226]",100.0,"[-0.08726144083091095,-0.04096405921928785]",100.0,"[0.17553748749328135,-0.04481300133612472]",4.0,"[0.07750544622693371,0.14446417141040557]",100.0,"[-0.15837033077306215,0.08905722763234925]",4.0,"[0.007811315128350327,-0.15705572336234772]",100.0,"[-0.018013333703292674,0.06271856742192697]",100.0,"[0.08446528934851696,-0.07336254797606166]",4.0,"[-0.07454415773971998,-0.15768004405160804]",100.0,"[-0.04556333704115604,0.11520007834952292]",4.0,"[0.16055106958874396,0.08663068937882094]",4.0,"[0.09110153301983606,-0.155651272989763]",100.0,"[-0.050621597970639864,-0.06144407127848334]",4.0,"[0.12709123474294995,-0.10537688773269138]",100.0,"[-0.16250129214077846,0.04195301871643407]",4.0,"[-0.027774278319778797,0.19191780102968686]",4.0,"[0.11692975591830126,-0.012951088627113689]",100.0,"[-0.08427483437813843,0.08137557489809549]",4.0,"[-0.03683119973116739,-0.1959597099342366]",100.0,"[0.06611836923688467,0.020026705450867013]",100.0,"[0.010965881482436803,0.016869135312064923]",100.0,"[0.0016850265692672378,0.12020024629119516]",100.0,"[0.11500454077997467,0.10738452998344705]",4.0,"[0.005244006507955937,-0.10315995952574439]",4.0,"[0.08194491327435462,0.057135465890708156]",100.0,"[0.13387562276621123,-0.049442726550643315]",4.0,"[0.02,0.02]",222.5358,0.0,11.0,11.0,111.0,1.0,,,,,,,
,,,,,,,664b7cea18fe17cd31b5ab5e,6842bbfd5f14aa46597a0e67,2025-06-06_13h00.07.783,shape_ratio,2024.1.5,Win32,59.88023952,6842b561977af9ba9b0f87ca,,,,,,,,,,,222.538,223.0356,,,223.2917,224.0039,right,0.6934,,,,,,,,,0.9,,,,,,223.0357,223.2916,224.004,"[-0.16756226149577896,0.09423865430043213]",100.0,"[-0.19032861756487304,-0.018652464438789044]",100.0,"[0.11933377110218966,-0.05142732680238065]",100.0,"[-0.009448298190409663,-0.14509595375415776]",100.0,"[0.13859875659024834,0.10347833387997996]",100.0,"[0.0018508536008115916,0.13109760304450097]",100.0,"[-0.016011386734065148,-0.09605293707357725]",100.0,"[0.054745900402108576,0.0774456398237059]",4.0,"[-0.061762612969736154,-0.04975931473323762]",100.0,"[0.1183416008821072,-0.09256075728783505]",100.0,"[-0.06378968404245826,-0.16714528353186583]",100.0,"[0.029634849697515533,-0.15505306161341065]",100.0,"[0.019989819320877247,0.004385109841422225]",100.0,"[-0.16618413883680946,0.013551334882368034]",4.0,"[0.05139637244224756,0.14510633364834843]",100.0,"[-0.07859935588306241,0.03127710524566765]",100.0,"[0.18387094872966298,-0.025417256188453197]",100.0,"[-0.1133812122027562,0.09499774949860401]",100.0,"[0.10562988644424845,0.153179677552402]",100.0,"[0.10188711156252497,-0.1455455573459146]",100.0,"[-0.12022342412513165,-0.06268244817790616]",100.0,"[0.06704297870524273,-0.11979785023541731]",100.0,"[0.07779422182845488,0.043697099570908025]",100.0,"[0.011769177748721731,-0.03618199312403391]",100.0,"[0.07901520782876918,-0.014984014656612211]",100.0,"[-0.13118487635884038,-0.12945951757715526]",100.0,"[-0.024756435684943044,-0.19496081876824442]",100.0,"[-0.06652452945642964,0.12014342782419644]",100.0,"[0.006241465077540591,0.1722364736501863]",100.0,"[0.18238375745516142,0.03689701195972636]",100.0,"[-0.10432118115457657,0.14091753150918088]",100.0,"[-0.1319130163136284,0.05649263073687892]",4.0,"[0.02,0.02]",225.1022,0.0,12.0,12.0,13.0,1.0,,,,,,,
,,,,,,,664b7cea18fe17cd31b5ab5e,6842bbfd5f14aa46597a0e67,2025-06-06_13h00.07.783,shape_ratio,2024.1.5,Win32,59.88023952,6842b561977af9ba9b0f87ca,,,,,,,,,,,225.104,225.6046,,,225.8575,226.4539,left,0.582,,,,,,,,,0.5,,,,,,225.6048,225.8573,226.4539,"[-0.07320854648041339,-0.11939511502334427]",4.0,"[-0.10251674198791295,-0.03630182966446173]",4.0,"[-0.03674435592300422,-0.097847615735256]",100.0,"[0.050498837619728246,-0.07354881149223275]",4.0,"[-0.17158480805194948,-0.0967431982415311]",4.0,"[-0.18051697284027138,0.06965588627635527]",100.0,"[-0.17859671380040007,0.003838792857556938]",100.0,"[0.056585327083347695,0.1917964816934027]",100.0,"[-0.056669777006739294,-0.014084376358778438]",100.0,"[0.00635369491362104,0.1427206258040707]",100.0,"[-0.08606712948089143,0.1317094307884565]",4.0,"[-0.11151459921822521,0.062171274667997926]",4.0,"[0.06438907944933633,0.08942249100027755]",4.0,"[-0.026837257026222045,0.1934639657600163]",4.0,"[0.10658206145073229,0.08935430862845872]",100.0,"[-0.14323942426673894,-0.1349255677718162]",100.0,"[0.16577989627024778,0.05179433380076236]",100.0,"[0.1878457489065237,0.003414820874281939]",100.0,"[-0.008041558361561384,-0.04099301808514679]",100.0,"[0.04136196482149155,0.008730174486333847]",4.0,"[0.08047184239780525,-0.1708596430569389]",100.0,"[0.1024358637780041,0.015673231660117765]",100.0,"[0.07173494451231237,0.14499662285923126]",100.0,"[-0.03352062125453009,0.03936830288974418]",4.0,"[0.13808176608476877,-0.08393643819311733]",4.0,"[0.12161438942528847,0.13178871373303983]",100.0,"[-0.10188846043215241,-0.07778920985957793]",4.0,"[-0.1383424845925044,0.0058670811248601185]",4.0,"[-0.03545806420892533,-0.1458330554904871]",4.0,"[-0.03831690099934665,0.08904263230393723]",4.0,"[-0.08945490968426464,-0.17097058442367546]",4.0,"[0.034741057967265045,0.05089000945445291]",100.0,"[0.02,0.02]",227.5511,0.0,13.0,13.0,108.0,1.0,,,,,,,
,,,,,,,664b7cea18fe17cd31b5ab5e,6842bbfd5f14aa46597a0e67,2025-06-06_13h00.07.783,shape_ratio,2024.1.5,Win32,59.88023952,6842b561977af9ba9b0f87ca,,,,,,,,,,,227.5527,228.0503,,,228.3013,229.0511,right,0.7329,,,,,,,,,0.1,,,,,,228.0505,228.3012,229.0512,"[0.1925586029696313,0.04414057166561171]",4.0,"[0.026698168521424794,0.1588523519804659]",100.0,"[-0.011295161752989074,-0.19891665749355877]",4.0,"[-0.07245986916910724,0.13236030860924317]",100.0,"[-0.05789777851199778,-0.11603710441979477]",4.0,"[-0.06975036669546934,0.05991613474761206]",4.0,"[0.05181355915151846,-0.09003030314458507]",4.0,"[0.01775006699796756,-0.022824745269011838]",4.0,"[0.14468719706893576,0.11505083957639638]",4.0,"[-0.1578350726405277,-0.09116737551055926]",4.0,"[0.14107195426234004,0.06750578028076054]",4.0,"[-0.16489431749359063,0.016759265569714087]",4.0,"[0.08362378597708686,-0.05500033790245091]",4.0,"[-0.03887712170356588,0.105156443182777]",100.0,"[0.08903456777651787,-0.15038140007021347]",4.0,"[0.014024175656897744,0.04103480237128436]",4.0,"[0.022638399644637146,0.10656725663186566]",4.0,"[-0.12549314782185284,0.09207031442199548]",4.0,"[-0.00009756366573150542,-0.14886185563701396]",4.0,"[-0.10877523181371823,-0.003550394012699125]",4.0,"[0.18762960751442637,-0.05396720433243845]",4.0,"[0.18093695730874654,0.08345353282011761]",4.0,"[0.11111038195321359,0.15299335115036705]",4.0,"[0.10031148684841165,0.09824747020858234]",4.0,"[-0.015060060541052708,-0.10896257260252812]",4.0,"[-0.15307926250832246,-0.032437600019484654]",4.0,"[0.15458100182092602,0.00797487261479779]",4.0,"[-0.024975749246208743,-0.004620568200914874]",4.0,"[-0.0625701112892141,0.18361223643755048]",4.0,"[-0.019496556457915763,-0.057519758171153325]",4.0,"[0.10081837749923937,-0.11047854095437602]",4.0,"[0.13910321188416638,-0.061165424662850264]",4.0,"[0.02,0.02]",230.1484,0.0,14.0,14.0,209.0,1.0,,,,,,,
,,,,,,,664b7cea18fe17cd31b5ab5e,6842bbfd5f14aa46597a0e67,2025-06-06_13h00.07.783,shape_ratio,2024.1.5,Win32,59.88023952,6842b561977af9ba9b0f87ca,,,,,,,,,,,230.1489,230.6495,,,230.9036,231.7541,left,0.8314,,,,,,,,,0.1,,,,,,230.6505,230.9035,231.7542,"[-0.17095090884556294,0.0010354282528364787]",4.0,"[-0.05025645328108351,0.0983149061075257]",4.0,"[0.173080357451494,0.07642341097215158]",4.0,"[0.002429601288453365,-0.13072400105851395]",4.0,"[-0.18317935895702306,-0.05916386616312302]",4.0,"[-0.10917668558224763,0.044098944183224]",100.0,"[0.050114799282730674,-0.19302738621786017]",4.0,"[-0.10169333328250632,0.08599724908722696]",4.0,"[-0.06421468093608228,-0.12586878232951215]",4.0,"[-0.11817472821580932,0.12703314380869657]",100.0,"[0.04916837403637472,0.1399186854427415]",4.0,"[0.08999256362195827,-0.041680491554845725]",4.0,"[0.1451624087210695,-0.09907164380421077]",4.0,"[-0.027626538799740977,-0.17989247349618204]",4.0,"[-0.0033216925694682493,-0.004739343321763457]",4.0,"[0.11390959361949564,0.005148201516239756]",4.0,"[0.10667340341379271,0.08031046164146263]",4.0,"[-0.13209235604816683,-0.03252291371368764]",100.0,"[0.10200321270465754,0.1695036047595906]",4.0,"[-0.06807433687659822,0.17309372151728933]",4.0,"[-0.1718343850408353,0.06690560989429957]",4.0,"[0.11814515144043834,-0.16128447672272403]",4.0,"[-0.05607086440187607,-0.03504334702649818]",4.0,"[-0.035534062514335836,-0.0935226683591754]",4.0,"[0.06506757911700829,0.04274935752110152]",4.0,"[-0.10798881666216494,-0.15621350146947907]",4.0,"[0.13783106518368576,0.04775530214109146]",4.0,"[0.02269925605001518,-0.08029006072182551]",4.0,"[0.14076075437637672,-0.049705781681206776]",4.0,"[-0.10837142426248805,-0.07504668573232313]",4.0,"[-0.037320664359249696,0.016415323236969426]",4.0,"[0.1851481373387049,0.035600714933706805]",4.0,"[0.02,0.02]",232.849,0.0,15.0,15.0,182.0,1.0,,,,,,,
,,,,,,,664b7cea18fe17cd31b5ab5e,6842bbfd5f14aa46597a0e67,2025-06-06_13h00.07.783,shape_ratio,2024.1.5,Win32,59.88023952,6842b561977af9ba9b0f87ca,,,,,,,,,,,232.851,233.3488,,,233.5996,234.2322,right,0.6159,,,,,,,,,0.55,,,,,,233.3492,233.5994,234.2324,"[-0.021812241557694824,-0.08646451656246185]",100.0,"[0.03830823962013399,-0.006129845769522167]",100.0,"[0.049875665863919415,-0.053329257089214765]",100.0,"[-0.0602491632136067,0.00037046908908889355]",4.0,"[-0.01766811757924381,0.06819394162953211]",100.0,"[0.09150573503167835,-0.14928158349514903]",100.0,"[0.09890814726128819,0.16010319353288585]",100.0,"[-0.06071928163009919,-0.11562261048742824]",4.0,"[-0.1848844457172228,-0.04751491054150561]",4.0,"[-0.03997208953376272,-0.19004155091358138]",4.0,"[-0.135226833728617,0.1126610379382038]",100.0,"[0.19235235493991185,-0.04716260207796331]",4.0,"[-0.15812539280340648,0.014446911563876652]",100.0,"[-0.002563139202897234,0.1087205330382483]",4.0,"[0.18032879139137772,0.05615437597675013]",100.0,"[-0.07618038799158353,0.07689744952183113]",4.0,"[0.10695830058474186,0.0001136139441811057]",4.0,"[0.04363387745129063,-0.18388593854351817]",4.0,"[0.13155824828922513,0.10704872972132]",100.0,"[0.048385399506131806,-0.10918891307050708]",4.0,"[0.06733990076979444,0.13480085760965582]",100.0,"[0.07388844506776253,0.024179043140699685]",4.0,"[0.0615522888760492,0.1871196273923432]",100.0,"[-0.1544738422816493,-0.11247426507252029]",100.0,"[-0.009442397631048231,-0.13557461683103422]",4.0,"[-0.12101111416984914,0.03548969389728222]",100.0,"[0.09974309043837241,-0.03982359371878279]",4.0,"[-0.12825514589135562,-0.06858515612633469]",100.0,"[-0.10188606049873941,-0.10051525996847745]",100.0,"[-0.061392348098179735,0.17911202868065357]",100.0,"[-0.18037450541663075,0.07700121482767912]",100.0,"[0.07603846048141863,0.06650382041447836]",4.0,"[0.02,0.02]",235.3314,0.0,16.0,16.0,82.0,1.0,,,,,,,
,,,,,,,664b7cea18fe17cd31b5ab5e,6842bbfd5f14aa46597a0e67,2025-06-06_13h00.07.783,shape_ratio,2024.1.5,Win32,59.88023952,6842b561977af9ba9b0f87ca,,,,,,,,,,,235.3325,235.8309,,,236.0817,236.6997,right,0.5989,,,,,,,,,0.6,,,,,,235.831,236.0817,236.7003,"[0.12249197335746266,0.1256610813282215]",100.0,"[-0.08815065465571123,-0.06795769100956575]",4.0,"[-0.07632357158765327,0.15329795070396685]",100.0,"[0.0027697331999036053,-0.18338085319241806]",100.0,"[0.09725365767007906,-0.12651364169604645]",4.0,"[-0.13554386853751302,-0.02946395523270408]",100.0,"[-0.04904522091239696,-0.026349928284061973]",100.0,"[-0.1187573507697569,0.028192683300630794]",100.0,"[0.05064413169793482,0.1803911722810517]",4.0,"[0.1858976382363632,0.005583115226150626]",4.0,"[-0.12231811916429926,-0.1414859515098263]",100.0,"[-0.17101259491353238,-0.09951984031037464]",4.0,"[-0.18618034240453638,-0.015057644343767529]",100.0,"[-0.0664913084928906,0.06646389123436766]",100.0,"[0.06698471042481609,0.11709966310134207]",100.0,"[0.042483710310908626,-0.03441531481696794]",4.0,"[0.0032904628618369257,0.06926287329771327]",100.0,"[0.152239527318601,-0.061446479982210936]",100.0,"[0.12220677832636898,0.02471564624065847]",100.0,"[0.002496775926060161,-0.10735606545822898]",100.0,"[-0.030270371888483437,-0.13777372673546875]",100.0,"[-0.16222336118464495,0.10326478163423541]",4.0,"[0.17220533917788533,0.05696869977023025]",4.0,"[-0.044737552389955006,-0.09842280306581645]",4.0,"[0.05988187307797917,-0.10325881600445293]",4.0,"[0.03324469906504297,-0.1408255948637707]",100.0,"[-0.07098853725253317,-0.13223737829396107]",4.0,"[-0.1120301623358516,0.08300330224057328]",4.0,"[-0.09162084650043324,-0.01587975878508267]",100.0,"[0.11747406455316252,-0.09089008351340978]",100.0,"[-0.1699998175977446,-0.0537142841909613]",100.0,"[0.07824934139890133,-0.1764360610610347]",4.0,"[0.02,0.02]",237.7968,0.0,17.0,17.0,48.0,1.0,,,,,,,
,,,,,,,664b7cea18fe17cd31b5ab5e,6842bbfd5f14aa46597a0e67,2025-06-06_13h00.07.783,shape_ratio,2024.1.5,Win32,59.88023952,6842b561977af9ba9b0f87ca,,,,,,,,,,,237.798,238.2966,,,238.536,239.0655,right,0.5111,,,,,,,,,0.6,,,,,,238.2966,238.5359,239.0656,"[0.06081551863532392,0.07759533146753043]",100.0,"[-0.03318139033562852,-0.021660395355717614]",100.0,"[0.03809263739075812,0.12858680484974788]",4.0,"[0.11016645251918042,-0.15281164428852734]",100.0,"[-0.10142417697027725,-0.1117886624213733]",4.0,"[0.12246709185329845,-0.08844905910401084]",4.0,"[-0.06587706725285317,-0.07304931572513218]",100.0,"[-0.003238671933017257,0.07111338532722532]",100.0,"[-0.030176959695195436,0.17732981846999182]",100.0,"[0.1568478863421586,0.005936132748796555]",100.0,"[0.03481553218187061,-0.10119820804881141]",4.0,"[0.0691370541262436,-0.14078090336051544]",100.0,"[0.027945190683080833,-0.14355370573494017]",100.0,"[0.11462407023690212,0.10029252852283556]",100.0,"[0.013587986117063017,0.003219034885539306]",4.0,"[0.08231340261593162,-0.06776592857592048]",100.0,"[0.05710255594806523,-0.008821552826605926]",4.0,"[-0.19101895878252098,-0.02849052355773707]",4.0,"[0.1811264668770546,-0.04926864101766449]",100.0,"[-0.17529616287757818,0.015843048870003856]",100.0,"[-0.029268124057980655,-0.131564679056549]",4.0,"[-0.10699195763605941,-0.007463360251090288]",100.0,"[0.0729393769234192,0.1624953699982576]",100.0,"[-0.00756386764142093,-0.05393462476998583]",100.0,"[-0.06821137389776534,0.14274047034256296]",4.0,"[-0.09443435867522627,0.05263571166313989]",100.0,"[-0.01267605641710811,-0.19100576111979167]",100.0,"[-0.16598229962836028,0.05831610853224717]",4.0,"[-0.17711718028236503,-0.08720855697663181]",100.0,"[0.03924471972335043,-0.05186607301725883]",4.0,"[0.03485151153686489,0.18306851581429232]",4.0,"[0.0865796505388844,0.038358397336484065]",4.0,"[0.02,0.02]",240.1634,0.0,18.0,18.0,43.0,1.0,,,,,,,
,,,,,,,664b7cea18fe17cd31b5ab5e,6842bbfd5f14aa46597a0e67,2025-06-06_13h00.07.783,shape_ratio,2024.1.5,Win32,59.88023952,6842b561977af9ba9b0f87ca,,,,,,,,,,,240.1657,240.6628,,,240.9141,241.513,right,0.5841,,,,,,,,,0.9,,,,,,240.6632,240.914,241.5149,"[0.052548981583595826,-0.15316401029157908]",100.0,"[0.05688170140442916,0.05011844502160737]",100.0,"[-0.18252429133570278,-0.06710623812135685]",100.0,"[-0.09763515027570721,0.1005888329532444]",100.0,"[-0.033873274942203664,-0.006369099153986393]",100.0,"[-0.14601711311684984,0.12787688303585576]",100.0,"[0.02699481214747108,0.07983204140965844]",100.0,"[-0.05463834402693677,0.1140399236539954]",100.0,"[-0.027484126327609947,-0.07811572340250887]",100.0,"[-0.14885742851127776,0.04858495342137022]",100.0,"[-0.13296282440575646,0.007627812125583056]",4.0,"[-0.03169899431329503,0.16443534137169818]",100.0,"[-0.1890147598963269,-0.014709073153446432]",100.0,"[-0.04122222431068002,0.04957475538122987]",100.0,"[0.13954795051117283,0.11970954126019456]",100.0,"[0.005962132510015473,-0.04019229001498954]",100.0,"[0.02864751124431338,-0.09085522657832566]",100.0,"[0.06012721559067604,0.1351792487565937]",100.0,"[0.10296349713367586,-0.09851953081428995]",100.0,"[0.018353983672880374,0.12152693839043942]",100.0,"[-0.11507884194025997,-0.14176901165601025]",100.0,"[0.14717644035319882,-0.023144782309466674]",100.0,"[0.128020140419728,0.01996266660595123]",100.0,"[0.1335504973922691,0.07030273072707512]",100.0,"[0.10067851254636058,0.13404688985929034]",100.0,"[0.056677978638391247,0.17905623569999313]",100.0,"[0.18468340136096503,0.017197453829941207]",100.0,"[0.15326318388616997,-0.07538039265706968]",4.0,"[-0.08389094250551701,-0.06571458452944336]",100.0,"[-0.033021215353161784,-0.1876687276510543]",4.0,"[0.07307678732800392,0.010264084283367335]",100.0,"[0.018334614840243,0.025972663258027228]",100.0,"[0.02,0.02]",242.6116,0.0,19.0,19.0,12.0,1.0,,,,,,,
,,,,,,,664b7cea18fe17cd31b5ab5e,6842bbfd5f14aa46597a0e67,2025-06-06_13h00.07.783,shape_ratio,2024.1.5,Win32,59.88023952,6842b561977af9ba9b0f87ca,,,,,,,,,,,242.6134,243.1115,,,243.3627,243.8639,right,0.4832,,,,,,,,,0.6,,,,,,243.1116,243.3625,243.864,"[-0.13166395859676386,-0.009324052316113416]",100.0,"[0.14871807866008768,0.056201631253346415]",100.0,"[-0.09039305902538243,-0.09013573415899379]",4.0,"[0.04617927952867994,-0.012972464142419546]",4.0,"[0.07723457173355305,-0.12267305806232948]",4.0,"[-0.04214669897146132,-0.05318590679864707]",100.0,"[0.0058157214329112115,-0.07138593327029197]",4.0,"[0.07057896200784125,0.16841335199526553]",4.0,"[-0.02260003333503822,0.08475877144727387]",100.0,"[-0.029512612262424513,0.12878428461604374]",100.0,"[-0.13448381185917824,-0.11650708215363903]",4.0,"[0.054100689182141615,-0.17251334204247934]",100.0,"[0.03512538111375527,-0.11345513531097702]",4.0,"[-0.002897275320806781,-0.007335588947889189]",100.0,"[-0.07439482353648622,0.13242062603608082]",100.0,"[-0.1353583719247408,0.03937727999621732]",4.0,"[0.09256239328184991,-0.04199364604487517]",4.0,"[-0.1562403077539417,0.11919861707556571]",100.0,"[0.13701268263980992,-0.09665755792834851]",4.0,"[0.11440076158615943,0.004485369859496172]",100.0,"[-0.031833672579975845,0.023419243359767635]",100.0,"[0.04940950149952035,0.09671888185751656]",100.0,"[-0.1855845119144081,-0.02589318876363137]",4.0,"[-0.0731674964461178,-0.0012692335183657518]",100.0,"[0.09227898522402139,0.12842310890882205]",100.0,"[0.09464431703000505,0.0864843890242959]",100.0,"[-0.10117967500075616,0.061592281384667096]",100.0,"[-0.05506804686603495,-0.1790635744255044]",100.0,"[-0.014411260016942241,-0.17597230190305907]",100.0,"[-0.09508070079441873,-0.16826058430826202]",100.0,"[0.1678703168685131,-0.04122088244425777]",4.0,"[-0.04194695341706305,0.19019372654935174]",4.0,"[0.02,0.02]",244.9609,0.0,20.0,20.0,45.0,1.0,,,,,,,
,,,,,,,664b7cea18fe17cd31b5ab5e,6842bbfd5f14aa46597a0e67,2025-06-06_13h00.07.783,shape_ratio,2024.1.5,Win32,59.88023952,6842b561977af9ba9b0f87ca,,,,,,,,,,,244.9623,245.4611,,,245.7121,246.3966,left,0.6678,,,,,,,,,0.1,,,,,,245.4612,245.712,246.3968,"[0.03229601318429095,-0.13655208454279172]",4.0,"[-0.15916129972031398,-0.05595471296898001]",4.0,"[-0.028869875470859528,0.17381009774215297]",4.0,"[0.06473609134879348,-0.04407096538107226]",4.0,"[0.15076333739824965,-0.11081133681389169]",4.0,"[-0.1245676081104933,0.06803217962086248]",100.0,"[-0.08124552492859849,-0.16258561328907176]",4.0,"[0.021534353708330213,0.0367015761801261]",4.0,"[0.019886003146765256,0.15812333695217182]",4.0,"[0.14005306784806504,-0.019758517684527528]",4.0,"[-0.04463148666072979,0.00319826812695786]",4.0,"[0.07947620526703145,0.0017658980698468981]",4.0,"[-0.043998726624236074,-0.06776766647391247]",4.0,"[0.08548757528024294,0.044262458049772926]",4.0,"[-0.1650279702090017,0.03519140682243289]",100.0,"[0.05485499918429454,-0.08976341019041545]",4.0,"[-0.11133538072086878,0.01912117627394064]",4.0,"[-0.06401465031118642,0.041274778202126286]",4.0,"[0.14689597873273486,0.07219523333205972]",4.0,"[-0.02773000139745566,-0.14070266445505866]",4.0,"[0.10856600632350562,0.08457028509868328]",4.0,"[-0.0970984583378079,0.17322432033641275]",4.0,"[-0.13340083936484437,-0.13650636139740233]",4.0,"[0.011179543197619227,-0.19892354471771484]",4.0,"[-0.021608041479055127,0.051855545702419764]",4.0,"[-0.12912766620845184,0.11042252089382225]",4.0,"[0.08872229890002284,-0.11737666686276614]",4.0,"[0.055963450452379354,0.11154652306426541]",100.0,"[-0.017701820663388407,0.13096684271986983]",4.0,"[0.18772056838175188,0.01334649407517873]",4.0,"[-0.14006548608258604,-0.01047205530261478]",4.0,"[-0.043187579055574535,0.09984392253035879]",4.0,"[0.02,0.02]",247.4942,0.0,21.0,21.0,186.0,1.0,,,,,,,
,,,,,,,664b7cea18fe17cd31b5ab5e,6842bbfd5f14aa46597a0e67,2025-06-06_13h00.07.783,shape_ratio,2024.1.5,Win32,59.88023952,6842b561977af9ba9b0f87ca,,,,,,,,,,,247.4957,247.9933,,,248.2498,248.9632,left,0.6948,,,,,,,,,0.6,,,,,,247.9935,248.2496,248.9634,"[0.1383650458672738,0.12080516155924091]",100.0,"[0.13317867970641656,-0.07930264589007717]",100.0,"[0.07610031069494924,0.12083914811074924]",100.0,"[-0.02778255305100503,0.13704592399492044]",100.0,"[0.022398215425060403,-0.19553117431863476]",100.0,"[-0.1266060662730685,0.14108590378570798]",4.0,"[0.02545029885039683,0.1471210604169173]",4.0,"[-0.0462606555981792,-0.03278393107080248]",4.0,"[0.026883634902512766,0.038383213288991885]",4.0,"[-0.15571492327113834,-0.05734535839784764]",100.0,"[0.11220902583891926,0.00947335531993012]",4.0,"[-0.14273396415715678,0.03605469038111913]",100.0,"[0.19453400456037434,0.01564974491561425]",4.0,"[0.03130693694321614,-0.11132677268301347]",100.0,"[0.059506975267586464,0.06264495712668806]",100.0,"[-0.09961132271235669,-0.11143971257486195]",100.0,"[-0.07317725162740987,-0.16008472291714324]",4.0,"[-0.18553810536542556,-0.006679174598342002]",4.0,"[0.14838199583626105,0.034584639746824034]",100.0,"[0.0713492093437793,0.004307704904743735]",100.0,"[0.10784226736644818,0.055865435947855396]",100.0,"[0.044900488073044656,-0.15182000434288792]",4.0,"[0.1541674599052425,0.08208974458913637]",100.0,"[0.11740089359937961,-0.15540805068073463]",100.0,"[0.0041870514737996495,-0.0756736112427258]",100.0,"[-0.06549205192805413,0.03292597717243557]",4.0,"[-0.09055148539584665,0.07202131040905066]",100.0,"[0.052283461700965844,-0.06413759679676183]",100.0,"[0.012831871607461317,-0.00666581603105917]",4.0,"[-0.10987433048379278,-0.05345551498211499]",4.0,"[-0.012773256943828741,-0.14698045894993336]",4.0,"[-0.0004167707652010167,0.18472816878760498]",100.0,"[0.02,0.02]",250.0602,0.0,22.0,22.0,47.0,1.0,,,,,,,
,,,,,,,664b7cea18fe17cd31b5ab5e,6842bbfd5f14aa46597a0e67,2025-06-06_13h00.07.783,shape_ratio,2024.1.5,Win32,59.88023952,6842b561977af9ba9b0f87ca,,,,,,,,,,,250.0623,250.5597,,,250.8105,251.4459,right,0.6214,,,,,,,,,0.9,,,,,,250.5598,250.8104,251.446,"[0.12855907993833732,0.008473998130393973]",100.0,"[0.12976494570070637,-0.10423117736233578]",100.0,"[-0.016983780934375196,-0.13864541353168033]",100.0,"[0.15341559326767437,0.0611829565106256]",100.0,"[-0.1579836600563361,0.08534536031437392]",100.0,"[-0.05205602424300871,0.11355528851997079]",100.0,"[-0.09619573074732403,-0.1504499519220918]",100.0,"[0.02641831347595999,-0.02140905082271134]",100.0,"[-0.013671362946832839,0.0888500356681793]",100.0,"[-0.1793490051080277,-0.05164862629667359]",100.0,"[-0.006957504070483531,-0.07783067706022186]",100.0,"[-0.12857175001043067,-0.09517235481020661]",100.0,"[0.18887501715662877,-0.05206326431721237]",100.0,"[0.1132325272609181,-0.042384920363534015]",100.0,"[-0.01932079015970658,-0.19672397721214036]",100.0,"[-0.10094935890286287,-0.049176737817208674]",100.0,"[0.04147924415135224,-0.08262250143494541]",100.0,"[-0.09373082138684533,0.09258509358331543]",100.0,"[0.03140731792050175,0.08783095399749209]",4.0,"[0.10328930819279475,0.11888499166821097]",100.0,"[-0.16667239583929502,0.03074776696974782]",100.0,"[0.14811325580667528,0.12732733376095606]",100.0,"[0.050091915556314315,-0.1435917405225852]",4.0,"[-0.023308878317127746,-0.012861670072078377]",100.0,"[-0.05040240523531676,0.19076188475302666]",100.0,"[-0.0026217323476757396,0.1756243601991262]",4.0,"[-0.06323055284214048,0.037493577033920755]",100.0,"[-0.10760778332754152,0.01893580773337205]",100.0,"[0.08250416235211865,0.006731483108745662]",100.0,"[0.18704060428276897,0.02413926240349879]",100.0,"[0.051066278651082174,0.12675748917158058]",100.0,"[0.06217603683680939,0.06200856819942579]",100.0,"[0.02,0.02]",252.5429,0.0,23.0,23.0,9.0,1.0,,,,,,,
,,,,,,,664b7cea18fe17cd31b5ab5e,6842bbfd5f14aa46597a0e67,2025-06-06_13h00.07.783,shape_ratio,2024.1.5,Win32,59.88023952,6842b561977af9ba9b0f87ca,,,,,,,,,,,252.5451,253.042,,,253.293,254.109,left,0.7999,,,,,,,,,0.45,,,,,,253.0421,253.2928,254.1091,"[-0.12863040448989732,0.025150936739327813]",100.0,"[-0.05425473113339327,-0.06715770508704184]",4.0,"[-0.021918510296452802,0.038781209064441755]",100.0,"[-0.084623536604277,0.07899761469613517]",4.0,"[0.12399488642856206,0.017216377135118494]",4.0,"[0.16964371850017745,-0.07341973374654248]",100.0,"[0.07667988996824489,-0.07856200652935987]",4.0,"[0.1675556122299346,0.048278754990516995]",100.0,"[0.023638571362394768,-0.07897631347212168]",4.0,"[-0.04552386289997524,0.18633432607610387]",4.0,"[0.02862128868902689,-0.16119708890440823]",4.0,"[0.13189354317014187,0.09717429215111761]",100.0,"[0.020192746446172076,0.1961794359703382]",100.0,"[0.05732418403674381,0.13110130762057542]",4.0,"[-0.07433521649138859,-0.026726799928880017]",100.0,"[-0.12483063412595413,-0.02863011120831094]",4.0,"[0.0023076395312592746,-0.013641341328396778]",100.0,"[0.12846175314240652,-0.09766124599417778]",100.0,"[-0.13746134784369465,-0.13961260628050157]",100.0,"[0.014282384010293933,0.1061682076982315]",4.0,"[-0.03800137913210425,0.12800676992885296]",4.0,"[0.05915702882673028,0.18509773774071828]",4.0,"[-0.1561715135789344,-0.08730541677088899]",4.0,"[0.13637956136592508,-0.029957035580822494]",4.0,"[-0.02457627249790056,-0.16653676996605582]",4.0,"[0.0956947845891592,-0.02189679952870945]",100.0,"[-0.09045252701652935,0.1229641067545927]",100.0,"[0.08552736556656176,0.03738053165797289]",100.0,"[-0.1860875442020855,-0.03196816083721566]",4.0,"[-0.0017391390562579983,-0.13311393546772302]",100.0,"[-0.15961500565080666,0.06510240438941821]",4.0,"[-0.13451617197964946,0.10867415152330762]",4.0,"[0.02,0.02]",255.2075,0.0,24.0,24.0,135.0,1.0,,,,,,,
,,,,,,,664b7cea18fe17cd31b5ab5e,6842bbfd5f14aa46597a0e67,2025-06-06_13h00.07.783,shape_ratio,2024.1.5,Win32,59.88023952,6842b561977af9ba9b0f87ca,,,,,,,,,,,255.2095,255.7073,,,255.959,256.7089,right,0.7351,,,,,,,,,0.9,,,,,,255.7074,255.9588,256.709,"[0.0965012292621436,-0.024959027917286276]",100.0,"[0.015149976393100834,0.004643854459423278]",4.0,"[-0.1302235738736724,0.020193537361123493]",100.0,"[-0.03439165923080197,-0.09473315891476984]",100.0,"[-0.039591599569651616,0.1830815555632282]",100.0,"[-0.10087272019306733,0.1306620327029192]",100.0,"[-0.07837533329393945,0.012438393286206606]",100.0,"[-0.04902184301638405,0.09214808452497755]",100.0,"[-0.14931022565084853,-0.10277653017041945]",100.0,"[-0.10825495596295075,-0.08024932878343437]",100.0,"[0.08345038752345589,0.08253631431169127]",100.0,"[0.016330121713382103,-0.057752339195776624]",100.0,"[-0.006118326614066497,0.11855098836336142]",4.0,"[-0.14392621752269802,-0.06134174177641274]",100.0,"[-0.19504310933196628,-0.0186031259265759]",100.0,"[0.16044760146267026,0.041165305942752306]",100.0,"[-0.0693658980541711,-0.03687167020879618]",100.0,"[0.056263632944967744,-0.11319998396618872]",100.0,"[-0.013317307100942633,-0.17970559736517244]",100.0,"[0.10313247829276757,0.02492183853295911]",100.0,"[-0.06736648717767058,-0.13048057061123386]",100.0,"[0.10296761613051073,-0.15629070554110117]",100.0,"[0.03240712047048408,0.0933390028555607]",100.0,"[0.004107598852457185,0.18837255932059582]",100.0,"[-0.13170964564749316,0.07784772896508912]",4.0,"[0.008289296643358436,0.04582292529530079]",100.0,"[-0.1316588488621562,-0.14042714370747003]",100.0,"[0.053465016783458545,0.1717218274311719]",100.0,"[-0.02335619687151083,0.02006565857103204]",100.0,"[0.13922666943580636,-0.08983370211209132]",100.0,"[-0.02719790735960998,-0.03020604187063941]",100.0,"[0.1766827425025049,-0.07496420124607707]",100.0,"[0.02,0.02]",257.8073,0.0,25.0,25.0,25.0,1.0,,,,,,,
,,,,,,,664b7cea18fe17cd31b5ab5e,6842bbfd5f14aa46597a0e67,2025-06-06_13h00.07.783,shape_ratio,2024.1.5,Win32,59.88023952,6842b561977af9ba9b0f87ca,,,,,,,,,,,257.8091,258.3067,,,258.5462,259.3096,left,0.7415,,,,,,,,,0.6,,,,,,258.307,258.5461,259.3097,"[-0.05407890168995567,0.07322295334790464]",4.0,"[0.04354402148896647,0.17929805224034237]",100.0,"[0.07013860196911549,-0.16008163687274463]",100.0,"[-0.07976298253255318,-0.145909558438289]",100.0,"[-0.012145584501563323,-0.16618609065200637]",100.0,"[0.17652842101755473,0.005471056619695005]",100.0,"[-0.1158092460366279,0.08398422832142334]",100.0,"[-0.16109767771420133,0.013619030752550235]",100.0,"[0.12193314787293451,0.12118578529005551]",100.0,"[-0.050214715971055285,-0.06937976436814512]",100.0,"[-0.169332860173934,0.07905151001249064]",4.0,"[0.050351921086130624,0.12009149185014245]",4.0,"[0.07678983239476024,0.08747356571449286]",100.0,"[0.1764322532045895,-0.06446468369896978]",100.0,"[-0.007543474578152868,0.16850022409141172]",4.0,"[-0.1529377009451605,-0.09608112747681626]",4.0,"[0.07929149703743826,0.15652614871673282]",4.0,"[0.13034759320300143,0.07270235091194606]",100.0,"[-0.024729681950849063,0.03718111867616666]",100.0,"[-0.10599785255370435,0.14294824248798307]",100.0,"[0.015374586156447578,-0.11639882064303829]",100.0,"[-0.009155621088350059,-0.08332859658196283]",4.0,"[0.12633986531500838,-0.019931085529360862]",4.0,"[0.11477470043748891,-0.11281990032056308]",100.0,"[-0.014351303387397225,-0.029624095468064354]",100.0,"[0.04230107675582333,0.011289828844781712]",4.0,"[0.1417138679108459,0.03279581161413017]",4.0,"[0.09157789345183814,-0.04118050701816233]",4.0,"[0.08369852446206463,0.03661118480318252]",100.0,"[0.0313718976219661,-0.1935839638459986]",4.0,"[-0.0755716671383432,-0.007420092071496183]",100.0,"[-0.05873273291490517,0.18675935608228492]",4.0,"[0.02,0.02]",260.4097,0.0,26.0,26.0,59.0,1.0,,,,,,,
,,,,,,,664b7cea18fe17cd31b5ab5e,6842bbfd5f14aa46597a0e67,2025-06-06_13h00.07.783,shape_ratio,2024.1.5,Win32,59.88023952,6842b561977af9ba9b0f87ca,,,,,,,,,,,260.4115,260.906,,,261.1571,261.7909,left,0.6166,,,,,,,,,0.45,,,,,,260.9065,261.157,261.791,"[0.11035847709945217,0.0993087670231545]",100.0,"[0.07136014571714903,-0.15451452672783045]",4.0,"[-0.05173375589828074,-0.15512311666149972]",4.0,"[-0.12130228808254326,-0.026988098280296854]",4.0,"[-0.02675560879847792,-0.08841236722832124]",100.0,"[-0.17876533433749542,0.07705447590013544]",4.0,"[0.13131658692255552,-0.04780851076951435]",4.0,"[-0.044331731185126205,0.16922486248418667]",100.0,"[0.005548547579370124,0.19747126149545982]",100.0,"[0.13023501792208414,0.05999811283130118]",4.0,"[-0.036939474419051536,-0.03468955124159982]",4.0,"[0.13079781730638945,-0.0036078488441129404]",4.0,"[0.11776238711846895,0.1403370449787607]",4.0,"[-0.02751090045606242,0.025254646661921256]",100.0,"[-0.0009154245302015647,0.0905307021931154]",100.0,"[-0.0734795365474561,0.0248736187152446]",100.0,"[0.042225541686327424,0.08464769130390545]",4.0,"[0.06405243555830137,0.13829245503036997]",100.0,"[0.05980097420255216,0.04209636978641392]",100.0,"[0.011540358688666685,-0.18324701665582657]",4.0,"[0.07152161305286124,-0.0574960228944131]",100.0,"[0.01001958422650797,-0.0309877156937017]",4.0,"[0.12904099575316086,-0.10019145695039632]",4.0,"[0.08780364461836938,0.006144724854683618]",4.0,"[-0.0012816462921532933,0.15616437783402365]",4.0,"[-0.11444775448958203,-0.12841515015358804]",100.0,"[-0.0746989103637932,0.09209781182560997]",4.0,"[-0.15413029382827628,-0.11559777258356255]",100.0,"[0.1845256667706175,-0.0731794441343983]",4.0,"[-0.11285788704643883,0.045845802758604386]",4.0,"[0.029617725236600213,-0.12977842936066275]",100.0,"[-0.10199977629435472,-0.08089282919749728]",100.0,"[0.02,0.02]",262.8881,0.0,27.0,27.0,125.0,1.0,,,,,,,
,,,,,,,664b7cea18fe17cd31b5ab5e,6842bbfd5f14aa46597a0e67,2025-06-06_13h00.07.783,shape_ratio,2024.1.5,Win32,59.88023952,6842b561977af9ba9b0f87ca,,,,,,,,,,,262.8897,263.3884,,,263.6394,264.4235,right,0.7724,,,,,,,,,0.45,,,,,,263.3885,263.6393,264.4236,"[-0.14472819396700787,0.10294972245831792]",100.0,"[0.1274314313086441,0.05979729058440992]",100.0,"[0.04432252079089581,0.18435046783336928]",4.0,"[0.12031806541209647,-0.08795444504276083]",100.0,"[0.07738821878170153,0.15389506246737866]",4.0,"[0.03780953295512326,0.0051693067965791996]",4.0,"[-0.014177526671276981,0.0735415741406513]",4.0,"[-0.1317923388455205,-0.14949326550840442]",100.0,"[-0.06548509495382059,-0.18392934599271202]",100.0,"[0.0713182894249252,-0.1220137008447983]",100.0,"[-0.07802733253870167,-0.038002774421672304]",100.0,"[-0.05040854824286695,0.03544423907975908]",100.0,"[-0.10305236131586606,0.04936231061719648]",4.0,"[0.0222461160697936,-0.11811833983567424]",4.0,"[-0.06874270249385087,-0.09206890248049435]",4.0,"[0.129695297477461,0.0051114032875942805]",4.0,"[0.04713470531274726,0.11757457722722259]",4.0,"[0.05681379110015146,-0.17465197621272097]",100.0,"[-0.16306031247582817,-0.06398800203011767]",4.0,"[0.09908647615898775,0.0996441925171659]",100.0,"[0.17068796132007025,-0.1041650132156008]",100.0,"[-0.18803367668939366,-0.022634150651332806]",4.0,"[0.16038288459103642,-0.05977479147707183]",4.0,"[0.13300276550786588,0.13362492341141566]",4.0,"[-0.11205529098915196,0.1436290269724724]",4.0,"[0.17435991175416538,0.05486725176970629]",100.0,"[-0.15552811268462183,0.015506511939053832]",4.0,"[0.10860575379815739,-0.037425951974779735]",4.0,"[0.03966152661261357,0.06681885396200272]",4.0,"[-0.13784940056323583,-0.10246213683358651]",100.0,"[0.16609549076102775,0.10660868507562905]",4.0,"[-0.027071657957923337,-0.006097051117897012]",100.0,"[0.02,0.02]",265.5199,0.0,28.0,28.0,142.0,1.0,,,,,,,
,,,,,,,664b7cea18fe17cd31b5ab5e,6842bbfd5f14aa46597a0e67,2025-06-06_13h00.07.783,shape_ratio,2024.1.5,Win32,59.88023952,6842b561977af9ba9b0f87ca,,,,,,,,,,,265.5215,266.0203,,,266.2714,266.8706,right,0.5909,,,,,,,,,0.55,,,,,,266.0204,266.2714,266.8706,"[-0.06477405772437198,-0.16089097906929967]",100.0,"[-0.025456898763927305,-0.07463013142476092]",100.0,"[0.13000624335843103,-0.14466966902771022]",100.0,"[-0.09986359702191001,-0.07953933804785289]",100.0,"[-0.0069021998812358164,0.13428706629699436]",4.0,"[0.14246871260114255,-0.10479326743079963]",100.0,"[-0.11872655933298709,-0.03574910420766402]",4.0,"[0.006663074100237813,-0.17366232555667463]",4.0,"[0.16599786072165915,0.04689689841380459]",100.0,"[-0.03000169594498608,0.08517505638313543]",100.0,"[-0.02314918812365506,-0.12053143066606146]",100.0,"[-0.13706696218566686,0.041014581475032556]",4.0,"[0.016891887760645753,-0.01364015738019164]",100.0,"[0.10192629785440045,-0.07778437076350503]",4.0,"[0.1320229518700286,-0.04642280979863471]",4.0,"[0.12375496905624679,0.12678827628763356]",4.0,"[0.018871699258262212,0.16649693511114078]",4.0,"[0.08936989457076448,0.15785677688876046]",100.0,"[-0.176810682908174,0.06745021493543521]",4.0,"[0.05930390740194645,-0.18972200254829505]",100.0,"[-0.10736845684280094,0.09052725203223323]",100.0,"[0.040821351606905316,-0.10217158268460749]",100.0,"[0.16481266763057784,0.09284406884267832]",100.0,"[-0.1168923436882952,-0.14365978592868778]",100.0,"[0.06773921605484538,0.06409569524122137]",4.0,"[-0.15341530959260063,-0.08241548283934637]",4.0,"[-0.015040656266334879,0.021059957791002323]",4.0,"[0.05374546932383495,0.11752867788767196]",4.0,"[0.03272503936845499,0.03192143656833947]",100.0,"[0.119177895088521,0.014879137689981422]",4.0,"[0.11313247144231443,0.07161420428510877]",100.0,"[-0.18318685528492643,-0.035212279771355944]",100.0,"[0.02,0.02]",267.9696,0.0,29.0,29.0,71.0,1.0,,,,,,,
,,,,,,,664b7cea18fe17cd31b5ab5e,6842bbfd5f14aa46597a0e67,2025-06-06_13h00.07.783,shape_ratio,2024.1.5,Win32,59.88023952,6842b561977af9ba9b0f87ca,,,,,,,,,,,267.9708,268.4695,,,268.7087,269.2551,right,0.5256,,,,,,,,,0.6,,,,,,268.4695,268.7086,269.2551,"[0.13263077016338018,-0.03696442310956887]",4.0,"[0.07387625913245276,-0.13954500778018752]",100.0,"[0.16209903912299628,0.04998429556870853]",4.0,"[-0.16006560773743966,0.07604756247270447]",100.0,"[0.16969536737474747,0.09367036267532129]",100.0,"[-0.0684069256004886,-0.1872610764505699]",4.0,"[-0.11226689128164714,0.11224529223913934]",4.0,"[0.12388021804309408,0.14379565327093197]",100.0,"[-0.03488253857753624,0.04552761932577958]",100.0,"[0.0024421036463075302,0.026997103357599098]",100.0,"[-0.009091468379400496,0.14888938377038385]",4.0,"[0.06732285389725917,-0.07119156576538986]",100.0,"[-0.16547419452939366,0.0328952122760187]",100.0,"[0.053559880000138005,0.10121570924625967]",100.0,"[0.04772800540533346,0.1911402155174451]",4.0,"[0.16574964312942855,-0.08954988109084401]",100.0,"[-0.14602873615147963,-0.029681350840029742]",100.0,"[-0.0893811933952883,-0.04608749183239076]",100.0,"[0.08215430959378471,0.040443016095180306]",100.0,"[0.026890201388619823,-0.14432707023326533]",100.0,"[0.19719195138361262,0.026470255447784807]",100.0,"[-0.12297348703928743,-0.1315566814435393]",4.0,"[-0.07349614710977863,-0.1026657250987376]",4.0,"[-0.05022570612932808,0.14230078276880592]",4.0,"[0.0033531833119466023,0.1941394792183736]",4.0,"[-0.05008535334645405,-0.05703954968307357]",4.0,"[0.021814311996063995,-0.07833098804391884]",4.0,"[-0.06272230077035708,0.07529064647631428]",100.0,"[-0.10451589070800377,0.15760910186143953]",100.0,"[-0.09298657054989819,0.02503571317633349]",100.0,"[0.055070957082907115,0.005560382491813932]",100.0,"[0.11324288696195185,-0.1480742053737097]",4.0,"[0.02,0.02]",270.3535,0.0,30.0,30.0,56.0,1.0,,,,,,,
,,,,,,,664b7cea18fe17cd31b5ab5e,6842bbfd5f14aa46597a0e67,2025-06-06_13h00.07.783,shape_ratio,2024.1.5,Win32,59.88023952,6842b561977af9ba9b0f87ca,,,,,,,,,,,270.3547,270.8539,,,271.1034,271.7378,left,0.6182,,,,,,,,,0.5,,,,,,270.854,271.1032,271.7383,"[-0.015033494470118675,-0.0031126849682706894]",4.0,"[-0.09588987378417821,-0.16694861963012786]",100.0,"[0.06970804015291888,-0.0878817192218306]",100.0,"[0.05346384151656334,-0.1402767511885335]",4.0,"[0.004974324027960435,0.1085756980586684]",4.0,"[0.05112121588072921,0.15574133046488417]",100.0,"[0.11086966083980461,-0.009416987719188682]",100.0,"[0.10899669340405281,-0.14857412848730175]",100.0,"[-0.051657131293683434,0.14288636126135518]",4.0,"[-0.13180565055424365,0.028956454419832217]",100.0,"[-0.11569904187119946,-0.10890974439851205]",100.0,"[-0.1815301335238105,-0.013388386688773575]",100.0,"[-0.01602398370655743,-0.09056350237882721]",100.0,"[0.18309654361777972,-0.028740879261457648]",100.0,"[0.18108574509962888,0.07348708609861686]",4.0,"[0.1662629765039431,-0.07889426284438106]",4.0,"[-0.1623715789998632,-0.1023070006382197]",100.0,"[0.04762592995045999,0.027633896706431883]",100.0,"[-0.07560840442418437,-0.10529479315890324]",4.0,"[0.15509972713597708,0.1230858504215276]",4.0,"[-0.05322204274473955,0.08880224750678554]",100.0,"[-0.17790890736531667,0.06371083096801239]",4.0,"[-0.0010371448574076345,-0.18819913753603335]",4.0,"[-0.1006570672506708,0.15742583723961626]",4.0,"[-0.10349512219424531,0.09899013675058459]",4.0,"[-0.002911648484940122,-0.04706566251085681]",4.0,"[0.09372749817702426,0.1701870156848139]",100.0,"[0.11131299681428772,-0.08102129491489882]",100.0,"[0.04821263546127012,0.07561735185784794]",4.0,"[-0.04199080901576986,0.028720097322840435]",4.0,"[0.004887232849233318,-0.1353744761174196]",4.0,"[-0.08299578919013352,0.020088949741331935]",100.0,"[0.02,0.02]",272.8349,0.0,31.0,31.0,93.0,1.0,,,,,,,
,,,,,,,664b7cea18fe17cd31b5ab5e,6842bbfd5f14aa46597a0e67,2025-06-06_13h00.07.783,shape_ratio,2024.1.5,Win32,59.88023952,6842b561977af9ba9b0f87ca,,,,,,,,,,,272.8361,273.3348,,,273.5857,274.1358,right,0.5394,,,,,,,,,0.55,,,,,,273.3349,273.5856,274.1367,"[-0.15481496200519881,0.002673931148975874]",100.0,"[-0.049385029484418926,-0.18342649667481437]",4.0,"[0.17277312483793472,0.06365898971617139]",100.0,"[-0.11903211027530021,-0.1064359188612225]",100.0,"[-0.1823137527341782,0.06107311936930177]",4.0,"[0.0012347005096141745,0.16495397390206246]",100.0,"[-0.062305780550289985,-0.04331151813492926]",4.0,"[0.08039104950335266,0.14419883065219966]",4.0,"[-0.1084524142237968,-0.04789927902353518]",100.0,"[-0.07874809312874148,-0.003743557888046528]",4.0,"[0.1629488835998846,-0.043588297277045884]",100.0,"[0.05360237984651507,-0.06803657622343762]",100.0,"[-0.03990705998284602,0.13699641439035318]",4.0,"[-0.04866211135088048,-0.09869899099429058]",4.0,"[0.033239123152120645,0.005672604401361809]",100.0,"[0.14138961334848194,-0.07758204014091565]",100.0,"[0.07750650003465635,-0.11605633522306223]",100.0,"[0.03995170539399208,0.11492828506152258]",100.0,"[-0.14021746042740693,0.05070406862213618]",100.0,"[-0.06209337968403532,0.0821076934303686]",4.0,"[-0.02053298565567529,0.09404313092890285]",4.0,"[-0.09180249653930607,-0.1378278017124545]",4.0,"[0.11978343999194138,0.03701411582071047]",100.0,"[0.009965911137845413,-0.1643686397100162]",4.0,"[0.08785896698135072,0.07012174221209096]",4.0,"[0.10510798251845287,-0.16122616236492662]",4.0,"[0.06305871735706603,-0.17235024381958083]",100.0,"[-0.10753175441691076,0.16114517009403995]",100.0,"[-0.047894175539659134,0.024881409237308305]",100.0,"[-0.15342801822974758,0.09368365167750815]",100.0,"[0.009680167697850921,-0.10200778087732155]",100.0,"[-0.08415114343286778,0.11695701397346603]",4.0,"[0.02,0.02]",275.2338,0.0,32.0,32.0,83.0,1.0,,,,,,,
,,,,,,,664b7cea18fe17cd31b5ab5e,6842bbfd5f14aa46597a0e67,2025-06-06_13h00.07.783,shape_ratio,2024.1.5,Win32,59.88023952,6842b561977af9ba9b0f87ca,,,,,,,,,,,275.2352,275.7341,,,275.985,276.8854,right,0.8846,,,,,,,,,0.5,,,,,,275.7342,275.9849,276.8855,"[-0.14010696671095824,0.10838676313970198]",4.0,"[-0.10207878202902122,-0.08339926864639441]",4.0,"[-0.12322142762022134,0.055406931080677]",4.0,"[0.039298302622792096,-0.07986615989551527]",4.0,"[0.004208587801955127,-0.11096608320000957]",100.0,"[0.09949637786481481,-0.07355889158622658]",4.0,"[-0.17545250604979806,0.013686903434302084]",4.0,"[0.017410327548064597,0.010390632368394177]",100.0,"[-0.06954695969835642,-0.17234271948504332]",100.0,"[0.15420051526712944,0.1152893896744747]",100.0,"[-0.034981683626845485,-0.059809914184488416]",4.0,"[0.01610390650774072,-0.17232350019414128]",4.0,"[0.1675555243600605,-0.08932117673452941]",100.0,"[0.1238021613518567,-0.14790635188680462]",100.0,"[-0.07456135619239798,0.10599537847540987]",4.0,"[0.030816407048978343,0.19402137369802233]",100.0,"[0.0943839449118588,0.10331493226708499]",4.0,"[0.12516740829245188,0.1441826548373523]",4.0,"[0.10671895453620663,0.0338700060562498]",100.0,"[-0.06932542461904868,0.06014617011358662]",4.0,"[-0.03721127730649493,-0.11798118154277831]",100.0,"[0.047382320068942024,0.0569757580794991]",4.0,"[-0.07709580462206732,0.15708950041033778]",100.0,"[0.038489199833839624,0.1385067248346775]",100.0,"[0.07193881092782174,0.16850106599379694]",100.0,"[0.07419056135094995,-0.15506206339056103]",4.0,"[0.1930513025014549,-0.046075598423083106]",100.0,"[-0.02793107338648,0.08489608889556227]",4.0,"[0.1527073254525839,0.01904645424437621]",100.0,"[-0.04918720748944965,0.008447021166895009]",100.0,"[-0.10264733733008773,0.002242431954489483]",100.0,"[-0.15534491765254438,-0.06388328302048675]",4.0,"[0.02,0.02]",277.9833,0.0,33.0,33.0,106.0,1.0,,,,,,,
,,,,,,,664b7cea18fe17cd31b5ab5e,6842bbfd5f14aa46597a0e67,2025-06-06_13h00.07.783,shape_ratio,2024.1.5,Win32,59.88023952,6842b561977af9ba9b0f87ca,,,,,,,,,,,277.9848,278.4829,,,278.7343,279.2514,right,0.5042,,,,,,,,,0.55,,,,,,278.4832,278.7341,279.2515,"[0.017474072653975468,0.12850982544836673]",100.0,"[-0.08322013072277108,0.13922989361647817]",4.0,"[0.04743764027599787,0.0660701908713306]",4.0,"[0.03600672916172175,-0.059061554604274334]",100.0,"[0.07809863900096263,-0.023518590929729327]",100.0,"[0.11302647218351004,0.003410537508635984]",100.0,"[0.07596578332621778,-0.17363579463559634]",4.0,"[0.1778355386005585,-0.010662073198049161]",100.0,"[-0.07833650777343425,-0.038523686036320365]",4.0,"[0.09599649367938584,0.1315019947981088]",4.0,"[0.09782929888264512,0.05700241841729929]",100.0,"[-0.05651601022245069,-0.175203385647703]",4.0,"[-0.17615998875423347,0.00171099618590873]",4.0,"[0.11324681104441887,-0.06236209521913928]",4.0,"[-0.12419497506008054,-0.15513781222488326]",100.0,"[-0.022203401260405375,-0.018747933500105136]",100.0,"[0.0527893471498304,0.015933390267135257]",4.0,"[-0.02112763348889833,-0.08826851444623399]",4.0,"[-0.018704938193318196,0.18454525330932836]",100.0,"[-0.1042153956317924,0.07095064070195087]",100.0,"[-0.09249918003151196,-0.09801054299544604]",100.0,"[-0.025429461676407705,0.1397176062283915]",100.0,"[-0.01102994565648741,-0.14965272020774245]",100.0,"[-0.17647261461315705,-0.04863812966013719]",100.0,"[0.0061064744351587725,0.08321027968126772]",4.0,"[-0.1621903581118292,0.04479273334650792]",100.0,"[-0.13594607203985357,0.13010047283226303]",4.0,"[0.12342689422693297,-0.11186237818167923]",4.0,"[0.03340111979153908,-0.15961830833928764]",4.0,"[0.172675822068596,0.04734557140708872]",100.0,"[0.012896638303817713,0.042816102320381313]",100.0,"[0.15231731573473634,0.09782356817650123]",100.0,"[0.02,0.02]",280.3496,0.0,34.0,34.0,73.0,1.0,,,,,,,
,,,,,,,664b7cea18fe17cd31b5ab5e,6842bbfd5f14aa46597a0e67,2025-06-06_13h00.07.783,shape_ratio,2024.1.5,Win32,59.88023952,6842b561977af9ba9b0f87ca,,,,,,,,,,,280.3518,280.8523,,,281.1049,281.6071,right,0.4852,,,,,,,,,0.9,,,,,,280.8524,281.1049,281.6078,"[-0.1505429187112274,-0.07970191663117329]",4.0,"[0.14595853987182208,0.03738545118401665]",100.0,"[-0.12512274152954037,0.11227761297775563]",100.0,"[-0.14299649638060746,0.04495404560734928]",100.0,"[0.13965171742838944,-0.13299768359282563]",100.0,"[-0.09210487415869427,0.17095500455588294]",100.0,"[-0.11933852548796328,-0.13482850088553378]",100.0,"[-0.016847597542794197,0.08443066453747569]",100.0,"[0.0648930538762708,0.16161212022726618]",100.0,"[0.05710551588861707,-0.09806425949939851]",100.0,"[0.07432987628134999,-0.029417782801973973]",100.0,"[-0.010530954700209854,0.1544248972477296]",100.0,"[0.17028717180732533,-0.10030497512752991]",100.0,"[-0.02798756894386287,0.028632021268884394]",100.0,"[-0.15838268135037364,-0.032795106836824066]",100.0,"[-0.020165251745788003,-0.1483087737347209]",100.0,"[-0.016644593984246423,-0.0374540906267577]",100.0,"[-0.08740980494200318,-0.02040957910984931]",4.0,"[0.07402053554102161,0.09803376616178573]",100.0,"[0.067319708640159,-0.16348856802414446]",100.0,"[-0.06683074668738538,-0.13819154218856194]",100.0,"[-0.05989589019917599,0.11658826792409935]",100.0,"[0.1654158301267606,0.09074944037727081]",100.0,"[-0.08399602265237475,0.0544117225134323]",100.0,"[0.03166867181250492,0.08254329840754418]",4.0,"[0.02226774698907161,0.022752103514847532]",100.0,"[0.1296514188883435,-0.06031071804161926]",100.0,"[0.12624854144045042,0.1407290845081686]",100.0,"[0.03694977412037961,-0.1950305838161015]",100.0,"[-0.07487955470327232,-0.07132314504658449]",100.0,"[0.16263450259981402,-0.03394950918076342]",100.0,"[0.19636554092577396,0.001327214820274889]",100.0,"[0.02,0.02]",282.6978,0.0,35.0,35.0,1.0,1.0,,,,,,,
,,,,,,,664b7cea18fe17cd31b5ab5e,6842bbfd5f14aa46597a0e67,2025-06-06_13h00.07.783,shape_ratio,2024.1.5,Win32,59.88023952,6842b561977af9ba9b0f87ca,,,,,,,,,,,282.6991,283.2017,,,283.4487,283.8987,right,0.4366,,,,,,,,,0.9,,,,,,283.2018,283.4486,283.899,"[0.009372004132363762,-0.07172915705198547]",100.0,"[-0.011463634502377362,0.11459874568036796]",100.0,"[-0.13356470912422022,-0.0786689927289196]",100.0,"[0.06825255497086243,-0.10735135675081933]",100.0,"[-0.13415229927798009,0.04034828589068766]",100.0,"[-0.03948817069248352,0.007137959568912871]",100.0,"[-0.09480604588959629,0.12149331742058063]",100.0,"[0.15558417267666214,-0.08835213290597131]",100.0,"[0.11757708686116772,0.04012694393436378]",100.0,"[-0.1958951693852423,-0.02947747921857361]",100.0,"[0.047138583929162606,0.026804158727230368]",100.0,"[-0.0996996666568465,-0.021700270011237276]",100.0,"[-0.024118471688482485,0.18671063758348108]",4.0,"[0.1900203316562463,0.020699005649164163]",100.0,"[0.18304993540420375,-0.020386723970334874]",100.0,"[-0.09186461944196973,0.06008261558543619]",4.0,"[-0.0949327663579345,-0.1459109035663768]",4.0,"[0.06939493150572439,0.08426605555476167]",100.0,"[0.05457394005879801,-0.03261415758537484]",100.0,"[0.11429688444531831,0.1148364925469848]",100.0,"[-0.047923969704587135,-0.0881347862719982]",100.0,"[0.03891107202265946,-0.1916792599838437]",100.0,"[-0.013153416419570421,-0.19765577303563014]",100.0,"[-0.0024538997844762668,-0.027329915787237438]",100.0,"[-0.01999275252072968,0.0468991211002861]",100.0,"[-0.1802676804934394,0.05821950546404721]",100.0,"[-0.14571551095686577,0.08545885177768875]",100.0,"[0.10713345193003859,-0.13064952675033398]",100.0,"[0.10303040887100534,-0.030618140590435303]",100.0,"[-0.04822967299166307,-0.15897076857962547]",100.0,"[0.061399502598341156,0.1291185588912543]",100.0,"[-0.1642121113095451,-0.0043379146753684]",100.0,"[0.02,0.02]",284.9971,0.0,36.0,36.0,27.0,1.0,,,,,,,
,,,,,,,664b7cea18fe17cd31b5ab5e,6842bbfd5f14aa46597a0e67,2025-06-06_13h00.07.783,shape_ratio,2024.1.5,Win32,59.88023952,6842b561977af9ba9b0f87ca,,,,,,,,,,,284.9989,285.4973,,,285.7485,286.398,left,0.6398,,,,,,,,,0.1,,,,,,285.4974,285.7483,286.398,"[-0.08219189139918226,-0.05586783421663186]",4.0,"[0.07825573536699397,-0.03770290600494602]",100.0,"[-0.004258733306391071,-0.0003541445664408198]",100.0,"[-0.1864053690573158,0.07017532498412007]",4.0,"[0.12118593954524363,0.06769694532359058]",4.0,"[-0.048898781175481396,0.09172913462190763]",4.0,"[-0.16289648573551832,0.02911592104207805]",4.0,"[0.03740093174205805,-0.05590149477427329]",4.0,"[-0.1727512690524065,-0.09976801936771335]",4.0,"[0.14739216640346875,-0.07817037633549657]",4.0,"[-0.1622278959050941,-0.026965889876659786]",4.0,"[0.12847966550665682,0.15173550054855167]",4.0,"[-0.05163058338057733,-0.0962889677666761]",4.0,"[0.1534861224701697,-0.12782452507863695]",4.0,"[0.16592683285407442,-0.038174570903130894]",4.0,"[0.030599161017130887,-0.16731873506711542]",4.0,"[0.07626792129668086,0.11490058856325822]",4.0,"[-0.11188068648793874,-0.09767309582016816]",4.0,"[0.1393936555032982,-0.0070195633151687725]",4.0,"[-0.11095559547453711,0.16223494961852483]",4.0,"[-0.007090029715674421,-0.0575297918223375]",4.0,"[0.030481819347411326,0.11520511369663372]",4.0,"[-0.06584254289330653,-0.17901624883842232]",4.0,"[-0.1511060172484677,0.10857513908376099]",4.0,"[-0.11955038380387317,-0.019850125396403642]",4.0,"[0.06736884775145384,0.0619809601385687]",4.0,"[0.07477566597691881,0.011275739581252615]",4.0,"[-0.016156577636754533,0.13039152372213536]",100.0,"[0.026451424306301947,0.0663158824447057]",4.0,"[0.09766763845975454,-0.08321842180767333]",4.0,"[-0.1031619077675522,-0.14157289941438425]",4.0,"[0.1837736722605944,0.03354338009653533]",4.0,"[0.02,0.02]",287.496,0.0,37.0,37.0,192.0,1.0,,,,,,,
,,,,,,,664b7cea18fe17cd31b5ab5e,6842bbfd5f14aa46597a0e67,2025-06-06_13h00.07.783,shape_ratio,2024.1.5,Win32,59.88023952,6842b561977af9ba9b0f87ca,,,,,,,,,,,287.4976,287.9964,,,288.2481,288.7641,right,0.5008,,,,,,,,,0.6,,,,,,287.9964,288.248,288.7641,"[0.11024421295501662,-0.16116856572006344]",100.0,"[0.15862656452327983,0.0677976908163104]",4.0,"[0.015611557486832387,-0.015186608221446385]",4.0,"[-0.007911476878424991,-0.13509125145337605]",4.0,"[-0.038102495871657704,0.17921928839909584]",100.0,"[-0.022142884754157557,-0.039675011625367504]",100.0,"[-0.057525395994980126,0.13712632250941886]",4.0,"[-0.08912566402956447,-0.08675633715751688]",100.0,"[0.07708298161728436,0.06378997465586962]",4.0,"[-0.11591160125757154,0.07035742536860186]",100.0,"[0.007619491954714345,-0.18627925721194483]",100.0,"[0.13600948383945877,-0.0657561749056314]",4.0,"[0.11462621225235539,-0.019432220107501542]",100.0,"[0.15668759798007806,0.020992188146530758]",4.0,"[0.03308670516324563,0.0299171937120351]",100.0,"[-0.13299903714146963,-0.05862409434878796]",100.0,"[0.054228458132458114,0.09676545568248979]",100.0,"[-0.09130193017113003,-0.14075391173767618]",4.0,"[0.15200570297984367,-0.10410990005457225]",100.0,"[-0.13029863705743497,0.006063373587164015]",100.0,"[0.12850321068291087,0.10728902793733913]",100.0,"[0.05358161777054556,0.1714780649227932]",4.0,"[-0.06641591291867747,-0.006033216764439709]",100.0,"[-0.18231158871939498,-0.05237924250637754]",100.0,"[0.07002379755467936,-0.08580280749183794]",4.0,"[-0.1386718885771464,-0.11633038616563486]",4.0,"[-0.04319978939503891,-0.17170181658396125]",100.0,"[0.07243755369628571,0.013730084364096855]",4.0,"[0.0164598636893679,0.07885067053674458]",100.0,"[-0.05477602260852585,0.04908261819357744]",100.0,"[-0.05306330717079798,-0.10859634707899458]",100.0,"[0.08672475104206251,-0.04872059136133836]",4.0,"[0.02,0.02]",289.8631,0.0,38.0,38.0,46.0,1.0,,,,,,,
,,,,,,,664b7cea18fe17cd31b5ab5e,6842bbfd5f14aa46597a0e67,2025-06-06_13h00.07.783,shape_ratio,2024.1.5,Win32,59.88023952,6842b561977af9ba9b0f87ca,,,,,,,,,,,289.8685,290.367,,,290.6132,291.4308,left,0.8049,,,,,,,,,0.6,,,,,,290.3671,290.6132,291.431,"[-0.01607665149597382,-0.09737351455863506]",100.0,"[-0.021024807830108107,-0.05654341246162127]",4.0,"[-0.026542810386888382,-0.15121617773192397]",4.0,"[0.0746700701507879,-0.08814409385170509]",4.0,"[0.00615887229227743,0.19049766572571575]",100.0,"[-0.08645837583597536,-0.08275336660223746]",100.0,"[-0.16700176381089524,0.04184474668362339]",4.0,"[0.09325578981483693,0.12241853239512167]",100.0,"[-0.16063210006461343,-0.010103449098562946]",100.0,"[0.027485870354244286,-0.07871447709720583]",100.0,"[-0.0011041776914933491,0.10431975394529823]",4.0,"[-0.1238294536286676,-0.1341773407831486]",100.0,"[0.030656194007905795,-0.010750746839713254]",4.0,"[0.09451269083104766,0.027647377504689208]",100.0,"[-0.040253972035916595,0.034098221772669655]",100.0,"[-0.06343241514863007,0.1334024220417232]",100.0,"[0.11603463742438616,-0.08439062337408303]",100.0,"[-0.12155346545879277,0.11579168245356461]",100.0,"[-0.1758724288786142,-0.07168104145136518]",4.0,"[-0.09938170403767418,0.002209036292750459]",100.0,"[0.1307320105994578,-0.00347150356805468]",100.0,"[0.11367948015594137,-0.15809938990397704]",4.0,"[0.07292324249657284,0.08676512542548694]",4.0,"[0.18584619463506377,0.05994521521758314]",4.0,"[0.06959732426658821,-0.1477183551092027]",100.0,"[0.13542773015306964,0.0386128024454398]",4.0,"[-0.1107736190709802,0.052139424928034576]",100.0,"[-0.0670835501039762,-0.17243601863402921]",100.0,"[0.1592172268922849,-0.09477090414531698]",4.0,"[0.13341070448811687,-0.04673656213712517]",4.0,"[-0.12834587187472074,-0.08378614683865827]",100.0,"[0.019609379099837856,0.03712919476863457]",100.0,"[0.02,0.02]",292.528,0.0,39.0,39.0,31.0,1.0,,,,,,,
,,,,,,,664b7cea18fe17cd31b5ab5e,6842bbfd5f14aa46597a0e67,2025-06-06_13h00.07.783,shape_ratio,2024.1.5,Win32,59.88023952,6842b561977af9ba9b0f87ca,,,,,,,,,,,292.5293,293.0277,,,293.2796,293.6618,left,0.3715,,,,,,,,,0.1,,,,,,293.028,293.2795,293.662,"[0.10134315848118505,0.12264121108221777]",100.0,"[0.1220367042491231,-0.026410499364816896]",4.0,"[-0.05649763744866903,0.1365063179582841]",4.0,"[-0.008254073968938071,0.04495784198405137]",4.0,"[0.0816539801727999,0.043919650522154005]",4.0,"[0.17350192853138335,-0.009058679782582428]",4.0,"[0.0646486491256335,-0.1770457062755243]",4.0,"[0.13190285835908533,0.09362398313767276]",4.0,"[0.1210653387061615,-0.13261888261861063]",4.0,"[-0.027227324671077868,-0.11344629710793572]",4.0,"[0.1194843962050517,0.02326733732885065]",4.0,"[-0.10947219553992518,0.0959055730877482]",4.0,"[-0.05602137197197559,-0.17208636024298551]",4.0,"[-0.10090457765511808,0.04666427898472157]",100.0,"[-0.05570867843051292,-0.03584676571529797]",4.0,"[-0.11078798907257882,-0.003867163340899287]",4.0,"[-0.021116497444542928,0.11130700119313047]",4.0,"[-0.1880554931162432,0.030298448300599252]",4.0,"[-0.06776654559168055,-0.09122067608440813]",4.0,"[0.17783082281891022,0.06781352875279034]",4.0,"[-0.002339534250900824,-0.14511875776878772]",100.0,"[0.06024942042675616,0.16544963210716834]",4.0,"[-0.018661250735709616,0.1516367579565069]",4.0,"[-0.18419874102247216,-0.02761939749586514]",4.0,"[0.1849661324570922,-0.04977903142427636]",4.0,"[0.023157115271596907,-0.03839535782869519]",4.0,"[0.10612629609557228,0.1665703341543154]",4.0,"[0.07378238244047913,-0.11244641157070735]",4.0,"[0.014741966589567739,0.18532157294037876]",4.0,"[-0.10703248601785038,-0.1035792284795394]",4.0,"[0.0036513099918515884,0.003041779948542762]",4.0,"[0.022234017543616695,-0.09932215768591655]",4.0,"[0.02,0.02]",294.7668,0.0,40.0,40.0,184.0,1.0,,,,,,,
,,,,,,,664b7cea18fe17cd31b5ab5e,6842bbfd5f14aa46597a0e67,2025-06-06_13h00.07.783,shape_ratio,2024.1.5,Win32,59.88023952,6842b561977af9ba9b0f87ca,,,,,,,,,,,294.7681,295.2608,,,295.5169,296.0458,left,0.5107,,,,,,,,,0.5,,,,,,295.2611,295.5169,296.0469,"[0.05144463426966827,-0.011854619311471274]",100.0,"[0.004229996453965409,-0.04940993712825949]",4.0,"[0.02458250642889984,0.162241665258564]",4.0,"[0.11848037660020462,0.1296666195235063]",4.0,"[-0.10274075483780319,-0.019219523448150505]",4.0,"[0.13126018096726777,-0.050267611944413815]",4.0,"[-0.006491736442224387,-0.11765395200867718]",4.0,"[0.18787080833849928,-0.04446811713328678]",100.0,"[-0.1134523477730857,0.05792908697852739]",100.0,"[-0.08283283794648809,-0.123598462573428]",100.0,"[-0.14449651299245472,-0.09468011689330094]",4.0,"[0.09695281006960342,0.01843043002709303]",4.0,"[-0.1746616853054418,-0.0006491870941119538]",4.0,"[0.07986094373915446,-0.10269198519634813]",4.0,"[-0.016472643089349454,0.012939569852773622]",4.0,"[0.06524944299300121,0.08756894039411506]",100.0,"[-0.15836328224138255,0.08866991203015342]",100.0,"[-0.07114019168733804,0.12273253557297725]",4.0,"[-0.0205533599898935,0.09835777253542337]",100.0,"[-0.11135449571488767,-0.158644950699841]",4.0,"[0.038346579306825855,0.1234211275337621]",100.0,"[0.035128562905867085,-0.12480029186033978]",100.0,"[-0.13587989278516488,0.12357262171753743]",4.0,"[0.1486487733489797,0.022878046636926365]",100.0,"[-0.10596613518303095,0.16035285154891307]",100.0,"[0.020404170711174827,0.05876479021808427]",100.0,"[-0.05452663935710044,-0.15819986087350357]",100.0,"[0.07592289047094866,-0.04453140777497578]",100.0,"[-0.020807564522844275,0.18641539889778957]",100.0,"[-0.1638164768271283,-0.04385378337017118]",4.0,"[0.1417418782227284,0.07108267803383471]",100.0,"[-0.050207167817964804,0.06972876836842778]",4.0,"[0.02,0.02]",297.1435,0.0,41.0,41.0,109.0,1.0,,,,,,,
,,,,,,,664b7cea18fe17cd31b5ab5e,6842bbfd5f14aa46597a0e67,2025-06-06_13h00.07.783,shape_ratio,2024.1.5,Win32,59.88023952,6842b561977af9ba9b0f87ca,,,,,,,,,,,297.1459,297.6438,,,297.8998,298.6778,right,0.7585,,,,,,,,,0.4,,,,,,297.644,297.8997,298.6779,"[0.10771254873604638,0.034378397037426886]",4.0,"[0.1183149997151981,-0.013707849204432167]",4.0,"[-0.18071022253682495,0.016705239889560044]",100.0,"[0.04143164909375403,-0.06619009571827279]",4.0,"[0.025631450319590736,0.01236539857843375]",100.0,"[-0.06602827434687406,0.05631366402067269]",4.0,"[0.19390955673233998,-0.033107628040633746]",100.0,"[-0.0369004153161881,-0.12997991364003528]",4.0,"[0.0700453204336974,-0.14429967309175232]",4.0,"[-0.03641202748456482,0.17654261318352824]",4.0,"[-0.08315465229551652,0.15986868176254024]",100.0,"[-0.0006334569664380237,-0.08206641601133492]",4.0,"[0.07482772022538182,-0.09876795067742902]",100.0,"[0.1071458612645681,0.10576139884147695]",4.0,"[-0.02860752289299939,0.07872680003838849]",100.0,"[-0.0948014280599823,0.018741995617727627]",4.0,"[0.19438064879918576,0.014865551823437484]",100.0,"[0.13736027685540778,-0.06175189915913477]",100.0,"[-0.11046802365741154,-0.023303643573110867]",100.0,"[-0.08454373555478807,-0.08946819049169653]",100.0,"[0.06667917377944779,0.03574349834411245]",100.0,"[0.05277670182192105,-0.02657541772429128]",4.0,"[-0.14192858154432,-0.0724660289891251]",4.0,"[-0.042784863879812576,-0.015752889197354483]",100.0,"[0.04422500986001962,-0.1786075483083431]",4.0,"[-0.1884528885617085,-0.04739824667283988]",100.0,"[0.042361142836645875,0.12659885157386921]",4.0,"[-0.16997480702075768,0.0687995529453775]",4.0,"[0.14431597691762885,0.07464481850320803]",4.0,"[0.002667219469569282,-0.16120369345043228]",4.0,"[0.014347337878549481,0.05120277460801007]",4.0,"[-0.10525716798520228,-0.1619892527074657]",4.0,"[0.02,0.02]",299.7819,0.0,42.0,42.0,168.0,1.0,,,,,,,
,,,,,,,664b7cea18fe17cd31b5ab5e,6842bbfd5f14aa46597a0e67,2025-06-06_13h00.07.783,shape_ratio,2024.1.5,Win32,59.88023952,6842b561977af9ba9b0f87ca,,,,,,,,,,,299.7833,300.2758,,,300.5269,301.1418,right,0.5963,,,,,,,,,0.9,,,,,,300.276,300.5268,301.142,"[-0.1154081758257846,0.11758956752134536]",100.0,"[-0.1410539161117591,-0.012427379277096006]",100.0,"[0.042100359291385614,0.09292572577574555]",100.0,"[-0.19150146173907026,0.035411196319858715]",100.0,"[0.1700096996223993,-0.06850557923157265]",100.0,"[-0.07735246200743284,-0.01638449773887915]",100.0,"[0.12624558819693962,0.0012462367115844478]",100.0,"[-0.07469307180058556,-0.18370565875318923]",100.0,"[0.08192282805934155,-0.1759798896579996]",100.0,"[-0.10902208993514811,-0.049274627602918245]",4.0,"[0.009624860629185454,0.06682543260352568]",100.0,"[0.08187805111512174,-0.12761672475535707]",100.0,"[-0.09228944198391202,-0.09803552558019654]",100.0,"[-0.02866949213048665,0.19661971022540028]",100.0,"[0.05598030832596864,-0.03475872479552655]",100.0,"[-0.04256156461951576,0.13269733138964876]",100.0,"[0.12654533112939317,-0.052833387634274934]",100.0,"[0.07976201586409783,0.17415631811716467]",100.0,"[-0.09308089378642,0.08107254688092676]",100.0,"[-0.021839576586261577,-0.06720026862920965]",100.0,"[-0.18197325070924458,-0.029618069345440017]",100.0,"[0.17757209570436813,0.02739057121846938]",100.0,"[-0.03131298470917728,-0.008441596275309639]",100.0,"[0.16911980996511525,0.07058915501556415]",100.0,"[-0.046026801758297084,0.08303447341711534]",4.0,"[0.11687547114663277,0.08211342929104289]",100.0,"[-0.009795428044501744,-0.15056946481751968]",100.0,"[-0.11051509522795319,-0.15007047668474993]",100.0,"[0.14025376380030372,-0.11038818893254182]",100.0,"[0.030669927365051586,-0.11164806861772167]",4.0,"[0.058297094188339206,0.025055878819640536]",100.0,"[-0.04361983018414321,-0.10089655102665927]",100.0,"[0.02,0.02]",302.2415,0.0,43.0,43.0,5.0,1.0,,,,,,,
,,,,,,,664b7cea18fe17cd31b5ab5e,6842bbfd5f14aa46597a0e67,2025-06-06_13h00.07.783,shape_ratio,2024.1.5,Win32,59.88023952,6842b561977af9ba9b0f87ca,,,,,,,,,,,302.2427,302.7415,,,302.9813,303.6145,left,0.6181,,,,,,,,,0.4,,,,,,302.7416,302.9812,303.6153,"[0.03882936044728759,0.1720843449698268]",4.0,"[-0.007991099562114697,-0.0262740717550119]",4.0,"[0.0063012486652225825,0.07994724564238567]",100.0,"[-0.05372287459273012,0.06601296268230757]",4.0,"[0.1292404390510642,0.08607814998237741]",100.0,"[0.00580987956326299,-0.06407696516826829]",100.0,"[-0.15166523570805157,0.11865668577538696]",4.0,"[0.16201280172148946,-0.08578190756861125]",100.0,"[0.11567836337864588,0.02467467355320071]",4.0,"[0.04390120541334933,0.11023752821624767]",4.0,"[0.07570450851690948,-0.0686889081506006]",100.0,"[-0.07570711822744583,-0.06279793276451086]",100.0,"[-0.04302832737545062,-0.09503978851576296]",4.0,"[-0.15652661940633897,-0.09534866032415143]",4.0,"[0.04429926147207703,-0.032840975558307776]",4.0,"[-0.021511836476050122,0.12813276468192902]",4.0,"[0.16758970488476455,0.023548722744303915]",4.0,"[0.03755190980043942,-0.15576762479916512]",4.0,"[0.11631236617774829,-0.13408342899747916]",4.0,"[-0.1746191066145513,-0.022184060729585377]",4.0,"[-0.132440629555489,-0.05804540954095948]",4.0,"[-0.09370105719175406,0.15088605032045552]",100.0,"[-0.0273937573064532,-0.18607151477650377]",4.0,"[-0.08253855268761616,0.031199090174667883]",100.0,"[-0.14847959977511474,0.045921259568203796]",4.0,"[-0.09773135255064827,-0.11158335587492377]",100.0,"[-0.07077281501208477,-0.18459146001465004]",4.0,"[0.05744383375749738,-0.11192346163092315]",100.0,"[0.16612535095254188,-0.040087152435090465]",100.0,"[-0.09571486762781227,0.09745329024384188]",100.0,"[-0.11854573823925839,-0.1542145232545922]",4.0,"[0.08215613571386374,-0.16348260433495249]",100.0,"[0.02,0.02]",304.7121,0.0,44.0,44.0,178.0,1.0,,,,,,,
,,,,,,,664b7cea18fe17cd31b5ab5e,6842bbfd5f14aa46597a0e67,2025-06-06_13h00.07.783,shape_ratio,2024.1.5,Win32,59.88023952,6842b561977af9ba9b0f87ca,,,,,,,,,,,304.7139,305.2084,,,305.4641,306.0004,right,0.521,,,,,,,,,0.55,,,,,,305.2084,305.4641,306.0008,"[0.0066244545969852695,0.14053498030467557]",100.0,"[-0.00597123080921143,-0.12817734635716307]",100.0,"[-0.08398683073732863,0.12084263238649957]",4.0,"[-0.04850412921292801,0.18953559920561325]",100.0,"[-0.10075186703619424,-0.12419609914647832]",100.0,"[-0.05644476362815849,-0.13294713461911453]",4.0,"[-0.14385734687528284,0.06961100751666813]",4.0,"[0.08689277369003898,-0.04704284706739423]",4.0,"[-0.0030032511040456135,0.18069424898197678]",4.0,"[0.008170244474108326,-0.059109281235237565]",100.0,"[-0.04672823561958679,0.05967008760104756]",100.0,"[0.06130965360635459,-0.1375078372197672]",100.0,"[0.02630796108163976,-0.017540043400816822]",4.0,"[0.16254877580195481,0.009820973004652121]",4.0,"[0.15529964887043923,0.05000418692834451]",100.0,"[0.10593115814157024,0.006536638259074353]",100.0,"[-0.12074656831687207,-0.057455778738973305]",4.0,"[-0.1665067098382447,-0.07230833819662795]",4.0,"[0.10853073017837982,-0.1538831384262084]",100.0,"[0.14112769612089418,-0.06067583513353547]",4.0,"[-0.0013143051030482425,-0.1862634880349896]",100.0,"[0.16223691852421143,-0.11095240185752468]",100.0,"[-0.15206378873600032,-0.02160112766964288]",100.0,"[0.14370817774217032,0.08935983872098498]",100.0,"[-0.1049332432140784,0.03722928146139221]",100.0,"[0.1830658224089174,0.07942890343586873]",100.0,"[-0.0179326576404703,0.031078597116873788]",100.0,"[-0.17832367413298314,0.04170677197139084]",4.0,"[-0.07524571638679767,-0.09268378820480662]",4.0,"[0.04641962788360781,0.05127706203379166]",4.0,"[0.0376910347319317,0.1812776551859242]",100.0,"[-0.14352114281553724,-0.10874396595454605]",4.0,"[0.02,0.02]",307.0948,0.0,45.0,45.0,67.0,1.0,,,,,,,
,,,,,,,664b7cea18fe17cd31b5ab5e,6842bbfd5f14aa46597a0e67,2025-06-06_13h00.07.783,shape_ratio,2024.1.5,Win32,59.88023952,6842b561977af9ba9b0f87ca,,,,,,,,,,,307.096,307.5903,,,307.8415,308.375,right,0.5186,,,,,,,,,0.45,,,,,,307.5907,307.8413,308.3751,"[-0.09408409031966038,0.1420641705865975]",100.0,"[0.09552575394614239,0.11696884545107163]",100.0,"[0.062191732459564227,-0.17466037331273515]",4.0,"[0.058058276070556504,0.04893103774957158]",100.0,"[-0.013352904466077519,-0.07040016183217358]",4.0,"[-0.14110282433498117,-0.0037996909956774204]",100.0,"[0.0890762066038849,-0.11218449176373806]",4.0,"[0.136774507968396,-0.019148980785258243]",4.0,"[-0.09996015567894917,-0.0356457781200598]",4.0,"[-0.17020931676705817,-0.03215157632679509]",100.0,"[0.030432237148853486,-0.06517886193401526]",100.0,"[-0.06608576295486197,-0.10522263792592332]",4.0,"[-0.1286506452785429,-0.10225951321636587]",4.0,"[-0.007397222771104313,-0.1963723243226521]",4.0,"[-0.0045766114500779805,0.11665658453660403]",4.0,"[-0.07223229946046394,0.024708582930842257]",100.0,"[0.12252330939028386,0.028006471115744933]",4.0,"[0.17555695664539728,-0.07204174942503525]",100.0,"[-0.018892314822067498,0.18731758689699676]",4.0,"[0.014059493012405135,-0.15494685537954742]",4.0,"[0.11342130600601424,0.15962802294138687]",4.0,"[-0.046348099424616575,0.15185314266068184]",100.0,"[0.18119032037448077,0.05809711732288994]",4.0,"[-0.006820346094503766,0.05677934809687367]",100.0,"[0.00045675670370458224,-0.006727502908190221]",4.0,"[0.03637394862604992,0.1652772306015137]",100.0,"[-0.12034092548859567,0.054887746055830224]",4.0,"[0.1639455019575537,0.013501142990524828]",4.0,"[-0.1697783926320868,0.07689914139806994]",100.0,"[0.09076548731996349,-0.0007984682517126599]",4.0,"[0.10206620348297256,-0.050520785961266204]",100.0,"[-0.07968476130196633,0.08116620682966925]",100.0,"[0.02,0.02]",309.4719,0.0,46.0,46.0,132.0,1.0,,,,,,,
,,,,,,,664b7cea18fe17cd31b5ab5e,6842bbfd5f14aa46597a0e67,2025-06-06_13h00.07.783,shape_ratio,2024.1.5,Win32,59.88023952,6842b561977af9ba9b0f87ca,,,,,,,,,,,309.4729,309.9724,,,310.2229,310.6744,right,0.4354,,,,,,,,,0.9,,,,,,309.9725,310.2227,310.6745,"[-0.11594133356178538,-0.07461380820629959]",100.0,"[-0.055058996179940596,-0.019200794252357628]",100.0,"[0.03702922888742336,0.1900412777932014]",100.0,"[-0.056324882436250966,0.10218471673080917]",100.0,"[0.07089753227154649,-0.00926733006129514]",100.0,"[-0.04636915501066281,0.18762463385099168]",100.0,"[-0.12062219819247359,-0.01971394609070109]",100.0,"[-0.034126065875018645,0.04553373433281984]",100.0,"[0.08595423713592967,-0.1166341567801865]",100.0,"[-0.12040520613274217,-0.1501984760023646]",100.0,"[-0.021926936783158164,-0.14865823116112903]",100.0,"[-0.02342881022545837,-0.07184343487505242]",100.0,"[0.06547438026559159,0.14926695214922361]",100.0,"[-0.09667085792231025,0.056556372332626406]",100.0,"[0.11478762168162447,0.10940136929272369]",100.0,"[0.05127967058259855,-0.15261678701392692]",100.0,"[0.0023783700154216404,-0.19593180257751874]",100.0,"[-0.09208246500229791,0.14375951224874065]",100.0,"[-0.00007626287057530784,0.0037195269074254403]",4.0,"[0.07249034397570936,0.04473103522937613]",100.0,"[0.12652228544204017,0.05742074065341852]",100.0,"[-0.07738670231570252,-0.1152015208832477]",100.0,"[0.13054564225329607,-0.03580922760251839]",100.0,"[-0.08091225265664116,-0.04973737411145856]",100.0,"[0.019969889708566,-0.07942322935451605]",100.0,"[-0.1462469271641924,0.0706409579665213]",100.0,"[0.10701618964924912,0.009536766264211367]",100.0,"[0.14590433742560033,-0.08900859314687616]",100.0,"[-0.1609896312999113,-0.01080887919993675]",4.0,"[0.16542627072695618,0.0870984621265519]",4.0,"[-0.18347850027105903,0.04304647283362806]",100.0,"[0.005915677589947768,0.06895287774672916]",100.0,"[0.02,0.02]",311.7719,0.0,47.0,47.0,10.0,1.0,,,,,,,
,,,,,,,664b7cea18fe17cd31b5ab5e,6842bbfd5f14aa46597a0e67,2025-06-06_13h00.07.783,shape_ratio,2024.1.5,Win32,59.88023952,6842b561977af9ba9b0f87ca,,,,,,,,,,,311.7738,312.2715,,,312.5107,312.8789,right,0.3527,,,,,,,,,0.9,,,,,,312.2715,312.5107,312.8791,"[-0.02304491298292483,0.06525083374604926]",100.0,"[0.13635411129740257,-0.06641711727719213]",100.0,"[-0.03302781688509095,-0.1266082876860125]",100.0,"[-0.02195769093775971,-0.0163613911529117]",100.0,"[0.08528786261654532,-0.0744656642449292]",100.0,"[-0.10219903314533087,-0.021822697153503292]",4.0,"[-0.16381178268962324,-0.09838464293537667]",100.0,"[-0.11466812061067912,-0.15037846540219435]",100.0,"[0.08420132739226825,0.02856969438727697]",100.0,"[-0.042306308044548026,0.147673710578889]",4.0,"[-0.11524834237489784,0.13345708235820372]",100.0,"[0.00835033347394844,0.09107456235475998]",100.0,"[0.1846043187771878,-0.01325177788450318]",100.0,"[0.12642722107188617,-0.15396501493669693]",100.0,"[0.07036131700481117,-0.17959581060258756]",100.0,"[-0.06635381036763542,0.045149149375512704]",100.0,"[0.08705462396823284,-0.14085394393523626]",100.0,"[0.044895784381457186,0.1697214939551072]",100.0,"[0.014886159775127581,0.0011801674105985267]",100.0,"[-0.12282479641756679,-0.09073665279411407]",100.0,"[-0.13320886917262298,0.0898982278254487]",100.0,"[-0.16203621638562365,-0.0213051387121159]",100.0,"[0.043249932405477955,-0.12379387605633599]",100.0,"[0.10910039166692638,0.12926958107246017]",4.0,"[0.013074982784318111,-0.07172879195949027]",100.0,"[0.165528657259327,0.07939498886540722]",100.0,"[-0.1111832131503861,0.04754906156654934]",100.0,"[-0.037765279245915974,-0.059275851258634674]",100.0,"[-0.1722465043354306,0.10049709631774299]",100.0,"[0.15048782444958544,0.11995549547627035]",100.0,"[-0.14700270868824944,0.01617372382746974]",100.0,"[-0.07992353537125665,-0.09638489757109484]",100.0,"[0.02,0.02]",313.9717,0.0,48.0,48.0,24.0,1.0,,,,,,,
,,,,,,,664b7cea18fe17cd31b5ab5e,6842bbfd5f14aa46597a0e67,2025-06-06_13h00.07.783,shape_ratio,2024.1.5,Win32,59.88023952,6842b561977af9ba9b0f87ca,,,,,,,,,,,313.9734,314.4712,,,314.7228,315.2573,left,0.5199,,,,,,,,,0.55,,,,,,314.472,314.7226,315.2575,"[0.048151604975232604,0.09361592491208956]",100.0,"[-0.011988219556934892,-0.06232920106262932]",100.0,"[0.15285135749399723,0.06928481505669148]",4.0,"[0.005964119200653599,0.18462316952103938]",100.0,"[0.0007147279299346096,0.08828839845703942]",4.0,"[0.044766953048614146,-0.1444358313410232]",4.0,"[-0.16523375651281852,0.005272444215634661]",100.0,"[-0.03731214265908926,0.10256237993838795]",100.0,"[-0.15205446879252016,-0.10879742719932656]",4.0,"[0.16324041842323414,-0.04964918285806785]",100.0,"[0.120262629801189,-0.01550308838132783]",100.0,"[0.12643487942938314,0.10471722192603007]",100.0,"[-0.0030295598053536855,-0.11050717023371777]",100.0,"[0.0043588038855585645,-0.025329002535286544]",4.0,"[0.09947053100923092,0.16695750377963126]",100.0,"[-0.13021308788943306,-0.04129955999246452]",100.0,"[0.02009462070257024,0.0492113002589332]",4.0,"[-0.07558755887528881,-0.13452482249617287]",4.0,"[0.0568058524231494,0.006432242384753195]",100.0,"[-0.07439293642576486,-0.18443910457802354]",4.0,"[0.08809961320483671,-0.16019163035231246]",100.0,"[-0.07380035770000054,0.07738801588073632]",100.0,"[-0.10202034370774689,-0.09753928624612018]",4.0,"[-0.030096453191909903,0.154758690725143]",4.0,"[-0.11568856953437455,0.08704042645774888]",4.0,"[-0.016289979668272128,-0.17922108016211716]",100.0,"[0.06958963823326286,-0.07412789159883477]",4.0,"[-0.15199012999976694,0.1079777544390881]",4.0,"[-0.0952831685862585,0.13396194751092302]",100.0,"[-0.09337496003552834,0.035462910910237615]",4.0,"[0.16109754372461454,-0.10114010359626516]",100.0,"[0.06814519747322643,0.13312611224934412]",100.0,"[0.02,0.02]",316.354,0.0,49.0,49.0,85.0,1.0,,,,,,,
