right,left,explain.started,explain.stopped,key_resp_3.keys,key_resp_3.rt,key_resp_3.duration,participant,session,date,expName,psychopyVersion,OS,frameRate,study_id,explain_2.started,explain_2.stopped,key_resp_4.keys,key_resp_4.rt,key_resp_4.duration,explain_3.started,explain_3.stopped,key_resp_5.keys,key_resp_5.rt,key_resp_5.duration,fixation.started,fixation.stopped,practice.started,practice.stopped,response.started,response.stopped,key_resp.keys,feedback.started,feedback.stopped,trials_2.thisRepN,trials_2.thisTrialN,trials_2.thisN,trials_2.thisIndex,trials_2.ran,dot_ratio,explain_4.started,explain_4.stopped,key_resp_6.keys,key_resp_6.rt,key_resp_6.duration,dotDisplay.started,dotDisplay.stopped,key_resp.rt,key_resp.duration,ITI.started,polygon_1.pos,polygon_1.edges,polygon_2.pos,polygon_2.edges,polygon_3.pos,polygon_3.edges,polygon_4.pos,polygon_4.edges,polygon_5.pos,polygon_5.edges,polygon_6.pos,polygon_6.edges,polygon_7.pos,polygon_7.edges,polygon_8.pos,polygon_8.edges,polygon_9.pos,polygon_9.edges,polygon_10.pos,polygon_10.edges,polygon_11.pos,polygon_11.edges,polygon_12.pos,polygon_12.edges,polygon_13.pos,polygon_13.edges,polygon_14.pos,polygon_14.edges,polygon_15.pos,polygon_15.edges,polygon_16.pos,polygon_16.edges,polygon_17.pos,polygon_17.edges,polygon_18.pos,polygon_18.edges,polygon_19.pos,polygon_19.edges,polygon_20.pos,polygon_20.edges,polygon_21.pos,polygon_21.edges,polygon_22.pos,polygon_22.edges,polygon_23.pos,polygon_23.edges,polygon_24.pos,polygon_24.edges,polygon_25.pos,polygon_25.edges,polygon_26.pos,polygon_26.edges,polygon_27.pos,polygon_27.edges,polygon_28.pos,polygon_28.edges,polygon_29.pos,polygon_29.edges,polygon_30.pos,polygon_30.edges,polygon_31.pos,polygon_31.edges,polygon_32.pos,polygon_32.edges,dot_size,ITI.stopped,trials.thisRepN,trials.thisTrialN,trials.thisN,trials.thisIndex,trials.ran,break_2.started,break_2.stopped,trials_3.thisRepN,trials_3.thisTrialN,trials_3.thisN,trials_3.thisIndex,trials_3.ran
subject chose diamond,subject chose dot,0.0,58.958,space,43.924,,66704327b46c7665de1190bc,68442939b5cbf0f2fa614b73,2025-06-07_12h59.19.287,shape_ratio,2024.1.5,Win32,60.0240096,684250e4f00cb30b92d1fa88,,,,,,,,,,,,,,,,,,,,,,,,,,,,,,,,,,,,,,,,,,,,,,,,,,,,,,,,,,,,,,,,,,,,,,,,,,,,,,,,,,,,,,,,,,,,,,,,,,,,,,,,,,,,,,,,,
,,,,,,,66704327b46c7665de1190bc,68442939b5cbf0f2fa614b73,2025-06-07_12h59.19.287,shape_ratio,2024.1.5,Win32,60.0240096,684250e4f00cb30b92d1fa88,58.958,102.798,space,13.818,,,,,,,,,,,,,,,,,,,,,,,,,,,,,,,,,,,,,,,,,,,,,,,,,,,,,,,,,,,,,,,,,,,,,,,,,,,,,,,,,,,,,,,,,,,,,,,,,,,,,,,,,,,,,
,,,,,,,66704327b46c7665de1190bc,68442939b5cbf0f2fa614b73,2025-06-07_12h59.19.287,shape_ratio,2024.1.5,Win32,60.0240096,684250e4f00cb30b92d1fa88,,,,,,102.799,108.729,space,2.909,,,,,,,,,,,,,,,,,,,,,,,,,,,,,,,,,,,,,,,,,,,,,,,,,,,,,,,,,,,,,,,,,,,,,,,,,,,,,,,,,,,,,,,,,,,,,,,,,,,,,,,,
,,,,,,,66704327b46c7665de1190bc,68442939b5cbf0f2fa614b73,2025-06-07_12h59.19.287,shape_ratio,2024.1.5,Win32,60.0240096,684250e4f00cb30b92d1fa88,,,,,,,,,,,108.751,109.246,109.246,109.48,109.48,110.979,,110.979,112.079,0.0,0.0,0.0,1.0,1.0,0.8,,,,,,,,,,,,,,,,,,,,,,,,,,,,,,,,,,,,,,,,,,,,,,,,,,,,,,,,,,,,,,,,,,,,,,,,,,,,,,,,,,,,,,,,
,,,,,,,66704327b46c7665de1190bc,68442939b5cbf0f2fa614b73,2025-06-07_12h59.19.287,shape_ratio,2024.1.5,Win32,60.0240096,684250e4f00cb30b92d1fa88,,,,,,,,,,,112.08,112.579,112.579,112.829,112.829,114.328,,114.328,115.429,0.0,1.0,1.0,0.0,1.0,0.2,,,,,,,,,,,,,,,,,,,,,,,,,,,,,,,,,,,,,,,,,,,,,,,,,,,,,,,,,,,,,,,,,,,,,,,,,,,,,,,,,,,,,,,,
,,,,,,,66704327b46c7665de1190bc,68442939b5cbf0f2fa614b73,2025-06-07_12h59.19.287,shape_ratio,2024.1.5,Win32,60.0240096,684250e4f00cb30b92d1fa88,,,,,,,,,,,,,,,,,,,,,,,,,,115.429,132.703,space,14.27,,,,,,,,,,,,,,,,,,,,,,,,,,,,,,,,,,,,,,,,,,,,,,,,,,,,,,,,,,,,,,,,,,,,,,,,,,,,,,,,,,,,
,,,,,,,66704327b46c7665de1190bc,68442939b5cbf0f2fa614b73,2025-06-07_12h59.19.287,shape_ratio,2024.1.5,Win32,60.0240096,684250e4f00cb30b92d1fa88,,,,,,,,,,,132.737,133.212,,,133.463,134.179,left,,,,,,,,0.5,,,,,,133.212,133.463,0.699,,134.179,"[0.052925849876737374,-0.08442580288012173]",4.0,"[0.14348041960316985,0.08057413394157646]",100.0,"[0.11233892999826468,-0.08236910464139494]",100.0,"[-0.10496068008936937,-0.15991183448989743]",100.0,"[-0.06411046551633567,0.13554613987135425]",100.0,"[-0.10049793024396357,-0.005842833798657926]",4.0,"[0.05139358671556986,-0.044242945758237825]",4.0,"[0.0708000247647547,0.08375461147925309]",100.0,"[0.010574797301916652,-0.15157299110822872]",4.0,"[-0.14621960995671815,-0.11372066067032355]",4.0,"[0.16817583142354356,-0.009492735370452443]",4.0,"[-0.0940483462499063,0.04189826311055964]",4.0,"[0.10254003976802747,-0.13818617219581797]",4.0,"[-0.00022749945585456052,0.06929555242821765]",100.0,"[0.030704177672435707,-0.18684484791119543]",4.0,"[-0.18500998773636154,0.03901592567213812]",4.0,"[0.04222364228263776,0.020609133910084898]",4.0,"[-0.03589038835936469,-0.10880703077510864]",4.0,"[0.15314057681827428,0.03528986351631533]",100.0,"[0.030302264834710532,0.1833027711910754]",4.0,"[0.0926427040573395,0.14949950945420057]",100.0,"[-0.02143467097676043,-0.009558021741868913]",100.0,"[-0.0584482983133227,-0.047491028713910415]",100.0,"[-0.09340396096743483,0.1017084757331604]",100.0,"[-0.02390626790648616,0.19724051066410792]",4.0,"[-0.08725596454530729,-0.09857580726001187]",4.0,"[-0.16058219345170435,0.11245164391421006]",100.0,"[-0.1885315803543026,-0.0528465166801751]",100.0,"[0.15952641250353997,-0.07640174750866904]",100.0,"[-0.005096491997757069,-0.07099575803528936]",4.0,"[-0.04031780891809353,0.038550844101065095]",100.0,"[-0.05496486620700724,-0.16971262626327357]",100.0,"[0.02,0.02]",135.278,0.0,0.0,0.0,109.0,1.0,,,,,,,
,,,,,,,66704327b46c7665de1190bc,68442939b5cbf0f2fa614b73,2025-06-07_12h59.19.287,shape_ratio,2024.1.5,Win32,60.0240096,684250e4f00cb30b92d1fa88,,,,,,,,,,,135.279,135.778,,,136.03,136.595,right,,,,,,,,0.1,,,,,,135.778,136.03,0.551,,136.595,"[0.14073284408432485,-0.12147072927940927]",4.0,"[0.18106880603358008,0.06911040503113171]",4.0,"[-0.031304024008712315,-0.0535334839902985]",4.0,"[0.0831140254214201,-0.14868532365145637]",4.0,"[0.042666703664821164,-0.15983634578489972]",4.0,"[0.13891443779452914,0.016064592675466286]",4.0,"[-0.05055998732027753,-0.13622075285144955]",4.0,"[-0.13287503215473515,-0.04877475729468879]",100.0,"[0.19636103302732555,-0.02140548325630277]",4.0,"[0.019010235493460193,0.10481071161316796]",4.0,"[-0.0029623304354989993,-0.00950222806122852]",4.0,"[0.14739429613982039,-0.07306112448264009]",4.0,"[-0.11828754443000937,0.0930525816271859]",4.0,"[-0.1980758175037238,-0.002129295204871981]",4.0,"[-0.049222179245804784,0.10639809686365653]",4.0,"[-0.055495733877331886,0.17822562608947845]",4.0,"[-0.08836745320522268,0.1300817885812217]",4.0,"[0.091992455375064,-0.059240062417130604]",4.0,"[0.1055795204420148,0.044746143367914895]",4.0,"[-0.1547005806768023,0.023155637607828062]",4.0,"[-0.001753335802312068,-0.14693728132234804]",4.0,"[0.06437193627983491,0.039983574025185833]",4.0,"[-0.1171598893595391,-0.13415209992010946]",100.0,"[0.14147890102797098,-0.030465950930608346]",4.0,"[0.020940351229224233,-0.055266919938571586]",100.0,"[0.11222025372985041,0.14336900750307507]",4.0,"[0.0830483793815163,0.08281932136196088]",4.0,"[-0.06442283197375855,-0.010793904089710064]",4.0,"[0.14284262683031743,0.10482095694944563]",4.0,"[0.04146051629613557,0.15884371187202112]",4.0,"[0.1859824586207879,0.028459235698324776]",4.0,"[-0.15570797665192707,-0.09280525639303529]",4.0,"[0.02,0.02]",137.695,0.0,1.0,1.0,194.0,1.0,,,,,,,
,,,,,,,66704327b46c7665de1190bc,68442939b5cbf0f2fa614b73,2025-06-07_12h59.19.287,shape_ratio,2024.1.5,Win32,60.0240096,684250e4f00cb30b92d1fa88,,,,,,,,,,,137.698,138.196,,,138.448,138.979,left,,,,,,,,0.55,,,,,,138.196,138.448,0.516,,138.979,"[-0.11344601172137808,0.057176831145625585]",4.0,"[0.13898643241219932,-0.13954117343310868]",4.0,"[0.08873817447155714,-0.13592356379032428]",100.0,"[0.1252617064218147,-0.009507725181524889]",4.0,"[0.1454307487650945,-0.09545672642115337]",100.0,"[0.009517867567537466,0.1078801163663783]",4.0,"[0.0614383122280682,0.13537933419752285]",100.0,"[-0.17656791048064213,0.02440465987713819]",100.0,"[0.1086204254014228,0.0646568550054225]",4.0,"[-0.14010243460391508,0.0034462251698719536]",4.0,"[-0.07550031203779083,-0.040487917643838155]",4.0,"[0.05385384213882952,0.07908039526902458]",100.0,"[-0.07486276970220865,-0.12765274396853943]",100.0,"[-0.05433300289749168,-0.18600033925563036]",4.0,"[0.08918331589299429,0.01959598257677514]",4.0,"[-0.07815898243242454,0.0024360866322908786]",100.0,"[-0.02255416487970594,-0.0049429350798724445]",100.0,"[-0.15129213964842048,-0.09634225237666598]",4.0,"[-0.1461808477374634,-0.0425356276652379]",100.0,"[0.033973259033109306,0.01624234016345158]",100.0,"[-0.0072186522506798015,0.06090838611017887]",4.0,"[0.04486565239705645,-0.1450897406090907]",100.0,"[0.07634835559012437,-0.039096882296145725]",100.0,"[-0.03345662454376694,0.1321035952443739]",4.0,"[-0.04489367050833509,0.18167881016019083]",100.0,"[-0.030742770967913034,-0.102460030075086]",4.0,"[-0.04820964943893041,0.06965168211214219]",100.0,"[0.038904150739082405,0.18400796576716436]",100.0,"[0.14791882959856623,0.02357287663737011]",100.0,"[0.14728575651592946,0.09111954306760206]",4.0,"[0.17441838055393238,-0.024300347079109417]",100.0,"[-0.11354493077914853,-0.07623365311371694]",100.0,"[0.02,0.02]",140.078,0.0,2.0,2.0,71.0,1.0,,,,,,,
,,,,,,,66704327b46c7665de1190bc,68442939b5cbf0f2fa614b73,2025-06-07_12h59.19.287,shape_ratio,2024.1.5,Win32,60.0240096,684250e4f00cb30b92d1fa88,,,,,,,,,,,140.08,140.579,,,140.829,141.295,left,,,,,,,,0.5,,,,,,140.579,140.829,0.451,,141.295,"[-0.18566028134327486,-0.027951589864898287]",100.0,"[-0.145038501465714,0.051174782849649575]",4.0,"[-0.041756425657181184,-0.13290476503918072]",4.0,"[-0.09510930016568798,-0.08494523857145225]",4.0,"[0.05788193603844051,-0.08292543681728747]",100.0,"[0.08500505670866204,0.14971863260746318]",100.0,"[-0.020976812619771277,0.05103383797002064]",100.0,"[-0.12282890102139503,-0.1269821302316894]",100.0,"[0.035424972620269043,-0.009351038184592047]",100.0,"[0.13163189335614187,-0.013173035769630498]",100.0,"[-0.0156528410008424,0.1970706177526328]",100.0,"[-0.060237107249486076,0.17911453040115805]",4.0,"[-0.12628451990272146,-0.05728066063465596]",4.0,"[0.19880240516554976,-0.012725485746431706]",100.0,"[-0.16652787058418098,0.08829508848159973]",4.0,"[-0.11906749698706451,0.11607236206968505]",4.0,"[-0.008875207262614333,-0.0649221381895203]",4.0,"[-0.09743465449861521,0.02764701013487612]",4.0,"[0.025767545677600014,0.09973812714862047]",100.0,"[0.04492952561659845,-0.13433673102876426]",100.0,"[0.11091849544266486,0.037654042064791976]",4.0,"[-0.06178160911054075,0.00000839191874393252]",100.0,"[0.07539612363013187,-0.04222077310264691]",4.0,"[0.05431125084160202,0.0603021496342112]",100.0,"[0.17393875848807444,0.025447613062519036]",4.0,"[0.15665700705406238,0.0759475343367844]",4.0,"[0.16093976774575786,-0.08919664511337429]",100.0,"[0.033633031522376275,0.15916562706008486]",100.0,"[-0.000627033991700872,-0.14237028519009023]",4.0,"[0.1305317356478303,0.13469858473178847]",100.0,"[-0.017627659221219547,-0.0235894962039973]",4.0,"[-0.048599885685877926,0.114242207872369]",4.0,"[0.02,0.02]",142.396,0.0,3.0,3.0,115.0,1.0,,,,,,,
,,,,,,,66704327b46c7665de1190bc,68442939b5cbf0f2fa614b73,2025-06-07_12h59.19.287,shape_ratio,2024.1.5,Win32,60.0240096,684250e4f00cb30b92d1fa88,,,,,,,,,,,142.398,142.894,,,143.148,143.628,right,,,,,,,,0.5,,,,,,142.894,143.148,0.469,,143.629,"[-0.19154936438359202,0.015740102881015714]",4.0,"[0.04306201333687541,0.18693138700007028]",4.0,"[0.06045443228058366,-0.06867674315230182]",4.0,"[0.06126528703035572,-0.15955457041269774]",4.0,"[0.09640394336125063,0.06205919968861252]",4.0,"[0.040373376820728675,-0.12169669535120721]",100.0,"[0.0039576110271916575,-0.14236119601916952]",4.0,"[0.004509775083969191,-0.18988763476515325]",4.0,"[0.12934253379392574,0.13529474306202477]",100.0,"[-0.1210564416147869,-0.10819983672751685]",4.0,"[-0.15946211273695815,-0.0784306064956532]",100.0,"[-0.07363235193115819,0.07491862018763532]",100.0,"[-0.06813866994700926,-0.1667339830438934]",100.0,"[-0.003831603643501029,-0.09156278818435015]",100.0,"[0.021417531648236756,-0.050858076536086365]",100.0,"[0.17411760419117567,-0.08565598067178297]",4.0,"[0.12364106590929977,0.018884102801482793]",100.0,"[-0.06837448903160362,0.18654668567870925]",4.0,"[0.016926681902264564,0.12201481697222215]",4.0,"[-0.0766953074875347,0.015569618992810674]",100.0,"[-0.13920950924029096,0.05318527116494018]",100.0,"[0.059591145786062186,0.038338651748452086]",4.0,"[-0.14188401657916286,0.1310002875709606]",100.0,"[-0.06614198282464973,-0.07696126255342037]",100.0,"[0.19478556511474324,-0.01659940920386562]",100.0,"[0.11999297706146157,-0.03533442819399008]",4.0,"[0.16695688505850895,0.09327958880228752]",100.0,"[0.011372809186026471,0.0010698679757027026]",4.0,"[0.0835831006506941,0.1390053973186811]",4.0,"[0.19129888879790224,0.03685136467633498]",100.0,"[0.08808977219498469,-0.1090138818651117]",100.0,"[-0.034376768750640246,-0.024495732802544926]",4.0,"[0.02,0.02]",144.728,0.0,4.0,4.0,102.0,1.0,,,,,,,
,,,,,,,66704327b46c7665de1190bc,68442939b5cbf0f2fa614b73,2025-06-07_12h59.19.287,shape_ratio,2024.1.5,Win32,60.0240096,684250e4f00cb30b92d1fa88,,,,,,,,,,,144.732,145.228,,,145.479,146.015,left,,,,,,,,0.4,,,,,,145.228,145.479,0.525,,146.015,"[0.14529467592621612,-0.05455236179869721]",4.0,"[-0.057628272599506356,-0.0585075305190539]",4.0,"[-0.01409864758665901,-0.19232433274554234]",4.0,"[-0.1202915432099523,0.0354807733166502]",4.0,"[-0.03868210986871777,0.09285718659120162]",4.0,"[0.012823106343891867,-0.03323619450924217]",4.0,"[-0.04259840641076914,-0.11478691859966723]",4.0,"[-0.1684248951919965,-0.07131882400494721]",4.0,"[0.07508105358621513,-0.026482447542798625]",100.0,"[0.09719946140507542,0.14509066444894844]",4.0,"[-0.04225091033658584,0.15165523470886064]",4.0,"[0.11969815123368109,0.017390442393726006]",100.0,"[0.003524668638933211,0.15619235145287927]",100.0,"[-0.015544323160768272,0.034808895525986455]",100.0,"[-0.020329309533751484,0.1980047774137617]",100.0,"[-0.1023809714416465,-0.12827052968669794]",4.0,"[0.11611643649296138,0.09172649679521966]",4.0,"[0.13590622751320286,0.054084392384304056]",4.0,"[-0.08941421808853157,0.17103908553872535]",4.0,"[0.0843508047511244,-0.17287031992368335]",4.0,"[-0.11583946719625436,-0.072647033746129]",100.0,"[-0.1003097665675133,0.12283455372987204]",4.0,"[0.02692783136139222,0.04739696692983503]",4.0,"[-0.09032662194713377,-0.026426124059729567]",4.0,"[-0.05290334044079912,0.012078881027160098]",100.0,"[-0.1390040052304571,0.13546302673072147]",100.0,"[0.14020471905688142,-0.11158949792791097]",100.0,"[0.05352059725884101,0.010045081995207358]",100.0,"[0.029955651688091903,-0.0957981660581718]",4.0,"[0.00012056715077948937,-0.12453244256185671]",100.0,"[0.19149765984137895,0.04405874376197747]",100.0,"[0.045846577979962236,0.16727608171129138]",100.0,"[0.02,0.02]",147.111,0.0,5.0,5.0,172.0,1.0,,,,,,,
,,,,,,,66704327b46c7665de1190bc,68442939b5cbf0f2fa614b73,2025-06-07_12h59.19.287,shape_ratio,2024.1.5,Win32,60.0240096,684250e4f00cb30b92d1fa88,,,,,,,,,,,147.112,147.611,,,147.862,148.784,left,,,,,,,,0.55,,,,,,147.611,147.862,0.905,0.006,148.784,"[-0.023488038043902624,0.14065810972979115]",100.0,"[0.10954979885022469,-0.0497783156578839]",4.0,"[-0.031726081360861684,0.020625458008618692]",100.0,"[0.1912690009892926,-0.04918777763636242]",4.0,"[0.1103545294098673,0.12215241910790142]",100.0,"[0.05182302347061409,0.046640446083194134]",4.0,"[-0.14564331089106078,-0.03754214300537097]",100.0,"[0.027913788523205068,-0.14868001652269336]",100.0,"[-0.045513860086034155,-0.10180555551241868]",4.0,"[0.17332162434716747,0.01594187286622945]",4.0,"[-0.019431975321041947,0.1846912584675701]",100.0,"[0.11768918283299615,0.077904184966752]",100.0,"[-0.1503277101105655,0.04506546604446012]",100.0,"[-0.1479510715880992,0.0991607210287706]",100.0,"[-0.07305609720535448,-0.1569811214914211]",4.0,"[-0.026764008491870068,0.06375648115822308]",4.0,"[0.1836992992090512,0.06349844956906231]",4.0,"[-0.11166032134622762,0.009003025531972427]",4.0,"[-0.06931695949048855,0.12191549629421274]",100.0,"[0.060870386413733386,0.13692207032026962]",100.0,"[0.026419738639732335,-0.045838113893149755]",4.0,"[0.1595951342634443,-0.11940248837242619]",4.0,"[-0.0037362792009212093,-0.01730815663162139]",100.0,"[0.067179461155721,-0.038582723218924427]",100.0,"[-0.1293886811680649,-0.13617477503410824]",100.0,"[0.023563934321278134,0.01430920642682885]",100.0,"[0.11468533870081125,-0.15623861305325834]",100.0,"[-0.015354869621814055,-0.1942121614480697]",4.0,"[-0.05416878871779102,-0.014924192716564977]",100.0,"[0.03159000879497602,0.18085608560888172]",4.0,"[0.1532429195333731,-0.020454007022525058]",100.0,"[-0.18203959055748672,-0.06633007441101399]",4.0,"[0.02,0.02]",149.878,0.0,6.0,6.0,63.0,1.0,,,,,,,
,,,,,,,66704327b46c7665de1190bc,68442939b5cbf0f2fa614b73,2025-06-07_12h59.19.287,shape_ratio,2024.1.5,Win32,60.0240096,684250e4f00cb30b92d1fa88,,,,,,,,,,,149.88,150.378,,,150.629,151.411,right,,,,,,,,0.45,,,,,,150.379,150.628,0.769,,151.411,"[-0.0038348985935078767,0.1784001252877995]",100.0,"[-0.14187901677579465,0.020594386180421823]",4.0,"[-0.18410795239803987,-0.07010408538162272]",100.0,"[-0.09865554496557254,-0.009811031241547906]",4.0,"[0.11500211512657992,-0.028934983027135687]",4.0,"[0.12117524910469489,0.1257921272509395]",100.0,"[0.034938297676376046,0.19436909249101916]",4.0,"[0.015479189353485048,0.138280374745513]",4.0,"[0.038174767107369244,-0.04849904349863635]",100.0,"[0.02757387053856144,-0.13544552888132264]",4.0,"[-0.08029530287511792,0.18227240825455676]",4.0,"[0.03534537081165575,-0.18532269142070523]",4.0,"[-0.017854568211864874,0.009379031998760634]",4.0,"[0.07591072534436595,0.1346244793748484]",4.0,"[-0.12017683802141407,-0.04871964775719385]",4.0,"[-0.13156339948780255,-0.14642791757794552]",100.0,"[0.062445217863093934,-0.0028458642652297865]",4.0,"[0.1720131047692121,0.06949883488153258]",4.0,"[0.031166011293647645,0.09979430927775314]",100.0,"[0.15996800993874857,-0.11458163031581674]",100.0,"[-0.014829332576749081,0.10793506348664728]",4.0,"[-0.02559657703194503,-0.0929030858415743]",100.0,"[-0.18025366511603955,-0.023043983140835618]",4.0,"[0.06856080511114003,0.07679053785961763]",4.0,"[-0.17779317103908454,0.06371288781621029]",100.0,"[-0.044967090253300215,-0.15721087500922834]",100.0,"[0.11702141116643082,0.08517892318389259]",4.0,"[0.16179594359044558,-0.06636784001284668]",100.0,"[0.06770081829759374,-0.14628005075302292]",4.0,"[0.19049731360699482,0.005044502591482031]",100.0,"[-0.16003771437874312,0.11777266960600943]",100.0,"[-0.05946866459354915,0.09896289314557412]",100.0,"[0.02,0.02]",152.511,0.0,7.0,7.0,123.0,1.0,,,,,,,
,,,,,,,66704327b46c7665de1190bc,68442939b5cbf0f2fa614b73,2025-06-07_12h59.19.287,shape_ratio,2024.1.5,Win32,60.0240096,684250e4f00cb30b92d1fa88,,,,,,,,,,,152.513,153.012,,,153.262,153.812,left,,,,,,,,0.6,,,,,,153.012,153.262,0.536,,153.812,"[-0.1832297192129894,-0.044511096988383424]",100.0,"[0.013001866410168036,0.09876269337815814]",100.0,"[0.12884002780906303,0.12448389027316178]",100.0,"[0.1530761997964048,-0.07960493325566574]",100.0,"[-0.09048767724830745,0.04091126317357352]",100.0,"[0.02434139197677816,-0.08509133530137945]",100.0,"[-0.1527798728277207,0.09215666218842387]",100.0,"[-0.018336332980008162,0.027886952020057972]",100.0,"[-0.17273065746561816,0.024170469717953873]",100.0,"[0.09751300747863,0.04775264686427092]",4.0,"[-0.13696570077076992,-0.09238739341987684]",4.0,"[0.0054475144111598706,-0.13819944087890224]",4.0,"[-0.05697309930591602,-0.11205878610116358]",100.0,"[0.0709527447292296,0.17083463226331685]",4.0,"[-0.04900498331423985,0.08004441806689687]",4.0,"[-0.1007330543462003,-0.0033512039509542148]",100.0,"[0.12342200444204696,-0.13032692519467842]",4.0,"[0.05423819891951388,0.02108709697591394]",100.0,"[0.047302671636641765,-0.1731395223147589]",100.0,"[-0.13339586626472064,-0.1466950955033497]",100.0,"[0.14060600824732042,0.06049590974789736]",100.0,"[-0.000014960122460510913,0.1650392981159149]",100.0,"[-0.09467036846859346,-0.07286734677647333]",100.0,"[0.07972277406067961,-0.03368272105381614]",100.0,"[0.1733534025144914,-0.007491115455722969]",4.0,"[-0.028406359314356373,-0.04450485282980979]",4.0,"[-0.03028221142552744,-0.16165109548140058]",100.0,"[-0.06322045815025489,0.135748670200408]",4.0,"[0.06105011337973145,0.06455549008687167]",4.0,"[0.1285095489455685,-0.016483382494781994]",4.0,"[0.08652448175386152,0.11887612293884851]",4.0,"[0.08893814622511777,-0.0753874658205052]",4.0,"[0.02,0.02]",154.911,0.0,8.0,8.0,32.0,1.0,,,,,,,
,,,,,,,66704327b46c7665de1190bc,68442939b5cbf0f2fa614b73,2025-06-07_12h59.19.287,shape_ratio,2024.1.5,Win32,60.0240096,684250e4f00cb30b92d1fa88,,,,,,,,,,,154.912,155.411,,,155.662,156.396,right,,,,,,,,0.5,,,,,,155.411,155.661,0.725,,156.396,"[0.03614986037218295,0.08711060955235253]",4.0,"[-0.11680209422811576,0.06078454917129615]",100.0,"[-0.14909913505735525,0.006981006224516345]",100.0,"[-0.18795159048038984,-0.02164823360096439]",100.0,"[-0.022533458654403156,0.0840723297488835]",4.0,"[0.0768819256594342,0.17029826310099988]",4.0,"[0.030449858373549157,-0.11543532688365032]",4.0,"[-0.08550125295924323,0.0014912444927118788]",100.0,"[0.07559053094068664,0.11538249281326093]",4.0,"[0.14068970211862158,0.055741653522481144]",100.0,"[0.11750597093874598,-0.04447398821157051]",100.0,"[-0.02421271645895515,0.17109687644056087]",100.0,"[-0.09935078165906254,0.1180372481274923]",4.0,"[-0.06895180935554335,-0.08816989623593742]",100.0,"[0.021842215301295913,-0.1570892281282638]",100.0,"[-0.07779880521234235,-0.16142406936964068]",4.0,"[-0.01352081691252202,-0.07587844605021023]",4.0,"[0.16755685792729488,-0.032891197999290585]",100.0,"[0.13943439521937967,0.011180918738081776]",4.0,"[0.11344915756839792,-0.14971827104604107]",100.0,"[-0.026315850051331767,0.04174562677811051]",4.0,"[0.010371162231956206,-0.012726562133256611]",4.0,"[0.07005402212859545,-0.019278093543951467]",4.0,"[-0.1479915564517129,0.08755288324510482]",4.0,"[0.12233272360048421,0.12083241308088438]",100.0,"[-0.13179018433925074,-0.07420831779101146]",4.0,"[0.07626695230668197,0.06801954025111735]",100.0,"[-0.15488863694566446,-0.12157693272238]",100.0,"[-0.030400534370237372,-0.02270104655286378]",4.0,"[-0.022090266758409045,-0.17481342230820768]",100.0,"[0.016094677165604112,0.19352556517178476]",4.0,"[-0.03177819988943571,-0.13373103603751427]",100.0,"[0.02,0.02]",157.498,0.0,9.0,9.0,92.0,1.0,,,,,,,
,,,,,,,66704327b46c7665de1190bc,68442939b5cbf0f2fa614b73,2025-06-07_12h59.19.287,shape_ratio,2024.1.5,Win32,60.0240096,684250e4f00cb30b92d1fa88,,,,,,,,,,,157.503,157.994,,,158.249,158.779,right,,,,,,,,0.1,,,,,,157.996,158.249,0.517,,158.779,"[0.10282106386142487,0.07748303734561822]",4.0,"[0.1004192657801843,0.1489546474322818]",4.0,"[0.10317752243209678,-0.14774984970096797]",4.0,"[-0.132682603374934,0.1468182245362513]",4.0,"[0.06800600390046081,-0.06830881228790855]",4.0,"[-0.13578592663532812,0.1022776609864763]",4.0,"[-0.031316396170964045,-0.10634044052832335]",4.0,"[0.0007306415456502447,0.15495862259838222]",4.0,"[-0.12359463626276984,-0.06663966661309965]",100.0,"[0.12097574338874012,-0.08238671266553986]",4.0,"[0.016204560576048282,-0.13638669976249448]",4.0,"[0.0688755140210119,0.006225703627955824]",100.0,"[-0.10348624979576007,-0.15666988991846767]",4.0,"[-0.08099921152888914,0.14275568907829195]",4.0,"[-0.07532874965906769,-0.026928218984766477]",4.0,"[0.17332291262787375,0.011396680772194587]",4.0,"[0.049470282900608564,0.12459026062703858]",4.0,"[-0.17733945914437016,0.03127596009543282]",4.0,"[-0.12130056019718538,-0.016256406335941997]",4.0,"[-0.005977394855031624,-0.06942151513957799]",4.0,"[-0.048560305260232826,0.09652050834692312]",4.0,"[-0.04388004505903102,-0.16790327103855118]",4.0,"[0.07879742224901073,-0.11197566939324442]",4.0,"[-0.09236813897184018,0.0668885016522018]",4.0,"[-0.05116317775110028,-0.05886588847909809]",4.0,"[-0.0296828773888775,-0.024575702373503594]",4.0,"[-0.011312243212862868,0.02914771892554401]",4.0,"[-0.002036349370297845,0.08236725505433834]",4.0,"[0.0597922670726715,-0.18881244454868984]",4.0,"[0.1461120386222306,0.05149542550148586]",100.0,"[-0.1690901158835694,-0.09609320833242438]",4.0,"[0.12746473091359836,-0.031225919535599677]",4.0,"[0.02,0.02]",159.878,0.0,10.0,10.0,180.0,1.0,,,,,,,
,,,,,,,66704327b46c7665de1190bc,68442939b5cbf0f2fa614b73,2025-06-07_12h59.19.287,shape_ratio,2024.1.5,Win32,60.0240096,684250e4f00cb30b92d1fa88,,,,,,,,,,,159.878,160.378,,,160.628,161.478,left,,,,,,,,0.55,,,,,,160.378,160.628,0.839,,161.479,"[0.09781314688909759,0.04180235157623877]",100.0,"[0.18581472737810148,-0.06601786997325673]",4.0,"[0.11527396668963844,-0.06257046997109954]",4.0,"[-0.011844764992198754,-0.052710805825316516]",4.0,"[0.05788062496812292,0.05979274998678833]",100.0,"[-0.10942902884177859,0.16244159922877477]",4.0,"[-0.007058527139701543,0.08378642522301043]",100.0,"[0.1578493807146315,-0.012572512216435384]",4.0,"[-0.1522607692358916,0.0331906195722204]",4.0,"[-0.14567090153614232,0.10284460790494947]",4.0,"[0.046578959247485535,-0.06561559297573437]",100.0,"[-0.04074537633504332,-0.013680929571085569]",4.0,"[-0.04951481106962753,0.13198406860170378]",4.0,"[-0.09729778914365958,0.0904419186021356]",4.0,"[-0.044179310807175756,0.18096548135198348]",100.0,"[0.07381515407001338,-0.11597550820109853]",100.0,"[-0.12975041538793652,-0.06257170390904679]",100.0,"[0.08458985611770622,-0.019623930530521024]",100.0,"[-0.10505736496466055,0.036858967733285834]",4.0,"[-0.0570988301790759,-0.1082648824271517]",100.0,"[0.020918270595992383,-0.007910788295369479]",100.0,"[0.1757674437414212,0.07224826243029552]",100.0,"[-0.016292643369785056,-0.10079757454119202]",100.0,"[-0.06362575572648689,-0.17707741269567623]",100.0,"[0.07441222299730281,0.10988238519490306]",100.0,"[-0.01649173352626459,0.031089469730490028]",4.0,"[-0.09244408663574108,-0.008672336961492144]",100.0,"[-0.058510742718220654,-0.06616852168769834]",100.0,"[-0.06201279868597072,0.06209927019066774]",4.0,"[0.0014794340532644815,0.14899375815152374]",4.0,"[-0.14238969658979023,-0.13282639212205505]",100.0,"[-0.185768893558528,0.0049948557270393865]",100.0,"[0.02,0.02]",162.578,0.0,11.0,11.0,68.0,1.0,,,,,,,
,,,,,,,66704327b46c7665de1190bc,68442939b5cbf0f2fa614b73,2025-06-07_12h59.19.287,shape_ratio,2024.1.5,Win32,60.0240096,684250e4f00cb30b92d1fa88,,,,,,,,,,,162.579,163.077,,,163.328,163.995,left,,,,,,,,0.45,,,,,,163.078,163.328,0.652,,163.995,"[0.15621889999565325,-0.020409991298360686]",4.0,"[0.1527063803590263,-0.07370840672163519]",4.0,"[-0.022193899557948087,0.15087408085000642]",100.0,"[-0.050841433942692874,-0.10081643257947766]",4.0,"[0.1293341823711214,0.023388264166319717]",4.0,"[0.05020414879922968,0.15275411784997137]",100.0,"[-0.08983895125431239,-0.1719187394260134]",4.0,"[0.10396948941003127,0.16947956287703914]",100.0,"[0.06520574751476794,-0.18443810266556834]",4.0,"[-0.13985389885527078,0.018503761804930827]",4.0,"[-0.11859282002529252,-0.08199788204317718]",4.0,"[0.027593126620647328,-0.09896105130040125]",4.0,"[-0.059942312236740895,-0.016803982559462086]",100.0,"[0.11756322750340571,-0.04135079159392647]",4.0,"[-0.02578229236599822,0.19646976562826832]",4.0,"[0.06629094748248478,-0.039705365767687135]",100.0,"[-0.172083149410232,0.08643322748921801]",100.0,"[-0.15894293267581344,-0.10889871067974752]",100.0,"[-0.1699034307740276,-0.04707929158971545]",100.0,"[0.019076101245730052,0.1872487751314741]",4.0,"[0.007381970010770437,-0.05496813324380729]",4.0,"[-0.018293166001920436,0.03081188835186115]",100.0,"[0.05297194445284528,-0.14356442298463018]",100.0,"[0.13526123725634268,0.10960701455102012]",4.0,"[-0.07284562392586803,0.14976837432603132]",100.0,"[-0.12523048531558262,0.10095653751587867]",100.0,"[0.025723990674155522,0.10805641523570109]",4.0,"[-0.004931855575444325,0.07212617813540775]",100.0,"[-0.10811451504098414,-0.02487082391948882]",4.0,"[-0.006329072918672939,-0.1909427376532009]",4.0,"[0.09133937741515481,0.0951811402791692]",4.0,"[0.1182644049670116,-0.1485246316471159]",100.0,"[0.02,0.02]",165.095,0.0,12.0,12.0,122.0,1.0,,,,,,,
,,,,,,,66704327b46c7665de1190bc,68442939b5cbf0f2fa614b73,2025-06-07_12h59.19.287,shape_ratio,2024.1.5,Win32,60.0240096,684250e4f00cb30b92d1fa88,,,,,,,,,,,165.096,165.594,,,165.846,166.345,right,,,,,,,,0.1,,,,,,165.595,165.846,0.484,,166.345,"[-0.10330795974611584,-0.12513835557026395]",4.0,"[0.002735968073264921,-0.12635426223586452]",4.0,"[0.03710619415319017,-0.025401981519057266]",4.0,"[0.10746645352855137,-0.084556910193374]",4.0,"[-0.14133536934596344,0.04947028661174392]",4.0,"[-0.12585350004283236,-0.028367396133993052]",4.0,"[-0.06482060859680526,0.1441327138900268]",100.0,"[-0.007163827839113634,-0.06761779337378]",4.0,"[-0.09912653252809592,0.015362861737097933]",4.0,"[-0.1577868468991094,0.09154680124431742]",4.0,"[0.18833024732964795,-0.014451670813295514]",4.0,"[-0.039274489906125094,-0.1280997476260913]",4.0,"[-0.020733390030296808,0.005578336984313108]",4.0,"[0.02849073433849256,0.13167697143729912]",4.0,"[0.07545696080500346,0.0156557216984206]",100.0,"[-0.10930759621729125,0.1613954578125851]",4.0,"[-0.004297946992907013,0.09961297138173492]",4.0,"[0.04382057501571068,-0.1024774665456497]",100.0,"[0.1512882182286032,-0.03667300915320373]",4.0,"[0.17131112820879985,0.04939200987251764]",4.0,"[0.1171388524881367,0.1373033115527454]",4.0,"[-0.10795186093833885,0.08170699469413671]",4.0,"[-0.06952618155311886,-0.052641472198927036]",4.0,"[0.14922016002367755,0.09686920632599064]",4.0,"[-0.0427253842240896,0.06041187029589465]",4.0,"[-0.19313091211634623,0.033407746782523395]",4.0,"[0.12509480005274537,-0.004000873409381132]",4.0,"[0.06391619820491204,0.06668873202106641]",4.0,"[0.050313184923327994,-0.15903553712531468]",4.0,"[-0.008071501487703588,0.16493937929338762]",4.0,"[-0.06945574550179612,0.09623374794888641]",4.0,"[-0.017247570927737346,-0.1904012200348914]",4.0,"[0.02,0.02]",167.445,0.0,13.0,13.0,204.0,1.0,,,,,,,
,,,,,,,66704327b46c7665de1190bc,68442939b5cbf0f2fa614b73,2025-06-07_12h59.19.287,shape_ratio,2024.1.5,Win32,60.0240096,684250e4f00cb30b92d1fa88,,,,,,,,,,,167.448,167.945,,,168.197,168.678,left,,,,,,,,0.4,,,,,,167.945,168.196,0.472,,168.678,"[-0.013739223310919943,0.15681972449852416]",4.0,"[0.13307808528496773,-0.012918144225286567]",100.0,"[-0.078145508077297,0.025106335384171903]",4.0,"[0.08992605254478603,-0.1516874916383548]",100.0,"[0.045492840111430274,-0.05711752404721243]",4.0,"[0.0949868928748521,0.08774643627715527]",4.0,"[-0.0006608699140219818,-0.049364336067224096]",4.0,"[-0.05781620807035539,-0.062127169315826805]",4.0,"[-0.16594390430815956,0.09834637458902633]",100.0,"[-0.1522030756240755,-0.11240994307574503]",4.0,"[-0.11994636324587574,0.08047293882839338]",100.0,"[-0.05933168954093849,0.18668298349909482]",100.0,"[0.04132365436674373,0.11001912483023651]",4.0,"[0.032814972213651955,0.06058251775062142]",4.0,"[-0.06164912511519607,0.08130072018556442]",4.0,"[-0.12730805583217714,0.12624679521706866]",4.0,"[-0.04865036148117895,-0.017964615941987595]",100.0,"[0.009598812753762726,-0.1536600313716408]",4.0,"[-0.11048020909906403,0.16546081633994375]",4.0,"[-0.1161784241344097,-0.026908163553775455]",4.0,"[-0.03971758815476068,-0.12194231812878031]",100.0,"[0.15036307470341448,0.05384130581471067]",4.0,"[0.0051314851810735996,-0.19348876570366452]",4.0,"[0.10842821248224531,0.1358482438689052]",100.0,"[0.02846942623416575,0.015293226809237222]",100.0,"[0.14827508368824469,0.11328095541803151]",100.0,"[0.09931639743661264,-0.07436226858086711]",4.0,"[-0.11718394230088712,-0.08209574890610886]",100.0,"[-0.16823281220291675,0.04893474377644092]",100.0,"[0.1472790997418971,-0.0897509812850373]",4.0,"[0.09264681346712315,-0.012760995712959957]",4.0,"[-0.18803045686444173,0.005509601285910129]",100.0,"[0.02,0.02]",169.778,0.0,14.0,14.0,161.0,1.0,,,,,,,
,,,,,,,66704327b46c7665de1190bc,68442939b5cbf0f2fa614b73,2025-06-07_12h59.19.287,shape_ratio,2024.1.5,Win32,60.0240096,684250e4f00cb30b92d1fa88,,,,,,,,,,,169.779,170.278,,,170.529,171.178,left,,,,,,,,0.45,,,,,,170.278,170.529,0.635,,171.178,"[0.1866584448872021,0.0560895453022244]",100.0,"[0.039594639419813456,0.10599677816862388]",4.0,"[0.10558277953408468,-0.10891701984547605]",4.0,"[-0.013242107907518777,0.13528681939176773]",4.0,"[0.01377565784918877,0.16663042950529575]",100.0,"[-0.10239323037802567,0.03916007700616325]",4.0,"[-0.016460662436658804,-0.14571951156158516]",4.0,"[-0.16114096580789944,-0.05205295124249625]",4.0,"[0.06808957991917731,-0.089873704911764]",100.0,"[-0.06758880739804002,0.0684474078593554]",100.0,"[-0.18788193587369223,0.01790343012635878]",100.0,"[-0.10546535128263879,-0.06674431860989591]",100.0,"[-0.07796961201104746,0.11500419525418189]",4.0,"[-0.033544271650116385,0.019621363334735895]",4.0,"[0.07632909703236139,-0.007181991861574339]",100.0,"[0.07674950346286778,0.05755857531401637]",100.0,"[-0.07781549791845133,-0.01683090039761697]",4.0,"[-0.03270797828020595,-0.07121268938707229]",100.0,"[-0.1368426373200695,-0.11326305280706528]",100.0,"[-0.19263891414977052,-0.02572867564694267]",4.0,"[-0.1397160327601399,0.12930387950233524]",4.0,"[-0.09028857932053969,0.1551102073146631]",4.0,"[0.10719894754139937,0.15010548273335728]",4.0,"[0.16563609535954832,-0.08866954471524358]",4.0,"[0.1980779797168219,-0.012774807370369031]",4.0,"[-0.14140753982630322,0.06726610145406847]",4.0,"[0.15009039237029864,0.13014913818648352]",100.0,"[0.028139347251923994,-0.16221417765269297]",4.0,"[-0.028594822527839226,0.08817529239557485]",100.0,"[0.12893410228839264,0.06089167604318716]",100.0,"[-0.053181172627948484,0.17339521450687959]",100.0,"[0.11120421451662212,-0.030768958264744486]",4.0,"[0.02,0.02]",172.278,0.0,15.0,15.0,121.0,1.0,,,,,,,
,,,,,,,66704327b46c7665de1190bc,68442939b5cbf0f2fa614b73,2025-06-07_12h59.19.287,shape_ratio,2024.1.5,Win32,60.0240096,684250e4f00cb30b92d1fa88,,,,,,,,,,,172.279,172.778,,,173.028,173.795,left,,,,,,,,0.55,,,,,,172.778,173.028,0.75,,173.795,"[0.030566269588122877,-0.021490686468615794]",100.0,"[-0.12813534411023006,-0.1522248498621422]",100.0,"[0.09563341537304361,0.1726585469848873]",4.0,"[-0.1823170096795729,-0.023063292168921758]",100.0,"[-0.09248966175583903,-0.050878962632430746]",100.0,"[0.13937696067787436,0.06682651014621095]",100.0,"[-0.15812972183808516,-0.05917583833142838]",4.0,"[0.041653871864494894,0.16172460640028197]",4.0,"[0.09844820263558086,-0.17107833270147127]",4.0,"[-0.07831376153320664,0.12123561635052642]",100.0,"[0.10485395156867185,-0.02662871115753073]",100.0,"[0.13609375788533035,0.0002271077305345594]",4.0,"[0.02648438727836152,-0.11508389367944268]",100.0,"[-0.062693353044527,0.014624436322549624]",100.0,"[0.061319349513087665,0.045503972141842944]",4.0,"[0.09355954626437532,0.0695552197016132]",4.0,"[0.19118225185298712,-0.022250256680287035]",4.0,"[-0.018162882656996348,0.12671592309086224]",100.0,"[0.0015077782579525567,-0.07648903414021868]",4.0,"[0.05332201586248121,0.10901042146653513]",4.0,"[0.07419436479546135,-0.06993174404389467]",100.0,"[0.09596891032348119,-0.12692760341153814]",100.0,"[0.16022958094713968,-0.05749239746491507]",100.0,"[0.0095324729991755,-0.15434429218604104]",4.0,"[-0.0170038642184721,0.197983717297123]",100.0,"[-0.07525698405892398,0.17741035387184403]",100.0,"[-0.09879927873236824,-0.11814259817884859]",4.0,"[0.12913985224801489,-0.0966472887105859]",4.0,"[-0.13557795800153571,0.07171254239121552]",4.0,"[0.01948281664965845,0.041018342072070293]",100.0,"[-0.05564358090575565,0.05993714586113303]",100.0,"[-0.11370943766420925,0.02196614438732684]",100.0,"[0.02,0.02]",174.895,0.0,16.0,16.0,62.0,1.0,,,,,,,
,,,,,,,66704327b46c7665de1190bc,68442939b5cbf0f2fa614b73,2025-06-07_12h59.19.287,shape_ratio,2024.1.5,Win32,60.0240096,684250e4f00cb30b92d1fa88,,,,,,,,,,,174.897,175.394,,,175.647,176.678,right,,,,,,,,0.4,,,,,,175.395,175.646,1.016,,176.678,"[0.09599028068736222,-0.08033935781869095]",4.0,"[0.18947443274886172,0.018544086627496015]",4.0,"[-0.0691774409790619,0.10513010698281623]",4.0,"[-0.016462913892382997,0.1328326025156692]",100.0,"[0.02998805608366622,-0.10956149203519586]",4.0,"[0.15104892071068357,-0.01655252268795497]",100.0,"[-0.108139402710947,0.007291118529343543]",4.0,"[-0.08061237573024983,-0.15397224584954733]",100.0,"[0.14408457182238843,0.11370203630886275]",100.0,"[0.06329632256355158,0.02074010817506457]",4.0,"[0.02535075023235039,0.04270866547654458]",100.0,"[-0.05911786117646988,-0.07950646980134869]",100.0,"[-0.0021703614252757734,-0.1818862316247804]",4.0,"[0.007813089988322927,-0.050660940709656224]",4.0,"[-0.06941117326227796,0.0464214810728835]",4.0,"[0.1294049068290569,-0.05109592296661841]",4.0,"[-0.15205721574836653,-0.12142105497975178]",4.0,"[0.10363257954226876,0.15631964791038339]",4.0,"[0.05164617892064474,-0.046129898500711]",100.0,"[0.05208391575909149,-0.19171977485557495]",100.0,"[0.0690703410873777,0.08638041631886237]",100.0,"[-0.13153866755432603,0.05867223144259917]",100.0,"[0.09510329228708347,-0.13280478884459657]",100.0,"[-0.15375008489537628,-0.06660058624970777]",4.0,"[0.009718408330493125,0.17251521277409632]",4.0,"[0.10624845620505326,0.03873568168729244]",4.0,"[0.008167510941993675,0.09869800967405301]",100.0,"[0.14338460189458885,-0.10447567508952703]",4.0,"[-0.031072592001281013,-0.011380796837986932]",100.0,"[-0.1832489617638975,-0.01994572013538552]",4.0,"[0.04494695087351943,0.12195762636457028]",4.0,"[-0.033714337569289765,-0.1569625780887442]",4.0,"[0.02,0.02]",177.778,0.0,17.0,17.0,158.0,1.0,,,,,,,
,,,,,,,66704327b46c7665de1190bc,68442939b5cbf0f2fa614b73,2025-06-07_12h59.19.287,shape_ratio,2024.1.5,Win32,60.0240096,684250e4f00cb30b92d1fa88,,,,,,,,,,,177.779,178.278,,,178.528,179.061,right,,,,,,,,0.4,,,,,,178.278,178.528,0.519,,179.061,"[0.029330554809470687,-0.1558133356394176]",4.0,"[-0.042226960164903925,-0.015109040638541366]",4.0,"[0.07424035409074832,0.12155232415113944]",100.0,"[-0.13369927636724638,0.016375908776513164]",4.0,"[-0.12105724567347403,-0.15667034581669106]",100.0,"[0.04818476260371606,0.17157906040842855]",100.0,"[-0.08586953321726416,-0.08181593298019277]",4.0,"[0.1629200858817765,-0.10884017105242504]",4.0,"[0.0784709144897351,0.017456265540212415]",4.0,"[0.08218767204064004,-0.024268209783819963]",100.0,"[-0.18647814489699024,-0.001983024816970098]",4.0,"[-0.11932142718527493,0.14942901816436277]",4.0,"[-0.05611690922041294,0.046411484974964994]",100.0,"[-0.10729402381195262,-0.027343866465799168]",100.0,"[-0.03342657496923309,-0.13316842219738204]",4.0,"[0.12284652803651806,0.06752500659361978]",4.0,"[0.022368746044383526,-0.04296266543503881]",100.0,"[-0.0054221764846646295,-0.07274578783679188]",4.0,"[0.008341665272923453,0.13352680120898824]",4.0,"[-0.06507512088959895,0.09716537439934268]",4.0,"[-0.057785058685279486,-0.1849036960524081]",4.0,"[-0.03474287328285439,0.13900173193739018]",100.0,"[0.15046782087749425,-0.023325664949697424]",4.0,"[0.04370121835854658,0.06538291669400717]",4.0,"[-0.04550224695173692,-0.08547941673799112]",100.0,"[0.0021985044980212137,0.17501025928821307]",4.0,"[-0.18452851425879174,0.07474838769701204]",100.0,"[0.1161946707887172,-0.048737516185201876]",100.0,"[-0.02397390519661772,0.08609109384783421]",4.0,"[0.09967706996442474,0.15822777286991563]",100.0,"[0.07628861202810172,-0.1292371632892073]",4.0,"[-0.16874857003905988,-0.0499204578471224]",100.0,"[0.02,0.02]",180.161,0.0,18.0,18.0,150.0,1.0,,,,,,,
,,,,,,,66704327b46c7665de1190bc,68442939b5cbf0f2fa614b73,2025-06-07_12h59.19.287,shape_ratio,2024.1.5,Win32,60.0240096,684250e4f00cb30b92d1fa88,,,,,,,,,,,180.163,180.661,,,180.911,182.262,left,,,,,,,,0.45,,,,,,180.662,180.911,1.337,0.0,182.262,"[-0.031814802254671225,0.04778977060898585]",4.0,"[-0.19461294712170327,0.026242781866809006]",100.0,"[-0.17438604189711557,-0.06467806900922052]",4.0,"[0.04813997224308001,0.14374867745047895]",100.0,"[-0.08394904048858465,-0.1616312148020818]",4.0,"[-0.0693903595501869,-0.06948282346803583]",4.0,"[-0.07428070993270786,0.17303796613687158]",100.0,"[-0.03705833866391511,-0.12412344707585475]",4.0,"[0.055202355902814845,-0.04159625947187632]",4.0,"[-0.1293684972620934,0.14001024893487587]",4.0,"[0.032203263421660126,0.09773697971160661]",4.0,"[0.016720858771349045,-0.08138575523717301]",4.0,"[-0.06497129519125937,0.12753980983585522]",4.0,"[-0.15100206505806033,0.004604530593247392]",100.0,"[-0.13978083166727426,0.04746622008643184]",4.0,"[0.0031729131773471316,0.1740327855428609]",100.0,"[0.11997531772545408,0.14294298317905985]",4.0,"[-0.048122075308440856,-0.012052310846160097]",100.0,"[-0.16241040143556099,-0.1141832182728355]",4.0,"[0.048733690915475476,-0.19183350431828936]",100.0,"[0.18660095799446652,0.007606296250719631]",100.0,"[-0.07952747402268782,0.08614313830902877]",4.0,"[0.10076348783005203,-0.1696053922662727]",4.0,"[0.019917937955751256,0.0571892154624275]",4.0,"[-0.03845375454576793,0.19580300754180033]",100.0,"[0.06828272851001917,-0.13541558143856655]",100.0,"[0.06845412048520422,0.18396426021234275]",100.0,"[0.13837634736409601,-0.13487697595977324]",4.0,"[0.08069839932362999,0.050543176768916086]",100.0,"[-0.12367422772853688,-0.14020581222939577]",100.0,"[0.047686099602074136,-0.002257064577569047]",100.0,"[0.07230860617388217,0.09952950495719996]",4.0,"[0.02,0.02]",183.361,0.0,19.0,19.0,137.0,1.0,,,,,,,
,,,,,,,66704327b46c7665de1190bc,68442939b5cbf0f2fa614b73,2025-06-07_12h59.19.287,shape_ratio,2024.1.5,Win32,60.0240096,684250e4f00cb30b92d1fa88,,,,,,,,,,,183.362,183.862,,,184.111,184.995,left,,,,,,,,0.4,,,,,,183.862,184.111,0.873,,184.995,"[-0.019561395069203343,-0.06296831252466897]",100.0,"[0.04628639025345675,0.0710469244941921]",4.0,"[-0.0854670209211442,0.07936194001478025]",100.0,"[0.0025539736479577597,0.031614697727229725]",100.0,"[-0.12808257344629487,-0.059938400052421466]",100.0,"[-0.08962313160054959,-0.04779874738850399]",100.0,"[0.19626163070471825,0.037588412351988246]",4.0,"[-0.02055979217566235,-0.011466849025252735]",100.0,"[0.09235527965676969,0.07218650991482502]",100.0,"[0.06318763141372628,-0.0964833064980435]",4.0,"[0.10223672092929031,0.01896417422426491]",4.0,"[0.1162084596966169,-0.13708288824992595]",4.0,"[0.06342332578974183,-0.1602225091444968]",100.0,"[-0.12502072894260646,0.02369054871135943]",4.0,"[0.11879793544891264,-0.05526439669590303]",100.0,"[0.10363861893723628,0.16353546567606184]",100.0,"[-0.04791324121220476,0.03479389300974951]",4.0,"[0.0028552525519423355,-0.14328515773602937]",100.0,"[-0.09546899881247167,-0.10816879936149985]",4.0,"[0.03187986550354431,0.0035003870572820617]",4.0,"[0.06740602664916627,0.10804574124868241]",4.0,"[0.0031600305533834353,0.17094898756348473]",4.0,"[0.18550793236562965,-0.01773693559451405]",100.0,"[-0.14410688521712442,0.06137663150687354]",4.0,"[0.1548396735658112,0.07685131236466756]",4.0,"[-0.16136046324054018,-0.029124177632895997]",4.0,"[-0.19790943107512762,0.002951281823762668]",4.0,"[-0.041383219016897566,-0.19273658792806972]",4.0,"[0.019384959036182342,-0.08716314457464121]",4.0,"[-0.06732611368566062,0.14941598710436998]",4.0,"[0.14558275007794608,0.13175823750073576]",4.0,"[-0.03713526372509133,-0.12217435803423378]",100.0,"[0.02,0.02]",186.094,0.0,20.0,20.0,155.0,1.0,,,,,,,
,,,,,,,66704327b46c7665de1190bc,68442939b5cbf0f2fa614b73,2025-06-07_12h59.19.287,shape_ratio,2024.1.5,Win32,60.0240096,684250e4f00cb30b92d1fa88,,,,,,,,,,,186.095,186.595,,,186.845,187.395,left,,,,,,,,0.9,,,,,,186.595,186.845,0.536,,187.395,"[0.1040321838001709,-0.06938964644426536]",100.0,"[-0.06285176970920497,-0.13334733420003653]",100.0,"[0.16306862942436545,0.10028961034091978]",100.0,"[0.03924671424228724,-0.027358347151360787]",4.0,"[-0.0007731401995043963,-0.040789371966476695]",100.0,"[-0.005045441086546121,-0.12567757451665923]",100.0,"[0.012130815974014662,0.1616947238419654]",100.0,"[-0.01986522634520306,0.03759587341054405]",100.0,"[-0.13257328345380262,-0.14760674166503668]",100.0,"[0.18416909098434128,-0.054127370637988864]",100.0,"[0.014822369268497892,-0.1719196603164249]",100.0,"[0.07539107388232429,0.16703344535064954]",100.0,"[0.07818633918949895,0.0061662798831889935]",100.0,"[0.08485651433186589,0.08417338399392574]",100.0,"[-0.15634614135811295,0.07542855514825828]",100.0,"[0.023350232080155627,0.06722711712399278]",4.0,"[0.0782868279633158,-0.11589476514241952]",100.0,"[0.1274858936625618,-0.13155198861311604]",100.0,"[-0.02875988089801839,0.1952697914162018]",100.0,"[-0.1701589288492067,-0.03699472606879855]",100.0,"[-0.05335294438195148,-0.06034789442922632]",100.0,"[0.1376493112698227,0.06209618439357417]",100.0,"[-0.1307682429477261,-0.09035580544249464]",100.0,"[-0.08495466218217544,0.0033643234646129998]",100.0,"[-0.03901938374392275,-0.16955981112016583]",100.0,"[0.0783512113879298,-0.18364795281089427]",100.0,"[-0.08223881336536566,0.1348035829025548]",100.0,"[0.17975143416577127,0.036204889086251316]",100.0,"[-0.1453593518405848,0.1280782921570475]",100.0,"[0.022090253572370232,0.00905593900466968]",4.0,"[0.1789793679079025,-0.009234058727434137]",100.0,"[-0.12472797718902809,0.041564680948169064]",100.0,"[0.02,0.02]",188.499,0.0,21.0,21.0,8.0,1.0,,,,,,,
,,,,,,,66704327b46c7665de1190bc,68442939b5cbf0f2fa614b73,2025-06-07_12h59.19.287,shape_ratio,2024.1.5,Win32,60.0240096,684250e4f00cb30b92d1fa88,,,,,,,,,,,188.503,188.995,,,189.246,189.829,right,,,,,,,,0.45,,,,,,188.996,189.246,0.564,,189.829,"[-0.14887213704465235,-0.05755795921827618]",4.0,"[-0.0037539056806843753,-0.07021710654514925]",4.0,"[-0.07686927801027457,-0.13751749821508658]",4.0,"[0.09243445267793791,-0.11975823780805325]",100.0,"[-0.08016670345017228,-0.011118106950224447]",100.0,"[0.03275167781969328,0.19643464506962396]",100.0,"[0.060242919416570534,-0.046040562601106894]",4.0,"[0.1640515319289513,-0.09322000658087225]",100.0,"[-0.02771589952046545,-0.025156129020345763]",4.0,"[-0.047274955097619385,0.166298218557373]",100.0,"[-0.10045281483386131,0.05939446255948561]",100.0,"[-0.1578536884532549,0.08753429397121096]",100.0,"[0.056146268238456636,0.06879077675762628]",4.0,"[0.03857826753703632,0.12249104077776528]",100.0,"[-0.06651062032142314,-0.07354524332120048]",4.0,"[0.1129347744439124,-0.16064909300958072]",4.0,"[-0.03302411890379436,-0.15617133052990737]",4.0,"[0.12687717810139146,0.08723273502550989]",4.0,"[-0.14892161697039202,-0.12213088285164073]",100.0,"[-0.1755584934628796,0.04424676679010047]",100.0,"[0.08348639554158509,0.010207576249185387]",100.0,"[-0.016262775724541413,0.12215843256526877]",100.0,"[0.16286880498806883,0.012184363233373286]",4.0,"[-0.0946709446196358,0.15018511809340337]",4.0,"[-0.000405762368507558,0.03625974319754905]",4.0,"[0.04207048474722054,-0.12629843043845065]",4.0,"[0.17882470093134845,-0.039246044384863225]",4.0,"[-0.019324556440012956,0.19569389304686072]",100.0,"[0.11588894636939469,0.14576740645128652]",4.0,"[-0.18783046074646975,-0.023487824657111304]",4.0,"[0.04231631473387832,-0.004899466470038007]",4.0,"[0.13066813243432623,-0.0326389336990461]",100.0,"[0.02,0.02]",190.928,0.0,22.0,22.0,148.0,1.0,,,,,,,
,,,,,,,66704327b46c7665de1190bc,68442939b5cbf0f2fa614b73,2025-06-07_12h59.19.287,shape_ratio,2024.1.5,Win32,60.0240096,684250e4f00cb30b92d1fa88,,,,,,,,,,,190.928,191.428,,,191.678,192.228,right,,,,,,,,0.5,,,,,,191.428,191.678,0.537,,192.228,"[0.1292028830628991,-0.12420843349269814]",100.0,"[-0.15907726754425497,0.11835986502712095]",100.0,"[0.0341016670495648,0.19095140087344825]",4.0,"[0.08301193279989302,-0.10308113367223301]",4.0,"[0.09305022112102043,-0.16450153212729746]",100.0,"[0.0014083111230724196,0.07916204471543327]",4.0,"[0.10000274059942711,0.018259747282294653]",4.0,"[0.15277171690614766,0.11794387856304062]",4.0,"[0.1927492753758212,0.029006634616125716]",4.0,"[0.011467851354361689,-0.07288703347124581]",100.0,"[0.14703275060874135,-0.01660145367318462]",100.0,"[0.17165034762355505,-0.09049559759874794]",100.0,"[0.07705208743711278,0.052512458753171]",4.0,"[-0.19532612966178825,-0.007878397074579949]",4.0,"[-0.062431974138810596,-0.03996089370880203]",100.0,"[-0.05668544076943433,-0.16997722097064671]",100.0,"[-0.11891956650182373,-0.03215046958919971]",100.0,"[-0.03493380768510751,-0.010540840061269144]",100.0,"[0.09038179807264181,0.13394569981802387]",4.0,"[0.006715397535043319,0.1569759009290589]",100.0,"[-0.08985407271760713,0.06259049651552225]",4.0,"[0.008754008455579526,-0.1397109339703059]",4.0,"[0.06416323139331019,-0.029818316705166013]",4.0,"[0.14378606197451255,0.0312902960811611]",4.0,"[-0.06083206561081432,-0.1131772778984578]",4.0,"[-0.10159049032840686,0.14082908931383478]",100.0,"[-0.11662696479504639,-0.08377439780682391]",100.0,"[-0.0740014499917558,0.01731275216006162]",100.0,"[-0.1466246203438074,0.05541122441886275]",100.0,"[-0.17808746679032375,-0.07180884049017505]",100.0,"[-0.06636423557190652,0.17550064459951334]",4.0,"[-0.10294135414228538,-0.16332536750177154]",4.0,"[0.02,0.02]",193.328,0.0,23.0,23.0,114.0,1.0,,,,,,,
,,,,,,,66704327b46c7665de1190bc,68442939b5cbf0f2fa614b73,2025-06-07_12h59.19.287,shape_ratio,2024.1.5,Win32,60.0240096,684250e4f00cb30b92d1fa88,,,,,,,,,,,193.328,193.827,,,194.078,194.611,left,,,,,,,,0.6,,,,,,193.827,194.078,0.519,,194.611,"[0.11996106480783104,-0.102685201199925]",100.0,"[-0.027241232285535103,0.1256209545877068]",4.0,"[0.08777233013558713,0.02847116281181296]",100.0,"[-0.04434409521290501,0.03919750156344809]",4.0,"[-0.026237144817274335,-0.15566065882421057]",4.0,"[0.12740249945783816,0.05940188298422994]",4.0,"[0.015504493609912958,0.013588103573676794]",100.0,"[-0.13014874234853524,-0.04984705528450278]",4.0,"[-0.10231210219101376,0.13871615059083042]",100.0,"[0.034652603058743264,-0.03141659544678455]",4.0,"[-0.17470775461383725,-0.03859982519704688]",100.0,"[0.002510343445534415,0.08417049109565135]",100.0,"[-0.07347336652695073,-0.13722477833266658]",4.0,"[-0.08071909033578879,0.008045441309907727]",100.0,"[-0.02710271402598333,-0.08517146879013164]",100.0,"[-0.03264791382655918,-0.02163732563139239]",100.0,"[0.1548218843623998,-0.050536596564800675]",100.0,"[-0.07816825625006903,-0.057654928728318205]",100.0,"[0.13983515715690695,-0.14295376300940857]",4.0,"[0.12655739163396568,0.11917207914086358]",4.0,"[0.10106645711843998,-0.02046163760522029]",100.0,"[0.16576542851093345,0.0995225358659611]",100.0,"[0.04243497106074656,-0.17948859638137857]",100.0,"[-0.10743840663075609,0.05406737604958102]",100.0,"[-0.12254421057663681,-0.11378889625987912]",100.0,"[0.04272768360802173,-0.09269181218453813]",100.0,"[0.0668101015692152,0.12192863434696012]",100.0,"[-0.12928297234321684,0.09554248453804275]",4.0,"[0.04845778965575839,0.08547410478427576]",4.0,"[0.19450639298884123,-0.01616513740174266]",4.0,"[0.015100158486528233,0.19627855318421725]",100.0,"[0.1652538218975235,0.02820482845505041]",4.0,"[0.02,0.02]",195.719,0.0,24.0,24.0,47.0,1.0,,,,,,,
,,,,,,,66704327b46c7665de1190bc,68442939b5cbf0f2fa614b73,2025-06-07_12h59.19.287,shape_ratio,2024.1.5,Win32,60.0240096,684250e4f00cb30b92d1fa88,,,,,,,,,,,195.72,196.211,,,196.462,196.977,left,,,,,,,,0.45,,,,,,196.211,196.462,0.501,,196.978,"[-0.039884248192504086,0.15563003324139027]",100.0,"[-0.07346731270290031,-0.16228598791311358]",4.0,"[0.043998686759725195,0.07961549779733226]",4.0,"[-0.17517865043244404,0.0006506750148240102]",100.0,"[-0.051282383243673735,-0.08872125459715534]",4.0,"[0.13981486439435561,-0.055776562541557564]",4.0,"[-0.18023203314234484,0.05512944438647416]",100.0,"[0.15798197909981873,-0.09710258266251393]",4.0,"[-0.07021586648825294,0.03353673406742901]",100.0,"[0.18983632871091355,-0.04902397665027371]",4.0,"[0.12324836231186344,0.13423951908863424]",4.0,"[0.07889384279972533,-0.08478217739257471]",100.0,"[-0.0995134406340755,0.1164064330160564]",100.0,"[-0.09243435449761796,-0.10144535764478295]",100.0,"[0.16575915792364768,0.0009897675321066885]",100.0,"[0.01849967292310173,0.12001380500734674]",4.0,"[0.05738931812062805,0.030162168559689416]",100.0,"[-0.16043313362777195,-0.06544148567797715]",100.0,"[0.005400385903054066,0.04020165814834828]",100.0,"[0.02320805763669675,-0.1287564256438499]",4.0,"[0.11103040166704786,0.04827745872719]",4.0,"[-0.03626908729931414,-0.04295179213441392]",4.0,"[0.08808211438356993,-0.033468220509699706]",4.0,"[-0.025272075514445345,0.07572000656220043]",4.0,"[-0.14640283948548669,0.07790115861848661]",100.0,"[-0.09590241388377635,-0.03648489743089]",100.0,"[-0.112731254503434,0.16283645962916085]",4.0,"[0.019211771211895688,0.17653623475884428]",4.0,"[-0.14041687715169035,-0.020296067718917912]",4.0,"[-0.012138170268231356,-0.18127811678916758]",100.0,"[0.17296824877742267,0.07293649798640774]",4.0,"[0.06890665503818015,-0.18681581717642765]",4.0,"[0.02,0.02]",198.077,0.0,25.0,25.0,125.0,1.0,,,,,,,
,,,,,,,66704327b46c7665de1190bc,68442939b5cbf0f2fa614b73,2025-06-07_12h59.19.287,shape_ratio,2024.1.5,Win32,60.0240096,684250e4f00cb30b92d1fa88,,,,,,,,,,,198.079,198.577,,,198.829,199.411,left,,,,,,,,0.4,,,,,,198.577,198.829,0.568,,199.411,"[0.04873263708153443,0.06779382525965803]",4.0,"[0.01843505715032487,-0.04472954241849393]",4.0,"[-0.10924215076039998,-0.04291830888003915]",4.0,"[-0.09654276384000922,0.16308167840467722]",100.0,"[0.049172196838573524,0.1377200627721055]",4.0,"[0.07220720571694264,-0.17425739664485865]",4.0,"[-0.08665807239820487,0.10561262079940338]",4.0,"[-0.03823245308151186,0.11924352705962864]",100.0,"[-0.1380342317456192,0.0528576928143965]",4.0,"[-0.02134376256266644,0.04962591300780563]",100.0,"[0.17864971537154256,-0.08618980657510497]",4.0,"[0.08708582252355322,-0.00485434189662607]",100.0,"[0.020248269795606153,-0.12179619673954026]",4.0,"[-0.08807194677311452,0.015021484522669517]",100.0,"[0.13416627673553888,-0.14421023959480123]",100.0,"[-0.010045910899753548,0.18867014213314967]",4.0,"[-0.04312257758113826,-0.13059055882335077]",100.0,"[-0.01435939511033786,-0.16321912811966888]",4.0,"[0.1318886336436467,0.035938566295647616]",100.0,"[-0.11456234171561976,-0.1449659926234126]",4.0,"[-0.11372728198597734,-0.08546828894999607]",4.0,"[0.08927461086720694,0.03645105669482278]",4.0,"[-0.15236883856849534,-0.02117779732341836]",4.0,"[0.1296742900001043,0.12897379370008125]",100.0,"[-0.0018938532295512717,-0.0864098684112852]",100.0,"[0.12257058123782397,-0.1012570001888626]",4.0,"[-0.1887833267382058,0.00007391543325850511]",100.0,"[-0.15179161409017083,-0.06893099544375897]",4.0,"[0.048312306310738434,-0.0771262533292017]",4.0,"[0.08315522615955258,0.08895859349643497]",4.0,"[-0.07005964348814275,-0.18180398604983056]",100.0,"[0.025807343514545413,0.02407799980032777]",100.0,"[0.02,0.02]",200.511,0.0,26.0,26.0,176.0,1.0,,,,,,,
,,,,,,,66704327b46c7665de1190bc,68442939b5cbf0f2fa614b73,2025-06-07_12h59.19.287,shape_ratio,2024.1.5,Win32,60.0240096,684250e4f00cb30b92d1fa88,,,,,,,,,,,200.512,201.011,,,201.261,202.228,left,,,,,,,,0.45,,,,,,201.011,201.261,0.952,,202.228,"[0.11969471503535296,-0.0449171461718808]",4.0,"[-0.11147066658528582,-0.0236452720663043]",100.0,"[0.008761811898205954,0.19010601203072336]",100.0,"[-0.06253645226044664,-0.10764596584739337]",100.0,"[0.11061121415524677,0.01937631139596471]",100.0,"[-0.13662925162685793,0.11533423523168057]",100.0,"[-0.16701203982611826,0.005698943914062103]",100.0,"[0.19852449276905407,0.020352186988362372]",4.0,"[0.07939819656919818,0.1244265631940715]",4.0,"[-0.0012902586640927262,0.051036114718467765]",100.0,"[0.029642230389083313,0.01747398667527048]",100.0,"[-0.0652541711423781,0.13304069548543723]",4.0,"[-0.020183334419302083,-0.14975813761482948]",4.0,"[0.10595018936177378,-0.11123174764822333]",4.0,"[-0.058532248695366204,0.04763720330083112]",100.0,"[-0.05557080685963679,-0.004616936706458244]",4.0,"[-0.11365015389087532,-0.12620555631607916]",4.0,"[0.0608385929378305,0.062230877768676945]",4.0,"[0.07561952228240836,-0.07925065025300733]",4.0,"[0.05042485529290841,-0.14115498315697572]",4.0,"[-0.03480960585510032,-0.060545157706382254]",4.0,"[0.14246950308755194,0.08377048923219128]",4.0,"[0.08911725462865484,-0.17707512893654082]",4.0,"[0.14097111699581064,-0.08136910147885404]",4.0,"[0.1644255146592968,-0.01963994794366652]",100.0,"[0.03964890500783901,-0.03214371991804869]",4.0,"[-0.08727849757053964,-0.1746017452283871]",100.0,"[-0.1705497755920885,-0.10007786361218812]",4.0,"[0.12797306426346852,0.14342951698779494]",100.0,"[0.07782186425462927,-0.006319761038749836]",100.0,"[-0.0042821699462234,0.1492802688584134]",100.0,"[0.04884362031525414,0.19209475607334187]",4.0,"[0.02,0.02]",203.328,0.0,27.0,27.0,133.0,1.0,,,,,,,
,,,,,,,66704327b46c7665de1190bc,68442939b5cbf0f2fa614b73,2025-06-07_12h59.19.287,shape_ratio,2024.1.5,Win32,60.0240096,684250e4f00cb30b92d1fa88,,,,,,,,,,,203.329,203.828,,,204.078,204.744,right,,,,,,,,0.4,,,,,,203.828,204.078,0.654,,204.744,"[0.11556290404901126,0.08860689530208751]",100.0,"[-0.02834109734459515,0.03874993556727698]",4.0,"[-0.08625263521726188,0.1433739806386115]",4.0,"[-0.02172878655765268,-0.1528927994291999]",4.0,"[-0.12227595112154711,0.06930580218162138]",100.0,"[-0.10649505253415348,0.0197556754234632]",4.0,"[-0.1203732247656195,-0.14317204282353238]",4.0,"[0.01764877557223948,-0.13272740305324657]",4.0,"[0.09293450939961867,-0.03099462184297723]",4.0,"[-0.0020814210885437634,0.0994696969673434]",100.0,"[0.13477469404049483,-0.14697436368025485]",100.0,"[0.06197977130332413,0.1500321185829239]",100.0,"[-0.15490569081828573,-0.05714919935775254]",100.0,"[0.08283829114911954,-0.07569681380587706]",4.0,"[0.15223386736573577,0.1112900557803229]",100.0,"[0.03169478416026425,0.04411777347839529]",4.0,"[-0.11606632546211902,-0.027695159759127924]",4.0,"[0.18783565257312296,0.05275508792316863]",100.0,"[0.03617359451714066,-0.009259369451913142]",100.0,"[-0.042384832897208895,0.12507813460910164]",100.0,"[-0.005025412593026316,-0.010225023049273177]",100.0,"[-0.12577128207411517,0.12099505047188665]",4.0,"[0.10082205832013207,0.13229689328800218]",4.0,"[0.09554787091425172,0.043368788221541006]",4.0,"[0.15589405132954526,-0.013515385583058653]",4.0,"[-0.09544783956519694,-0.09517678828065522]",4.0,"[-0.18374698021993002,0.06205200643347047]",100.0,"[0.09448716669531461,-0.16714264417780433]",4.0,"[-0.05890658437365973,0.07483894428316293]",4.0,"[-0.08333318119367424,-0.17817915500028897]",100.0,"[-0.19264381113957021,0.01355961753630009]",4.0,"[-0.013584081724396962,-0.050658289777572224]",4.0,"[0.02,0.02]",205.844,0.0,28.0,28.0,169.0,1.0,,,,,,,
,,,,,,,66704327b46c7665de1190bc,68442939b5cbf0f2fa614b73,2025-06-07_12h59.19.287,shape_ratio,2024.1.5,Win32,60.0240096,684250e4f00cb30b92d1fa88,,,,,,,,,,,205.847,206.344,,,206.596,207.211,right,,,,,,,,0.5,,,,,,206.344,206.596,0.602,,207.211,"[0.14965563298195028,-0.015958904104321374]",100.0,"[0.09927760620729241,0.12218357253334257]",100.0,"[-0.013203893908621048,0.042477515898981986]",4.0,"[0.10556592980168526,-0.1008756569424885]",4.0,"[-0.07549962109412554,0.14593953959870506]",4.0,"[-0.07447026048841493,-0.07596042231630899]",100.0,"[-0.027123279921990713,0.16319449715665155]",100.0,"[-0.14943264156176198,0.011356107546076485]",100.0,"[0.15668207532267966,-0.10828053461874661]",4.0,"[0.08885772805933999,-0.16569752931207848]",4.0,"[-0.16545697118373556,-0.10323203267373836]",4.0,"[-0.13150584063580176,0.1418367714103328]",100.0,"[0.019952287667235395,-0.09798136749234168]",100.0,"[0.01918173898275412,0.07945364850912255]",100.0,"[-0.12736709966574197,-0.12457522929967815]",100.0,"[0.06895680850214624,0.15180087784636448]",4.0,"[-0.012970139664199022,-0.005734778114726343]",4.0,"[-0.06219381876601712,-0.017425258457950912]",100.0,"[-0.08803470123573114,0.057983891947747425]",4.0,"[0.1287928022281134,0.0365177048300725]",4.0,"[0.03190138698313706,0.03342737082860983]",100.0,"[0.02838591484628065,-0.0519762960027309]",100.0,"[-0.17619013830291314,-0.04535377350187535]",100.0,"[-0.16384118487029262,0.10483621786147057]",100.0,"[0.18135475191252992,-0.06003788178654326]",100.0,"[0.08177364522036927,-0.03190012892709367]",4.0,"[-0.031426449309880394,-0.1302996148350675]",4.0,"[0.06918375459038495,0.012012327746069919]",4.0,"[0.019592996968864625,-0.19070543844867222]",100.0,"[-0.1833745916624042,0.03942159743595498]",4.0,"[-0.01883373372828161,0.10054889079021659]",4.0,"[-0.1100703557017462,-0.037165880827058004]",4.0,"[0.02,0.02]",208.31,0.0,29.0,29.0,96.0,1.0,,,,,,,
,,,,,,,66704327b46c7665de1190bc,68442939b5cbf0f2fa614b73,2025-06-07_12h59.19.287,shape_ratio,2024.1.5,Win32,60.0240096,684250e4f00cb30b92d1fa88,,,,,,,,,,,208.312,208.81,,,209.062,209.577,left,,,,,,,,0.9,,,,,,208.81,209.062,0.501,,209.577,"[-0.11474552344953834,-0.008842462278103914]",100.0,"[-0.03299122719446777,-0.0784124285777308]",100.0,"[-0.1390205492373312,0.10529397220116926]",100.0,"[0.0995050247747155,-0.16986414135765435]",100.0,"[0.11440444455079295,0.07887563719716488]",100.0,"[-0.14735547988314937,-0.08699901835937209]",100.0,"[-0.05395806649596646,-0.013496138591398303]",100.0,"[-0.07077280986711149,-0.13675717529517187]",100.0,"[-0.0844546288931169,-0.0962614929059392]",100.0,"[0.1199103945896001,-0.04087865494188217]",100.0,"[0.006467572016308482,0.09898849189724374]",100.0,"[0.019024416127429965,0.1862244710918213]",100.0,"[-0.1271182584079017,0.06643099416302413]",100.0,"[0.14491835709127776,0.11428081595912268]",100.0,"[-0.1864985311805096,-0.043091651854601155]",100.0,"[0.13546908214728573,-0.1314734521259734]",4.0,"[0.07630102491243564,-0.09216303436061546]",100.0,"[0.1359861794727705,-0.08262888629948162]",4.0,"[-0.004507029659318826,-0.17675203555898544]",100.0,"[0.04092988952192554,0.05256111213662927]",100.0,"[-0.11852764263500944,0.1486196816182577]",100.0,"[0.1946828941365173,0.018827210537883474]",100.0,"[0.11029897284673747,0.027330957067043766]",100.0,"[-0.1307679931399834,-0.13321751264778536]",100.0,"[0.02688334367538217,-0.08785152824983991]",100.0,"[0.17855615488755242,0.08797637354060589]",100.0,"[0.17534238177209893,-0.09443625082108806]",100.0,"[0.15108054121699446,0.050654510935693516]",100.0,"[0.0798322691037133,-0.017253085505361435]",100.0,"[-0.06917026928499696,0.13713829626242674]",4.0,"[-0.02371120889030664,-0.12190864654039141]",100.0,"[-0.09045301125471737,0.08586832177277466]",100.0,"[0.02,0.02]",210.678,0.0,30.0,30.0,6.0,1.0,,,,,,,
,,,,,,,66704327b46c7665de1190bc,68442939b5cbf0f2fa614b73,2025-06-07_12h59.19.287,shape_ratio,2024.1.5,Win32,60.0240096,684250e4f00cb30b92d1fa88,,,,,,,,,,,210.679,211.177,,,211.428,212.028,left,,,,,,,,0.6,,,,,,211.177,211.428,0.588,,212.028,"[-0.16181659662783165,0.00035597743353617283]",100.0,"[0.04949717199709729,0.1062931174213956]",4.0,"[-0.09231692636592305,-0.1260117166265067]",4.0,"[0.08899301148084093,-0.027890585229779483]",100.0,"[-0.151349171479954,-0.08048972977714615]",4.0,"[-0.00268887814805058,-0.1306068806819803]",100.0,"[0.14266573892807222,-0.08578460489250668]",4.0,"[0.0014280794178845072,0.0637897066452486]",4.0,"[0.17203045975327166,0.09955596995643841]",100.0,"[0.05882297363398568,0.013984133355667349]",100.0,"[0.05549990639141574,0.1478788879077645]",4.0,"[-0.09233610570222664,0.062130418605508574]",4.0,"[0.12120641189500561,-0.14898937809268384]",100.0,"[-0.09664134708932005,0.01725114206756249]",4.0,"[-0.0763232355468328,-0.05317470417657586]",4.0,"[-0.1091161635088358,-0.08756534103893591]",4.0,"[-0.07316378177506246,0.16141608188959122]",100.0,"[-0.0730095079085167,0.11334928725443631]",100.0,"[-0.005401674440672166,0.14164768249334872]",100.0,"[-0.13408609785920672,0.13102239264028118]",100.0,"[-0.14419543765583318,0.05031405799377861]",4.0,"[-0.010399173453389182,-0.19013310013088494]",100.0,"[-0.12753254884057497,-0.04229289191909602]",4.0,"[0.052511953147757855,-0.1473841546740005]",100.0,"[0.10051919916862251,0.1520327773012816]",100.0,"[0.018535340403872957,-0.00381578163144729]",100.0,"[0.03403465507347406,0.1881126689949967]",100.0,"[-0.13755343014380142,-0.13066450723214632]",4.0,"[0.09275584321783777,0.08787914611770557]",100.0,"[0.0472637026015706,-0.06194236985309795]",100.0,"[-0.018356060766474426,0.19628495425567657]",100.0,"[-0.00501899910305692,-0.04606024345806989]",100.0,"[0.02,0.02]",213.128,0.0,31.0,31.0,35.0,1.0,,,,,,,
,,,,,,,66704327b46c7665de1190bc,68442939b5cbf0f2fa614b73,2025-06-07_12h59.19.287,shape_ratio,2024.1.5,Win32,60.0240096,684250e4f00cb30b92d1fa88,,,,,,,,,,,213.129,213.627,,,213.878,214.428,left,,,,,,,,0.55,,,,,,213.627,213.878,0.536,,214.428,"[0.12984921020700327,0.06332380738164035]",100.0,"[-0.041006089279574366,0.17225087470919756]",4.0,"[0.10348069024566908,-0.14048741230982476]",100.0,"[0.07419152914634415,-0.013219950108687158]",100.0,"[-0.16012779197301694,0.04053225686300261]",4.0,"[0.13260969268214143,0.11212425223938283]",100.0,"[0.1084534561742179,-0.06036305369319968]",100.0,"[0.1462907058086247,-0.13572509508673486]",100.0,"[-0.03418055472112724,0.06313198956656259]",100.0,"[-0.04246480297445998,-0.0430210554470927]",4.0,"[0.04174379274818665,0.15043880855642702]",4.0,"[-0.007003102168843418,0.12337630727987839]",100.0,"[-0.12253253455144364,-0.05827633240826116]",100.0,"[-0.06526368128540087,0.03620638303319919]",100.0,"[-0.08398851813128162,-0.1316150008554219]",4.0,"[0.16919185772599074,-0.003805040929409438]",100.0,"[-0.08132331871598955,0.12499541684636163]",4.0,"[-0.004155370449396597,-0.197408568225024]",100.0,"[-0.07575752938639983,-0.07996153454806873]",100.0,"[0.1871703673856223,0.06690676670214704]",4.0,"[0.07931843053968766,0.16532557569579043]",4.0,"[-0.019303667655524322,-0.08933700440170486]",100.0,"[-0.03641641209070437,0.005329423180200341]",100.0,"[0.13340453687630677,-0.027734171175744567]",4.0,"[0.08459193855859028,0.08394142355738687]",100.0,"[0.008496457896905603,0.041506509263085585]",100.0,"[0.008009455885818816,-0.1468178598685003]",4.0,"[0.04134818534891123,-0.12308265461380129]",4.0,"[0.09473862400356614,0.02442383119867483]",4.0,"[-0.09449102684214303,-0.010006956346433367]",4.0,"[0.1830186354782452,-0.07612132156151787]",100.0,"[0.0756560287696441,-0.10150882214752285]",4.0,"[0.02,0.02]",215.527,0.0,32.0,32.0,61.0,1.0,,,,,,,
,,,,,,,66704327b46c7665de1190bc,68442939b5cbf0f2fa614b73,2025-06-07_12h59.19.287,shape_ratio,2024.1.5,Win32,60.0240096,684250e4f00cb30b92d1fa88,,,,,,,,,,,215.528,216.027,,,216.278,217.01,right,,,,,,,,0.55,,,,,,216.027,216.278,0.717,,217.01,"[-0.07690126609226819,0.016088106222281774]",4.0,"[-0.028215805083376115,0.0471624191376551]",4.0,"[0.09155111813951863,0.08434709615267653]",4.0,"[-0.08063650078015773,0.08300246359373319]",4.0,"[-0.13569591697482652,0.07414889034448979]",4.0,"[0.08024414808327097,0.0418308240616206]",100.0,"[-0.004776045017057092,0.13872230913045994]",100.0,"[0.15044288606809017,0.054746486229372546]",100.0,"[0.03436531029710514,0.17053012519962088]",100.0,"[0.02238159607814711,-0.15854689007102687]",100.0,"[0.06587265403768978,-0.1134084290374429]",100.0,"[0.16716849379894408,0.01753233650731173]",100.0,"[0.06250001374208106,-0.06402047763266991]",100.0,"[0.037647735205450415,-0.016315407621298576]",4.0,"[-0.114370088999214,-0.1150580914558566]",4.0,"[-0.018796708944906773,0.09916831449204437]",100.0,"[-0.09819497469201799,0.127968688937764]",4.0,"[-0.19369087082036976,-0.0019792873938292987]",100.0,"[-0.14167885880510117,-0.011878675006761982]",100.0,"[-0.03825451454108919,-0.10021093434300661]",100.0,"[0.1290705622298145,0.13102812371011663]",4.0,"[-0.06291796993431724,-0.053632017896108886]",4.0,"[0.10668128028003891,-0.0030555774562434274]",100.0,"[0.12190052502493277,-0.049845315552016455]",100.0,"[-0.1493250182686786,0.12247067603196356]",100.0,"[-0.05995693210404576,-0.1458913821713074]",100.0,"[-0.01915696246300474,-0.14533498832374406]",4.0,"[0.0902234740887183,-0.1592170635997879]",4.0,"[0.17214644262222537,-0.05663019293040871]",100.0,"[-0.12122371685209588,-0.04747467533503713]",4.0,"[-0.01266889181922986,-0.03455202119520979]",100.0,"[-0.1567946944927134,0.029648459473953517]",4.0,"[0.02,0.02]",218.111,0.0,33.0,33.0,84.0,1.0,,,,,,,
,,,,,,,66704327b46c7665de1190bc,68442939b5cbf0f2fa614b73,2025-06-07_12h59.19.287,shape_ratio,2024.1.5,Win32,60.0240096,684250e4f00cb30b92d1fa88,,,,,,,,,,,218.111,218.612,,,218.865,219.561,right,,,,,,,,0.4,,,,,,218.613,218.864,0.682,,219.561,"[0.19182716319562784,0.03310314848239728]",100.0,"[-0.11729268985969889,0.10483561759213003]",4.0,"[0.09549837536559708,-0.10204842334364735]",100.0,"[0.01827631467159219,0.112437282093546]",100.0,"[0.04401793814634035,0.05548982209776796]",4.0,"[0.07190155277632733,0.01783876487625226]",4.0,"[0.02681701793473196,-0.10889013057667266]",4.0,"[0.102168081263383,0.09922408860407567]",4.0,"[-0.11379844586790665,-0.08091818106513624]",100.0,"[-0.07062272076559452,-0.04537001638338962]",4.0,"[-0.02024721523370982,-0.16636287531888827]",100.0,"[0.10194974958671249,-0.16552056764589906]",4.0,"[0.0628248049881369,-0.02473607231143682]",4.0,"[-0.0021702585304614642,-0.006316232504405477]",4.0,"[-0.0688740037086751,0.03830747099926719]",4.0,"[0.07827256413640142,0.17350950071469748]",4.0,"[0.1906277656057983,-0.022250710662318113]",4.0,"[0.026648527007052766,-0.1739833138262639]",4.0,"[-0.1520658437279839,0.02576185249405845]",4.0,"[0.12415349564525897,0.04143276585702133]",100.0,"[-0.0518803357906555,-0.0010870332998718433]",100.0,"[0.15190333447657006,-0.1157310860177245]",4.0,"[0.058413046949769676,0.12651736613058076]",100.0,"[0.18809069252349866,-0.06518881427821817]",100.0,"[-0.06276804805070786,-0.18131469440367343]",4.0,"[-0.008876958315143794,0.16867675996094572]",4.0,"[-0.0009521800186934675,0.05194742841886476]",100.0,"[-0.1144706517277921,0.16334168649578187]",100.0,"[0.11984006728159949,0.14278094381541373]",100.0,"[-0.16858769144879654,-0.057277511498292875]",4.0,"[-0.0904944712096771,-0.11971481187989849]",4.0,"[-0.03127914655473729,-0.09929002265664895]",100.0,"[0.02,0.02]",220.661,0.0,34.0,34.0,152.0,1.0,,,,,,,
,,,,,,,66704327b46c7665de1190bc,68442939b5cbf0f2fa614b73,2025-06-07_12h59.19.287,shape_ratio,2024.1.5,Win32,60.0240096,684250e4f00cb30b92d1fa88,,,,,,,,,,,220.662,221.16,,,221.411,221.894,left,,,,,,,,0.9,,,,,,221.16,221.411,0.469,,221.895,"[0.1092910539820079,-0.10652106342585321]",100.0,"[0.18026682973216768,0.06130671031932213]",100.0,"[-0.012634207854957039,-0.17402816195397722]",100.0,"[-0.0792988179829483,-0.04769164493645474]",100.0,"[-0.184697334199132,-0.07540234504568219]",100.0,"[-0.14339989370456063,0.12194784963070358]",100.0,"[-0.0999403414678967,0.14086489417323078]",100.0,"[0.046975600916611265,0.108991236606749]",100.0,"[-0.08931272560878988,-0.1524057778341128]",100.0,"[0.09514028422921629,-0.17254001498756993]",100.0,"[-0.04889572050519254,0.11975945478536222]",100.0,"[0.02981842891620739,-0.17623331941806877]",100.0,"[0.049970735031680924,0.03809443582658088]",100.0,"[-0.024758784245043196,0.16794073860305472]",100.0,"[0.05750305934596564,-0.11041359911398115]",4.0,"[-0.11322147696825459,0.04373800612896863]",100.0,"[0.10107919387838926,0.002123993341138188]",100.0,"[-0.1546424941756133,0.07224425154485972]",100.0,"[0.11587951583460201,-0.039343862415253734]",100.0,"[-0.13631208536085004,-0.04635722735015949]",4.0,"[0.025399031138334166,-0.05485082206055457]",100.0,"[-0.10112926119289214,0.08581055288894851]",100.0,"[0.03810505595921732,-0.016264140036266556]",100.0,"[-0.002480437973556223,0.047994514024871995]",100.0,"[-0.03534983090109355,-0.011198103065209646]",100.0,"[0.03321725274931802,0.15014852788643543]",100.0,"[-0.0032545599977874032,0.11780887006261637]",100.0,"[-0.005489019811181847,-0.08752772473671974]",100.0,"[-0.047019457790580706,-0.12649365895997955]",100.0,"[0.0423598519551233,0.19152273781834303]",4.0,"[0.12566553191688756,0.13746025160852368]",100.0,"[-0.07680335542957283,-0.08820620980603111]",100.0,"[0.02,0.02]",222.994,0.0,35.0,35.0,13.0,1.0,,,,,,,
,,,,,,,66704327b46c7665de1190bc,68442939b5cbf0f2fa614b73,2025-06-07_12h59.19.287,shape_ratio,2024.1.5,Win32,60.0240096,684250e4f00cb30b92d1fa88,,,,,,,,,,,222.995,223.495,,,223.745,224.261,left,,,,,,,,0.55,,,,,,223.495,223.745,0.502,,224.261,"[0.016381587796340212,-0.00962176110803851]",4.0,"[0.07649358598264067,-0.10117117739722054]",100.0,"[0.10956830333286711,-0.02956145056208245]",100.0,"[0.0550745675398659,0.002949710852746646]",4.0,"[-0.13077879567894038,0.010761486930297319]",100.0,"[-0.1267664104853653,0.12390502281015128]",100.0,"[0.0169926755836287,-0.18369101430215218]",4.0,"[-0.01255598581551497,-0.08766716974530456]",100.0,"[0.049495699618043176,0.12983981039342868]",100.0,"[0.06890619485252814,0.07839141457291383]",4.0,"[-0.04141613345808809,-0.16716578146152367]",100.0,"[-0.15012378429133588,-0.0867522425501609]",100.0,"[-0.07814700228918856,0.07972079633800717]",4.0,"[-0.08556284388471337,-0.1197940565081837]",100.0,"[-0.06713538563331474,0.1816482764973272]",100.0,"[-0.04017149682531801,0.14319490487034248]",100.0,"[-0.026089848604299196,0.06189164756969595]",100.0,"[0.16158154623397578,0.0974513747317121]",100.0,"[0.1634968094575166,-0.06716386415535125]",4.0,"[0.14187447625006164,-0.12193349374801277]",4.0,"[0.16666408156896587,0.022436452377600852]",4.0,"[0.01159194900356008,-0.14092327206779579]",100.0,"[-0.1198755111167057,0.056174950208334413]",4.0,"[0.09243049784371386,-0.16824450139064182]",100.0,"[-0.17415731409058735,-0.038323415788862454]",4.0,"[-0.09435503448612108,-0.038822462980143316]",100.0,"[0.09781182451366668,0.0288759882134222]",4.0,"[0.11531083024428668,0.0895732955543493]",4.0,"[-0.030004085932151644,-0.027183171490221435]",100.0,"[0.07056734862307922,-0.04412988436201427]",100.0,"[0.1955039133183107,-0.01002122825580984]",4.0,"[0.001017205026849802,0.10620782481602224]",4.0,"[0.02,0.02]",225.36,0.0,36.0,36.0,80.0,1.0,,,,,,,
,,,,,,,66704327b46c7665de1190bc,68442939b5cbf0f2fa614b73,2025-06-07_12h59.19.287,shape_ratio,2024.1.5,Win32,60.0240096,684250e4f00cb30b92d1fa88,,,,,,,,,,,225.361,225.861,,,226.111,226.811,left,,,,,,,,0.9,,,,,,225.861,226.111,0.684,,226.811,"[-0.05830981770840861,-0.08320445620890012]",100.0,"[0.12729474126947724,0.12944710086575587]",100.0,"[0.07001533442880525,-0.16481123870976883]",100.0,"[-0.06395230261987901,0.04128506766963655]",4.0,"[0.05065271939512116,0.018396655922997752]",100.0,"[-0.012114958925502661,-0.16986301930273576]",100.0,"[-0.05746501816550352,-0.13879631839783263]",100.0,"[-0.18788356414169222,-0.014628575016197]",100.0,"[-0.03194039024702245,-0.022542162815219802]",100.0,"[0.01900165206234554,0.07042171896643769]",4.0,"[-0.11572313615546438,-0.11310178933962176]",100.0,"[0.08870691214265844,-0.03865239933107616]",100.0,"[-0.1766558979018119,0.0505757494198201]",100.0,"[0.027230421921325958,-0.13007699649972523]",100.0,"[-0.02611284721933763,0.1631512612526042]",100.0,"[-0.12069993752755824,0.0772911007622053]",100.0,"[0.062436321960912526,0.07586551858005293]",100.0,"[0.14963605367233784,0.08944618999105844]",100.0,"[-0.07842170500785049,0.09703865481416452]",100.0,"[0.13918805967006292,0.024637027443717274]",100.0,"[0.03624342435906379,-0.026828459723937687]",4.0,"[-0.017590371135574115,-0.07333090678968981]",100.0,"[-0.06456658528155927,-0.1788985001558552]",100.0,"[0.1927371951285958,-0.01667150902499655]",100.0,"[0.18498149080287868,-0.0749548533239998]",100.0,"[0.058619127715829576,0.11669517495358658]",100.0,"[0.03297986394900297,-0.08296179643484072]",100.0,"[-0.14373569686559076,0.11294372422236493]",100.0,"[-0.02363484854050039,0.04182174612709216]",100.0,"[-0.029061094859344345,0.09081574838327704]",100.0,"[0.06029741525319503,0.16362658978056815]",100.0,"[0.1008574354494811,-0.11099476440395123]",100.0,"[0.02,0.02]",227.911,0.0,37.0,37.0,17.0,1.0,,,,,,,
,,,,,,,66704327b46c7665de1190bc,68442939b5cbf0f2fa614b73,2025-06-07_12h59.19.287,shape_ratio,2024.1.5,Win32,60.0240096,684250e4f00cb30b92d1fa88,,,,,,,,,,,227.914,228.411,,,228.661,229.694,left,,,,,,,,0.5,,,,,,228.411,228.661,1.02,0.001,229.694,"[-0.05780024689540968,-0.004181760406020098]",4.0,"[0.06984292324108232,0.07798825395660214]",100.0,"[0.1265567190232149,0.11387010476680107]",100.0,"[-0.18843321228781096,0.0603909036986012]",100.0,"[0.10021323193336946,-0.14194633480875676]",4.0,"[-0.17325505977819602,-0.06891625911821084]",100.0,"[0.14326747265159798,0.035781391658094144]",100.0,"[0.02663455770860267,-0.17939479056264193]",100.0,"[0.14834920747842945,-0.007510729800759352]",100.0,"[-0.14591783594144583,0.0365214300838101]",100.0,"[-0.0306901671949176,0.10559789266246314]",100.0,"[0.01787492647050878,0.1834803305417449]",100.0,"[0.07496692607925938,0.16235434036233176]",100.0,"[0.028347238106994386,0.06060792900647208]",100.0,"[-0.07792107356699475,0.08045317796780721]",4.0,"[-0.010809585087218536,-0.07021612468741675]",4.0,"[-0.04539008055635996,0.17889347061008815]",4.0,"[0.05659794155677407,-0.07154105700665388]",4.0,"[0.0704395386920609,-0.026728339459351904]",4.0,"[0.1120885139102035,-0.09792838303532904]",100.0,"[-0.020862143720364257,-0.02923877309199337]",4.0,"[-0.08047918723986229,-0.1488969748526432]",4.0,"[-0.03608693315552505,-0.13833335123464757]",4.0,"[-0.09299717930839135,-0.055925489357091046]",4.0,"[0.07809389829905516,-0.17744170239145327]",4.0,"[-0.12589825183347458,-0.1404133972140969]",100.0,"[-0.11327208615453085,0.1359526960027305]",4.0,"[0.024712538984222775,-0.0013936584831095173]",4.0,"[0.007825314543801429,0.12253228956793924]",4.0,"[-0.11759064529958874,-0.10077195549790664]",100.0,"[-0.13686144329726416,-0.04032166466288358]",100.0,"[0.16787066215955995,-0.09406365688483485]",4.0,"[0.02,0.02]",230.794,0.0,38.0,38.0,103.0,1.0,,,,,,,
,,,,,,,66704327b46c7665de1190bc,68442939b5cbf0f2fa614b73,2025-06-07_12h59.19.287,shape_ratio,2024.1.5,Win32,60.0240096,684250e4f00cb30b92d1fa88,,,,,,,,,,,230.795,231.294,,,231.544,232.044,right,,,,,,,,0.1,,,,,,231.294,231.544,0.487,,232.044,"[-0.17790387058195692,-0.03810350510065537]",4.0,"[-0.01461734135349668,0.1542148465632732]",4.0,"[0.0383905742253456,-0.16589440994623822]",4.0,"[0.11826572180387372,-0.09213659662434773]",4.0,"[0.09054758017103755,-0.01495233710341486]",4.0,"[0.08624307213372824,0.1459762449632102]",4.0,"[0.09754461824476854,0.07631033225163603]",4.0,"[0.15966129654090225,0.11848022492327923]",4.0,"[-0.17455787296202846,0.022148344741477467]",4.0,"[0.06747953556104298,-0.09746555305909685]",4.0,"[-0.05166921216598121,0.07360076272694992]",4.0,"[-0.09634393500598201,0.12028035527409817]",4.0,"[0.15472356153107555,-0.002547271887596421]",4.0,"[0.008990995403705142,-0.06130441675379884]",4.0,"[-0.10936266950729062,-0.060008750906730836]",4.0,"[-0.03464719062041625,0.1964289456208483]",4.0,"[-0.17938363819457284,0.08494246539416465]",100.0,"[-0.14813971773709755,0.12480281264171589]",4.0,"[0.08103138213150937,-0.15032367433064198]",4.0,"[0.06949824019956055,-0.054987479471097146]",4.0,"[-0.05069706105819609,-0.13698713274970523]",4.0,"[0.054314668129764404,0.0843825327127376]",4.0,"[0.015915654021748462,0.028290617326705216]",4.0,"[-0.07549907999244135,-0.01565832630841352]",4.0,"[-0.005100095598691194,-0.1362895422198864]",4.0,"[-0.11369571506383837,-0.0005594287395064389]",100.0,"[-0.09385186415225957,-0.15068762051543266]",100.0,"[0.041899802963899044,0.142350868099208]",4.0,"[0.018329554933903033,0.10818419164306796]",4.0,"[-0.06237467051813441,0.0294974736715885]",4.0,"[0.14087154488782272,0.05134155000642011]",4.0,"[0.15865297039566248,-0.05277308626675415]",4.0,"[0.02,0.02]",233.144,0.0,39.0,39.0,208.0,1.0,,,,,,,
,,,,,,,66704327b46c7665de1190bc,68442939b5cbf0f2fa614b73,2025-06-07_12h59.19.287,shape_ratio,2024.1.5,Win32,60.0240096,684250e4f00cb30b92d1fa88,,,,,,,,,,,233.145,233.644,,,233.894,234.511,left,,,,,,,,0.45,,,,,,233.644,233.894,0.603,,234.511,"[-0.05637169428365105,-0.08833279360291571]",100.0,"[-0.10593789851814113,-0.13525879647419456]",4.0,"[-0.1874825052310808,0.04469355343006593]",4.0,"[0.034041273571549915,-0.17242893590039862]",100.0,"[-0.19169629945152886,-0.004532266174048213]",4.0,"[-0.13567842635805066,-0.004202943754975138]",100.0,"[-0.055571751908742396,0.018715641994750308]",4.0,"[-0.1450361936170094,0.08839410532631077]",4.0,"[-0.08296051235428843,0.14631044936451648]",4.0,"[0.1656085002003388,-0.06153780530746371]",100.0,"[0.129624980262423,-0.11901888083042866]",4.0,"[0.16067803240760872,0.002333582820895029]",100.0,"[-0.04068622181385535,-0.17496107066972721]",4.0,"[0.12240552724815706,-0.04662576942731893]",100.0,"[-0.017077353192966712,0.06961083629266766]",4.0,"[0.014359319655507291,-0.10023371669215467]",4.0,"[-0.0014355915418918929,-0.00227375106294205]",4.0,"[-0.15275605041712753,-0.12227004561292566]",100.0,"[0.017768600790579,0.04653589600555901]",4.0,"[0.07123609967457167,-0.02142604992517788]",100.0,"[0.17118648403595568,0.06376078931520003]",100.0,"[-0.06537965971427744,0.057629397001716716]",4.0,"[-0.06685340514344357,0.10648256866857984]",4.0,"[0.11514315372948401,0.03433170294076427]",100.0,"[0.02503971125187096,-0.05350648265434718]",100.0,"[0.10651412189273463,0.15842449109808093]",4.0,"[0.0844321095789999,0.07581322010139688]",100.0,"[0.15067433538459646,0.10340524917848683]",4.0,"[-0.037152309877347134,0.13920709110292903]",4.0,"[-0.1436278358473935,0.1325481385922308]",100.0,"[-0.07762093523830711,-0.03264429974258419]",100.0,"[0.037826182461071924,0.08985230854601528]",4.0,"[0.02,0.02]",235.611,0.0,40.0,40.0,140.0,1.0,,,,,,,
,,,,,,,66704327b46c7665de1190bc,68442939b5cbf0f2fa614b73,2025-06-07_12h59.19.287,shape_ratio,2024.1.5,Win32,60.0240096,684250e4f00cb30b92d1fa88,,,,,,,,,,,235.611,236.11,,,236.361,236.777,right,,,,,,,,0.55,,,,,,236.11,236.361,0.401,,236.777,"[0.11212087266878108,-0.022485775914122565]",100.0,"[-0.17596282688013246,-0.012660338807680355]",4.0,"[-0.10221116897507196,-0.021856427815369422]",4.0,"[-0.011880030242581146,-0.0530953000276017]",4.0,"[-0.18308405188579693,-0.0604800744314683]",100.0,"[-0.025365958035969104,-0.13515822378519618]",4.0,"[-0.06108511773655398,-0.08968722559738697]",4.0,"[-0.07483256135287546,0.112837545150451]",100.0,"[0.14968977117268006,-0.11583991561911498]",100.0,"[0.057941699477135546,-0.048824510012037775]",4.0,"[0.0982168041454034,0.09302088481754577]",100.0,"[-0.16005292012149933,0.05188146843324919]",100.0,"[-0.005844070568913545,-0.006701910480839204]",4.0,"[-0.13315258264445065,-0.0558166075077375]",4.0,"[-0.05812205703884364,0.1565012066810048]",100.0,"[-0.0382518528192942,0.09552454999335042]",100.0,"[-0.16194369863438682,0.09912551075019221]",100.0,"[0.19525885099199133,-0.02302081234815637]",100.0,"[0.031256979237973,0.01868127873846734]",4.0,"[-0.013135292704682687,-0.17387724833210383]",100.0,"[-0.07233535840634236,0.03187431961438874]",4.0,"[0.14069405831587642,0.10799256684434096]",100.0,"[0.048413577281407494,-0.12794475789016962]",4.0,"[-0.1340468583771558,-0.1453658412767397]",100.0,"[0.1035860125904466,-0.15403519746469407]",4.0,"[-0.11252109846200999,-0.10039728615108308]",100.0,"[0.015165335200343301,0.16608056559469217]",4.0,"[0.15856715756184633,-0.07424561097914054]",100.0,"[-0.12386067606016923,0.14012958441832749]",100.0,"[0.1771775090275291,0.08848407721557963]",100.0,"[0.10568038918513557,0.04543628943484766]",4.0,"[0.0946556083847495,-0.06858320654656509]",100.0,"[0.02,0.02]",237.877,0.0,41.0,41.0,78.0,1.0,,,,,,,
,,,,,,,66704327b46c7665de1190bc,68442939b5cbf0f2fa614b73,2025-06-07_12h59.19.287,shape_ratio,2024.1.5,Win32,60.0240096,684250e4f00cb30b92d1fa88,,,,,,,,,,,237.878,238.378,,,238.628,239.16,left,,,,,,,,0.9,,,,,,238.378,238.628,0.517,,239.16,"[-0.08059114039396258,0.18016922990768397]",100.0,"[-0.02571134257203771,-0.0861649806462204]",100.0,"[0.005618093731260439,0.05011286530249589]",100.0,"[-0.02366839400397303,-0.017028210083969056]",100.0,"[-0.13351898840287604,-0.07901221190956008]",100.0,"[-0.011208138403791345,0.17172969173600755]",100.0,"[-0.11423626012260923,-0.005710611192659065]",4.0,"[-0.18243061681753742,-0.0575170914722613]",100.0,"[0.02552987406725795,-0.07134416526140189]",100.0,"[-0.11609264904514402,0.043380402598905486]",100.0,"[0.08795805440377054,0.1683441685347973]",100.0,"[0.19322524499655286,0.04750385684891338]",100.0,"[0.0072675552835303045,-0.141724586764911]",100.0,"[-0.030156611259644577,-0.1643442581842251]",100.0,"[-0.10194141759035566,-0.10999274402095922]",4.0,"[-0.14245530134285309,-0.038655308694422165]",100.0,"[-0.0663359414001883,0.01159845067809741]",100.0,"[0.18511830176770636,0.0030348842357059026]",100.0,"[-0.10837345977129706,0.1247243916095952]",100.0,"[0.11253840943197081,0.13300911028003146]",100.0,"[0.10302752763637686,-0.024488551973029543]",100.0,"[-0.005944992162705898,0.11125178069598324]",100.0,"[0.12811959596288336,-0.09229248044703216]",100.0,"[-0.0809365521717673,-0.16039422344548357]",100.0,"[0.13407998423623865,-0.1368797160572404]",100.0,"[0.17126303841382182,-0.03532895446094755]",100.0,"[0.11402361246872732,0.05540433365926142]",100.0,"[0.03613057912044257,0.17854459871315945]",100.0,"[0.06643316288519964,-0.0033210853812157904]",100.0,"[0.022727972497425683,-0.00013974857645464818]",100.0,"[-0.06200025119841626,-0.06068006717784616]",100.0,"[0.08443863358764002,0.09539514666031038]",4.0,"[0.02,0.02]",240.26,0.0,42.0,42.0,7.0,1.0,,,,,,,
,,,,,,,66704327b46c7665de1190bc,68442939b5cbf0f2fa614b73,2025-06-07_12h59.19.287,shape_ratio,2024.1.5,Win32,60.0240096,684250e4f00cb30b92d1fa88,,,,,,,,,,,240.261,240.76,,,241.011,241.578,left,,,,,,,,0.9,,,,,,240.76,241.011,0.551,,241.578,"[-0.1827761762607209,-0.0524992858509926]",100.0,"[0.09030916698490024,0.15007317750419277]",100.0,"[0.005086000416511807,0.031418332687302195]",4.0,"[-0.04025123909292948,0.15734701942913384]",100.0,"[-0.10059522748523264,0.13899388977098814]",100.0,"[-0.15854148239341018,0.059417881530963855]",100.0,"[0.17004017393611257,0.03530263256048413]",100.0,"[0.046313791121809604,0.03719109016378652]",100.0,"[0.1569101957875835,-0.08245611402191803]",100.0,"[0.0203638474097186,-0.06373155454009696]",100.0,"[0.09385188048614201,0.032046121249724155]",100.0,"[0.045846984894288526,0.15841271744662808]",100.0,"[0.1237468037236506,-0.0025101442038059953]",100.0,"[-0.10933722240856981,0.07969977315336525]",100.0,"[-0.06209657794204568,0.11133237665223347]",100.0,"[0.1938991496571088,-0.040264144109550495]",100.0,"[-0.04189890724739613,-0.12132550715348912]",100.0,"[0.09750202465835958,-0.050695467630985515]",100.0,"[-0.0793097885479551,-0.17565601844905934]",4.0,"[0.1760278113815337,0.09477730458879845]",100.0,"[-0.00081243926611397,-0.1560822165168199]",100.0,"[-0.14434133284341386,-0.07603600499520283]",100.0,"[-0.13186951926046409,-0.13167158910534388]",100.0,"[0.05298961782251168,-0.16132812050836834]",100.0,"[-0.014124745559322438,-0.011573123011601134]",100.0,"[-0.06441737235938616,-0.07086443104732809]",100.0,"[0.07386033531686206,0.08122115667115047]",100.0,"[-0.1720239826562152,0.014486496809300066]",100.0,"[0.10813727102188729,0.10697100232851206]",100.0,"[0.10032517301167826,-0.09343723144411505]",100.0,"[-0.053618213683447366,0.0005505449407676949]",4.0,"[-0.061090682224506636,0.06614510716743308]",100.0,"[0.02,0.02]",242.678,0.0,43.0,43.0,4.0,1.0,,,,,,,
,,,,,,,66704327b46c7665de1190bc,68442939b5cbf0f2fa614b73,2025-06-07_12h59.19.287,shape_ratio,2024.1.5,Win32,60.0240096,684250e4f00cb30b92d1fa88,,,,,,,,,,,242.678,243.177,,,243.427,244.128,left,,,,,,,,0.55,,,,,,243.177,243.427,0.689,,244.128,"[0.062093690067911496,-0.08049039693451107]",100.0,"[-0.09334821805988401,0.14656729100426966]",4.0,"[-0.015642173833326962,-0.026247059529221687]",100.0,"[0.10292451052109083,-0.004206428491536145]",100.0,"[0.02939720332200206,-0.16613819152781362]",4.0,"[0.016563642874703056,0.11874308622821966]",4.0,"[0.04864945147201841,0.19087262462501936]",4.0,"[-0.12172289129805698,-0.13903785028518767]",100.0,"[0.13318092786365077,0.08339760903457068]",100.0,"[-0.02068527558554463,-0.129922742412075]",4.0,"[-0.047422177060426694,0.057283533980918656]",4.0,"[0.023086378643483455,-0.056688095744074206]",4.0,"[-0.10637932062784505,-0.017420721185658763]",4.0,"[-0.14533785061706572,0.13613411863673353]",100.0,"[-0.13818626499535125,0.08954350398446646]",100.0,"[0.02631076409911143,-0.09840036138727606]",4.0,"[0.11667793193924002,-0.14717187740085996]",100.0,"[0.0572783642477529,0.09254460150638245]",4.0,"[0.13723089012051196,-0.047258582340300684]",100.0,"[-0.16611096855685378,-0.017874808861581618]",4.0,"[0.14515676604605635,0.012515978897439646]",100.0,"[0.10666580550544824,-0.10791319878837628]",100.0,"[-0.12472502729322284,0.030807391342871]",100.0,"[-0.17694878784184248,0.06808444872325323]",100.0,"[-0.04138677609321501,0.17132620539187174]",4.0,"[0.18851256704412106,-0.028613370030084226]",100.0,"[0.03093617204644791,0.0509369468501464]",100.0,"[0.01989014810787474,-0.0031426164767434533]",4.0,"[-0.07911409599781384,-0.05808407544502236]",100.0,"[0.10048559251412184,0.11309358084842443]",4.0,"[-0.030174454680927696,0.10622898341585729]",100.0,"[0.0024087146854871915,0.16028577595972332]",100.0,"[0.02,0.02]",245.228,0.0,44.0,44.0,74.0,1.0,,,,,,,
,,,,,,,66704327b46c7665de1190bc,68442939b5cbf0f2fa614b73,2025-06-07_12h59.19.287,shape_ratio,2024.1.5,Win32,60.0240096,684250e4f00cb30b92d1fa88,,,,,,,,,,,245.229,245.727,,,245.978,246.477,left,,,,,,,,0.9,,,,,,245.727,245.978,0.485,,246.477,"[0.10686479661508447,0.014684446898060864]",4.0,"[-0.16263988777041535,0.09052011842642275]",100.0,"[-0.08278231549642225,-0.11531846317469643]",100.0,"[0.1014780631414467,-0.08814202288020186]",100.0,"[0.18232503656616972,-0.005970034073700376]",100.0,"[0.003662816885638792,0.06057838089302848]",100.0,"[-0.031044795416095162,0.18798345159583965]",100.0,"[-0.1120569499718147,0.0851043708197026]",100.0,"[0.18899543676834893,0.04124911880313249]",100.0,"[0.12066162049760161,0.1354482486824614]",100.0,"[-0.11084092596681747,0.15244120348606863]",100.0,"[0.03975445232158229,-0.09771395643423675]",100.0,"[0.01616811157251353,0.11219772276617]",100.0,"[0.053936456611316165,0.0610900792732335]",100.0,"[-0.03231454335930741,-0.15783671463453855]",100.0,"[0.07901512516714024,0.14439482362215691]",100.0,"[-0.16953100312874597,-0.08740104133753845]",100.0,"[-0.05499530339837829,-0.0853729505419457]",100.0,"[0.09682853613127985,0.05692957328387671]",100.0,"[-0.04628534364351869,0.08135648143383041]",100.0,"[-0.02554989913850641,0.0030485900210043032]",100.0,"[0.02417629805431269,-0.005088987881409636]",100.0,"[0.14514180344440936,0.08460515998337184]",100.0,"[0.07047402003027843,-0.01815218790068781]",4.0,"[-0.11810102468614665,0.01759211820973711]",4.0,"[0.02926666124579435,0.1952063455167573]",100.0,"[0.08259625458953682,-0.14412121112786055]",100.0,"[-0.07163395692175807,0.13141441352952454]",100.0,"[0.1403735820510456,-0.11710135918112417]",100.0,"[0.006384603443733541,-0.1274453334331624]",100.0,"[-0.12317995589918622,-0.06411790481027049]",100.0,"[-0.15883354786220277,0.04102291430784055]",100.0,"[0.02,0.02]",247.577,0.0,45.0,45.0,3.0,1.0,,,,,,,
,,,,,,,66704327b46c7665de1190bc,68442939b5cbf0f2fa614b73,2025-06-07_12h59.19.287,shape_ratio,2024.1.5,Win32,60.0240096,684250e4f00cb30b92d1fa88,,,,,,,,,,,247.578,248.077,,,248.328,248.796,right,,,,,,,,0.6,,,,,,248.077,248.328,0.456,,248.797,"[0.11157269470054047,-0.04251747027620434]",100.0,"[-0.035308400235342804,0.10309885858339905]",100.0,"[-0.08229663157897459,-0.1580353815162807]",100.0,"[0.14832762399654378,-0.12883068419214116]",100.0,"[0.04952287097605249,-0.08327833149328177]",100.0,"[-0.13379667695290087,-0.024864862079493923]",100.0,"[-0.18865917922382958,-0.04036672201923309]",100.0,"[0.07566868220650283,0.07389448575243533]",4.0,"[-0.1564845466755123,0.05473322241545941]",4.0,"[0.17352244325143656,0.012090108313834355]",100.0,"[0.11798464976310977,0.14982998046901302]",4.0,"[0.11328390515571146,0.03125633523084692]",4.0,"[-0.028743607211819407,-0.011000318461186393]",100.0,"[-0.08596503834801723,-0.05440024360822894]",100.0,"[-0.021145205871052317,-0.08342390992917084]",100.0,"[0.13955970008017687,-0.07181923862301869]",100.0,"[0.03940725390893839,0.015025006045741869]",4.0,"[0.08455321826410353,0.11453335599737441]",100.0,"[0.010205321118679191,0.19026813944501034]",4.0,"[-0.09874256399480542,0.11522814281931777]",100.0,"[0.10664307765721719,-0.09963635496977225]",100.0,"[-0.15274961703051887,-0.06316385407473127]",4.0,"[0.03849959477168548,-0.15561316420096952]",100.0,"[0.1686784675578715,-0.039660708970841604]",100.0,"[-0.0659826821992652,0.07060030770179077]",100.0,"[-0.08324356874279475,0.009944992137769053]",100.0,"[-0.054813703644520144,0.16764562209449776]",4.0,"[0.010906368285397533,0.06364615065192991]",4.0,"[0.1385296312058865,0.08162296433609019]",4.0,"[0.08645655097474357,-0.13506963878013567]",4.0,"[0.01720174188306576,-0.026523291481049968]",4.0,"[0.0701550934470376,0.16561411670604942]",4.0,"[0.02,0.02]",249.894,0.0,46.0,46.0,49.0,1.0,,,,,,,
,,,,,,,66704327b46c7665de1190bc,68442939b5cbf0f2fa614b73,2025-06-07_12h59.19.287,shape_ratio,2024.1.5,Win32,60.0240096,684250e4f00cb30b92d1fa88,,,,,,,,,,,249.902,250.394,,,250.648,251.26,right,,,,,,,,0.45,,,,,,250.396,250.648,0.598,,251.26,"[-0.08539123164567139,-0.17031809088098368]",100.0,"[0.03941023502834326,0.14610592846386491]",100.0,"[0.15000723491539192,0.06995404417640083]",4.0,"[0.1228120551129705,-0.10921391724550236]",4.0,"[0.05601437483266068,-0.1469481409008709]",4.0,"[-0.18349088218371912,-0.07641301064358968]",4.0,"[-0.10884804321795778,0.049272596233730925]",4.0,"[0.026697179868442774,0.0008742018627373633]",100.0,"[-0.04575851911129402,0.007185975531422737]",4.0,"[-0.15367914118496773,-0.01537752163822484]",100.0,"[0.10684768201637732,0.09930849240510514]",4.0,"[0.0841364073719525,0.003200830209033395]",100.0,"[0.06417451595800665,0.18527969058315613]",100.0,"[-0.03371142224898964,0.12343902112929127]",4.0,"[-0.15895435616645243,-0.11394263892012192]",4.0,"[-0.04061254166510029,0.17529596491694613]",100.0,"[0.12361837557758236,0.010805287156906797]",4.0,"[-0.10444615982396391,0.10386914719894687]",4.0,"[0.11809225629814822,-0.03304849079936168]",100.0,"[0.16107899076777113,-0.003236854747374429]",100.0,"[0.04526719808780757,-0.19379652885491586]",100.0,"[0.05895879066086264,-0.06741202078432194]",100.0,"[-0.007342037649948618,-0.03508832476521387]",100.0,"[0.11869362141662906,-0.15483089405202474]",100.0,"[0.02320121385289418,-0.09748990619854982]",4.0,"[-0.0910797770965844,-0.06213928283013836]",4.0,"[-0.17162463173358575,0.045667143342465015]",4.0,"[-0.1492415008537807,0.0935614552287157]",4.0,"[-0.055902477045225565,-0.03618568416685667]",4.0,"[-0.011622013710006849,-0.12008178046873409]",4.0,"[-0.10358452040965288,0.16503051287090337]",100.0,"[0.09860118580744102,0.1630661861696666]",4.0,"[0.02,0.02]",252.36,0.0,47.0,47.0,136.0,1.0,,,,,,,
,,,,,,,66704327b46c7665de1190bc,68442939b5cbf0f2fa614b73,2025-06-07_12h59.19.287,shape_ratio,2024.1.5,Win32,60.0240096,684250e4f00cb30b92d1fa88,,,,,,,,,,,252.361,252.86,,,253.111,253.761,left,,,,,,,,0.4,,,,,,252.86,253.111,0.634,,253.761,"[-0.050322771977224276,-0.157496128258071]",100.0,"[-0.10932011106145303,0.0076958622762579336]",4.0,"[-0.19171196090879397,-0.021386248428543066]",100.0,"[0.19101197046308097,-0.030665896145298056]",100.0,"[-0.005497883409314253,-0.05110535870768165]",4.0,"[-0.1931692936922845,0.025171179745733976]",4.0,"[-0.04492420619852567,0.12827881624629173]",100.0,"[-0.010046146209827626,0.04712865820840498]",100.0,"[-0.005136525151485595,-0.14234795271550163]",4.0,"[-0.12648282344454698,0.10813844554107724]",100.0,"[-0.1783111514045735,0.07829592064850767]",4.0,"[0.07940195665627875,0.0097267472455869]",100.0,"[-0.027538905599378133,0.16546751930911555]",4.0,"[0.03499148586263253,0.03597077947632879]",4.0,"[-0.051007313603680125,0.0024855777456283044]",100.0,"[0.04933930996895401,-0.040207427689791235]",100.0,"[-0.05550980720457148,0.06086533947653427]",4.0,"[0.14558964887275458,0.11898021097939367]",4.0,"[-0.11790499478242938,-0.09690630822390174]",100.0,"[0.03128204190540495,-0.11781347697330785]",100.0,"[0.030652583453867493,0.15708191587565168]",4.0,"[0.006414880748230533,0.002496424722728257]",4.0,"[-0.06950725123894196,-0.09412578392950088]",4.0,"[0.13733246983750033,-0.12088115610928608]",4.0,"[0.07131892367312298,0.10742894047960509]",4.0,"[0.16563678107140825,-0.06280623636020823]",4.0,"[0.1378302078576817,0.048944885717194075]",4.0,"[-0.1441002240244819,-0.04610049469188881]",4.0,"[0.10798605460906406,-0.06764375099980854]",4.0,"[0.11188104656969132,-0.019701362868640045]",100.0,"[0.08885899879619118,-0.1414206378280924]",100.0,"[0.019207493527284288,0.11758604582327398]",4.0,"[0.02,0.02]",254.861,0.0,48.0,48.0,177.0,1.0,,,,,,,
,,,,,,,66704327b46c7665de1190bc,68442939b5cbf0f2fa614b73,2025-06-07_12h59.19.287,shape_ratio,2024.1.5,Win32,60.0240096,684250e4f00cb30b92d1fa88,,,,,,,,,,,254.861,255.36,,,255.611,256.461,right,,,,,,,,0.9,,,,,,255.36,255.611,0.835,,256.461,"[-0.13063993028697998,0.03791938612201756]",100.0,"[0.0878941678291649,0.049792966907914314]",100.0,"[0.09955684649119931,0.12187666738477376]",100.0,"[-0.003895440366282894,0.14866903487813057]",100.0,"[-0.0835064401361555,0.1082595734165969]",100.0,"[0.19561630269346883,0.03994651469869731]",100.0,"[-0.013946081895631766,-0.14349292076022796]",100.0,"[-0.06894847424791271,0.030896431160273866]",4.0,"[0.14580959146099667,-0.12804671981432525]",100.0,"[-0.13587110781249961,0.12283293625635537]",100.0,"[0.038338620111308154,0.09816314497165887]",100.0,"[0.01132501681505439,0.0099320105994156]",100.0,"[0.0311004669048401,-0.090514333944268]",100.0,"[0.015462468934023409,-0.1958258761264325]",100.0,"[-0.03466516722768689,0.07460845288441267]",100.0,"[-0.1753530773236957,-0.06572010110660836]",100.0,"[0.19540461101462736,-0.030068671045628624]",100.0,"[-0.10302648774327913,-0.0028570614186016583]",4.0,"[0.07083843217551679,-0.06896118822977074]",100.0,"[-0.16747706578144683,-0.012687867772140558]",100.0,"[0.11862483027444921,0.0798850017450834]",100.0,"[0.11588173834787417,0.1624244149893955]",100.0,"[-0.06577327128991395,0.1542300298335818]",100.0,"[0.11877412668824973,-0.05570395141483916]",4.0,"[0.16090004248656437,0.006585936330745803]",100.0,"[-0.10575412214736979,0.15890418765254732]",100.0,"[-0.0857408377056745,-0.1335538275040704]",100.0,"[-0.04847001031116048,-0.0806204489056114]",100.0,"[-0.19634063037134852,0.019149534769915454]",100.0,"[0.06784286289272351,-0.1181899536008976]",100.0,"[-0.12493203838142403,-0.09730348184454009]",100.0,"[0.15703066516363443,0.11159076065475894]",100.0,"[0.02,0.02]",257.561,0.0,49.0,49.0,20.0,1.0,,,,,,,
