right,left,explain.started,explain.stopped,key_resp_3.keys,key_resp_3.rt,key_resp_3.duration,participant,session,date,expName,psychopyVersion,OS,frameRate,study_id,explain_2.started,explain_2.stopped,key_resp_4.keys,key_resp_4.rt,key_resp_4.duration,explain_3.started,explain_3.stopped,key_resp_5.keys,key_resp_5.rt,key_resp_5.duration,fixation.started,fixation.stopped,practice.started,practice.stopped,response.started,response.stopped,key_resp.keys,feedback.started,feedback.stopped,trials_2.thisRepN,trials_2.thisTrialN,trials_2.thisN,trials_2.thisIndex,trials_2.ran,dot_ratio,key_resp.rt,key_resp.duration,explain_4.started,explain_4.stopped,key_resp_6.keys,key_resp_6.rt,key_resp_6.duration,dotDisplay.started,dotDisplay.stopped,ITI.started,polygon_1.pos,polygon_1.edges,polygon_2.pos,polygon_2.edges,polygon_3.pos,polygon_3.edges,polygon_4.pos,polygon_4.edges,polygon_5.pos,polygon_5.edges,polygon_6.pos,polygon_6.edges,polygon_7.pos,polygon_7.edges,polygon_8.pos,polygon_8.edges,polygon_9.pos,polygon_9.edges,polygon_10.pos,polygon_10.edges,polygon_11.pos,polygon_11.edges,polygon_12.pos,polygon_12.edges,polygon_13.pos,polygon_13.edges,polygon_14.pos,polygon_14.edges,polygon_15.pos,polygon_15.edges,polygon_16.pos,polygon_16.edges,polygon_17.pos,polygon_17.edges,polygon_18.pos,polygon_18.edges,polygon_19.pos,polygon_19.edges,polygon_20.pos,polygon_20.edges,polygon_21.pos,polygon_21.edges,polygon_22.pos,polygon_22.edges,polygon_23.pos,polygon_23.edges,polygon_24.pos,polygon_24.edges,polygon_25.pos,polygon_25.edges,polygon_26.pos,polygon_26.edges,polygon_27.pos,polygon_27.edges,polygon_28.pos,polygon_28.edges,polygon_29.pos,polygon_29.edges,polygon_30.pos,polygon_30.edges,polygon_31.pos,polygon_31.edges,polygon_32.pos,polygon_32.edges,dot_size,ITI.stopped,trials.thisRepN,trials.thisTrialN,trials.thisN,trials.thisIndex,trials.ran,break_2.started,break_2.stopped,trials_3.thisRepN,trials_3.thisTrialN,trials_3.thisN,trials_3.thisIndex,trials_3.ran
subject chose diamond,subject chose dot,0.0003,47.5021,space,32.4878,,6677be3022288c5eff9880c0,684429f120a1434e0e1f67cc,2025-06-07_14h04.34.043,shape_ratio,2024.1.5,Win32,59.88023952,684250e4f00cb30b92d1fa88,,,,,,,,,,,,,,,,,,,,,,,,,,,,,,,,,,,,,,,,,,,,,,,,,,,,,,,,,,,,,,,,,,,,,,,,,,,,,,,,,,,,,,,,,,,,,,,,,,,,,,,,,,,,,,,,,
,,,,,,,6677be3022288c5eff9880c0,684429f120a1434e0e1f67cc,2025-06-07_14h04.34.043,shape_ratio,2024.1.5,Win32,59.88023952,684250e4f00cb30b92d1fa88,47.5033,104.6053,space,27.0846,,,,,,,,,,,,,,,,,,,,,,,,,,,,,,,,,,,,,,,,,,,,,,,,,,,,,,,,,,,,,,,,,,,,,,,,,,,,,,,,,,,,,,,,,,,,,,,,,,,,,,,,,,,,,
,,,,,,,6677be3022288c5eff9880c0,684429f120a1434e0e1f67cc,2025-06-07_14h04.34.043,shape_ratio,2024.1.5,Win32,59.88023952,684250e4f00cb30b92d1fa88,,,,,,104.6057,109.0307,space,1.408,,,,,,,,,,,,,,,,,,,,,,,,,,,,,,,,,,,,,,,,,,,,,,,,,,,,,,,,,,,,,,,,,,,,,,,,,,,,,,,,,,,,,,,,,,,,,,,,,,,,,,,,
,,,,,,,6677be3022288c5eff9880c0,684429f120a1434e0e1f67cc,2025-06-07_14h04.34.043,shape_ratio,2024.1.5,Win32,59.88023952,684250e4f00cb30b92d1fa88,,,,,,,,,,,109.1292,109.5482,109.5493,109.7855,109.786,111.2802,,111.2808,112.3799,0.0,0.0,0.0,0.0,1.0,0.2,,,,,,,,,,,,,,,,,,,,,,,,,,,,,,,,,,,,,,,,,,,,,,,,,,,,,,,,,,,,,,,,,,,,,,,,,,,,,,,,,,,,,,,,
,,,,,,,6677be3022288c5eff9880c0,684429f120a1434e0e1f67cc,2025-06-07_14h04.34.043,shape_ratio,2024.1.5,Win32,59.88023952,684250e4f00cb30b92d1fa88,,,,,,,,,,,112.3815,112.8796,112.8798,113.1236,113.1237,113.4299,right,113.4301,114.5295,0.0,1.0,1.0,1.0,1.0,0.8,0.289,,,,,,,,,,,,,,,,,,,,,,,,,,,,,,,,,,,,,,,,,,,,,,,,,,,,,,,,,,,,,,,,,,,,,,,,,,,,,,,,,,,,,,,
,,,,,,,6677be3022288c5eff9880c0,684429f120a1434e0e1f67cc,2025-06-07_14h04.34.043,shape_ratio,2024.1.5,Win32,59.88023952,684250e4f00cb30b92d1fa88,,,,,,,,,,,,,,,,,,,,,,,,,,,,114.5308,122.3321,space,4.7802,,,,,,,,,,,,,,,,,,,,,,,,,,,,,,,,,,,,,,,,,,,,,,,,,,,,,,,,,,,,,,,,,,,,,,,,,,,,,,,,,,
,,,,,,,6677be3022288c5eff9880c0,684429f120a1434e0e1f67cc,2025-06-07_14h04.34.043,shape_ratio,2024.1.5,Win32,59.88023952,684250e4f00cb30b92d1fa88,,,,,,,,,,,122.3832,122.8467,,,123.0983,123.8293,left,,,,,,,,0.4,0.7155,,,,,,,122.8483,123.0981,123.8307,"[-0.1202936800419708,0.08333793647155989]",100.0,"[0.029279279935214744,0.03887289334423222]",4.0,"[-0.10249735118614677,-0.0592937517961356]",4.0,"[-0.09659134994428151,0.018082292006313574]",4.0,"[0.08166440824653774,0.010619579054747167]",4.0,"[0.16565078693245194,-0.058474912458804235]",4.0,"[-0.06444994598051736,0.09715595281364178]",4.0,"[0.05502947062536457,-0.08765728703069424]",4.0,"[0.07069665698375019,-0.16573249180478836]",4.0,"[0.136600596778067,-0.11267545449534298]",100.0,"[0.023404536127290685,0.15773115278665698]",100.0,"[0.0495184669198369,0.09258207616193286]",100.0,"[0.09715774841549168,-0.1308648824234697]",4.0,"[0.14124739120784738,0.0062912361038998665]",100.0,"[0.033011108888166385,-0.1348262601379691]",4.0,"[-0.007412010284254334,-0.14605518042381174]",4.0,"[-0.08705090869476449,0.15553976905460234]",100.0,"[-0.05285698245068194,-0.10715486037646495]",100.0,"[-0.10625089003945588,-0.16015473808850744]",4.0,"[0.12116267603716277,0.11428125803978446]",4.0,"[-0.05771062568908152,-0.055337535317821096]",4.0,"[-0.13911172675317518,-0.035238955213316873]",100.0,"[-0.0043923976161156526,-0.06871524728734298]",4.0,"[0.10432253906898617,-0.059964234212938616]",100.0,"[0.14523893878220923,0.06248193233577262]",100.0,"[0.19054593552042898,0.05606415686907447]",100.0,"[-0.11979351429962826,-0.09815003236264568]",4.0,"[-0.03333279565367647,-0.18269919238189378]",4.0,"[-0.170983148139297,0.0419010809130342]",4.0,"[0.0012936664774916182,0.09006015198279263]",4.0,"[0.01295448419567457,-0.022441532288368003]",100.0,"[-0.19578317661837305,-0.025404527493675142]",100.0,"[0.02,0.02]",124.9296,0.0,0.0,0.0,173.0,1.0,,,,,,,
,,,,,,,6677be3022288c5eff9880c0,684429f120a1434e0e1f67cc,2025-06-07_14h04.34.043,shape_ratio,2024.1.5,Win32,59.88023952,684250e4f00cb30b92d1fa88,,,,,,,,,,,124.9307,125.4291,,,125.6801,126.0793,right,,,,,,,,0.55,0.3832,,,,,,,125.4292,125.6801,126.0795,"[-0.12107044257213968,-0.11877808539158594]",4.0,"[0.10798391909802595,0.0029456918259750738]",100.0,"[-0.026937051910159892,0.06299577483518576]",100.0,"[0.17272117864804054,0.05530382909724328]",4.0,"[0.11201931935827797,0.08112450355294706]",4.0,"[0.05470418710344734,0.09846245290409887]",4.0,"[-0.07188297803451986,0.08342652595140693]",100.0,"[-0.09745487851392914,-0.1534740536446853]",100.0,"[-0.04368342886314169,-0.004314108754536691]",100.0,"[0.11215202973113121,0.14126545380308334]",100.0,"[-0.024426510322383476,0.1861877243150816]",100.0,"[0.023891662461003445,0.028640167167280104]",100.0,"[0.14942014855708985,0.09945499974196684]",4.0,"[-0.054165644301566694,-0.1685788943031234]",100.0,"[-0.12101511756143246,0.1276629444318244]",100.0,"[0.00004763352994741877,0.15434704742137506]",100.0,"[0.068271021853368,-0.0481446386023522]",4.0,"[-0.07115812304865468,-0.040799016426539624]",4.0,"[-0.03545313143132587,-0.1028768798658082]",4.0,"[-0.024875573313696813,-0.05164495930612714]",100.0,"[0.06889722444888227,-0.17414448575410493]",4.0,"[-0.1331455104767439,-0.07099799767341919]",4.0,"[-0.0762802351097676,-0.08585528782951503]",4.0,"[-0.013336979945490617,-0.1974392158382878]",4.0,"[0.013632441451640625,-0.07524686451264076]",100.0,"[-0.11318889763240728,0.05464378715791655]",100.0,"[-0.004970929108509986,-0.12905282290109057]",100.0,"[-0.13646101553789272,-0.02107869650914458]",100.0,"[0.12049587056436857,-0.11288140720964733]",4.0,"[0.18550900679553745,-0.019915192539784233]",4.0,"[-0.19622881371027676,-0.019394985415585445]",100.0,"[0.027426205296859726,-0.16921335535801627]",100.0,"[0.02,0.02]",127.1789,0.0,1.0,1.0,82.0,1.0,,,,,,,
,,,,,,,6677be3022288c5eff9880c0,684429f120a1434e0e1f67cc,2025-06-07_14h04.34.043,shape_ratio,2024.1.5,Win32,59.88023952,684250e4f00cb30b92d1fa88,,,,,,,,,,,127.1799,127.6789,,,127.9345,128.6805,right,,,,,,,,0.45,0.7216,,,,,,,127.6789,127.9344,128.6806,"[-0.012064135981565841,-0.19911656500521044]",100.0,"[0.1650545953457127,-0.06923653484474998]",100.0,"[0.14184275816065864,-0.010355326738047647]",4.0,"[-0.043594443419033596,-0.034763967880785236]",4.0,"[-0.058792692936697685,0.16343061236773107]",4.0,"[0.05869071531565645,-0.02850834573698257]",4.0,"[-0.06980551831629185,-0.17792645438561772]",100.0,"[-0.15916951496841744,-0.039106182490515284]",4.0,"[0.14621876084655167,0.09936369760808399]",100.0,"[0.18863751588392344,0.011394528291042006]",4.0,"[-0.03495362362946704,-0.09797584121776333]",4.0,"[0.14765192489426118,-0.11982925107505753]",4.0,"[0.04002536639164644,0.1608368231705715]",100.0,"[-0.1190428324697136,-0.10051683890090173]",4.0,"[0.04694147656996048,-0.16818372388521183]",4.0,"[-0.1426521498530916,0.06836752541712014]",4.0,"[-0.03302762153117098,-0.14667655388107972]",4.0,"[-0.041150135791170564,0.02436502394136596]",100.0,"[-0.05623398691763228,0.07452810412628441]",100.0,"[-0.01488904475963742,0.06232630574428068]",100.0,"[0.06447084159332094,-0.1100338785000324]",100.0,"[0.02679743721124424,0.04991904482027172]",100.0,"[-0.16491574450707902,0.016842991499243974]",4.0,"[0.08707142649838379,-0.06483747286170957]",4.0,"[-0.11586722541667785,-0.04073429413816231]",4.0,"[-0.04634917037914483,0.11867701219198218]",100.0,"[0.13508536905145005,0.14724125983172698]",4.0,"[0.10502309515535159,0.04391725208064507]",4.0,"[-0.11121072611334801,0.004225909284730958]",100.0,"[-0.0017785544097971926,0.17609571824096124]",100.0,"[0.03038920869602388,0.12109830653025393]",4.0,"[0.07929123965085406,0.010608908562730269]",100.0,"[0.02,0.02]",129.7796,0.0,2.0,2.0,136.0,1.0,,,,,,,
,,,,,,,6677be3022288c5eff9880c0,684429f120a1434e0e1f67cc,2025-06-07_14h04.34.043,shape_ratio,2024.1.5,Win32,59.88023952,684250e4f00cb30b92d1fa88,,,,,,,,,,,129.7811,130.2788,,,130.5309,131.0682,right,,,,,,,,0.1,0.5177,,,,,,,130.2789,130.5308,131.0683,"[-0.05316253418622009,-0.0570854395726818]",4.0,"[-0.012606819346788428,-0.10124533409421144]",4.0,"[0.1382401599001511,0.03599631932599064]",4.0,"[-0.09576102797344671,-0.12213488719184921]",4.0,"[-0.13704942576930138,-0.13413731416201308]",4.0,"[-0.07932940829546802,0.03436612738205647]",100.0,"[-0.179186711201219,0.05638190527988187]",4.0,"[-0.020963100843470854,-0.1622736828429957]",4.0,"[-0.030622259761458732,0.1818456538147658]",4.0,"[0.10939394342012408,0.15776370529025094]",4.0,"[0.09997507224901256,-0.07438650225517959]",4.0,"[0.14590669649484203,-0.09203123148617812]",4.0,"[0.09741903442103864,0.014020493880805833]",4.0,"[0.10406288737614791,0.07836214931462754]",4.0,"[0.05414966516962001,0.15491245489875885]",4.0,"[0.1910001929580875,-0.048504973091294125]",4.0,"[-0.020509347201955574,0.13010094579687267]",100.0,"[0.14140582209463715,0.12239754444135159]",4.0,"[0.12434895321458042,-0.126568032492358]",4.0,"[0.07009185209416138,-0.18642414271808364]",4.0,"[-0.06882102495217465,-0.17594165476038112]",4.0,"[-0.1328037643795259,-0.02766135798507354]",100.0,"[0.1466206369852303,-0.010621864891518052]",4.0,"[-0.04651652151579683,0.09795187979447581]",4.0,"[-0.1721791145692272,-0.07068081928248487]",4.0,"[-0.054754917276632564,-0.00355937728794065]",4.0,"[0.019717081843533553,0.019388466121311225]",4.0,"[0.03738857577766764,-0.11643188575554353]",4.0,"[0.014128726203622698,-0.040749291675511806]",4.0,"[-0.07794742029963801,0.12864498556635895]",4.0,"[0.08127541102049167,-0.1473352574514394]",4.0,"[-0.13631355295678693,0.13477296830492375]",4.0,"[0.02,0.02]",132.163,0.0,3.0,3.0,206.0,1.0,,,,,,,
,,,,,,,6677be3022288c5eff9880c0,684429f120a1434e0e1f67cc,2025-06-07_14h04.34.043,shape_ratio,2024.1.5,Win32,59.88023952,684250e4f00cb30b92d1fa88,,,,,,,,,,,132.1645,132.6628,,,132.9129,133.3957,left,,,,,,,,0.55,0.472,,,,,,,132.6631,132.9128,133.3959,"[-0.038231143728208294,0.1629630020245455]",4.0,"[0.15164981185807755,0.10733703914783269]",4.0,"[-0.10056646542251892,0.07864293958237444]",100.0,"[0.01953289857167351,0.03379700077543844]",4.0,"[-0.02789427455328021,-0.12484638083301426]",100.0,"[-0.0063584563762164965,0.12483549655281932]",100.0,"[0.18882945645713842,-0.013666362519756383]",4.0,"[-0.14448291015037265,-0.13233603497263158]",4.0,"[0.050434248398495085,-0.04100889740330983]",100.0,"[-0.14130274014557617,-0.0196142388912788]",100.0,"[0.10434565141978472,-0.030119926653159244]",4.0,"[-0.03567467938209348,-0.07524664882064053]",100.0,"[-0.08720322089089537,0.030837664010341468]",100.0,"[-0.031011112358919395,-0.017295012974462905]",100.0,"[0.09073456775065766,-0.11643919394747118]",100.0,"[-0.10426755893632429,-0.1554001921623]",100.0,"[0.05125257737864983,0.0033905543113111145]",100.0,"[0.058695236487890406,0.08576101176609509]",4.0,"[0.13225588931593735,-0.0649569777461791]",4.0,"[0.07203030965032083,-0.07898232127297762]",4.0,"[-0.023490183832895542,0.08083342181826485]",100.0,"[-0.09687324826550502,-0.04388510193313494]",4.0,"[0.03689673648349246,0.16674910645981025]",4.0,"[-0.19001596101285353,0.006145629116961275]",100.0,"[0.12339992879491564,-0.14264570201026425]",4.0,"[-0.08603324075935363,-0.11891523887053768]",100.0,"[-0.07888650999773286,0.12284757315400023]",100.0,"[0.0038255683152049105,-0.17687290159950536]",4.0,"[0.11544221080989478,0.07215266588495937]",100.0,"[0.009970693680612803,-0.07091802225941153]",100.0,"[0.14821700701365864,0.03407191241145518]",4.0,"[-0.17918993336737712,-0.04247650086210685]",100.0,"[0.02,0.02]",134.4953,0.0,4.0,4.0,88.0,1.0,,,,,,,
,,,,,,,6677be3022288c5eff9880c0,684429f120a1434e0e1f67cc,2025-06-07_14h04.34.043,shape_ratio,2024.1.5,Win32,59.88023952,684250e4f00cb30b92d1fa88,,,,,,,,,,,134.4963,134.9952,,,135.2466,136.0123,right,,,,,,,,0.4,0.749,,,,,,,134.9953,135.2464,136.0124,"[0.18467370940732108,0.006152344615024731]",4.0,"[-0.17060634104716457,-0.07258381114335434]",4.0,"[-0.029550338999205034,0.02761982378496868]",4.0,"[-0.01724806947346793,0.1466137850278255]",100.0,"[-0.1426144975934767,0.09006997848900758]",100.0,"[-0.0860787942557286,0.07903372933160377]",4.0,"[0.08831328653131912,0.09497129072668048]",100.0,"[-0.15968648398285548,-0.009029080036296506]",100.0,"[0.18592370310172843,0.058251514148641874]",4.0,"[0.12167651605731705,-0.0010907001885577686]",4.0,"[-0.08053423508130225,-0.007578415788184465]",4.0,"[0.14097862511124273,-0.13837527075045714]",100.0,"[-0.019759199375536947,0.07223273686593608]",4.0,"[0.049190290216279714,0.012211316447019427]",100.0,"[-0.004378614992044684,-0.15813943984178394]",4.0,"[-0.08544851002751448,-0.1278739318560849]",4.0,"[0.10390492745684024,-0.084012017932085]",4.0,"[0.1590118076524105,0.11874289176333779]",4.0,"[-0.0460841715859209,-0.06263113452780576]",100.0,"[-0.06960741511422743,0.16228539627702906]",100.0,"[-0.10390286736563129,0.11865070507217997]",100.0,"[0.1411398910801302,0.05029169797673458]",100.0,"[0.18244614779570428,-0.06741348677015743]",100.0,"[0.027075090281471793,0.1618106637294358]",100.0,"[0.06302902636562047,-0.13850009227339888]",4.0,"[-0.003395913156022358,-0.009715639777804356]",4.0,"[0.035259287996018816,0.10286225187636336]",4.0,"[-0.007805191203169209,-0.07524227199408785]",4.0,"[-0.039521710073563615,0.10960414026538433]",4.0,"[0.06962601173785751,0.14525682856167674]",4.0,"[-0.09088816537755048,-0.05350939320620323]",100.0,"[-0.12182384066678108,0.045509780021991963]",4.0,"[0.02,0.02]",137.1117,0.0,5.0,5.0,179.0,1.0,,,,,,,
,,,,,,,6677be3022288c5eff9880c0,684429f120a1434e0e1f67cc,2025-06-07_14h04.34.043,shape_ratio,2024.1.5,Win32,59.88023952,684250e4f00cb30b92d1fa88,,,,,,,,,,,137.1126,137.6117,,,137.8626,138.3117,right,,,,,,,,0.45,0.4334,,,,,,,137.6118,137.8625,138.3118,"[0.07192146595370771,0.0027059420640696903]",100.0,"[0.07861395295270929,-0.1557703933316691]",4.0,"[-0.045713645201091765,-0.17518288138888588]",4.0,"[0.02000896693209823,-0.15936667384086176]",4.0,"[0.13225976103501885,0.14673169524875357]",100.0,"[-0.14881538935450964,-0.06909407199044078]",4.0,"[0.005938491166812363,-0.06290959208560207]",4.0,"[-0.09721105408350833,0.10196147502472001]",4.0,"[0.11636984521867863,-0.007568083975094212]",100.0,"[-0.07345851353550807,-0.044118038061525984]",100.0,"[-0.02479965208333827,-0.010051745579241878]",4.0,"[-0.09772765041416166,-0.14653474531330596]",100.0,"[0.02474184119243417,-0.0156931248681879]",4.0,"[0.1588138623249377,0.0756378697739472]",100.0,"[0.04377785148962605,0.036865273849998596]",100.0,"[0.10461755705069403,0.073134637287181]",4.0,"[-0.010255414146156713,-0.1009338573541126]",4.0,"[-0.17041212704133116,0.047070623911645605]",100.0,"[0.03459626193033199,0.1026661989254281]",100.0,"[-0.0600328349768313,0.049982692824930224]",4.0,"[-0.03614672108166126,0.13910774177951285]",4.0,"[-0.18974415459138408,-0.013345891523668338]",4.0,"[0.13267265979734363,-0.07769789548844636]",100.0,"[0.15415239706978384,-0.12512008361151344]",4.0,"[-0.0997297366136661,0.03753202010927101]",100.0,"[0.031616041751436605,-0.11372661511067583]",100.0,"[0.09027197990351865,-0.08536619752943995]",100.0,"[0.01386649253484092,0.1507814158961314]",4.0,"[0.08991065355504665,0.1643059734161532]",4.0,"[-0.04961817138914315,0.19078846332518712]",4.0,"[0.18491669506333566,-0.0323800864215363]",100.0,"[-0.04935400998109567,0.09346355000280557]",4.0,"[0.02,0.02]",139.4116,0.0,6.0,6.0,131.0,1.0,,,,,,,
,,,,,,,6677be3022288c5eff9880c0,684429f120a1434e0e1f67cc,2025-06-07_14h04.34.043,shape_ratio,2024.1.5,Win32,59.88023952,684250e4f00cb30b92d1fa88,,,,,,,,,,,139.4128,139.9115,,,140.1672,140.9462,left,,,,,,,,0.9,0.7608,,,,,,,139.9116,140.1672,140.9465,"[0.1666900973500662,-0.03302310659390232]",100.0,"[0.035440503922862895,-0.06247348224349962]",100.0,"[-0.07570981701397324,0.10403574376833255]",100.0,"[-0.1104636760474014,0.07779373394457902]",100.0,"[0.0216804791335097,-0.010453978525027682]",4.0,"[-0.018231496008133282,-0.06489826345474471]",100.0,"[-0.040349795377842904,-0.12363973924357456]",100.0,"[-0.09581409950769348,-0.06865808554457914]",100.0,"[0.048222783133888496,0.04319114205667095]",100.0,"[-0.04792428902090007,0.1758310892155191]",100.0,"[0.0729356545778256,0.17292509534301256]",100.0,"[-0.16601858392587657,-0.07278941742734457]",100.0,"[0.1392914894104493,0.066727579542908]",100.0,"[0.0073954321114963655,-0.12350429628782429]",100.0,"[-0.10659060854540227,-0.028425612834286917]",100.0,"[0.011658848001600343,0.11350454453522825]",100.0,"[0.1665373348897899,0.019987424816763223]",4.0,"[0.08867786667963673,0.04705658857979874]",100.0,"[-0.10630045265452541,-0.13376177638657696]",100.0,"[0.018168344801355353,0.16454401563215626]",100.0,"[0.07285904970121489,0.11684924605394166]",100.0,"[-0.09022655080184508,0.025322633566988002]",100.0,"[-0.16659262705468383,0.03220038650220577]",4.0,"[-0.04046262593082292,0.13548451972330097]",100.0,"[-0.11497679022866154,0.13970962916611537]",100.0,"[0.07855506047652679,-0.043523131214955504]",100.0,"[0.02566669690995328,-0.19319780985081866]",100.0,"[0.15879927571438757,0.10842143769164493]",100.0,"[-0.15862354678378443,0.08739246299063876]",100.0,"[-0.09087429488548456,0.17268588646713487]",100.0,"[0.12896893653907532,-0.061420411484566145]",100.0,"[-0.07065351131870203,-0.16155785886576415]",100.0,"[0.02,0.02]",142.0456,0.0,7.0,7.0,9.0,1.0,,,,,,,
,,,,,,,6677be3022288c5eff9880c0,684429f120a1434e0e1f67cc,2025-06-07_14h04.34.043,shape_ratio,2024.1.5,Win32,59.88023952,684250e4f00cb30b92d1fa88,,,,,,,,,,,142.0471,142.5457,,,142.7957,143.6285,right,,,,,,,,0.1,0.8161,,,,,,,142.5459,142.7956,143.6287,"[0.10828308875092202,-0.021993396781963735]",4.0,"[-0.07540114471735135,0.06358334278180242]",4.0,"[0.06312190517728584,0.11117554450923842]",4.0,"[-0.06528367726905066,-0.052819120989758495]",4.0,"[0.15557909542638315,-0.016128539585490924]",4.0,"[-0.15762327556748593,-0.018874996258551824]",4.0,"[0.03513210157362458,0.15496473767163452]",4.0,"[-0.09810366728508614,0.10283325759311185]",4.0,"[0.19775059398414194,-0.008097486059345061]",4.0,"[-0.1401986679252542,-0.08701601063978154]",4.0,"[-0.046263239658149366,0.17151763042235646]",4.0,"[0.03978672055543925,0.02986572773789982]",4.0,"[0.17835403821762136,0.053793716402420776]",4.0,"[0.056860531049439736,-0.06679086002341822]",4.0,"[-0.12331010528097616,0.06895656270945584]",4.0,"[0.13534567130764766,0.04307293267020967]",4.0,"[-0.021440400953995267,0.07623896849500875]",4.0,"[-0.013734091632787467,0.14123520083741395]",4.0,"[-0.0663224539327914,0.0009068835505743294]",4.0,"[0.00948107016976332,-0.014423061327671044]",4.0,"[-0.10359523551856245,-0.14788616367836394]",100.0,"[0.03655040431438086,-0.19189877654201984]",4.0,"[-0.1902700571028756,0.015067469419700356]",100.0,"[0.08580904187811329,0.0602468894326803]",100.0,"[-0.0514942506641015,-0.166094850729001]",4.0,"[0.031660931608799577,-0.15210244374903767]",4.0,"[-0.07770264343139838,0.13868002225723294]",4.0,"[0.1836498697480113,-0.07697463180775149]",4.0,"[0.011537583789495874,0.1921090431454493]",4.0,"[0.1042217419390929,0.13546477114883193]",4.0,"[0.13685425409204738,-0.07928684614160351]",4.0,"[-0.10848309976937717,-0.015473709203346737]",4.0,"[0.02,0.02]",144.7281,0.0,8.0,8.0,203.0,1.0,,,,,,,
,,,,,,,6677be3022288c5eff9880c0,684429f120a1434e0e1f67cc,2025-06-07_14h04.34.043,shape_ratio,2024.1.5,Win32,59.88023952,684250e4f00cb30b92d1fa88,,,,,,,,,,,144.7288,145.228,,,145.4798,146.1289,right,,,,,,,,0.6,0.6423,,,,,,,145.2281,145.4795,146.1289,"[-0.0794524400828792,-0.17783839500791276]",100.0,"[0.13676226974855868,-0.10093369657002815]",100.0,"[-0.14591623450568333,-0.040794585318818764]",4.0,"[0.1918506661679719,0.03988185255120018]",4.0,"[0.04925463124477923,0.18266128547262026]",4.0,"[-0.08271385017892215,0.06540913497923587]",100.0,"[0.027515762504472314,-0.08796814894177356]",100.0,"[0.07769309351475656,0.05969155726816801]",100.0,"[-0.02415334771020736,0.06789092039747087]",100.0,"[-0.07611278093180704,0.137714499577543]",100.0,"[-0.1123260978744135,-0.10636342638792708]",4.0,"[-0.019168210194060047,0.17263178115978806]",100.0,"[0.1330452225713826,0.0848481312674011]",100.0,"[0.12667928213810623,0.029902879057461352]",4.0,"[0.015489160191583685,-0.020400312278284715]",4.0,"[0.07037299770510755,-0.1418913988528007]",100.0,"[-0.00868479970574114,0.018982532444517208]",100.0,"[0.055635944004418215,-0.029194777753946407]",4.0,"[-0.015313391719521953,-0.1251258856729135]",4.0,"[0.06697208144551606,0.017294352282407464]",100.0,"[-0.13350585966167391,0.07749829353267867]",100.0,"[0.16929389760320715,-0.06424685260659432]",100.0,"[0.11076619075154756,-0.025622781031081763]",4.0,"[-0.11848480383543117,0.019556982770239248]",100.0,"[0.02653788462227735,0.12159068652962544]",100.0,"[0.02866551728505854,0.03384126036467928]",4.0,"[-0.18813255537041423,-0.038504517117871076]",100.0,"[-0.03536122071250578,-0.07225089543466734]",4.0,"[-0.11902043530541537,0.14618929201089653]",100.0,"[-0.020480654470951397,-0.19747485808039283]",4.0,"[-0.01774058340534424,0.11761318116273563]",4.0,"[0.06519842893968684,-0.07411840540789527]",100.0,"[0.02,0.02]",147.2281,0.0,9.0,9.0,39.0,1.0,,,,,,,
,,,,,,,6677be3022288c5eff9880c0,684429f120a1434e0e1f67cc,2025-06-07_14h04.34.043,shape_ratio,2024.1.5,Win32,59.88023952,684250e4f00cb30b92d1fa88,,,,,,,,,,,147.2292,147.7282,,,147.9789,148.5281,left,,,,,,,,0.9,0.5346,,,,,,,147.7282,147.9788,148.5282,"[0.024420699056190803,0.043716561705390435]",100.0,"[0.06868979591033643,-0.05003314624259602]",100.0,"[-0.0038589453937712633,0.19393449743052635]",4.0,"[0.198688349905255,0.020659513250227062]",100.0,"[-0.14535884727760323,0.012029609970379001]",100.0,"[0.06629471625106062,-0.09397240119671119]",100.0,"[0.09661745848732933,0.1621557405573022]",100.0,"[0.07038408995383956,-0.13648069745223732]",100.0,"[-0.027902880347161086,0.016675951533973183]",4.0,"[0.17200980892154852,-0.029111764421946372]",100.0,"[0.001400284168689409,-0.14372337806594931]",100.0,"[0.11095745057350505,0.053771882601110495]",100.0,"[-0.051473609405219924,0.19301243729676432]",100.0,"[-0.11034738653787178,0.0748129434122195]",100.0,"[0.11410445210144143,-0.03660487218031557]",100.0,"[0.1380413818041927,0.08479296586683915]",100.0,"[0.04960784478326363,-0.1883989920796265]",100.0,"[-0.05024671252699379,-0.043539190135992265]",100.0,"[0.03311415994806748,0.11069694834236751]",4.0,"[-0.05351420255676222,0.10558074555866534]",100.0,"[-0.10166089498724283,-0.16193503527345637]",100.0,"[-0.10143408900183792,-0.10133092231259877]",100.0,"[-0.1781617072016154,-0.057496445284519804]",100.0,"[0.15459000331726347,-0.07213470948741378]",100.0,"[0.05515717804788819,0.17930644612694085]",100.0,"[-0.11991533087929337,-0.05049877172297411]",100.0,"[0.11058607861403531,0.12077122607284438]",100.0,"[-0.18205846586269964,0.06944453968070018]",100.0,"[-0.1554006694795113,0.09964813782585207]",100.0,"[-0.00643684530869255,0.128889767403171]",100.0,"[-0.07893798565927004,0.04742148982911263]",100.0,"[-0.046594061810715015,-0.16017831776240407]",100.0,"[0.02,0.02]",149.6279,0.0,10.0,10.0,0.0,1.0,,,,,,,
,,,,,,,6677be3022288c5eff9880c0,684429f120a1434e0e1f67cc,2025-06-07_14h04.34.043,shape_ratio,2024.1.5,Win32,59.88023952,684250e4f00cb30b92d1fa88,,,,,,,,,,,149.6287,150.1279,,,150.3787,151.0281,right,,,,,,,,0.4,0.6379,,,,,,,150.128,150.3786,151.0281,"[0.019193225195380997,0.0033316189789294984]",4.0,"[0.17326685400770597,-0.05652122168044717]",4.0,"[0.08648215120251156,-0.06923181953475536]",100.0,"[0.09517137775389131,-0.11919559807452688]",100.0,"[0.13130544644358993,0.1489679907048957]",4.0,"[-0.042703394450888624,-0.14073973164090978]",4.0,"[0.0843669231927933,0.05912577063116314]",4.0,"[0.044314246764896044,0.0477519345773699]",4.0,"[-0.10512581480829752,-0.06460065481624766]",4.0,"[-0.1166654609722256,0.04354990781597384]",100.0,"[-0.11418103621965447,-0.14590322551390605]",4.0,"[0.03684820553353522,0.09037583424476259]",100.0,"[-0.04723876380187043,0.05896054301563265]",4.0,"[0.1383720463930691,0.015867079533461715]",100.0,"[-0.07453179131050636,0.10106073286841219]",100.0,"[0.07212532673477244,-0.02500729105102911]",4.0,"[-0.015219912235572607,-0.1947549109517286]",4.0,"[0.02619604692690759,-0.12843528356688558]",100.0,"[-0.04569766322550592,0.15208686822971676]",4.0,"[0.013077535057966536,-0.0798251969249012]",4.0,"[0.039492276722982625,-0.1854934952405177]",4.0,"[-0.020428976684169195,0.01798245025155197]",100.0,"[-0.11468828234140659,0.0012744787813833871]",4.0,"[0.08875977602910479,0.15727335431080042]",100.0,"[-0.16828763581439418,0.10260694718642004]",100.0,"[0.138446443435209,-0.14342610894763985]",4.0,"[-0.16411940329432692,-0.012829483046275066]",100.0,"[0.09238040978240125,-0.17477313014517845]",100.0,"[0.1742744845574444,0.08268869930477983]",100.0,"[-0.007530323449638169,0.18233866263786497]",4.0,"[-0.04831047683978191,-0.05414643179929215]",4.0,"[-0.15403695974964227,0.06032109216813263]",4.0,"[0.02,0.02]",152.1277,0.0,11.0,11.0,166.0,1.0,,,,,,,
,,,,,,,6677be3022288c5eff9880c0,684429f120a1434e0e1f67cc,2025-06-07_14h04.34.043,shape_ratio,2024.1.5,Win32,59.88023952,684250e4f00cb30b92d1fa88,,,,,,,,,,,152.1285,152.6286,,,152.8813,153.4123,left,,,,,,,,0.9,0.5082,,,,,,,152.6287,152.8812,153.4125,"[-0.15275093194697006,-0.0378798764668194]",100.0,"[0.07888665442301289,0.1757578710099845]",100.0,"[0.07332637098063106,0.037907440967156925]",100.0,"[0.12307442757922994,0.0184922909734817]",100.0,"[-0.02101488965756635,-0.07553458936585415]",100.0,"[0.15737413842832956,-0.032938952516798146]",100.0,"[0.12985745470789745,0.14544422222389236]",100.0,"[-0.15989924405123496,-0.11771656988361981]",100.0,"[0.08709203342877904,0.07933678049406358]",100.0,"[-0.0491904653510987,-0.03544229427267774]",4.0,"[-0.05664849565456253,0.1418576468285743]",100.0,"[0.07704614971647522,-0.014071121501635765]",100.0,"[-0.10827302113396603,-0.11365037623209796]",100.0,"[0.05956152808412172,-0.12211084800385852]",100.0,"[-0.015490732720982689,0.1755260264630943]",100.0,"[0.016329889945653084,0.04346412067786181]",100.0,"[0.19593877406950522,0.006028310358672399]",100.0,"[-0.04207602159464422,0.016127323264441315]",100.0,"[-0.12104970393382186,-0.06512751903851388]",100.0,"[-0.05025336048683053,-0.17052160371610384]",100.0,"[0.1582712946001502,-0.10268746781687421]",100.0,"[-0.167786570236715,0.07884357759613521]",4.0,"[0.014123347429490044,-0.15211837073455048]",100.0,"[-0.058328159885598,0.07102069587391681]",4.0,"[0.08830751956354731,-0.08013227017571992]",100.0,"[-0.08420357839649976,0.1746312946039911]",100.0,"[-0.18140857227027776,-0.07499547564950308]",100.0,"[0.004262493749338275,0.12746856346241453]",100.0,"[0.0325192055055525,-0.08950944166452025]",100.0,"[-0.16094635624805864,0.021026958197585214]",100.0,"[0.1438828030106691,0.06910315851168113]",100.0,"[-0.13652301343188222,0.11541257027157611]",100.0,"[0.02,0.02]",154.5115,0.0,12.0,12.0,2.0,1.0,,,,,,,
,,,,,,,6677be3022288c5eff9880c0,684429f120a1434e0e1f67cc,2025-06-07_14h04.34.043,shape_ratio,2024.1.5,Win32,59.88023952,684250e4f00cb30b92d1fa88,,,,,,,,,,,154.5131,155.012,,,155.2616,155.861,left,,,,,,,,0.5,0.5875,,,,,,,155.0122,155.2616,155.8612,"[-0.1067812916843391,0.1303619299420148]",4.0,"[-0.052105383108633115,-0.18794459007600864]",4.0,"[0.07704480322314566,-0.08746438236859964]",100.0,"[-0.04833864301558515,0.08715537318640594]",100.0,"[-0.03237089495019542,-0.15111320474776907]",100.0,"[0.15613864090155413,0.011635677600882544]",4.0,"[0.003090606681403377,-0.11388223345218726]",4.0,"[0.061692802779431705,-0.15149164444207638]",4.0,"[0.16143198766282227,0.06110365796190471]",4.0,"[-0.179567598127065,-0.06269994794657749]",100.0,"[0.08767411668512234,0.01063845744475376]",4.0,"[0.12064693227310426,0.04012758400061489]",4.0,"[-0.14496671328458194,-0.10278743000692579]",100.0,"[-0.0116907580657195,0.1988752100064961]",100.0,"[-0.021755512895139783,-0.020147336912183924]",100.0,"[0.14651934297963057,0.10255358557460473]",4.0,"[-0.09251390032153546,0.054121810448081245]",4.0,"[0.026872254423368568,0.1655132194318136]",4.0,"[-0.10969147550094104,-0.15316446577747903]",100.0,"[0.010030798215132974,0.0364754678400656]",100.0,"[-0.0985048156566098,0.004037406959902683]",100.0,"[0.10439004053513147,-0.044637689504276025]",100.0,"[-0.13821848160802394,-0.032681221004873695]",100.0,"[0.1315835269399623,0.1439187804350528]",4.0,"[-0.04348464523309239,-0.05566818775740063]",100.0,"[0.011370762971028193,0.12312906097318632]",4.0,"[-0.050314449137757324,0.035537957349919505]",100.0,"[0.06832150742844854,0.11641485031772647]",4.0,"[0.14477872452598042,-0.11892160564127437]",100.0,"[-0.1643277818813378,0.04572944363751655]",100.0,"[0.006161596774301722,-0.1732422219114463]",4.0,"[-0.05714049151504704,0.12630742593901126]",4.0,"[0.02,0.02]",156.9607,0.0,13.0,13.0,99.0,1.0,,,,,,,
,,,,,,,6677be3022288c5eff9880c0,684429f120a1434e0e1f67cc,2025-06-07_14h04.34.043,shape_ratio,2024.1.5,Win32,59.88023952,684250e4f00cb30b92d1fa88,,,,,,,,,,,156.9617,157.4606,,,157.7118,158.5776,right,,,,,,,,0.5,0.8505,,,,,,,157.4607,157.7117,158.5778,"[0.06595340673348361,0.0033809357405342115]",100.0,"[-0.009970671727028074,0.06539886512792333]",4.0,"[0.069770039096634,-0.09564387630811903]",4.0,"[0.12535115097394586,-0.079677505749513]",4.0,"[-0.09511796428674406,0.05437025072708685]",100.0,"[0.008838850317039241,-0.15473790182338612]",4.0,"[0.07634019541640559,0.16577470709205055]",100.0,"[0.12424476011581849,0.0361089189728666]",4.0,"[-0.1730891128869426,-0.09327827143732347]",100.0,"[-0.1238449360586305,0.1548153499855584]",4.0,"[0.055727061867459564,0.09891543925905157]",100.0,"[-0.16085132611950528,0.03296322994138498]",4.0,"[-0.05846645378084167,-0.005082358588199862]",4.0,"[-0.05547997560774517,-0.047602114298235014]",100.0,"[-0.11606780614793298,-0.11361034823580496]",100.0,"[-0.03783162091904469,-0.11438819940517561]",100.0,"[-0.10424067852924439,-0.024076506442254234]",4.0,"[-0.0408416861669611,0.10533399639684013]",4.0,"[0.1592194080776443,0.10741111153324916]",4.0,"[0.004677454507510194,0.10288445009713036]",4.0,"[0.05860698771766885,-0.17811370558188835]",4.0,"[-0.16956282528544736,0.07541982529321276]",100.0,"[-0.08714909110874547,-0.08096494068480736]",100.0,"[0.05176440458696525,0.04333533251201392]",100.0,"[0.18652397912475985,0.03289833992196534]",4.0,"[-0.017316133088254377,0.1654748784226937]",100.0,"[-0.1675216631044685,-0.035448831631450316]",4.0,"[-0.09438337698885747,0.10304235772206805]",100.0,"[0.17888453074365537,-0.03522208253492882]",100.0,"[-0.07774589059213165,-0.1404035486250477]",4.0,"[0.13906977887666652,-0.14023612235655497]",100.0,"[-0.19209792673349643,-0.001091682428702995]",100.0,"[0.02,0.02]",159.6773,0.0,14.0,14.0,115.0,1.0,,,,,,,
,,,,,,,6677be3022288c5eff9880c0,684429f120a1434e0e1f67cc,2025-06-07_14h04.34.043,shape_ratio,2024.1.5,Win32,59.88023952,684250e4f00cb30b92d1fa88,,,,,,,,,,,159.6782,160.1773,,,160.4285,160.6276,left,,,,,,,,0.9,0.182,,,,,,,160.1774,160.4284,160.6278,"[-0.06893707755107642,-0.16694066537840924]",100.0,"[0.1150468564511341,-0.033114048895653635]",100.0,"[-0.020315113341893495,-0.07626303729238833]",100.0,"[-0.12193546808266485,-0.05825435235457695]",100.0,"[0.05824311818952522,0.14259786869172347]",100.0,"[-0.11498241649682887,-0.1234200306691384]",100.0,"[-0.047970739400898535,0.173270190447138]",100.0,"[-0.15222347780788506,0.1108525007326064]",100.0,"[0.0628249515874515,-0.11737080870928103]",100.0,"[-0.06746103137304141,0.05216522816203672]",4.0,"[0.014719661976341544,-0.19159952162508231]",100.0,"[0.07220950076912688,0.053845738064176106]",4.0,"[0.094064755109565,0.16969393325453416]",100.0,"[-0.06001178233102582,-0.042739224364398164]",100.0,"[0.07676113987198617,0.0029632620462536775]",100.0,"[0.18818316256485648,-0.023412179613546757]",100.0,"[0.019828586614743397,0.18857180179680139]",100.0,"[-0.006355672813226597,0.06513149919566058]",100.0,"[0.09219119031648021,-0.14569592011749483]",4.0,"[0.023336732734776877,0.029508176406468283]",100.0,"[0.12815259702586498,-0.07259878345355662]",100.0,"[-0.1007788658856312,0.09591975278098382]",100.0,"[0.11201700361252957,0.1287624659100753]",100.0,"[0.1785753570198534,0.02012905446616073]",100.0,"[0.1246178593762231,0.030279212043868735]",100.0,"[-0.08616018240643467,-0.08545023166884963]",100.0,"[-0.07622800485804748,0.013013787391805089]",100.0,"[-0.19886354208782875,0.012843890060175374]",100.0,"[-0.025101000814993307,-0.018402608545790296]",100.0,"[-0.16958761913834863,-0.08648065125688643]",100.0,"[0.022935360760331695,-0.04096974147722369]",100.0,"[0.033512794345385274,0.10848863876094074]",100.0,"[0.02,0.02]",161.7272,0.0,15.0,15.0,6.0,1.0,,,,,,,
,,,,,,,6677be3022288c5eff9880c0,684429f120a1434e0e1f67cc,2025-06-07_14h04.34.043,shape_ratio,2024.1.5,Win32,59.88023952,684250e4f00cb30b92d1fa88,,,,,,,,,,,161.7284,162.2272,,,162.4783,163.044,right,,,,,,,,0.6,0.5485,,,,,,,162.2272,162.4782,163.0441,"[-0.08283002435945257,0.07232593060166988]",100.0,"[-0.013240856551680143,0.12754388442418813]",4.0,"[-0.16522467347290615,-0.019881856558778773]",100.0,"[0.15103620618796673,0.006790804603050278]",4.0,"[0.07059166979598899,0.01977886237786876]",4.0,"[-0.05584152916151474,-0.1142443391299223]",100.0,"[-0.07398600787409738,0.17509945903462087]",100.0,"[0.03656259736993258,-0.09133447498511658]",100.0,"[-0.08782970008945482,0.014176632174025582]",100.0,"[0.08616507687634632,-0.17007831539681165]",100.0,"[-0.17391386545417514,0.07910304075749934]",100.0,"[0.1611694598731124,0.10340100824794766]",100.0,"[0.10013771576899526,0.06501106665856426]",4.0,"[-0.12591448174498052,-0.12124128646826932]",100.0,"[0.07416580353204548,0.1166867713366758]",4.0,"[-0.024891793917534242,-0.08085023526500425]",100.0,"[0.17948390743128573,-0.06424574567781487]",100.0,"[0.03982839449112951,-0.13577683990496256]",4.0,"[-0.11427698939278474,0.1386354971383471]",100.0,"[0.051498309357906134,-0.04483267187220101]",4.0,"[0.05238264238459494,0.17255337911661253]",100.0,"[0.027143222080332572,-0.005245980373380394]",4.0,"[0.0062819103668489236,-0.18570668309347854]",4.0,"[0.15888537906829875,0.05819042277761513]",4.0,"[0.10234110669794606,-0.00800476395740658]",4.0,"[0.02938726425126192,0.10503476516314252]",100.0,"[-0.19497032214230026,0.04415502671852721]",100.0,"[0.010721030872299635,0.1853248940877385]",4.0,"[0.08883081476036721,-0.08730859188455566]",100.0,"[-0.12868976000561785,0.09015440281396768]",100.0,"[-0.012637841666506772,-0.020762842731387413]",100.0,"[0.12763736869305536,-0.10343114195597695]",4.0,"[0.02,0.02]",164.1436,0.0,16.0,16.0,35.0,1.0,,,,,,,
,,,,,,,6677be3022288c5eff9880c0,684429f120a1434e0e1f67cc,2025-06-07_14h04.34.043,shape_ratio,2024.1.5,Win32,59.88023952,684250e4f00cb30b92d1fa88,,,,,,,,,,,164.1445,164.6437,,,164.8948,165.211,left,,,,,,,,0.55,0.3072,,,,,,,164.6438,164.8948,165.211,"[-0.023799300819420565,0.13366903505097194]",100.0,"[-0.04556512139492508,-0.026349148753609598]",100.0,"[0.06531958189383207,0.09170608102376597]",100.0,"[0.11178746391707811,0.15295420511599966]",4.0,"[-0.09992605863540716,0.03589858396675653]",4.0,"[0.06325798350230456,-0.13938539783432669]",4.0,"[-0.10809959779240022,-0.1267535325070084]",4.0,"[0.0628135175432438,-0.07150540162406603]",100.0,"[-0.06058838131285547,-0.06706220409383556]",100.0,"[-0.16193016302987376,-0.10134409523631414]",100.0,"[0.00887853909901947,-0.19471961051117517]",100.0,"[0.1353014321938323,-0.1088009257788452]",100.0,"[-0.04447846977177613,0.04059437899739779]",100.0,"[-0.11670131656334773,-0.00842577299208853]",100.0,"[-0.1913374217654985,-0.0033431356441898643]",4.0,"[-0.154283919064783,0.0723997627388736]",100.0,"[0.10915295112372844,0.054743453177609674]",4.0,"[0.004465338482700837,0.04321685730376152]",4.0,"[-0.11464583327482121,-0.0684758475280217]",4.0,"[0.15472086153626433,0.007070387386316491]",100.0,"[-0.047304076326598526,-0.10886721128000083]",4.0,"[0.011320824585245519,0.19403456164359512]",4.0,"[-0.06860487947724872,0.08785987947249102]",100.0,"[-0.0333747320489945,0.1913663593723015]",4.0,"[0.11103443911938458,-0.14809966478281786]",4.0,"[0.10539414696007934,-0.014121787229419688]",4.0,"[0.1597331976128239,-0.07022339406890071]",100.0,"[0.024309825067151052,-0.1228226503644787]",4.0,"[-0.14471805205399024,0.11445047394002233]",100.0,"[-0.07027028113823745,0.1485160006925125]",100.0,"[0.16430989257694006,0.1099906468361577]",100.0,"[0.19201791484065875,0.04486234640365514]",100.0,"[0.02,0.02]",166.3105,0.0,17.0,17.0,70.0,1.0,,,,,,,
,,,,,,,6677be3022288c5eff9880c0,684429f120a1434e0e1f67cc,2025-06-07_14h04.34.043,shape_ratio,2024.1.5,Win32,59.88023952,684250e4f00cb30b92d1fa88,,,,,,,,,,,166.3114,166.8106,,,167.0604,167.8769,right,,,,,,,,0.4,0.805,,,,,,,166.8106,167.0604,167.8771,"[0.048627843133379915,-0.11183381805113751]",100.0,"[0.15974080624713097,-0.10360790573782297]",4.0,"[0.13573400181311382,0.13150259732175465]",100.0,"[-0.024757728888447274,0.14475351976857986]",100.0,"[-0.15185999159952882,-0.11781551792154694]",4.0,"[-0.1297164896112595,-0.03550997217377822]",4.0,"[-0.001207673046982581,-0.14414559750067096]",100.0,"[-0.03127059987555829,0.05535404172262163]",4.0,"[-0.07220914068846275,-0.10661206088146039]",4.0,"[0.1176289823676399,-0.020178662061470353]",4.0,"[0.01478235209442347,-0.1970427579371918]",100.0,"[-0.11880602168133102,0.14364289486176282]",100.0,"[0.16210606337946878,-0.030341982309001654]",4.0,"[0.17150186145312776,0.09117116742081185]",100.0,"[0.050603593968138315,0.08233583593940047]",4.0,"[0.12012604703898475,0.06506885946581814]",4.0,"[-0.13029045397331815,0.03438652816464406]",100.0,"[-0.07161440099470041,-0.17649766093537728]",4.0,"[0.00891247021864271,0.08310229956353697]",4.0,"[0.07717028533773929,0.18174380247999697]",100.0,"[-0.0754239134944076,0.18365712928104969]",4.0,"[-0.0010485682759390196,-0.07790272956142043]",4.0,"[0.07629101902822712,0.036533546313495216]",4.0,"[0.03534626610553203,0.16333200229175293]",4.0,"[-0.08641125446438075,0.02626516498113001]",4.0,"[-0.17159825663250963,0.0386829001633862]",4.0,"[-0.0030798551651905048,-0.036587905847199384]",100.0,"[0.07600137819013313,-0.003941033086153993]",100.0,"[-0.16000935389091042,0.08970549066551743]",100.0,"[0.14378947673850637,0.02528634129638289]",100.0,"[0.03213610804748997,0.026042388870208395]",4.0,"[-0.02506754547177788,0.197948677161229]",4.0,"[0.02,0.02]",168.9771,0.0,18.0,18.0,165.0,1.0,,,,,,,
,,,,,,,6677be3022288c5eff9880c0,684429f120a1434e0e1f67cc,2025-06-07_14h04.34.043,shape_ratio,2024.1.5,Win32,59.88023952,684250e4f00cb30b92d1fa88,,,,,,,,,,,168.9783,169.477,,,169.728,170.1269,left,,,,,,,,0.5,0.3844,,,,,,,169.4771,169.7278,170.1272,"[-0.12956667941854513,0.08080648501834917]",100.0,"[0.1104541583354236,-0.13812438980650818]",4.0,"[0.01719108716931165,-0.05313456460433977]",100.0,"[-0.07309794133448856,0.10519546912922617]",4.0,"[0.04160455873217509,-0.1458121841531113]",100.0,"[0.02536218786872406,-0.09753475777489341]",100.0,"[0.17975292100222454,-0.033938585180187934]",4.0,"[0.05076213143583178,0.18224239206102982]",4.0,"[0.16520283134306088,0.07065414590300098]",100.0,"[0.09031343921569622,-0.0348824405009088]",100.0,"[0.01878374274497524,-0.18427841064531125]",100.0,"[-0.0318185605894996,-0.17790578937090681]",100.0,"[0.05814643869899629,0.09785254666678832]",4.0,"[-0.15504581749496865,-0.010156975347496199]",100.0,"[-0.16182119011591659,0.10917592724549033]",4.0,"[-0.11390652493199088,-0.05401465694998167]",4.0,"[-0.1473230010166174,-0.10817056348096749]",100.0,"[0.014592903820552035,0.07584502052916213]",4.0,"[-0.021100485134415734,-0.11157628725446932]",4.0,"[-0.18238970973512858,0.053690673172321436]",100.0,"[-0.02826103052417186,0.07341227462359678]",100.0,"[0.12565247223414935,0.05041466382245776]",4.0,"[-0.07903814611200854,-0.13350046416070893]",100.0,"[0.0007130370018942091,0.14026022636752533]",100.0,"[-0.04347353909121684,0.1784786919723028]",4.0,"[-0.04306008731081134,0.01516907292452052]",100.0,"[-0.0048257523805194215,-0.009840957220194213]",4.0,"[0.10430255633748703,0.12602551016316255]",100.0,"[-0.07449302394589646,-0.1818620690296418]",4.0,"[-0.07119892759871839,0.050534767923646806]",4.0,"[0.12844989776751561,-0.08096830740969732]",4.0,"[-0.12838452133821956,0.1388713756364037]",4.0,"[0.02,0.02]",171.2268,0.0,19.0,19.0,97.0,1.0,,,,,,,
,,,,,,,6677be3022288c5eff9880c0,684429f120a1434e0e1f67cc,2025-06-07_14h04.34.043,shape_ratio,2024.1.5,Win32,59.88023952,684250e4f00cb30b92d1fa88,,,,,,,,,,,171.2278,171.7267,,,171.9662,172.4114,right,,,,,,,,0.45,0.4261,,,,,,,171.7268,171.966,172.4118,"[-0.05729375470419287,-0.06009482817455259]",4.0,"[-0.14467259095995924,-0.03025757494254884]",4.0,"[-0.13458005408114898,0.0355251779116199]",4.0,"[0.0775589221911059,-0.13453639105065152]",100.0,"[-0.08026439178354706,-0.002837030723195688]",100.0,"[0.0044357230936228,-0.05662695054353835]",4.0,"[0.05509107690199307,-0.019741364503219956]",4.0,"[0.1494301181552473,-0.10867497337160231]",4.0,"[-0.10878222417053163,0.1178874080881114]",4.0,"[0.02444575347524334,-0.18733386514878617]",4.0,"[0.07278920271612058,0.16317585861273934]",4.0,"[-0.018336269671534053,-0.009050635614284087]",100.0,"[0.12400557265644567,-0.01189824273589971]",100.0,"[-0.028599554860783187,-0.18740050122447835]",100.0,"[-0.15561660161020963,0.08475388121538033]",100.0,"[0.18874444169055915,-0.06010229142432106]",100.0,"[-0.19285034787812882,0.012756687749156401]",100.0,"[-0.1586105626749868,-0.09007808090033272]",100.0,"[0.054221834989488446,0.030667647094056824]",100.0,"[-0.0012925973703783445,-0.10349878461327496]",4.0,"[-0.09823680564368163,-0.040472688002164]",100.0,"[0.1551107658792816,0.10818728598221881]",4.0,"[0.1819903740021487,0.04255726987652839]",4.0,"[0.0015018520242861652,0.19196081213261765]",4.0,"[-0.11038463044082318,0.06927899163637227]",4.0,"[-0.1102329449074136,-0.1528841206094148]",4.0,"[0.07578571032778372,-0.18056338140115946]",4.0,"[0.09810529565045482,-0.04593116319335605]",100.0,"[0.046122543654888395,0.13070839495040154]",100.0,"[-0.06093429252144432,0.03549037713729405]",4.0,"[-0.0042283990718807235,0.06424223198402437]",4.0,"[0.10625146801306612,0.11263250656532761]",100.0,"[0.02,0.02]",173.5108,0.0,20.0,20.0,140.0,1.0,,,,,,,
,,,,,,,6677be3022288c5eff9880c0,684429f120a1434e0e1f67cc,2025-06-07_14h04.34.043,shape_ratio,2024.1.5,Win32,59.88023952,684250e4f00cb30b92d1fa88,,,,,,,,,,,173.5119,174.011,,,174.2651,174.745,left,,,,,,,,0.6,0.4541,,,,,,,174.0111,174.265,174.7451,"[-0.16372368637499196,-0.037322366892903365]",100.0,"[0.05309919405972473,0.14594050282822738]",100.0,"[0.07515809001047478,-0.11808428666605941]",4.0,"[-0.013549055884034678,0.13153156600684374]",100.0,"[0.17169546454673398,-0.05059964054553885]",100.0,"[0.009332399063853511,-0.19288110605826733]",4.0,"[0.10492965254915618,-0.03883702594515959]",100.0,"[0.02523254257310655,-0.08167664922145901]",100.0,"[0.07377914703921985,0.04616796482183502]",4.0,"[-0.01989232520391383,-0.14256202692480827]",100.0,"[0.1252210214849283,-0.11053413694412019]",100.0,"[-0.0609626814864988,-0.04414136533312092]",4.0,"[-0.10265465320276511,0.08457842213420631]",4.0,"[0.035954936600457246,-0.14563853484314768]",100.0,"[-0.019121600179607318,0.01855918722945206]",100.0,"[0.19601852881924292,0.008994994113878984]",100.0,"[0.15668218276338425,0.05915527581824791]",100.0,"[-0.14730457640413955,-0.10781931431453128]",100.0,"[0.010461470143197427,0.09351359068867147]",100.0,"[-0.08344678262790191,0.1754862585914421]",4.0,"[0.060747951174317354,-0.06150662109031078]",4.0,"[-0.02958520635002584,0.18880858565265116]",100.0,"[-0.036031918877063425,0.08801577343316362]",4.0,"[0.13685515872476184,0.11566892255856959]",100.0,"[0.027208751284438924,0.01781072933197918]",4.0,"[-0.09575557326780416,0.031084199222482848]",100.0,"[0.1581330969290805,-0.009610555783531767]",100.0,"[0.16227929447271475,-0.09260662988244055]",4.0,"[-0.16095882308490295,0.11419215602418982]",4.0,"[-0.10456005657906661,0.1385070954238462]",100.0,"[0.0594448567520633,0.1001776072614343]",4.0,"[-0.11713113980755067,-0.14631285792011403]",4.0,"[0.02,0.02]",175.8446,0.0,21.0,21.0,31.0,1.0,,,,,,,
,,,,,,,6677be3022288c5eff9880c0,684429f120a1434e0e1f67cc,2025-06-07_14h04.34.043,shape_ratio,2024.1.5,Win32,59.88023952,684250e4f00cb30b92d1fa88,,,,,,,,,,,175.8455,176.3444,,,176.594,177.06,right,,,,,,,,0.5,0.4492,,,,,,,176.3446,176.5939,177.0603,"[-0.04896988437458027,-0.09273641231450691]",4.0,"[0.08780757072076896,-0.1604447980337243]",4.0,"[0.011942047618519875,-0.12256762718832746]",100.0,"[-0.04962191816913863,0.153883042421442]",100.0,"[-0.08527433594233409,0.0686538731518446]",100.0,"[0.049405493007140845,-0.18858404800452352]",4.0,"[0.16461203828199922,0.004789628999684615]",100.0,"[0.1155950791552828,-0.04393406295666255]",100.0,"[-0.019455470627388945,0.044884565862363564]",100.0,"[0.1171331038046091,0.12235494576227192]",4.0,"[0.03622869993007792,0.19066157104365247]",100.0,"[0.004811127979189301,-0.0815943558846405]",4.0,"[0.12400444231385785,0.06733641127460509]",4.0,"[0.09746409388759852,0.02656004190584134]",4.0,"[-0.19031441662973106,0.0183527323617409]",100.0,"[-0.06338227597364807,0.02912195192350159]",100.0,"[-0.13572951556932278,-0.07721424588690443]",100.0,"[-0.15704386651517843,0.1085692798403705]",100.0,"[0.006092280265321447,-0.0339444896467642]",4.0,"[-0.12750072343250585,0.13644892923030574]",4.0,"[0.06563915979387944,-0.04016030236656226]",4.0,"[-0.11623279046123922,0.040968654023748455]",4.0,"[0.025175881859791624,0.14324716807120932]",4.0,"[0.1740001143748044,-0.0741795684125056]",4.0,"[0.019568058295485316,-0.16188792073603953]",100.0,"[-0.18583901863323535,-0.050243655216416924]",4.0,"[-0.030571127554170067,-0.14783749123306203]",4.0,"[0.06424880136506927,0.10035203327790411]",100.0,"[-0.04707726715563802,0.106499207567725]",100.0,"[0.03135334570351584,0.032756374551225625]",100.0,"[-0.03665562685146332,-0.0021201602386915733]",100.0,"[0.10638073371879153,-0.10790983507469724]",4.0,"[0.02,0.02]",178.1598,0.0,22.0,22.0,105.0,1.0,,,,,,,
,,,,,,,6677be3022288c5eff9880c0,684429f120a1434e0e1f67cc,2025-06-07_14h04.34.043,shape_ratio,2024.1.5,Win32,59.88023952,684250e4f00cb30b92d1fa88,,,,,,,,,,,178.1607,178.6596,,,178.9109,179.6765,right,,,,,,,,0.45,0.7541,,,,,,,178.6597,178.9108,179.6766,"[0.10907658415267567,0.16491513427647203]",4.0,"[0.11508633362116232,0.1174738151624326]",100.0,"[0.0042395827741758055,0.12587349822062047]",4.0,"[-0.06215579061615215,-0.09421754439863982]",4.0,"[0.06540473699803437,-0.11743502363402192]",100.0,"[-0.057238127862765276,0.10705281835013658]",4.0,"[0.036324654136820955,0.011161237187214634]",4.0,"[0.1791478856295313,0.07851640452258218]",4.0,"[0.06923888373312397,-0.023981746382557977]",100.0,"[-0.026116082086167718,0.06274600652455464]",4.0,"[0.17972834820619946,-0.03218376539278309]",4.0,"[-0.18418356355916188,-0.01850895542897502]",100.0,"[0.06141696089744404,0.07651311492054695]",100.0,"[0.10296864975960322,-0.04937264259124994]",4.0,"[-0.15557026868981272,0.11683462948464764]",4.0,"[-0.06296309620167749,0.015226984508267438]",4.0,"[0.11385877848190738,-0.13588500035794007]",4.0,"[0.06116043360710096,-0.06402155110621974]",4.0,"[0.16884153945027225,0.018209881829718364]",100.0,"[-0.14836970548145784,0.010726144955282749]",4.0,"[-0.010408303326113684,0.19940425797571576]",100.0,"[-0.10390096029079066,0.137195029869971]",4.0,"[-0.06819185312482658,-0.03783486664930019]",4.0,"[-0.10311085946887712,-0.06208789223873824]",100.0,"[-0.019571398076036996,-0.08390171777394126]",4.0,"[-0.06197925480579116,0.18902394335212397]",100.0,"[-0.14985136437402324,0.054411255028101915]",100.0,"[-0.16139478019764122,-0.10757235824598589]",100.0,"[0.15965092812778003,0.1153645672748339]",100.0,"[0.11189765437718312,0.06219683255419464]",100.0,"[0.02075172814278654,-0.11399753833060133]",100.0,"[-0.1008041638691087,0.06146257506105552]",4.0,"[0.02,0.02]",180.7765,0.0,23.0,23.0,146.0,1.0,,,,,,,
,,,,,,,6677be3022288c5eff9880c0,684429f120a1434e0e1f67cc,2025-06-07_14h04.34.043,shape_ratio,2024.1.5,Win32,59.88023952,684250e4f00cb30b92d1fa88,,,,,,,,,,,180.7776,181.2763,,,181.5271,182.0432,right,,,,,,,,0.6,0.5056,,,,,,,181.2765,181.527,182.0433,"[-0.16463405555029859,-0.0033936693248431122]",4.0,"[-0.16325794656116577,0.04577539342461685]",100.0,"[0.015591283176869792,-0.03408080874040419]",4.0,"[0.10087201772163865,-0.158598585956888]",4.0,"[0.15753815349717373,-0.12209451669153715]",100.0,"[0.07907802468201053,0.12572965141798645]",4.0,"[0.026092257067991093,-0.15892939886820373]",4.0,"[-0.06977875411352018,0.09497418756194496]",100.0,"[-0.11991663109076496,-0.14215186235826496]",100.0,"[-0.008487992799185329,0.11501576720513927]",4.0,"[-0.02154979769405815,-0.07712141696521728]",100.0,"[-0.06912889099411039,-0.15597518264392224]",100.0,"[-0.005990598257961389,-0.19209517912123958]",100.0,"[0.06216174508762201,0.07630995646072021]",100.0,"[-0.026018239275701984,0.04377797939983125]",100.0,"[-0.0931153245587319,0.03641663899954178]",100.0,"[-0.14687589377925514,-0.08225469630517225]",100.0,"[-0.10971549978619391,-0.05674867794239394]",4.0,"[0.10599088622026351,0.07886235823461998]",4.0,"[0.18121093739365854,-0.0759486014523165]",100.0,"[0.15553918003661243,0.08952657330568255]",100.0,"[-0.07791368519944174,-0.08679855558820074]",4.0,"[0.02299220236444899,-0.09087380612837344]",4.0,"[0.09158069488934265,-0.11054444765450024]",4.0,"[0.167744099292819,-0.03449182392091237]",100.0,"[-0.03371119239502339,-0.1370145815290505]",100.0,"[-0.102740175336799,0.1280197087726137]",100.0,"[0.12120996546718135,-0.005510602554093757]",4.0,"[-0.05887452217854608,0.01440113849885424]",4.0,"[0.1228733074362961,0.12499614992112124]",100.0,"[0.08466757113643479,-0.044252029467984635]",100.0,"[0.18743502965301903,0.04918469391897948]",100.0,"[0.02,0.02]",183.143,0.0,24.0,24.0,47.0,1.0,,,,,,,
,,,,,,,6677be3022288c5eff9880c0,684429f120a1434e0e1f67cc,2025-06-07_14h04.34.043,shape_ratio,2024.1.5,Win32,59.88023952,684250e4f00cb30b92d1fa88,,,,,,,,,,,183.1438,183.6429,,,183.8831,184.3775,right,,,,,,,,0.5,0.4693,,,,,,,183.643,183.883,184.3777,"[0.06070815652075108,0.16043496525826098]",4.0,"[-0.0045715890252811964,-0.10925831328234052]",4.0,"[0.16759208663335656,0.06777311290403559]",100.0,"[0.1303359920498833,0.14623568288863723]",4.0,"[-0.011847631505636095,0.005652595440453282]",4.0,"[-0.07401990594480434,-0.11475371383570694]",100.0,"[-0.07024347746426265,-0.16551863835989103]",4.0,"[-0.14909073193592146,0.01638279962513991]",100.0,"[0.1822632479923118,0.012041639008695369]",4.0,"[0.057743190263311185,0.0759728772351439]",100.0,"[0.15418369303371388,-0.06558461578848186]",100.0,"[-0.15924624217321376,-0.11536649170326803]",4.0,"[-0.022546759846010827,-0.1549682517845879]",4.0,"[0.001890382092997705,0.08215385727531849]",4.0,"[-0.08051537018495725,0.15506691609893972]",100.0,"[-0.13114976134539436,0.12878205464079054]",100.0,"[0.10892344349025256,-0.1658909021221521]",4.0,"[-0.17089073688485676,0.07672624047099849]",100.0,"[-0.060198310172255076,-0.07429449942741444]",100.0,"[-0.10248172815602154,0.09934867931518773]",100.0,"[0.1304825772514318,0.03734422037966187]",4.0,"[0.0854294191821625,-0.00929831591042691]",100.0,"[0.10456874271130967,0.09060118497761652]",4.0,"[-0.1953676702813629,-0.016859714498384415]",4.0,"[0.0380620738600861,-0.05625784408638121]",100.0,"[-0.042290211383385505,0.0902715970179267]",100.0,"[0.017689508087932272,0.17734127592234222]",4.0,"[0.05183680245615792,-0.18368756738621989]",4.0,"[-0.0024394799636525614,0.12680777065556773]",100.0,"[-0.16988091107226896,-0.05187182150133509]",100.0,"[-0.1198570059398711,-0.151846594531392]",100.0,"[0.13578745031645112,-0.11927500989451434]",4.0,"[0.02,0.02]",185.477,0.0,25.0,25.0,108.0,1.0,,,,,,,
,,,,,,,6677be3022288c5eff9880c0,684429f120a1434e0e1f67cc,2025-06-07_14h04.34.043,shape_ratio,2024.1.5,Win32,59.88023952,684250e4f00cb30b92d1fa88,,,,,,,,,,,185.4782,185.9769,,,186.2267,186.9105,left,,,,,,,,0.1,0.6699,,,,,,,185.977,186.2267,186.9107,"[0.0013791497248754675,0.18440051978216263]",4.0,"[0.09335999974275207,0.16164063502018094]",4.0,"[-0.15634526632552234,0.06601623995114432]",4.0,"[-0.05316511541656469,-0.1795125892025494]",100.0,"[0.11407980422012523,0.05402514964023127]",4.0,"[0.1729275701725017,-0.06095521801442295]",4.0,"[0.057343407160188556,0.10059823874404342]",100.0,"[-0.08077352639880271,0.048202648142833524]",4.0,"[0.08325539250592191,-0.0341398191246041]",4.0,"[-0.07348629116099088,0.0877251100593358]",4.0,"[-0.14644279424362075,0.011726047725154171]",4.0,"[0.10541397756348432,-0.10760840811614786]",100.0,"[-0.08234831002524795,-0.08533765330250245]",4.0,"[0.07216093974061973,-0.15997843841983747]",4.0,"[0.17300412017680986,0.0027514562703973866]",4.0,"[-0.16126359576807028,-0.06584142854940356]",4.0,"[-0.05327563939397585,-0.11459029543630068]",4.0,"[-0.16810110975659082,-0.025887644547776856]",4.0,"[0.1398123716453628,0.1189885842878317]",4.0,"[0.18696658384866158,0.05123101467814795]",4.0,"[0.056473575870009535,0.058951604830055994]",4.0,"[-0.09403741734559858,-0.130939078372127]",4.0,"[-0.01838540521113282,0.07716662858932176]",4.0,"[-0.03925665372053844,-0.050467124397270385]",4.0,"[-0.08898966541197866,0.13531241363123347]",4.0,"[0.03910506400495468,-0.060611420555289584]",4.0,"[0.0745908829194765,0.011170319036505621]",4.0,"[0.1445352410043002,-0.031388161913550844]",4.0,"[-0.0456549434610629,0.01919801128051227]",4.0,"[0.008086700126570893,-0.17660877521295482]",4.0,"[-0.14113805956491013,0.1111159590789158]",4.0,"[0.019659522751665614,0.1416730970473504]",4.0,"[0.02,0.02]",188.01,0.0,26.0,26.0,201.0,1.0,,,,,,,
,,,,,,,6677be3022288c5eff9880c0,684429f120a1434e0e1f67cc,2025-06-07_14h04.34.043,shape_ratio,2024.1.5,Win32,59.88023952,684250e4f00cb30b92d1fa88,,,,,,,,,,,188.0113,188.5101,,,188.7507,189.3276,left,,,,,,,,0.9,0.5534,,,,,,,188.5103,188.7507,189.3279,"[0.1742937840522299,0.05183547874225644]",100.0,"[-0.1412664063970909,-0.09000827367347114]",100.0,"[-0.07404380504793691,-0.14904705188418876]",100.0,"[0.09648023926797185,-0.02403211986025899]",100.0,"[-0.18223859570079284,-0.04434219725457615]",100.0,"[-0.05326676750164103,0.025479709906171544]",4.0,"[0.09030742005918618,0.04718992962658595]",100.0,"[-0.13326225639861952,0.1474059947232226]",100.0,"[-0.13170513886495988,-0.0028976598441221284]",100.0,"[-0.05268318104466936,-0.041633231807504056]",100.0,"[-0.006085948751496712,0.18934742025599693]",100.0,"[-0.011998611344352738,-0.03692598841317905]",100.0,"[0.03125965971567845,0.012743319363834205]",100.0,"[-0.1792514606212519,0.013925798397189883]",100.0,"[-0.01815830399300533,-0.07715871388743323]",100.0,"[-0.08610571144618202,-0.0029310341709420647]",100.0,"[0.04169078675984764,0.07414605235433959]",100.0,"[0.049405349445431714,-0.10544460207955579]",100.0,"[0.08299366875144355,-0.1647653059033616]",100.0,"[-0.052645295908311136,0.1657282729307564]",4.0,"[-0.07829350231033821,0.11202401110661812]",100.0,"[-0.08747857588692567,0.06787614672415788]",100.0,"[-0.05269034555084901,-0.1901082307413685]",100.0,"[0.1325188288471509,0.12999759328511162]",100.0,"[-0.1854442292228147,0.06877980329533133]",100.0,"[-0.014159951370390502,-0.12427099316005794]",100.0,"[0.0957284933457169,0.16489976228701433]",100.0,"[0.16131501475110943,-0.09020496277023066]",100.0,"[-0.1275908410117564,-0.04329349948109134]",100.0,"[0.06656265130606388,-0.06900015660148154]",4.0,"[-0.009347485960737525,0.05509262505919002]",100.0,"[0.033059282178101085,0.17190064549018305]",100.0,"[0.02,0.02]",190.4267,0.0,27.0,27.0,28.0,1.0,,,,,,,
,,,,,,,6677be3022288c5eff9880c0,684429f120a1434e0e1f67cc,2025-06-07_14h04.34.043,shape_ratio,2024.1.5,Win32,59.88023952,684250e4f00cb30b92d1fa88,,,,,,,,,,,190.428,190.9271,,,191.1782,192.0938,left,,,,,,,,0.55,0.8908,,,,,,,190.9273,191.1781,192.0941,"[0.11205502098461173,0.11869452073639256]",100.0,"[0.055051820713332776,0.11072495072753975]",100.0,"[-0.06983858030166382,0.1553717737975436]",100.0,"[0.017225934006933973,0.1357002774194767]",100.0,"[0.09307053079054092,0.05499685911433593]",100.0,"[0.03601032582230797,-0.11017759335994094]",4.0,"[-0.07262321693756321,-0.1326136258687219]",100.0,"[0.06399893048421981,0.1595080042149838]",4.0,"[-0.1225285152496951,0.030458099025479152]",100.0,"[0.1512732708074426,-0.08783479564762545]",100.0,"[-0.015303998064092916,-0.18703240760655643]",4.0,"[-0.014090736580303216,-0.11543931696362705]",4.0,"[-0.03266214419356481,-0.07344441355006477]",4.0,"[0.02495344389821086,-0.17566691471263612]",4.0,"[-0.1694081081736752,0.0577775496375605]",100.0,"[0.06342368793221675,-0.03231667371885811]",100.0,"[0.1654235903605096,0.10845656910571723]",100.0,"[0.011956127391412831,0.04037187366655116]",4.0,"[-0.09423192413013294,-0.06899815920632725]",4.0,"[0.1405505941287458,0.04559466548355063]",4.0,"[0.10667785480405367,-0.1509041451003562]",100.0,"[0.18634853061404466,-0.051462602890341616]",4.0,"[-0.13627462934709364,-0.08395514748184144]",4.0,"[0.0717722346391362,-0.0912208374003371]",100.0,"[-0.032509560334928224,-0.01046672762545512]",4.0,"[0.018053364918767065,-0.03180921304098319]",4.0,"[-0.19742060870831685,0.019305937253058156]",100.0,"[-0.10993572762223457,0.08190581852181038]",100.0,"[-0.15371872372950302,-0.1237954317761362]",4.0,"[0.18014919714917943,0.03923021374239133]",100.0,"[-0.009495117271270987,0.0959824684721974]",100.0,"[-0.06045383979359854,-0.18332960972144371]",100.0,"[0.02,0.02]",193.193,0.0,28.0,28.0,68.0,1.0,,,,,,,
,,,,,,,6677be3022288c5eff9880c0,684429f120a1434e0e1f67cc,2025-06-07_14h04.34.043,shape_ratio,2024.1.5,Win32,59.88023952,684250e4f00cb30b92d1fa88,,,,,,,,,,,193.1945,193.6931,,,193.9429,194.4599,right,,,,,,,,0.45,0.5008,,,,,,,193.6933,193.9429,194.46,"[-0.07676681321198034,-0.01570109498973534]",4.0,"[0.10725242448541049,0.13764828001797405]",4.0,"[-0.06873143924273743,-0.17342377158994499]",100.0,"[-0.19339796186940214,0.03702935507196711]",4.0,"[0.06236584159750502,-0.17194533480120966]",100.0,"[-0.1273540912032375,0.11677438347712145]",4.0,"[0.0839987718118143,0.1762177468515163]",100.0,"[0.10883685821010708,-0.1622466062278935]",4.0,"[-0.05112350400495193,0.06184712713292789]",4.0,"[0.09920230881638563,-0.07934470314078775]",4.0,"[0.16440142940126684,0.050536185021316384]",4.0,"[0.04592765945226467,-0.04773572657165684]",4.0,"[-0.12371375782812338,-0.0625417163380978]",4.0,"[-0.10260495275372199,-0.11038409004821444]",4.0,"[0.035049114915278755,-0.09530445208065785]",4.0,"[-0.08100722571804203,0.034326250231865175]",100.0,"[-0.012304171742198814,-0.10911819251923235]",100.0,"[-0.06805337684258608,0.15533890019633578]",100.0,"[0.019658557382719533,0.1926069660706762]",4.0,"[0.1572055696755367,0.0982245197637348]",4.0,"[0.02719599374616958,0.1253726651178225]",100.0,"[-0.015359063625109042,-0.16704019524438446]",4.0,"[0.00014184171188687933,0.0945989970114754]",100.0,"[0.08212770264422407,0.057894374907719794]",100.0,"[0.043572683021111315,0.07901897810631668]",4.0,"[0.027219747381804285,-0.15218414684201104]",4.0,"[0.18638259616614752,0.012714258758372987]",100.0,"[-0.1555651332705326,0.003722739853426312]",4.0,"[0.08614313085483831,0.10093568586514588]",100.0,"[-0.16905199540270943,-0.06854633604927461]",100.0,"[0.08014137810806057,0.004319075062854016]",100.0,"[-0.0906567000701173,0.08252086419658339]",100.0,"[0.02,0.02]",195.5592,0.0,29.0,29.0,142.0,1.0,,,,,,,
,,,,,,,6677be3022288c5eff9880c0,684429f120a1434e0e1f67cc,2025-06-07_14h04.34.043,shape_ratio,2024.1.5,Win32,59.88023952,684250e4f00cb30b92d1fa88,,,,,,,,,,,195.5601,196.0592,,,196.3098,196.7425,right,,,,,,,,0.45,0.417,,,,,,,196.0592,196.3097,196.7426,"[0.06420522405291539,-0.059034532218487444]",4.0,"[0.08694007264489974,-0.022479671055586837]",4.0,"[-0.04835382441713291,-0.12817752489503653]",100.0,"[0.13545022479910546,-0.04740479897788045]",4.0,"[0.14689858605912753,0.12530892370543947]",4.0,"[0.031506311555640765,-0.11947132226345696]",4.0,"[0.11724943912032454,0.03100387704946849]",4.0,"[0.09317251583920853,-0.09048321679066254]",100.0,"[-0.03032016294399674,-0.05757756538731586]",100.0,"[-0.12377687070921627,-0.15608976440594938]",4.0,"[-0.058399446366892704,0.10421510658403887]",100.0,"[0.007297104002952582,0.18488521756899412]",100.0,"[0.09789359043106768,-0.15689875344778767]",100.0,"[-0.12792059205460657,-0.04100729232848653]",4.0,"[0.03597407401379569,-0.1776817241381892]",100.0,"[0.05531055836477834,0.016667805559222645]",4.0,"[-0.06130394510475975,0.028466518648019325]",100.0,"[0.04474436262324855,0.08835679088313524]",4.0,"[-0.003345707003083239,0.14263851109510142]",4.0,"[0.07521835265502871,0.13899377897472742]",100.0,"[-0.026464424379937002,0.07764121087655913]",4.0,"[-0.15524229470784062,0.07890039356006896]",100.0,"[-0.06406310955149053,-0.18910617722676942]",100.0,"[0.18710839535246146,-0.01960101868078817]",4.0,"[0.11073875670970276,0.08795870720659196]",100.0,"[-0.18935751104750975,0.04712965805166887]",4.0,"[-0.07552088733342377,-0.045522254032006625]",100.0,"[-0.178723863304506,-0.06273489917575253]",4.0,"[0.013345125164663147,-0.0510451889061413]",4.0,"[-0.017965874965779487,-0.15668788561135452]",4.0,"[-0.1141928279136603,0.02887647622762251]",100.0,"[-0.05032205383182439,0.15098122867558955]",4.0,"[0.02,0.02]",197.8421,0.0,30.0,30.0,147.0,1.0,,,,,,,
,,,,,,,6677be3022288c5eff9880c0,684429f120a1434e0e1f67cc,2025-06-07_14h04.34.043,shape_ratio,2024.1.5,Win32,59.88023952,684250e4f00cb30b92d1fa88,,,,,,,,,,,197.843,198.343,,,198.5977,199.0603,right,,,,,,,,0.45,0.4422,,,,,,,198.3432,198.5976,199.0606,"[0.001110106611771999,0.026594200281012455]",4.0,"[0.12435337572468659,0.05539078281251486]",100.0,"[0.17817755106886832,-0.03776841916176617]",4.0,"[-0.09388710874068476,0.05964695316705958]",100.0,"[-0.029170771620706627,-0.1738146707209513]",100.0,"[0.1645242189551745,0.07207053783274006]",4.0,"[-0.15774955218043502,-0.02596116238928935]",4.0,"[-0.00033793850589835644,0.13349588641288423]",4.0,"[0.07528988992548474,0.05949695561990779]",4.0,"[0.08877502922453998,0.0029745901612846237]",4.0,"[-0.17402193343826608,0.011136585167472875]",4.0,"[0.09220035609620357,0.11770003193614276]",4.0,"[-0.05112120420645493,0.14228862873823198]",4.0,"[-0.05046990344996904,-0.025467215216447937]",100.0,"[-0.06910432694423875,0.1811723980201648]",4.0,"[-0.043530753893756234,-0.13570203625261826]",100.0,"[-0.15474917697417936,0.07034484079735093]",100.0,"[-0.12595490018627678,-0.15037527235826537]",100.0,"[-0.09497572115598683,0.14969469420057616]",100.0,"[0.06192799016423765,-0.04016708495025955]",100.0,"[-0.04833585098508227,0.047359230796381414]",4.0,"[0.04853872638439556,0.09986022531186495]",100.0,"[-0.10173203393423337,0.10051079421692402]",4.0,"[0.02210657951057884,-0.09556480842304826]",4.0,"[-0.1336051971545612,-0.10465378061542314]",100.0,"[0.18567987420707413,0.015167426402189326]",4.0,"[0.07709211714512557,0.16158591323839044]",100.0,"[-0.10812145305120728,-0.053880344503589674]",100.0,"[-0.03131189296899792,-0.09543953123885272]",4.0,"[0.013292764996493938,0.18598117400210648]",100.0,"[0.007512529814694513,-0.05202814948052216]",4.0,"[-0.14434256810445129,0.11853299893672392]",4.0,"[0.02,0.02]",200.1596,0.0,31.0,31.0,124.0,1.0,,,,,,,
,,,,,,,6677be3022288c5eff9880c0,684429f120a1434e0e1f67cc,2025-06-07_14h04.34.043,shape_ratio,2024.1.5,Win32,59.88023952,684250e4f00cb30b92d1fa88,,,,,,,,,,,200.1609,200.6596,,,200.9094,201.9768,right,,,,,,,,0.1,1.0599,,,,,,,200.6597,200.9094,201.9768,"[-0.013537134201059226,0.08362760633195619]",4.0,"[0.05592577629352979,0.07654386566935553]",4.0,"[0.009905440653153902,0.15762445886734677]",4.0,"[-0.19162958005614605,0.03232713737095566]",4.0,"[-0.07327683584730496,0.08294833944574605]",4.0,"[-0.020892386254405586,-0.05781489508105331]",100.0,"[0.037155473759119755,-0.09904613871764918]",4.0,"[-0.05230248004515069,-0.08983155551514994]",4.0,"[0.09560988501999555,0.14580606428481882]",4.0,"[-0.12860918899648618,-0.12472515226314458]",100.0,"[0.0035207387854053864,-0.15198524290652687]",4.0,"[-0.15552755936081655,-0.032975888093941835]",4.0,"[-0.11370536292463636,0.0744813315800124]",4.0,"[0.13196762641956414,-0.08624243988503404]",4.0,"[0.1808214131695859,-0.035562728571279165]",4.0,"[0.08805118332288525,-0.08327208656106948]",4.0,"[0.1014709264120711,-0.13566249002235048]",4.0,"[-0.08633218797006735,-0.05805511415474028]",4.0,"[0.06332344611132708,-0.1627584862439927]",4.0,"[0.06673460900225289,0.028090973442303737]",4.0,"[0.006584447574199137,-0.011891274347919114]",4.0,"[-0.093557240091234,0.16285846770703527]",4.0,"[0.1273847251733485,0.037123384860510825]",4.0,"[0.1537431844168192,0.06869505966504903]",4.0,"[0.04112503166636973,-0.0554099218331177]",4.0,"[-0.06189326980941427,0.033675897067571736]",4.0,"[-0.035686288075891116,0.16929343178295728]",100.0,"[0.1281072077885697,0.1000306557529696]",4.0,"[0.17566548083938502,0.004605803738583141]",4.0,"[-0.06635895490453074,-0.14202253788781605]",4.0,"[-0.12406622036330875,0.1256877842606171]",4.0,"[-0.13248812103164662,0.03862494577541172]",4.0,"[0.02,0.02]",203.0753,0.0,32.0,32.0,181.0,1.0,,,,,,,
,,,,,,,6677be3022288c5eff9880c0,684429f120a1434e0e1f67cc,2025-06-07_14h04.34.043,shape_ratio,2024.1.5,Win32,59.88023952,684250e4f00cb30b92d1fa88,,,,,,,,,,,203.0761,203.5753,,,203.8144,204.51,right,,,,,,,,0.55,0.6738,,,,,,,203.5753,203.8143,204.5104,"[-0.1884936975609002,-0.05560904591880027]",4.0,"[-0.07409696524110623,0.043983724806931815]",100.0,"[0.0961435400900103,0.10001032186339576]",100.0,"[-0.03277003878704227,-0.10290925697956234]",4.0,"[0.13366060791366866,0.05288995632549306]",4.0,"[0.17759225034773202,0.0197413065958344]",100.0,"[0.09403561471811092,-0.02114579360226059]",4.0,"[0.013747076470639798,0.003944139131796249]",4.0,"[-0.0368085679460288,-0.19478733068346507]",4.0,"[-0.03445184065555935,0.18492341686659083]",100.0,"[-0.11554655874552183,0.10210639484792763]",100.0,"[0.12318146528835029,0.1394121074994152]",100.0,"[0.0662966664613304,0.048375712629267806]",4.0,"[-0.09577629499452732,0.002054071048953513]",4.0,"[0.14257740196067767,-0.06715136403523253]",100.0,"[0.17335368293144557,0.07545468073648481]",100.0,"[0.09651067712476992,-0.11586885967690512]",4.0,"[0.05378341083759543,0.00475997433117719]",100.0,"[-0.03713104415105317,0.11378970860689831]",100.0,"[0.0517695321351411,-0.1846005697350617]",100.0,"[0.020389022763335783,0.14312174748248255]",100.0,"[-0.12358422786154726,-0.1175064450208432]",4.0,"[-0.12360082887851936,-0.045169821288842865]",4.0,"[-0.05786713677339762,-0.15574514119165855]",4.0,"[0.15788694595611322,-0.11730188758029739]",100.0,"[0.0930962299700412,0.16627096186450288]",100.0,"[-0.08805757146589212,-0.07670416416105862]",100.0,"[-0.043065940152024446,-0.012960385247520998]",100.0,"[-0.00630027783587993,0.04144964290252322]",100.0,"[-0.008269925020246843,-0.03819514264728926]",4.0,"[0.014581393354953596,-0.16514325710480401]",100.0,"[0.014890328653350871,-0.11931057040989296]",4.0,"[0.02,0.02]",205.6091,0.0,33.0,33.0,60.0,1.0,,,,,,,
,,,,,,,6677be3022288c5eff9880c0,684429f120a1434e0e1f67cc,2025-06-07_14h04.34.043,shape_ratio,2024.1.5,Win32,59.88023952,684250e4f00cb30b92d1fa88,,,,,,,,,,,205.6108,206.1091,,,206.3593,207.0253,right,,,,,,,,0.6,0.6574,,,,,,,206.1093,206.3592,207.0254,"[-0.07606643895329103,0.12354754418165845]",4.0,"[0.17444446968827457,-0.04248032849088417]",4.0,"[-0.14315971816334405,0.09272118621830072]",100.0,"[0.00985848329413583,-0.09016119880469356]",100.0,"[0.11954150109286907,-0.023170549990478455]",100.0,"[0.13825138774365275,0.05885792571936373]",100.0,"[-0.1259400429668477,0.1442680109563824]",4.0,"[-0.05640362964032833,-0.06654189674956396]",100.0,"[0.11727883787013318,0.13378068255249062]",100.0,"[-0.1018929888684153,-0.02426806710162493]",4.0,"[0.05814671976376105,-0.08497165249043584]",100.0,"[-0.08026630059600921,-0.15206247068724812]",100.0,"[0.007623451338030583,0.04011497707231152]",4.0,"[-0.04956012826852388,-0.10639458230162968]",4.0,"[0.057349912798922854,0.17072294774987354]",4.0,"[0.1268059165040235,-0.12616847752697416]",4.0,"[-0.08525396186033869,0.03751162148275838]",100.0,"[0.028947914694590713,-0.1297106186620297]",100.0,"[-0.03196456385564791,0.13028271195176672]",100.0,"[0.05521131147122816,0.03805620212804874]",4.0,"[0.13618969532792233,0.01744780514765938]",100.0,"[-0.017376658668402913,-0.007951219963919225]",4.0,"[0.0739293584414878,-0.18030609404892678]",100.0,"[-0.09679046138292931,0.08298054563567879]",4.0,"[-0.016880054315692568,0.18180942052041943]",100.0,"[-0.18734369522954653,-0.024671334268302824]",4.0,"[-0.182229569632845,0.047518723949996025]",100.0,"[-0.10683045890260123,-0.11925709809534997]",100.0,"[-0.14539563251272322,-0.047032933216878035]",100.0,"[0.027405748301213388,0.0956805592318697]",100.0,"[0.02164621622337334,-0.025903178134427805]",100.0,"[0.06605445893809823,-0.012277007468603501]",4.0,"[0.02,0.02]",208.1262,0.0,34.0,34.0,42.0,1.0,,,,,,,
,,,,,,,6677be3022288c5eff9880c0,684429f120a1434e0e1f67cc,2025-06-07_14h04.34.043,shape_ratio,2024.1.5,Win32,59.88023952,684250e4f00cb30b92d1fa88,,,,,,,,,,,208.1272,208.626,,,208.8758,209.4098,right,,,,,,,,0.1,0.525,,,,,,,208.6262,208.8757,209.4099,"[0.04169207491234815,0.1814839140242345]",4.0,"[0.0685971653713378,-0.13892204244091652]",4.0,"[0.11549600967255687,0.1170043738047355]",4.0,"[-0.08025943484008183,-0.07282616861841501]",4.0,"[0.03492887136285085,-0.022969765065992732]",4.0,"[-0.019999458686209632,-0.07010029338839745]",4.0,"[0.03842375587139337,0.08149474818562157]",4.0,"[-0.17755480663651607,0.0675504869243357]",4.0,"[0.1299483770308014,-0.09851114464486417]",4.0,"[-0.033518253283643766,0.13562726580690412]",4.0,"[-0.06468281859281655,0.09461028196445934]",100.0,"[0.09265508095116567,-0.00679072091551551]",4.0,"[0.008044715639562484,0.0077973264727280965]",4.0,"[-0.1822262514560398,-0.0005147456485733477]",4.0,"[-0.028917721761237445,-0.19545352042415295]",100.0,"[0.043802992562463255,-0.18729360890585348]",4.0,"[-0.048511071020558134,-0.1324334620945279]",100.0,"[0.1664506238229203,0.05857482200079259]",4.0,"[0.015914004040813688,-0.1459782941323358]",4.0,"[-0.18015647080782568,-0.05111369150233633]",4.0,"[0.15921592118418432,-0.021226294738040274]",4.0,"[-0.11528269229916313,-0.1199302316220767]",4.0,"[-0.11233501902636324,0.1050243907023777]",4.0,"[0.09459252946553125,0.17461705528847551]",4.0,"[-0.0974193894593265,0.029452068564966245]",4.0,"[0.08014935972256801,0.06127903184527693]",4.0,"[-0.07608274011581288,-0.018758086047404993]",4.0,"[-0.13046841951276303,-0.06669672515485445]",4.0,"[-0.0003939010016133681,0.09280035749822817]",4.0,"[-0.03282491743362825,0.17982201323045405]",4.0,"[-0.06706028758363676,-0.17800478938496492]",4.0,"[0.02914455469771211,-0.09403386975138961]",4.0,"[0.02,0.02]",210.5093,0.0,35.0,35.0,207.0,1.0,,,,,,,
,,,,,,,6677be3022288c5eff9880c0,684429f120a1434e0e1f67cc,2025-06-07_14h04.34.043,shape_ratio,2024.1.5,Win32,59.88023952,684250e4f00cb30b92d1fa88,,,,,,,,,,,210.5104,211.009,,,211.2592,211.7088,right,,,,,,,,0.6,0.4346,,,,,,,211.0091,211.2592,211.7089,"[0.11294370175955154,-0.13305710453325614]",100.0,"[-0.04980272403023683,0.17147483485419918]",4.0,"[-0.02834291602764367,-0.17274955331556863]",100.0,"[-0.08454505224052543,0.13730503023057847]",4.0,"[0.014698670944539236,0.11266914943966656]",100.0,"[0.08429456216992517,0.019326388170081962]",100.0,"[0.021537613739296198,-0.19732960503811936]",4.0,"[-0.12113690969020874,0.07417859199476215]",100.0,"[-0.18024608845255816,-0.08161220029552736]",100.0,"[0.14994109969602526,0.13168116457750265]",100.0,"[0.09481811304429552,-0.17507733880362292]",100.0,"[-0.11443386619413926,-0.08077065644854177]",100.0,"[-0.08294123226976557,-0.00544282299869567]",4.0,"[-0.08748859086871158,0.04687142450417645]",100.0,"[-0.09193453926382396,-0.1571830933931106]",4.0,"[0.04856806707468123,-0.06109199985329968]",4.0,"[0.007258037309277558,0.16575604278575445]",100.0,"[0.18484873182062142,0.03553272414117412]",100.0,"[0.05045358157452765,0.14492945913825925]",4.0,"[-0.0714672418516021,-0.047443210564644414]",4.0,"[0.12618392943008214,-0.04292299540942537]",4.0,"[0.04060481508760659,-0.13976370597388482]",4.0,"[0.010412679395822013,-0.02992540834107573]",100.0,"[0.11573873882353297,0.08597265262541166]",100.0,"[0.18468397174926085,-0.04689153225345815]",100.0,"[-0.010345612997021561,0.018692019411536365]",100.0,"[-0.18715173532106658,0.001678514797447283]",100.0,"[0.06277149479899345,-0.10112469765681323]",100.0,"[-0.1344322791161414,0.03642769947124379]",4.0,"[-0.03525192018062014,0.07300686971311841]",4.0,"[-0.1556273660492899,0.11444916037241559]",4.0,"[-0.032062788383455845,-0.09121252105482625]",100.0,"[0.02,0.02]",212.809,0.0,36.0,36.0,53.0,1.0,,,,,,,
,,,,,,,6677be3022288c5eff9880c0,684429f120a1434e0e1f67cc,2025-06-07_14h04.34.043,shape_ratio,2024.1.5,Win32,59.88023952,684250e4f00cb30b92d1fa88,,,,,,,,,,,212.8102,213.3089,,,213.5589,213.9765,right,,,,,,,,0.5,0.4008,,,,,,,213.3091,213.5587,213.9766,"[0.15606450700051047,0.11993010068557028]",100.0,"[-0.0775554611936106,0.039204483462410525]",100.0,"[0.048068542156864374,0.11845732232401812]",100.0,"[-0.13753023387666213,0.001933834605620238]",100.0,"[-0.0065645687981247995,0.19170854077192115]",100.0,"[-0.14649206882876387,0.04735625952829339]",4.0,"[0.01896435293137672,0.07471323458035829]",100.0,"[-0.08983770653098302,-0.10865009750778301]",4.0,"[0.09971694124062606,-0.13524909297343157]",100.0,"[0.04304685333991569,-0.0581460445700373]",100.0,"[-0.02345856628677949,0.08678670363515466]",100.0,"[0.039210766124819114,0.16502064287029258]",100.0,"[-0.09740039704711588,0.09949448979308469]",4.0,"[0.18221939036888377,-0.06533261379345871]",100.0,"[0.17401030300795625,0.0819957034083729]",100.0,"[0.04550259878136868,-0.13342418985703935]",4.0,"[-0.034419807240274256,-0.13626951426502198]",100.0,"[-0.14045642969688238,-0.07852923755642707]",4.0,"[0.13145363745894534,-0.02892796473710153]",4.0,"[-0.06713767208810795,-0.05029209300164322]",4.0,"[-0.054140587954239865,-0.17431191323944092]",100.0,"[0.05894091146017013,0.0017855567065001624]",4.0,"[0.03308393502087462,-0.19273086148153282]",4.0,"[-0.14955275978589092,-0.1285998018019902]",100.0,"[0.09684711830955182,0.018670564633280547]",4.0,"[0.0742559161758471,-0.17746071172539274]",4.0,"[0.18846739359762907,-0.024104422842153868]",4.0,"[-0.025037442412819563,0.046318802035765876]",4.0,"[-0.1152124121372527,-0.15415879779982727]",100.0,"[-0.09746412904129703,-0.0025945756753198383]",4.0,"[-0.1876551001325779,0.0594759483295708]",4.0,"[-0.018789591550788378,0.001583656508597557]",4.0,"[0.02,0.02]",215.0758,0.0,37.0,37.0,103.0,1.0,,,,,,,
,,,,,,,6677be3022288c5eff9880c0,684429f120a1434e0e1f67cc,2025-06-07_14h04.34.043,shape_ratio,2024.1.5,Win32,59.88023952,684250e4f00cb30b92d1fa88,,,,,,,,,,,215.0767,215.5757,,,215.8254,216.4247,right,,,,,,,,0.45,0.5911,,,,,,,215.576,215.8253,216.4248,"[-0.1720356312049407,-0.03965789495909336]",100.0,"[-0.023286159971623623,-0.05547520899282591]",100.0,"[-0.11196447034238856,0.018457499573371627]",100.0,"[0.1338605483143167,0.0929968525016921]",4.0,"[0.04396648434803068,-0.17930512020874784]",4.0,"[-0.13447635035312244,-0.12421777908435638]",100.0,"[0.047368874015610345,0.1223325316285317]",100.0,"[-0.08240205813030141,-0.0967914151085605]",4.0,"[0.010756733331385385,0.06740832812817604]",100.0,"[-0.07700608079824435,-0.17560035390879808]",4.0,"[0.07011029594331827,0.047821512892982865]",4.0,"[-0.03739854378392237,0.040310493518501474]",100.0,"[-0.15556774436795826,0.07909735804337245]",4.0,"[0.03410234552402178,-0.10673255251185507]",4.0,"[0.12100665254936026,-0.00013600496953760478]",4.0,"[0.16961045916913126,-0.09131759522620736]",4.0,"[-0.04840070354567108,0.17110517483907528]",4.0,"[-0.10623515760346985,0.07770148244094757]",4.0,"[0.09120151403956556,-0.17360159162567543]",100.0,"[0.12543861581339932,-0.1412749687109054]",4.0,"[0.18385125956836895,0.0360570042410079]",4.0,"[-0.16044960064746772,0.02831020564802092]",100.0,"[-0.0075950556429848866,-0.004405056919891654]",4.0,"[-0.15448348659589012,0.12437003622207053]",100.0,"[-0.11683031285195622,0.16145401424067163]",100.0,"[0.08547055523538447,-0.07459777951721376]",100.0,"[0.1728576080633464,-0.024100600828084795]",4.0,"[0.03625614025058181,-0.05799631513610272]",4.0,"[0.12730520087573247,-0.09650246332784147]",4.0,"[-0.0025328529395957505,0.13429374889541917]",100.0,"[0.03152019006429958,0.014279611066693804]",100.0,"[0.08599292707240343,-0.12923381543131493]",4.0,"[0.02,0.02]",217.5245,0.0,38.0,38.0,139.0,1.0,,,,,,,
,,,,,,,6677be3022288c5eff9880c0,684429f120a1434e0e1f67cc,2025-06-07_14h04.34.043,shape_ratio,2024.1.5,Win32,59.88023952,684250e4f00cb30b92d1fa88,,,,,,,,,,,217.5253,218.0246,,,218.2753,218.6248,right,,,,,,,,0.4,0.3338,,,,,,,218.0247,218.2752,218.6251,"[-0.042021441791065685,0.028851887545854733]",4.0,"[-0.062169213429209044,-0.1590836682408519]",4.0,"[-0.10595634729004073,0.16542996689260536]",4.0,"[-0.17360877991766682,0.08746738961946542]",4.0,"[-0.0643645537305385,0.16863988969256516]",4.0,"[-0.1005877067686328,-0.08987440222075004]",100.0,"[-0.05188653640766013,0.11692136098628013]",100.0,"[-0.0706189172963686,-0.0505282504107468]",100.0,"[-0.14792515507957074,-0.021948802624408216]",100.0,"[0.09804271926490499,-0.05803985400063326]",4.0,"[-0.19396694241766108,0.041330441880474786]",100.0,"[-0.10474279647736387,-0.15469396813606287]",100.0,"[0.06044590807977585,-0.0814630892575921]",100.0,"[0.15114412031677,0.0352209326497529]",4.0,"[0.1602488087076847,0.09801349492150445]",4.0,"[-0.027765405174661435,-0.18472581756311524]",4.0,"[0.01353844710837558,0.12720108840761518]",100.0,"[-0.03278214472386255,-0.0967521506889765]",4.0,"[0.0022026369161099965,-0.060249294189967925]",4.0,"[0.09184227567183645,0.12195148750520356]",100.0,"[-0.11779655164656752,0.05951522755292768]",4.0,"[0.012533420364247164,0.19699431575112933]",4.0,"[-0.16295862045150913,-0.10918981277879575]",100.0,"[0.06124540108848746,0.09182049048357532]",4.0,"[-0.1408096811997375,-0.07448255899985301]",4.0,"[0.05346667700655172,0.0046660183982049006]",4.0,"[0.016814306439909547,-0.13500015919905034]",100.0,"[0.14101993696970067,-0.025084082119441825]",4.0,"[0.005667257526403151,0.07584709459533663]",100.0,"[0.13165229410754045,-0.1024023116255613]",4.0,"[-0.11083478060551726,0.1116876973435998]",4.0,"[0.09176368313383436,0.026179227293438963]",100.0,"[0.02,0.02]",219.7244,0.0,39.0,39.0,171.0,1.0,,,,,,,
,,,,,,,6677be3022288c5eff9880c0,684429f120a1434e0e1f67cc,2025-06-07_14h04.34.043,shape_ratio,2024.1.5,Win32,59.88023952,684250e4f00cb30b92d1fa88,,,,,,,,,,,219.7252,220.2244,,,220.4752,221.4412,left,,,,,,,,0.4,0.9507,,,,,,,220.2244,220.4751,221.4413,"[-0.05666817941489092,0.1737721477423077]",4.0,"[-0.02175818966960259,-0.12972731097003484]",4.0,"[0.06526451618495585,-0.03342356088293546]",100.0,"[-0.07664536914815825,0.12623081181210574]",100.0,"[-0.002823362570212872,0.06076251882945549]",4.0,"[0.09010307778912013,0.12170851390416913]",100.0,"[0.10157951871230221,0.048286145448655435]",4.0,"[0.1488040753820707,0.016024246887121812]",4.0,"[-0.0007352907553118078,-0.170399870070378]",4.0,"[-0.07911498955292343,-0.12907240020068372]",4.0,"[0.07124569252988848,0.16722104186579714]",4.0,"[0.16375222809472828,0.10480936116932643]",4.0,"[-0.04036523058442783,-0.0800352684081534]",4.0,"[-0.04918093671265515,0.05268050370555879]",100.0,"[0.08209935384786755,0.010322667488651988]",100.0,"[-0.135312273256853,-0.0010392653088813623]",100.0,"[0.08272937857357894,-0.17990769910816223]",4.0,"[0.13160912239569098,0.14982263911771118]",4.0,"[-0.14751924795964858,-0.12771274152376233]",4.0,"[-0.008105455026433318,-0.04785352695166872]",4.0,"[-0.01864063964728244,0.019700520008401275]",100.0,"[0.0397765363996722,0.02921959539476549]",4.0,"[-0.11653100775991898,-0.08452200325050711]",100.0,"[0.035516188838121625,-0.1426999813313442]",4.0,"[-0.1828353045407682,-0.0734274136608804]",100.0,"[-0.1605885321122428,0.108617677275522]",100.0,"[0.0030681482795306227,0.12999274976899536]",4.0,"[0.1708305254512338,-0.01927067319079333]",4.0,"[-0.0075692397165585705,0.18081006049318102]",100.0,"[-0.0877670997696666,0.013365486037501524]",4.0,"[-0.0968727334865705,-0.03756512013909761]",100.0,"[0.09498398881782703,-0.09929467996831286]",100.0,"[0.02,0.02]",222.541,0.0,40.0,40.0,152.0,1.0,,,,,,,
,,,,,,,6677be3022288c5eff9880c0,684429f120a1434e0e1f67cc,2025-06-07_14h04.34.043,shape_ratio,2024.1.5,Win32,59.88023952,684250e4f00cb30b92d1fa88,,,,,,,,,,,222.5418,223.0409,,,223.2918,223.8411,left,,,,,,,,0.9,0.534,,,,,,,223.0409,223.2917,223.8413,"[-0.1343662110988991,-0.05250674001891981]",100.0,"[-0.15589983333541363,0.048094757982397325]",100.0,"[-0.059300698503955585,0.17548790397863653]",100.0,"[-0.1316473099643116,0.12243379926150619]",4.0,"[-0.044968875972278784,0.039693012274341515]",100.0,"[-0.0042441744313394284,0.06213807499973877]",100.0,"[0.04230037284526895,0.17861870896833723]",100.0,"[0.08547399325454531,-0.128792071621186]",100.0,"[-0.03667299793344036,-0.08897142650274135]",100.0,"[0.12468575814578942,0.12805856782439548]",100.0,"[-0.04925130037460485,-0.048236127610097254]",100.0,"[-0.01837065398844696,0.008659150777000435]",100.0,"[-0.0031929505486124644,0.18185374825630263]",4.0,"[0.08521430265996882,-0.04161098810604123]",4.0,"[0.13569684844358584,-0.02809434183015059]",100.0,"[-0.0940960117734298,0.1074359591264482]",100.0,"[0.07751622148038471,0.13477010040044235]",100.0,"[-0.10767041093158249,0.004745872294045536]",100.0,"[-0.037012227298653146,-0.17204181727161305]",100.0,"[0.1687827962352352,-0.081421579932505]",100.0,"[0.0163750735432353,0.11218295203513351]",100.0,"[0.02933788697089483,-0.1027561577598896]",100.0,"[0.14580718217991548,0.01841491730688261]",100.0,"[0.051907827678116615,0.0856031854129527]",100.0,"[0.02202872629464327,-0.14776328918750073]",100.0,"[0.13156292058322,-0.10740962399736925]",100.0,"[-0.08963194885804604,0.058447776421740885]",100.0,"[-0.09563982672688626,-0.06361940112647406]",100.0,"[-0.006154506550827161,-0.036736161201517424]",100.0,"[0.054400918270386935,0.03614694095706541]",100.0,"[-0.17209852381194665,-0.019950880382267347]",100.0,"[-0.07916918129505694,-0.1663110028342311]",100.0,"[0.02,0.02]",224.9409,0.0,41.0,41.0,24.0,1.0,,,,,,,
,,,,,,,6677be3022288c5eff9880c0,684429f120a1434e0e1f67cc,2025-06-07_14h04.34.043,shape_ratio,2024.1.5,Win32,59.88023952,684250e4f00cb30b92d1fa88,,,,,,,,,,,224.9418,225.4409,,,225.6795,226.5471,right,,,,,,,,0.6,0.851,,,,,,,225.4409,225.6794,226.5473,"[-0.1126310418124861,-0.10525068701843936]",4.0,"[0.03251456075710728,-0.1495584404835893]",4.0,"[-0.11396528587617077,-0.0631878598966168]",100.0,"[0.05135556813779317,-0.09564842712848795]",4.0,"[0.016015817292111347,-0.012400483710204798]",4.0,"[-0.1553805044485696,-0.009242893926758247]",4.0,"[-0.16260112731869486,-0.0962359116205904]",4.0,"[-0.047703875042159324,-0.12501952179923917]",100.0,"[0.01621353841943602,-0.1906456417465694]",4.0,"[-0.02634308070284596,-0.19564724148833657]",4.0,"[0.15897258168918166,0.08503448619776577]",100.0,"[0.0934627455716332,0.052147776896866706]",4.0,"[0.11573843596303042,0.1300319049032766]",100.0,"[-0.18959899131109262,-0.04941318132397783]",4.0,"[-0.10305412046418139,-0.1653736845857606]",100.0,"[-0.06467589559115058,0.017631960593126078]",4.0,"[-0.03234599571081979,-0.0703247875577082]",100.0,"[-0.19070977881597567,0.048089510857501946]",100.0,"[0.05379766206339847,0.12423874714099963]",100.0,"[0.1618350040184269,-0.11321031596894494]",4.0,"[0.024901322370763687,-0.05182155651583255]",100.0,"[0.0012917308909345504,0.19561808707563116]",100.0,"[-0.11869422018050742,0.15076789949901379]",100.0,"[-0.05226159592312061,0.15588035758165866]",100.0,"[0.1109974105439836,-0.03625640610284585]",100.0,"[-0.10436809327952629,0.10798166702336258]",100.0,"[0.0036166216501118055,0.08585314584194546]",100.0,"[0.1631719860802956,-0.017910564806629545]",100.0,"[-0.011710997730406809,0.041087261425453554]",100.0,"[0.0890267671831895,-0.07033133777219948]",100.0,"[-0.1239882755363466,0.07247380262608497]",100.0,"[-0.0673899536052363,0.08210056609161705]",4.0,"[0.02,0.02]",227.6416,0.0,42.0,42.0,55.0,1.0,,,,,,,
,,,,,,,6677be3022288c5eff9880c0,684429f120a1434e0e1f67cc,2025-06-07_14h04.34.043,shape_ratio,2024.1.5,Win32,59.88023952,684250e4f00cb30b92d1fa88,,,,,,,,,,,227.6429,228.1415,,,228.3915,229.2247,right,,,,,,,,0.55,0.825,,,,,,,228.1417,228.3914,229.2249,"[-0.08682211636626123,-0.15484503688893242]",4.0,"[0.04650804723588812,0.17759505364256553]",4.0,"[0.0837652559383576,-0.09187069959972745]",100.0,"[-0.057630366303065055,0.12555165168047466]",100.0,"[-0.06955437498221903,-0.04980571687131499]",100.0,"[0.026825987030596868,0.02566573159486208]",100.0,"[0.031442822135888525,0.07113254160370108]",100.0,"[-0.113121279209725,0.12611972136831956]",100.0,"[0.03642661947469289,-0.0460605918138132]",100.0,"[0.1629468618332018,-0.024231793470389767]",100.0,"[-0.0864511053107127,0.020857587310287213]",4.0,"[-0.19493000520246423,-0.03442940545428985]",4.0,"[0.12209120718174049,-0.05154729234636625]",4.0,"[-0.1540891146171662,-0.016839341356023958]",100.0,"[0.08587836981139563,0.15128135848657925]",100.0,"[-0.12047260948050395,-0.06623850168026689]",4.0,"[-0.02666068135235888,0.1692267860986873]",4.0,"[-0.053600535948185,-0.0037054056064664723]",4.0,"[0.0677412128387311,0.024506365493360223]",4.0,"[0.12417667809568395,-0.1509695982939184]",100.0,"[0.14656751164907023,0.08754976260153885]",100.0,"[-0.028842669920835087,0.0917576115599148]",4.0,"[-0.08059878018986712,0.07854218901085518]",4.0,"[-0.02286485241947565,-0.1968647119962421]",4.0,"[-0.03893277545456335,-0.07828128061312685]",4.0,"[0.05605745019018762,0.10829205759142449]",100.0,"[-0.15173007237707395,0.10957997597252543]",4.0,"[-0.015134125390598708,-0.045072793579166534]",100.0,"[0.016511540106019414,-0.15581232013814642]",100.0,"[0.11034208603749418,0.050582940837883866]",100.0,"[-0.16617646430915833,0.04558904024104799]",100.0,"[0.06218760905982789,-0.17909334261802076]",100.0,"[0.02,0.02]",230.3239,0.0,43.0,43.0,78.0,1.0,,,,,,,
,,,,,,,6677be3022288c5eff9880c0,684429f120a1434e0e1f67cc,2025-06-07_14h04.34.043,shape_ratio,2024.1.5,Win32,59.88023952,684250e4f00cb30b92d1fa88,,,,,,,,,,,230.3248,230.8239,,,231.0637,231.5086,right,,,,,,,,0.4,0.4207,,,,,,,230.824,231.0636,231.5088,"[-0.022991024380784496,0.06464975589291011]",4.0,"[-0.07207847546553452,0.09839346643943446]",4.0,"[0.1521667918449142,0.051766852906176226]",4.0,"[0.13564421812014668,-0.0058098008698245504]",4.0,"[-0.1047890394072156,0.1661762897172795]",100.0,"[-0.04474314418503111,0.17904347775522697]",4.0,"[-0.04225685545815811,-0.005217245114159153]",4.0,"[-0.09240587364778105,-0.0028638690508052]",4.0,"[0.06634510720511164,0.02010709638509539]",100.0,"[0.14099560707907852,0.11200094273614015]",100.0,"[-0.1654548073652449,-0.07242973575409307]",100.0,"[-0.052358697505048554,-0.15413458601798188]",4.0,"[0.09203680049766765,-0.05466232141817545]",100.0,"[0.08961550090307609,0.05272730925080968]",100.0,"[-0.17934579087083266,0.036092392639134566]",100.0,"[0.021822010182546665,0.03855445436450575]",4.0,"[0.15835645991497072,-0.059047844404680416]",100.0,"[-0.1224105966721031,-0.04997657864726819]",4.0,"[0.028971543730817895,-0.07984664356297355]",4.0,"[-0.01565085030588749,-0.09551438526161067]",4.0,"[0.08952296451911648,-0.11506638181185613]",4.0,"[0.01016517359602698,-0.19653490288689926]",4.0,"[0.05817316576070003,0.17429532631147]",4.0,"[0.0854637818217906,0.1301453623564464]",100.0,"[0.16831416979378877,-0.09936240856681064]",4.0,"[-0.10859587136018747,0.06272682484719665]",100.0,"[-0.004301003625880684,0.17894297710483253]",4.0,"[-0.17289570109753918,-0.01818919896542614]",100.0,"[-0.07967946411728939,-0.04550601768586239]",100.0,"[-0.06834131021634555,0.05513272324964204]",4.0,"[-0.07389878093264719,0.1405872412087017]",100.0,"[0.11449580135396684,-0.16222609384523373]",4.0,"[0.02,0.02]",232.6082,0.0,44.0,44.0,162.0,1.0,,,,,,,
,,,,,,,6677be3022288c5eff9880c0,684429f120a1434e0e1f67cc,2025-06-07_14h04.34.043,shape_ratio,2024.1.5,Win32,59.88023952,684250e4f00cb30b92d1fa88,,,,,,,,,,,232.6094,233.1086,,,233.3579,234.0405,left,,,,,,,,0.6,0.6747,,,,,,,233.109,233.3578,234.0407,"[0.08585828320140872,0.14716183023608181]",100.0,"[0.0692014707327275,-0.10262604804030874]",4.0,"[0.14930170063886436,-0.045660854739194644]",4.0,"[0.09418412380340765,0.09898132102132937]",4.0,"[0.13486613559383745,0.009188948504667087]",4.0,"[-0.025473990342748252,0.0821312600732276]",100.0,"[0.09874341118002782,-0.1465844328847178]",100.0,"[-0.17303834105442223,-0.01608073436372863]",100.0,"[-0.02012636608847146,-0.11889598624946329]",100.0,"[-0.01284609176299524,-0.04163887003203192]",100.0,"[0.06809906095293598,-0.05564912096177032]",100.0,"[0.14851111629588504,0.04825100499931114]",100.0,"[-0.08055801327323318,-0.012492432072003342]",100.0,"[-0.06013374758962464,-0.11693383031235201]",4.0,"[-0.07820791325120276,-0.17396989951962416]",100.0,"[0.028501694089140273,-0.06269041814161365]",100.0,"[-0.18239394025753694,0.05662097942255466]",100.0,"[0.14941321392155654,-0.12891236390430597]",100.0,"[0.022920992367877122,0.11814698772455258]",4.0,"[0.008503540654441236,-0.19739376994109037]",100.0,"[-0.09467610539834866,0.1392042986798555]",100.0,"[-0.012118777712964006,0.024120553215859274]",4.0,"[-0.018163113724696922,0.17421171365348878]",4.0,"[0.045373232351742725,-0.15657097688422597]",4.0,"[0.11480796532154593,-0.10420723171813276]",4.0,"[-0.05736572062811759,0.12092183711835049]",100.0,"[0.09921718019524808,-0.012082065360499447]",100.0,"[-0.11615632922892175,-0.14318105098019537]",4.0,"[-0.1259252944573553,-0.02126423699879162]",4.0,"[0.04382962752249736,0.19205966291515972]",4.0,"[-0.18712438555966668,-0.06437861447792564]",100.0,"[-0.14783258662964022,0.09106571244857554]",100.0,"[0.02,0.02]",235.1403,0.0,45.0,45.0,44.0,1.0,,,,,,,
,,,,,,,6677be3022288c5eff9880c0,684429f120a1434e0e1f67cc,2025-06-07_14h04.34.043,shape_ratio,2024.1.5,Win32,59.88023952,684250e4f00cb30b92d1fa88,,,,,,,,,,,235.1413,235.6403,,,235.8909,236.3256,right,,,,,,,,0.45,0.4173,,,,,,,235.6403,235.8908,236.3257,"[0.11011579296969994,0.031134582479467734]",100.0,"[0.05133862430662976,0.06120556912326535]",100.0,"[-0.1655080489264227,0.089728303987503]",100.0,"[0.002365425493671954,-0.05943252256234585]",100.0,"[0.09192990440217322,-0.10748989497018804]",4.0,"[-0.008411098043861769,0.04072919610527876]",4.0,"[-0.14367977060386602,-0.06273234790611239]",100.0,"[-0.07651616700463945,0.1329679953194001]",100.0,"[-0.060886987572919646,-0.09086983787089503]",100.0,"[0.026543626751753497,0.12265062755359625]",4.0,"[-0.18953808888801818,0.027644776123684614]",4.0,"[-0.04868240958733102,-0.007486936350634538]",4.0,"[-0.11876199198989554,-0.010770399121462168]",4.0,"[-0.05036488795244382,0.17147798988584784]",4.0,"[-0.1281811149145527,0.0555112319202526]",100.0,"[0.04744662150630074,0.17211921422210352]",4.0,"[0.03896026875208817,-0.015837289501006883]",4.0,"[0.179368411337972,0.01208943340283514]",4.0,"[-0.04436002570810883,0.09281831171501968]",100.0,"[-0.1197644362754734,-0.12365024622012818]",4.0,"[0.051740247910861195,-0.06436030154880172]",4.0,"[0.13251627626674584,0.14326761349062198]",100.0,"[-0.09417187709366502,-0.06313351159378046]",4.0,"[-0.0014717513798862814,-0.004518558216606258]",4.0,"[0.07049884079652931,0.10405818842064193]",100.0,"[-0.021044092829594428,-0.1835164062499726]",4.0,"[-0.0056445706998847055,0.18083377510568827]",4.0,"[0.19512718930594308,-0.042890571903059845]",100.0,"[-0.08131306102479532,-0.18253975364621874]",4.0,"[0.03311387065975921,-0.1580996220512622]",4.0,"[-0.07831772853444928,0.04188238878837711]",100.0,"[0.13339309818605088,-0.04431620263187472]",100.0,"[0.02,0.02]",237.4246,0.0,46.0,46.0,143.0,1.0,,,,,,,
,,,,,,,6677be3022288c5eff9880c0,684429f120a1434e0e1f67cc,2025-06-07_14h04.34.043,shape_ratio,2024.1.5,Win32,59.88023952,684250e4f00cb30b92d1fa88,,,,,,,,,,,237.4257,237.9247,,,238.175,238.7737,left,,,,,,,,0.55,0.5834,,,,,,,237.9249,238.175,238.7739,"[-0.05838019010107449,-0.14615369620141927]",100.0,"[0.14230915011454198,-0.11722537480321531]",100.0,"[0.15801977035712833,0.04268472191791538]",100.0,"[0.014707246032235248,0.04269240583588941]",100.0,"[-0.06516504450582544,-0.030047043324333167]",4.0,"[-0.012894742638512004,0.07411550683266094]",100.0,"[-0.12004787943149846,-0.009646499547969927]",4.0,"[-0.035671285210277924,0.008571723461904898]",100.0,"[0.08005242669779493,0.11056887207068855]",100.0,"[0.09903780197807929,0.005556025858506384]",4.0,"[0.1774071689759547,-0.024219811578982453]",4.0,"[-0.14990419891062956,0.0376792467071382]",100.0,"[-0.10995400608747159,-0.13163926648206314]",100.0,"[-0.08845532574716886,-0.08183783869301864]",100.0,"[-0.006029470123924551,-0.16382975228587504]",4.0,"[-0.04877630926073083,0.11372293651988447]",4.0,"[0.036672124017534516,-0.15668754590507306]",100.0,"[0.05970274931285613,-0.10354264539832805]",100.0,"[0.10697366116188654,0.15391506066184052]",100.0,"[-0.0643769097128293,0.1849832100749135]",4.0,"[-0.08877033398914057,0.038433015542602846]",100.0,"[-0.1838563631866224,-0.06794053085865011]",4.0,"[0.01572098113602681,-0.0760693714685979]",4.0,"[-0.12340824902572975,0.09801791396735286]",4.0,"[-0.016989523259344986,0.18061416763754182]",4.0,"[0.04145023495889386,-0.02333211247303142]",100.0,"[0.10333164924226851,-0.059936784976042747]",100.0,"[0.12461374397635147,0.07980299612076384]",100.0,"[0.11408259100069808,-0.15819793447523697]",4.0,"[0.04597120088275365,0.06852642738953799]",4.0,"[-0.02976938639601966,-0.04920550040092807]",100.0,"[0.03266093535979031,0.11101239346647164]",4.0,"[0.02,0.02]",239.8736,0.0,47.0,47.0,71.0,1.0,,,,,,,
,,,,,,,6677be3022288c5eff9880c0,684429f120a1434e0e1f67cc,2025-06-07_14h04.34.043,shape_ratio,2024.1.5,Win32,59.88023952,684250e4f00cb30b92d1fa88,,,,,,,,,,,239.8749,240.3734,,,240.6246,241.2568,left,,,,,,,,0.55,0.6232,,,,,,,240.3735,240.6245,241.257,"[-0.0038204313932259895,-0.010818052717013868]",100.0,"[0.06408581290639079,-0.10941974733179367]",4.0,"[-0.0715235681431738,0.18036684833231054]",100.0,"[-0.18260805770422192,0.06296507147176837]",100.0,"[0.021652247512162867,-0.043473922169561134]",100.0,"[0.02691255582392083,-0.16920017893696915]",100.0,"[-0.1261464997191899,-0.021225784776595275]",4.0,"[0.12619591262359,0.12510456285342367]",4.0,"[0.03030973187522469,0.1787606645895786]",4.0,"[-0.11274681047788751,0.021946815606801475]",100.0,"[0.055726125042883476,0.03724970866745563]",100.0,"[-0.010672094174240183,0.0772333429259397]",4.0,"[-0.12430878501558937,0.096062786111481]",4.0,"[-0.08142634948499311,-0.031897250272493856]",4.0,"[0.10577443757147928,-0.08833506451974298]",100.0,"[0.17593002227148255,-0.012405430903251285]",100.0,"[-0.17356237592534637,-0.0017922190672743188]",100.0,"[-0.031990833658030966,-0.06561484334855477]",100.0,"[0.07052387287457709,0.1381751475095547]",100.0,"[0.11701590494214467,-0.005115548494281111]",100.0,"[-0.14412451890673544,-0.08334661724023797]",100.0,"[0.1424430843504978,0.06598584277544814]",4.0,"[-0.11037521016107509,-0.16674891710825615]",100.0,"[-0.05263431113052865,0.037481313226712935]",100.0,"[-0.0028693761655905307,-0.13414951522826707]",4.0,"[0.03480955999833054,0.08787137116131792]",4.0,"[0.12628712703945316,-0.12341040525583481]",4.0,"[-0.1055264386307307,-0.1029102781498675]",4.0,"[0.019071953884397783,0.12650050632503565]",100.0,"[0.07714086700105008,-0.057568545831618134]",4.0,"[-0.025795981124203126,0.14446043130862168]",4.0,"[0.1646134774572117,0.10695540261812622]",100.0,"[0.02,0.02]",242.3568,0.0,48.0,48.0,72.0,1.0,,,,,,,
,,,,,,,6677be3022288c5eff9880c0,684429f120a1434e0e1f67cc,2025-06-07_14h04.34.043,shape_ratio,2024.1.5,Win32,59.88023952,684250e4f00cb30b92d1fa88,,,,,,,,,,,242.3577,242.8566,,,243.112,243.5748,right,,,,,,,,0.1,0.4365,,,,,,,242.8567,243.112,243.5752,"[0.1650970793339629,-0.0952888903651899]",4.0,"[-0.19681033098046877,0.011060657676439344]",4.0,"[0.11564726313028525,0.15573268962467673]",4.0,"[0.09957065798363088,0.04161811464372216]",4.0,"[0.06731514296836712,0.1356626925111827]",100.0,"[0.1721844814679859,-0.033754893682745174]",100.0,"[0.10227238554987955,-0.11028372256212894]",4.0,"[0.00703150654187672,-0.13759950091553624]",4.0,"[-0.0018709289067424463,0.01291974963768232]",4.0,"[-0.11192904679499097,0.07788099051665184]",4.0,"[-0.13672945569434178,-0.053135632776759464]",4.0,"[-0.05898260150818083,-0.045044389854406536]",100.0,"[0.010478583047607029,-0.07337279319745925]",4.0,"[-0.005544330896008976,0.13094780020643318]",4.0,"[-0.03945641751275421,-0.09181114807659557]",4.0,"[-0.11866236266311783,-0.15715313457992341]",4.0,"[0.05761820837074638,-0.044815208368213226]",4.0,"[-0.06630435042330932,0.13802638031965467]",4.0,"[-0.08257291186358609,-0.12311065791677538]",4.0,"[0.17684485231810657,0.03562307557321755]",4.0,"[-0.07577582055785959,-0.1678206612769967]",4.0,"[0.046545240574246124,0.06341940219279162]",4.0,"[-0.005174148960846229,-0.17977672022602229]",4.0,"[0.11101074701028914,-0.024680351867127404]",4.0,"[0.07198864636020198,-0.15468608454044935]",4.0,"[-0.04592541491967333,0.0493172078931536]",4.0,"[-0.17042980791557977,-0.02528096577917397]",4.0,"[0.15882861104279025,0.07184141206176521]",4.0,"[-0.1066831066797668,0.1434729465642862]",4.0,"[-0.07201399261434872,0.01872440539120815]",4.0,"[-0.11981526365336755,0.001806623012580294]",4.0,"[0.028895989399016355,0.19143767075917356]",4.0,"[0.02,0.02]",244.6743,0.0,49.0,49.0,184.0,1.0,,,,,,,
