right,left,explain.started,explain.stopped,key_resp_3.keys,key_resp_3.rt,key_resp_3.duration,participant,session,date,expName,psychopyVersion,OS,frameRate,study_id,explain_2.started,explain_2.stopped,key_resp_4.keys,key_resp_4.rt,key_resp_4.duration,explain_3.started,explain_3.stopped,key_resp_5.keys,key_resp_5.rt,key_resp_5.duration,fixation.started,fixation.stopped,practice.started,practice.stopped,response.started,response.stopped,key_resp.keys,feedback.started,feedback.stopped,trials_2.thisRepN,trials_2.thisTrialN,trials_2.thisN,trials_2.thisIndex,trials_2.ran,dot_ratio,key_resp.rt,key_resp.duration,explain_4.started,explain_4.stopped,key_resp_6.keys,key_resp_6.rt,key_resp_6.duration,dotDisplay.started,dotDisplay.stopped,ITI.started,polygon_1.pos,polygon_1.edges,polygon_2.pos,polygon_2.edges,polygon_3.pos,polygon_3.edges,polygon_4.pos,polygon_4.edges,polygon_5.pos,polygon_5.edges,polygon_6.pos,polygon_6.edges,polygon_7.pos,polygon_7.edges,polygon_8.pos,polygon_8.edges,polygon_9.pos,polygon_9.edges,polygon_10.pos,polygon_10.edges,polygon_11.pos,polygon_11.edges,polygon_12.pos,polygon_12.edges,polygon_13.pos,polygon_13.edges,polygon_14.pos,polygon_14.edges,polygon_15.pos,polygon_15.edges,polygon_16.pos,polygon_16.edges,polygon_17.pos,polygon_17.edges,polygon_18.pos,polygon_18.edges,polygon_19.pos,polygon_19.edges,polygon_20.pos,polygon_20.edges,polygon_21.pos,polygon_21.edges,polygon_22.pos,polygon_22.edges,polygon_23.pos,polygon_23.edges,polygon_24.pos,polygon_24.edges,polygon_25.pos,polygon_25.edges,polygon_26.pos,polygon_26.edges,polygon_27.pos,polygon_27.edges,polygon_28.pos,polygon_28.edges,polygon_29.pos,polygon_29.edges,polygon_30.pos,polygon_30.edges,polygon_31.pos,polygon_31.edges,polygon_32.pos,polygon_32.edges,dot_size,ITI.stopped,trials.thisRepN,trials.thisTrialN,trials.thisN,trials.thisIndex,trials.ran,break_2.started,break_2.stopped,trials_3.thisRepN,trials_3.thisTrialN,trials_3.thisN,trials_3.thisIndex,trials_3.ran
subject chose diamond,subject chose dot,0.0019,65.7722,space,50.7459,,66781db404eab5e142f849d9,684429353c5b0407a0aaead4,2025-06-07_14h01.17.429,shape_ratio,2024.1.5,Win32,59.88023952,684250e4f00cb30b92d1fa88,,,,,,,,,,,,,,,,,,,,,,,,,,,,,,,,,,,,,,,,,,,,,,,,,,,,,,,,,,,,,,,,,,,,,,,,,,,,,,,,,,,,,,,,,,,,,,,,,,,,,,,,,,,,,,,,,
,,,,,,,66781db404eab5e142f849d9,684429353c5b0407a0aaead4,2025-06-07_14h01.17.429,shape_ratio,2024.1.5,Win32,59.88023952,684250e4f00cb30b92d1fa88,65.7729,120.9829,space,25.1883,,,,,,,,,,,,,,,,,,,,,,,,,,,,,,,,,,,,,,,,,,,,,,,,,,,,,,,,,,,,,,,,,,,,,,,,,,,,,,,,,,,,,,,,,,,,,,,,,,,,,,,,,,,,,
,,,,,,,66781db404eab5e142f849d9,684429353c5b0407a0aaead4,2025-06-07_14h01.17.429,shape_ratio,2024.1.5,Win32,59.88023952,684250e4f00cb30b92d1fa88,,,,,,120.9834,126.1793,space,2.1845,,,,,,,,,,,,,,,,,,,,,,,,,,,,,,,,,,,,,,,,,,,,,,,,,,,,,,,,,,,,,,,,,,,,,,,,,,,,,,,,,,,,,,,,,,,,,,,,,,,,,,,,
,,,,,,,66781db404eab5e142f849d9,684429353c5b0407a0aaead4,2025-06-07_14h01.17.429,shape_ratio,2024.1.5,Win32,59.88023952,684250e4f00cb30b92d1fa88,,,,,,,,,,,126.253,126.6995,126.7002,126.9437,126.944,128.4338,,128.4343,129.5374,0.0,0.0,0.0,1.0,1.0,0.8,,,,,,,,,,,,,,,,,,,,,,,,,,,,,,,,,,,,,,,,,,,,,,,,,,,,,,,,,,,,,,,,,,,,,,,,,,,,,,,,,,,,,,,,
,,,,,,,66781db404eab5e142f849d9,684429353c5b0407a0aaead4,2025-06-07_14h01.17.429,shape_ratio,2024.1.5,Win32,59.88023952,684250e4f00cb30b92d1fa88,,,,,,,,,,,129.5399,130.0389,130.0391,130.2793,130.2795,131.0114,right,131.0117,132.1118,0.0,1.0,1.0,0.0,1.0,0.2,0.7186,,,,,,,,,,,,,,,,,,,,,,,,,,,,,,,,,,,,,,,,,,,,,,,,,,,,,,,,,,,,,,,,,,,,,,,,,,,,,,,,,,,,,,,
,,,,,,,66781db404eab5e142f849d9,684429353c5b0407a0aaead4,2025-06-07_14h01.17.429,shape_ratio,2024.1.5,Win32,59.88023952,684250e4f00cb30b92d1fa88,,,,,,,,,,,,,,,,,,,,,,,,,,,,132.113,136.7904,space,1.6589,,,,,,,,,,,,,,,,,,,,,,,,,,,,,,,,,,,,,,,,,,,,,,,,,,,,,,,,,,,,,,,,,,,,,,,,,,,,,,,,,,
,,,,,,,66781db404eab5e142f849d9,684429353c5b0407a0aaead4,2025-06-07_14h01.17.429,shape_ratio,2024.1.5,Win32,59.88023952,684250e4f00cb30b92d1fa88,,,,,,,,,,,136.8416,137.2931,,,137.5448,138.0809,left,,,,,,,,0.45,0.5282,,,,,,,137.2942,137.5447,138.0821,"[0.07181121837675733,-0.04761818556516453]",100.0,"[0.10199399433953124,-0.1563166527177413]",4.0,"[-0.17401640612378924,-0.012701331338593504]",4.0,"[0.17138927044053243,-0.01934130834854489]",100.0,"[-0.0025289159539112717,-0.05007462257248513]",4.0,"[-0.03054598556911005,-0.13683384051981856]",100.0,"[0.005468090461232575,-0.16913216730390432]",4.0,"[-0.03544797053038266,0.02438739267943521]",100.0,"[-0.06484753168298396,0.11412356388419162]",100.0,"[0.029930150213691085,-0.09350353236724714]",4.0,"[-0.16726653553437573,-0.052206087278089335]",100.0,"[0.01793958795769084,0.08719435222721106]",4.0,"[0.14127857920943673,-0.12090121639677201]",4.0,"[-0.08387090606041425,-0.12008207031789543]",4.0,"[0.1361279158534237,0.04337164956287028]",100.0,"[-0.08414518791134046,-0.06725632846379767]",4.0,"[0.08299697137094879,0.0792967497784458]",4.0,"[-0.017098154361821903,0.14640176977898697]",4.0,"[-0.06635212338627171,0.15495935217123757]",100.0,"[0.07397030496146025,0.16638890198291983]",100.0,"[0.01801763123517793,0.1805004551210876]",100.0,"[-0.1389357043635812,0.08296510709017708]",4.0,"[0.05544106683421284,0.04382719341368521]",4.0,"[0.18831657015074663,0.032775174831447464]",100.0,"[-0.13108974544235258,-0.1460523546799356]",100.0,"[-0.03405724634068566,-0.02386627105911594]",4.0,"[-0.034427835579208296,0.19018897151939057]",100.0,"[-0.0739851337604038,0.0584743356727352]",100.0,"[0.17921235632020285,-0.06184250873069667]",4.0,"[0.07239444904410265,0.12633913967778754]",4.0,"[0.0988846827073641,0.0020257758151836546]",4.0,"[0.17947421800452326,0.08652438041675638]",4.0,"[0.02,0.02]",139.1775,0.0,0.0,0.0,134.0,1.0,,,,,,,
,,,,,,,66781db404eab5e142f849d9,684429353c5b0407a0aaead4,2025-06-07_14h01.17.429,shape_ratio,2024.1.5,Win32,59.88023952,684250e4f00cb30b92d1fa88,,,,,,,,,,,139.1784,139.6787,,,139.9281,140.3788,right,,,,,,,,0.4,0.4356,,,,,,,139.6789,139.9281,140.3789,"[-0.036710536132676753,0.19424496835696103]",100.0,"[-0.038673868851287985,-0.09178441181997272]",4.0,"[-0.17119059394306835,0.028801445738331707]",4.0,"[0.04057877452904767,-0.04156636139193368]",4.0,"[-0.05544734114467338,0.15780188586844635]",100.0,"[0.13657019926146044,-0.08414079781264827]",4.0,"[-0.17674703540208542,-0.08582780783814509]",4.0,"[0.11057464785980954,0.12633981186543214]",100.0,"[-0.058593901833949275,0.08026003930816007]",100.0,"[-0.032669741193431356,-0.01973076574086442]",100.0,"[0.010504591524853259,0.16984854434539443]",100.0,"[-0.005257407556531766,0.015334507182862687]",100.0,"[0.07678938570665379,-0.13752061734754428]",4.0,"[0.07107492829486091,0.020340600883104132]",4.0,"[-0.15299907485204117,0.08227834703353297]",4.0,"[-0.12912674492444676,-0.07467569821570876]",4.0,"[0.009492359476090938,-0.09034457461102886]",4.0,"[0.12237709126732944,-0.04616429027225568]",100.0,"[0.1598051890217344,0.042041529339071584]",4.0,"[0.08162011056437926,-0.05412359146465338]",4.0,"[-0.10286942210494572,0.15487448285859182]",4.0,"[0.06260869189029401,-0.18404211688394423]",4.0,"[-0.029664124915165666,-0.15650130195322484]",4.0,"[0.14925738759287263,0.0025951578456769805]",4.0,"[0.06557628495455071,0.16114794407863728]",100.0,"[0.14337281963514512,0.10087538216764316]",100.0,"[0.007265160202268794,-0.1920160320832604]",100.0,"[0.12211624720267351,-0.1384068954897181]",4.0,"[-0.044799952082497894,0.11870185442769815]",100.0,"[0.08927789133825742,0.07189471488365454]",100.0,"[-0.11815312248636049,-0.14526769171464843]",4.0,"[0.19924816890888222,0.008287626606013876]",4.0,"[0.02,0.02]",141.4763,0.0,1.0,1.0,168.0,1.0,,,,,,,
,,,,,,,66781db404eab5e142f849d9,684429353c5b0407a0aaead4,2025-06-07_14h01.17.429,shape_ratio,2024.1.5,Win32,59.88023952,684250e4f00cb30b92d1fa88,,,,,,,,,,,141.4774,141.9765,,,142.2182,142.7354,left,,,,,,,,0.6,0.5001,,,,,,,141.9766,142.2182,142.7356,"[0.024526285410300833,-0.08951620637747192]",100.0,"[0.10248128879057603,0.13254769057363566]",100.0,"[0.055218727219075385,0.06413304132837157]",100.0,"[-0.1524317907123403,0.03766135525832052]",100.0,"[-0.002927212115551786,0.006144961204934241]",4.0,"[0.006233382917771164,-0.1621502631415408]",100.0,"[-0.09306794655927957,0.0815441356027926]",100.0,"[-0.07880722878423432,0.022329596544751223]",4.0,"[-0.048090174443806366,0.1122143196999183]",100.0,"[0.15119180489544906,0.09371935056303585]",100.0,"[0.09024235641144586,-0.0797709433339553]",100.0,"[0.1672233542986087,-0.020525771922912245]",100.0,"[0.12216723408710047,0.014673290365667732]",100.0,"[-0.07799443354778626,-0.04054082486181471]",4.0,"[0.035523731226600117,-0.031215504564743157]",4.0,"[0.08673898671560373,-0.00973489614847145]",100.0,"[-0.0886431826343185,0.12956642622512504]",4.0,"[0.029526742468855487,0.17725278363961575]",100.0,"[-0.0051233600347396525,0.1472242174676569]",4.0,"[-0.010810758393036484,-0.04517358857792689]",4.0,"[0.026882693574930228,0.11905123796792944]",100.0,"[-0.04837402970514863,0.16666309084702152]",100.0,"[-0.15429037544672125,0.1084039136687181]",4.0,"[-0.1368041502591718,-0.11985007770407628]",4.0,"[0.16924638105365772,-0.08304075287779843]",100.0,"[0.06867060692782072,-0.13729773540972195]",4.0,"[0.16678446589857635,0.02895934562039113]",4.0,"[-0.023937454918287304,0.05975734643703549]",4.0,"[-0.14305660611717627,-0.04494559915055492]",100.0,"[-0.18006752773810134,-0.08293060654342758]",100.0,"[-0.05517852562280401,-0.08754669611637853]",100.0,"[-0.10602225410856736,-0.16001877969085926]",4.0,"[0.02,0.02]",143.8335,0.0,2.0,2.0,47.0,1.0,,,,,,,
,,,,,,,66781db404eab5e142f849d9,684429353c5b0407a0aaead4,2025-06-07_14h01.17.429,shape_ratio,2024.1.5,Win32,59.88023952,684250e4f00cb30b92d1fa88,,,,,,,,,,,143.835,144.3333,,,144.576,145.1258,right,,,,,,,,0.4,0.5378,,,,,,,144.3334,144.5759,145.1258,"[-0.15419742584747137,0.061248626616069994]",4.0,"[0.027059676058168693,-0.0968240065711168]",4.0,"[-0.04032727626120743,0.17903634608561078]",100.0,"[0.175715242215372,-0.06420053502493765]",4.0,"[-0.04594293941120209,-0.1534937316768818]",4.0,"[-0.07878993360029819,-0.09828280918512956]",4.0,"[-0.09511962775988445,0.08940685537678773]",100.0,"[-0.09334554598066325,0.1711113222657851]",100.0,"[0.10234238784838774,-0.01503420398725667]",100.0,"[-0.0488541016606885,0.02427455592917738]",4.0,"[0.10793684471184149,0.06347574226947433]",100.0,"[0.1455256295064464,0.08282753614752075]",4.0,"[-0.1316086047627102,-0.1239276475689736]",4.0,"[0.09360548529270328,-0.1732467108704613]",100.0,"[0.060689083366987154,-0.06653159760898936]",4.0,"[0.1490144306482352,-0.09952580751690138]",4.0,"[-0.08884863260344585,-0.14661696693795637]",4.0,"[-0.08915437686699208,-0.029635236154981384]",100.0,"[0.09720853788910337,-0.11714830197446224]",4.0,"[0.1710383949238733,-0.012000621241121893]",100.0,"[-0.14942300269888223,-0.005044843007183763]",4.0,"[-0.18958066985021185,0.010140386720977196]",4.0,"[-0.14695586566126953,0.12004655768952989]",100.0,"[-0.11735442078568001,-0.06469157207862684]",100.0,"[-0.024948592760544057,0.09085488882601268]",4.0,"[-0.03511331340761539,-0.08333584442548507]",4.0,"[0.06577984586030777,0.005098321766932612]",100.0,"[0.09674754734958516,0.12148441033730396]",4.0,"[0.023138435943571713,0.09406640823322841]",100.0,"[0.001736256498960966,-0.006836129638961752]",4.0,"[0.027308523008383337,-0.16018290428765286]",4.0,"[0.061056793925838126,0.07218246172717183]",100.0,"[0.02,0.02]",146.2244,0.0,3.0,3.0,164.0,1.0,,,,,,,
,,,,,,,66781db404eab5e142f849d9,684429353c5b0407a0aaead4,2025-06-07_14h01.17.429,shape_ratio,2024.1.5,Win32,59.88023952,684250e4f00cb30b92d1fa88,,,,,,,,,,,146.2264,146.7243,,,146.969,147.4008,left,,,,,,,,0.9,0.4162,,,,,,,146.7244,146.9689,147.4011,"[-0.04083423074265585,-0.04255900442740651]",100.0,"[-0.054762886657489185,0.059860343177986636]",100.0,"[-0.13671819393229515,0.11478956616404443]",100.0,"[-0.06138778179178493,0.15714516871965603]",100.0,"[0.12978212453189802,-0.11398317506745885]",100.0,"[0.05146786066242598,-0.15321621322483028]",100.0,"[-0.18147538412463038,-0.003980058920667756]",100.0,"[0.10559162070279164,0.13835652238897544]",100.0,"[-0.11703300212378558,0.05657056870413665]",100.0,"[0.07244072731673891,-0.05283162536265992]",100.0,"[-0.0597438674498409,-0.07832671187083463]",100.0,"[-0.19194794639228602,-0.05425760744659721]",100.0,"[0.12377991482648462,-0.04452083660573204]",100.0,"[0.03398699513881129,-0.10608983818421253]",100.0,"[-0.053634993658187996,-0.16918169155358911]",100.0,"[0.01614099391218698,0.039859364031522605]",100.0,"[0.0011147806098327005,-0.04200312996490636]",100.0,"[-0.027828115307181933,0.006466186020828981]",100.0,"[-0.10590165460994218,0.1436114614449644]",100.0,"[0.020626155414941047,-0.004592279769308604]",100.0,"[-0.1625531760722019,0.07286541461368294]",100.0,"[-0.10664934922101392,-0.11912755555462788]",4.0,"[0.1171410309659418,0.08854266934995282]",100.0,"[0.08481771187039445,0.06250920315580231]",100.0,"[0.03501112989468972,0.09576723286466216]",4.0,"[-0.016793510683201854,0.15244845343084498]",100.0,"[-0.023741040120823488,-0.13278145489035675]",100.0,"[0.1250642296290835,-0.0006149676033858905]",4.0,"[0.07502908275843356,-0.11638904728285465]",100.0,"[0.04114427262877683,0.14017632013671863]",100.0,"[0.17240880866016922,0.06724731642813836]",100.0,"[0.1653887620254618,-0.016186903735616556]",100.0,"[0.02,0.02]",148.5005,0.0,4.0,4.0,7.0,1.0,,,,,,,
,,,,,,,66781db404eab5e142f849d9,684429353c5b0407a0aaead4,2025-06-07_14h01.17.429,shape_ratio,2024.1.5,Win32,59.88023952,684250e4f00cb30b92d1fa88,,,,,,,,,,,148.5022,149.0003,,,149.253,149.8034,right,,,,,,,,0.1,0.5365,,,,,,,149.0004,149.2528,149.8034,"[0.09626545686565141,0.16991577258687282]",4.0,"[0.15551774163803186,-0.07031972981561102]",4.0,"[-0.004695210218596362,-0.043885548281674305]",4.0,"[-0.08592313068280164,0.07012170531950994]",4.0,"[0.18753284167800258,0.008366867939990166]",100.0,"[0.10589904789167454,0.06073841596192669]",4.0,"[0.011098913869980475,-0.18771018268350784]",4.0,"[-0.012589728967661773,0.06944913746988832]",4.0,"[-0.05607294510644837,0.020062928205738375]",4.0,"[-0.053841071953672985,-0.16385864237269995]",4.0,"[0.030879609445335295,0.04279044884962696]",4.0,"[-0.12971215618674586,0.14839291376938638]",100.0,"[-0.15973725558345356,0.11094266260858174]",4.0,"[0.07175462181456806,-0.11252765165218266]",4.0,"[0.058638080719685404,0.09057078841030328]",4.0,"[-0.0068343424143367,0.18685596885189035]",4.0,"[-0.12348300075419158,-0.055923730845320804]",4.0,"[0.1470187099386051,0.10799005249241289]",4.0,"[-0.0028423805913002373,-0.10836384651351534]",4.0,"[-0.12428687124591614,-0.12850645664184066]",4.0,"[-0.12190201408312362,0.04661912090985964]",4.0,"[0.07596271375817118,-0.05415976562928096]",100.0,"[0.04276561893332898,-0.07823753324160795]",4.0,"[0.04517011236277242,-0.004858712708822508]",4.0,"[0.14648709070770544,0.06578728626053276]",4.0,"[-0.18374319902350553,-0.0576668411064469]",4.0,"[-0.047367067109002944,-0.02340689959190655]",4.0,"[0.00405891560140037,0.008114052388641687]",4.0,"[0.11598728723244128,0.01850460082952455]",4.0,"[0.053317637194407096,0.13434291626168546]",4.0,"[-0.08524380574290716,-0.07330797468690813]",4.0,"[-0.166260678394213,0.0034758438982977883]",4.0,"[0.02,0.02]",150.8964,0.0,5.0,5.0,187.0,1.0,,,,,,,
,,,,,,,66781db404eab5e142f849d9,684429353c5b0407a0aaead4,2025-06-07_14h01.17.429,shape_ratio,2024.1.5,Win32,59.88023952,684250e4f00cb30b92d1fa88,,,,,,,,,,,150.8981,151.3982,,,151.6512,152.2346,right,,,,,,,,0.5,0.5684,,,,,,,151.3983,151.6512,152.2348,"[0.015441306740642431,0.1189744814269701]",4.0,"[-0.09553080404724253,0.12622805357271447]",4.0,"[0.044095832065543586,-0.10944402444122678]",100.0,"[-0.06274604584367437,-0.05566702140225183]",100.0,"[-0.034544245300899605,-0.11366727618667388]",100.0,"[-0.165840836376997,0.07345050795293392]",100.0,"[-0.03495852863866757,0.003838555067073459]",4.0,"[-0.03243390883067851,-0.16299468998784522]",100.0,"[-0.08977082937038,0.17496905996908993]",4.0,"[0.011345002766126537,0.01981127414175508]",4.0,"[-0.10168137223098514,-0.14632735839197072]",100.0,"[-0.07201963988452713,0.043800865347082156]",100.0,"[0.06142688715964407,0.16454095180783457]",4.0,"[0.0023668823259432024,0.06776857561838039]",4.0,"[0.029979291468782344,-0.19102803886401673]",4.0,"[0.10898645835272122,-0.07842568124875628]",100.0,"[-0.10885545236743639,-0.08184500337299361]",4.0,"[-0.13319712854631224,0.1096371978939742]",4.0,"[0.16399233693185322,-0.10386051540901256]",100.0,"[0.1736123155033962,0.07359531698266929]",4.0,"[0.13410870369005562,-0.014211900364560964]",4.0,"[0.0761547188647494,-0.054981722993937464]",100.0,"[0.09021137886075234,-0.01567514296996264]",100.0,"[0.05151043269855515,0.025529668422821745]",100.0,"[0.1299250263660661,0.12218086296831486]",100.0,"[0.08305361627005464,0.08242006320550695]",4.0,"[-0.14614505329664912,0.03363258841603472]",4.0,"[0.12430883719403651,-0.14444804422800608]",100.0,"[-0.1441099526876615,-0.011021600501508369]",100.0,"[-0.16823640126321393,-0.058022189698754285]",100.0,"[0.16330835284512007,-0.04180529661449654]",4.0,"[-0.02537917319781964,-0.07278639905986078]",4.0,"[0.02,0.02]",153.3312,0.0,6.0,6.0,94.0,1.0,,,,,,,
,,,,,,,66781db404eab5e142f849d9,684429353c5b0407a0aaead4,2025-06-07_14h01.17.429,shape_ratio,2024.1.5,Win32,59.88023952,684250e4f00cb30b92d1fa88,,,,,,,,,,,153.3328,153.8331,,,154.0836,154.3561,left,,,,,,,,0.5,0.2548,,,,,,,153.8331,154.0834,154.3563,"[0.014899812428227424,0.19181690032175777]",100.0,"[-0.15004879038170987,0.08117699765661913]",100.0,"[0.16331597778486232,-0.06535562004301283]",4.0,"[-0.12927156523922925,-0.07262244867134142]",4.0,"[-0.02417476095934518,-0.13882456524497075]",100.0,"[0.07428346202615747,-0.04866749073506437]",100.0,"[-0.10465498253687561,0.061757796656846387]",100.0,"[-0.04210621353002081,0.19351686500752857]",100.0,"[-0.05601601137691373,0.08227472564329653]",4.0,"[-0.07668797713804232,0.020742223619184146]",4.0,"[0.06912217362959948,0.17551616782953539]",100.0,"[-0.06914892314857124,0.149462034597836]",4.0,"[-0.032049003148037845,-0.037583599637700034]",100.0,"[-0.07542030112909487,-0.09400105332505218]",4.0,"[0.04166519681440534,-0.16032244940998225]",4.0,"[0.16787687718496655,0.09916376383421167]",4.0,"[0.11295346871138608,-0.02750122299817847]",4.0,"[-0.029946690575229046,0.03828179838826436]",4.0,"[0.029492729778093658,-0.11972957938020706]",100.0,"[-0.012237920035710396,-0.08825492134650989]",4.0,"[-0.16686793217657553,-0.05488128480019622]",100.0,"[0.06725569762636724,0.05392891588649711]",4.0,"[0.10233335301377806,-0.09362458354247398]",4.0,"[-0.17217915420766516,-0.09694776737924377]",100.0,"[-0.10986068784499915,0.13593557154669764]",4.0,"[0.07078261168563373,0.1006298517095137]",100.0,"[0.17757939512310186,-0.010112356382986952]",100.0,"[0.15429413148405094,0.05007167595011542]",4.0,"[-0.10470336211213017,-0.1316499494816458]",100.0,"[-0.04554525710114958,-0.19156553045898703]",100.0,"[-0.1915897923915833,0.04790387763599521]",100.0,"[-0.16936650841732312,0.0017648182311572008]",4.0,"[0.02,0.02]",155.4554,0.0,7.0,7.0,96.0,1.0,,,,,,,
,,,,,,,66781db404eab5e142f849d9,684429353c5b0407a0aaead4,2025-06-07_14h01.17.429,shape_ratio,2024.1.5,Win32,59.88023952,684250e4f00cb30b92d1fa88,,,,,,,,,,,155.4573,155.949,,,156.1997,156.5487,left,,,,,,,,0.5,0.3339,,,,,,,155.9492,156.1996,156.5488,"[-0.025991713548150865,0.05192709138256507]",100.0,"[-0.10014599983495019,0.07762424921296605]",4.0,"[0.03676242324733681,-0.045241784916547324]",4.0,"[-0.06218017355271858,-0.07786583010919305]",100.0,"[-0.0003613804701065923,-0.06100552218635299]",100.0,"[0.0968904214386937,-0.047392882265105726]",4.0,"[-0.06783264011637195,0.1766966941566009]",100.0,"[-0.16263784110834645,-0.10265681937886208]",4.0,"[-0.09397240524226234,0.030042875350668026]",100.0,"[-0.15886883565820337,-0.027242899860772163]",100.0,"[-0.03846356033216935,0.107821241687836]",4.0,"[0.1332169823848467,-0.030520677033859023]",4.0,"[-0.03956782895490569,-0.15384703027004465]",4.0,"[-0.07059120236804291,-0.032320356602298345]",100.0,"[0.15229665639357104,0.053009574909224505]",100.0,"[-0.13573848046365308,-0.070543450483984]",4.0,"[-0.0035147653998517108,-0.12570063376849214]",4.0,"[0.0755644994544117,0.023567508751054265]",4.0,"[0.03596606367766493,-0.13270662719759513]",4.0,"[-0.07485063872818894,-0.11832722445679844]",4.0,"[-0.12978106585438942,-0.12784630613152184]",100.0,"[0.1724872999564767,-0.07529732509910933]",4.0,"[0.1397938213748999,0.09790453654519138]",100.0,"[0.11066310982207532,0.046467176022026276]",100.0,"[-0.14424381939817985,0.03863620586328888]",4.0,"[0.16894857872479677,0.015286033905213438]",4.0,"[-0.04791851118401652,0.005067384130881625]",100.0,"[0.11938756943208144,-0.15028667464302195]",100.0,"[0.11253928201258331,0.13960276221356743]",100.0,"[0.06444375190559845,-0.0964292226986072]",100.0,"[-0.19706574068046975,0.019849351260436344]",100.0,"[-0.15116261835459516,0.12935586271613414]",4.0,"[0.02,0.02]",157.641,0.0,8.0,8.0,114.0,1.0,,,,,,,
,,,,,,,66781db404eab5e142f849d9,684429353c5b0407a0aaead4,2025-06-07_14h01.17.429,shape_ratio,2024.1.5,Win32,59.88023952,684250e4f00cb30b92d1fa88,,,,,,,,,,,157.6431,158.1484,,,158.3996,158.7366,left,,,,,,,,0.55,0.3216,,,,,,,158.1484,158.3995,158.7367,"[0.06364627962040709,-0.17213962615585124]",100.0,"[-0.10547727443947016,0.03557766292396845]",100.0,"[0.0011979170718902298,0.09900896787134647]",4.0,"[-0.13362008819081683,0.09133993994360003]",4.0,"[-0.13966020336484855,-0.01416395323624155]",100.0,"[0.11862426559859855,-0.10210986217567257]",100.0,"[-0.17274121416697932,-0.0866059039397253]",100.0,"[0.10740563620875013,-0.004235856137535278]",4.0,"[-0.11980369784573645,-0.06499733278528803]",100.0,"[0.06045025470573577,0.08582402106399864]",100.0,"[-0.024221338573633677,0.013586189759362745]",100.0,"[-0.07443032619680184,-0.08179159488829116]",4.0,"[-0.028005827677183334,0.06951786328416645]",4.0,"[-0.12066355196532558,-0.12174211607710993]",100.0,"[-0.06393440848466364,0.18949509287574667]",100.0,"[0.0005025081064744936,0.15475852515712046]",4.0,"[0.19240466957842742,-0.027304010457500673]",100.0,"[0.03239997051491638,0.00035193817511809173]",4.0,"[0.1703452536691039,-0.08348986633089268]",4.0,"[0.09402587396186368,0.12923360798090605]",4.0,"[-0.006676534009624816,-0.1872863281929627]",100.0,"[0.009736330498432097,-0.11217338771902939]",100.0,"[0.14890984710909339,0.033877496946410124]",4.0,"[-0.1583095913406723,0.02375432617743591]",100.0,"[-0.07955539462571373,-0.0067272276209583756]",4.0,"[0.07064091211235159,-0.0776960281205893]",4.0,"[0.09564286445497289,0.1737863247641526]",4.0,"[0.07189544271458718,0.03011978460206404]",100.0,"[-0.04879822753207209,0.13461816997126733]",100.0,"[0.19552831979655563,0.03219753530292028]",100.0,"[0.127477497255386,0.07529721198522392]",4.0,"[-0.04145204921786921,-0.024205722649947525]",100.0,"[0.02,0.02]",159.832,0.0,9.0,9.0,61.0,1.0,,,,,,,
,,,,,,,66781db404eab5e142f849d9,684429353c5b0407a0aaead4,2025-06-07_14h01.17.429,shape_ratio,2024.1.5,Win32,59.88023952,684250e4f00cb30b92d1fa88,,,,,,,,,,,159.8337,160.3312,,,160.5726,160.8543,right,,,,,,,,0.1,0.267,,,,,,,160.3313,160.5725,160.8544,"[-0.15703911992429304,-0.05119958295438483]",4.0,"[0.15167929622277015,0.020696690008316244]",4.0,"[-0.02265798000478767,-0.004879947426064475]",4.0,"[0.13875432491372422,-0.041790319026643645]",4.0,"[0.12918848519209258,0.10714182250266803]",4.0,"[-0.17582838677498291,0.05591328518973776]",4.0,"[-0.1401536474016689,-0.11221200975002697]",4.0,"[-0.0416889453615143,0.07674664262181026]",4.0,"[-0.19772962071465902,-0.016751792093998148]",100.0,"[-0.008425168854470325,-0.12240118846840302]",4.0,"[-0.0875109950050253,-0.09308798715329497]",4.0,"[0.0024389230284785385,0.10397183265167168]",4.0,"[0.10833133818342786,-0.12587955547510454]",4.0,"[0.002949056631084076,-0.03682815901702465]",4.0,"[-0.10941738196017238,-0.1387653628873163]",4.0,"[0.018008383822884257,0.002650556720261779]",4.0,"[-0.04588020843199223,-0.09793140300017822]",4.0,"[0.0923777933738501,-0.07145506810341674]",4.0,"[0.059034429102227455,0.05864541589484786]",4.0,"[0.037395459485824845,-0.10635041432316034]",4.0,"[0.05899388157672017,0.006187396290593998]",4.0,"[0.10479748880424487,-0.01523274792646225]",4.0,"[-0.03711215134014963,-0.04909849138118638]",4.0,"[-0.11417451037402222,0.11343419363422967]",4.0,"[-0.12088199758123905,0.15720603030976485]",4.0,"[-0.131123302338384,0.03617292245384311]",4.0,"[0.0011310117965387836,-0.1702673127532821]",4.0,"[0.056838791190217085,0.12281096630320844]",100.0,"[0.057351478283516395,-0.17638860055552613]",4.0,"[0.13408957628739093,0.059276098933533035]",100.0,"[-0.006111625322840679,0.047994679231499214]",4.0,"[0.19319445576825572,-0.038212853067544184]",4.0,"[0.02,0.02]",161.9572,0.0,10.0,10.0,184.0,1.0,,,,,,,
,,,,,,,66781db404eab5e142f849d9,684429353c5b0407a0aaead4,2025-06-07_14h01.17.429,shape_ratio,2024.1.5,Win32,59.88023952,684250e4f00cb30b92d1fa88,,,,,,,,,,,161.958,162.4539,,,162.7051,164.2037,,,,,,,,,0.45,,,,,,,,162.454,162.705,164.2037,"[0.0208855191908118,0.19666909326693247]",4.0,"[-0.12918577065933218,-0.04053148634596822]",4.0,"[-0.01500928623841051,0.12866584711952586]",100.0,"[-0.03401784932135775,0.19226364834457255]",4.0,"[0.027606758834548748,-0.12947005215820367]",4.0,"[-0.09453532345089431,0.06894318303586426]",100.0,"[-0.1424828171789051,-0.13074106863555904]",4.0,"[-0.026564052224232703,0.014086243389161543]",100.0,"[-0.054580748362858734,-0.1738731614147841]",100.0,"[0.04226497902883356,-0.0063702257180189015]",4.0,"[0.05774378461846323,0.045775321973959414]",4.0,"[-0.029442348475751928,-0.07382357317684564]",4.0,"[0.15496083838062344,0.06292797436796171]",100.0,"[-0.057129990437328845,0.041837592619056535]",100.0,"[0.11359202134454185,0.07761585837523523]",100.0,"[0.0812930825360125,0.17045829339909935]",100.0,"[-0.16260893397251008,0.04968209725656207]",4.0,"[0.05232895240496616,-0.04754258209995485]",100.0,"[0.06278517994838122,-0.17660901459701153]",100.0,"[-0.07299274225585216,-0.062343430973034464]",100.0,"[0.1596207239465905,-0.09621192595515674]",100.0,"[-0.11511501319116016,0.11427103950010004]",4.0,"[0.024225864103623245,0.09299113522176329]",4.0,"[0.07595241809004667,0.11945036982715478]",4.0,"[0.12015116014831928,-0.15347842108338178]",4.0,"[0.03193852107830551,0.158052987796256]",4.0,"[-0.014381607279832516,0.06664307435924793]",100.0,"[0.12127580466395843,-0.026629847344749696]",4.0,"[0.004548823220807542,-0.1866390410126543]",4.0,"[0.1766906718889817,-0.010519412145242787]",4.0,"[-0.07515728196837056,0.1793042825651749]",100.0,"[-0.005320654089248017,-0.02035924772951359]",4.0,"[0.02,0.02]",165.3031,0.0,11.0,11.0,140.0,1.0,,,,,,,
,,,,,,,66781db404eab5e142f849d9,684429353c5b0407a0aaead4,2025-06-07_14h01.17.429,shape_ratio,2024.1.5,Win32,59.88023952,684250e4f00cb30b92d1fa88,,,,,,,,,,,165.3049,165.803,,,166.0541,166.4531,left,,,,,,,,0.9,0.3847,,,,,,,165.803,166.054,166.4531,"[-0.06566632110461919,0.0888935818031119]",100.0,"[-0.11946881732761125,0.06350782859606079]",100.0,"[-0.006428394662885075,-0.010048580400915897]",100.0,"[-0.052591985583977936,-0.16463558217098553]",4.0,"[0.06989090030530849,-0.16797248415035265]",100.0,"[-0.16943838528671895,0.008892903744825193]",4.0,"[-0.17653208847444,-0.08321398250601422]",100.0,"[-0.0841814108834811,0.0350254321689656]",100.0,"[0.1275182765172883,0.14868255716597947]",100.0,"[-0.0839058902409298,0.16613343740855824]",100.0,"[0.03597521472496358,-0.11399036482695508]",100.0,"[0.1333218964079525,-0.06961087174469234]",100.0,"[0.058434492773970906,-0.004061254493394085]",100.0,"[-0.009154609745277957,0.06592246724267788]",100.0,"[-0.1302086673321052,-0.0661649748941843]",100.0,"[-0.15075986721717247,-0.12404910049749618]",100.0,"[0.05040119290180246,0.1361858078553373]",100.0,"[-0.1377687350646214,0.11261990482611609]",100.0,"[-0.019129317638844005,0.1957013012884138]",100.0,"[-0.03303335242922924,0.12552236783666504]",100.0,"[0.009966256249248594,-0.06679317617580154]",100.0,"[-0.04613333796796015,-0.05876652112450579]",100.0,"[0.044618526039270114,0.05832299638639736]",100.0,"[0.0706374303369407,-0.08704959517706168]",100.0,"[0.046422152008630924,0.19276624882748478]",100.0,"[-0.003092788970188787,-0.19143284610401745]",100.0,"[-0.12872039220348822,0.012821084770765797]",100.0,"[0.11876558959251884,0.08312094105018943]",100.0,"[-0.010520897715078269,-0.10891669585224412]",100.0,"[-0.05050622872933485,-0.12172413405824598]",4.0,"[-0.0859141803031399,-0.04636293719414249]",100.0,"[0.18320326057305356,-0.012268804403423646]",100.0,"[0.02,0.02]",167.5525,0.0,12.0,12.0,13.0,1.0,,,,,,,
,,,,,,,66781db404eab5e142f849d9,684429353c5b0407a0aaead4,2025-06-07_14h01.17.429,shape_ratio,2024.1.5,Win32,59.88023952,684250e4f00cb30b92d1fa88,,,,,,,,,,,167.5539,168.0527,,,168.3032,168.7192,right,,,,,,,,0.4,0.4023,,,,,,,168.0528,168.3032,168.7193,"[-0.09053228993488677,-0.15442823118205556]",100.0,"[0.08902938826148181,-0.10458158687684037]",4.0,"[-0.06177608673658809,-0.10989066080651862]",4.0,"[-0.1542604107535263,-0.06875995354632768]",100.0,"[0.15483902308006806,0.11210842180319887]",4.0,"[0.19600519975579106,0.013293171043229668]",100.0,"[-0.18257045562101124,0.0011264531540851003]",4.0,"[0.025187528513212855,0.15463859423853937]",100.0,"[0.07832049695797581,0.07302339934712955]",100.0,"[-0.06670795389917293,0.0285205637906555]",4.0,"[0.1072167663923371,-0.15996965939414234]",4.0,"[0.02679414577836433,-0.19544447142068586]",4.0,"[-0.08396971091699297,0.15205087427636216]",100.0,"[-0.030164750188417397,0.13785701713106693]",4.0,"[-0.05806283928369353,0.09690395484694171]",4.0,"[-0.023230177034021266,-0.15074132865235768]",4.0,"[-0.11443158116220421,0.09593945064779624]",4.0,"[0.017401262551678662,-0.031099265075540703]",4.0,"[0.051580828787038284,0.03486223391187407]",4.0,"[0.032432443396330696,-0.08607030072833598]",100.0,"[-0.047166118473534795,0.17961360236026125]",100.0,"[0.1521998441509926,0.06449055326751285]",100.0,"[-0.13326700192755553,-0.025075813734053466]",4.0,"[0.0925487950630005,-0.03017319538964846]",100.0,"[0.14977165295575015,-0.04989905437600633]",4.0,"[-0.014546038049110815,-0.0030378541192300486]",4.0,"[0.17410423307205802,-0.08956637586751906]",100.0,"[0.02823764196242587,-0.15541127869283258]",4.0,"[-0.06530488728424354,-0.02863234754865906]",4.0,"[0.0781883009037196,0.11360105557656122]",4.0,"[0.031460193785648155,0.10417948266642563]",100.0,"[-0.09783185194641654,-0.05885718567805721]",100.0,"[0.02,0.02]",169.8187,0.0,13.0,13.0,155.0,1.0,,,,,,,
,,,,,,,66781db404eab5e142f849d9,684429353c5b0407a0aaead4,2025-06-07_14h01.17.429,shape_ratio,2024.1.5,Win32,59.88023952,684250e4f00cb30b92d1fa88,,,,,,,,,,,169.8203,170.3188,,,170.5724,171.0365,left,,,,,,,,0.55,0.451,,,,,,,170.3189,170.5723,171.0365,"[-0.1311200901340473,-0.09480904175554772]",4.0,"[-0.013067377595713726,-0.15044725233796186]",4.0,"[-0.05439082661528496,-0.09103225577419922]",4.0,"[0.13224212054175485,0.05444756485214519]",100.0,"[-0.09657841087963386,-0.06687932829011266]",4.0,"[-0.12595183171042026,-0.020244574804253818]",100.0,"[-0.1080038233394214,0.08828560097655923]",100.0,"[-0.1572712246857515,0.03215079303262839]",100.0,"[0.12239501881593297,-0.1373447750823105]",4.0,"[-0.16249855069706345,0.10889790259406276]",4.0,"[-0.03508788978679661,0.15076937944139718]",100.0,"[-0.18437459733690476,-0.01195715361942755]",100.0,"[-0.044454973190033054,0.04908685753692748]",100.0,"[-0.11404073893446746,-0.13467778237836694]",4.0,"[0.17067981617016648,-0.016206612625365404]",100.0,"[-0.06737528004551618,-0.17086279754901415]",100.0,"[0.0734921660175639,-0.17451143271462477]",100.0,"[0.01566224775556431,-0.08450151646762305]",100.0,"[0.1876790371651828,-0.057877593346073036]",4.0,"[0.04923661520480318,-0.027054546672173045]",100.0,"[0.08581568679858212,0.14371192960989856]",4.0,"[0.01633222319090515,0.1719197017898061]",4.0,"[0.07278903002120418,0.06814057730995346]",4.0,"[0.05715823707469873,0.014287542498808021]",100.0,"[0.1113338202655884,0.0026711906195028778]",4.0,"[0.06368291885042322,-0.11796394206472129]",4.0,"[0.039002807488740146,-0.15318800002776145]",4.0,"[0.12798567063546715,0.10854815838019008]",100.0,"[0.03688429613379348,0.09522294627985327]",100.0,"[0.009346236128901527,-0.19596826715854282]",100.0,"[-0.07562654212208922,-0.01090572724110499]",100.0,"[0.1314792886342491,-0.0734413932787298]",100.0,"[0.02,0.02]",172.1362,0.0,14.0,14.0,80.0,1.0,,,,,,,
,,,,,,,66781db404eab5e142f849d9,684429353c5b0407a0aaead4,2025-06-07_14h01.17.429,shape_ratio,2024.1.5,Win32,59.88023952,684250e4f00cb30b92d1fa88,,,,,,,,,,,172.1369,172.6364,,,172.8775,173.3957,right,,,,,,,,0.1,0.5009,,,,,,,172.6365,172.8774,173.3958,"[0.033048209453135406,0.042997825380894784]",100.0,"[0.18011408395153697,0.02939304091763955]",4.0,"[0.03752611320848232,-0.1481457287451069]",4.0,"[-0.13575154055456595,0.10420198561975484]",4.0,"[0.0831580764312253,-0.1281731486238035]",4.0,"[-0.0013748168807415765,0.0031559225890723263]",4.0,"[-0.1654075877137363,-0.09306018161395738]",4.0,"[-0.17559768579211554,0.004144049934265773]",4.0,"[0.13209613332539957,-0.1001551163698375]",4.0,"[-0.06034951573226875,0.08112983189034596]",4.0,"[-0.013760650518445381,0.08148515749952062]",4.0,"[-0.09183891509700964,-0.11768521166898482]",4.0,"[-0.1869752175389334,0.05640507367900152]",4.0,"[0.038654544393217034,-0.020944999420563753]",4.0,"[0.1292025682497233,-0.0106319887387854]",4.0,"[-0.01457538825912042,-0.058334149675613844]",4.0,"[-0.08407956502061925,-0.01740851453908085]",4.0,"[-0.06184529882848495,-0.18791453008911613]",4.0,"[0.08153817460302222,-0.03274058028142527]",4.0,"[0.0013907834329404752,-0.130450443191562]",4.0,"[0.14064419291576696,0.09455901402406829]",4.0,"[0.07532190060189055,0.1433484511808951]",4.0,"[0.041545993709393755,-0.07284982010371142]",4.0,"[0.1388927116433296,0.13942750960803635]",4.0,"[-0.019591124694990924,-0.1664286158258631]",4.0,"[-0.09778475128242899,0.05247674487869938]",4.0,"[-0.15745360548780166,-0.043450648433057466]",4.0,"[0.0718789061289141,0.01996518149947084]",4.0,"[0.0904074770458278,0.07687965453550061]",4.0,"[0.028023429512870623,0.12369071266993856]",4.0,"[-0.08969646404601471,0.11227512105820446]",100.0,"[0.1212382759921997,0.03304856156825615]",100.0,"[0.02,0.02]",174.4923,0.0,15.0,15.0,180.0,1.0,,,,,,,
,,,,,,,66781db404eab5e142f849d9,684429353c5b0407a0aaead4,2025-06-07_14h01.17.429,shape_ratio,2024.1.5,Win32,59.88023952,684250e4f00cb30b92d1fa88,,,,,,,,,,,174.4939,174.9928,,,175.2352,175.7171,right,,,,,,,,0.5,0.4682,,,,,,,174.993,175.2351,175.7172,"[0.11708843233410178,-0.07042198393948597]",100.0,"[-0.024116022384221253,-0.01956928651256769]",4.0,"[0.15161236197929034,-0.04019843466087993]",4.0,"[-0.11349542357128281,-0.008554285553937929]",100.0,"[-0.023153233020783284,-0.10317451211558466]",100.0,"[-0.12583182668396625,-0.07559664578386312]",100.0,"[-0.10924400745753815,0.07477917128536278]",4.0,"[0.08079024610554693,0.17708364081850658]",4.0,"[0.0013384160901358366,-0.13516635714019698]",100.0,"[-0.18417589422266384,0.0724656092351554]",4.0,"[-0.1804911104241597,-0.026288123605690723]",4.0,"[-0.07795814464113279,-0.0745577100269037]",100.0,"[0.025396921585595835,0.11823504900201025]",100.0,"[-0.03806870475612017,0.04398808236633016]",4.0,"[0.0561360356976796,-0.09892886662106012]",100.0,"[0.06489839941571003,0.10190418933322273]",4.0,"[-0.10368425778691509,0.14572241817913884]",4.0,"[0.10565362347762881,0.09691022431832598]",4.0,"[-0.031177355912866574,0.09309683094776268]",4.0,"[-0.061869625586514605,0.18536288466867878]",4.0,"[-0.06418860577185208,-0.029859794110468556]",100.0,"[0.07461912982605202,-0.18265804712480607]",4.0,"[-0.06361598464747009,0.13006423097175243]",100.0,"[-0.014191496770266434,0.17935688856394555]",100.0,"[0.17098825341785698,0.021962635827371114]",100.0,"[-0.12624730615258772,0.03105404846816996]",100.0,"[0.05871194536075517,-0.036686160902611405]",4.0,"[-0.11553112122393404,-0.12161888086619928]",100.0,"[0.019022490726950378,-0.06953994794927267]",4.0,"[0.12185376158950736,0.15467073983023086]",4.0,"[0.17481417966511703,0.07743907999759266]",100.0,"[-0.16658771665218736,-0.06755430746798924]",100.0,"[0.02,0.02]",176.8172,0.0,16.0,16.0,99.0,1.0,,,,,,,
,,,,,,,66781db404eab5e142f849d9,684429353c5b0407a0aaead4,2025-06-07_14h01.17.429,shape_ratio,2024.1.5,Win32,59.88023952,684250e4f00cb30b92d1fa88,,,,,,,,,,,176.8187,177.3174,,,177.5616,177.8781,left,,,,,,,,0.4,0.3012,,,,,,,177.3175,177.5615,177.8783,"[0.01489739681064782,0.1886206570580443]",4.0,"[-0.13826487422230885,0.0246047615085738]",4.0,"[0.03706852870457052,0.12207812176653624]",100.0,"[-0.043454709657706085,-0.11037006210481692]",4.0,"[0.18245099397529127,0.0283400072640749]",4.0,"[0.14909397297570737,-0.03456054733310624]",4.0,"[-0.005610518264130236,0.0722212986795292]",100.0,"[0.048116437522450324,0.0680986394242421]",100.0,"[0.021910171616840383,-0.005116981308383075]",4.0,"[-0.09220184783363797,0.14323491365608565]",4.0,"[0.14337854283766913,0.0806160370216178]",4.0,"[-0.10996915502920594,-0.016165420785589465]",100.0,"[-0.14093448452923776,-0.10747743122160251]",4.0,"[0.07383921444855536,-0.0004050198545100613]",4.0,"[-0.09217119697199026,-0.095132412889358]",4.0,"[-0.06398916068303079,0.09392548960899377]",4.0,"[-0.01800962618046432,-0.02537853129765948]",4.0,"[0.07088952903755892,-0.041263922477408926]",4.0,"[0.1355763040549989,0.14379676264111527]",100.0,"[0.098037654231703,-0.172785029204445]",4.0,"[0.11397915252571825,0.04617185882895724]",4.0,"[-0.0033105779499357163,-0.11220067903489703]",4.0,"[0.0836026764700848,0.16627657443895003]",100.0,"[-0.17649337262127984,-0.056867033174445844]",100.0,"[0.08214141446883345,0.11325804081094688]",100.0,"[-0.027960720453494757,0.18941554803393545]",4.0,"[-0.0377785115768501,-0.1949140090603927]",100.0,"[0.052522258486467514,-0.15277665871655974]",100.0,"[-0.03557534378470914,0.03094296227113284]",100.0,"[-0.04464171214340449,0.14705816554287157]",4.0,"[-0.0654795707245097,-0.038455836084513834]",100.0,"[0.14638394498937568,-0.0888574306556458]",100.0,"[0.02,0.02]",178.9751,0.0,17.0,17.0,174.0,1.0,,,,,,,
,,,,,,,66781db404eab5e142f849d9,684429353c5b0407a0aaead4,2025-06-07_14h01.17.429,shape_ratio,2024.1.5,Win32,59.88023952,684250e4f00cb30b92d1fa88,,,,,,,,,,,178.9765,179.4753,,,179.7283,180.0618,left,,,,,,,,0.6,0.3185,,,,,,,179.4754,179.7281,180.0619,"[0.01742575678850304,-0.17225387145548093]",4.0,"[-0.017355386406119774,-0.002218624538437654]",100.0,"[0.15415455040322615,-0.1066758973927738]",100.0,"[-0.16693790879091217,0.09512881910125152]",100.0,"[0.10662106168509454,0.06487730509304707]",4.0,"[-0.0837626290742753,0.06962767573996745]",100.0,"[-0.13679721265943645,-0.0903867777309302]",4.0,"[-0.17433798775506743,-0.04785076290708688]",100.0,"[-0.10671470886131842,-0.13642543279363636]",4.0,"[-0.08439119623351038,-0.0047695922103352505]",4.0,"[0.132745381666162,-0.06201875122105906]",100.0,"[0.04844308577885792,-0.11929068825843978]",4.0,"[0.1534801626717876,0.08512465877858093]",100.0,"[-0.050262353725825874,-0.04151489978378958]",100.0,"[-0.010872141119811342,-0.05048181107900209]",100.0,"[-0.016932921793647977,0.11989607911314083]",4.0,"[-0.016999092936180436,-0.14529312725719482]",100.0,"[0.008862523916998623,-0.08822354663922101]",4.0,"[0.04069911689555059,0.07208160033558357]",100.0,"[0.11207627395964016,-0.010616502469738004]",4.0,"[-0.03983154254710609,0.1659864827304762]",4.0,"[-0.13711981239513849,0.12186720799603089]",100.0,"[-0.03394457193499255,0.07835539668337721]",4.0,"[-0.14084612853244885,-0.021588995389766143]",100.0,"[0.15539408381066913,-0.011503412863112846]",4.0,"[0.050856361947022734,0.16025349816216627]",100.0,"[-0.05068569535592621,-0.10716777795632433]",100.0,"[0.04287369310041676,0.006650952100604567]",100.0,"[-0.06566773039822413,0.11459032239623156]",100.0,"[0.06533989192120854,0.11087066743362457]",4.0,"[-0.058227498804903216,-0.16326963208183765]",100.0,"[0.12317165374592172,-0.1528113620912879]",100.0,"[0.02,0.02]",181.1593,0.0,18.0,18.0,33.0,1.0,,,,,,,
,,,,,,,66781db404eab5e142f849d9,684429353c5b0407a0aaead4,2025-06-07_14h01.17.429,shape_ratio,2024.1.5,Win32,59.88023952,684250e4f00cb30b92d1fa88,,,,,,,,,,,181.1608,181.6635,,,181.9167,182.3158,left,,,,,,,,0.4,0.3862,,,,,,,181.6636,181.9166,182.3158,"[0.11449163999510341,-0.1119192735795878]",100.0,"[-0.12607277208471834,0.010509879655376557]",4.0,"[-0.17033847483657394,-0.0859170039242659]",4.0,"[-0.17667347070692122,0.04099237089409967]",4.0,"[0.07129576998136924,0.125622810671257]",100.0,"[0.1279031673316388,0.08174210502584585]",4.0,"[0.000952076197369174,0.04357741753252423]",100.0,"[-0.12898460836055056,-0.08041318301564268]",100.0,"[-0.02129711376268231,-0.19387269664518358]",4.0,"[-0.018432813119767487,-0.027502475335878008]",4.0,"[0.0895482444185483,0.05786728978840151]",100.0,"[0.11632369949578195,-0.014023463922531577]",4.0,"[-0.006905840966092723,-0.12422879467243134]",4.0,"[0.06797343503098419,-0.048812838169331976]",100.0,"[-0.08396695764334454,0.13317399685062137]",4.0,"[-0.004664858768288311,-0.07600894559476391]",100.0,"[-0.07022878529937523,-0.06215188186273582]",4.0,"[-0.17622902651637326,0.09060937875683284]",4.0,"[0.11928237628945704,-0.05894031000260857]",4.0,"[0.10184963187707756,-0.15787187120204266]",4.0,"[0.021017031190981885,-0.009284198796422104]",100.0,"[-0.036243909953166974,0.10799912268100867]",4.0,"[-0.0606258157464057,-0.0191163068374445]",4.0,"[0.1647511420030054,0.044450154972306984]",100.0,"[-0.07568368843676536,0.08004627956291831]",4.0,"[0.03635181852855241,-0.13224192620146852]",4.0,"[-0.03676828658208942,0.16596885500607517]",4.0,"[0.16672262770784227,-0.1048043556258369]",100.0,"[-0.0926648309553875,-0.13286311623813474]",4.0,"[-0.05073952695036524,-0.15454635608459336]",100.0,"[0.044792371063797624,0.05577833251611256]",100.0,"[-0.15138855443302474,-0.028154507777050322]",100.0,"[0.02,0.02]",183.4154,0.0,19.0,19.0,156.0,1.0,,,,,,,
,,,,,,,66781db404eab5e142f849d9,684429353c5b0407a0aaead4,2025-06-07_14h01.17.429,shape_ratio,2024.1.5,Win32,59.88023952,684250e4f00cb30b92d1fa88,,,,,,,,,,,183.4168,183.9155,,,184.1669,184.5991,right,,,,,,,,0.45,0.4186,,,,,,,183.9156,184.1667,184.5993,"[-0.11405025758192942,0.10299175910257291]",4.0,"[0.1669274165171424,-0.06990649267773853]",4.0,"[0.08813743133136027,0.009597926296518644]",100.0,"[-0.11660606402181639,0.06213467422988805]",4.0,"[0.1765316530523089,0.020725681824204773]",100.0,"[-0.03139015043342124,-0.16264945686159768]",100.0,"[0.02648944626704044,0.10367203671420647]",100.0,"[0.1193069779371531,-0.11150272375190828]",4.0,"[0.017547505798139927,-0.17998980965155717]",4.0,"[-0.15324759551840617,0.007149963634198111]",100.0,"[0.11913539583362844,-0.036352455354351276]",4.0,"[0.14108097252579682,0.042895064640277626]",4.0,"[-0.12740773809665606,-0.1295167861656562]",4.0,"[0.07054758693303634,-0.145437506667859]",100.0,"[-0.07681664279271869,-0.061526442390707335]",4.0,"[-0.06399884728499179,-0.11461471520169916]",4.0,"[-0.10838952119076196,-0.0036466014549664796]",4.0,"[-0.15144444206056337,-0.07681492694091271]",100.0,"[0.12635306718785194,0.1061269581568244]",4.0,"[0.02023988189874141,-0.02822310281730494]",4.0,"[0.16237026229418758,-0.1101797572471108]",100.0,"[0.08720143988745169,0.08113893541260267]",4.0,"[0.04776342356791741,-0.06173438306780613]",100.0,"[0.19524456397830925,-0.017046257034462723]",4.0,"[-0.1291638865324224,-0.04083944764160005]",4.0,"[-0.01798330356107562,-0.09218794311037862]",4.0,"[0.025614220219211996,0.05700245809571238]",100.0,"[-0.0695717835845076,-0.17584170136492536]",4.0,"[0.01930069653100219,0.15210415486491866]",100.0,"[-0.1157349679378458,0.15430633793184895]",100.0,"[-0.05886678369402464,0.12164884507623731]",100.0,"[-0.11152654021377523,-0.08609214642428314]",100.0,"[0.02,0.02]",185.7019,0.0,20.0,20.0,124.0,1.0,,,,,,,
,,,,,,,66781db404eab5e142f849d9,684429353c5b0407a0aaead4,2025-06-07_14h01.17.429,shape_ratio,2024.1.5,Win32,59.88023952,684250e4f00cb30b92d1fa88,,,,,,,,,,,185.7026,186.1983,,,186.4428,186.8265,left,,,,,,,,0.5,0.3683,,,,,,,186.1984,186.4427,186.8265,"[0.04557773137455334,0.06706048991603906]",4.0,"[0.1222581621303937,0.011247466631956388]",100.0,"[0.005630561828283534,-0.1517234700946372]",100.0,"[-0.19433678401105803,-0.0018120959038964233]",100.0,"[-0.14810591890508243,0.027000124844747488]",4.0,"[-0.10416789469529189,0.08043719870670415]",100.0,"[-0.014249807688770114,0.18774963857952898]",4.0,"[0.07224456034337877,-0.08325962395731566]",4.0,"[0.11985208598161068,0.09261611084680067]",4.0,"[-0.07229803365042653,-0.032316036896289625]",4.0,"[0.19899968687668462,0.0039042767621155932]",100.0,"[0.05180550540889005,-0.15010802078324229]",4.0,"[-0.052445692829975146,-0.12945106323034636]",4.0,"[-0.13083481801506366,-0.03476483247041693]",100.0,"[0.07767847476147938,0.11125902598372428]",100.0,"[0.010848256628198239,-0.07135792997865811]",4.0,"[-0.0890202168355761,-0.17186822682303]",100.0,"[0.16591929469449437,0.07767309561769944]",100.0,"[-0.16408816410672838,-0.10109025785567836]",100.0,"[0.10593734409777328,0.0544808095549367]",4.0,"[0.11417599634893254,-0.1603088940429839]",100.0,"[0.1203678868311966,0.15355082222610147]",100.0,"[-0.18441169908312377,0.05940517043688005]",4.0,"[-0.06112352803759392,-0.07934925794983937]",4.0,"[-0.04080704246420377,-0.1948400323068385]",100.0,"[0.07327073683368739,0.00745847098972073]",4.0,"[-0.07179045857224071,0.032068026307741686]",100.0,"[0.158257670297091,-0.02168274093704507]",100.0,"[0.12759297582892115,-0.06234720759223855]",100.0,"[0.0526784101519199,0.15092433421702647]",4.0,"[-0.1408705838250532,0.13054090722049716]",4.0,"[0.0033755172600372424,0.055509949249889154]",4.0,"[0.02,0.02]",187.9227,0.0,21.0,21.0,109.0,1.0,,,,,,,
,,,,,,,66781db404eab5e142f849d9,684429353c5b0407a0aaead4,2025-06-07_14h01.17.429,shape_ratio,2024.1.5,Win32,59.88023952,684250e4f00cb30b92d1fa88,,,,,,,,,,,187.9243,188.4233,,,188.6784,189.0249,left,,,,,,,,0.6,0.3342,,,,,,,188.4234,188.6782,189.025,"[0.056268354378947866,-0.012534055043484179]",4.0,"[0.04830088442505678,0.18078690395644437]",100.0,"[0.05613603117531899,-0.09300512696751417]",100.0,"[-0.17482981649299026,0.020560387547562984]",100.0,"[-0.0027312454436297156,0.17094369674759977]",4.0,"[-0.08415382808560302,-0.18007788563251456]",100.0,"[-0.04343571632456109,0.1059295853949041]",4.0,"[-0.1640338576247535,0.10517049305215966]",100.0,"[-0.15636241782761948,-0.08339507144395987]",100.0,"[-0.07886631759453602,0.08060605961823589]",100.0,"[0.0025720073704773184,-0.03230470017084396]",100.0,"[-0.12518195876469193,0.03375099864466412]",100.0,"[0.08282593893894503,0.06885771724002544]",4.0,"[-0.017990664038935143,-0.15245082521120332]",100.0,"[0.15369856013611258,0.1198757382536519]",100.0,"[-0.0945101539449671,-0.030172332235001535]",100.0,"[0.1522911840574235,0.029980978928906832]",100.0,"[-0.014399205666486876,0.0061519646970919295]",100.0,"[-0.10551429506333015,0.14432014817355884]",4.0,"[-0.07801547344758475,0.18227637952847675]",4.0,"[-0.05942097294085577,0.009183945695197307]",4.0,"[0.07168010131920785,0.14171709607317845]",100.0,"[-0.07569239597758316,-0.10916292025436239]",100.0,"[-0.016292772690797777,-0.10238431739704883]",4.0,"[0.07467071546226026,0.02857021105538499]",100.0,"[0.023442412426993797,-0.18814352171498053]",4.0,"[0.13701135313099935,0.07661509114212096]",100.0,"[0.07136474749499565,-0.15652190563490445]",4.0,"[-0.10820194188469619,-0.1390602302290256]",4.0,"[0.014750742167161393,0.07190493091824444]",100.0,"[0.12017469902385103,-0.08443248644644724]",4.0,"[0.10238487717675407,-0.12305393923860308]",4.0,"[0.02,0.02]",190.123,0.0,22.0,22.0,59.0,1.0,,,,,,,
,,,,,,,66781db404eab5e142f849d9,684429353c5b0407a0aaead4,2025-06-07_14h01.17.429,shape_ratio,2024.1.5,Win32,59.88023952,684250e4f00cb30b92d1fa88,,,,,,,,,,,190.1251,190.6229,,,190.8748,191.5903,right,,,,,,,,0.45,0.7,,,,,,,190.623,190.8746,191.5903,"[-0.11545637187881357,-0.08500128540159]",4.0,"[-0.03765396400341579,-0.15386696117933493]",100.0,"[-0.021613865225313163,-0.0011589884134063327]",100.0,"[0.04482672252520902,-0.12376886352420843]",4.0,"[0.060999711848610916,0.15416882066876925]",4.0,"[0.09808355905501383,0.07514509225852734]",4.0,"[0.11511408944941119,-0.12479737962127223]",4.0,"[-0.15732883564753067,-0.1070489320211884]",100.0,"[-0.06573473380621132,0.09050193123220109]",4.0,"[0.14190585111639117,-0.00041507089254607136]",4.0,"[-0.15233543003443406,0.08188412955865208]",100.0,"[-0.015090318614640897,0.12124527197786157]",100.0,"[0.03251046367781392,0.10293147413837016]",4.0,"[-0.08807357528749589,-0.1312084968479932]",100.0,"[-0.14603398246746782,-0.02682449440279202]",4.0,"[-0.0602331676528147,-0.0353393604710057]",100.0,"[0.03778892206567682,-0.02295593597281528]",100.0,"[0.07223460987704328,-0.05420606605779782]",100.0,"[0.05057070040112995,-0.19304044361861308]",100.0,"[-0.007790708111672747,-0.039161445209094294]",4.0,"[-0.03159702730097318,-0.08405851402089268]",4.0,"[0.13627668284026606,0.042729040906415765]",100.0,"[0.04276996233017499,0.04468308749399059]",4.0,"[0.18361459995091267,-0.06570764185978342]",4.0,"[0.0030581723245957687,0.031319395631957944]",4.0,"[0.12750718883690493,0.13184477358239202]",100.0,"[0.14194208297543,-0.050624611736418496]",4.0,"[0.07649994789528114,0.1106012100838415]",100.0,"[0.013097066775188224,-0.09328260129085647]",4.0,"[-0.05897628312439557,0.13271583667033934]",100.0,"[0.18128607094916618,0.0589196752293674]",4.0,"[0.009479629879740062,-0.15081269319121665]",4.0,"[0.02,0.02]",192.6885,0.0,23.0,23.0,135.0,1.0,,,,,,,
,,,,,,,66781db404eab5e142f849d9,684429353c5b0407a0aaead4,2025-06-07_14h01.17.429,shape_ratio,2024.1.5,Win32,59.88023952,684250e4f00cb30b92d1fa88,,,,,,,,,,,192.6899,193.19,,,193.4393,193.9902,left,,,,,,,,0.1,0.5336,,,,,,,193.19,193.4391,193.9902,"[-0.12500232888364077,-0.11043581710322614]",4.0,"[-0.011393092883630239,0.1913621276534629]",4.0,"[-0.16827803664243082,-0.06058347408277781]",4.0,"[-0.09307197324826215,0.014263524116293754]",4.0,"[0.005349396851024731,-0.08997480642593648]",4.0,"[0.07959086169745481,0.11456339836100403]",4.0,"[0.01945834289803148,0.013322239879026695]",4.0,"[-0.15635350827803982,0.11495806452688548]",4.0,"[-0.16249167755296895,-0.016072336777624843]",4.0,"[0.1638032330300275,-0.05806819511036391]",4.0,"[0.08579274454409727,-0.04671085062497933]",4.0,"[-0.00044939604596443367,-0.14918176834803354]",4.0,"[0.08665356113761716,0.024937476268054985]",4.0,"[0.02817912865994762,0.1185033431778724]",100.0,"[-0.11903233515692715,0.07683969875972627]",4.0,"[-0.04056340897590322,-0.11106414808517241]",4.0,"[-0.09859825285800727,-0.15816923828889087]",4.0,"[-0.08173213009769055,-0.10213884365579032]",4.0,"[0.09616769994049955,-0.14017383295157743]",4.0,"[-0.08017884413225264,0.05793807817093447]",4.0,"[0.1773639442475988,0.09039686875433978]",4.0,"[0.19634628414015193,-0.031193136005371182]",4.0,"[-0.16635173828629204,0.04774849955540341]",100.0,"[0.03987645961678134,-0.06460867237793994]",4.0,"[0.05655094798466189,0.07312019531719348]",4.0,"[-0.036365226649861325,-0.012333387595645822]",4.0,"[-0.10399556662319893,0.14530479052411377]",4.0,"[0.14972066412998422,0.0013262803162552201]",100.0,"[0.12546084621738668,0.08444430403043894]",4.0,"[0.06171401506713141,0.1760647878296416]",4.0,"[0.0339609709084698,-0.18252543985275543]",4.0,"[-0.009651549824440499,0.14883362229187722]",4.0,"[0.02,0.02]",195.09,0.0,24.0,24.0,203.0,1.0,,,,,,,
,,,,,,,66781db404eab5e142f849d9,684429353c5b0407a0aaead4,2025-06-07_14h01.17.429,shape_ratio,2024.1.5,Win32,59.88023952,684250e4f00cb30b92d1fa88,,,,,,,,,,,195.0919,195.5899,,,195.8414,197.0643,right,,,,,,,,0.1,1.2051,,,,,,,195.5901,195.8411,197.0644,"[-0.08143280921048059,-0.09641873465393021]",4.0,"[-0.0259181763788536,0.04330304651282653]",4.0,"[0.19547821787514955,-0.021883971238897158]",100.0,"[0.040253358686946676,0.12240173691989815]",4.0,"[0.08359248543158201,-0.09533342468325957]",4.0,"[-0.06542472562582285,0.008837699305707982]",4.0,"[0.05358200224382958,-0.05143488150213374]",4.0,"[-0.1774729526415901,-0.01233877808787815]",4.0,"[0.16976302306708155,-0.0723070135547066]",4.0,"[-0.06062907540954291,-0.16433312804521621]",4.0,"[-0.048138101876706446,-0.11937466897350113]",100.0,"[-0.0015613164239713273,-0.10627518178754591]",4.0,"[0.09226026827211124,0.049321864350302384]",4.0,"[-0.147906496021574,-0.13426133402461837]",4.0,"[0.055681860484910216,0.003974214598707649]",4.0,"[-0.02711011574555929,0.1500062397491728]",4.0,"[0.06759040076777575,0.0896187481929119]",4.0,"[-0.06693256655737377,-0.04742565972735362]",4.0,"[0.12246997462445713,-0.006741339932179853]",4.0,"[0.08123511092578257,-0.15768741425155142]",4.0,"[0.06946958746859466,0.1644157912019458]",4.0,"[0.13887814963695652,-0.1371919923440473]",4.0,"[-0.10609799073083022,-0.13693731553199512]",4.0,"[0.14644250305979034,0.07828461091227865]",100.0,"[-0.019127491943955847,-0.016230591117284834]",4.0,"[-0.15640930282800797,0.12226693586710613]",4.0,"[-0.17269841215430845,0.04855677040266738]",4.0,"[-0.1273605299538854,-0.06160390928232191]",4.0,"[0.11675373461751695,0.13144776899356228]",4.0,"[0.12747197422333922,-0.050806884638020626]",4.0,"[-0.07395364258496556,0.08105120822117896]",4.0,"[0.18755709417930808,0.0451593259131973]",4.0,"[0.02,0.02]",198.1633,0.0,25.0,25.0,208.0,1.0,,,,,,,
,,,,,,,66781db404eab5e142f849d9,684429353c5b0407a0aaead4,2025-06-07_14h01.17.429,shape_ratio,2024.1.5,Win32,59.88023952,684250e4f00cb30b92d1fa88,,,,,,,,,,,198.1646,198.6643,,,198.9147,199.4955,left,,,,,,,,0.6,0.5678,,,,,,,198.6645,198.9146,199.4955,"[-0.18917885356870362,0.0014069397550038143]",4.0,"[-0.10787644536673194,-0.099554538816666]",4.0,"[0.1522834233053348,-0.016929721855748425]",100.0,"[-0.06471863758212931,-0.17315961101690522]",100.0,"[-0.11042726845851639,0.09950687089553943]",100.0,"[0.12192865120940767,0.09135149324907045]",4.0,"[0.030364973521215925,-0.027050558375785648]",4.0,"[0.00758116859666537,0.06453745366555148]",4.0,"[0.07829867635709598,0.11660534552378836]",4.0,"[0.031222181571654833,-0.1862456158622673]",4.0,"[-0.052091370063642325,-0.11203312520613648]",4.0,"[-0.01810149551409893,0.1833627124877572]",100.0,"[0.06856735003782122,-0.10669301409992688]",100.0,"[0.16514312787934582,-0.09820648663052725]",100.0,"[-0.07800987681803484,0.1731692279065436]",100.0,"[0.039008484909799704,0.09509036947088204]",100.0,"[-0.06601316585538843,0.07236210824440825]",100.0,"[-0.10970573081082524,-0.011725430670463142]",100.0,"[0.026087099911532293,0.18912080507476547]",4.0,"[0.07439826016922861,-0.14868020300381934]",4.0,"[-0.1263770054926667,0.037194269616145706]",100.0,"[0.030570402298510407,-0.1385186884801925]",100.0,"[-0.03911063200077752,0.10427460627277]",100.0,"[-0.055429669442558,-0.001395591978349023]",4.0,"[-0.13836581259517838,0.1366119254451316]",100.0,"[0.13043105530010038,-0.11942878502953432]",4.0,"[0.15101654630463363,0.02313346724462415]",4.0,"[0.11949237515352272,-0.04405768030742966]",100.0,"[0.06177812121674914,-0.06032188938677495]",100.0,"[0.08843566325564574,0.0659417811056363]",100.0,"[-0.14191225590525125,-0.062156741512284314]",100.0,"[0.0009985906702863491,0.11648243418375843]",100.0,"[0.02,0.02]",200.5949,0.0,26.0,26.0,37.0,1.0,,,,,,,
,,,,,,,66781db404eab5e142f849d9,684429353c5b0407a0aaead4,2025-06-07_14h01.17.429,shape_ratio,2024.1.5,Win32,59.88023952,684250e4f00cb30b92d1fa88,,,,,,,,,,,200.5963,201.0946,,,201.3385,202.0803,right,,,,,,,,0.6,0.7256,,,,,,,201.0946,201.3385,202.0804,"[0.058513983044454224,0.1136751106390121]",100.0,"[-0.020674348925975253,0.16954955939927527]",4.0,"[0.13414240921784987,-0.13439312817580776]",100.0,"[-0.11381201664934501,-0.14747442263410263]",100.0,"[0.07267316821307321,-0.03973064817759433]",100.0,"[-0.14577022194427766,-0.0013495479883932795]",100.0,"[0.0052503763937703785,-0.10139950354453929]",100.0,"[-0.05010538394998964,-0.006750719669587018]",100.0,"[-0.12929155249368898,-0.1032676427260112]",100.0,"[-0.09385430735459789,0.08428423216805271]",100.0,"[0.10121800036147979,-0.00974081740932349]",100.0,"[-0.038806001893268646,-0.15760959284860193]",4.0,"[0.07842879727468358,0.07034894774243328]",4.0,"[-0.10828989895809084,-0.01789790836509332]",4.0,"[-0.05406042554214771,-0.12061090023053704]",100.0,"[0.0630279481843645,0.17789710792759017]",100.0,"[-0.06427368344410285,0.18923773072371095]",4.0,"[0.14150540764108835,0.13659373053803664]",4.0,"[0.0500983699964367,-0.17822727417740375]",4.0,"[0.00935393950603264,0.10009925294321345]",100.0,"[-0.11049090010532982,0.12575186049913864]",100.0,"[-0.16190339018149802,-0.07651994563134776]",4.0,"[0.17876830328195875,0.017683188334159373]",4.0,"[-0.06983483030132125,0.14890234507637307]",100.0,"[0.046814228950698096,-0.10264928183783727]",4.0,"[-0.02787952751405359,-0.06847171679794054]",100.0,"[-0.004044970716195149,0.00691435035887239]",4.0,"[0.14141902062900374,-0.06503280297796626]",100.0,"[-0.19635373261201275,-0.0027928153451674737]",4.0,"[-0.029018499673484983,0.07954119112447937]",100.0,"[-0.172769511222964,0.0639039563081625]",4.0,"[0.02111119448915391,0.181956520065419]",100.0,"[0.02,0.02]",203.1695,0.0,27.0,27.0,43.0,1.0,,,,,,,
,,,,,,,66781db404eab5e142f849d9,684429353c5b0407a0aaead4,2025-06-07_14h01.17.429,shape_ratio,2024.1.5,Win32,59.88023952,684250e4f00cb30b92d1fa88,,,,,,,,,,,203.1712,203.6703,,,203.9217,204.3055,right,,,,,,,,0.6,0.3683,,,,,,,203.6705,203.9217,204.3055,"[-0.17918092914259254,0.031232628722887946]",4.0,"[0.06546257034486525,-0.17744646734930197]",100.0,"[-0.023401573380897694,-0.03521351095714956]",100.0,"[-0.03266527526065525,0.17216413349316065]",100.0,"[0.0898224684972982,-0.0724138937832508]",4.0,"[-0.14673688162052054,-0.013647064304158631]",100.0,"[-0.07191824059307017,-0.14546878450962536]",4.0,"[-0.14625534291800182,-0.11459173632681863]",100.0,"[-0.07490082076950348,-0.026699710844537553]",100.0,"[-0.0729188416519855,0.06178202976123153]",100.0,"[-0.1235872345940955,0.0706332496917423]",100.0,"[0.04403367862788486,-0.0590818450645751]",100.0,"[0.14409046492950006,-0.06261978983758186]",100.0,"[0.04596912898727933,0.07693714059697868]",100.0,"[0.13619842790793438,0.01594400200703678]",100.0,"[0.19165183686535642,-0.036585338159069745]",100.0,"[-0.031010755129544557,-0.15098616997575098]",100.0,"[0.1175906594859804,-0.03147958430585067]",4.0,"[0.027238536899942434,-0.1513110181808662]",4.0,"[0.0344243437854424,-0.10106550824943655]",4.0,"[0.0367763921345526,-0.0013515969275140493]",4.0,"[0.1172565859891705,-0.15919709589877418]",100.0,"[0.16978365471083023,0.05884682227853139]",100.0,"[-0.010811773123887747,0.1126870062879212]",100.0,"[-0.1250293697784522,0.15511713198515936]",4.0,"[0.040840603210919015,0.18667321969377074]",100.0,"[0.14747841374844434,-0.13237928673426752]",4.0,"[-0.16825053190743966,-0.06629251571714118]",100.0,"[0.07628693447650596,-0.13407815185969513]",4.0,"[-0.05425572397148355,0.11305601488532356]",4.0,"[0.11887510793970821,0.10980052674314818]",4.0,"[0.160158403084632,0.10423163514248722]",4.0,"[0.02,0.02]",205.394,0.0,28.0,28.0,42.0,1.0,,,,,,,
,,,,,,,66781db404eab5e142f849d9,684429353c5b0407a0aaead4,2025-06-07_14h01.17.429,shape_ratio,2024.1.5,Win32,59.88023952,684250e4f00cb30b92d1fa88,,,,,,,,,,,205.3957,205.8872,,,206.1276,206.7101,right,,,,,,,,0.45,0.5683,,,,,,,205.8873,206.1274,206.7102,"[-0.11314935550958126,0.027420710683235178]",100.0,"[0.0701013038772712,0.084059216060311]",4.0,"[-0.14497459515271133,0.09905823483398209]",100.0,"[-0.07329544269204744,-0.14164542366703187]",100.0,"[0.03781013661132159,0.14162398949372212]",4.0,"[-0.1269411625657253,-0.10827693702919872]",4.0,"[0.0029081323564640253,-0.1952914325087337]",4.0,"[0.08810868641959332,0.17467266753900484]",4.0,"[-0.14572839388394954,-0.005402049883403248]",4.0,"[0.01272280107962172,-0.149509583022022]",100.0,"[-0.06475037561481316,-0.014945398945857318]",100.0,"[0.09691368778012187,0.0062011228878579945]",100.0,"[0.061399229832556856,-0.031942405878535404]",100.0,"[0.03913319937823185,0.1942355028964027]",100.0,"[0.02310273321778959,-0.008206379383189282]",4.0,"[0.12692286988868973,-0.09561332631368126]",100.0,"[0.08945821161865783,-0.1720680090108918]",4.0,"[-0.0037579215181569284,0.08685970416266527]",100.0,"[-0.037416071811759176,-0.1658900077207254]",4.0,"[0.11091980884848397,0.08820656306076159]",100.0,"[-0.05679317324003753,-0.056981470403596045]",4.0,"[-0.007509314246524475,0.19207353408578895]",100.0,"[-0.026584196100646086,0.134925631101025]",100.0,"[0.17155583963406199,0.05427422837842156]",4.0,"[-0.10462173718697354,0.08781554945826399]",4.0,"[0.011958246296749566,-0.10591572010333528]",4.0,"[0.14537470862632002,0.12097606805820946]",100.0,"[-0.16017690377686994,-0.07440004693715672]",4.0,"[-0.1231058261091673,0.13722677635550018]",4.0,"[-0.05279203694212859,0.17014876339900972]",4.0,"[0.04847201199099541,0.04951042265587479]",4.0,"[-0.05254314344546308,0.05882420065433857]",4.0,"[0.02,0.02]",207.8096,0.0,29.0,29.0,141.0,1.0,,,,,,,
,,,,,,,66781db404eab5e142f849d9,684429353c5b0407a0aaead4,2025-06-07_14h01.17.429,shape_ratio,2024.1.5,Win32,59.88023952,684250e4f00cb30b92d1fa88,,,,,,,,,,,207.8109,208.3094,,,208.5605,208.9262,left,,,,,,,,0.55,0.3516,,,,,,,208.3096,208.5605,208.9262,"[-0.06232082850346211,0.11097317782321042]",4.0,"[0.17823481916712366,0.015874738347716674]",100.0,"[0.04885522334091647,0.18675932509085916]",4.0,"[-0.014972348495778038,-0.18558815477349933]",4.0,"[-0.08921344381084546,-0.0664650625024228]",4.0,"[0.11724386799256502,-0.02714011713284616]",4.0,"[0.024550105690005746,-0.08293400784553391]",100.0,"[-0.02639496639767341,-0.07785801654733486]",100.0,"[-0.096832394793053,0.015402686327434889]",100.0,"[0.111910873109974,0.09658453914266295]",100.0,"[0.061236719719406724,0.01891949705508541]",4.0,"[-0.01770983408334901,0.13239248985191007]",100.0,"[0.15313017212468838,-0.0824791538582829]",100.0,"[0.12248992007418583,0.14549146785061487]",4.0,"[-0.19522069874409703,-0.010538448670111281]",100.0,"[0.026693532010437556,-0.14278834475861607]",4.0,"[0.16806723209555555,0.0811719491154079]",100.0,"[0.0006842864530982838,-0.044258863020035344]",100.0,"[-0.14834707255515062,0.10707840572969148]",100.0,"[0.002454040228677816,0.01880385251320312]",100.0,"[-0.11131915987409494,-0.13326798861799863]",100.0,"[-0.06087042774326692,-0.10620101688785756]",4.0,"[-0.13730337490979302,-0.025676406735211866]",100.0,"[0.018129981610796802,0.06170722998394202]",100.0,"[0.061657430587147226,0.0827097623043096]",100.0,"[-0.17140149352078443,0.0428361029125058]",100.0,"[-0.05684875866935601,0.18942307847669657]",4.0,"[-0.04147955795473791,-0.001327299220424829]",4.0,"[0.10841741458407086,-0.15511137986021886]",4.0,"[-0.14094026391806874,-0.08754360440415385]",4.0,"[0.15121182159816055,-0.12979841254432253]",100.0,"[0.10603811083851972,-0.10600688818663603]",4.0,"[0.02,0.02]",210.0257,0.0,30.0,30.0,67.0,1.0,,,,,,,
,,,,,,,66781db404eab5e142f849d9,684429353c5b0407a0aaead4,2025-06-07_14h01.17.429,shape_ratio,2024.1.5,Win32,59.88023952,684250e4f00cb30b92d1fa88,,,,,,,,,,,210.0271,210.5259,,,210.7699,211.2189,left,,,,,,,,0.45,0.4332,,,,,,,210.5259,210.7698,211.219,"[-0.10532105972814328,-0.11254991880710054]",4.0,"[-0.17780854014750136,-0.05394533105482833]",4.0,"[-0.05357438252505436,-0.012726011521686844]",100.0,"[-0.03299015425257425,0.1560204708044082]",100.0,"[-0.12417286342691783,0.11312316098016716]",4.0,"[0.16868703670766194,-0.03810640565659618]",4.0,"[0.08520766554054165,0.1389315488299173]",4.0,"[0.024526317498937248,0.09054527707213711]",100.0,"[0.02943645658720415,-0.1566232182324835]",100.0,"[0.16143928605796007,0.11300760720972862]",4.0,"[-0.07282287498998569,0.09057887900088579]",100.0,"[0.032026974572535415,0.15846853275648295]",100.0,"[0.046719026956784836,-0.09428939550849134]",4.0,"[0.11818957604530853,0.03519612601198386]",4.0,"[-0.03270048501019022,0.11332378106065659]",4.0,"[0.07533028111910238,0.051456478895324544]",4.0,"[-0.16245876088835548,0.03909355571487702]",4.0,"[0.1350161505376768,-0.14743257884763813]",100.0,"[-0.15569239505051963,-0.0037865717135143265]",100.0,"[-0.03243443530383737,-0.15991949237840994]",100.0,"[0.10166088328322001,-0.028218546395414566]",4.0,"[-0.08108327588777359,-0.07013805850290637]",4.0,"[-0.04269802527901598,0.04939212301675033]",4.0,"[-0.007109846447629751,0.022765345302497717]",100.0,"[0.06439195154888809,-0.05328855444415625]",4.0,"[0.08353101648552566,-0.12848445563906163]",100.0,"[0.012233602564851329,-0.028378160638983917]",4.0,"[0.16616919569021793,-0.10166543312358134]",100.0,"[0.06495775769453932,0.012512834963123469]",4.0,"[-0.04118607958283569,-0.055117457736900015]",4.0,"[0.19370122482718866,0.032253723568678304]",100.0,"[0.0652526421954343,-0.17761880219402146]",100.0,"[0.02,0.02]",212.3186,0.0,31.0,31.0,138.0,1.0,,,,,,,
,,,,,,,66781db404eab5e142f849d9,684429353c5b0407a0aaead4,2025-06-07_14h01.17.429,shape_ratio,2024.1.5,Win32,59.88023952,684250e4f00cb30b92d1fa88,,,,,,,,,,,212.32,212.817,,,213.0682,214.4005,right,,,,,,,,0.5,1.3151,,,,,,,212.8171,213.068,214.4006,"[-0.0568892027605467,0.0488671177718926]",100.0,"[-0.06905504375244459,-0.07795933555706117]",4.0,"[-0.041596161335570946,-0.1906048288000065]",100.0,"[0.10759771200509403,0.13457874523793661]",4.0,"[-0.06386182187857137,0.14427295183128422]",4.0,"[0.17845310153498944,-0.07735437980923847]",100.0,"[0.08081521290326445,0.03767440481324646]",100.0,"[-0.16136058505504702,-0.09355821269095166]",4.0,"[-0.15018254414600504,-0.00518920709511765]",4.0,"[-0.17189163800809715,0.08055958424779251]",4.0,"[-0.09042625356845407,-0.16366282266604498]",4.0,"[0.1849815533012943,0.012495089168533587]",4.0,"[0.12938952395636083,-0.0676149501267843]",4.0,"[-0.01970648239105489,-0.03973593084137984]",4.0,"[0.05573695750647783,-0.1603100902931234]",100.0,"[0.13413078068457326,-0.004301285747745941]",4.0,"[-0.010859966968836187,-0.11600612881714588]",100.0,"[0.04347173057277602,-0.008138910843539224]",4.0,"[-0.07089105217739039,-0.012417140024687377]",4.0,"[0.13094508011800302,-0.10969596812552822]",100.0,"[-0.1092355761793658,0.14775530692389316]",100.0,"[0.0022878439979614213,0.013340859857671711]",100.0,"[-0.11554332772665925,0.04467947884594188]",4.0,"[-0.059735205697703735,-0.1321176147279327]",100.0,"[-0.10582327465763323,-0.05346086280597589]",100.0,"[0.02925665511252044,-0.05494245674136911]",100.0,"[-0.18492002050378445,-0.04105705561289387]",100.0,"[0.00882453326084258,0.11593603935946126]",4.0,"[0.1596381270453441,0.08203490952922755]",100.0,"[0.04104731583634729,-0.11069063047167826]",4.0,"[0.07524824694888421,-0.04385046685852185]",100.0,"[-0.0648924259549863,0.18439123856086628]",100.0,"[0.02,0.02]",215.5005,0.0,32.0,32.0,105.0,1.0,,,,,,,
,,,,,,,66781db404eab5e142f849d9,684429353c5b0407a0aaead4,2025-06-07_14h01.17.429,shape_ratio,2024.1.5,Win32,59.88023952,684250e4f00cb30b92d1fa88,,,,,,,,,,,215.5035,216.0016,,,216.2423,216.591,left,,,,,,,,0.9,0.3354,,,,,,,216.002,216.2421,216.5911,"[0.06495895556138633,-0.08857794333040472]",100.0,"[-0.11215987226575237,-0.0626379386236597]",100.0,"[-0.17403900693613292,-0.009303717586823324]",100.0,"[0.02713265473175332,0.011529836525975926]",100.0,"[-0.00004361522264618989,0.12279901754430601]",4.0,"[0.02252946070498291,-0.10729717761141011]",100.0,"[-0.0667695450106455,-0.08850774361336937]",100.0,"[-0.12170142481237443,-0.14543497094304267]",100.0,"[0.010042985157155756,-0.18564827243891502]",100.0,"[-0.09356603681371117,0.01603790676306603]",100.0,"[-0.0815062475502625,0.10774261522595474]",100.0,"[0.09912498949858632,0.033565238913213336]",100.0,"[-0.1612636739324183,0.10583729905167519]",100.0,"[-0.05852075079906627,0.17556981510626543]",100.0,"[0.08967200762488768,-0.1314296550140853]",100.0,"[0.10548652093164901,0.1231237867715004]",100.0,"[0.09508814748105979,-0.019689966536217855]",100.0,"[0.029614061190974962,0.17769429297190584]",4.0,"[-0.026295354024036554,0.07677261578596105]",100.0,"[-0.029227192347522947,-0.04191238046791719]",100.0,"[0.1807658661662381,0.07371054265929913]",100.0,"[0.07553538517462448,0.08808271085157883]",100.0,"[0.06310826403770327,-0.04841699454551676]",100.0,"[-0.10619494005562255,0.06388219717310906]",100.0,"[-0.14273618916947484,0.023105051067039604]",100.0,"[-0.09392550298200367,-0.024380567779068406]",100.0,"[0.17799555190492497,0.02200194885425253]",100.0,"[-0.18010066903397967,-0.07095461768072538]",100.0,"[-0.06867058780106067,-0.14944850302938548]",100.0,"[0.1876772963928687,-0.05147702953723833]",100.0,"[0.03761867883710254,0.05504458767172663]",4.0,"[-0.01905455934893001,-0.1392705219798822]",100.0,"[0.02,0.02]",217.6908,0.0,33.0,33.0,8.0,1.0,,,,,,,
,,,,,,,66781db404eab5e142f849d9,684429353c5b0407a0aaead4,2025-06-07_14h01.17.429,shape_ratio,2024.1.5,Win32,59.88023952,684250e4f00cb30b92d1fa88,,,,,,,,,,,217.6932,218.1906,,,218.4331,219.1499,left,,,,,,,,0.5,0.6995,,,,,,,218.1906,218.4329,219.1499,"[0.0029392927441080434,-0.15110271346627666]",4.0,"[0.07473426855113939,0.03394983093809614]",4.0,"[0.1808975232258072,0.01652307411112452]",100.0,"[-0.07281762595754107,0.03741432144500045]",100.0,"[0.0056143619247189126,0.14371173702882173]",4.0,"[-0.1197873900458647,-0.1096760279908529]",100.0,"[0.10806026664133768,-0.12289430438547984]",100.0,"[-0.17980193528578303,0.03818068135912623]",4.0,"[0.17333130392968205,-0.0877721197240672]",4.0,"[-0.0802875949616691,-0.06229809234700646]",4.0,"[0.05584575331292561,0.0767775333434151]",4.0,"[-0.14765969060070097,0.06683665137311691]",100.0,"[-0.06406520967623147,0.09831937477871446]",100.0,"[0.1411152544438735,-0.014470176116457144]",100.0,"[0.08914147259427668,-0.06889670627490384]",100.0,"[-0.01929494208032114,0.03968725515533527]",4.0,"[0.019323089930829113,-0.014107949472941304]",100.0,"[-0.12103379886862453,0.150891819546453]",4.0,"[-0.15781591701351746,-0.03337672140424123]",4.0,"[0.06180318184657315,-0.1485287899302209]",4.0,"[-0.06288755225202468,-0.10277907100574145]",100.0,"[0.052478452330814856,0.1749409710943988]",4.0,"[0.10045535720529203,0.07840846400702868]",4.0,"[0.023891651753072108,0.10508354987533225]",100.0,"[-0.05913666205271179,0.14920463174883694]",100.0,"[0.027059630779916796,-0.0603766978139519]",100.0,"[0.16554237577605296,0.09940117127798045]",100.0,"[0.11581665196081303,0.16187828798540013]",100.0,"[-0.018414643677979566,-0.10905949478883079]",100.0,"[0.141658122580644,-0.05820613875399001]",4.0,"[-0.018743251687179035,0.10401204835731248]",4.0,"[0.06312845685794824,-0.03195229552439679]",4.0,"[0.02,0.02]",220.2512,0.0,34.0,34.0,119.0,1.0,,,,,,,
,,,,,,,66781db404eab5e142f849d9,684429353c5b0407a0aaead4,2025-06-07_14h01.17.429,shape_ratio,2024.1.5,Win32,59.88023952,684250e4f00cb30b92d1fa88,,,,,,,,,,,220.2526,220.7483,,,220.9908,221.3231,left,,,,,,,,0.9,0.3193,,,,,,,220.7484,220.9908,221.3232,"[0.024325711359360076,-0.05330807749892978]",100.0,"[0.0906494078905894,-0.1482850125945155]",100.0,"[-0.08488285629861479,0.0210050985083304]",100.0,"[0.050809240465169034,0.10431771464065881]",100.0,"[0.0647225840080023,0.18439818269057975]",100.0,"[-0.039538082663305205,0.017585505160625653]",100.0,"[0.10861900793338372,0.09327307709113869]",100.0,"[0.0077232743016152836,-0.011722274130395883]",100.0,"[-0.1393825879352636,-0.02171851663980982]",100.0,"[-0.049098145266059066,-0.11835449879351535]",100.0,"[0.04205091358007333,0.03121509795780126]",100.0,"[-0.12763501543770725,0.02288907206551554]",100.0,"[-0.039032422510289815,-0.1877601415397387]",100.0,"[-0.06447195652972311,0.13699739058649085]",100.0,"[0.0640254333361367,-0.04242663823481338]",100.0,"[0.0933577379316141,0.04033854679527266]",100.0,"[-0.040721854354807095,0.08775415587237875]",4.0,"[0.14583867690821195,0.00851743369776379]",4.0,"[-0.1496360072439159,0.09748140930088628]",100.0,"[-0.06444749605127514,0.18512107580210324]",100.0,"[0.18690950111863255,-0.06356971300085568]",100.0,"[-0.162367742221275,-0.07737717192669175]",100.0,"[-0.1232715396338442,-0.11489408774076378]",100.0,"[-0.0028085202129151977,0.19281267591054857]",100.0,"[-0.07506313976785951,-0.06641762615632782]",100.0,"[0.09339544217123015,0.14742698278644992]",100.0,"[0.000002772191611705721,0.06314355818244387]",100.0,"[-0.09816486243748214,0.07001433822449356]",100.0,"[0.0041269113729776735,-0.12147576807151499]",100.0,"[0.1295197433503426,-0.12421439005100486]",4.0,"[0.07279986970379099,-0.18592174401565922]",100.0,"[-0.18694848732162517,0.0571262380683926]",100.0,"[0.02,0.02]",222.423,0.0,35.0,35.0,3.0,1.0,,,,,,,
,,,,,,,66781db404eab5e142f849d9,684429353c5b0407a0aaead4,2025-06-07_14h01.17.429,shape_ratio,2024.1.5,Win32,59.88023952,684250e4f00cb30b92d1fa88,,,,,,,,,,,222.4247,222.9227,,,223.1739,223.5397,left,,,,,,,,0.45,0.3514,,,,,,,222.9227,223.1737,223.5398,"[0.06680337892448315,-0.06189662836680783]",4.0,"[0.012990702678676289,0.17422002134142575]",100.0,"[0.10115077979369545,0.13856352257019397]",100.0,"[0.05018418967058549,-0.016750067451412446]",100.0,"[-0.1350459796369941,0.10413810560641616]",4.0,"[-0.10632736967222167,-0.06933024721511344]",100.0,"[-0.09653233010203316,0.039345444691432946]",4.0,"[-0.008714074668181481,-0.11499243490644422]",4.0,"[0.1368285931875474,-0.06247771907056004]",4.0,"[-0.15148037171988984,-0.0426131833588939]",4.0,"[-0.17055416762484574,0.059869924124728253]",4.0,"[0.13722646871416716,-0.12413440046566872]",100.0,"[0.030933301580535484,0.03127015064332404]",4.0,"[0.05094470881532131,0.10766457220471692]",4.0,"[0.1721175044503787,0.0669724788182474]",100.0,"[0.06834584477655453,0.06558828230009227]",4.0,"[-0.008641692110785932,0.12491505539884323]",4.0,"[-0.08630241256360113,-0.1344584677515489]",4.0,"[-0.03324522342755758,0.18978526921193348]",100.0,"[0.07883293559949484,-0.16002533775094618]",100.0,"[0.1234222425000937,0.06827770228983163]",100.0,"[-0.16255792401420935,-0.09923609124401746]",100.0,"[-0.028813640907469514,0.04794891012999146]",4.0,"[-0.12297902683405554,-0.009559500933507579]",4.0,"[-0.012103525526719632,-0.1717452262813909]",4.0,"[-0.07644585559528133,0.09135701149881645]",4.0,"[0.0378847881501916,-0.16449219024040895]",100.0,"[-0.05350711738023185,-0.09480681311167029]",4.0,"[-0.053000872489500646,0.13926356561977832]",100.0,"[-0.1386375884106436,0.030254571060303048]",100.0,"[-0.09508672866030589,0.15494035556613994]",4.0,"[-0.19651652995384924,-0.011255684527862728]",100.0,"[0.02,0.02]",224.6389,0.0,36.0,36.0,121.0,1.0,,,,,,,
,,,,,,,66781db404eab5e142f849d9,684429353c5b0407a0aaead4,2025-06-07_14h01.17.429,shape_ratio,2024.1.5,Win32,59.88023952,684250e4f00cb30b92d1fa88,,,,,,,,,,,224.6403,225.1389,,,225.3815,225.7005,left,,,,,,,,0.9,0.3015,,,,,,,225.1391,225.3813,225.7006,"[0.088955907695008,-0.1254288804784518]",100.0,"[0.19243222023827733,-0.04787533672327088]",4.0,"[0.004671847460123397,-0.015764418541352652]",100.0,"[-0.02598779445575108,0.07966064297705078]",100.0,"[0.032862503569963446,-0.06934953824108843]",100.0,"[-0.10179481843107469,-0.1265760374123608]",100.0,"[0.11273187244374612,0.020345102093200437]",100.0,"[-0.052721550790561386,0.010528297827400354]",100.0,"[0.1461587653499366,-0.04969874276905178]",100.0,"[0.01342771047663945,0.11981880356251998]",100.0,"[0.034627547866803304,-0.15089386059833612]",100.0,"[-0.07190876337288755,0.07747605579690225]",100.0,"[0.030081192924233117,0.18324776036924575]",100.0,"[0.16772834166790931,0.06245428193836402]",100.0,"[-0.17063130088880216,0.0168691329256764]",100.0,"[-0.18397203094252265,0.06949834944212065]",100.0,"[-0.051055553773352295,-0.17381589148771945]",4.0,"[0.09400977813868971,0.13341923608549527]",100.0,"[0.06359442186453625,0.011673861389655996]",100.0,"[0.1251753637993642,0.102493739154299]",100.0,"[-0.027838681028126613,0.16981036042827374]",100.0,"[-0.09359402882403685,-0.08293915346635172]",100.0,"[-0.10583251382779119,0.051402595690903614]",100.0,"[0.06079828664394999,0.10127921915404127]",100.0,"[0.016293173444811102,0.07439863448296566]",100.0,"[-0.050102155086801776,-0.11665477303701988]",100.0,"[0.040163221934062084,-0.10994600418120386]",100.0,"[-0.005108565771932275,-0.17319373268358731]",4.0,"[-0.032347709672545764,-0.052762327193767715]",100.0,"[0.08921644914567738,0.17716434061808245]",100.0,"[-0.07733391880319315,0.14776309741690305]",100.0,"[-0.1660865539118334,-0.05616032293217874]",100.0,"[0.02,0.02]",226.7968,0.0,37.0,37.0,23.0,1.0,,,,,,,
,,,,,,,66781db404eab5e142f849d9,684429353c5b0407a0aaead4,2025-06-07_14h01.17.429,shape_ratio,2024.1.5,Win32,59.88023952,684250e4f00cb30b92d1fa88,,,,,,,,,,,226.7983,227.2968,,,227.5501,227.8492,left,,,,,,,,0.9,0.2842,,,,,,,227.2969,227.55,227.8494,"[0.033937832245196274,-0.129493623620521]",100.0,"[-0.14619593196697137,0.0863439344960876]",100.0,"[-0.1841083959388306,-0.06258750036199598]",100.0,"[-0.07615498672875248,0.1586216978017436]",100.0,"[0.010911528574353652,-0.040033442376821264]",100.0,"[0.10994993814816614,-0.01394482610620299]",100.0,"[0.0308537917680942,0.0012713252532587235]",100.0,"[0.01858759736828462,0.07757475914102359]",100.0,"[-0.09325618381668431,-0.03758914975326579]",100.0,"[-0.13938867123367238,-0.00283521730118387]",100.0,"[0.08045799591640275,-0.10406874700611511]",100.0,"[0.1182237308413671,-0.1289438914039176]",100.0,"[-0.03857120328180318,0.1796770249802247]",100.0,"[-0.05340538189933028,0.09662963426627405]",100.0,"[0.15356906915646584,0.08615878211305622]",100.0,"[0.015775240153937168,0.17556181687428166]",4.0,"[0.170116019948804,0.010154760168780114]",4.0,"[-0.0805659179469514,-0.10879428508146496]",100.0,"[-0.15157042714094562,0.03529542908998158]",100.0,"[0.1438086003945258,-0.04867116236361502]",4.0,"[-0.07342825076558955,0.039750663156674054]",100.0,"[-0.06632145299854045,-0.14836016456922]",100.0,"[0.06933703767573246,-0.15267279213986448]",100.0,"[0.19240951759672373,-0.041978148119270704]",100.0,"[-0.14595472009787783,-0.11078616318096014]",100.0,"[0.07148796645580235,0.17047331194197185]",100.0,"[0.04072699201835207,0.12093206732228548]",100.0,"[0.07596768748939652,0.09039178812292122]",100.0,"[-0.03201656986898986,-0.10054051458352412]",100.0,"[0.11754226722727446,0.03866340755277828]",100.0,"[-0.043022673152375936,-0.023280210419556937]",100.0,"[-0.018407622254323446,0.04645715416058509]",100.0,"[0.02,0.02]",228.948,0.0,38.0,38.0,10.0,1.0,,,,,,,
,,,,,,,66781db404eab5e142f849d9,684429353c5b0407a0aaead4,2025-06-07_14h01.17.429,shape_ratio,2024.1.5,Win32,59.88023952,684250e4f00cb30b92d1fa88,,,,,,,,,,,228.9493,229.448,,,229.6896,230.2224,left,,,,,,,,0.45,0.5183,,,,,,,229.4482,229.6895,230.2225,"[0.14140706952485485,-0.12212061604652474]",100.0,"[0.06857060084538016,0.0036175778614226536]",4.0,"[-0.05853438460905562,0.062204517850374313]",100.0,"[0.09980252035424443,0.13651503752177957]",100.0,"[0.05179042754454716,0.05125885462540849]",4.0,"[-0.041113508620319254,-0.02550364249200299]",4.0,"[-0.18208400054017612,0.0054767651965151485]",100.0,"[0.0014301111511339625,-0.07401682236665372]",4.0,"[0.0016269878948799838,-0.1672431522463815]",100.0,"[-0.04156985353968011,-0.1279660188497401]",100.0,"[0.03318964585889356,-0.026768666160920638]",4.0,"[-0.0567347165311347,0.1374008725611688]",4.0,"[0.08721274516008681,-0.13559299332939892]",100.0,"[0.1885392613361956,0.059982055614694885]",4.0,"[0.09534980783723454,-0.032648674423319285]",4.0,"[-0.042760194522737584,0.02398562416149723]",4.0,"[0.17482426267242349,-0.04618827859153704]",4.0,"[0.027452113649943703,-0.11368237735537766]",4.0,"[-0.08064737985380258,-0.0563584494898307]",100.0,"[-0.1484834481251533,-0.019592351227196922]",100.0,"[0.10292393407770005,0.03768105687065121]",4.0,"[-0.10345829598206598,0.04136283776842648]",4.0,"[-0.010730280983626503,0.14122757327850552]",100.0,"[-0.13103672308231587,0.07233526178731309]",4.0,"[0.1368745001578402,-0.06006256853153192]",4.0,"[-0.17323124154785174,0.08039681225827379]",4.0,"[-0.03126997875200071,0.1957248885645872]",100.0,"[0.026056968727387688,0.1960813652229489]",4.0,"[0.005751435481387326,0.07455274242047003]",100.0,"[-0.050903330154518055,-0.17076066901260537]",4.0,"[0.13067125420848646,0.08609816648347976]",100.0,"[-0.1210534772451387,0.11872163772601853]",100.0,"[0.02,0.02]",231.3213,0.0,39.0,39.0,142.0,1.0,,,,,,,
,,,,,,,66781db404eab5e142f849d9,684429353c5b0407a0aaead4,2025-06-07_14h01.17.429,shape_ratio,2024.1.5,Win32,59.88023952,684250e4f00cb30b92d1fa88,,,,,,,,,,,231.3223,231.8218,,,232.0717,232.3887,left,,,,,,,,0.9,0.3014,,,,,,,231.822,232.0717,232.3888,"[0.08376211118398666,-0.030597750290162578]",100.0,"[-0.016666556612325592,0.19694430352974168]",100.0,"[-0.1033505054983108,-0.1574474339031688]",4.0,"[0.17703185500166868,-0.06997958130493892]",100.0,"[-0.05522396400795353,0.15371021144423194]",100.0,"[-0.015206203606183603,0.0023469691540456764]",100.0,"[-0.11000869982800059,-0.010587541829107669]",100.0,"[0.04329881928435994,-0.09395455106290525]",100.0,"[-0.13550692281862078,-0.06203478879663426]",100.0,"[-0.05221615043570636,-0.17971617064372286]",100.0,"[0.0029351669316529405,-0.19805444640879244]",100.0,"[0.08032423736495226,0.08151154543936853]",100.0,"[-0.06663116697118542,0.0655494651604733]",100.0,"[-0.010668548026174625,-0.05269678760408274]",100.0,"[0.09748717294329806,0.16928821098297964]",100.0,"[0.008364503845166038,-0.14835009150180925]",100.0,"[0.12803029561224905,0.06990394628022169]",100.0,"[-0.02376074465351582,0.09806324694758498]",100.0,"[0.1523308208755201,-0.033556091487300745]",100.0,"[0.023911749274606542,0.14027263188846206]",100.0,"[-0.13802377999117887,0.053025518026468745]",4.0,"[-0.07168466300238659,-0.033413156368200525]",100.0,"[0.02401545295650572,0.02567776080513731]",4.0,"[0.078036637859954,-0.1567602057267974]",100.0,"[-0.17311987116689131,0.03316113607773927]",100.0,"[-0.15664345862437748,-0.11649930436907734]",100.0,"[-0.06846847268346051,-0.09794343245648805]",100.0,"[-0.1836992817959102,-0.030051967655476228]",100.0,"[0.02409333599022299,0.0791535009324144]",100.0,"[-0.1177098855008051,0.10011640515380679]",100.0,"[-0.1069508831388905,-0.11360876129074007]",100.0,"[0.10562068495988011,0.1209876228561861]",100.0,"[0.02,0.02]",233.4872,0.0,40.0,40.0,27.0,1.0,,,,,,,
,,,,,,,66781db404eab5e142f849d9,684429353c5b0407a0aaead4,2025-06-07_14h01.17.429,shape_ratio,2024.1.5,Win32,59.88023952,684250e4f00cb30b92d1fa88,,,,,,,,,,,233.4884,233.9865,,,234.231,234.4461,left,,,,,,,,0.9,0.1991,,,,,,,233.9865,234.231,234.4461,"[0.13130672630867393,-0.038127742596640715]",100.0,"[-0.13553636481668987,-0.10224214684499235]",100.0,"[0.007569982046952514,0.14726167480126404]",100.0,"[-0.022764699290702163,-0.03220337686387723]",100.0,"[-0.14948903144991976,-0.022656444345300807]",100.0,"[0.021654348844225985,-0.10759708328372415]",100.0,"[0.14833990267824923,0.02743188348807907]",100.0,"[-0.09039962504423042,0.05511455510457467]",100.0,"[-0.17621612417290672,0.01988136167996211]",100.0,"[-0.07920931679741894,-0.11790768414213601]",100.0,"[-0.11952999639381223,0.13279445328887285]",100.0,"[-0.009307588296633558,-0.07233341883699311]",100.0,"[0.0382473969513851,0.06406212958384247]",100.0,"[-0.07427137281907206,-0.17393088357903402]",4.0,"[0.007602186022685361,-0.16678044184183746]",100.0,"[-0.09774650841564636,0.006165743287524748]",100.0,"[0.07513813626540237,-0.04263917483978514]",100.0,"[0.13035554618398537,0.13089348169348194]",100.0,"[0.017390291474612598,-0.0055464236591669476]",4.0,"[-0.007733244867866109,0.06529452309571104]",100.0,"[0.17852146346902997,-0.04246707386504076]",100.0,"[-0.06541399235121745,-0.04701539328938248]",100.0,"[0.06158171699296335,-0.09553841115866032]",100.0,"[0.04385940425978592,-0.1427765928709395]",100.0,"[0.13716808225632213,-0.1424329184010152]",100.0,"[-0.0975824890152316,-0.07909963691132477]",100.0,"[-0.04338900989286592,0.1230879155545147]",100.0,"[0.10641858559268905,0.016196593102775072]",100.0,"[0.15894968075244525,0.08941758580071506]",4.0,"[-0.051713963000482206,0.0014765511962225703]",100.0,"[0.09115167648281694,0.09079006959716222]",100.0,"[-0.08207722252162934,0.1779204724957668]",100.0,"[0.02,0.02]",235.5374,0.0,41.0,41.0,25.0,1.0,,,,,,,
,,,,,,,66781db404eab5e142f849d9,684429353c5b0407a0aaead4,2025-06-07_14h01.17.429,shape_ratio,2024.1.5,Win32,59.88023952,684250e4f00cb30b92d1fa88,,,,,,,,,,,235.5382,236.0371,,,236.279,236.7046,right,,,,,,,,0.6,0.4087,,,,,,,236.0371,236.2787,236.7047,"[-0.0839966301282256,-0.03034044569809603]",100.0,"[-0.14482357281006802,0.02865561617966778]",100.0,"[-0.11199529081511202,0.15364676855567044]",4.0,"[0.07142803453738318,-0.07165279281098566]",4.0,"[0.02263659637367454,-0.1543020003915193]",100.0,"[-0.04576764885608882,0.1642285934773463]",100.0,"[-0.10715163847372668,0.04582566320082522]",4.0,"[0.0592206083979655,0.004015861632836356]",100.0,"[0.16408588970854723,0.1025735934685062]",4.0,"[0.05610151885709934,0.04905986712126124]",4.0,"[0.06984082535338015,-0.15686003205848179]",100.0,"[0.12269059670973718,-0.10574141796649202]",100.0,"[0.016439692614508304,0.17510118839530686]",4.0,"[0.13986252917618552,0.045889967442123224]",100.0,"[-0.04134420009128731,-0.011432290481227802]",100.0,"[-0.04060316306181799,0.06720622088686083]",4.0,"[0.048877176284461164,0.12606494321117862]",4.0,"[-0.11246061809840951,-0.12318668886375976]",100.0,"[0.16056642142989214,-0.03176930139811004]",100.0,"[-0.049183994532030866,-0.05134015556897689]",100.0,"[0.0916909436789872,0.17068628988175563]",4.0,"[0.10203838459047856,0.0711859592773099]",100.0,"[-0.010432233599761326,0.03365143332658066]",100.0,"[-0.06616011131264853,0.10620666368720534]",100.0,"[-0.014869532066369961,-0.10929065711827303]",100.0,"[0.11243149757055,-0.011682085762342378]",100.0,"[-0.02059113598820374,0.10813041582862674]",4.0,"[0.12577326714778456,-0.06470058465397223]",4.0,"[-0.1592075288993939,0.12083779768958598]",4.0,"[0.034479513038573925,-0.1154067135444093]",4.0,"[-0.1890600325260219,0.05080077983396693]",100.0,"[0.11880968937881772,-0.1580727325510003]",100.0,"[0.02,0.02]",237.8119,0.0,42.0,42.0,56.0,1.0,,,,,,,
,,,,,,,66781db404eab5e142f849d9,684429353c5b0407a0aaead4,2025-06-07_14h01.17.429,shape_ratio,2024.1.5,Win32,59.88023952,684250e4f00cb30b92d1fa88,,,,,,,,,,,237.8133,238.3123,,,238.553,238.9528,right,,,,,,,,0.1,0.3844,,,,,,,238.3123,238.5529,238.9529,"[0.09094414886628353,0.074750496549368]",4.0,"[0.08914625096618332,-0.08644103846988048]",4.0,"[0.009710169587178654,0.1394948260742796]",4.0,"[0.03758490838481955,-0.09127047830623303]",4.0,"[-0.05495463967589512,0.026014293349370086]",4.0,"[0.14862305908896759,-0.01831360377268228]",4.0,"[0.10842166964134711,0.1274494954409193]",4.0,"[0.010687552483456974,0.03882883672061722]",100.0,"[0.01467386625555622,-0.1922215185460018]",4.0,"[0.11634226261577751,0.037012989406260854]",4.0,"[-0.08352717848279632,0.0591848254013373]",4.0,"[0.1519454681893576,-0.09454611917762203]",4.0,"[-0.11304860201454336,0.1636764865022694]",4.0,"[-0.00782197463475006,-0.03806725349160239]",4.0,"[-0.09076763071423671,-0.06804339421358055]",4.0,"[-0.1191334324567885,0.08302357146544373]",4.0,"[0.17774985252595638,0.0723700741846939]",4.0,"[-0.06631815830794115,0.16917944325115353]",4.0,"[-0.041873274030033096,0.08285376679435531]",100.0,"[-0.08323431913868141,-0.17497880595995782]",4.0,"[0.0009603503942291558,0.07840848503091374]",4.0,"[0.166871249478638,0.030260460084954796]",4.0,"[-0.1689126458316108,-0.02448862360053037]",100.0,"[-0.08793592236023039,0.11961690847792973]",4.0,"[-0.019488280862475463,-0.10584685326396578]",4.0,"[-0.14416446926435658,-0.11412125565037044]",4.0,"[0.08935916201399625,-0.16933712532591325]",4.0,"[0.13011150478092287,-0.12852402438779054]",4.0,"[0.10629620333043956,-0.015864598167203585]",4.0,"[-0.1349065966640915,-0.0021542060823473356]",4.0,"[0.060942983718252956,-0.018357079131564598]",4.0,"[-0.16491269249353738,0.03892403386603147]",4.0,"[0.02,0.02]",240.052,0.0,43.0,43.0,207.0,1.0,,,,,,,
,,,,,,,66781db404eab5e142f849d9,684429353c5b0407a0aaead4,2025-06-07_14h01.17.429,shape_ratio,2024.1.5,Win32,59.88023952,684250e4f00cb30b92d1fa88,,,,,,,,,,,240.0535,240.5516,,,240.7975,241.2206,left,,,,,,,,0.55,0.4092,,,,,,,240.5517,240.7974,241.2208,"[0.07060598692680721,-0.17674139522530755]",100.0,"[-0.04221833731223186,-0.1917047035767004]",4.0,"[-0.14834677259538917,-0.1127274970807525]",4.0,"[0.06210627911281224,0.06482897175859345]",100.0,"[0.0979961839043091,-0.056366411481861695]",100.0,"[0.11217167105620371,0.09987697340302233]",100.0,"[-0.07109742747963729,0.12111281295061982]",4.0,"[0.009351667957509286,0.07629944903028481]",100.0,"[-0.14859774278232316,-0.043590503287139856]",100.0,"[-0.13403891017188713,0.056730306826211704]",100.0,"[-0.03052248312915919,0.1151135049686138]",4.0,"[0.14762691276411555,-0.04528588156641646]",100.0,"[-0.13757995106277976,0.00015159001030924055]",4.0,"[0.10020238637804725,0.03948003462770181]",100.0,"[0.0011856912900501159,-0.17915096555115162]",100.0,"[-0.01711773732981473,-0.10378342313128827]",4.0,"[0.046234974331587124,-0.13957854065150604]",100.0,"[0.10747324603188971,-0.10846368972368389]",100.0,"[0.15901643833396542,0.006460320432366998]",4.0,"[-0.07565757060098699,0.03851542505788308]",4.0,"[0.049522356864852284,-0.060443399148137816]",100.0,"[-0.018601464695083978,0.19419339429746735]",100.0,"[0.08040310564495287,0.1612719940524511]",4.0,"[-0.02757357424829762,0.03596326571784035]",100.0,"[0.04287703101518226,0.10868332013961843]",4.0,"[-0.06164677819186712,-0.10751793244746899]",4.0,"[0.07653966083137502,-0.00017600765337980672]",4.0,"[0.02727103056963379,0.1919765454016134]",100.0,"[-0.07782303637998847,-0.14760615543314015]",4.0,"[-0.048707110016604806,-0.05000169138299193]",100.0,"[-0.1694123816091783,0.03706784315260635]",4.0,"[0.12342737928033251,0.14341376887151275]",100.0,"[0.02,0.02]",242.3281,0.0,44.0,44.0,86.0,1.0,,,,,,,
,,,,,,,66781db404eab5e142f849d9,684429353c5b0407a0aaead4,2025-06-07_14h01.17.429,shape_ratio,2024.1.5,Win32,59.88023952,684250e4f00cb30b92d1fa88,,,,,,,,,,,242.3295,242.8279,,,243.0789,243.5637,right,,,,,,,,0.4,0.4692,,,,,,,242.8279,243.0789,243.5639,"[0.15635852162542932,0.0014007021101343788]",4.0,"[0.10053383501693033,0.15045511622128807]",100.0,"[0.010125245091091039,-0.1832561750474857]",100.0,"[-0.13033144865825552,-0.07730277334103988]",100.0,"[0.11302695165060553,0.10971484481261717]",100.0,"[0.10232745228635785,-0.020336935387325863]",4.0,"[0.002744306835800709,0.007941682317608929]",4.0,"[-0.15844638388138424,0.08967403116235113]",4.0,"[-0.06081600525094036,-0.042250724372629986]",4.0,"[0.055966794639340726,-0.13655617849216226]",4.0,"[0.09891465748651823,-0.12599316682369568]",4.0,"[-0.06486518278179831,0.14050542006092356]",4.0,"[0.017610940159052443,0.1693328554332932]",100.0,"[-0.16887547409455156,0.04879559004649696]",4.0,"[0.04136080378856538,0.04202229602292451]",100.0,"[0.05363548100822852,-0.09046361643530487]",4.0,"[0.11383204502769018,-0.07746341698076198]",4.0,"[0.1617383101483838,0.0803156153852395]",100.0,"[-0.12646689110279596,-0.023277823414039278]",4.0,"[-0.12646094971599897,0.12170107545219977]",100.0,"[-0.1792676217144275,-0.004171526029987806]",4.0,"[-0.03449549444813404,0.0854659904823339]",100.0,"[-0.11908767690146922,0.020739673159811334]",100.0,"[-0.08322909797076776,-0.09961820108453105]",100.0,"[-0.011260080513035705,-0.0932816561777145]",4.0,"[-0.026806327218730965,0.17456312381858372]",4.0,"[-0.08097827074983774,0.1795738921056357]",4.0,"[0.052004195438174694,-0.025660499380463282]",4.0,"[0.0533835578330127,0.12260908979761101]",100.0,"[-0.09511842116571033,-0.14038022433375194]",4.0,"[-0.07775210239463998,0.022515398713041663]",100.0,"[0.1604261609540951,-0.06437453550341388]",4.0,"[0.02,0.02]",244.6613,0.0,45.0,45.0,172.0,1.0,,,,,,,
,,,,,,,66781db404eab5e142f849d9,684429353c5b0407a0aaead4,2025-06-07_14h01.17.429,shape_ratio,2024.1.5,Win32,59.88023952,684250e4f00cb30b92d1fa88,,,,,,,,,,,244.663,245.1599,,,245.4016,245.7174,left,,,,,,,,0.9,0.3012,,,,,,,245.16,245.4016,245.7174,"[-0.022960364185131726,-0.010348404226113831]",100.0,"[0.17873721362133085,-0.0711934409432837]",100.0,"[0.10883072960189133,-0.0895985789803548]",100.0,"[0.014473051324827117,0.021428785232715183]",100.0,"[0.021272460180068467,-0.0662338146735842]",100.0,"[-0.1228501615089762,0.04401464443078603]",100.0,"[0.06414513088315328,0.036565555598004]",100.0,"[0.010300422580941408,0.08883062616305018]",100.0,"[-0.05553350278855578,-0.16301243129572518]",100.0,"[-0.10054531090207447,0.1322386932651061]",100.0,"[0.06233048862987097,-0.13647425560272117]",100.0,"[-0.1510910538940205,-0.10915620893283312]",4.0,"[-0.07172090866605495,-0.09129727935423716]",4.0,"[0.11511099714236143,-0.04669758952790455]",100.0,"[-0.11061101352489867,-0.10082201819496601]",100.0,"[0.03820342134167551,0.15548436194605122]",100.0,"[-0.020717575323612188,0.13789217544155086]",100.0,"[-0.16589951020441218,0.05428472692603837]",100.0,"[-0.12396684648773995,-0.05044152598845248]",100.0,"[-0.08662684012725706,-0.02646628567578495]",100.0,"[0.10977082415222715,0.12083788718199762]",100.0,"[0.16796264109587147,0.04393658606408411]",100.0,"[-0.17671730696861426,-0.0187280706134385]",100.0,"[0.019772682604102924,-0.02466214989572614]",100.0,"[0.022079108950753795,-0.1272549610284226]",100.0,"[0.09099963944371775,0.08388660495184741]",100.0,"[-0.02702028996745951,-0.19540274132998248]",100.0,"[-0.052816500578874076,0.1741424751877053]",100.0,"[0.06957708639647663,-0.031890276446056215]",4.0,"[-0.0751411415705542,0.033882987557310985]",100.0,"[-0.14414165961615152,0.10327535132319635]",100.0,"[-0.028514098905632883,0.055676650505241225]",100.0,"[0.02,0.02]",246.8184,0.0,46.0,46.0,9.0,1.0,,,,,,,
,,,,,,,66781db404eab5e142f849d9,684429353c5b0407a0aaead4,2025-06-07_14h01.17.429,shape_ratio,2024.1.5,Win32,59.88023952,684250e4f00cb30b92d1fa88,,,,,,,,,,,246.8201,247.3168,,,247.5675,247.8999,left,,,,,,,,0.5,0.3197,,,,,,,247.3169,247.5674,247.8999,"[0.12048540048350602,0.15110195851225192]",4.0,"[0.05456321070526944,0.018362040635697754]",100.0,"[0.019091062510031547,-0.12315126598871035]",100.0,"[-0.005122373142700588,0.1645348045032688]",4.0,"[-0.13250445732975974,0.1411880886966919]",4.0,"[0.14314871593533446,-0.13590323799957688]",4.0,"[-0.009056938912293616,0.09196682746305641]",4.0,"[-0.13769775588198957,-0.08971181013164024]",100.0,"[-0.07226286760416138,0.17396120494169803]",100.0,"[-0.15896331182701634,-0.026788133848679715]",100.0,"[-0.10374526369033538,-0.13478772311488027]",4.0,"[-0.018310620568098988,-0.08936582391704617]",100.0,"[0.10840201389374662,0.05279493537286274]",100.0,"[0.03474332172818105,0.05762664431838124]",4.0,"[-0.1338945064729964,0.029085420511231287]",4.0,"[0.05072987966100622,0.17712370449456244]",4.0,"[0.14515438227186062,-0.014902470534479179]",100.0,"[0.08256918724692561,-0.027832897394737217]",4.0,"[0.14484367339608525,0.08926662135356106]",100.0,"[0.10566408237545905,-0.157325952557001]",100.0,"[0.06758643713202442,-0.11494169002619302]",4.0,"[-0.19114726420339423,0.03463563518206908]",4.0,"[-0.05811239231620247,-0.16292519182599977]",100.0,"[-0.05317460783065172,0.04607989109630086]",4.0,"[-0.08770884521672222,0.12987475518208566]",100.0,"[-0.031124099988600887,-0.044994512287615245]",100.0,"[0.19401713201587523,-0.019451705733956087]",4.0,"[0.04247323770566814,0.11543882148467527]",4.0,"[-0.11947266222640707,0.07649600619927163]",100.0,"[-0.006723409150382245,-0.1939792047705411]",100.0,"[0.09341209818246038,0.09010613928046951]",100.0,"[-0.07728954171683783,-0.018657385871633493]",4.0,"[0.02,0.02]",248.9998,0.0,47.0,47.0,113.0,1.0,,,,,,,
,,,,,,,66781db404eab5e142f849d9,684429353c5b0407a0aaead4,2025-06-07_14h01.17.429,shape_ratio,2024.1.5,Win32,59.88023952,684250e4f00cb30b92d1fa88,,,,,,,,,,,249.0013,249.4999,,,249.7529,250.1164,right,,,,,,,,0.45,0.3522,,,,,,,249.4999,249.7528,250.1166,"[0.007481593629147172,0.19171097537235263]",100.0,"[-0.052180251067419664,0.16425942890664677]",4.0,"[0.07799032482303062,0.0027613262970566086]",4.0,"[-0.1184943520409,-0.031650850451988954]",4.0,"[-0.006629700395193458,-0.19501831484410184]",4.0,"[-0.022845248589535953,-0.009201171697136919]",100.0,"[0.06236367441640284,0.044505621759149655]",100.0,"[0.11395923239834217,-0.01981418957180021]",4.0,"[-0.18392511199552694,-0.0693129936733267]",100.0,"[0.015839949728133604,0.13989382966017727]",100.0,"[-0.15396680422408834,-0.1265601874637699]",100.0,"[0.13980008093769433,-0.06925866136771139]",4.0,"[0.118702274789832,-0.15882144822278363]",4.0,"[0.14225609789236732,0.033196062073577906]",4.0,"[-0.004867356686816399,-0.13131486176568283]",100.0,"[-0.025810436432825865,0.12998345568666334]",4.0,"[0.13175746933673613,0.1308045022013278]",4.0,"[0.0653036103035116,-0.11303297665295817]",4.0,"[-0.06000900159903983,-0.1528941135673816]",4.0,"[-0.016211016164536313,0.052601763049226626]",4.0,"[-0.12479415857299664,0.01720981493397228]",100.0,"[0.04783360330627991,-0.061867242292566835]",4.0,"[-0.047198603519537564,-0.10504584333891805]",4.0,"[0.08126148738235774,0.13976349323838763]",100.0,"[-0.1881019388422017,-0.025948257628185048]",4.0,"[-0.09542488550752065,0.04991002007116155]",4.0,"[0.017147698669127492,0.07884966073111419]",100.0,"[-0.08359173359580628,0.09112715967372874]",100.0,"[-0.05975699599912415,0.008526906501434542]",4.0,"[0.10645192842322557,0.057461628451842224]",100.0,"[-0.14476605280788224,0.10405786205412712]",100.0,"[-0.02731359390328258,-0.06265129227728874]",100.0,"[0.02,0.02]",251.2157,0.0,48.0,48.0,147.0,1.0,,,,,,,
,,,,,,,66781db404eab5e142f849d9,684429353c5b0407a0aaead4,2025-06-07_14h01.17.429,shape_ratio,2024.1.5,Win32,59.88023952,684250e4f00cb30b92d1fa88,,,,,,,,,,,251.217,251.716,,,251.9665,252.416,right,,,,,,,,0.1,0.4352,,,,,,,251.716,251.9664,252.4162,"[0.11282460000647578,0.033046313347230155]",4.0,"[-0.03285898285310109,0.16588343079625806]",4.0,"[0.19260668172929335,0.04377768861233228]",4.0,"[0.003903510911988998,-0.006107782693347612]",4.0,"[-0.015942038673923877,0.032110501254766645]",4.0,"[0.04708440815033506,0.18898769606303156]",4.0,"[0.01613931056297836,-0.11548539738569674]",4.0,"[-0.011620038687896713,0.1092125698171691]",4.0,"[-0.00947813453311711,-0.19915594800385195]",4.0,"[-0.03731925471207429,-0.1306952649604871]",4.0,"[0.1400259759953954,0.07882368617381795]",4.0,"[-0.1661475062114555,0.07266565372596344]",4.0,"[0.03310297362471518,-0.06382869781818631]",4.0,"[0.17388866024757033,-0.004133202336579985]",4.0,"[-0.10601088736074175,0.12172580184754159]",4.0,"[0.10396298050296339,-0.07432941431328793]",4.0,"[-0.07932316026413469,-0.030582786392110626]",4.0,"[0.03436600734532731,0.0245099815843517]",100.0,"[-0.08920998182379393,0.03524296694988083]",4.0,"[0.11329096768743378,0.12245781081011911]",4.0,"[-0.0933807173863597,0.17684006751341635]",100.0,"[-0.17242941691426075,-0.009850199759292067]",4.0,"[0.039644067794783404,0.0863484405343007]",4.0,"[0.054991853465846625,-0.18834884909024596]",4.0,"[-0.12919755436248886,0.0034936657767122292]",4.0,"[0.0054670887632213335,0.19678838661925052]",4.0,"[-0.15709037132061568,-0.07400418535632076]",4.0,"[-0.08599300628864205,0.08483995902470322]",4.0,"[-0.013770335093650582,-0.07976027032026313]",4.0,"[0.1798748634500056,-0.05261578379185946]",100.0,"[-0.054252720452069796,-0.08825703120685073]",4.0,"[0.10846079490370993,-0.02894835079151234]",4.0,"[0.02,0.02]",253.5155,0.0,49.0,49.0,204.0,1.0,,,,,,,
