right,left,explain.started,explain.stopped,key_resp_3.keys,key_resp_3.rt,key_resp_3.duration,participant,session,date,expName,psychopyVersion,OS,frameRate,study_id,explain_2.started,explain_2.stopped,key_resp_4.keys,key_resp_4.rt,key_resp_4.duration,explain_3.started,explain_3.stopped,key_resp_5.keys,key_resp_5.rt,key_resp_5.duration,fixation.started,fixation.stopped,practice.started,practice.stopped,response.started,response.stopped,key_resp.keys,key_resp.rt,key_resp.duration,feedback.started,feedback.stopped,trials_2.thisRepN,trials_2.thisTrialN,trials_2.thisN,trials_2.thisIndex,trials_2.ran,dot_ratio,explain_4.started,explain_4.stopped,key_resp_6.keys,key_resp_6.rt,key_resp_6.duration,dotDisplay.started,dotDisplay.stopped,ITI.started,polygon_1.pos,polygon_1.edges,polygon_2.pos,polygon_2.edges,polygon_3.pos,polygon_3.edges,polygon_4.pos,polygon_4.edges,polygon_5.pos,polygon_5.edges,polygon_6.pos,polygon_6.edges,polygon_7.pos,polygon_7.edges,polygon_8.pos,polygon_8.edges,polygon_9.pos,polygon_9.edges,polygon_10.pos,polygon_10.edges,polygon_11.pos,polygon_11.edges,polygon_12.pos,polygon_12.edges,polygon_13.pos,polygon_13.edges,polygon_14.pos,polygon_14.edges,polygon_15.pos,polygon_15.edges,polygon_16.pos,polygon_16.edges,polygon_17.pos,polygon_17.edges,polygon_18.pos,polygon_18.edges,polygon_19.pos,polygon_19.edges,polygon_20.pos,polygon_20.edges,polygon_21.pos,polygon_21.edges,polygon_22.pos,polygon_22.edges,polygon_23.pos,polygon_23.edges,polygon_24.pos,polygon_24.edges,polygon_25.pos,polygon_25.edges,polygon_26.pos,polygon_26.edges,polygon_27.pos,polygon_27.edges,polygon_28.pos,polygon_28.edges,polygon_29.pos,polygon_29.edges,polygon_30.pos,polygon_30.edges,polygon_31.pos,polygon_31.edges,polygon_32.pos,polygon_32.edges,dot_size,ITI.stopped,trials.thisRepN,trials.thisTrialN,trials.thisN,trials.thisIndex,trials.ran,break_2.started,break_2.stopped,trials_3.thisRepN,trials_3.thisTrialN,trials_3.thisN,trials_3.thisIndex,trials_3.ran
subject chose diamond,subject chose dot,0.0004,35.5404,space,20.5279,,66826c4a2d42c713e9c7475d,684429150c78fcbafbee02e6,2025-06-07_13h58.01.171,shape_ratio,2024.1.5,Win32,59.88023952,684250e4f00cb30b92d1fa88,,,,,,,,,,,,,,,,,,,,,,,,,,,,,,,,,,,,,,,,,,,,,,,,,,,,,,,,,,,,,,,,,,,,,,,,,,,,,,,,,,,,,,,,,,,,,,,,,,,,,,,,,,,,,,,,,
,,,,,,,66826c4a2d42c713e9c7475d,684429150c78fcbafbee02e6,2025-06-07_13h58.01.171,shape_ratio,2024.1.5,Win32,59.88023952,684250e4f00cb30b92d1fa88,35.5408,67.4425,space,1.8862,,,,,,,,,,,,,,,,,,,,,,,,,,,,,,,,,,,,,,,,,,,,,,,,,,,,,,,,,,,,,,,,,,,,,,,,,,,,,,,,,,,,,,,,,,,,,,,,,,,,,,,,,,,,,
,,,,,,,66826c4a2d42c713e9c7475d,684429150c78fcbafbee02e6,2025-06-07_13h58.01.171,shape_ratio,2024.1.5,Win32,59.88023952,684250e4f00cb30b92d1fa88,,,,,,67.4432,73.58,space,3.1211,,,,,,,,,,,,,,,,,,,,,,,,,,,,,,,,,,,,,,,,,,,,,,,,,,,,,,,,,,,,,,,,,,,,,,,,,,,,,,,,,,,,,,,,,,,,,,,,,,,,,,,,
,,,,,,,66826c4a2d42c713e9c7475d,684429150c78fcbafbee02e6,2025-06-07_13h58.01.171,shape_ratio,2024.1.5,Win32,59.88023952,684250e4f00cb30b92d1fa88,,,,,,,,,,,73.5971,74.0951,74.0956,74.3458,74.3461,75.1481,right,0.7767,,75.1482,76.2473,0.0,0.0,0.0,0.0,1.0,0.2,,,,,,,,,,,,,,,,,,,,,,,,,,,,,,,,,,,,,,,,,,,,,,,,,,,,,,,,,,,,,,,,,,,,,,,,,,,,,,,,,,,,,,
,,,,,,,66826c4a2d42c713e9c7475d,684429150c78fcbafbee02e6,2025-06-07_13h58.01.171,shape_ratio,2024.1.5,Win32,59.88023952,684250e4f00cb30b92d1fa88,,,,,,,,,,,76.248,76.7475,76.7475,76.9981,76.9982,77.5507,right,0.5457,,77.5508,78.6492,0.0,1.0,1.0,1.0,1.0,0.8,,,,,,,,,,,,,,,,,,,,,,,,,,,,,,,,,,,,,,,,,,,,,,,,,,,,,,,,,,,,,,,,,,,,,,,,,,,,,,,,,,,,,,
,,,,,,,66826c4a2d42c713e9c7475d,684429150c78fcbafbee02e6,2025-06-07_13h58.01.171,shape_ratio,2024.1.5,Win32,59.88023952,684250e4f00cb30b92d1fa88,,,,,,,,,,,,,,,,,,,,,,,,,,,,78.6495,85.9904,space,4.3286,,,,,,,,,,,,,,,,,,,,,,,,,,,,,,,,,,,,,,,,,,,,,,,,,,,,,,,,,,,,,,,,,,,,,,,,,,,,,,,,,,
,,,,,,,66826c4a2d42c713e9c7475d,684429150c78fcbafbee02e6,2025-06-07_13h58.01.171,shape_ratio,2024.1.5,Win32,59.88023952,684250e4f00cb30b92d1fa88,,,,,,,,,,,86.0131,86.4907,,,86.7419,87.2455,right,0.4972,,,,,,,,,0.45,,,,,,86.4915,86.7419,87.246,"[0.01677431228831455,-0.19736464524959665]",100.0,"[0.09625266573650641,0.11036917712222212]",4.0,"[0.12371674227799984,0.04345752970888842]",4.0,"[-0.04943293768938589,0.1279647165283697]",100.0,"[-0.008053416899869636,0.18860046699898064]",4.0,"[0.11338395511028895,-0.06987793385327755]",100.0,"[-0.058317954601935944,-0.018562723732037607]",4.0,"[-0.051760568422765385,0.030436328446558917]",100.0,"[0.1799471034386699,0.0517211832181794]",4.0,"[-0.08018753058925814,0.0823852345125334]",4.0,"[0.03240982334118165,0.18363243627221165]",100.0,"[0.14744282500054115,-0.0043391741458342625]",100.0,"[-0.10714705097624141,0.0031408793311344025]",100.0,"[-0.10325231618649983,0.12499928130649325]",4.0,"[0.033873828229191875,0.11392453832195684]",4.0,"[0.05696060226344569,-0.0030503535622296426]",4.0,"[-0.015210146111756102,-0.1068988807459347]",4.0,"[-0.1075611139218089,-0.08469555979746869]",100.0,"[0.0023357783993742196,-0.032560269261813324]",4.0,"[-0.059943519735172084,-0.17709158411489595]",4.0,"[-0.1725906619449636,-0.0033875834852163797]",100.0,"[0.15275383050999317,-0.09911011462676261]",4.0,"[0.09753797374923501,-0.12212507150727593]",100.0,"[-0.016099405797487518,-0.14978278843854945]",4.0,"[-0.17415683552278483,0.07797479351373639]",100.0,"[0.06158519351925908,0.0791972718286252]",4.0,"[-0.0653769115471363,-0.07958494637044455]",100.0,"[0.04073825030673913,-0.08293833570658227]",100.0,"[0.08886185578141555,-0.03578210651004422]",100.0,"[-0.15858714394802464,-0.09872545790166588]",4.0,"[0.033040032706585024,0.03245910965487156]",4.0,"[-0.1335852636195543,0.04424998898109428]",4.0,"[0.02,0.02]",88.3427,0.0,0.0,0.0,149.0,1.0,,,,,,,
,,,,,,,66826c4a2d42c713e9c7475d,684429150c78fcbafbee02e6,2025-06-07_13h58.01.171,shape_ratio,2024.1.5,Win32,59.88023952,684250e4f00cb30b92d1fa88,,,,,,,,,,,88.3433,88.8429,,,89.0936,89.6772,left,0.5745,,,,,,,,,0.4,,,,,,88.843,89.0936,89.6773,"[0.133312885172838,-0.08515537881493886]",4.0,"[-0.06617910207586891,0.036714938899913244]",4.0,"[0.04106487378941269,-0.1450105236507017]",4.0,"[-0.10323823977990432,-0.01625153573195854]",100.0,"[-0.021787720691458682,-0.14806248716442827]",4.0,"[-0.040795958114185994,-0.1040021028787329]",4.0,"[0.11562084192196742,-0.04759301015179328]",100.0,"[0.08960716357773452,0.031272062048132376]",4.0,"[-0.07285462687953002,0.11360718480444502]",4.0,"[-0.11695330819635856,0.05588859489524131]",100.0,"[-0.1433629405508063,-0.10798027553027009]",100.0,"[-0.1439930908253454,-0.02425060147802852]",100.0,"[0.1391160425044485,0.06562213069800689]",100.0,"[0.03926170482345279,-0.059797592331047165]",4.0,"[0.15088274306312183,0.11949259402645336]",100.0,"[0.029886434091172205,0.1574033123250526]",4.0,"[0.08061631615331068,-0.09397459249271559]",4.0,"[-0.15106198980627517,0.1056719391652198]",4.0,"[0.02500949350696195,-0.1965059085030231]",4.0,"[0.11734580355638577,-0.15108489631049155]",100.0,"[-0.06505490494391808,0.16049573493811875]",4.0,"[0.19863883468382026,-0.0106799944731592]",4.0,"[0.0397687946429464,0.04468739432174258]",100.0,"[-0.0077278012934185155,0.018071146962629386]",100.0,"[-0.11807245530515231,-0.07554446718286661]",100.0,"[-0.011943074049062278,0.11671726121353976]",4.0,"[0.041385013640343186,0.0953835326204774]",100.0,"[-0.19091242973955552,0.057552444283643506]",4.0,"[-0.0731432673598808,-0.15455282551107627]",100.0,"[0.11748656009818627,-0.00641134879838774]",4.0,"[0.09378041934757939,0.15862814135306252]",4.0,"[-0.08072175908322209,-0.10983818099769227]",4.0,"[0.02,0.02]",90.7782,0.0,1.0,1.0,172.0,1.0,,,,,,,
,,,,,,,66826c4a2d42c713e9c7475d,684429150c78fcbafbee02e6,2025-06-07_13h58.01.171,shape_ratio,2024.1.5,Win32,59.88023952,684250e4f00cb30b92d1fa88,,,,,,,,,,,90.7786,91.2786,,,91.5294,91.9962,left,0.4585,,,,,,,,,0.5,,,,,,91.2786,91.5293,91.9962,"[0.12534497141262055,-0.07184319726598791]",100.0,"[-0.11852214123540847,0.06549310624789909]",100.0,"[-0.031958144114861864,-0.1825296521748994]",4.0,"[0.08677071918280291,-0.03950298119225855]",4.0,"[0.18816118567574475,-0.004480907484531096]",100.0,"[-0.14372556697602537,-0.12829622980804042]",4.0,"[-0.18146071075905906,-0.02308146204699857]",4.0,"[0.054067318009098066,0.041454711884898306]",4.0,"[-0.02252759602843695,0.030266444182747265]",4.0,"[0.14462157747684715,0.03543578203674546]",4.0,"[-0.019675961243730826,-0.020852683139396665]",100.0,"[-0.07774255190742065,0.16033225935786005]",100.0,"[-0.05907167741848396,0.06389223927103697]",100.0,"[0.10955955855894432,0.11112625088759963]",4.0,"[-0.03361276728936921,-0.10488417476141007]",100.0,"[0.015920002967343985,-0.13772275292265895]",100.0,"[0.0026336867749316762,0.17979662952442774]",100.0,"[-0.04629802648944468,0.10278185947997595]",4.0,"[0.17407706576140694,-0.054833816413456395]",100.0,"[-0.1141096071167543,0.1414613467047586]",4.0,"[0.046607109488607225,-0.05876150166887279]",100.0,"[-0.12520624308199627,-0.036982560527160965]",100.0,"[-0.08443453973255292,-0.06877606524071316]",100.0,"[-0.07936733654488191,0.014977935313429681]",100.0,"[-0.1709731344570289,0.046230573501785374]",4.0,"[-0.12073098789630148,0.02437084289902395]",4.0,"[0.059178479961465434,0.10806380180102863]",4.0,"[0.08326753390844763,0.17571817809366352]",100.0,"[-0.1252654050456977,-0.07768478776053582]",4.0,"[0.01478912152867601,0.09588199774039262]",4.0,"[0.10520262057257604,0.043064426755750486]",4.0,"[0.10414109794865413,-0.15928851860495205]",100.0,"[0.02,0.02]",93.0974,0.0,2.0,2.0,112.0,1.0,,,,,,,
,,,,,,,66826c4a2d42c713e9c7475d,684429150c78fcbafbee02e6,2025-06-07_13h58.01.171,shape_ratio,2024.1.5,Win32,59.88023952,684250e4f00cb30b92d1fa88,,,,,,,,,,,93.0976,93.5977,,,93.8482,94.4651,left,0.6062,,,,,,,,,0.45,,,,,,93.5977,93.8482,94.4652,"[-0.18183175138093344,-0.024208412105705426]",4.0,"[0.021590413693457527,0.0483932520533374]",4.0,"[-0.06701961325384659,-0.13107659077980158]",4.0,"[0.12225355892540321,-0.06515220368332382]",100.0,"[0.029939081244416542,-0.11656618061911071]",4.0,"[-0.10355292213973698,-0.1678664038474543]",100.0,"[-0.08833215713491609,0.04995526500209471]",4.0,"[-0.1883678468883642,0.060007545096228916]",4.0,"[0.1620366529786159,0.08719483275007976]",100.0,"[-0.13688232598637565,0.028070692072552746]",100.0,"[-0.09684314086505183,-0.04159346728895149]",100.0,"[0.05233000692331993,-0.08149876596747394]",100.0,"[0.09584213181396765,0.17017302601947462]",4.0,"[0.014270236981994242,-0.05928307302222619]",4.0,"[-0.008245175533524487,0.14067713433753753]",100.0,"[0.1810580540866657,-0.028138172251815256]",4.0,"[-0.032510715931030956,-0.011973216959526467]",4.0,"[-0.16005694086516936,-0.11379523859528226]",4.0,"[-0.04775318577972563,0.10661683804656613]",100.0,"[0.12177830563584127,-0.020948605777122337]",100.0,"[0.06536358845796443,0.09654778822346768]",4.0,"[-0.18467414002413896,-0.07485495092990306]",4.0,"[-0.017873776923686472,-0.11767583056902711]",4.0,"[0.05590430506381645,-0.004752595163961175]",4.0,"[-0.10061571843444556,0.11021422796907679]",100.0,"[-0.030364618281212685,0.06288620037472484]",100.0,"[0.10801576498781076,0.02448746546959586]",100.0,"[-0.10919592335302075,-0.12319634484894301]",4.0,"[0.10810196440508035,-0.1168921691283199]",100.0,"[0.014845237044838346,0.09701861007187293]",4.0,"[-0.05200674550643484,0.17675711638550934]",100.0,"[0.18018232762058972,0.049502444728058474]",4.0,"[0.02,0.02]",95.5665,0.0,3.0,3.0,129.0,1.0,,,,,,,
,,,,,,,66826c4a2d42c713e9c7475d,684429150c78fcbafbee02e6,2025-06-07_13h58.01.171,shape_ratio,2024.1.5,Win32,59.88023952,684250e4f00cb30b92d1fa88,,,,,,,,,,,95.567,96.0667,,,96.3176,97.1848,right,0.8535,,,,,,,,,0.45,,,,,,96.0668,96.3176,97.1848,"[0.09481031613109513,-0.1043280548820975]",100.0,"[-0.11755792819524742,0.015736588556041015]",100.0,"[-0.16175064525443128,-0.022503661711172192]",100.0,"[-0.1102646181347053,-0.10593746098559262]",4.0,"[0.10009062849204277,0.010701345788335903]",4.0,"[-0.03877123398941216,-0.07629008900387338]",100.0,"[-0.018620279257738195,0.08634660864215464]",100.0,"[0.021946939851358285,0.037173138031752026]",4.0,"[-0.0010779059947707186,0.1951672330578996]",4.0,"[0.033122074078631325,0.15547440011645394]",4.0,"[0.06226332385286342,-0.06815840302471511]",100.0,"[-0.0727743987752952,0.08473620580563036]",4.0,"[-0.14324867074352793,0.05413986743687791]",100.0,"[0.07358617523459458,0.1363272183603531]",4.0,"[-0.033656392713548235,-0.00518862767822822]",100.0,"[-0.07346345495302121,0.17164417045778405]",4.0,"[0.0550297544050523,0.014001765706877688]",4.0,"[0.06994579581505193,-0.1794107484997066]",4.0,"[-0.08682340208021855,0.12966410160315572]",100.0,"[-0.11330241377728435,-0.048355173756531644]",4.0,"[0.1774252175291364,-0.006214875750277908]",4.0,"[0.015171855683523677,-0.061089032679653744]",100.0,"[-0.19032619115210037,0.052114619774127]",4.0,"[0.18531634012631365,0.054422237231264034]",100.0,"[-0.14952713653920605,-0.1266333707827617]",4.0,"[-0.03349640243208369,-0.1960214579348322]",4.0,"[0.0344242101582502,-0.14998411583657828]",100.0,"[0.04571290668401456,0.0695883207245312]",4.0,"[-0.04303957964828717,-0.14074626461883938]",4.0,"[0.08288647243415254,0.18030766580764399]",4.0,"[-0.14416398677742265,-0.08266917047675103]",100.0,"[-0.10032041212324914,-0.16671114909812318]",100.0,"[0.02,0.02]",98.2859,0.0,4.0,4.0,145.0,1.0,,,,,,,
,,,,,,,66826c4a2d42c713e9c7475d,684429150c78fcbafbee02e6,2025-06-07_13h58.01.171,shape_ratio,2024.1.5,Win32,59.88023952,684250e4f00cb30b92d1fa88,,,,,,,,,,,98.2863,98.7862,,,99.0368,99.7207,right,0.6701,,,,,,,,,0.6,,,,,,98.7862,99.0368,99.7208,"[0.12052307327254495,0.020769584166872575]",100.0,"[0.05844894200278769,-0.0334633123687937]",4.0,"[0.003210502749703714,0.18376190385790028]",4.0,"[-0.13679022193061993,0.10373100018546857]",100.0,"[0.0740065453588437,0.034241946166365056]",100.0,"[-0.08327745347073232,-0.1291948194293963]",4.0,"[0.06732332794327334,-0.1833228149191451]",4.0,"[-0.13678450793398983,-0.09839323550558285]",100.0,"[0.015538994706752492,0.0005829597628473411]",100.0,"[-0.033620769249789025,-0.039864489945720165]",100.0,"[0.115136941398814,-0.06697350631496057]",4.0,"[-0.029316856963144722,0.05499249495119315]",100.0,"[-0.09023792605781576,0.15311739460408832]",100.0,"[0.08126034771170314,0.1123839098815856]",100.0,"[-0.057701317478897535,-0.18674608926908254]",4.0,"[-0.14108619935710756,0.05397787894073258]",4.0,"[0.14775300994241214,-0.1296274000080604]",4.0,"[0.1734436450016825,-0.05191274285546766]",4.0,"[-0.05817315424146631,0.18847307525843718]",100.0,"[0.14385325995626005,0.08112896311188436]",100.0,"[0.009045348822585323,-0.13155056796262235]",100.0,"[-0.12060854942200915,0.014692774049196848]",100.0,"[0.01814979355507583,0.11616707925082932]",100.0,"[-0.013504339612975863,-0.17230085396366374]",100.0,"[0.031751558579210096,-0.08575154346737543]",100.0,"[-0.05130919859415593,0.12168712117351059]",4.0,"[0.10345592655842717,-0.14660071899961927]",4.0,"[-0.17257858142460944,0.025819553949520856]",100.0,"[0.06469092232232147,0.17374524107116424]",4.0,"[0.020757682069746562,0.06070198526999619]",100.0,"[-0.10211449293464767,-0.16652164584574156]",100.0,"[-0.09227603213941715,0.052574825672360805]",4.0,"[0.02,0.02]",100.8218,0.0,5.0,5.0,36.0,1.0,,,,,,,
,,,,,,,66826c4a2d42c713e9c7475d,684429150c78fcbafbee02e6,2025-06-07_13h58.01.171,shape_ratio,2024.1.5,Win32,59.88023952,684250e4f00cb30b92d1fa88,,,,,,,,,,,100.8221,101.3223,,,101.5729,102.0732,left,0.4875,,,,,,,,,0.45,,,,,,101.3223,101.5729,102.0732,"[-0.09221863570619178,0.07693533522649679]",100.0,"[-0.06378771043246392,-0.13277632998906413]",4.0,"[-0.013394146598209415,-0.028624657820041723]",4.0,"[0.04829554354104653,-0.11160863501617774]",4.0,"[0.15835269901389898,-0.0037944678380651617]",4.0,"[0.12143697311562683,0.14788805921164178]",4.0,"[0.07240126299429886,-0.16542997571032728]",100.0,"[-0.10872879034611108,0.14619370988957744]",4.0,"[-0.06828554778122321,0.026141823347931786]",100.0,"[0.06374527329420922,0.1782361125795473]",100.0,"[-0.018370660741074754,0.17757827348778485]",100.0,"[-0.0030539701082039536,0.1367893981335757]",100.0,"[-0.17115996824452165,0.07806818507385227]",4.0,"[-0.07421027627160166,-0.07476571254090762]",4.0,"[-0.13882687891472326,-0.026438257363328558]",4.0,"[0.034651160573863915,-0.1519521636856701]",4.0,"[-0.040713532421283595,0.11204040435091553]",4.0,"[0.19272790464849437,0.030538504310676125]",100.0,"[0.0635233598960599,-0.06994364010025853]",100.0,"[-0.09211133513181767,-0.012854891869197737]",100.0,"[0.002024731467514637,-0.08002559119929746]",4.0,"[-0.17544903019318986,0.015327182471286942]",100.0,"[0.12123582086538097,-0.09598590429897333]",4.0,"[-0.14360967588155182,-0.09440052583220758]",4.0,"[0.08805565123975274,-0.012865057451985696]",4.0,"[0.1615119748972988,0.11693406745403057]",100.0,"[0.18846949658552584,-0.06504748113439765]",100.0,"[0.0973752066382197,0.09163150168084093]",100.0,"[-0.00541281856085391,-0.1732359831220421]",4.0,"[-0.035509331527593765,0.06923946072490644]",4.0,"[0.007818165317730861,0.08541673416802077]",100.0,"[0.04523340703670373,0.012366139278605474]",4.0,"[0.02,0.02]",103.1741,0.0,6.0,6.0,130.0,1.0,,,,,,,
,,,,,,,66826c4a2d42c713e9c7475d,684429150c78fcbafbee02e6,2025-06-07_13h58.01.171,shape_ratio,2024.1.5,Win32,59.88023952,684250e4f00cb30b92d1fa88,,,,,,,,,,,103.1745,103.6746,,,103.9249,104.7091,right,0.7693,,,,,,,,,0.45,,,,,,103.6746,103.9249,104.7091,"[0.0639737991169389,-0.14470277447372998]",100.0,"[-0.04211451931569608,-0.021780372766941978]",100.0,"[-0.021479325239569757,-0.12015857030558555]",4.0,"[0.006351307046164968,-0.08581395427186536]",100.0,"[-0.07654381380011839,-0.12379961448138982]",4.0,"[0.14874058576291568,-0.016881188469013365]",100.0,"[-0.11838611542389867,0.09665347562179209]",100.0,"[-0.12306645580757511,0.15453942497181433]",4.0,"[0.10795070356903272,-0.10367365753293116]",4.0,"[-0.18381258008040266,-0.06007401408196917]",4.0,"[0.13010591679393774,0.11775385578595583]",4.0,"[-0.040589709011699046,0.13722519608406705]",4.0,"[-0.15209875331545203,-0.11989917520219906]",4.0,"[-0.07712182282766046,0.16340167399939315]",4.0,"[-0.046337133849403016,-0.1740328585666579]",4.0,"[-0.1758723508953268,0.01149385217271805]",4.0,"[-0.042251966115871384,0.09404888617010254]",100.0,"[0.07841214003461613,0.03950752642289835]",100.0,"[-0.11674528806894109,-0.09311064503505723]",100.0,"[0.1213567632523154,0.041889092157709605]",100.0,"[-0.08054837266928665,0.043657949347923816]",100.0,"[0.04242221522098214,0.15737498426941127]",100.0,"[0.08626468732357002,-0.04272052542844252]",4.0,"[-0.016096271617523798,0.05435226105108993]",4.0,"[-0.011930175601154046,0.17130027957880647]",4.0,"[0.14753311341892902,-0.07907483767728124]",4.0,"[0.09175023957780189,0.0004505919736331642]",4.0,"[0.1732506903080696,0.037241818411265094]",4.0,"[-0.047786358678610974,-0.08912270596267534]",100.0,"[-0.13365323937653786,-0.03477200737360603]",4.0,"[0.02064653312444836,0.10952636715934753]",100.0,"[0.03634450120198723,-0.18328554747621345]",100.0,"[0.02,0.02]",105.8098,0.0,7.0,7.0,138.0,1.0,,,,,,,
,,,,,,,66826c4a2d42c713e9c7475d,684429150c78fcbafbee02e6,2025-06-07_13h58.01.171,shape_ratio,2024.1.5,Win32,59.88023952,684250e4f00cb30b92d1fa88,,,,,,,,,,,105.8101,106.3104,,,106.561,107.1444,left,0.5663,,,,,,,,,0.9,,,,,,106.3104,106.561,107.1445,"[-0.04757151144814611,0.15648829618441276]",100.0,"[-0.12255881272789587,-0.15705748141647755]",100.0,"[-0.020874885031196427,-0.11183590104171266]",4.0,"[0.03907763436809775,0.1791006071230029]",100.0,"[-0.1802650693176097,0.012275377436140135]",100.0,"[-0.06532191849901647,-0.05324938824918385]",100.0,"[-0.05409874127204011,0.04756679503783804]",100.0,"[0.052894829784657336,-0.08248994283985223]",100.0,"[-0.06720425033438847,-0.17666034474671144]",100.0,"[0.16279791977500116,-0.022426509679916207]",100.0,"[-0.1795704870455889,-0.04969626234315225]",100.0,"[0.021108847043351,-0.15891881731203647]",4.0,"[-0.09436899760374473,0.16373732818301445]",100.0,"[-0.15298877992204088,-0.08427040235513694]",100.0,"[-0.01462794269954348,-0.019345819220133204]",100.0,"[-0.14107328186747373,0.025085337955856928]",100.0,"[0.05548725578891462,-0.0021096528872026963]",100.0,"[-0.13627536274984,0.13007277219560937]",100.0,"[0.010851289900575812,0.13230729685817633]",100.0,"[-0.006231540672515018,0.03865309316413104]",100.0,"[0.16872155822773086,0.041844400367306786]",100.0,"[0.1298065087410853,0.1487328747807302]",100.0,"[-0.07544994576604774,0.013740221818715448]",4.0,"[-0.06191491902811639,0.10905818246927056]",100.0,"[0.0793735257358974,0.06120596591533015]",100.0,"[0.16649020495556352,0.09873999540767207]",100.0,"[-0.07769648154119625,-0.12341263202436288]",100.0,"[0.09630155697958587,-0.03925728594114568]",100.0,"[0.12523223453111998,0.02225660003866246]",100.0,"[0.0515107197138374,0.12646876971396973]",100.0,"[0.06159685860758462,-0.1853440925583405]",100.0,"[-0.010748319631121881,0.09577785068330642]",100.0,"[0.02,0.02]",108.2457,0.0,8.0,8.0,2.0,1.0,,,,,,,
,,,,,,,66826c4a2d42c713e9c7475d,684429150c78fcbafbee02e6,2025-06-07_13h58.01.171,shape_ratio,2024.1.5,Win32,59.88023952,684250e4f00cb30b92d1fa88,,,,,,,,,,,108.2463,108.746,,,108.9969,109.4641,left,0.4535,,,,,,,,,0.9,,,,,,108.746,108.9969,109.4642,"[-0.11885697445078627,0.05117960531569282]",100.0,"[-0.06956853520306976,0.12518660719059585]",100.0,"[0.04212642790090723,-0.011639078585952266]",100.0,"[-0.055983703561306906,-0.16284720841862177]",100.0,"[-0.1239966498232535,-0.0531848779236177]",100.0,"[0.05787984758487677,0.12445846736923731]",100.0,"[-0.08188824630708617,-0.0345565403400903]",100.0,"[0.11283096443722163,-0.16379830356724925]",100.0,"[-0.14186673123890647,-0.10457776688309893]",100.0,"[-0.015094957184385683,-0.026004827523331393]",100.0,"[0.06824036167204726,0.1840127357692782]",4.0,"[0.13635367393372164,0.1277892401085524]",100.0,"[0.006477928406309717,-0.12479792933240362]",100.0,"[0.01737836771977068,-0.06886510433349524]",100.0,"[-0.05623768564912514,0.07452254480660941]",100.0,"[-0.1027561756053934,0.09588497471655341]",100.0,"[0.17725772998270448,-0.041547753700158147]",100.0,"[0.11875280018891671,-0.03734344766056764]",100.0,"[-0.08712097412083655,-0.13677862127158982]",4.0,"[0.1457144351163041,-0.0008468939241549195]",100.0,"[0.0677989616033506,0.0471446871189105]",100.0,"[-0.010889546354806889,0.18569573382265117]",100.0,"[-0.008233519579419065,0.04577890242108506]",100.0,"[0.05657531260646579,-0.13320648083986739]",100.0,"[0.1082546568514515,-0.10455912252095126]",100.0,"[-0.04308330915464216,0.01290469315499177]",100.0,"[0.10987750998746833,0.16068855585616817]",100.0,"[-0.05354316768766632,0.17737146413987656]",100.0,"[-0.14951075993113072,0.08735945582542445]",100.0,"[-0.19819468630417128,-0.020489245250791027]",100.0,"[0.06702818450170885,-0.0933861473965828]",100.0,"[0.16095928511859692,-0.08135872612676984]",4.0,"[0.02,0.02]",110.5647,0.0,9.0,9.0,25.0,1.0,,,,,,,
,,,,,,,66826c4a2d42c713e9c7475d,684429150c78fcbafbee02e6,2025-06-07_13h58.01.171,shape_ratio,2024.1.5,Win32,59.88023952,684250e4f00cb30b92d1fa88,,,,,,,,,,,110.5652,111.0651,,,111.3158,112.1669,right,0.836,,,,,,,,,0.4,,,,,,111.0652,111.3158,112.167,"[-0.011128163809917217,-0.09332023404862172]",100.0,"[0.08643937452649825,0.12843728160670664]",4.0,"[-0.15323994495708412,0.11379365354136038]",4.0,"[0.10318732936505938,-0.09992723775378685]",4.0,"[-0.18945181215957538,-0.053953992597281564]",100.0,"[0.01480106087214715,0.18473492559388793]",4.0,"[-0.04390124501071921,0.17887880990910554]",4.0,"[-0.10188286742768679,0.10359929814155364]",4.0,"[-0.13374176144466984,0.0681545173401658]",4.0,"[-0.10572402622790425,0.01905030207892157]",4.0,"[0.10201198926079125,-0.17162113369015589]",4.0,"[0.14873286509565045,-0.07373402935776135]",100.0,"[-0.16259547930836796,0.013217085018478413]",100.0,"[0.13065514568758838,0.10704617453668605]",100.0,"[0.10685939342417454,-0.05135580419913836]",4.0,"[-0.057803332128217935,-0.048685330921745915]",4.0,"[-0.06371707370959782,-0.18619871381076974]",4.0,"[0.1818839251230746,0.005114246074863773]",100.0,"[-0.08682228847525938,-0.078223062319845]",100.0,"[0.18487193094688822,0.06821893727489917]",4.0,"[0.09544646457782034,0.02920508068733379]",100.0,"[0.050436862969576064,0.013318076923356549]",4.0,"[-0.023916111214243755,0.08223057037313598]",100.0,"[-0.08805737098726583,-0.14440676253638277]",4.0,"[0.06162324160949972,-0.0620311007561992]",4.0,"[0.025906595010436205,-0.17012911401540054]",100.0,"[-0.1482696385403996,-0.08495008928562256]",4.0,"[-0.01609075711193844,-0.16966586356179317]",4.0,"[-0.0032978081489929588,0.015860537260165116]",100.0,"[0.0079983243545545,0.1353020893899317]",4.0,"[-0.13480318689663967,-0.13073122722302358]",100.0,"[-0.06167314229026785,0.125814767606493]",100.0,"[0.02,0.02]",113.2676,0.0,10.0,10.0,174.0,1.0,,,,,,,
,,,,,,,66826c4a2d42c713e9c7475d,684429150c78fcbafbee02e6,2025-06-07_13h58.01.171,shape_ratio,2024.1.5,Win32,59.88023952,684250e4f00cb30b92d1fa88,,,,,,,,,,,113.268,113.7676,,,114.0181,114.5522,right,0.5203,,,,,,,,,0.9,,,,,,113.7676,114.0181,114.5523,"[0.08278198507926617,-0.04685932383047596]",4.0,"[-0.12246138940970833,-0.057863145216373035]",100.0,"[-0.006474560667014367,0.07866717130809592]",100.0,"[0.013776233213621472,-0.1040895246469795]",100.0,"[0.1457920388891514,0.10428503109367339]",100.0,"[-0.05878896676819111,-0.1456482917903397]",100.0,"[-0.07684600273664648,-0.02218787220279763]",100.0,"[0.044178358278481836,0.027508554785141377]",100.0,"[0.17167332228925444,0.059138143517383675]",100.0,"[0.11397155175604903,-0.14077868064414623]",100.0,"[-0.02182502276150961,0.0194712308825261]",4.0,"[-0.03031445509289758,-0.0833919808270368]",100.0,"[0.04833995603337268,0.15917314082404793]",100.0,"[-0.18559488751464853,-0.04057875020330963]",100.0,"[0.08807728668821829,0.07216629092259848]",100.0,"[0.013086336793777048,-0.19489662202707103]",100.0,"[0.044130176057070675,0.11300085340832319]",100.0,"[-0.10681682817487688,0.11428250453291196]",100.0,"[0.19885638711896322,-0.01253199674932479]",100.0,"[-0.09993055865980469,-0.14626123051137874]",100.0,"[0.12009717312141145,0.005936081855296914]",4.0,"[-0.12356403298939364,-0.10872239193439492]",100.0,"[0.07409955975149381,-0.11494824392358505]",100.0,"[0.16073692888528351,-0.10742854505142645]",100.0,"[0.13972484242154165,-0.0597606851250757]",100.0,"[-0.03373255047694481,-0.19563327820031343]",100.0,"[0.10650388730083502,0.11193333936628169]",100.0,"[0.0071543635030808,0.14614760444089078]",100.0,"[-0.11812116055589576,0.06378493334088349]",100.0,"[0.11921618306993426,0.16028466665830535]",100.0,"[-0.0793358373238551,-0.06579249072423354]",100.0,"[-0.07243871084726879,0.08676337176459603]",100.0,"[0.02,0.02]",115.6529,0.0,11.0,11.0,11.0,1.0,,,,,,,
,,,,,,,66826c4a2d42c713e9c7475d,684429150c78fcbafbee02e6,2025-06-07_13h58.01.171,shape_ratio,2024.1.5,Win32,59.88023952,684250e4f00cb30b92d1fa88,,,,,,,,,,,115.6533,116.1536,,,116.4042,117.3714,right,0.9583,,,,,,,,,0.4,,,,,,116.1537,116.4042,117.3714,"[-0.0525092142355644,-0.15682876397008236]",4.0,"[-0.12520444118543278,0.09599088143596553]",100.0,"[0.03255796957272883,0.14114019141807205]",100.0,"[-0.1081932570597293,0.05772945061432129]",100.0,"[0.014111557587864585,-0.03626619460624969]",4.0,"[-0.09227988816586362,-0.012978888405346157]",100.0,"[-0.01199032722269879,-0.15049652467368368]",100.0,"[0.05836801324840025,-0.10534813581064183]",4.0,"[0.05444599660002414,-0.008792014318679006]",4.0,"[0.07748672162893369,0.15213710729724841]",4.0,"[-0.14715505402018925,0.03815050204910794]",4.0,"[0.1769522041707412,0.034522455082274174]",100.0,"[-0.03221153244916235,0.15295873539748872]",4.0,"[0.11109112694250028,-0.15622604109826269]",4.0,"[0.08117921770350267,0.08913124454527843]",4.0,"[-0.11040732559735704,-0.0726084077394325]",100.0,"[-0.0032449455479418546,-0.11042213503929348]",100.0,"[-0.13238431195215494,-0.0326733484611091]",100.0,"[0.1432068658738941,0.09560852725416598]",4.0,"[-0.007682259045542543,0.04424943244951359]",4.0,"[-0.05015011588389266,0.04178318522459737]",4.0,"[0.09273862686132174,0.04658681821805248]",4.0,"[0.034560635530948056,0.19119716012166688]",100.0,"[0.11924710623383669,-0.08372037626110491]",4.0,"[0.19670375280256522,-0.03118276629471915]",4.0,"[-0.1737407506552085,0.0720854177561493]",4.0,"[0.025219586299516206,0.07972334531005544]",100.0,"[-0.09655543890800403,0.1387870332908597]",100.0,"[0.1236508886727455,-0.008826085620962279]",100.0,"[-0.06113984564231565,-0.09013763617114677]",4.0,"[-0.046019049574824854,0.08998892348498831]",4.0,"[0.017536697137025097,-0.19242348464451836]",4.0,"[0.02,0.02]",118.4726,0.0,12.0,12.0,160.0,1.0,,,,,,,
,,,,,,,66826c4a2d42c713e9c7475d,684429150c78fcbafbee02e6,2025-06-07_13h58.01.171,shape_ratio,2024.1.5,Win32,59.88023952,684250e4f00cb30b92d1fa88,,,,,,,,,,,118.4731,118.9728,,,119.2237,119.6772,left,0.4457,,,,,,,,,0.9,,,,,,118.9728,119.2237,119.6773,"[-0.12327716934817068,-0.11512959566393785]",4.0,"[0.07269920953063125,-0.17906487419451025]",100.0,"[-0.03628364481357501,0.10395535933774838]",100.0,"[-0.12344989539187332,0.029779521932638883]",100.0,"[0.09420645526574481,0.0855265336281753]",100.0,"[0.008467370089672124,-0.008139125222563106]",100.0,"[0.026089576058920375,0.16302788049961764]",100.0,"[0.1507061297028398,-0.035085829676331885]",100.0,"[-0.10399438895797966,0.1494558778022283]",100.0,"[0.07014618946669136,-0.003944542605259695]",4.0,"[0.030706606211887207,-0.10765664027550217]",100.0,"[-0.12169842533577835,-0.02863384938261859]",100.0,"[0.17701361570279195,-0.003262939238132711]",100.0,"[-0.04351265879076917,-0.15823248985476568]",100.0,"[-0.08573742037586772,0.10810918904703413]",100.0,"[0.08414185939068673,0.16314087093785726]",100.0,"[0.13863367834293738,-0.08741737980356926]",100.0,"[-0.06715560205868884,0.009377713957457188]",100.0,"[0.02383572760475798,-0.050088192376583664]",100.0,"[0.1653732145903122,0.09700704476382996]",100.0,"[-0.1777910351354388,-0.019013228560136798]",100.0,"[-0.0347319363430757,0.05756456905003702]",100.0,"[-0.06257677781204263,0.18934583030776117]",100.0,"[-0.158652928456142,0.10354402222007604]",4.0,"[0.12001054503870356,-0.1495318617443226]",100.0,"[0.19112591369876153,0.052853469762096025]",100.0,"[-0.08226987699178542,-0.03706884941202737]",100.0,"[-0.17355690240230945,-0.06035573573458205]",100.0,"[-0.09775410984806747,-0.1618123930035968]",100.0,"[0.0744933750652093,-0.10985754012345969]",100.0,"[-0.06817868855679825,-0.12597412174580144]",100.0,"[0.06376927310925033,-0.06347110923314851]",100.0,"[0.02,0.02]",120.7746,0.0,13.0,13.0,14.0,1.0,,,,,,,
,,,,,,,66826c4a2d42c713e9c7475d,684429150c78fcbafbee02e6,2025-06-07_13h58.01.171,shape_ratio,2024.1.5,Win32,59.88023952,684250e4f00cb30b92d1fa88,,,,,,,,,,,120.7749,121.2753,,,121.5261,122.36,right,0.8202,,,,,,,,,0.55,,,,,,121.2754,121.526,122.36,"[0.04142012284029651,-0.14034363257736873]",4.0,"[0.0059868501703683255,-0.172543951536558]",100.0,"[0.10732598833612163,0.12450628370874582]",100.0,"[-0.009693892262392197,0.1648749714291745]",100.0,"[-0.05209671453384158,0.16472654230774167]",4.0,"[-0.07104069975078063,0.0828573733292792]",4.0,"[0.15509604034503427,0.12499528046007065]",4.0,"[0.02345236988021408,0.12930879929235212]",100.0,"[0.07068641038544499,0.16524874880021878]",4.0,"[-0.09198192322023042,0.11883617010169925]",4.0,"[-0.06241315685789704,-0.0893377096624948]",4.0,"[0.11515886178264914,-0.1098581184347416]",4.0,"[-0.03967158133980412,-0.12572567159591574]",100.0,"[0.1492907854844904,0.02559677276062223]",4.0,"[-0.06263443866867416,-0.16249997530907384]",4.0,"[-0.12887461669120007,0.09280995418556084]",100.0,"[-0.16536611286353872,-0.009742591268684785]",100.0,"[0.05643036319147811,-0.044042477637875097]",4.0,"[-0.009209454547511547,-0.012501010923438128]",100.0,"[0.019100102191099852,-0.0922992022990198]",100.0,"[0.1054530296448835,-0.155787270458452]",100.0,"[-0.103753040845419,-0.06508008845825054]",100.0,"[0.055644298864011545,0.055805875827558166]",100.0,"[0.07415185591416096,-0.08063809965105083]",4.0,"[-0.11122267558399783,-0.0027648165141441763]",100.0,"[-0.03435608205475465,0.1173969619583091]",4.0,"[-0.11001372619719618,-0.10554653715282082]",100.0,"[0.03509336379811579,0.015229707482658268]",100.0,"[0.15782344055002584,-0.0834102041729182]",4.0,"[0.14829420984930766,-0.041945389929567214]",100.0,"[-0.14549282696868338,0.04065307589327279]",100.0,"[0.1380436189484182,0.07973544626976314]",100.0,"[0.02,0.02]",123.4617,0.0,14.0,14.0,71.0,1.0,,,,,,,
,,,,,,,66826c4a2d42c713e9c7475d,684429150c78fcbafbee02e6,2025-06-07_13h58.01.171,shape_ratio,2024.1.5,Win32,59.88023952,684250e4f00cb30b92d1fa88,,,,,,,,,,,123.4636,123.9613,,,124.212,124.8624,left,0.6391,,,,,,,,,0.55,,,,,,123.9613,124.2119,124.8624,"[-0.03096745917417413,-0.08566903061450123]",100.0,"[-0.1515961679187528,0.03286873563862648]",4.0,"[-0.18605639218456244,0.06540819587957984]",4.0,"[0.15913029924007627,-0.04602469914342969]",100.0,"[0.06778459409690452,-0.10863236294999806]",100.0,"[-0.1306873647920789,-0.04175244917480256]",4.0,"[0.13656799338108808,0.10769212364445709]",100.0,"[0.012278078541495235,0.10239755902681054]",100.0,"[0.08506272939196784,0.16790754852355969]",100.0,"[0.1312525550126633,-0.13518060502568652]",4.0,"[-0.06833076667861661,0.14516748033212448]",4.0,"[0.04224877124802147,0.019991525660992118]",100.0,"[-0.08659650734601408,0.10732762053291746]",4.0,"[-0.1747139249382792,-0.05180358628467177]",100.0,"[-0.07024059968204449,-0.11918083380633097]",100.0,"[0.058789795478062755,-0.03975226360366196]",4.0,"[0.09711941189922774,-0.003389552872724515]",100.0,"[0.024375900598985943,-0.14322919705312656]",4.0,"[0.02031983400089528,0.16876818917263298]",4.0,"[-0.007252964049861861,-0.005031738218150654]",4.0,"[-0.03469349978520448,-0.04413385405641716]",100.0,"[-0.05670592264491129,0.05020714280324647]",4.0,"[-0.0929751186377355,-0.15230205578428588]",100.0,"[-0.018730902098821542,-0.12556416298014653]",100.0,"[0.14912477046713968,0.052112621380547904]",100.0,"[0.12032796737680596,-0.08433695288390519]",4.0,"[-0.00700223451684136,0.043697840642735956]",100.0,"[-0.02934591119298421,0.13185894332285653]",4.0,"[-0.04899838277231849,-0.00002599462050462227]",100.0,"[-0.09255237851010556,0.029834128368587492]",4.0,"[0.06316858832328137,0.06480983202613572]",100.0,"[-0.13866464005949172,-0.11524116765592408]",100.0,"[0.02,0.02]",125.9634,0.0,15.0,15.0,77.0,1.0,,,,,,,
,,,,,,,66826c4a2d42c713e9c7475d,684429150c78fcbafbee02e6,2025-06-07_13h58.01.171,shape_ratio,2024.1.5,Win32,59.88023952,684250e4f00cb30b92d1fa88,,,,,,,,,,,125.9641,126.4637,,,126.7146,127.6319,right,0.9066,,,,,,,,,0.1,,,,,,126.4637,126.7145,127.632,"[0.14192261173036733,0.0647857946866844]",4.0,"[-0.08031849851088545,-0.06259195027647897]",4.0,"[-0.14248593550395736,-0.13971810173920526]",4.0,"[-0.0377327111689705,0.06159627475245308]",4.0,"[-0.015957991703011626,-0.024574269168521685]",4.0,"[-0.08222731793284715,-0.12295748680497898]",4.0,"[0.18226577504687363,0.01677466052098101]",4.0,"[0.10346500799616455,0.014473779517875662]",4.0,"[-0.140900290997001,-0.09863801923014863]",4.0,"[0.08909720918224416,-0.03121017054374504]",4.0,"[0.021069748141307583,-0.055147337690097324]",4.0,"[0.036758258515274186,0.13367984745297137]",4.0,"[-0.13419273806253307,0.08185209416437729]",100.0,"[0.16860231047935054,-0.05942661471705445]",4.0,"[-0.06263486774415358,0.10947967023319322]",4.0,"[-0.09345634955126164,0.059934697149021006]",4.0,"[0.026807432227086262,-0.13157587798915524]",4.0,"[0.02789428281308244,0.07333457223123244]",4.0,"[0.09746379756256231,-0.14962224978881888]",4.0,"[0.07182799109049505,0.09931857100395093]",100.0,"[-0.13654359476034283,0.03481734590000197]",4.0,"[0.11546928698607042,0.15856189260229833]",4.0,"[0.018170744351589933,0.19013339848270172]",4.0,"[0.05625728516324974,-0.07949659051561218]",4.0,"[-0.1903296589341837,0.04818591381913116]",4.0,"[0.1689395469968829,0.10182899672130216]",4.0,"[0.08542851426578493,0.058389666632482594]",4.0,"[-0.03247016736380657,0.14809325781784968]",4.0,"[-0.014493390207785468,-0.15681953122806785]",4.0,"[0.12442271982611196,-0.10150956750639344]",4.0,"[-0.14260443271271095,0.1320750646904753]",100.0,"[-0.13255935519025355,-0.008543309913162786]",4.0,"[0.02,0.02]",128.7336,0.0,16.0,16.0,184.0,1.0,,,,,,,
,,,,,,,66826c4a2d42c713e9c7475d,684429150c78fcbafbee02e6,2025-06-07_13h58.01.171,shape_ratio,2024.1.5,Win32,59.88023952,684250e4f00cb30b92d1fa88,,,,,,,,,,,128.7343,129.2333,,,129.484,129.9841,left,0.4879,,,,,,,,,0.5,,,,,,129.2334,129.484,129.9841,"[-0.05622613681417531,0.09476511572730777]",100.0,"[-0.026875894359512542,-0.09944185889416146]",4.0,"[0.17846996850506278,-0.021690715711434112]",100.0,"[0.059248280744375555,0.0415782640219186]",4.0,"[-0.12227198540541508,-0.009826268235085523]",100.0,"[-0.10059219753231147,0.14421252666376855]",100.0,"[0.13629198730746728,-0.040538472456159526]",100.0,"[-0.1227597829982841,0.042981760522328355]",4.0,"[0.13546443474165706,-0.11673066331271982]",100.0,"[-0.008044406074831551,-0.035469925690484926]",4.0,"[-0.1146185316682379,-0.08385994551089927]",4.0,"[0.012469720267066145,0.012568982498149249]",4.0,"[-0.04161175200669808,0.005164872644274528]",4.0,"[-0.004127994444082197,0.18234907614314988]",4.0,"[-0.007003538289526502,0.07123278355639434]",4.0,"[-0.08186758759655878,0.051528446110089894]",4.0,"[-0.021036132785574202,-0.17782413019880083]",4.0,"[-0.05029815821576787,0.13772111664421363]",100.0,"[-0.1966554682664489,0.017470652577006987]",100.0,"[0.019151996938974444,-0.1873985219204691]",100.0,"[0.014139685921245121,-0.0805675764568488]",100.0,"[0.029859856491921723,0.09479604004538551]",100.0,"[-0.09542090052460489,-0.1339577885672437]",4.0,"[-0.15482648086743203,0.0699802349862263]",100.0,"[0.07853781463224856,0.10694644356748202]",100.0,"[0.10864136099599782,0.06667116080628306]",4.0,"[0.04950424280737094,0.17855387009657253]",4.0,"[0.16611533815253546,-0.0710631227687429]",100.0,"[0.09637437200113246,-0.04500659890882425]",4.0,"[0.16711676589609142,0.0869321056324796]",4.0,"[-0.148016988452686,-0.0435170669122758]",100.0,"[0.1923578081321983,0.02890235194505649]",100.0,"[0.02,0.02]",131.0853,0.0,17.0,17.0,119.0,1.0,,,,,,,
,,,,,,,66826c4a2d42c713e9c7475d,684429150c78fcbafbee02e6,2025-06-07_13h58.01.171,shape_ratio,2024.1.5,Win32,59.88023952,684250e4f00cb30b92d1fa88,,,,,,,,,,,131.0857,131.5856,,,131.8361,132.2864,left,0.4406,,,,,,,,,0.9,,,,,,131.5856,131.836,132.2866,"[-0.07994900890603489,0.10714935516734161]",100.0,"[0.11151580861205282,-0.08804480022620904]",100.0,"[-0.03398403802925259,0.01304930724756974]",4.0,"[-0.06067668404200545,0.1747252156878883]",100.0,"[-0.06010901923596291,-0.02640538856800861]",100.0,"[0.11782932279031465,-0.137718306312554]",100.0,"[0.034426111860005625,0.08789739947655952]",100.0,"[-0.15450826352420452,-0.020910391457989584]",100.0,"[0.09607861436938729,0.06722539729545787]",100.0,"[0.06138176858070444,-0.16152090324635215]",100.0,"[-0.1355123408666814,-0.12884608453786242]",100.0,"[0.16225552414060956,0.017042937007993142]",100.0,"[-0.07124558465044196,0.03784297227746293]",100.0,"[-0.06995223093950509,-0.16762081764507014]",100.0,"[-0.01585958362878469,-0.06202899821051703]",100.0,"[-0.009722385111507935,-0.12530559399202273]",100.0,"[-0.011281807050580833,-0.18146832784655526]",100.0,"[-0.1836424343410791,0.04438087727632609]",100.0,"[0.1683448107693922,-0.04522303029693092]",100.0,"[-0.14925994878261345,0.08213849074246801]",100.0,"[0.004951320085037813,0.1802409153659176]",100.0,"[0.16166181933046173,-0.11075308556859458]",100.0,"[-0.003472655554480171,0.12530205176032522]",100.0,"[0.16438588172642338,0.10925622496287106]",100.0,"[0.1305446369250634,0.1370560695087766]",100.0,"[-0.18996821523737434,0.002727073651010908]",100.0,"[-0.10799154297593118,-0.06332708389662728]",100.0,"[0.18360551657065463,0.060311483838934]",100.0,"[0.018903478060210026,0.032983822151726024]",4.0,"[0.037688213691349705,-0.09676363718599643]",4.0,"[-0.004981348951393544,-0.01939469458258682]",100.0,"[0.042579523388123756,-0.028099671698759016]",100.0,"[0.02,0.02]",133.3875,0.0,18.0,18.0,21.0,1.0,,,,,,,
,,,,,,,66826c4a2d42c713e9c7475d,684429150c78fcbafbee02e6,2025-06-07_13h58.01.171,shape_ratio,2024.1.5,Win32,59.88023952,684250e4f00cb30b92d1fa88,,,,,,,,,,,133.3881,133.8877,,,134.1388,134.9555,right,0.8072,,,,,,,,,0.6,,,,,,133.8878,134.1388,134.9555,"[0.037085381805473966,0.1561467264520332]",4.0,"[-0.03514502735822641,0.11831391040011678]",4.0,"[-0.10708675979248332,-0.08993400330053418]",100.0,"[-0.008520608535317107,0.015659660513696355]",100.0,"[-0.014480386262493275,-0.08625825110953204]",100.0,"[0.052048558760697534,0.07207397739671421]",4.0,"[0.11036647297737952,0.009420204225281097]",100.0,"[-0.12482444516963766,-0.006984261213060541]",4.0,"[0.0750547184259836,-0.1592191525721927]",100.0,"[0.004727868339945514,-0.036164036663216964]",100.0,"[-0.18137796428844963,0.07480611307179807]",100.0,"[0.19565548998499802,0.033740486362601387]",4.0,"[0.15847528203299627,0.06021427414623186]",100.0,"[0.14539291046457414,0.13142773626510304]",100.0,"[0.1065095821401975,0.06878304339040979]",100.0,"[0.08698213509299667,-0.06072407867799275]",100.0,"[0.17229482353476486,-0.09734504762036388]",100.0,"[-0.08459359350937733,0.059375535976083506]",100.0,"[-0.007995320540823598,0.18499870009828379]",4.0,"[-0.017785819159158604,0.07397405872700612]",100.0,"[0.15657655776158488,0.0163438306421681]",4.0,"[-0.01132241497905631,-0.19309924677759735]",100.0,"[0.11795387152863855,-0.11875766780800721]",100.0,"[0.07941933009773419,0.13975671292211764]",4.0,"[-0.06356817942106302,0.003284661647869711]",4.0,"[-0.05771566200304197,-0.04680021898677885]",100.0,"[0.056125450705049956,0.02955233014545744]",4.0,"[-0.06704607167483843,-0.1462516055801492]",100.0,"[-0.1506159432134679,-0.03831867541024421]",100.0,"[-0.09776074436031966,0.15320160785262948]",4.0,"[0.10995080581912628,0.1658698146314493]",4.0,"[-0.1339009082793768,0.12900738253524022]",4.0,"[0.02,0.02]",136.0568,0.0,19.0,19.0,42.0,1.0,,,,,,,
,,,,,,,66826c4a2d42c713e9c7475d,684429150c78fcbafbee02e6,2025-06-07_13h58.01.171,shape_ratio,2024.1.5,Win32,59.88023952,684250e4f00cb30b92d1fa88,,,,,,,,,,,136.0573,136.5574,,,136.8079,137.6607,right,0.8449,,,,,,,,,0.1,,,,,,136.5574,136.8079,137.6608,"[0.19701572023144578,-0.006015349509531479]",100.0,"[0.12025370528011572,0.1031096907988972]",4.0,"[0.17862717684102092,-0.07892909687707894]",4.0,"[-0.021857178404425776,0.044701903272597585]",4.0,"[-0.023066685396948818,-0.12719631224122752]",4.0,"[0.06364065268265931,0.15610851736796677]",4.0,"[-0.10487723295490617,0.06743647882947464]",4.0,"[0.1341659528235819,-0.12181373000814631]",4.0,"[-0.04480025933532403,-0.034620792453380414]",4.0,"[0.02286033060083241,0.15025461742528157]",100.0,"[-0.17869005649591385,-0.004310990900210812]",4.0,"[-0.13203580715663174,0.10187568196179114]",4.0,"[0.08967780839446352,-0.16557559802415278]",4.0,"[0.014454721057444747,-0.06555369865706265]",4.0,"[0.15433973115027622,0.06673886423097268]",4.0,"[0.0816222771424666,-0.05638892659898255]",4.0,"[0.026099047053632602,0.08074314752092546]",4.0,"[-0.11019583929521808,-0.12015085453425997]",4.0,"[-0.012194186804213683,0.18636838287721505]",4.0,"[0.06197421463833934,0.05023106018322526]",4.0,"[0.14936414033223136,-0.02272505601553339]",4.0,"[-0.1563229094790807,-0.0488434273443668]",100.0,"[-0.1225880024603306,0.022138516581073023]",4.0,"[0.09260383896929604,-0.013061906348836198]",4.0,"[-0.061265722433378356,0.01256106008612869]",4.0,"[0.04052692176303796,-0.03507867393195376]",4.0,"[-0.08643646728216385,0.13222914741643402]",4.0,"[-0.14505294550195574,-0.09983107303009428]",4.0,"[-0.04348348146908592,-0.17608387370255082]",4.0,"[0.037202605449452114,-0.18581972087604637]",4.0,"[0.03197172207853151,-0.1347985349786864]",4.0,"[-0.008067308174507695,-0.196720634635084]",4.0,"[0.02,0.02]",138.7594,0.0,20.0,20.0,197.0,1.0,,,,,,,
,,,,,,,66826c4a2d42c713e9c7475d,684429150c78fcbafbee02e6,2025-06-07_13h58.01.171,shape_ratio,2024.1.5,Win32,59.88023952,684250e4f00cb30b92d1fa88,,,,,,,,,,,138.7597,139.26,,,139.5108,140.2612,left,0.7355,,,,,,,,,0.55,,,,,,139.26,139.5108,140.2613,"[0.10686827347884692,0.15834357286029296]",100.0,"[0.039308317195954366,-0.09516556246442541]",4.0,"[0.005233788162288363,0.05514768675959668]",100.0,"[-0.060109469986036355,0.0992635151885274]",100.0,"[0.09136176949412432,0.011953642763607731]",4.0,"[0.013770939440965338,-0.022526873679431455]",100.0,"[0.08438438557895239,-0.03373346653778649]",100.0,"[-0.08734241296551916,0.14173302272172011]",4.0,"[0.07844388518216157,-0.1544773728325633]",100.0,"[-0.07145839775403683,0.06007453372328156]",4.0,"[-0.15214869579443915,-0.11111520280098025]",100.0,"[0.037691629283473825,0.11359455812485769]",4.0,"[-0.05068087377045868,-0.1767451962461693]",4.0,"[-0.10895505669393547,0.07677710260294976]",4.0,"[-0.1610028397903421,0.03375625421148797]",100.0,"[0.07329006132196855,0.08449360273701446]",100.0,"[0.17277737617710595,0.0013189821883579072]",4.0,"[0.13942465068568335,-0.12758159637347374]",100.0,"[0.1608286015585527,-0.07822958842086034]",4.0,"[-0.1730662086504921,-0.03460826558011371]",100.0,"[-0.06247616213914695,-0.0560559658727151]",100.0,"[0.13890050584007543,0.10028686337310794]",4.0,"[-0.1419995777524774,0.1304311945545127]",4.0,"[0.1853115396501187,0.06664265398342845]",100.0,"[-0.019927280415189264,-0.08263213427705371]",4.0,"[-0.11287312964360259,-0.0568170134332828]",100.0,"[0.010623704962658277,0.1957183800775955]",100.0,"[-0.0154990403529255,-0.14588470872095047]",4.0,"[-0.08361407711658793,0.01138585932870408]",100.0,"[0.026418021271401505,0.15768380366258214]",100.0,"[0.0783662909633743,-0.10421828215342602]",100.0,"[-0.016479584671854307,0.13597299652116102]",4.0,"[0.02,0.02]",141.3622,0.0,21.0,21.0,81.0,1.0,,,,,,,
,,,,,,,66826c4a2d42c713e9c7475d,684429150c78fcbafbee02e6,2025-06-07_13h58.01.171,shape_ratio,2024.1.5,Win32,59.88023952,684250e4f00cb30b92d1fa88,,,,,,,,,,,141.3626,141.8624,,,142.1132,142.8972,left,0.7696,,,,,,,,,0.9,,,,,,141.8625,142.1132,142.8972,"[-0.08442965633858612,-0.015084056378490472]",100.0,"[0.0207459501353335,0.013107130382808852]",100.0,"[-0.010221098259630364,-0.1932008634267644]",4.0,"[-0.16454918250313957,-0.07803283946770748]",100.0,"[0.0340622528125686,0.12091580587441189]",100.0,"[0.06275565618611643,0.001864064164015641]",100.0,"[-0.05664384579666037,0.04906284970512908]",100.0,"[0.06212892553700299,-0.1461829009403571]",100.0,"[0.11836120210007149,0.05739041122660556]",100.0,"[0.026681296619119943,-0.1139058473296886]",100.0,"[-0.06934967447135472,0.1459289299819428]",100.0,"[0.1540338319854527,-0.04396191683087178]",100.0,"[0.060386331367952836,0.05369447129948251]",100.0,"[-0.0777405990021746,0.09215360050291863]",100.0,"[0.10237471799659259,0.1548584211910584]",100.0,"[-0.11362557785337282,0.15282955069506252]",100.0,"[-0.04351958981766224,-0.03494399768585633]",100.0,"[-0.16864098921916507,-0.034872377514941225]",100.0,"[0.1337066267729108,0.013135690479745075]",100.0,"[-0.09988420365365926,-0.06262632201133496]",100.0,"[-0.010994443818762896,0.1956652408839653]",100.0,"[0.09314940196485222,-0.06452562989482225]",100.0,"[0.15689196118140283,0.12366522408784068]",100.0,"[0.0036827829410463983,-0.043313165602550864]",100.0,"[-0.12934402081858462,-0.10467663558142658]",4.0,"[-0.02453470800303873,-0.1250488218146852]",100.0,"[-0.026591132387768494,0.11840171611977944]",100.0,"[0.10636406043632649,-0.12313119032416592]",100.0,"[0.19034950967166822,0.023631423976202114]",100.0,"[0.053748647290716475,0.16673547248667142]",100.0,"[-0.15327767428948502,0.12766145026145798]",4.0,"[-0.12066342965638867,0.07950116695644822]",100.0,"[0.02,0.02]",143.9992,0.0,22.0,22.0,10.0,1.0,,,,,,,
,,,,,,,66826c4a2d42c713e9c7475d,684429150c78fcbafbee02e6,2025-06-07_13h58.01.171,shape_ratio,2024.1.5,Win32,59.88023952,684250e4f00cb30b92d1fa88,,,,,,,,,,,143.9996,144.4986,,,144.749,145.5019,left,0.7456,,,,,,,,,0.5,,,,,,144.4987,144.749,145.5019,"[0.010962840039220958,0.15174806055133183]",4.0,"[0.19219560045018913,-0.048164797922687054]",100.0,"[0.11251825147712656,0.06709976165486005]",100.0,"[0.07235439235584434,-0.09241485746519223]",100.0,"[-0.16372402221863158,0.11024979871751552]",100.0,"[0.10870400331779681,0.11924313806660149]",100.0,"[0.06717871726126821,-0.15618171320636523]",100.0,"[-0.06592511300019618,0.1197992765917494]",100.0,"[-0.12315205773383456,0.09811649312695504]",4.0,"[0.1331354612101824,-0.10888044879806484]",4.0,"[-0.12696452909590625,-0.05589013639419744]",100.0,"[0.15255929948966634,0.047010477527372495]",4.0,"[0.033634912785705184,-0.03258071664172692]",4.0,"[-0.13615600414095347,0.020584315882589355]",4.0,"[0.0014102982240733611,0.0052770038767675645]",4.0,"[-0.1710086977346989,-0.025223065465568545]",4.0,"[-0.10807174141866356,0.16248607181758246]",100.0,"[0.13880101500583994,-0.05783324199473249]",100.0,"[-0.028122360793512022,-0.10512300319621828]",4.0,"[-0.06381471408010783,-0.15616824271212884]",4.0,"[-0.08132607719827895,-0.09222228343652909]",4.0,"[0.012499065340239703,-0.18376578512033015]",100.0,"[0.06724647131466166,0.047311090821110846]",4.0,"[-0.03763675605787125,-0.0034508186921630483]",4.0,"[0.1483785090213486,-0.01379807459616644]",4.0,"[-0.020174340936650655,0.12078340142960094]",100.0,"[-0.08584134069149836,0.015275631382253956]",4.0,"[0.08200853385299192,0.16481018759769084]",100.0,"[-0.12144805205987244,-0.12782394877844155]",100.0,"[-0.06763010732833843,0.1603019785125988]",100.0,"[-0.05776379832655773,0.05673881056556402]",100.0,"[-0.024623474538084174,-0.05532701870197121]",4.0,"[0.02,0.02]",146.6006,0.0,23.0,23.0,92.0,1.0,,,,,,,
,,,,,,,66826c4a2d42c713e9c7475d,684429150c78fcbafbee02e6,2025-06-07_13h58.01.171,shape_ratio,2024.1.5,Win32,59.88023952,684250e4f00cb30b92d1fa88,,,,,,,,,,,146.6011,147.1013,,,147.3517,147.8688,left,0.5075,,,,,,,,,0.5,,,,,,147.1013,147.3517,147.8689,"[-0.012217811737676125,0.09865588904408637]",4.0,"[-0.048423673102519396,0.03387245376717729]",4.0,"[0.10847471042909342,-0.08320455809382]",100.0,"[0.0861934391706596,0.018753385013452258]",4.0,"[0.025018030429378734,0.053036427630946695]",4.0,"[0.11714502077722708,0.15339523755501874]",4.0,"[-0.15546297096664805,0.021856700637348993]",100.0,"[0.1470919806721542,0.012772023992397878]",4.0,"[0.07999648286438112,-0.11701810197891097]",100.0,"[-0.03420812247628557,-0.1425196527379111]",4.0,"[-0.11921410281386936,-0.027894494856947782]",4.0,"[-0.08824908854878849,0.014267098357917897]",4.0,"[-0.050288485182786585,0.12237426614748802]",100.0,"[-0.1810154841537033,-0.04853867554537466]",100.0,"[-0.10298886847994333,0.11879021973975583]",100.0,"[0.1690743888229903,0.08118888867402144]",4.0,"[-0.13970993195759884,-0.08898987459211252]",100.0,"[0.0481635780462454,0.1368547359352022]",4.0,"[0.004794035360900744,-0.12341111749229293]",100.0,"[0.14431004468440684,-0.1029260718819749]",100.0,"[-0.11545626930325807,-0.13492365408703133]",4.0,"[-0.11344731733302453,0.16237032596573586]",4.0,"[0.061659423409870434,0.1899813975258066]",100.0,"[-0.05359985491782871,0.18858361376658864]",100.0,"[0.06867558481734788,-0.1734244132171875]",100.0,"[0.0507667271099589,0.08948758554186845]",4.0,"[-0.02714972863231263,-0.015616912536667896]",4.0,"[0.07439529967550677,-0.04042708311706348]",4.0,"[-0.0652977773595357,-0.035290605176770636]",100.0,"[-0.0880652372414665,-0.09912234386776064]",100.0,"[0.03947767268944964,-0.008885053486547907]",100.0,"[0.04266226611008846,-0.07806987848415553]",100.0,"[0.02,0.02]",148.9696,0.0,24.0,24.0,101.0,1.0,,,,,,,
,,,,,,,66826c4a2d42c713e9c7475d,684429150c78fcbafbee02e6,2025-06-07_13h58.01.171,shape_ratio,2024.1.5,Win32,59.88023952,684250e4f00cb30b92d1fa88,,,,,,,,,,,148.9699,149.4703,,,149.7208,150.3882,left,0.6522,,,,,,,,,0.45,,,,,,149.4703,149.7208,150.3882,"[-0.15754080792687475,0.12194363099001279]",4.0,"[-0.05043439125772051,-0.0729151959926218]",100.0,"[0.016240869671799607,0.11156684972448656]",4.0,"[-0.015916482302760646,0.0844119010003123]",100.0,"[-0.0696835187752164,-0.014164309738144728]",100.0,"[0.17882617699108022,0.0529072819942206]",100.0,"[-0.15224608447279755,-0.1062837878312082]",100.0,"[0.11692137945959287,0.13302071896729314]",4.0,"[-0.1423558003124393,-0.04806937256019468]",4.0,"[0.06089295645820185,0.09308370698128501]",4.0,"[-0.12857956516151184,0.06789256869089529]",4.0,"[-0.07245857901187128,0.06982003065752937]",100.0,"[0.1480725509009818,0.09795399040339736]",4.0,"[0.1535231738645909,-0.021574871901184026]",100.0,"[0.04530379080801448,-0.06244333802792373]",4.0,"[-0.0004900418203780158,-0.019319979231949266]",4.0,"[0.03199621388567082,0.17980386514983787]",4.0,"[0.049843297224938514,0.002286827897098311]",4.0,"[-0.18659984916695757,0.029989670912933315]",4.0,"[-0.005258393706140758,-0.11864615042276884]",4.0,"[-0.05365172816303058,0.14948314634637672]",100.0,"[-0.1657058115040932,-0.005625729762597861]",100.0,"[0.055037502173890994,-0.1348715503257341]",100.0,"[0.12776086309089535,-0.11782329301096935]",100.0,"[0.10354719524216602,-0.08507985860507274]",100.0,"[-0.10464717136334976,-0.14613952169039382]",4.0,"[0.10319878642903679,0.030529447042267004]",100.0,"[0.014791831306685798,0.03519364015245127]",100.0,"[0.10716425396035253,-0.010258201107794265]",4.0,"[-0.10886122150619353,-0.08357646065437896]",4.0,"[0.14702209393010343,-0.06610703417813861]",4.0,"[-0.08886188506488753,0.12201071964240463]",4.0,"[0.02,0.02]",151.489,0.0,25.0,25.0,142.0,1.0,,,,,,,
,,,,,,,66826c4a2d42c713e9c7475d,684429150c78fcbafbee02e6,2025-06-07_13h58.01.171,shape_ratio,2024.1.5,Win32,59.88023952,684250e4f00cb30b92d1fa88,,,,,,,,,,,151.4895,151.9896,,,152.2397,152.9072,right,0.6597,,,,,,,,,0.55,,,,,,151.9896,152.2397,152.9072,"[0.03449569114397305,-0.005682931952662516]",4.0,"[0.04190175449840459,-0.13985056135227816]",4.0,"[-0.1330737521688935,0.10106599592351295]",4.0,"[-0.12749115738466577,-0.1203890316080412]",4.0,"[0.049656750933720635,0.10398984839675708]",4.0,"[-0.025932351044022164,-0.07838453631327288]",4.0,"[0.02020620049150935,-0.07251346485321694]",100.0,"[-0.06781075084355911,0.08298637365518863]",100.0,"[0.1398138248711997,0.03560597248295913]",100.0,"[-0.00422076840124529,0.06622730236373028]",4.0,"[-0.05440355355790807,-0.019192923981241734]",100.0,"[-0.001417975058565838,0.1576071638071971]",100.0,"[0.15205508276132756,0.12548250186865798]",4.0,"[-0.08853478491793082,0.02435427120261665]",4.0,"[-0.008655124915001217,-0.009418259658900632]",4.0,"[-0.02242485126191478,0.1953191164799667]",100.0,"[0.09692385237500525,0.1657460993529299]",100.0,"[-0.056998299786132765,0.13284386846817797]",100.0,"[0.14626217919554751,-0.073613671781854]",4.0,"[-0.0676671456504968,-0.15359178445622257]",4.0,"[-0.18296138202863135,0.04377364710473629]",100.0,"[-0.039790525594430574,-0.12435739197247858]",100.0,"[0.006543349100831769,-0.18017493453149228]",100.0,"[0.08506920966603708,0.029512683865554504]",100.0,"[-0.1158298569116985,0.16234338077699528]",100.0,"[-0.10443966310595805,-0.022815556616570393]",100.0,"[0.1032130490256289,-0.04226662899125448]",100.0,"[-0.12507913364734602,0.05491412568277503]",4.0,"[-0.17273990327177963,0.09237813826566814]",100.0,"[0.1749983022476877,-0.037365097330278874]",100.0,"[0.07988557049375822,-0.15536463684961502]",100.0,"[-0.07967510813780024,-0.06837836994158565]",4.0,"[0.02,0.02]",154.0081,0.0,26.0,26.0,84.0,1.0,,,,,,,
,,,,,,,66826c4a2d42c713e9c7475d,684429150c78fcbafbee02e6,2025-06-07_13h58.01.171,shape_ratio,2024.1.5,Win32,59.88023952,684250e4f00cb30b92d1fa88,,,,,,,,,,,154.0087,154.5086,,,154.7589,155.2927,left,0.5258,,,,,,,,,0.4,,,,,,154.5087,154.7589,155.2928,"[-0.14653899900354084,0.014269310198184863]",4.0,"[0.016866824603761224,0.16661649423767944]",4.0,"[0.09687298934187212,0.059454836091697806]",100.0,"[-0.06573311382607763,-0.010144047042394527]",4.0,"[0.13447414944010236,0.045090963055364044]",100.0,"[-0.10589351830588228,-0.005822459228542652]",100.0,"[-0.11969392516895265,-0.11900302984973835]",100.0,"[0.1264519007242177,0.11924931447473035]",100.0,"[-0.10408630073718966,0.17024791351652027]",4.0,"[0.03136397272201849,-0.13615052191534324]",4.0,"[0.07342382695751136,0.0063382492533174415]",100.0,"[0.05745191002370173,0.13238766727537368]",4.0,"[0.04079998443703704,0.03469221447678543]",4.0,"[-0.05711911235362246,-0.15442151746007235]",100.0,"[0.1148971815711827,-0.12342896866144283]",100.0,"[0.057201705868472584,-0.17091224318753978]",4.0,"[-0.01206748222033944,-0.028790002139488343]",4.0,"[0.0619104338404809,-0.07598750752706292]",4.0,"[-0.1497518573900467,0.07820937848584286]",100.0,"[-0.08642655083382624,-0.08536228713851579]",100.0,"[-0.027642133499075437,0.010165164647937066]",4.0,"[0.009545087749564259,0.0996172835890273]",4.0,"[0.13378864511475722,-0.0611688919434883]",4.0,"[-0.02221059320080259,-0.19240897470088575]",4.0,"[0.052416433944067066,-0.030976318615636923]",4.0,"[-0.04857919775702209,0.07316674023593124]",100.0,"[-0.1553533217563843,-0.06497374914515629]",4.0,"[-0.08809287539174543,0.1263990682444251]",4.0,"[0.16117656428984153,-0.11541092569394025]",100.0,"[0.10579472085577953,-0.16702220272460408]",100.0,"[0.0803558279024867,0.17411028180803442]",4.0,"[-0.0204957285773517,-0.12088217348949894]",4.0,"[0.02,0.02]",156.3936,0.0,27.0,27.0,176.0,1.0,,,,,,,
,,,,,,,66826c4a2d42c713e9c7475d,684429150c78fcbafbee02e6,2025-06-07_13h58.01.171,shape_ratio,2024.1.5,Win32,59.88023952,684250e4f00cb30b92d1fa88,,,,,,,,,,,156.3939,156.8941,,,157.1448,157.5813,left,0.4285,,,,,,,,,0.9,,,,,,156.8942,157.1447,157.5813,"[0.08996633146543716,-0.16040202516166127]",100.0,"[-0.05365978359132716,0.09252789562352988]",100.0,"[-0.16485692560779297,0.09974379956401616]",100.0,"[0.13883290797378522,0.09535192863706075]",100.0,"[0.05455975062526024,0.1124068117888398]",100.0,"[-0.01866942043104521,-0.11603675784768577]",100.0,"[-0.03928421984227079,-0.18585531595410004]",100.0,"[-0.023383476284266597,0.037466150017851696]",100.0,"[-0.01937981492717548,0.16560262371184215]",100.0,"[-0.13412915640224998,-0.08698737376033346]",100.0,"[0.18495554516633825,-0.07378649426226666]",100.0,"[0.022506537345413975,-0.16021716406673978]",4.0,"[-0.07207668589845971,-0.11655181253405197]",100.0,"[-0.07926576673544125,-0.007475838574874449]",100.0,"[0.16948363312936954,-0.03391846863266892]",100.0,"[0.010733183932409553,-0.04427985837584925]",100.0,"[-0.08736908150753667,0.11857655438120134]",100.0,"[0.04341578020937764,0.18990432952598646]",100.0,"[-0.12446527826236449,0.019127650251252848]",100.0,"[0.09616324386053475,-0.06353649326932573]",100.0,"[-0.05805307547079172,0.1508000837995092]",100.0,"[0.11214110823109104,-0.12570042157555683]",4.0,"[-0.1454819006626535,-0.02663799403363778]",100.0,"[-0.19541019147940342,-0.011970152816839216]",100.0,"[0.07254288055382069,-0.0980787177118627]",100.0,"[-0.1790553735792506,-0.05636733296939945]",100.0,"[0.17681786590712334,0.057199826611045154]",4.0,"[-0.06080665871265011,-0.0756805518407492]",100.0,"[0.13336723981198187,0.011780015078540729]",100.0,"[-0.12716648562647756,-0.1488162812151486]",100.0,"[-0.006377157123099286,0.073748189677678]",100.0,"[-0.014127889981777173,-0.011471796063599715]",100.0,"[0.02,0.02]",158.6795,0.0,28.0,28.0,27.0,1.0,,,,,,,
,,,,,,,66826c4a2d42c713e9c7475d,684429150c78fcbafbee02e6,2025-06-07_13h58.01.171,shape_ratio,2024.1.5,Win32,59.88023952,684250e4f00cb30b92d1fa88,,,,,,,,,,,158.6801,159.18,,,159.4305,160.0473,right,0.6042,,,,,,,,,0.1,,,,,,159.18,159.4304,160.0474,"[-0.011142557707989643,-0.1103122740829569]",4.0,"[0.022882887385476402,-0.05937284760995226]",4.0,"[-0.10663722422807785,-0.09535362591776439]",4.0,"[-0.06282962030293937,-0.1371246411816176]",4.0,"[-0.07426236444557349,0.05047330709971478]",4.0,"[0.08496767123610986,-0.13971939147519769]",4.0,"[0.19085009944995368,0.046208298714543315]",4.0,"[0.08095005091948078,-0.0057459090104553774]",4.0,"[-0.10649266948483369,0.12993999255966052]",4.0,"[-0.018377361520433618,0.16477941449134043]",4.0,"[-0.17328522117644987,0.005513394899078063]",4.0,"[0.042318225281549354,-0.12662380418978378]",4.0,"[0.18188837668828073,-0.06767293551347779]",4.0,"[-0.1122797875407948,-0.022412809776663926]",4.0,"[-0.1544886380225451,-0.12572342608735776]",4.0,"[0.15462690528591905,-0.030694963159877683]",4.0,"[-0.002856677366426841,0.11129192108098665]",4.0,"[0.04214435065223639,0.1438513713145784]",100.0,"[0.05103877472979044,0.03154868970507745]",4.0,"[0.03250177118707235,0.19584357931457472]",4.0,"[0.01888048496961358,-0.18580946586354002]",100.0,"[0.17476966251492645,0.09163351325825243]",4.0,"[0.06638638488830281,0.1106167676308443]",100.0,"[0.01335015585200955,0.0001739029587929955]",4.0,"[-0.024407624158972272,-0.05274615108182236]",4.0,"[-0.05810716779501451,0.1354275626754172]",4.0,"[0.08508913004172786,-0.0745901011222819]",4.0,"[0.1341536054646344,0.11580360036790523]",4.0,"[-0.18861814214157924,0.04414269746647999]",4.0,"[-0.013957579991497441,0.05530394407588086]",4.0,"[0.14804919060086622,0.0255611387988548]",4.0,"[-0.1564555592612758,-0.06754505534042825]",4.0,"[0.02,0.02]",161.1485,0.0,29.0,29.0,193.0,1.0,,,,,,,
,,,,,,,66826c4a2d42c713e9c7475d,684429150c78fcbafbee02e6,2025-06-07_13h58.01.171,shape_ratio,2024.1.5,Win32,59.88023952,684250e4f00cb30b92d1fa88,,,,,,,,,,,161.1491,161.6488,,,161.8994,162.3498,left,0.4404,,,,,,,,,0.55,,,,,,161.6488,161.8994,162.3499,"[-0.0941445934961348,-0.12419220893908607]",100.0,"[0.038700960740702006,0.15642587520108306]",4.0,"[-0.03779362604349735,0.16544095360066335]",4.0,"[0.1299171646247053,-0.1356108047923264]",100.0,"[-0.13508590398732073,-0.037349337519085236]",4.0,"[0.11730914679988401,0.02452750864453552]",4.0,"[0.07814984508929729,-0.15774276752045904]",100.0,"[0.08056464823591973,-0.11667847997596789]",4.0,"[-0.025192182105775056,0.05948054455114872]",4.0,"[0.16389409086868895,-0.00839975953361062]",100.0,"[0.01849148541322108,-0.17187756883287147]",4.0,"[0.0004194797691705223,0.13995868281397178]",100.0,"[0.10549637781257964,-0.060615382970232314]",4.0,"[-0.13432441937472592,0.009921122268244093]",100.0,"[0.08094269951774434,0.06565311030390017]",100.0,"[-0.16553954189872405,0.09514490120870113]",4.0,"[-0.17510838921833696,0.04830661875205319]",100.0,"[-0.060195700575587416,-0.03744412427367621]",100.0,"[0.09212344645612731,0.16210247315184617]",4.0,"[0.028973217057985164,0.03703632557198267]",4.0,"[-0.13272343211010373,0.05036424434441228]",100.0,"[0.11885583977200861,0.09226110749482914]",100.0,"[-0.14909426206947307,-0.08558048126411287]",100.0,"[-0.02823637118793446,-0.17890023416757214]",100.0,"[-0.08403461243652162,-0.08546992648337949]",100.0,"[-0.10608672823304635,0.1672208008878641]",4.0,"[-0.044837314720008445,-0.09392670887951511]",4.0,"[-0.1522451647249796,-0.1286814124389184]",4.0,"[-0.005682771886129904,-0.00973833968608751]",100.0,"[0.1636647212555936,0.06906142271242278]",100.0,"[0.14856326536046627,-0.06433564520021587]",100.0,"[-0.10782360595840976,0.12401804182124966]",100.0,"[0.02,0.02]",163.4508,0.0,30.0,30.0,61.0,1.0,,,,,,,
,,,,,,,66826c4a2d42c713e9c7475d,684429150c78fcbafbee02e6,2025-06-07_13h58.01.171,shape_ratio,2024.1.5,Win32,59.88023952,684250e4f00cb30b92d1fa88,,,,,,,,,,,163.4513,163.9513,,,164.2019,164.6688,right,0.4583,,,,,,,,,0.1,,,,,,163.9513,164.2019,164.6688,"[-0.033320226050737686,-0.09252533908103112]",100.0,"[0.12511381502454888,-0.12177435621540818]",4.0,"[-0.11767828744967493,0.055780383599782685]",4.0,"[0.08372688657660002,-0.1065864785879867]",4.0,"[-0.13609518243854216,-0.06962221326784755]",4.0,"[0.11358116876253047,0.00040995224237926926]",4.0,"[-0.06690161621188387,0.04248454772708768]",4.0,"[0.1373820622110847,-0.04690734858885108]",4.0,"[-0.0334968435983495,-0.1762288029483862]",4.0,"[-0.13188740985715489,0.10699291845230562]",4.0,"[0.11434505349000618,0.08055132556421224]",4.0,"[0.09284654860671061,-0.05819506040704558]",4.0,"[-0.0690804528197209,0.13149930572112992]",4.0,"[-0.05759054524115805,0.18209993325287846]",4.0,"[-0.14857027964498476,-0.02059254525814448]",4.0,"[0.020454649552788026,0.06433930619286216]",4.0,"[-0.09744657767088873,-0.1276932023706855]",4.0,"[-0.006145363467580082,-0.1389904991307957]",4.0,"[-0.16679200425077023,0.08520748857848279]",4.0,"[-0.09075952391931291,-0.021742563339349857]",4.0,"[0.035119618675658715,0.11356523281710203]",4.0,"[0.14899361291629998,0.029800222956682127]",4.0,"[0.19593113913591415,0.013498553229714496]",4.0,"[0.16721538771656855,0.08597532711386958]",4.0,"[0.05663560134086677,0.044045900545024386]",4.0,"[-0.1792533467476601,-0.08599242643320487]",4.0,"[0.006930976032436423,-0.07424967532974941]",4.0,"[-0.08324686799637089,0.0864071528101674]",4.0,"[-0.002941498648592858,0.02734501318961348]",4.0,"[-0.027597458965916668,-0.03718396707010003]",4.0,"[0.015641541270389973,0.1866633723823348]",100.0,"[0.12407942981623914,0.13202427450378001]",100.0,"[0.02,0.02]",165.7699,0.0,31.0,31.0,182.0,1.0,,,,,,,
,,,,,,,66826c4a2d42c713e9c7475d,684429150c78fcbafbee02e6,2025-06-07_13h58.01.171,shape_ratio,2024.1.5,Win32,59.88023952,684250e4f00cb30b92d1fa88,,,,,,,,,,,165.7701,166.2703,,,166.5209,167.0544,left,0.5225,,,,,,,,,0.5,,,,,,166.2704,166.5209,167.0545,"[-0.0598360640413479,-0.011832845049572747]",4.0,"[0.07313174568801609,-0.14824118166550507]",4.0,"[-0.011974757226123118,-0.16587482106345933]",100.0,"[-0.08702762181930081,-0.11508767506420688]",100.0,"[0.006538929311678584,0.10687082423244156]",100.0,"[-0.018941509636470143,-0.04727685460248157]",4.0,"[0.16630233796715582,0.02356162636409709]",4.0,"[-0.19724517179916154,0.023626606979348014]",100.0,"[0.12469748445752941,0.14922713482131567]",4.0,"[-0.16207296794278775,-0.1171194738626904]",4.0,"[-0.1373866221559928,-0.06583240759786878]",4.0,"[-0.08766406485315789,0.07719766413675465]",4.0,"[0.09706938612357122,-0.01466986540992818]",100.0,"[0.16587238879671093,-0.080562873903632]",100.0,"[0.13938971345242324,-0.11385395657704289]",100.0,"[-0.0779553758235525,-0.05365939739794172]",100.0,"[-0.12338410801147982,-0.13608519467124922]",100.0,"[0.016323226124839767,-0.01139224280652397]",100.0,"[0.13677276333109914,-0.03001620528614526]",4.0,"[-0.01384282615603758,-0.11408911489415184]",100.0,"[0.18626444155595745,0.07160088017421379]",100.0,"[-0.1349340327093504,0.12047677485112696]",4.0,"[0.10201960616409067,0.059525273756666025]",4.0,"[-0.15078260105241378,0.06677490521686463]",4.0,"[-0.12156525391334182,0.01781192858660434]",100.0,"[0.029478504976460353,-0.18797627162366612]",4.0,"[-0.1776924488283627,-0.06252148644958533]",100.0,"[0.1871754284984445,-0.03895689304164794]",100.0,"[-0.10427916479382242,0.16280030051766647]",4.0,"[0.061993741363030784,-0.03903684938471252]",100.0,"[0.14568388875979013,0.09744654795879742]",4.0,"[-0.057720105943199505,0.11919837656143106]",4.0,"[0.02,0.02]",168.1557,0.0,32.0,32.0,104.0,1.0,,,,,,,
,,,,,,,66826c4a2d42c713e9c7475d,684429150c78fcbafbee02e6,2025-06-07_13h58.01.171,shape_ratio,2024.1.5,Win32,59.88023952,684250e4f00cb30b92d1fa88,,,,,,,,,,,168.1565,168.6559,,,168.9068,169.3734,left,0.4561,,,,,,,,,0.6,,,,,,168.6559,168.9068,169.3734,"[-0.12640549671482695,-0.0714030979798361]",100.0,"[-0.04821722151848996,-0.18460104088042442]",4.0,"[-0.14365499124425127,0.10092314144399217]",100.0,"[0.06276869874287412,0.11508541281008938]",100.0,"[0.1029015401554095,0.005920107009071745]",4.0,"[-0.15027259943077648,0.016644987219087918]",4.0,"[0.16302446429984258,-0.1056917958123697]",100.0,"[0.15788418322079784,0.013616103821876058]",100.0,"[-0.08858706478407716,-0.08675606363146539]",4.0,"[-0.11809749896325669,-0.023273217398373673]",4.0,"[0.007402720722872975,-0.19615701102931843]",100.0,"[-0.023131629666645025,0.16219468147011282]",100.0,"[0.03399450133262966,0.1688374181939572]",100.0,"[0.01960909465297289,-0.1380171671357621]",4.0,"[0.09702011945858358,-0.14456526919310395]",4.0,"[-0.00790121668242769,-0.0536490342115996]",100.0,"[0.006644100754685732,0.11511594891850446]",100.0,"[-0.06724315726013674,0.10169744297720341]",100.0,"[0.07518738294182248,0.04116417914103738]",100.0,"[-0.016113423572106433,0.00030079974519053203]",100.0,"[0.051823839255551035,-0.09784651667685561]",100.0,"[-0.16862495418660547,-0.0783002056315922]",4.0,"[0.09956761058789801,0.13565343603354177]",4.0,"[0.006763989049129672,0.06899805432642443]",4.0,"[0.06694571406543495,-0.0583061974418748]",100.0,"[-0.08355784101121906,0.1674847755968793]",100.0,"[-0.04911122803503853,0.06101140007199224]",4.0,"[0.17489006773318813,-0.058193140823131984]",4.0,"[0.101308217403309,0.09404113206209137]",4.0,"[-0.07904885992804238,0.026681364478242667]",100.0,"[-0.054706855557489116,-0.057574515355233724]",100.0,"[-0.058401436684991134,-0.13483095483345875]",100.0,"[0.02,0.02]",170.4746,0.0,33.0,33.0,44.0,1.0,,,,,,,
,,,,,,,66826c4a2d42c713e9c7475d,684429150c78fcbafbee02e6,2025-06-07_13h58.01.171,shape_ratio,2024.1.5,Win32,59.88023952,684250e4f00cb30b92d1fa88,,,,,,,,,,,170.4754,170.9751,,,171.2256,172.3264,left,1.0847,,,,,,,,,0.55,,,,,,170.9752,171.2255,172.3265,"[0.07790831351277232,0.15008748406458472]",100.0,"[0.16087218591588148,-0.042901231260656744]",4.0,"[0.13818898371963664,0.00006340331219753133]",100.0,"[-0.06490855428294585,-0.07669215979087061]",100.0,"[-0.013383186000000304,0.13270406554041905]",4.0,"[0.0581850705731387,-0.1855805692554985]",100.0,"[-0.061318145486424815,0.0014871846950440504]",4.0,"[0.022352345249101697,0.17417953387307686]",4.0,"[-0.18878155169229982,-0.05741128289072589]",4.0,"[0.04929320737944756,-0.13429072495053743]",100.0,"[-0.10388545675343372,0.11795025473805253]",100.0,"[-0.045388032145013184,0.10512745992834516]",100.0,"[-0.11329642295066471,-0.12335613266297665]",4.0,"[-0.1320904627739964,-0.020371805528978805]",4.0,"[-0.06737777388301917,-0.12452264997024722]",100.0,"[0.1490050465963817,0.07659824225522964]",100.0,"[-0.037298891848464175,0.18814525873624116]",4.0,"[0.08965178046699403,0.03221967300849491]",4.0,"[0.1141061134069194,-0.074399397912449]",100.0,"[0.04246881997659523,-0.024096874592722237]",100.0,"[-0.14817964385712187,0.018928617107201434]",100.0,"[0.07111609650667036,-0.09572733448444104]",4.0,"[0.14042570972093646,0.1286874282088974]",100.0,"[0.04872441209451027,0.11379088155700963]",100.0,"[-0.03686739263737907,-0.0324841290714155]",100.0,"[-0.022982785379847256,-0.18759280295773068]",100.0,"[-0.0257166953461397,-0.09371947123483562]",4.0,"[0.09820507556506046,-0.1461061615756719]",4.0,"[-0.12985350841120535,0.08427274766249518]",4.0,"[-0.06673752141771873,0.14585607157817693]",100.0,"[0.19117820379345749,0.02401435229357823]",4.0,"[-0.06709900963152159,0.06596061133722853]",100.0,"[0.02,0.02]",173.4277,0.0,34.0,34.0,85.0,1.0,,,,,,,
,,,,,,,66826c4a2d42c713e9c7475d,684429150c78fcbafbee02e6,2025-06-07_13h58.01.171,shape_ratio,2024.1.5,Win32,59.88023952,684250e4f00cb30b92d1fa88,,,,,,,,,,,173.4282,173.9277,,,174.1785,174.6955,right,0.5033,,,,,,,,,0.45,,,,,,173.9278,174.1785,174.6956,"[0.10129246665011346,-0.009403742970220924]",100.0,"[-0.048559253967732176,-0.005542373164160109]",4.0,"[0.04096918875517406,-0.10038623495713717]",4.0,"[-0.001242512394053354,-0.08851174405335911]",100.0,"[0.18596441157164545,-0.044856465470162775]",100.0,"[-0.06369056318401341,0.09229092085898145]",4.0,"[0.18887261513165124,0.05818468769809275]",100.0,"[0.008251683208606623,0.16733137994294825]",4.0,"[0.11182142913578688,0.16054528457915818]",4.0,"[0.057036735546637296,-0.15549914385501248]",4.0,"[0.10522314947356926,-0.06980408287411727]",100.0,"[0.13180071559670983,0.027131866145244276]",4.0,"[-0.15622404023439954,-0.09846679712437253]",100.0,"[0.007525722735892786,0.0325516099975288]",4.0,"[0.04040274617966293,0.1400862882867723]",100.0,"[-0.06899984246660541,0.1319591742626516]",4.0,"[-0.1902288620721638,0.005151437297300535]",100.0,"[-0.06476527911993014,0.0454629375224981]",4.0,"[-0.1486347105319305,0.008542392185476064]",100.0,"[-0.06695557424375509,-0.15540415866694215]",100.0,"[0.06609056015668485,0.17126063051774784]",4.0,"[0.092929716849842,0.1100275492049136]",100.0,"[-0.10549211529083499,0.04787679767047388]",4.0,"[0.16561234339630135,-0.09198239202081838]",100.0,"[-0.04905335028070101,-0.08420206894085319]",4.0,"[-0.021114046837704226,0.13926790047177123]",100.0,"[0.038768741170538586,0.0886753366125776]",4.0,"[-0.14464376602023762,0.10800680033949807]",100.0,"[-0.10260924639675215,0.1576461851015837]",4.0,"[0.14595784527594602,-0.011839994401273691]",4.0,"[0.00685446836730336,-0.1719107122871771]",4.0,"[0.046560713523534115,-0.01376638634404402]",4.0,"[0.02,0.02]",175.7965,0.0,35.0,35.0,135.0,1.0,,,,,,,
,,,,,,,66826c4a2d42c713e9c7475d,684429150c78fcbafbee02e6,2025-06-07_13h58.01.171,shape_ratio,2024.1.5,Win32,59.88023952,684250e4f00cb30b92d1fa88,,,,,,,,,,,175.7968,176.297,,,176.5476,177.682,left,1.1204,,,,,,,,,0.1,,,,,,176.2971,176.5476,177.6821,"[-0.19108633970825575,-0.022313542439523243]",4.0,"[-0.013814116796975797,0.09244775945026601]",100.0,"[-0.1301646945193144,0.05211044716643191]",4.0,"[-0.15171972552691135,-0.04343614492973269]",4.0,"[-0.15787861257498056,0.12193054339028271]",4.0,"[0.024140804926314787,0.0532051403701523]",4.0,"[-0.11774591255293218,-0.06678972948628317]",4.0,"[0.12597140034638715,-0.022685095786055876]",100.0,"[0.09619532961452468,0.0431955102372695]",4.0,"[-0.0031297862718664394,0.016406840688644966]",4.0,"[0.079023203578376,0.17392571491162614]",4.0,"[-0.0903573714136215,0.08356612084863434]",4.0,"[0.041158984285435504,-0.12927498360177994]",4.0,"[0.05624048174998685,0.13000961495962227]",4.0,"[-0.06503767257223625,-0.0746549188163366]",4.0,"[-0.001892995362781663,-0.13308464355686436]",4.0,"[0.008041181758063077,-0.05168357559684937]",4.0,"[-0.04892342889114799,-0.03630961427106874]",4.0,"[0.11195527552533013,-0.10961632278893117]",4.0,"[0.06865939139758741,0.07917727872103132]",100.0,"[-0.07729486505451631,0.1742912696770662]",4.0,"[0.15551071517963258,-0.12079705904294963]",4.0,"[0.1059112073618389,0.1371764230179263]",4.0,"[-0.013526167519764199,0.19125717751708934]",4.0,"[-0.07636303274210639,0.004909105564501418]",4.0,"[-0.04799007713386325,0.13356253221202177]",4.0,"[-0.1183576294515633,0.011536443448304363]",4.0,"[-0.09373001127177506,-0.168395943135487]",4.0,"[-0.02241775117707077,-0.1807701731659521]",4.0,"[0.058897176500395464,-0.04340731367227575]",4.0,"[-0.1969836102197863,0.017326932542947104]",4.0,"[-0.1278756424550578,-0.13769111080716337]",4.0,"[0.02,0.02]",178.7828,0.0,36.0,36.0,183.0,1.0,,,,,,,
,,,,,,,66826c4a2d42c713e9c7475d,684429150c78fcbafbee02e6,2025-06-07_13h58.01.171,shape_ratio,2024.1.5,Win32,59.88023952,684250e4f00cb30b92d1fa88,,,,,,,,,,,178.7831,179.2834,,,179.534,179.9507,left,0.4062,,,,,,,,,0.45,,,,,,179.2834,179.534,179.9507,"[-0.01870124193086984,0.19283536474181692]",100.0,"[0.1383222887181567,0.0951025343542469]",100.0,"[-0.04612945483245082,-0.1279387315891098]",4.0,"[-0.10435576137569363,-0.09368677600535553]",4.0,"[0.005366777114365487,-0.07297952578810832]",4.0,"[-0.08318449029142556,0.06353459977204423]",4.0,"[-0.02117275257154939,-0.17835256733396262]",100.0,"[0.1913438542935706,0.01027945901062045]",4.0,"[-0.030542473273213418,-0.004498161363536926]",100.0,"[0.11625936919726877,-0.1388919110042492]",100.0,"[0.0030436192650759105,-0.13662805228470357]",4.0,"[-0.04351561674036301,0.13973165718389502]",100.0,"[0.0022877850932906175,0.1163258511607429]",4.0,"[0.0849358785064782,0.0019991290721020796]",4.0,"[-0.12039897845642525,0.15916158421532814]",4.0,"[-0.15188201475437296,-0.10450137205902614]",100.0,"[0.09472365446995051,-0.07542491865881996]",100.0,"[0.04849568903815036,0.07131897854292184]",100.0,"[0.09321321923446205,0.14964650878071825]",4.0,"[-0.10299366736426273,-0.04820807985229122]",4.0,"[0.16076276474903944,-0.06162762609626228]",4.0,"[0.02658140855098618,-0.17147102569369976]",4.0,"[0.055776592398834715,-0.12771723110309546]",100.0,"[-0.1677466719964053,0.09594442892016523]",100.0,"[0.042976716682245876,0.14872053339813876]",100.0,"[-0.03511901211923322,0.09443482404879845]",4.0,"[0.04540303366640055,-0.07272651828056662]",4.0,"[-0.025161685700034974,0.05114145182337133]",4.0,"[0.1226882446273671,-0.01849842847850605]",100.0,"[0.07068062589473016,-0.18524681618460284]",4.0,"[-0.19303573084769035,-0.00005827438491612398]",4.0,"[0.13748013751319593,-0.09546782796710858]",100.0,"[0.02,0.02]",181.0518,0.0,37.0,37.0,137.0,1.0,,,,,,,
,,,,,,,66826c4a2d42c713e9c7475d,684429150c78fcbafbee02e6,2025-06-07_13h58.01.171,shape_ratio,2024.1.5,Win32,59.88023952,684250e4f00cb30b92d1fa88,,,,,,,,,,,181.0522,181.5522,,,181.8026,182.6535,right,0.8412,,,,,,,,,0.5,,,,,,181.5523,181.8026,182.6536,"[0.1482119967116365,0.0944023985750291]",100.0,"[-0.06313043850620699,0.0909506031068866]",4.0,"[0.0677673368934025,0.08204031117374361]",4.0,"[-0.03019393686049848,-0.12019062915435591]",100.0,"[0.14051337431298422,-0.0035006741291930053]",4.0,"[0.02125215466878896,0.0935548659617179]",100.0,"[-0.0247029546173035,-0.03346307008175423]",100.0,"[-0.13411092932340232,0.10891545524282528]",100.0,"[-0.1019392793728764,-0.08631311872536326]",100.0,"[0.09176782055946332,0.13899721237198512]",4.0,"[-0.004942704624902562,0.13015580791943446]",4.0,"[0.010000580496079728,-0.14261851505115816]",4.0,"[-0.14267504440326137,0.007862648808899881]",100.0,"[-0.16277405242052276,-0.03542965388780269]",100.0,"[-0.00870129425460804,-0.18428021353894733]",100.0,"[0.07562097782015131,-0.09809933145322816]",100.0,"[-0.04698125885677201,-0.16451692678257163]",4.0,"[0.03797513323626212,0.13613774942747706]",4.0,"[0.12290842637750948,-0.07689061405516318]",4.0,"[-0.19771206693472848,-0.013772220787871258]",100.0,"[-0.06300955444515079,0.18091356292011018]",100.0,"[0.14504768126788414,-0.043355459924573424]",4.0,"[-0.14335898855109372,-0.09994370966454333]",4.0,"[0.007505478052834334,-0.05971271869844783]",4.0,"[0.01804850161121529,0.011704425348796276]",4.0,"[0.163638661578403,0.0400063961028499]",100.0,"[-0.09031832692439774,-0.14029100440215309]",100.0,"[-0.17041230629660536,0.06261541434114848]",4.0,"[0.05104586611218373,-0.134595860844665]",4.0,"[-0.017654867205909953,0.18374846163322878]",100.0,"[0.0007896451109626649,0.054166823184965567]",4.0,"[-0.04147376720757174,0.043788522742644796]",100.0,"[0.02,0.02]",183.7543,0.0,38.0,38.0,109.0,1.0,,,,,,,
,,,,,,,66826c4a2d42c713e9c7475d,684429150c78fcbafbee02e6,2025-06-07_13h58.01.171,shape_ratio,2024.1.5,Win32,59.88023952,684250e4f00cb30b92d1fa88,,,,,,,,,,,183.7549,184.2552,,,184.5062,184.9898,left,0.4757,,,,,,,,,0.45,,,,,,184.2552,184.5062,184.9899,"[0.0038579334749780318,-0.03646471798391928]",4.0,"[-0.0466185226521625,-0.12423244359479554]",100.0,"[-0.035724743210005204,0.08869895842965561]",100.0,"[0.18905613917255565,-0.00863497719794521]",4.0,"[-0.00005796493074142411,-0.19880823303513082]",4.0,"[-0.038250487224639716,-0.038530623242572726]",100.0,"[0.04918572181907773,-0.10716496519933282]",4.0,"[0.1758788249669676,0.06650051525991463]",4.0,"[-0.13233055688016418,0.04038453707856681]",4.0,"[0.04793957305913232,-0.19018082830784727]",4.0,"[-0.02738257180180583,0.0474987304965839]",100.0,"[0.09767910082075167,0.13584081837602816]",4.0,"[0.10936504457940989,-0.07443025935080656]",100.0,"[-0.16677834805218342,0.09066367583969082]",4.0,"[-0.014628448430242224,0.16651667553952673]",4.0,"[-0.10681183502441124,0.10430711464671436]",100.0,"[-0.08953763475739711,0.036010328359278976]",100.0,"[0.062180196926338804,0.18031092273839217]",100.0,"[-0.0928722377224908,0.15542999986118827]",4.0,"[-0.14677041236970478,-0.10256873976573322]",4.0,"[-0.08155559965040976,-0.024018439180912295]",4.0,"[0.01198697097824448,0.11997443970102212]",100.0,"[0.042850133298043436,-0.05195782433310593]",4.0,"[-0.009392465008593311,-0.15877114093240774]",4.0,"[-0.07470023093217767,-0.18327272183872462]",4.0,"[0.018726631311737324,0.04580614598060143]",100.0,"[-0.019628901321685835,-0.003063409545693644]",100.0,"[0.13931777941108817,-0.03782089028781546]",100.0,"[0.1389576124820566,0.09452794919600131]",4.0,"[-0.17312189130560324,0.012487165599376317]",100.0,"[0.19052601350551446,-0.05510017881350861]",4.0,"[-0.1909966072728686,-0.04288308488059464]",100.0,"[0.02,0.02]",186.0903,0.0,39.0,39.0,126.0,1.0,,,,,,,
,,,,,,,66826c4a2d42c713e9c7475d,684429150c78fcbafbee02e6,2025-06-07_13h58.01.171,shape_ratio,2024.1.5,Win32,59.88023952,684250e4f00cb30b92d1fa88,,,,,,,,,,,186.0906,186.5908,,,186.8412,187.2617,left,0.4126,,,,,,,,,0.9,,,,,,186.5909,186.841,187.2617,"[-0.14969031696682525,0.06724679584824819]",100.0,"[0.06597283636502069,0.1711936829496616]",4.0,"[-0.059234408900656337,-0.18149393897791338]",100.0,"[0.1444563366621084,-0.13483818897387084]",100.0,"[-0.043609150062062035,0.1620472669968953]",100.0,"[0.022633715588004685,0.13724519515411387]",100.0,"[0.05455671765747462,0.016765738099398998]",100.0,"[0.19831158789440909,0.008737755232132084]",100.0,"[0.0014379945144898266,-0.06721404590179407]",100.0,"[-0.037634595781930645,0.06589471394269308]",100.0,"[0.17078479577646274,0.04141520813583299]",4.0,"[-0.06963642762652732,0.11591496689566645]",100.0,"[0.17526883821712616,0.08651271898475262]",100.0,"[0.12666379546885712,-0.06922709091671651]",100.0,"[0.002342919315290934,0.012094253866472972]",100.0,"[-0.08578872408085575,-0.047758348395928144]",100.0,"[-0.13077906799524602,-0.1216550570826316]",100.0,"[0.11869178200075804,0.06289507076950622]",100.0,"[-0.17232819806803518,-0.08412554658673889]",100.0,"[-0.14259996339863187,0.12468201043062026]",100.0,"[0.059349045841703606,-0.1269436795501252]",100.0,"[0.08213728225429298,-0.020065343099876707]",100.0,"[-0.01309212208469358,-0.13832362797004552]",100.0,"[-0.03239470251072501,-0.010604660175677015]",100.0,"[-0.12280000048748484,-0.029603444931373946]",100.0,"[-0.07839272881358712,-0.09591325358292234]",100.0,"[0.125420146100059,0.12421829613139602]",100.0,"[0.09117683741876048,-0.16980109106173571]",100.0,"[0.0322372889041476,0.1950829509392159]",100.0,"[-0.12549653169163755,0.034597978119393746]",100.0,"[-0.08528068946584112,-0.0059975235389004376]",100.0,"[0.0332390345651389,-0.036424140409611665]",4.0,"[0.02,0.02]",188.3591,0.0,40.0,40.0,20.0,1.0,,,,,,,
,,,,,,,66826c4a2d42c713e9c7475d,684429150c78fcbafbee02e6,2025-06-07_13h58.01.171,shape_ratio,2024.1.5,Win32,59.88023952,684250e4f00cb30b92d1fa88,,,,,,,,,,,188.3596,188.8595,,,189.11,189.7437,right,0.6214,,,,,,,,,0.45,,,,,,188.8596,189.1099,189.7437,"[0.10638965662521915,0.004626123262100804]",100.0,"[0.11698606189458602,0.06918532910608984]",4.0,"[-0.025108822584581813,0.10302971731683867]",4.0,"[0.07057286470212897,0.07298165339273252]",4.0,"[-0.06224232327001331,-0.06649485936883977]",100.0,"[0.006223440526970075,-0.14956834326479468]",4.0,"[-0.02228899678119388,-0.04340050272820369]",100.0,"[0.01859091342670997,0.08816088991688358]",4.0,"[-0.14936984420679458,0.09355567335667866]",100.0,"[-0.05712783250951486,0.13583100594201336]",100.0,"[0.13518796436121067,0.11527443398141307]",4.0,"[0.1211337945033101,-0.04977440092233263]",100.0,"[-0.013754817059821569,-0.1925962548133815]",100.0,"[-0.09878076727032828,-0.04358060892129832]",4.0,"[0.16786142070818438,-0.03550200665431327]",4.0,"[0.024101966880456144,-0.018853693931991964]",100.0,"[0.00612916817786459,-0.08136876996653646]",100.0,"[-0.1909196072056502,-0.04792978463617916]",4.0,"[-0.11963556728038828,0.009713459027408586]",4.0,"[-0.16054388055596655,0.04564642591652125]",100.0,"[-0.09124921979110477,-0.10012451573707902]",4.0,"[0.10447892653478576,-0.1552152613027209]",4.0,"[0.07427776459407251,-0.04086492579531587]",100.0,"[-0.11282514800563682,0.06398332774441366]",100.0,"[0.07039989633760706,0.1557458405085197]",4.0,"[-0.07345347651973735,-0.15723365809120204]",100.0,"[0.02857545038724078,-0.19038997273920696]",4.0,"[0.1323897791849077,-0.12326951265313489]",4.0,"[-0.13817840792569927,-0.13871820802216778]",4.0,"[-0.07416921376132588,-0.009325036562777615]",4.0,"[0.052112796720738236,0.03320569219064802]",100.0,"[0.08140248254615842,-0.09580971174529565]",4.0,"[0.02,0.02]",190.8449,0.0,41.0,41.0,148.0,1.0,,,,,,,
,,,,,,,66826c4a2d42c713e9c7475d,684429150c78fcbafbee02e6,2025-06-07_13h58.01.171,shape_ratio,2024.1.5,Win32,59.88023952,684250e4f00cb30b92d1fa88,,,,,,,,,,,190.8454,191.3454,,,191.5961,192.0293,left,0.4226,,,,,,,,,0.9,,,,,,191.3454,191.5961,192.0294,"[0.01883818706778936,0.054182273190469366]",100.0,"[-0.050252666174534714,-0.02503231050697293]",100.0,"[0.1548808499994165,-0.10756271583056108]",100.0,"[0.020590184199438918,0.12040046164907987]",100.0,"[-0.1057148362336655,-0.04054319139621924]",100.0,"[-0.10762328328935485,0.14182631220721914]",100.0,"[0.19054731583997708,0.05659840286768253]",100.0,"[0.12158884229568195,-0.08161475151553335]",100.0,"[0.12569098513988186,-0.14605059631485703]",100.0,"[-0.03306770199671915,0.044460212956572404]",100.0,"[-0.08526395418697758,0.03953668041632941]",100.0,"[-0.15497782145784897,0.07729343690692356]",100.0,"[-0.15305253607164548,-0.07952071562511613]",100.0,"[0.054263286897739495,-0.11468848253244682]",100.0,"[-0.03381025910390167,-0.08470845321368387]",100.0,"[0.04520608685919121,-0.18197129453087507]",100.0,"[-0.1911522934159483,0.0033462626270697573]",100.0,"[-0.022777531350555554,0.17636181881811375]",100.0,"[-0.12800530401791593,-0.12570305981491525]",4.0,"[0.024753836877669317,-0.028126501810086434]",100.0,"[-0.013976672202653802,-0.1352158136813487]",100.0,"[0.02278914024077611,0.1722264290743565]",4.0,"[0.10489400758468995,0.1374968482301837]",100.0,"[-0.1416891617869884,0.010676878834255499]",4.0,"[0.035403939523099635,0.011048491809528441]",100.0,"[0.16279914849997865,-0.055955369166161215]",100.0,"[0.068310443738599,0.16140284331094285]",100.0,"[0.01556820295964182,-0.0972396235195692]",100.0,"[0.08606359444587494,0.02697125303145081]",100.0,"[-0.09077645316198169,0.0881839304445806]",100.0,"[-0.1770775774420014,-0.045194157133631695]",100.0,"[0.08165551951154999,0.06696516163248444]",100.0,"[0.02,0.02]",193.1305,0.0,42.0,42.0,26.0,1.0,,,,,,,
,,,,,,,66826c4a2d42c713e9c7475d,684429150c78fcbafbee02e6,2025-06-07_13h58.01.171,shape_ratio,2024.1.5,Win32,59.88023952,684250e4f00cb30b92d1fa88,,,,,,,,,,,193.1307,193.631,,,193.8815,194.3651,left,0.4744,,,,,,,,,0.9,,,,,,193.631,193.8815,194.3652,"[-0.05895618414879758,-0.0011297980778306057]",100.0,"[0.11962274385007146,-0.023475106564633124]",100.0,"[0.05520498491369508,-0.024083075369636175]",100.0,"[0.09378639189643471,0.14372830438520406]",100.0,"[0.039527117720478316,-0.10589435310919404]",100.0,"[-0.14381402597351348,0.042284529212403506]",100.0,"[-0.07822573530237806,-0.09152848978718392]",100.0,"[-0.01622573466680356,0.15472608509011954]",100.0,"[0.11522450139424585,0.05963235218995123]",100.0,"[-0.14378738056517346,0.11443505921140579]",100.0,"[-0.05268008644075421,-0.1890493315922407]",4.0,"[0.1351918484343068,-0.12433163852610138]",100.0,"[0.03166408441001316,-0.16466426498428738]",100.0,"[0.0638796545217289,0.01959689505520067]",100.0,"[-0.07049896330038766,0.1547324966566728]",100.0,"[-0.15622207890381273,-0.09454679852668345]",100.0,"[0.0601171119190307,0.10543796045878945]",100.0,"[0.14019091662996214,0.09806286706604425]",100.0,"[0.10449308039268557,-0.0923653256967979]",4.0,"[0.17683472054904636,0.0060692495766572875]",100.0,"[-0.16368391095452955,0.0040962673269871065]",100.0,"[0.03597674381874587,0.051088127468828196]",4.0,"[0.1576128398651482,0.04197816130502569]",100.0,"[-0.056566053046602616,0.08967415115102613]",100.0,"[0.053699645893826344,-0.06485133888582074]",100.0,"[-0.09822791094005366,0.09902945146447927]",100.0,"[0.19127180864949808,-0.04689540333489904]",100.0,"[-0.04514483763423104,-0.11996672469727696]",100.0,"[-0.008089038681620074,-0.0038730646723619563]",100.0,"[-0.00979487700541186,0.04472093103731887]",100.0,"[0.0664828869755475,0.18721242876411118]",100.0,"[-0.0103883618838495,-0.07002692589651051]",100.0,"[0.02,0.02]",195.4662,0.0,43.0,43.0,28.0,1.0,,,,,,,
,,,,,,,66826c4a2d42c713e9c7475d,684429150c78fcbafbee02e6,2025-06-07_13h58.01.171,shape_ratio,2024.1.5,Win32,59.88023952,684250e4f00cb30b92d1fa88,,,,,,,,,,,195.4665,195.9667,,,196.2171,196.6356,right,0.4117,,,,,,,,,0.1,,,,,,195.9667,196.2171,196.6356,"[0.19297399231581897,-0.020347952612582466]",4.0,"[0.01989142203879047,0.04402506260604759]",4.0,"[0.12700323385291942,-0.027002930828279925]",4.0,"[0.10371545081968503,0.13658360012590148]",4.0,"[0.10735859319482363,0.07587533519822387]",4.0,"[-0.09985970569545352,0.06681762421025274]",4.0,"[-0.011996017114138478,-0.0005991614848930615]",4.0,"[-0.16368135845667128,0.003017967907788563]",100.0,"[0.18758386407112884,0.02884212349647054]",4.0,"[0.05472286718866115,0.14760442548235245]",4.0,"[-0.01610153883251299,-0.06123955181627585]",4.0,"[-0.04855473852077332,0.09569503968362679]",4.0,"[-0.008652311133517736,0.1897999702072994]",4.0,"[0.14007236162848324,0.044717799700752285]",4.0,"[0.10096227236407328,0.006088987618079582]",4.0,"[-0.10872525786885366,0.004012389116826286]",4.0,"[-0.070148735719164,-0.11954019132937184]",4.0,"[0.024691231597588625,-0.11455051497749251]",4.0,"[0.1397929221502367,-0.11462986180599279]",100.0,"[0.04514577927290512,0.1934458160344052]",4.0,"[-0.10182479944893162,0.14863743309460545]",4.0,"[-0.11524966095108527,-0.1047660652139192]",4.0,"[0.09029146607690165,-0.11241069245744417]",4.0,"[0.08269146211776968,0.17721223068926847]",4.0,"[-0.17700439570461932,0.0922458239786717]",100.0,"[-0.029943323764290392,-0.10087872796653166]",4.0,"[0.043548590973047356,0.088789231432612]",4.0,"[0.06937540275268277,-0.16194263818562815]",4.0,"[0.04988673225421084,-0.03917943710337202]",4.0,"[-0.09124438773788106,-0.04057301834853654]",4.0,"[-0.14750387765000852,0.12373638726822246]",4.0,"[-0.04540683352266105,-0.15117060637857355]",4.0,"[0.02,0.02]",197.7352,0.0,44.0,44.0,199.0,1.0,,,,,,,
,,,,,,,66826c4a2d42c713e9c7475d,684429150c78fcbafbee02e6,2025-06-07_13h58.01.171,shape_ratio,2024.1.5,Win32,59.88023952,684250e4f00cb30b92d1fa88,,,,,,,,,,,197.7358,198.2357,,,198.4861,199.0227,left,0.5289,,,,,,,,,0.55,,,,,,198.2357,198.486,199.0227,"[-0.15756987806916728,-0.09903545760525746]",4.0,"[-0.0569428851416228,-0.16116593897770198]",4.0,"[-0.17224973073629524,-0.02702301717669476]",100.0,"[0.02271617816097276,-0.016820991161281308]",100.0,"[0.08808342574812461,-0.10083144640430336]",100.0,"[-0.09289260476028206,0.0441781043266604]",4.0,"[-0.06449663063147837,0.13921105609306786]",100.0,"[0.028703164528476644,0.13239849971422074]",4.0,"[-0.0014042962229263113,0.052057548833529775]",4.0,"[-0.17285400753370092,0.05383190575705079]",100.0,"[-0.10482850301209412,-0.16006734912340184]",100.0,"[-0.0930528855328291,-0.02962955676909816]",4.0,"[0.05401315204505356,-0.1498246540416457]",4.0,"[0.016301910594631038,-0.07874733741112702]",4.0,"[0.043499407967904635,0.03802461317066719]",100.0,"[0.102631320799993,-0.05069831531825039]",4.0,"[0.08217444101293268,0.10134174080850762]",4.0,"[-0.02043661089222761,0.17411937913143236]",100.0,"[0.01889005861426207,-0.17810320432528043]",4.0,"[0.09951182993423449,-0.00765016066555061]",100.0,"[-0.03749041822352407,-0.0680374529845618]",100.0,"[0.04849556232569849,-0.10972149074490772]",4.0,"[0.09893446089244388,-0.1590820938627328]",100.0,"[0.02960451857697142,0.07746736767579972]",100.0,"[0.032023081728145456,0.1871678597443787]",100.0,"[-0.06887897288615227,0.09014274101988771]",100.0,"[0.0690635520346877,0.1410588743366789]",4.0,"[0.18382392726174998,0.07724579764431384]",100.0,"[-0.04510423020748037,-0.11142669689139781]",4.0,"[0.14649379611160032,0.04210929055651133]",100.0,"[0.10485418866103767,0.04180832902822601]",100.0,"[-0.1085469940063245,-0.07854918210630649]",100.0,"[0.02,0.02]",200.1207,0.0,45.0,45.0,86.0,1.0,,,,,,,
,,,,,,,66826c4a2d42c713e9c7475d,684429150c78fcbafbee02e6,2025-06-07_13h58.01.171,shape_ratio,2024.1.5,Win32,59.88023952,684250e4f00cb30b92d1fa88,,,,,,,,,,,200.121,200.6212,,,200.8718,201.6558,right,0.7681,,,,,,,,,0.4,,,,,,200.6213,200.8718,201.6559,"[0.05480703235890377,-0.1520573471375554]",4.0,"[0.16147325480891922,0.04689449396700517]",4.0,"[-0.013179966258144713,-0.18702095416267983]",100.0,"[0.18433159190720572,-0.011766461669237767]",4.0,"[-0.03325439687061653,0.030646648416038886]",100.0,"[-0.08259183665328926,0.047718002330062806]",100.0,"[0.0020932530945491517,-0.027821699941171965]",4.0,"[-0.03469080780112008,0.1380673419706757]",4.0,"[0.13193060901830678,-0.041002310598884664]",100.0,"[-0.04837181808264891,-0.05883259611787658]",4.0,"[-0.0666063869577473,-0.14834562010440386]",4.0,"[0.10790020355220842,0.06372325991332842]",100.0,"[-0.13079942126477126,0.07096881585637849]",4.0,"[0.1155861004939584,0.11932778043699417]",100.0,"[0.15518979821153855,-0.10282094723697877]",4.0,"[-0.12821338832081353,-0.1324680725196239]",100.0,"[0.034691599876955685,0.17479254773879377]",100.0,"[0.07373257029770852,0.09982827648755273]",4.0,"[-0.1626406473627624,-0.03879274839714733]",100.0,"[0.038503440480317064,0.01541936121230844]",100.0,"[-0.006788978311686428,-0.13556712980632232]",100.0,"[-0.1562236885964959,-0.09032244058846663]",4.0,"[0.00220302924549997,-0.09282065068601952]",4.0,"[0.10958842303064102,-0.1112877654936416]",4.0,"[-0.18907078238007888,0.04431591731072847]",4.0,"[0.08796436822091941,-0.00022978477654528608]",100.0,"[-0.10138269776494253,0.0039374051562113144]",100.0,"[-0.07884561316718296,0.14656187083995145]",4.0,"[-0.030235161778708382,0.09565735850443265]",4.0,"[-0.1108497379888935,-0.07599291260799783]",4.0,"[-0.0868796512206709,0.09861038419530757]",4.0,"[0.13124162317801832,0.015683456073396308]",4.0,"[0.02,0.02]",202.7567,0.0,46.0,46.0,177.0,1.0,,,,,,,
,,,,,,,66826c4a2d42c713e9c7475d,684429150c78fcbafbee02e6,2025-06-07_13h58.01.171,shape_ratio,2024.1.5,Win32,59.88023952,684250e4f00cb30b92d1fa88,,,,,,,,,,,202.757,203.257,,,203.5076,203.8748,left,0.3532,,,,,,,,,0.55,,,,,,203.2571,203.5075,203.8748,"[-0.000991540716372397,-0.033848850039574475]",100.0,"[0.06685641106024799,-0.11834025852209357]",100.0,"[-0.1279185821900917,0.04025586063731743]",4.0,"[-0.006480552580911561,0.17087283856817279]",4.0,"[0.08522733815121615,0.06961543412394262]",100.0,"[-0.12821778226206632,-0.006187264031268416]",4.0,"[-0.17245861792933256,0.08619160922362507]",100.0,"[-0.09250137042241308,-0.16186925576233335]",4.0,"[0.17088401807296016,-0.10339302345440392]",100.0,"[0.015372848466083238,0.10364366165739655]",100.0,"[0.17059313728516806,-0.011097237624902584]",4.0,"[0.03053912041345018,0.05042330727050039]",4.0,"[-0.021710853830288156,-0.1535656182022143]",100.0,"[-0.07585001703406112,-0.06876791385314637]",4.0,"[0.11465539152929932,-0.15927536427898523]",4.0,"[0.11939588486851939,0.1402310217207493]",100.0,"[-0.04802803207094396,0.08376287106203945]",100.0,"[-0.12936626854013067,-0.10224911243541591]",100.0,"[0.06152795880343217,0.012328218563339509]",4.0,"[0.07840051600568215,-0.06796580766468037]",100.0,"[-0.03304049842445965,-0.09285545203392058]",100.0,"[-0.09524281120858717,0.16981333017217545]",4.0,"[0.17521193827035583,0.030557208201436526]",4.0,"[-0.02787655027185316,0.00019129476571641546]",100.0,"[0.030211023106503275,-0.09795075494238457]",100.0,"[0.04498232928243528,0.14548893802107654]",4.0,"[0.10735403873936822,0.025584477209583404]",4.0,"[-0.11554004626509538,0.12119210963171177]",100.0,"[-0.13527391888559193,-0.05266936748552032]",4.0,"[0.1267330758571356,-0.11536682520873733]",100.0,"[-0.07475982858820938,0.013163793063259278]",100.0,"[-0.04407852512594573,0.1441896550751091]",100.0,"[0.02,0.02]",204.9757,0.0,47.0,47.0,69.0,1.0,,,,,,,
,,,,,,,66826c4a2d42c713e9c7475d,684429150c78fcbafbee02e6,2025-06-07_13h58.01.171,shape_ratio,2024.1.5,Win32,59.88023952,684250e4f00cb30b92d1fa88,,,,,,,,,,,204.9759,205.4762,,,205.7266,206.2439,right,0.5037,,,,,,,,,0.45,,,,,,205.4763,205.7266,206.2439,"[0.11855666362400295,-0.13975861651755947]",4.0,"[-0.11133735602295197,0.15140668355328338]",100.0,"[0.16111089524191374,0.008314347150976339]",100.0,"[-0.11866854162802869,0.05036563382435484]",4.0,"[-0.07212628316822989,0.006998818749224271]",4.0,"[0.12094113097145773,0.04459427049092406]",100.0,"[0.00398398771530448,-0.03370674155440184]",4.0,"[-0.020744266595206264,-0.1337257347480985]",4.0,"[0.1448528188390536,-0.06674853452079949]",4.0,"[0.029488397522536153,0.13392938021336334]",100.0,"[0.0374492563278279,-0.16234445903729564]",100.0,"[-0.15138710721944923,-0.061661687385085734]",100.0,"[0.19309971245511762,0.03565719083596557]",100.0,"[0.16201131501091756,-0.1115231266389666]",4.0,"[-0.10403067060334939,-0.04652283261176221]",100.0,"[0.029247411678257642,0.08330224793576138]",4.0,"[-0.012358408958044128,0.10362111406189761]",4.0,"[0.15443592540602188,0.1199723825347032]",4.0,"[-0.060566516004406074,0.15163813639906176]",4.0,"[0.020952928094908292,-0.10652552224871965]",4.0,"[0.1066108785253791,0.10821069234513497]",100.0,"[-0.1616422320180179,0.11412215842870069]",4.0,"[0.098886333660051,-0.003627169202202394]",4.0,"[-0.18068643022366673,0.07187583659062866]",4.0,"[-0.1945378294983008,0.022930159482446165]",100.0,"[-0.0428135461061262,0.04002469373992613]",4.0,"[0.06992954769325707,0.15570285341376042]",100.0,"[-0.08610613260549477,0.11977432234766713]",100.0,"[-0.11361256336800514,-0.13692305419785872]",100.0,"[0.048419455812693336,0.01851595433770715]",4.0,"[0.0066281779850962536,-0.19949733646704185]",4.0,"[0.07970472621469228,-0.16063246025382044]",100.0,"[0.02,0.02]",207.3446,0.0,48.0,48.0,140.0,1.0,,,,,,,
,,,,,,,66826c4a2d42c713e9c7475d,684429150c78fcbafbee02e6,2025-06-07_13h58.01.171,shape_ratio,2024.1.5,Win32,59.88023952,684250e4f00cb30b92d1fa88,,,,,,,,,,,207.3449,207.8451,,,208.0957,208.6796,right,0.5673,,,,,,,,,0.55,,,,,,207.8452,208.0957,208.6796,"[-0.19776122019014408,-0.028487048898061147]",100.0,"[-0.12590522678950572,0.024771915917452546]",100.0,"[0.130847363515363,-0.0997401430905634]",100.0,"[0.0431410007487644,0.16972430022090346]",4.0,"[0.053111580177984355,-0.15560893496931694]",4.0,"[0.10566148538295919,-0.04164614940741714]",4.0,"[-0.05900734676223122,-0.01571087561809019]",100.0,"[-0.02426878626609587,-0.12466188490056843]",100.0,"[0.16711109843923752,-0.021128955801319377]",100.0,"[-0.03279558560995809,0.1536097490986448]",100.0,"[-0.041990710802568935,0.09346697824769738]",4.0,"[0.06597240464782796,0.10209864350621575]",100.0,"[-0.13062330992459634,0.10889437956070383]",4.0,"[0.06468377448996276,-0.049068378513068875]",4.0,"[-0.10115855503539188,-0.14513117185435967]",100.0,"[0.052497629229377625,0.029186980890328375]",100.0,"[0.10834811325659398,0.11909970539901814]",100.0,"[-0.0012782456018284405,0.19435624672178442]",100.0,"[0.11871040165513418,0.03981364847074188]",100.0,"[-0.10644619507145232,0.14691472354267127]",100.0,"[-0.18522805362995282,-0.07295772745345999]",4.0,"[-0.07267174382133723,-0.07615747530372978]",4.0,"[-0.012933948126419325,0.03873015448696265]",4.0,"[-0.17408118292033012,0.02181726949812129]",4.0,"[0.08086902094813776,-0.10044154602725058]",100.0,"[-0.12625969232926823,-0.06269431880072135]",100.0,"[0.08157094648657204,0.1812856405668097]",4.0,"[0.026094755132680603,-0.08208547514502074]",100.0,"[0.008096398028536908,0.10924373984537743]",4.0,"[0.0010111643110535412,-0.18486398925284306]",4.0,"[0.1478706917691929,0.08024569373330014]",4.0,"[0.010371742774502127,-0.03699560797250725]",100.0,"[0.02,0.02]",209.7804,0.0,49.0,49.0,78.0,1.0,,,,,,,
