right,left,explain.started,explain.stopped,key_resp_3.keys,key_resp_3.rt,key_resp_3.duration,participant,session,date,expName,psychopyVersion,OS,frameRate,study_id,explain_2.started,explain_2.stopped,key_resp_4.keys,key_resp_4.rt,key_resp_4.duration,explain_3.started,explain_3.stopped,key_resp_5.keys,key_resp_5.rt,key_resp_5.duration,fixation.started,fixation.stopped,practice.started,practice.stopped,response.started,response.stopped,key_resp.keys,feedback.started,feedback.stopped,trials_2.thisRepN,trials_2.thisTrialN,trials_2.thisN,trials_2.thisIndex,trials_2.ran,dot_ratio,key_resp.rt,key_resp.duration,explain_4.started,explain_4.stopped,key_resp_6.keys,key_resp_6.rt,key_resp_6.duration,dotDisplay.started,dotDisplay.stopped,ITI.started,polygon_1.pos,polygon_1.edges,polygon_2.pos,polygon_2.edges,polygon_3.pos,polygon_3.edges,polygon_4.pos,polygon_4.edges,polygon_5.pos,polygon_5.edges,polygon_6.pos,polygon_6.edges,polygon_7.pos,polygon_7.edges,polygon_8.pos,polygon_8.edges,polygon_9.pos,polygon_9.edges,polygon_10.pos,polygon_10.edges,polygon_11.pos,polygon_11.edges,polygon_12.pos,polygon_12.edges,polygon_13.pos,polygon_13.edges,polygon_14.pos,polygon_14.edges,polygon_15.pos,polygon_15.edges,polygon_16.pos,polygon_16.edges,polygon_17.pos,polygon_17.edges,polygon_18.pos,polygon_18.edges,polygon_19.pos,polygon_19.edges,polygon_20.pos,polygon_20.edges,polygon_21.pos,polygon_21.edges,polygon_22.pos,polygon_22.edges,polygon_23.pos,polygon_23.edges,polygon_24.pos,polygon_24.edges,polygon_25.pos,polygon_25.edges,polygon_26.pos,polygon_26.edges,polygon_27.pos,polygon_27.edges,polygon_28.pos,polygon_28.edges,polygon_29.pos,polygon_29.edges,polygon_30.pos,polygon_30.edges,polygon_31.pos,polygon_31.edges,polygon_32.pos,polygon_32.edges,dot_size,ITI.stopped,trials.thisRepN,trials.thisTrialN,trials.thisN,trials.thisIndex,trials.ran,break_2.started,break_2.stopped,trials_3.thisRepN,trials_3.thisTrialN,trials_3.thisN,trials_3.thisIndex,trials_3.ran
subject chose diamond,subject chose dot,0.0007,40.1832,space,25.1587,,6691fe909352702ee451b38e,684428c773935a8d5b9b876a,2025-06-07_13h57.47.211,shape_ratio,2024.1.5,Win32,59.88023952,684250e4f00cb30b92d1fa88,,,,,,,,,,,,,,,,,,,,,,,,,,,,,,,,,,,,,,,,,,,,,,,,,,,,,,,,,,,,,,,,,,,,,,,,,,,,,,,,,,,,,,,,,,,,,,,,,,,,,,,,,,,,,,,,,
,,,,,,,6691fe909352702ee451b38e,684428c773935a8d5b9b876a,2025-06-07_13h57.47.211,shape_ratio,2024.1.5,Win32,59.88023952,684250e4f00cb30b92d1fa88,40.1838,75.7966,space,5.607,,,,,,,,,,,,,,,,,,,,,,,,,,,,,,,,,,,,,,,,,,,,,,,,,,,,,,,,,,,,,,,,,,,,,,,,,,,,,,,,,,,,,,,,,,,,,,,,,,,,,,,,,,,,,
,,,,,,,6691fe909352702ee451b38e,684428c773935a8d5b9b876a,2025-06-07_13h57.47.211,shape_ratio,2024.1.5,Win32,59.88023952,684250e4f00cb30b92d1fa88,,,,,,75.797,80.4547,space,1.6393,,,,,,,,,,,,,,,,,,,,,,,,,,,,,,,,,,,,,,,,,,,,,,,,,,,,,,,,,,,,,,,,,,,,,,,,,,,,,,,,,,,,,,,,,,,,,,,,,,,,,,,,
,,,,,,,6691fe909352702ee451b38e,684428c773935a8d5b9b876a,2025-06-07_13h57.47.211,shape_ratio,2024.1.5,Win32,59.88023952,684250e4f00cb30b92d1fa88,,,,,,,,,,,80.5139,80.9655,80.9662,81.2347,81.2349,82.7103,,82.7114,83.8091,0.0,0.0,0.0,0.0,1.0,0.2,,,,,,,,,,,,,,,,,,,,,,,,,,,,,,,,,,,,,,,,,,,,,,,,,,,,,,,,,,,,,,,,,,,,,,,,,,,,,,,,,,,,,,,,
,,,,,,,6691fe909352702ee451b38e,684428c773935a8d5b9b876a,2025-06-07_13h57.47.211,shape_ratio,2024.1.5,Win32,59.88023952,684250e4f00cb30b92d1fa88,,,,,,,,,,,83.8111,84.3091,84.3094,84.5603,84.5603,85.0463,left,85.0467,86.1439,0.0,1.0,1.0,1.0,1.0,0.8,0.4722,,,,,,,,,,,,,,,,,,,,,,,,,,,,,,,,,,,,,,,,,,,,,,,,,,,,,,,,,,,,,,,,,,,,,,,,,,,,,,,,,,,,,,,
,,,,,,,6691fe909352702ee451b38e,684428c773935a8d5b9b876a,2025-06-07_13h57.47.211,shape_ratio,2024.1.5,Win32,59.88023952,684250e4f00cb30b92d1fa88,,,,,,,,,,,,,,,,,,,,,,,,,,,,86.146,90.7132,space,1.5512,,,,,,,,,,,,,,,,,,,,,,,,,,,,,,,,,,,,,,,,,,,,,,,,,,,,,,,,,,,,,,,,,,,,,,,,,,,,,,,,,,
,,,,,,,6691fe909352702ee451b38e,684428c773935a8d5b9b876a,2025-06-07_13h57.47.211,shape_ratio,2024.1.5,Win32,59.88023952,684250e4f00cb30b92d1fa88,,,,,,,,,,,90.7588,91.2252,,,91.477,91.8622,left,,,,,,,,0.9,0.3708,,,,,,,91.2265,91.477,91.8631,"[-0.1286563733477351,0.10600600535323358]",100.0,"[0.02488777999377094,-0.179767876932166]",100.0,"[0.15327469226446314,-0.04472096387143637]",100.0,"[0.05391173492864692,0.00679860483109826]",100.0,"[0.12650389391231212,0.08395870372058233]",100.0,"[0.009647757637602943,-0.09426371285087598]",100.0,"[-0.016307598355302832,0.027616932328960186]",100.0,"[-0.10305759115082094,0.14396010827543224]",100.0,"[-0.1294336136618241,0.015732447233023073]",100.0,"[0.01092967417068034,0.16880546349878145]",100.0,"[0.12146322076412523,0.008933447954099304]",100.0,"[-0.07912514923691805,-0.08205225069975298]",100.0,"[-0.06759253592921063,-0.1721628748002708]",100.0,"[-0.02662868091739562,-0.047165958172504664]",100.0,"[0.13007722561643173,-0.13329064685463804]",100.0,"[-0.12307272636177956,-0.10463028531734686]",100.0,"[0.057021837627404585,0.13443464906007546]",100.0,"[-0.0735664790533901,-0.014791478523041617]",100.0,"[0.08352100067246752,0.0786875883161888]",100.0,"[-0.1286389575834747,-0.04732410022684241]",100.0,"[-0.17710758457119982,-0.09007451193176265]",100.0,"[0.01288902899048867,0.09799455348001573]",100.0,"[-0.06129311881405466,-0.12068166115391354]",100.0,"[-0.1843413822355895,0.04981809094547331]",100.0,"[0.04471695049257138,-0.04261792470860359]",100.0,"[0.004638743962787662,-0.021790514939954198]",100.0,"[0.05221223179586802,-0.1432359690460542]",4.0,"[-0.09240247654391093,0.08650966449149074]",4.0,"[0.18102537593433699,0.020677090057717774]",100.0,"[-0.1982215115882214,-0.025941419021209843]",100.0,"[-0.04048035645465843,0.10226504012757051]",100.0,"[0.09254782324136795,0.17190624054780762]",4.0,"[0.02,0.02]",92.9595,0.0,0.0,0.0,24.0,1.0,,,,,,,
,,,,,,,6691fe909352702ee451b38e,684428c773935a8d5b9b876a,2025-06-07_13h57.47.211,shape_ratio,2024.1.5,Win32,59.88023952,684250e4f00cb30b92d1fa88,,,,,,,,,,,92.9605,93.4592,,,93.7115,94.0468,right,,,,,,,,0.9,0.313,,,,,,,93.4592,93.7112,94.0469,"[0.08465938177691118,0.13489808481203916]",100.0,"[0.11885405952649693,0.07030831574561426]",100.0,"[-0.04409577314245972,-0.12492236750318944]",100.0,"[0.0449646573046599,0.03750737095776444]",4.0,"[0.020727119826557654,-0.1804580536463652]",100.0,"[0.023865101360103065,-0.02049527987793619]",100.0,"[-0.059412527864195264,-0.05432145564798959]",100.0,"[0.1128800002198933,-0.0755328896617172]",100.0,"[-0.07300883796214433,0.14681501305543665]",4.0,"[0.17062708708386587,0.004310148265393936]",100.0,"[-0.11148481858881529,-0.14976409051518622]",100.0,"[0.006173956941087225,0.18393769711348454]",100.0,"[0.02826049861885384,0.1359786432784115]",100.0,"[0.19663098079572217,-0.03463853483488616]",100.0,"[-0.08374262236873072,0.007872026781522287]",100.0,"[0.13787515876751028,-0.026715696794350548]",100.0,"[0.08611330777188728,-0.13151544624760642]",100.0,"[0.06657250242854201,-0.003062534214350653]",100.0,"[-0.05950083603345014,0.06312518077658363]",100.0,"[-0.1552051530314547,0.09037591891619814]",100.0,"[-0.016746911808343697,-0.05028306848564643]",100.0,"[-0.024058594961390473,0.09471735281181023]",100.0,"[0.0024714435946339964,0.06352981861903444]",100.0,"[-0.10475101353698876,0.06851675675726462]",100.0,"[-0.1249173660623655,-0.046745133149012845]",100.0,"[-0.0637353253409967,-0.1699915491522976]",4.0,"[0.08026116191785092,0.058077666794585446]",100.0,"[-0.15047599210161047,-0.13073878255777224]",100.0,"[-0.15707716126865523,-0.08176086550910647]",100.0,"[0.054734498604880166,-0.05926724541270919]",100.0,"[0.007327576714307136,-0.12194312379505833]",100.0,"[0.051986807884025835,0.17972247090390955]",100.0,"[0.02,0.02]",95.1421,0.0,1.0,1.0,11.0,1.0,,,,,,,
,,,,,,,6691fe909352702ee451b38e,684428c773935a8d5b9b876a,2025-06-07_13h57.47.211,shape_ratio,2024.1.5,Win32,59.88023952,684250e4f00cb30b92d1fa88,,,,,,,,,,,95.1429,95.642,,,95.8932,96.1524,left,,,,,,,,0.45,0.2458,,,,,,,95.642,95.8931,96.1525,"[-0.11987838304118406,0.08746689233574205]",100.0,"[0.12363105196292654,0.08875308681050509]",100.0,"[0.10889010606453035,-0.13655823102756676]",4.0,"[-0.1296089713979258,0.04829418240356103]",4.0,"[0.05370056990288501,0.09245947587520852]",100.0,"[0.06670079541679334,-0.07441041797735373]",4.0,"[-0.13427878513704714,-0.12083590751943507]",100.0,"[-0.08896546925401787,0.11455283419818174]",4.0,"[-0.022381050935959382,0.13641427986390164]",4.0,"[-0.05120407316735633,-0.0511155531429328]",4.0,"[0.1073851957863465,-0.004520556233633249]",100.0,"[0.06827607913550071,0.14297683126425664]",4.0,"[0.010057903285413833,0.10510118381346119]",4.0,"[-0.012802143076343343,0.029411417264573272]",100.0,"[0.026185597510645066,0.0182927620225808]",4.0,"[-0.02318184975513388,-0.10895012769452841]",4.0,"[-0.08166665476132179,0.16890993848315713]",100.0,"[0.12514716193496087,0.15291637812316417]",100.0,"[0.020944715019288962,-0.15560324869949782]",4.0,"[0.040573863247443116,-0.04093034783897153]",100.0,"[-0.01855325036665546,-0.18334854249696309]",4.0,"[0.16245296903621323,-0.08821616050551553]",100.0,"[0.1523310093679761,-0.023208900361881998]",4.0,"[-0.06585021496630271,0.028432357859981706]",4.0,"[0.014336225764240337,-0.0714708800791663]",100.0,"[-0.04767830497996539,-0.14412783471876012]",100.0,"[-0.114413003996967,-0.07638210585416866]",100.0,"[0.11360793870281599,-0.06627583330465464]",4.0,"[-0.13547074473816284,-0.010496233879410293]",4.0,"[0.17981855383366763,0.03791972205613172]",100.0,"[-0.10572893135633776,-0.15952322941128957]",4.0,"[0.01895807115400472,0.15334969593101266]",4.0,"[0.02,0.02]",97.243,0.0,2.0,2.0,137.0,1.0,,,,,,,
,,,,,,,6691fe909352702ee451b38e,684428c773935a8d5b9b876a,2025-06-07_13h57.47.211,shape_ratio,2024.1.5,Win32,59.88023952,684250e4f00cb30b92d1fa88,,,,,,,,,,,97.2439,97.7432,,,97.995,98.272,right,,,,,,,,0.6,0.255,,,,,,,97.7432,97.995,98.2721,"[0.029313508248781598,-0.060220867980569796]",4.0,"[0.01564761645297022,-0.10747502227494068]",4.0,"[-0.04325802806708187,-0.15550072303764426]",4.0,"[0.07120578220806353,0.05777643873210465]",100.0,"[-0.07087372586262336,-0.0268656553098896]",100.0,"[-0.011217780623463743,0.015139929985532073]",100.0,"[0.15749543766071517,0.06851873894617753]",100.0,"[0.11746133179109958,-0.040293038704830975]",100.0,"[0.04363414442208913,0.12409881249618412]",100.0,"[-0.07773482157313467,-0.13276609955184626]",100.0,"[0.16355529884000594,0.02639281481449017]",4.0,"[0.1760214897115071,-0.02258699345066561]",4.0,"[0.03196073243373247,0.0009234645622085091]",100.0,"[-0.011092964561413355,-0.04682994931482894]",100.0,"[0.07542329244681156,-0.04892332693672271]",100.0,"[0.11144026231223111,0.04309301862610627]",100.0,"[0.11727745419521886,-0.1486780887781276]",100.0,"[-0.16922002241969616,-0.038006226954378004]",4.0,"[0.11535807759973327,0.1408396716490167]",4.0,"[-0.055605110384428516,0.1834046220779387]",4.0,"[-0.019911943112647868,0.12830260015189157]",100.0,"[-0.10635304089442119,0.11056071944303215]",100.0,"[0.055126750092614855,-0.13484094258425208]",100.0,"[-0.07979392736812886,0.030637516732609643]",100.0,"[0.1725968454196798,-0.09624903658600406]",100.0,"[0.08939071447109177,-0.17805392150202276]",100.0,"[-0.09792918255884114,-0.07066073142777989]",4.0,"[-0.09778425294673534,0.07112493367789517]",4.0,"[-0.09771012466066646,0.16864499915118822]",4.0,"[-0.13320090078849284,0.03342984611148628]",4.0,"[-0.02759999376820683,-0.10433633570230065]",4.0,"[0.009360134119565162,0.06283154689796677]",100.0,"[0.02,0.02]",99.3752,0.0,3.0,3.0,58.0,1.0,,,,,,,
,,,,,,,6691fe909352702ee451b38e,684428c773935a8d5b9b876a,2025-06-07_13h57.47.211,shape_ratio,2024.1.5,Win32,59.88023952,684250e4f00cb30b92d1fa88,,,,,,,,,,,99.3762,99.8752,,,100.1265,100.438,right,,,,,,,,0.1,0.2951,,,,,,,99.8752,100.1264,100.4383,"[0.15260571944105006,-0.03483980799943818]",4.0,"[0.06955192789389684,-0.040662198794442134]",4.0,"[-0.10824444790600654,-0.04972515166233254]",4.0,"[-0.11124388354077729,-0.13126626736811936]",4.0,"[-0.14999513625752867,0.0043817908145209255]",4.0,"[-0.1020490418362737,0.15728483469825177]",4.0,"[-0.07138040178314248,-0.11265590821151669]",100.0,"[0.17936235561295305,-0.06912200157411112]",4.0,"[-0.024577292306220345,0.15941557342588478]",4.0,"[-0.10108690152315887,0.06811350337358625]",4.0,"[0.09986218551897902,0.15883428401157726]",4.0,"[-0.12182154204231395,-0.09237159673239502]",4.0,"[0.12097129790306105,-0.11397176803855673]",4.0,"[-0.06372205188468429,-0.012103613751950779]",4.0,"[0.024261936970667086,0.021021233225533138]",4.0,"[-0.1753718517321512,0.09406535366137968]",4.0,"[0.003324878817524889,-0.1794110978084107]",4.0,"[0.11167539685190975,0.057480491674003736]",4.0,"[0.11114325065309764,-0.014014026612910487]",4.0,"[-0.13273720417725943,0.11456349004042257]",4.0,"[-0.015601243706040529,0.03136456791519986]",4.0,"[0.0062362399476676,-0.06397752817272784]",4.0,"[0.17173016046269374,0.04984336063976863]",4.0,"[0.0784049541558202,-0.15084853248792593]",4.0,"[-0.050671162580136826,0.09947225184383188]",4.0,"[-0.1722351465380717,-0.06396634272248691]",4.0,"[0.057402469894354234,-0.10549445080594934]",4.0,"[0.06829295554049063,0.0059466320841197245]",4.0,"[-0.1960135739900012,0.03044533185522243]",100.0,"[-0.07029991768293882,-0.15468718286765845]",4.0,"[-0.05661461575692662,-0.07188248236813397]",100.0,"[-0.06270001906764354,0.03316877610965467]",4.0,"[0.02,0.02]",101.5269,0.0,4.0,4.0,194.0,1.0,,,,,,,
,,,,,,,6691fe909352702ee451b38e,684428c773935a8d5b9b876a,2025-06-07_13h57.47.211,shape_ratio,2024.1.5,Win32,59.88023952,684250e4f00cb30b92d1fa88,,,,,,,,,,,101.5277,102.0286,,,102.2875,102.7257,left,,,,,,,,0.9,0.4221,,,,,,,102.0288,102.2874,102.7257,"[0.1026645892121724,-0.027840656185250737]",100.0,"[-0.10876977488893275,-0.01929779361590191]",100.0,"[0.037989405417522125,-0.14054329757655834]",100.0,"[0.17756176177410019,0.03900283558630562]",100.0,"[0.007843135165924301,0.09769684988721923]",100.0,"[0.16287955560346037,-0.11020396854171549]",100.0,"[-0.03433236396862729,-0.07932256543848222]",100.0,"[0.11111614348372122,0.11435982732792829]",100.0,"[-0.1730620188527072,-0.06634440139903627]",100.0,"[0.0757116450338647,-0.08965429950419893]",100.0,"[0.1290590752634634,0.004104001838197737]",100.0,"[-0.11021693724558872,0.038580595746554584]",100.0,"[0.011222654167357866,-0.18185258425033565]",100.0,"[-0.021342975365341604,0.03304990449011897]",100.0,"[0.14014031155887824,-0.05270559653091319]",100.0,"[0.1290444404853325,0.05371583939058552]",100.0,"[0.025662396820951033,0.16495044197168302]",100.0,"[-0.038568568973509895,0.1895723194798301]",100.0,"[-0.05202830117995414,0.12338631823078602]",100.0,"[-0.06372493805831217,-0.04893582515627483]",4.0,"[-0.11868769285849974,-0.1587405088510859]",100.0,"[-0.1897789627989857,0.02867987987357025]",100.0,"[0.047750434047705466,-0.055240094574464445]",100.0,"[-0.04849565107063528,0.082158929344957]",4.0,"[0.028809948540784048,0.06112931152245383]",100.0,"[-0.09852916670506474,0.16841506575537996]",100.0,"[0.17672139795718567,-0.012793136440173642]",100.0,"[-0.05325318192406105,-0.11556694308546236]",100.0,"[0.0561673526478482,0.01237987480498365]",100.0,"[0.11260417679473914,-0.1577940631679812]",100.0,"[-0.02855761260198566,-0.1772847228577788]",100.0,"[0.1067032600551459,0.16035710446453105]",4.0,"[0.02,0.02]",103.8153,0.0,5.0,5.0,27.0,1.0,,,,,,,
,,,,,,,6691fe909352702ee451b38e,684428c773935a8d5b9b876a,2025-06-07_13h57.47.211,shape_ratio,2024.1.5,Win32,59.88023952,684250e4f00cb30b92d1fa88,,,,,,,,,,,103.8168,104.3227,,,104.5921,104.8401,right,,,,,,,,0.1,0.2349,,,,,,,104.3228,104.592,104.8403,"[0.010257398378497682,-0.09662331668185306]",4.0,"[-0.011141399230927393,-0.041408371323977684]",4.0,"[-0.1321519839938706,-0.1438957675706707]",4.0,"[-0.07785251246334937,-0.14405679379763492]",100.0,"[0.19830287813723052,0.0012252996761626573]",4.0,"[-0.08968821565917325,0.005899820168518956]",4.0,"[0.06724970036441437,-0.06966391951649202]",4.0,"[0.1529896078737156,-0.05676970570128551]",4.0,"[0.0575256647428233,0.1227050917282906]",4.0,"[0.13269541739033702,0.14909101566273097]",4.0,"[0.11625417741444853,0.024527643991417734]",4.0,"[-0.03128641070217441,-0.15160118119819802]",4.0,"[0.11601850396462822,-0.13889408814151924]",4.0,"[0.0527553189263886,0.030948309062764818]",4.0,"[-0.1252430184507348,-0.023412441602659217]",4.0,"[-0.19195362545832875,-0.021803498723531694]",4.0,"[0.03017741338311155,0.15921993584024843]",4.0,"[-0.05747872975184067,0.0706474405838232]",4.0,"[0.1542718463931391,-0.011748336791387495]",4.0,"[-0.138439750079271,0.1332965487967351]",4.0,"[-0.053244024876914306,-0.03158417112132556]",4.0,"[-0.08654863086286471,-0.07017229619703613]",4.0,"[-0.0852787320495621,0.1488453060863809]",4.0,"[-0.03303179469421511,-0.10431545091878804]",100.0,"[-0.12927660818083486,0.03212378542777474]",4.0,"[0.02586019621394055,-0.18692027040568257]",4.0,"[0.0820537945010976,0.08006355458485231]",4.0,"[0.005022474081718523,0.030038163178372174]",4.0,"[0.03753513107709946,0.07556013888165747]",4.0,"[-0.05435564632933687,0.028350926598683285]",100.0,"[-0.1633673977942643,0.07680501856872822]",4.0,"[0.12941144379126734,-0.09764377789957245]",4.0,"[0.02,0.02]",105.9252,0.0,6.0,6.0,189.0,1.0,,,,,,,
,,,,,,,6691fe909352702ee451b38e,684428c773935a8d5b9b876a,2025-06-07_13h57.47.211,shape_ratio,2024.1.5,Win32,59.88023952,684250e4f00cb30b92d1fa88,,,,,,,,,,,105.9266,106.4219,,,106.6767,107.3401,left,,,,,,,,0.45,0.6378,,,,,,,106.4228,106.6765,107.3402,"[-0.09631768451385615,-0.16727070508078223]",100.0,"[0.015702886769360054,-0.0009631893120199288]",100.0,"[0.061758689558725294,0.11231679503519305]",100.0,"[-0.12065848729800104,0.15215616484767308]",4.0,"[0.18055399471314468,-0.05215137429270481]",4.0,"[-0.10073385044172578,0.0815240773872892]",4.0,"[-0.1563770451250895,-0.031432917810900955]",100.0,"[-0.09523372911172087,-0.09672712523691154]",4.0,"[-0.16243264796785978,0.10263292804844297]",100.0,"[0.10471008168775199,-0.034891659432874485]",100.0,"[-0.18027220982393263,0.06566492072990511]",100.0,"[0.0627890507487257,-0.003729022534565734]",4.0,"[0.1044905705412031,0.14960717677701701]",100.0,"[0.11272554222122806,0.08699871249955334]",4.0,"[-0.009565594709801561,-0.1462726661072127]",4.0,"[-0.13298896185364437,0.038568276252985145]",100.0,"[-0.08913344699844025,0.006313732911339764]",4.0,"[-0.019888240879246493,-0.06961053866286562]",4.0,"[-0.012262009369243782,-0.1954552121980049]",4.0,"[-0.03914591072947354,0.1386435679538544]",100.0,"[0.09232293482563006,-0.14284518982971747]",100.0,"[-0.05837548370744198,-0.18579968742640682]",4.0,"[0.02327175533378298,0.19249100487414003]",100.0,"[-0.13170881987431304,-0.12490217779864941]",4.0,"[-0.03418916168521107,0.1860159006132358]",4.0,"[0.15202556430637146,-0.012432159714502736]",4.0,"[-0.007970405065615922,0.0731672574177744]",4.0,"[0.1442419175567282,-0.13376041508443906]",4.0,"[0.019827527638735312,-0.10069322465380649]",100.0,"[-0.05712550705166359,-0.05308118404286364]",4.0,"[-0.03439645160975323,0.01036284530473186]",4.0,"[0.17692890037916706,0.04848381028615145]",100.0,"[0.02,0.02]",108.4349,0.0,7.0,7.0,124.0,1.0,,,,,,,
,,,,,,,6691fe909352702ee451b38e,684428c773935a8d5b9b876a,2025-06-07_13h57.47.211,shape_ratio,2024.1.5,Win32,59.88023952,684250e4f00cb30b92d1fa88,,,,,,,,,,,108.4357,108.9307,,,109.177,109.6165,left,,,,,,,,0.9,0.4171,,,,,,,108.9309,109.1769,109.6166,"[-0.07146395651620308,0.08504338693113787]",100.0,"[-0.1807887845327406,-0.04013758541082339]",100.0,"[0.17052440007305125,0.037328810424881884]",100.0,"[0.11984851466152002,-0.11754888760837065]",4.0,"[-0.13062149735062828,-0.1312168432032314]",100.0,"[-0.10844846512842996,0.13030420525947128]",100.0,"[-0.004274916597045434,0.0998706193440842]",100.0,"[-0.17933660361072598,-0.08661527188074061]",100.0,"[-0.018564322943795716,-0.18181250165522322]",100.0,"[-0.07135042445977666,-0.13370892522105232]",4.0,"[0.06914301573827598,-0.11533759123064201]",100.0,"[-0.1644482510084452,0.06279192751789842]",100.0,"[0.010167239073483771,-0.08659696256063905]",100.0,"[0.1664352824928382,-0.051057723069980195]",100.0,"[-0.14988526960935833,-0.004331190711079092]",100.0,"[-0.05114006332710298,0.18382808542188503]",100.0,"[0.07314209658574336,-0.06599956856936603]",100.0,"[0.019252640639431256,-0.04358598101257918]",100.0,"[0.046691073971973994,-0.18681723956715038]",100.0,"[0.0916761821296277,0.03422195642360296]",100.0,"[0.10269669958894163,-0.01809720705720568]",100.0,"[-0.04687381327995547,-0.09221494717704502]",100.0,"[0.007097957838670664,0.16222868122738276]",100.0,"[-0.08803714814129258,-0.019524865317959605]",100.0,"[0.07316708124371861,0.1201390954399635]",100.0,"[-0.04756757656301148,0.012291215717806737]",100.0,"[0.03003191975547743,0.07607512232442266]",100.0,"[0.07017364509245776,0.17215015650823987]",100.0,"[0.03257827738037172,0.030227703039619983]",100.0,"[-0.045920408905274414,0.13355928629417338]",100.0,"[-0.05820250613109942,-0.04707474907659299]",4.0,"[-0.09599525935133515,-0.17236163349800082]",100.0,"[0.02,0.02]",110.7186,0.0,8.0,8.0,25.0,1.0,,,,,,,
,,,,,,,6691fe909352702ee451b38e,684428c773935a8d5b9b876a,2025-06-07_13h57.47.211,shape_ratio,2024.1.5,Win32,59.88023952,684250e4f00cb30b92d1fa88,,,,,,,,,,,110.72,111.2155,,,111.4604,111.8767,right,,,,,,,,0.1,0.401,,,,,,,111.2155,111.4604,111.8768,"[0.03386274043973367,0.008207207912184902]",4.0,"[0.1635635430183057,-0.03459795891722124]",4.0,"[0.09908215483628081,-0.02149653000887686]",4.0,"[-0.030999648299665877,-0.08396103044290544]",4.0,"[0.0682356853100071,0.1378180956796437]",4.0,"[0.046102485705341506,0.19262146808052405]",4.0,"[0.021489462105223123,-0.14040208658253617]",4.0,"[0.18669098326876166,0.028313832894673648]",4.0,"[0.03321354649330827,-0.19164941289774642]",100.0,"[0.10155992002803443,-0.15901705980859066]",4.0,"[-0.1103682442023563,0.06455344764628289]",4.0,"[0.1825687721262544,-0.07349013536637297]",4.0,"[-0.0028843452909854874,-0.033467274756516875]",4.0,"[-0.107347299912361,-0.04659553196745395]",4.0,"[-0.033091104949430954,0.1445950539583753]",4.0,"[0.10149115952700274,0.16042089630126094]",4.0,"[-0.13463717442279405,0.0111201517646467]",4.0,"[0.054598546868164226,0.09375188125329328]",4.0,"[0.1504935972429685,0.10202442814440514]",4.0,"[-0.11097696078718698,0.14173695827026123]",4.0,"[-0.08990889327843,-0.1553305099357554]",4.0,"[-0.14256204015201301,-0.11698651745951728]",100.0,"[-0.06566479067158934,0.1783051242014283]",4.0,"[-0.0431740757520931,-0.14471283780409575]",4.0,"[0.00242469040140172,0.08964993070431175]",100.0,"[-0.1888224248302346,-0.06164394475880352]",4.0,"[-0.07147741636266548,0.09640726816233926]",4.0,"[0.06362994655391957,-0.13915196687815204]",4.0,"[0.005125566339863926,0.04603618413613275]",4.0,"[0.018160557541614657,-0.06958579478119624]",4.0,"[-0.1617034501041368,0.05681387166903115]",4.0,"[-0.021414546251536222,-0.19844962283159487]",4.0,"[0.02,0.02]",112.9755,0.0,9.0,9.0,201.0,1.0,,,,,,,
,,,,,,,6691fe909352702ee451b38e,684428c773935a8d5b9b876a,2025-06-07_13h57.47.211,shape_ratio,2024.1.5,Win32,59.88023952,684250e4f00cb30b92d1fa88,,,,,,,,,,,112.977,113.4746,,,113.7266,113.9681,right,,,,,,,,0.1,0.2257,,,,,,,113.4748,113.7265,113.9681,"[0.06257563102693263,0.12974405444203763]",4.0,"[-0.017253863606181745,-0.06986866880675638]",4.0,"[0.004661711563468134,-0.13746947852399294]",4.0,"[0.10159261896017331,0.10720363558038559]",4.0,"[0.1153086480643106,-0.05387071491339164]",4.0,"[0.018241245499348416,-0.028343141851153653]",4.0,"[0.12526220694934015,-0.1481174836361783]",4.0,"[-0.057294922439873996,-0.15136245823337482]",4.0,"[0.1559571081117049,0.00957840900867745]",100.0,"[0.14201148363729524,0.14068320979612475]",4.0,"[-0.05943296478190702,-0.021486190012069497]",4.0,"[-0.13692634252328012,-0.1377692983357853]",4.0,"[-0.13348229454002147,0.1361045483698834]",100.0,"[0.03264942976322827,0.08661250410352452]",4.0,"[-0.035147327050884795,0.13219940486238949]",4.0,"[0.0037258002689893334,0.02087481654622633]",4.0,"[-0.12122097153568209,0.03398692473749467]",4.0,"[0.08242052259161096,-0.027972918065773213]",4.0,"[-0.12758825486860298,-0.04287699228629056]",4.0,"[-0.0036692205723135338,0.18076013560657173]",4.0,"[-0.025266400042944115,0.08794281078114437]",4.0,"[-0.12904222795779507,0.09326967402214018]",4.0,"[-0.07561702075007148,0.09224027440740111]",4.0,"[0.08425626067754537,0.025439580188609156]",4.0,"[0.17394144565735287,0.09538865748307684]",4.0,"[0.15762590954033828,-0.1062814479156955]",4.0,"[0.04104008817075938,-0.11424446536869506]",100.0,"[0.09121981569336374,-0.10480486436662559]",4.0,"[0.12170735124581511,0.04196854540138511]",4.0,"[0.17798176228681858,-0.05730115721544076]",4.0,"[-0.15975600288224423,-0.004341215606103646]",4.0,"[0.10189466874698977,0.14780817725061463]",4.0,"[0.02,0.02]",115.0595,0.0,10.0,10.0,185.0,1.0,,,,,,,
,,,,,,,6691fe909352702ee451b38e,684428c773935a8d5b9b876a,2025-06-07_13h57.47.211,shape_ratio,2024.1.5,Win32,59.88023952,684250e4f00cb30b92d1fa88,,,,,,,,,,,115.0605,115.559,,,115.8121,116.1152,right,,,,,,,,0.5,0.2895,,,,,,,115.5592,115.812,116.1156,"[0.12866126890856283,-0.04960334299643047]",4.0,"[0.05043186343420024,0.05327064391660298]",100.0,"[0.04600529040520505,-0.18922693971797783]",4.0,"[0.12652967622924546,0.07749787711282846]",100.0,"[0.006026450550463245,-0.08353892169607759]",4.0,"[0.00349242644342409,-0.13828660641806614]",4.0,"[-0.047071278203619456,0.0841431200814085]",4.0,"[0.0698464015646403,0.0012365794001810116]",4.0,"[-0.08097644316197135,-0.0062075059164204615]",100.0,"[0.161080245944798,-0.1138629892835043]",100.0,"[0.13029915865724404,0.12336501416278604]",100.0,"[-0.10511267380180811,-0.07195061719514387]",100.0,"[-0.07512426989716313,-0.12968067944266837]",100.0,"[0.19480593797525164,-0.027179004088351246]",4.0,"[-0.1374675227894616,-0.14159071271873805]",100.0,"[-0.1250801176740287,0.05495007961275225]",100.0,"[0.0002569434438245326,0.04259414970253378]",4.0,"[0.010749438286326688,-0.016614197962390748]",4.0,"[0.06370885117028868,-0.12630649706009375]",100.0,"[-0.17083513421872704,-0.0625778529774227]",100.0,"[-0.06187888159900753,0.18768697930401976]",4.0,"[-0.008297722905902725,0.19192057107695568]",4.0,"[-0.02393189947464649,0.13723845166611578]",4.0,"[0.09844938804217271,0.15986225345710514]",100.0,"[0.0759189120563392,-0.053271539633526176]",4.0,"[-0.15727300877444625,0.0893984598627724]",100.0,"[0.18103615929432787,0.0545871583322884]",100.0,"[-0.17265001385235743,-0.020701193307820203]",100.0,"[-0.09021607072421584,0.08652165964852239]",4.0,"[0.03581810190436,0.19344546702669002]",4.0,"[-0.04243951094142681,-0.03690617654371685]",100.0,"[0.12314956388224435,0.01231397971503954]",4.0,"[0.02,0.02]",117.2093,0.0,11.0,11.0,90.0,1.0,,,,,,,
,,,,,,,6691fe909352702ee451b38e,684428c773935a8d5b9b876a,2025-06-07_13h57.47.211,shape_ratio,2024.1.5,Win32,59.88023952,684250e4f00cb30b92d1fa88,,,,,,,,,,,117.21,117.7096,,,117.9679,118.3011,left,,,,,,,,0.45,0.3209,,,,,,,117.7097,117.9677,118.3012,"[-0.10784787131127722,0.11791890626821604]",4.0,"[0.02790817360066529,0.03920262223302962]",4.0,"[-0.04345419957943255,0.045331532853497454]",4.0,"[-0.035912442548224274,0.09437506758067042]",100.0,"[-0.10742500400652587,-0.049805952631041324]",4.0,"[-0.12412366315543616,-0.010965562887934573]",100.0,"[0.037964938113011,-0.1520535145073296]",4.0,"[0.011791963252696751,0.09087690396090937]",4.0,"[-0.023973730484939244,-0.10644942473824398]",4.0,"[-0.0820595263077871,-0.017785746169394365]",100.0,"[0.09779618138627057,-0.17253626002188316]",4.0,"[-0.19038542458030086,-0.03505922387707162]",100.0,"[0.17914291096405083,-0.043548129728428725]",100.0,"[-0.088344176005115,-0.15249973337379888]",4.0,"[-0.02932781203039693,-0.15128144036903746]",4.0,"[-0.022072956203947815,0.1633620376854598]",4.0,"[0.18735926510194786,0.012282054021372934]",100.0,"[0.17778590540086364,0.08162867902163994]",4.0,"[0.12821739614615382,-0.026162016914685886]",100.0,"[0.10572358045465123,0.02056612705964037]",4.0,"[0.010976724995550871,0.1944488139509623]",100.0,"[0.12408178541026102,0.12608959437283462]",100.0,"[0.08619849667378511,-0.0952923084161565]",4.0,"[0.07251419783938257,0.060454082296680325]",100.0,"[-0.10549826531911599,-0.10475809991683625]",100.0,"[-0.13688067846067165,0.068059741098195]",4.0,"[0.11912453506183852,-0.11826902161067403]",100.0,"[0.163834418509054,-0.09401766237308044]",100.0,"[-0.1440848175795535,0.026197903281113332]",4.0,"[0.12433300302957202,-0.07481262379095877]",100.0,"[0.14688759095874396,0.053349693663253164]",4.0,"[0.02264816928366757,-0.07021969793983325]",4.0,"[0.02,0.02]",119.3916,0.0,12.0,12.0,127.0,1.0,,,,,,,
,,,,,,,6691fe909352702ee451b38e,684428c773935a8d5b9b876a,2025-06-07_13h57.47.211,shape_ratio,2024.1.5,Win32,59.88023952,684250e4f00cb30b92d1fa88,,,,,,,,,,,119.3929,119.8848,,,120.1259,120.5429,right,,,,,,,,0.4,0.4009,,,,,,,119.8848,120.1258,120.543,"[0.17135172708460217,0.009615780884737166]",100.0,"[-0.08998368457461829,0.12939178277989094]",4.0,"[-0.06274371464586052,0.010306918582126024]",100.0,"[0.06891250950167657,0.16377191921529716]",100.0,"[-0.051445398088238635,-0.08093044955997696]",4.0,"[0.00552944388559076,0.13215335416620452]",4.0,"[-0.015180450209466916,0.008721055870550127]",100.0,"[0.047089701917321314,0.05546631772391829]",4.0,"[-0.03486961553935217,-0.19521604478822413]",100.0,"[0.046252045710907616,-0.1774798703379675]",4.0,"[-0.12370475800619214,0.0074630884196586495]",4.0,"[0.024162414395439636,-0.13381842505754013]",4.0,"[-0.13624333364504565,0.10698823423307548]",4.0,"[-0.12020706283057837,-0.1426745077733459]",100.0,"[-0.015639585863858715,-0.12263174556528394]",100.0,"[0.001552003039646718,0.06791925954524147]",100.0,"[0.11820845911820609,0.0857095124301541]",100.0,"[-0.09060320978496582,-0.09418934308354719]",4.0,"[0.10740239848231095,0.03483318247373106]",100.0,"[0.14633671626381192,-0.061629165990134384]",100.0,"[0.018088364798613477,-0.04342947835895405]",100.0,"[0.09103724331337691,-0.17723741349617095]",4.0,"[0.17842168727241295,0.07366558895470486]",4.0,"[-0.09355100855935951,0.1722537167318185]",4.0,"[0.015173450636285743,0.1776636295867011]",100.0,"[0.11476537937765248,0.1614843325768272]",4.0,"[0.06888895534372794,-0.06612972216330659]",4.0,"[-0.19563047717383375,0.03216508629507522]",4.0,"[-0.06740732427064995,-0.13129975622078663]",4.0,"[-0.11300688319974046,0.04633255255769013]",4.0,"[-0.04308863553382384,0.14510241842478255]",4.0,"[-0.1744733332449152,-0.07223643590637176]",4.0,"[0.02,0.02]",121.6412,0.0,13.0,13.0,162.0,1.0,,,,,,,
,,,,,,,6691fe909352702ee451b38e,684428c773935a8d5b9b876a,2025-06-07_13h57.47.211,shape_ratio,2024.1.5,Win32,59.88023952,684250e4f00cb30b92d1fa88,,,,,,,,,,,121.6427,122.1407,,,122.3803,122.8652,right,,,,,,,,0.4,0.473,,,,,,,122.1408,122.3802,122.8652,"[0.14671660928231792,-0.12393312331334036]",4.0,"[-0.002222033710422815,0.044832714007834853]",100.0,"[-0.042526085820184314,0.05550257104281275]",4.0,"[-0.09414062389742273,-0.017935752801125606]",100.0,"[0.170924674980493,0.039770717545952]",4.0,"[-0.01178388876157599,0.08973301996797974]",4.0,"[0.05115347635239798,0.1280621603099683]",100.0,"[0.04568271434202977,0.0739616242913241]",4.0,"[0.1465113544592041,-0.07959556178591987]",4.0,"[-0.05857102035967808,-0.12207684902243834]",4.0,"[-0.11511366675602656,-0.14393295526794592]",100.0,"[-0.02304164390096708,0.13027694427937392]",100.0,"[0.03421680853080417,-0.1951977751728465]",4.0,"[-0.016502335918471438,-0.08362355606745257]",4.0,"[-0.10033217985700654,0.07542828579990374]",4.0,"[0.06467561059686602,-0.051539199615898236]",100.0,"[-0.12225978368886437,0.13740352996672833]",100.0,"[-0.027977693997310725,0.1789452585461496]",100.0,"[0.1001087968241588,0.13835344615692477]",4.0,"[-0.18643730102733952,-0.04527378639574695]",100.0,"[0.059969744712802975,0.16850089728387704]",4.0,"[0.08814414829228118,-0.11608232730439656]",100.0,"[-0.002031660758565517,-0.01873134399856753]",4.0,"[0.11825962608396916,0.057862614779700484]",4.0,"[-0.14638997698418668,-0.10618694236696079]",100.0,"[-0.008217399841971763,-0.175824946399582]",4.0,"[-0.1463594008657156,-0.0016121830435729552]",4.0,"[0.17686333387194847,-0.03043157619234229]",4.0,"[0.11118182092421168,-0.03877322587183198]",4.0,"[0.10566050598653169,-0.15953039288481208]",100.0,"[-0.061588608733844155,0.09656036693710796]",100.0,"[-0.12661568615215996,-0.04786791827121409]",4.0,"[0.02,0.02]",123.9589,0.0,14.0,14.0,170.0,1.0,,,,,,,
,,,,,,,6691fe909352702ee451b38e,684428c773935a8d5b9b876a,2025-06-07_13h57.47.211,shape_ratio,2024.1.5,Win32,59.88023952,684250e4f00cb30b92d1fa88,,,,,,,,,,,123.9597,124.4591,,,124.7174,125.2004,right,,,,,,,,0.6,0.4704,,,,,,,124.4592,124.7173,125.2004,"[0.03302420965306376,-0.008210511827683266]",4.0,"[0.05706975237404942,0.15502881339093247]",100.0,"[-0.07601823605439674,-0.04096824131351592]",100.0,"[-0.0696473628112885,0.08837965702881657]",100.0,"[-0.015349960125301678,-0.13371195087864585]",100.0,"[0.04435970546150049,-0.1877871432394991]",100.0,"[-0.039518673390375306,0.16882657776525808]",4.0,"[0.010825524068759102,0.13322133362626445]",100.0,"[0.08304102513288429,-0.03337715312929844]",4.0,"[0.050430522292634575,-0.1340999480595675]",4.0,"[-0.11264882071410806,-0.10404540442135878]",4.0,"[0.14077200983922888,0.03701236517886214]",100.0,"[0.13345407345599977,-0.0046775424375309835]",4.0,"[-0.08839109899204513,0.16428368065534957]",100.0,"[0.11822317203364519,-0.054787052669896676]",100.0,"[-0.15365618611290907,-0.09816536205968769]",100.0,"[0.08562013989268114,0.08070082293216334]",4.0,"[0.003981096032173245,-0.09697554536722677]",100.0,"[0.15816838147229798,-0.10254043892444675]",100.0,"[-0.06600725855996446,-0.14825095606764285]",4.0,"[-0.0033951021329003722,-0.03378072218629343]",100.0,"[-0.15591798106782567,-0.01901367501364299]",100.0,"[-0.026829779772437883,-0.1945341163448865]",100.0,"[0.049112960555832606,0.05657219108603129]",4.0,"[-0.16340474158473836,0.07194816559933902]",4.0,"[-0.1187938224353774,0.030175196631988303]",4.0,"[-0.1296692426995285,-0.06492920209851129]",100.0,"[0.11769201016081453,-0.14578272607719425]",4.0,"[0.09769392140941557,0.1711807517680323]",100.0,"[-0.05700378303377821,0.021467288006908537]",4.0,"[0.18532042907971444,0.040483002149891145]",100.0,"[0.02865633580344479,0.19758133498188832]",100.0,"[0.02,0.02]",126.2924,0.0,15.0,15.0,52.0,1.0,,,,,,,
,,,,,,,6691fe909352702ee451b38e,684428c773935a8d5b9b876a,2025-06-07_13h57.47.211,shape_ratio,2024.1.5,Win32,59.88023952,684250e4f00cb30b92d1fa88,,,,,,,,,,,126.2932,126.793,,,127.0424,127.4271,left,,,,,,,,0.55,0.3616,,,,,,,126.7931,127.0424,127.4272,"[-0.1872850516959033,0.024623103548347982]",4.0,"[-0.08184733018881814,0.13986707335689477]",4.0,"[0.14867662065795392,0.13258479777995374]",100.0,"[-0.05457177167763684,-0.06934867770781278]",4.0,"[-0.14187822391073657,-0.06394685815923874]",4.0,"[-0.016375200889395324,-0.12682631216185222]",4.0,"[-0.11942803679806543,0.10987727436743124]",4.0,"[0.11782424835729365,-0.13276607857063705]",100.0,"[-0.026947979409008876,-0.17164514600641517]",100.0,"[-0.06654556686698314,0.018114637723414775]",4.0,"[0.0014658052902957635,0.07155473772794846]",100.0,"[0.05901135566195694,-0.17762962304159585]",100.0,"[-0.09695184124417328,-0.14917162050660493]",4.0,"[0.03911725733562354,0.11033389732881714]",4.0,"[0.10866244643018803,0.06375865276385141]",100.0,"[0.07335845496052401,-0.1195401153881786]",100.0,"[-0.010307114790607478,0.1308627642705263]",4.0,"[0.04102523380423323,0.02294820214017549]",100.0,"[-0.1805596100361968,-0.08554028625760955]",100.0,"[0.11390832850567875,0.008256943636828006]",100.0,"[-0.1426225404109621,-0.11009727884203173]",4.0,"[0.1576995219124245,-0.06651517763142503]",4.0,"[0.045798346960772146,0.16387216566162824]",100.0,"[0.17235804800902918,0.07886111747401901]",100.0,"[-0.16804366032913506,0.07127904267861015]",100.0,"[-0.029994381407931484,0.0373435295524079]",4.0,"[0.12531251887239753,-0.042205195327655334]",4.0,"[-0.04254506084770453,0.08338704568579416]",100.0,"[0.0471957091497906,-0.06655240436649484]",100.0,"[0.19139541550638198,0.026011083355093674]",100.0,"[0.008807576438442268,-0.04893775430542254]",100.0,"[0.1038255661926046,0.10454620649123803]",100.0,"[0.02,0.02]",128.5252,0.0,16.0,16.0,69.0,1.0,,,,,,,
,,,,,,,6691fe909352702ee451b38e,684428c773935a8d5b9b876a,2025-06-07_13h57.47.211,shape_ratio,2024.1.5,Win32,59.88023952,684250e4f00cb30b92d1fa88,,,,,,,,,,,128.5259,129.0259,,,129.2764,129.8268,right,,,,,,,,0.4,0.5351,,,,,,,129.026,129.2764,129.8271,"[-0.06332180607900403,-0.03770887884876437]",4.0,"[-0.018332772566638875,0.15819716886403873]",100.0,"[0.01751330158316299,0.12670467735768542]",100.0,"[-0.014867716767628363,-0.09064928080002896]",100.0,"[-0.08080852809384649,0.0863007448926449]",4.0,"[-0.0006657977314716876,-0.1424593087785552]",4.0,"[0.07484182675906269,-0.15556622567410938]",4.0,"[0.13890337814076045,0.12071045981941574]",4.0,"[0.14819169229686407,-0.061980318447513644]",100.0,"[-0.1276166103199046,0.0803947114464928]",4.0,"[-0.14773993902914292,0.028904332848768654]",100.0,"[0.07653581051372917,-0.010577512993538743]",4.0,"[0.04122127772656614,0.07451020945670254]",4.0,"[-0.046436138524452955,-0.19292902301387496]",4.0,"[0.06091344268159176,-0.06419019610979361]",100.0,"[-0.056802563483172,-0.08397665403578788]",4.0,"[0.07589094453117443,-0.10320088222161913]",100.0,"[-0.15002733419983544,-0.11710048551326864]",4.0,"[0.10385057063929151,0.1432294950043882]",4.0,"[0.08467890391419122,0.05173934427627226]",4.0,"[-0.059937128035008606,0.029235440427542135]",4.0,"[-0.08673308128918616,0.16481189927413634]",4.0,"[0.00750901420490253,0.19418012095538137]",4.0,"[-0.11773720200791854,-0.05611567003379621]",100.0,"[-0.07694119245507174,-0.15266522857831274]",4.0,"[0.029754800693603086,0.02010386219635912]",4.0,"[0.14744820247121865,-0.1312768645466036]",100.0,"[0.1918138796223058,-0.012810469421066634]",100.0,"[0.007271319081430873,-0.026993495366388866]",100.0,"[-0.10790955997454228,0.11887317188216522]",100.0,"[0.0002862590962503557,-0.1927880330798466]",4.0,"[0.13018213937618645,0.07581001845927109]",100.0,"[0.02,0.02]",130.926,0.0,17.0,17.0,158.0,1.0,,,,,,,
,,,,,,,6691fe909352702ee451b38e,684428c773935a8d5b9b876a,2025-06-07_13h57.47.211,shape_ratio,2024.1.5,Win32,59.88023952,684250e4f00cb30b92d1fa88,,,,,,,,,,,130.9266,131.4258,,,131.6757,132.16,right,,,,,,,,0.55,0.4687,,,,,,,131.4259,131.6757,132.1601,"[0.008702487845906054,0.04768850082379507]",100.0,"[0.040558169556658474,-0.13618363688375035]",100.0,"[-0.18297946670369294,-0.008808636458905355]",100.0,"[0.11523714558273587,-0.15968135892773572]",4.0,"[-0.08036796087487307,0.12396481595809537]",4.0,"[-0.020808744242944332,0.131068498131207]",4.0,"[0.008123401871097656,0.09279866975106899]",4.0,"[0.11825723909194621,0.08241718172334371]",100.0,"[0.021750656350516852,0.18736455620316206]",100.0,"[-0.1927038569682032,0.04307227701719239]",4.0,"[0.14569763208750902,0.13688668746786598]",4.0,"[0.16626990183478038,0.021696282535498854]",100.0,"[-0.11766723682973312,-0.07475174743815156]",4.0,"[0.0037476768330412667,-0.17581436476612947]",4.0,"[-0.11926341964104242,0.14574457336141114]",100.0,"[0.1810461918361182,0.06412002870948086]",100.0,"[0.07188045961940835,0.016115053283855964]",100.0,"[-0.17230728644047344,0.08099007499793888]",4.0,"[0.07192601017076625,0.10019717557510326]",100.0,"[-0.1123817522789213,-0.14697679779213632]",100.0,"[0.11024089602595737,-0.06918340147898051]",100.0,"[0.004580775645490426,-0.03497723313023787]",4.0,"[0.13367951869880296,-0.10915829224988098]",100.0,"[0.16620969914358835,-0.0348610352088978]",4.0,"[0.07488258566009032,0.17176970056137464]",4.0,"[0.10095204003595824,0.13268927671733852]",100.0,"[-0.08548194500042984,-0.10367584548575817]",4.0,"[-0.12826534122707273,0.043434336690752626]",100.0,"[-0.03552194679353415,-0.08783782287224069]",4.0,"[-0.11266884561637579,-0.029219476930621345]",100.0,"[-0.0901119955497541,0.05567974376693199]",100.0,"[-0.05346622728940737,-0.035483085896151345]",100.0,"[0.02,0.02]",133.259,0.0,18.0,18.0,81.0,1.0,,,,,,,
,,,,,,,6691fe909352702ee451b38e,684428c773935a8d5b9b876a,2025-06-07_13h57.47.211,shape_ratio,2024.1.5,Win32,59.88023952,684250e4f00cb30b92d1fa88,,,,,,,,,,,133.2597,133.7587,,,134.0223,134.4594,left,,,,,,,,0.6,0.4279,,,,,,,133.7587,134.0222,134.4595,"[0.18241987577077315,0.00477130347599971]",100.0,"[-0.02844736456253978,-0.01885477237749788]",100.0,"[-0.06738236776717386,0.042690711343863964]",4.0,"[-0.0815229933577647,-0.1124798298907423]",100.0,"[-0.13307518071467994,0.03590267881133503]",4.0,"[0.022429552606367743,0.032923663911008344]",100.0,"[0.07881081582322068,0.1782637530040731]",4.0,"[-0.043872323166967535,0.10738354528693618]",100.0,"[-0.0558157562314596,-0.06777191454716812]",4.0,"[-0.18844117080262712,-0.04937100196976487]",100.0,"[-0.000979183406564613,0.18653954975118975]",4.0,"[0.12739032866991035,0.11582810221845063]",100.0,"[-0.16393566829894957,-0.015318235960620262]",4.0,"[-0.19522690730299436,0.037486139921234764]",100.0,"[-0.15115297926834476,0.1034119321788681]",4.0,"[0.04282530768013396,0.1320532903506791]",100.0,"[0.025624976391515175,-0.15498061593843543]",4.0,"[-0.006683476817061726,0.13065000165737178]",100.0,"[0.0700635182834592,-0.06640352771861655]",100.0,"[0.14327544923860994,-0.006046123425093919]",4.0,"[0.11350600187544482,0.028329302264040162]",100.0,"[-0.10666115152949002,-0.07946413969215119]",4.0,"[0.02813874740338341,-0.054134482104820844]",100.0,"[0.1432402833249422,-0.04704577719199464]",100.0,"[-0.015458775408615958,-0.0826988905758675]",4.0,"[-0.07375914766851642,0.15175872487409575]",4.0,"[-0.0036011263971426027,-0.19199920080323044]",4.0,"[0.16842709873123266,0.043219180993857846]",100.0,"[0.11041136976020692,-0.07999444292841466]",100.0,"[0.0857686207348354,0.08376519774135761]",100.0,"[-0.1063677344173613,-0.1555961504449611]",100.0,"[-0.020178871802661754,-0.14551170448616535]",100.0,"[0.02,0.02]",135.5567,0.0,19.0,19.0,46.0,1.0,,,,,,,
,,,,,,,6691fe909352702ee451b38e,684428c773935a8d5b9b876a,2025-06-07_13h57.47.211,shape_ratio,2024.1.5,Win32,59.88023952,684250e4f00cb30b92d1fa88,,,,,,,,,,,135.5579,136.0584,,,136.3093,136.6843,left,,,,,,,,0.55,0.3596,,,,,,,136.0585,136.3091,136.6844,"[0.1220463101411434,-0.11749848335144841]",100.0,"[-0.11487390476749153,0.03195809833487416]",100.0,"[0.06495750693642274,-0.1515497403485273]",100.0,"[-0.11867527822828462,-0.08438965001060877]",4.0,"[0.09252901616875785,0.010155676691083628]",4.0,"[0.025665044613350087,-0.004320648565780907]",4.0,"[0.1301062489751594,-0.02514194987362098]",100.0,"[-0.002286201895831314,0.05876794973504931]",4.0,"[-0.009679127210710757,-0.12178222647655763]",4.0,"[0.1705631085389538,0.06767038499436136]",100.0,"[-0.0520476420952872,0.10063823479468298]",4.0,"[-0.07009510515841998,0.13938917265828554]",100.0,"[0.08693113644279013,-0.06100182186373564]",100.0,"[-0.07460097438905693,-0.09408159284817899]",4.0,"[-0.030071254658970772,0.1864978811995508]",4.0,"[-0.048005652095513565,-0.026256828807234792]",100.0,"[-0.09917067674844476,-0.042120899977215215]",100.0,"[-0.18959069843214307,0.031078349940691165]",100.0,"[-0.07099813355885212,0.03153691838904893]",4.0,"[-0.11028826943706926,0.1527926569021661]",4.0,"[0.19070976816908544,0.0026574285213417934]",4.0,"[-0.0030596957181215512,0.10171137334848031]",4.0,"[0.0051930789272781105,-0.17271158872335055]",100.0,"[0.12577519943443677,0.12003295816033041]",100.0,"[-0.09149439239543006,-0.1356617266619336]",100.0,"[-0.06645475502175419,-0.16881477194166383]",100.0,"[0.045638907915095804,-0.08089685614411454]",100.0,"[-0.15120784710260962,-0.016025068848852783]",100.0,"[0.1755111441283839,-0.07493612941681128]",4.0,"[0.057617665100120105,0.14553773032658882]",100.0,"[0.05484156128758658,0.19099831671386294]",4.0,"[-0.17597163675461291,-0.05040306694457676]",100.0,"[0.02,0.02]",137.7899,0.0,20.0,20.0,85.0,1.0,,,,,,,
,,,,,,,6691fe909352702ee451b38e,684428c773935a8d5b9b876a,2025-06-07_13h57.47.211,shape_ratio,2024.1.5,Win32,59.88023952,684250e4f00cb30b92d1fa88,,,,,,,,,,,137.7915,138.2909,,,138.5333,139.2171,right,,,,,,,,0.55,0.6714,,,,,,,138.2912,138.5333,139.2171,"[0.04266716950197251,0.035201792377489]",4.0,"[-0.0717037449244154,-0.11190417916189169]",100.0,"[-0.1734541897086731,-0.09011254019386676]",100.0,"[0.0003577761317875823,-0.03881007231811931]",4.0,"[-0.1624674680441735,0.025434107409649385]",4.0,"[0.11685140952287155,-0.0728678752097351]",4.0,"[0.00702197187811388,-0.09735196783986141]",100.0,"[-0.04258466339053327,-0.08160887490085905]",100.0,"[0.04268480317259695,-0.015818758931343515]",4.0,"[-0.12900926833306772,-0.10932640429531731]",100.0,"[-0.08068315663523483,-0.02995818810369158]",4.0,"[0.001637729221119623,0.06748563565005243]",4.0,"[-0.01737774600176419,0.14183184219409944]",4.0,"[-0.0412000030696569,0.052590807197730474]",4.0,"[0.16058831453999722,0.07136879124923662]",100.0,"[0.08229749303374305,0.08461823119220524]",100.0,"[0.17335126120001632,0.02516775852208954]",100.0,"[-0.12294331442534503,0.13021781634765]",100.0,"[0.08233304113549929,-0.12095308006248193]",100.0,"[-0.10755971034433458,-0.1572524456601173]",4.0,"[-0.15393936971047106,-0.039151876833836266]",100.0,"[-0.15638444840287666,0.06737354348920474]",100.0,"[0.057643983293887736,0.15850359484588847]",4.0,"[-0.038417097437269544,-0.17488750498973665]",100.0,"[-0.10610235069921178,0.050329055881760586]",100.0,"[0.1666967301502033,-0.09080087953962528]",100.0,"[0.09170092057943774,-0.015149193040958011]",4.0,"[0.04730361895325859,-0.10073715720601183]",4.0,"[0.020394130107700244,-0.16784178150089046]",4.0,"[0.17051782877779587,-0.016148922239339985]",100.0,"[-0.0043227973027412285,0.19204185129756]",100.0,"[0.031845167773882035,0.09784303320983043]",100.0,"[0.02,0.02]",140.3203,0.0,21.0,21.0,83.0,1.0,,,,,,,
,,,,,,,6691fe909352702ee451b38e,684428c773935a8d5b9b876a,2025-06-07_13h57.47.211,shape_ratio,2024.1.5,Win32,59.88023952,684250e4f00cb30b92d1fa88,,,,,,,,,,,140.3239,140.8232,,,141.076,141.4659,right,,,,,,,,0.55,0.3678,,,,,,,140.8232,141.0759,141.466,"[0.12383331369792003,-0.07717851264420919]",100.0,"[0.07310066896309725,0.1650079103299344]",100.0,"[-0.1214333229318586,0.0717823351204935]",4.0,"[0.1711732986383292,-0.07079158474973635]",100.0,"[0.0371936484487429,-0.05719030585805171]",100.0,"[0.037648801498375704,0.0573685687133566]",100.0,"[-0.1689563396635545,0.020778663816687366]",100.0,"[0.09238832933307817,0.04796103919616667]",100.0,"[0.13195328658529387,-0.019765722725231055]",4.0,"[-0.14114129254194027,-0.05146111601871215]",100.0,"[-0.11830304809618422,-0.12221052681369136]",100.0,"[0.1600952797509295,0.07805363814421813]",4.0,"[-0.1934107928844018,-0.03868860988326933]",100.0,"[-0.1038197536814425,-0.029613305254788662]",4.0,"[-0.010342091825318906,0.1448144545801217]",4.0,"[-0.012766414702010877,0.05897290089804852]",4.0,"[-0.05024877212250344,0.09944954904483981]",100.0,"[0.08326995516580638,-0.1470220194685798]",100.0,"[-0.02853225724430483,-0.15235590955890105]",4.0,"[0.02862828936607144,-0.17791368454619894]",100.0,"[0.06621278798199517,-0.10334253179216073]",4.0,"[-0.0002357099815273207,-0.09856766793225473]",4.0,"[-0.14829731334739457,0.11609825348085927]",100.0,"[0.17962925714486094,-0.015715023634254872]",100.0,"[0.04782822411698748,0.10889273816867678]",100.0,"[-0.16755242702062662,-0.08187218895335373]",4.0,"[0.016262997916238267,0.02146947037892289]",4.0,"[-0.07044743997688115,-0.16500671105462175]",100.0,"[-0.07514963115307295,0.13374652354274544]",100.0,"[0.1382670275041218,-0.1398473539161888]",4.0,"[0.08723551831149809,-0.022496905119874636]",4.0,"[-0.07312607417255863,0.02947105118510696]",4.0,"[0.02,0.02]",142.5566,0.0,22.0,22.0,79.0,1.0,,,,,,,
,,,,,,,6691fe909352702ee451b38e,684428c773935a8d5b9b876a,2025-06-07_13h57.47.211,shape_ratio,2024.1.5,Win32,59.88023952,684250e4f00cb30b92d1fa88,,,,,,,,,,,142.5581,143.058,,,143.3088,143.7258,right,,,,,,,,0.6,0.3948,,,,,,,143.058,143.3088,143.7259,"[0.13239262706531213,-0.11587966338849055]",4.0,"[0.13244083835843445,0.07997418792340931]",100.0,"[-0.07087210674820642,-0.13015826833620767]",100.0,"[0.08872723514822467,0.15800351776592256]",100.0,"[-0.03026747826574341,-0.08316453077539303]",100.0,"[-0.0968762170915716,0.0846255632811144]",4.0,"[-0.06945605629102729,0.13113865911658878]",100.0,"[-0.13181961618402097,-0.06782677474796381]",100.0,"[0.007408249082405063,-0.13531056310610606]",100.0,"[0.1864253768182604,0.032558423199297616]",100.0,"[-0.18223523263087338,0.026453989938978496]",100.0,"[-0.03341124861050658,0.04815221724216727]",100.0,"[0.01672105971369873,0.03716042973035791]",100.0,"[0.13224558539213,0.00540342427378629]",100.0,"[-0.045410018989648554,0.009497566219647613]",4.0,"[0.16373402624079328,-0.06899928059791859]",4.0,"[0.008503656936904996,-0.041235637472660444]",4.0,"[0.07704930012887645,0.028236290619436735]",100.0,"[0.006291106208287353,0.14294891519512112]",4.0,"[0.06250966984233622,-0.06867822854817937]",100.0,"[0.0721845303057595,-0.12026851057093572]",100.0,"[-0.1459750599493434,0.05940242429563445]",4.0,"[-0.07042061223719824,-0.08902143601396598]",100.0,"[-0.09520542927736372,-0.012335239035737161]",4.0,"[-0.11101577941211938,0.1240026431822372]",4.0,"[-0.18902680639655534,-0.013770382655156751]",4.0,"[-0.0062934216280165906,0.18267224661487533]",100.0,"[-0.04745319484121952,-0.17610190021363942]",4.0,"[0.050798813339873794,0.12095112493003823]",100.0,"[-0.06193784234366438,0.18320253981166593]",4.0,"[-0.04816773506404862,-0.032883873991960064]",100.0,"[-0.1355946985359016,-0.12215676586390653]",4.0,"[0.02,0.02]",144.8246,0.0,23.0,23.0,53.0,1.0,,,,,,,
,,,,,,,6691fe909352702ee451b38e,684428c773935a8d5b9b876a,2025-06-07_13h57.47.211,shape_ratio,2024.1.5,Win32,59.88023952,684250e4f00cb30b92d1fa88,,,,,,,,,,,144.8265,145.333,,,145.5752,146.0337,right,,,,,,,,0.4,0.4358,,,,,,,145.3331,145.575,146.0338,"[-0.0637231808791939,-0.08166311221729824]",100.0,"[0.1718613021608652,-0.0078063314336301055]",4.0,"[-0.11232659789755468,0.04757969160119959]",100.0,"[-0.014098984656941092,0.1669323414432992]",4.0,"[-0.13749244972319188,0.12610977781356714]",4.0,"[0.128844000139625,-0.10056929542507605]",4.0,"[0.015551079499705722,0.06642030910276615]",4.0,"[0.08381633406197724,0.09766835681896237]",4.0,"[0.03776584265755398,0.03236622726223992]",4.0,"[-0.05970610615066303,0.1624762726401755]",100.0,"[0.13181933354545597,-0.016111752343858785]",4.0,"[-0.10278226461945855,-0.13510890154355992]",100.0,"[-0.05514738630602439,0.06762305599670008]",4.0,"[0.16956012093192085,-0.07129060662746313]",100.0,"[0.11980648587329062,0.06555307722538828]",100.0,"[0.08200544898101166,-0.016354132974619722]",100.0,"[0.09160757258147527,-0.12160754108354356]",4.0,"[-0.006391348481302158,0.026882345355813127]",100.0,"[0.0033601598328901893,-0.18429463411178315]",100.0,"[0.052344952283568155,-0.09902769641657885]",4.0,"[-0.09995471397973109,0.1511829620516271]",4.0,"[0.013858684380033995,-0.0741352799815669]",4.0,"[0.07392603980163921,0.052145640550373656]",100.0,"[0.14123335408428098,0.11782318961490477]",100.0,"[0.119465227981151,0.02267341047405162]",4.0,"[-0.04893244393422166,-0.1707739478555957]",4.0,"[-0.023159946327663817,-0.11832752308658498]",4.0,"[-0.053983959798741175,-0.006375167324741625]",100.0,"[0.15408972894208567,0.04327473455761077]",100.0,"[-0.09355876702045579,-0.021251931887847415]",4.0,"[-0.04938304587769181,0.11011253129121391]",4.0,"[0.019295528199974342,0.13076690789060913]",4.0,"[0.02,0.02]",147.13,0.0,24.0,24.0,160.0,1.0,,,,,,,
,,,,,,,6691fe909352702ee451b38e,684428c773935a8d5b9b876a,2025-06-07_13h57.47.211,shape_ratio,2024.1.5,Win32,59.88023952,684250e4f00cb30b92d1fa88,,,,,,,,,,,147.1305,147.6244,,,147.875,148.3742,right,,,,,,,,0.45,0.4748,,,,,,,147.6244,147.8747,148.3742,"[0.0648685351469767,0.02274740404839911]",4.0,"[0.07359509045253701,0.11684932723813622]",100.0,"[0.12171456285007215,-0.13561623527316927]",100.0,"[0.08264267955312407,0.06059500670040153]",4.0,"[-0.13005609441971944,0.12022010782150586]",4.0,"[-0.11771439918794505,-0.10911419281217788]",4.0,"[0.07183429917676587,-0.1281503853685347]",4.0,"[-0.05129986534741811,0.08452842391777346]",4.0,"[-0.018168839439829124,0.17730761283276988]",100.0,"[0.1490170390522963,0.10764816069391728]",100.0,"[-0.18593367692688634,0.03738835911861529]",100.0,"[-0.17932715173188463,-0.026071583854520537]",100.0,"[0.02270854884947161,0.09571385810868166]",100.0,"[-0.012750152985211807,-0.06329558124205967]",100.0,"[-0.10007257090493017,-0.022938825541109674]",100.0,"[0.13033087412276054,0.05568235833253711]",4.0,"[-0.005167711273915193,-0.15506860119404647]",100.0,"[-0.07071881196042575,-0.08164798921751668]",4.0,"[0.15627001318665004,-0.05311780788735159]",4.0,"[-0.10155367912881576,0.02610914350405019]",4.0,"[-0.005591598570062412,0.05498806768504833]",4.0,"[-0.03857320293087048,-0.002259820577877408]",100.0,"[-0.16691212327390328,-0.09506367927529576]",4.0,"[0.09024279010300137,-0.052934630681291006]",4.0,"[0.03690038171059506,-0.19290452456328144]",100.0,"[-0.013841225434861331,-0.1983222822335078]",4.0,"[-0.1129796098575049,-0.1604674598344224]",4.0,"[0.009850524671053056,-0.10816635672974924]",4.0,"[-0.06137481281872865,-0.17466790027891502]",4.0,"[0.13964967449340027,0.015333529640873094]",100.0,"[0.024050555957083296,-0.03816934469922678]",4.0,"[0.08703682290568025,0.17809745501816976]",100.0,"[0.02,0.02]",149.4655,0.0,25.0,25.0,132.0,1.0,,,,,,,
,,,,,,,6691fe909352702ee451b38e,684428c773935a8d5b9b876a,2025-06-07_13h57.47.211,shape_ratio,2024.1.5,Win32,59.88023952,684250e4f00cb30b92d1fa88,,,,,,,,,,,149.4666,149.9557,,,150.1975,150.9383,left,,,,,,,,0.9,0.7182,,,,,,,149.9558,150.1974,150.9383,"[-0.19023897079134283,-0.045645763345605994]",100.0,"[0.04691792450143166,0.010831952631998387]",100.0,"[-0.1869461814285144,0.06036391378901724]",100.0,"[-0.06773740115086514,-0.019644412020511887]",100.0,"[0.07927604058319489,0.09302463085757781]",4.0,"[0.14959179758228272,0.1064385767016963]",100.0,"[-0.11051520754796802,0.13934291255902442]",100.0,"[-0.13478327117842295,-0.13426860680527172]",100.0,"[0.08514419424173801,0.1362455964317753]",100.0,"[0.13209871502225604,0.04357526167081133]",4.0,"[-0.017397142302488032,-0.06407258111507946]",100.0,"[-0.13503873191284077,-0.06480837654228816]",100.0,"[-0.12345518233584618,0.07112488636566458]",100.0,"[0.07002670393276972,-0.052026966301790496]",100.0,"[0.020541602230978145,0.13918286502552396]",100.0,"[-0.05963688740090551,-0.18766036986803195]",100.0,"[-0.017061700131404938,-0.14492628724553278]",100.0,"[-0.06925021347148251,0.17993722820742475]",100.0,"[0.019570347135106386,-0.19672288309251243]",100.0,"[-0.07690219676034145,0.10756677455626001]",100.0,"[0.06595857199579727,0.17956651985905114]",100.0,"[-0.002534907546838405,0.019974972916840757]",100.0,"[0.043194791351490534,-0.1614179743842727]",100.0,"[-0.055193463332259454,-0.10225619655741432]",100.0,"[-0.09054850778942634,-0.16070742339142058]",100.0,"[0.1544718752147563,-0.11840955256576426]",100.0,"[0.133112271367097,-0.013437724005822937]",100.0,"[-0.02925701222911396,0.16804789146458649]",100.0,"[0.16266288980666163,-0.07746758554798829]",100.0,"[0.035274943759238,-0.10572863297559279]",4.0,"[-0.06666218779419601,0.057950488697952]",100.0,"[0.18667342164434383,-0.024663708122293935]",100.0,"[0.02,0.02]",152.0328,0.0,26.0,26.0,0.0,1.0,,,,,,,
,,,,,,,6691fe909352702ee451b38e,684428c773935a8d5b9b876a,2025-06-07_13h57.47.211,shape_ratio,2024.1.5,Win32,59.88023952,684250e4f00cb30b92d1fa88,,,,,,,,,,,152.0343,152.5227,,,152.7748,153.189,right,,,,,,,,0.5,0.3879,,,,,,,152.5227,152.7748,153.1892,"[0.054766537162161295,0.16221887997612394]",4.0,"[-0.07137494301169921,-0.003279431424023959]",4.0,"[-0.10812067556609958,-0.07273618299807301]",4.0,"[0.17768946319146584,-0.056555523973739086]",100.0,"[-0.002505121394566164,-0.03347787231106806]",100.0,"[-0.020311099253099884,0.09704114027950186]",4.0,"[0.009994550134856256,0.15199147772374155]",100.0,"[-0.025415676365903923,-0.09401357261065618]",4.0,"[-0.15582963417735013,-0.08553620444003393]",4.0,"[0.04328823833050278,-0.03565923939204985]",100.0,"[0.12565181518146235,0.08165675778716926]",100.0,"[-0.04445820137034868,0.04754499517020259]",100.0,"[-0.1054114304913898,0.04527049313202462]",100.0,"[-0.11763568256020704,-0.1189895089510551]",4.0,"[0.03900081363542687,0.07198938631008932]",4.0,"[0.09601521305312422,-0.1651472726041395]",100.0,"[-0.04128296228900464,0.15249430087262394]",4.0,"[-0.09098058231823136,-0.15581524457304202]",4.0,"[-0.08266371746012562,0.10947984050437902]",100.0,"[0.0025598362508120072,0.19780687489710488]",100.0,"[-0.19116821377948912,-0.045449739210018394]",100.0,"[0.04049418864795113,-0.19064498109931163]",4.0,"[0.17791717797965032,0.03251515484804927]",4.0,"[-0.09955288397218849,0.16084036973101123]",100.0,"[0.08516158932370899,0.011310073550078983]",100.0,"[0.131565334000963,0.04149587178015127]",100.0,"[0.12642219737568672,-0.00396789514771333]",4.0,"[-0.14340978057589715,-0.026834710379661314]",4.0,"[0.181147412060667,0.08016058121749224]",100.0,"[0.021865704419365157,-0.09270001807965829]",4.0,"[0.044713214529812716,0.027397022826858904]",100.0,"[0.09280055325245816,0.11563830452351458]",4.0,"[0.02,0.02]",154.2882,0.0,27.0,27.0,100.0,1.0,,,,,,,
,,,,,,,6691fe909352702ee451b38e,684428c773935a8d5b9b876a,2025-06-07_13h57.47.211,shape_ratio,2024.1.5,Win32,59.88023952,684250e4f00cb30b92d1fa88,,,,,,,,,,,154.2898,154.7895,,,155.0419,155.5853,left,,,,,,,,0.5,0.5209,,,,,,,154.7897,155.0417,155.5855,"[-0.06598407914813724,-0.12475312361852552]",100.0,"[-0.03272036039299914,0.08149094229058092]",100.0,"[-0.08258849806241142,0.08251745508028605]",100.0,"[0.005592678560983588,-0.1786806841817549]",4.0,"[0.1568136103760313,-0.11463283140364919]",4.0,"[0.16636723472192727,0.10007644790916138]",100.0,"[-0.07382299662230572,0.16441916735991888]",100.0,"[0.03530221766650398,0.03194775485037611]",100.0,"[0.021931183033936184,0.12535894951333562]",4.0,"[0.07390070546409346,-0.08633324629064285]",100.0,"[-0.1863105781315846,0.04886646794201903]",4.0,"[-0.05808246302136969,0.030514967047945447]",4.0,"[0.009978725326777483,-0.04267729523894736]",100.0,"[0.025595042943189275,-0.09556898410169479]",4.0,"[-0.1766907202390775,-0.010242355701680939]",4.0,"[0.1578567962481012,-0.024070479819228996]",4.0,"[-0.07427475304874169,-0.059663388179185796]",4.0,"[0.01847467105447172,0.16764623818943059]",100.0,"[0.05990304079498062,0.09830759609762003]",4.0,"[-0.11693787852469922,0.006409886438974852]",100.0,"[0.1852548636552401,-0.059742129985359355]",4.0,"[0.0015866582577965223,-0.13245327986883676]",100.0,"[0.025481356722038495,0.07503970914969582]",100.0,"[-0.16250560775749043,-0.11639336199581941]",100.0,"[-0.05287183179124684,-0.0202711279977105]",100.0,"[-0.123814970233031,0.09009076825942053]",4.0,"[-0.10931792857270492,0.14413780468773688]",4.0,"[-0.04567524750344901,0.12187964278396832]",4.0,"[0.12071850576563437,0.06689410256115795]",100.0,"[0.13121600322713367,-0.076191257083264]",4.0,"[0.13496113511708033,0.021684281773544496]",100.0,"[0.12566864763313398,0.11886913250093645]",4.0,"[0.02,0.02]",156.6742,0.0,28.0,28.0,118.0,1.0,,,,,,,
,,,,,,,6691fe909352702ee451b38e,684428c773935a8d5b9b876a,2025-06-07_13h57.47.211,shape_ratio,2024.1.5,Win32,59.88023952,684250e4f00cb30b92d1fa88,,,,,,,,,,,156.675,157.1743,,,157.4254,157.771,right,,,,,,,,0.6,0.3292,,,,,,,157.1744,157.4253,157.7711,"[0.09209960721727815,0.07265674181117913]",4.0,"[0.10205671168546905,0.1257797344380223]",4.0,"[-0.0043139621782990354,0.07192740182612008]",100.0,"[0.13433162820165775,0.004008754904454733]",100.0,"[0.12411188991260526,-0.07184033023170798]",4.0,"[0.06005786448477627,-0.02156996664568858]",100.0,"[-0.11205776065053052,-0.15360734454094419]",4.0,"[-0.09332608685993328,-0.00504123900858812]",100.0,"[-0.09268730209246179,-0.11726499667610459]",4.0,"[0.11824772287195882,-0.13027733771834776]",100.0,"[-0.17338140021787382,-0.026415986627045362]",100.0,"[-0.12564007125418253,0.018925847941353127]",100.0,"[-0.10315624623214756,0.16835532739216272]",100.0,"[0.08043485606362731,-0.10867332058291944]",4.0,"[-0.04765989873378025,-0.0024859397759529494]",4.0,"[-0.00037271764268460443,0.14857137641269874]",100.0,"[-0.04302252082693367,-0.06375663956703961]",100.0,"[-0.08599133866316284,0.07283646131653221]",100.0,"[0.008257527432552035,-0.10157096150402677]",100.0,"[-0.13892573096769445,-0.09965930688827565]",4.0,"[0.03271076779356396,0.11119216156222285]",100.0,"[-0.15219102201554466,0.053649682636607125]",100.0,"[0.04030375715916796,-0.1802965300401899]",4.0,"[-0.053635137776864794,0.1746719093153954]",100.0,"[0.193923886180459,0.004190085108281582]",4.0,"[0.0979780883136259,-0.04016777337148652]",100.0,"[-0.10352204093635442,-0.04687968561717087]",100.0,"[0.05823642122442965,-0.06843025719509341]",4.0,"[-0.010515872747246094,-0.03409370082531224]",4.0,"[-0.1992482532241898,0.011197012036870953]",100.0,"[-0.12043190576493755,0.12099819742458082]",4.0,"[0.07415956550588963,-0.15781744979757828]",100.0,"[0.02,0.02]",158.8744,0.0,29.0,29.0,35.0,1.0,,,,,,,
,,,,,,,6691fe909352702ee451b38e,684428c773935a8d5b9b876a,2025-06-07_13h57.47.211,shape_ratio,2024.1.5,Win32,59.88023952,684250e4f00cb30b92d1fa88,,,,,,,,,,,158.8755,159.3745,,,159.6145,160.1254,left,,,,,,,,0.6,0.4941,,,,,,,159.3745,159.6144,160.1255,"[-0.0617884591715701,0.09952549184574887]",4.0,"[0.18593665686817226,-0.04937871616375555]",4.0,"[0.034124347201700975,-0.12140058864910168]",4.0,"[0.02388827449632089,0.1292929259828302]",100.0,"[0.0384803529749566,0.07903670992071773]",100.0,"[0.13405153253695207,-0.03265943806916051]",100.0,"[0.11424499855550053,0.12732222219101946]",100.0,"[0.13777538225717925,0.07014847488342629]",100.0,"[0.026758665566583406,0.012194521237372444]",100.0,"[-0.16421337718584678,-0.04980299298657536]",4.0,"[-0.019381866983585953,0.18259830729663393]",100.0,"[-0.1454889008117897,0.09271722424407901]",100.0,"[-0.017746068283330745,-0.09979026559052942]",100.0,"[-0.052496503020059836,-0.12017479629146181]",4.0,"[0.07890874482833775,0.10727722684777156]",100.0,"[-0.025632336713733293,0.12109240769093826]",4.0,"[0.0715510041842304,-0.17331245376090226]",100.0,"[-0.08291910657083434,-0.15208004816383144]",100.0,"[-0.06610843897099586,-0.06726954915216564]",100.0,"[0.04756555444248832,-0.03600895951951243]",100.0,"[-0.12417169061120442,-0.011172723669608019]",100.0,"[0.1870071133281528,0.022787228839662707]",4.0,"[0.0733330234070529,-0.07828374870046535]",4.0,"[0.11689306214935866,-0.08891327512308284]",4.0,"[0.02827042897657415,-0.1887201420267885]",4.0,"[-0.11213635107311307,0.13807241679659077]",4.0,"[-0.13244814933936636,0.04626412000450544]",100.0,"[-0.08641189056970995,0.00366471759720397]",100.0,"[0.09184125083351309,-0.006655343386315837]",100.0,"[-0.16205208188213016,0.018783311189549765]",4.0,"[0.11195924373399534,-0.15912476820627686]",4.0,"[-0.09098417711774631,0.17753044271224]",100.0,"[0.02,0.02]",161.2242,0.0,30.0,30.0,49.0,1.0,,,,,,,
,,,,,,,6691fe909352702ee451b38e,684428c773935a8d5b9b876a,2025-06-07_13h57.47.211,shape_ratio,2024.1.5,Win32,59.88023952,684250e4f00cb30b92d1fa88,,,,,,,,,,,161.2249,161.7239,,,161.9638,162.49,left,,,,,,,,0.55,0.507,,,,,,,161.724,161.9637,162.4901,"[-0.1475482919856587,0.10288395690823414]",4.0,"[-0.03421222893522324,-0.05079753682336717]",4.0,"[0.11972205769122964,-0.035591588542399875]",4.0,"[0.08886007324646987,-0.07378021538559375]",100.0,"[-0.018155531221744334,-0.12906037027389203]",4.0,"[0.09719190381033418,-0.17379613100085567]",4.0,"[-0.08189352956031799,-0.039133395322901984]",100.0,"[-0.1804830759340432,-0.06567732621831365]",100.0,"[0.06822413884546819,0.1808465902163956]",100.0,"[-0.03216898580316309,0.14360971469890213]",100.0,"[-0.18979078398878957,0.025180172739379704]",100.0,"[0.019904203223815108,0.1327092114296768]",4.0,"[0.0051230301580675475,0.19769255122172752]",100.0,"[0.07204492074122737,-0.12468779043480524]",100.0,"[-0.10529023626894232,-0.0964688312543233]",4.0,"[0.09194610856934203,-0.0008779441728578752]",100.0,"[-0.10713485840408997,0.01783825206290844]",100.0,"[-0.1205554950347154,0.1417679662949509]",4.0,"[0.18878744117400104,0.01086670989863447]",4.0,"[0.0913051931152766,0.044237492285709494]",100.0,"[0.12457008204987377,0.15326699637381136]",100.0,"[0.006216991077321034,-0.17175651897906405]",100.0,"[0.14959061438193455,0.049497023779381456]",100.0,"[0.16026003383399248,-0.04949391207809557]",4.0,"[0.05120977547739108,-0.04385796271011345]",4.0,"[-0.09431875475500645,0.07483576707899937]",4.0,"[0.05808765600363283,0.10343660981569136]",100.0,"[0.12242761500260227,-0.14102280468931963]",100.0,"[0.11250318448094936,0.10356764487300806]",4.0,"[-0.03803498053290358,0.00025905510178096805]",100.0,"[0.024786799037998786,0.05820269393223527]",4.0,"[-0.06217149385436576,-0.14462962529102463]",100.0,"[0.02,0.02]",163.589,0.0,31.0,31.0,71.0,1.0,,,,,,,
,,,,,,,6691fe909352702ee451b38e,684428c773935a8d5b9b876a,2025-06-07_13h57.47.211,shape_ratio,2024.1.5,Win32,59.88023952,684250e4f00cb30b92d1fa88,,,,,,,,,,,163.5898,164.0903,,,164.3413,165.3893,right,,,,,,,,0.55,1.0205,,,,,,,164.0904,164.3412,165.3894,"[-0.08096202222234293,-0.08702846552245427]",4.0,"[0.07011023034004743,0.09817123111711605]",100.0,"[0.06515570140340707,-0.09208351296033983]",100.0,"[0.02969997340494557,0.009199717989511982]",4.0,"[0.13680677451685178,0.08223727684736709]",100.0,"[0.15942184274972415,-0.03163733686076829]",100.0,"[-0.04427230550576194,0.08549482199321977]",4.0,"[-0.10400866422880152,0.05081732692607922]",100.0,"[-0.1724504414708238,0.054079264599065556]",100.0,"[0.10366018245509677,-0.0017449608464220044]",100.0,"[-0.08275464543688012,-0.14022770848023264]",4.0,"[0.14095412811379165,0.032414914099610864]",100.0,"[0.12327821027786573,-0.06207484075216988]",100.0,"[0.02869688603199078,0.14926567252764056]",100.0,"[-0.06429794298162664,-0.03543311505740344]",4.0,"[0.034721345245177095,-0.06372046180811843]",4.0,"[-0.011537771114801131,-0.08226705922334707]",100.0,"[0.02998511385139135,0.09238945861459358]",100.0,"[-0.010936061774859515,-0.02070101141759189]",100.0,"[0.11199726508925355,-0.12404360594150031]",4.0,"[0.18492469409344273,0.04909609044016559]",100.0,"[-0.11748142988578886,-0.10868670984078695]",100.0,"[0.03617758683236503,-0.13979144669683083]",4.0,"[-0.09761540791311073,0.10178701039843445]",4.0,"[-0.15855424316954939,-0.06043433729470803]",100.0,"[0.07314266928354399,0.16795631988330662]",4.0,"[-0.01850181672763322,0.022065111777373886]",4.0,"[-0.1571588147966164,-0.10080788962068848]",100.0,"[0.05593096741753053,-0.19040499397050895]",100.0,"[-0.029683949368742895,0.17197019177069386]",4.0,"[-0.14912268104635268,-0.00360385705265597]",4.0,"[0.12628663198468243,0.13296279682611814]",4.0,"[0.02,0.02]",166.4777,0.0,32.0,32.0,89.0,1.0,,,,,,,
,,,,,,,6691fe909352702ee451b38e,684428c773935a8d5b9b876a,2025-06-07_13h57.47.211,shape_ratio,2024.1.5,Win32,59.88023952,684250e4f00cb30b92d1fa88,,,,,,,,,,,166.4789,166.9789,,,167.2185,167.7845,right,,,,,,,,0.45,0.5449,,,,,,,166.9792,167.2183,167.7847,"[-0.09965715036801331,-0.0892335315310251]",4.0,"[-0.03838284873580867,-0.1664020108954002]",100.0,"[-0.01537222019334199,-0.025553419655700533]",4.0,"[-0.07098179558901781,0.09031180347974399]",100.0,"[0.11889499872426482,0.11454289727523596]",100.0,"[0.04816962804898443,-0.17033107457191696]",100.0,"[-0.0114337509632153,0.01860214376763362]",100.0,"[0.1007544367899597,-0.1062903860026973]",100.0,"[0.06370767362537223,0.10227266118680739]",4.0,"[0.03999944779040901,0.1830674803488009]",100.0,"[0.031214734078856027,-0.016021034203219136]",100.0,"[-0.007123426072326184,-0.07832348383146888]",100.0,"[0.03551522891391975,0.0575554647711702]",4.0,"[-0.14204992029481137,0.08851488656926626]",4.0,"[0.17331232529901403,0.048115033809984324]",4.0,"[-0.047885478671308525,-0.07857088623453656]",4.0,"[0.11163407073206591,0.050452972693356066]",100.0,"[-0.12422928960899816,-0.007849001113589873]",4.0,"[0.15732277352168275,-0.05589474791026167]",4.0,"[0.022993549664255306,-0.11187636882114915]",100.0,"[-0.010291911221720214,0.15933069174322018]",4.0,"[0.14810091960782493,-0.12542351533604115]",100.0,"[-0.15834290336891768,-0.05938194177052917]",4.0,"[-0.07917373790912607,0.13251593169999498]",4.0,"[0.1926453541104854,-0.005299092539224654]",100.0,"[-0.11118009894597036,-0.14416023781859685]",100.0,"[0.09413043989453583,-0.036736358505801925]",4.0,"[-0.044659105971185935,0.1873485256417253]",4.0,"[0.13153846145913103,-0.013423245597701337]",4.0,"[-0.1781437855828796,0.0643222464541747]",4.0,"[-0.0859534393447767,-0.03745682374134215]",4.0,"[-0.040967274374561165,0.049326130575389454]",4.0,"[0.02,0.02]",168.8838,0.0,33.0,33.0,149.0,1.0,,,,,,,
,,,,,,,6691fe909352702ee451b38e,684428c773935a8d5b9b876a,2025-06-07_13h57.47.211,shape_ratio,2024.1.5,Win32,59.88023952,684250e4f00cb30b92d1fa88,,,,,,,,,,,168.8848,169.3841,,,169.6316,170.2853,left,,,,,,,,0.55,0.6331,,,,,,,169.3841,169.6316,170.2854,"[0.05761608849905245,0.07318522681695754]",4.0,"[0.03048030934289967,-0.0016848711125468695]",100.0,"[0.1144691043051829,-0.04670728353308725]",100.0,"[-0.18658684387782398,-0.021809297924545633]",4.0,"[-0.019540741868836694,0.16175965640801598]",100.0,"[0.09741421247450233,0.08566421328781482]",4.0,"[-0.0581753407702689,0.06333786909520207]",100.0,"[-0.10525982552949127,0.04957784542372857]",100.0,"[-0.00850952675668449,-0.13706909802237624]",100.0,"[0.09556634062380268,-0.11078340510388503]",100.0,"[0.010129791339612162,0.07079751544539627]",4.0,"[-0.16066862672232232,0.008975372175617492]",4.0,"[-0.08484157516814378,-0.1397737342751469]",4.0,"[-0.027511742616997195,0.1076819079822474]",4.0,"[-0.06468248800307486,-0.040029831334973606]",4.0,"[0.0876081065189249,-0.16461862602107183]",4.0,"[0.036929407331290055,-0.11824054462807049]",100.0,"[0.07540856658418879,0.16733915665145227]",4.0,"[-0.1342847358352545,-0.06438595586566488]",100.0,"[0.04025283882955901,-0.04197701659626702]",100.0,"[-0.08775818877682205,-0.09536207842994042]",4.0,"[0.17128563755552711,0.0632867196596861]",100.0,"[0.02785740926557783,-0.16100623959763644]",100.0,"[0.19278835968655444,0.02614953075785999]",100.0,"[-0.04251784291134548,-0.1892455850382661]",4.0,"[0.091211197706803,0.009371627233529816]",100.0,"[-0.03246191188853339,0.028823136324202282]",4.0,"[0.14444549694212724,-0.10048580266023914]",4.0,"[-0.15249176380799606,0.05410796340508657]",100.0,"[-0.0760784925028766,0.11171899951407546]",100.0,"[0.13445547255237011,0.04420381896410794]",100.0,"[-0.04146957468938017,-0.10500248460109571]",100.0,"[0.02,0.02]",171.374,0.0,34.0,34.0,66.0,1.0,,,,,,,
,,,,,,,6691fe909352702ee451b38e,684428c773935a8d5b9b876a,2025-06-07_13h57.47.211,shape_ratio,2024.1.5,Win32,59.88023952,684250e4f00cb30b92d1fa88,,,,,,,,,,,171.3746,171.8841,,,172.1202,172.5546,right,,,,,,,,0.5,0.4211,,,,,,,171.8843,172.1201,172.5547,"[0.010426997519303092,-0.1220767752377572]",4.0,"[0.09483234443099237,-0.06461455914921926]",4.0,"[0.07741980432826867,-0.01852706199110508]",4.0,"[-0.04364016234249791,-0.12965439818402405]",100.0,"[0.16215482171899445,0.042606502225624766]",100.0,"[-0.12145367195938611,-0.1193289497741426]",100.0,"[-0.1257320575308786,-0.03782998159903373]",100.0,"[0.10542537542841934,0.1054039369040205]",4.0,"[0.020955236577131536,0.14601942092176834]",4.0,"[-0.1275242837486905,0.1108244750346861]",4.0,"[0.18100853087820043,-0.022903997473027935]",100.0,"[-0.1011864044923506,0.04423697620542728]",4.0,"[0.03794369395902297,-0.0033447586288903337]",100.0,"[0.14112265764741394,-0.07605115937419143]",4.0,"[-0.044901870548742444,-0.024590398786310134]",100.0,"[-0.04963028777209553,0.019834841611350185]",4.0,"[0.13016277775257365,0.018203338106896592]",100.0,"[0.08548654806852826,-0.14169804914693857]",100.0,"[0.13716964467677906,-0.13535457179390284]",100.0,"[-0.1702180252063206,0.04452817993327968]",4.0,"[-0.04019451654436077,-0.1742593869513737]",100.0,"[-0.10058272244458631,-0.06953803160398533]",100.0,"[-0.03216410734798486,-0.07555853133015906]",4.0,"[-0.00782493131174674,0.05501686169851476]",100.0,"[-0.15678608693632484,-0.009085450665924451]",4.0,"[-0.0763659208443534,0.13548030205158457]",100.0,"[-0.05486033926249935,0.06282945024808193]",4.0,"[0.07378021013625624,0.07121701251604358]",100.0,"[-0.02978438399903176,0.17357312991848645]",4.0,"[-0.15263838462997376,-0.07494400383241816]",4.0,"[-0.032639888637720646,0.12871848879622794]",4.0,"[0.032524848541140225,-0.07236345464221709]",100.0,"[0.02,0.02]",173.6522,0.0,35.0,35.0,113.0,1.0,,,,,,,
,,,,,,,6691fe909352702ee451b38e,684428c773935a8d5b9b876a,2025-06-07_13h57.47.211,shape_ratio,2024.1.5,Win32,59.88023952,684250e4f00cb30b92d1fa88,,,,,,,,,,,173.654,174.1553,,,174.3845,174.7925,right,,,,,,,,0.1,0.3939,,,,,,,174.1553,174.3845,174.7925,"[-0.07554545209119251,-0.09143780385847769]",100.0,"[0.012540580581126353,-0.1921034587575699]",4.0,"[0.1329326368724631,0.033490827564789494]",4.0,"[0.05024923095804394,-0.04763066072837813]",4.0,"[-0.18347790337287267,0.07301059434262194]",4.0,"[-0.019967825896223004,-0.168529787723559]",4.0,"[0.0985173730796367,0.1300086867418333]",4.0,"[0.05017146611113136,0.061280462528717404]",4.0,"[0.10648725691274721,-0.10606991880899633]",4.0,"[-0.031133448629552755,0.12020820689863926]",4.0,"[0.1765545668517068,0.009605721099415848]",4.0,"[-0.11415111633020261,0.11722959073265533]",4.0,"[0.13577289822764,-0.056206879613675174]",4.0,"[-0.030669417252493704,0.17893440369954275]",4.0,"[-0.12937315658065066,-0.14448365690865167]",4.0,"[0.002116376102572611,-0.05551824078255332]",4.0,"[0.10695288150302484,-0.022187337316396757]",4.0,"[0.0032675485719451903,0.019933554613237727]",4.0,"[-0.08156572776313922,0.0408366380491787]",4.0,"[-0.09781425144157904,-0.046122830349806215]",4.0,"[-0.14996247512890198,-0.09323584033954795]",100.0,"[-0.03954564953912126,0.06565979401003179]",4.0,"[0.07628364177467467,-0.1673008363492263]",4.0,"[0.02053913645744076,0.1742824600914444]",4.0,"[0.09299860119474626,0.02454919296575685]",100.0,"[0.19002555029959828,-0.06039515733607294]",4.0,"[-0.11844081477318191,0.024423237237731064]",4.0,"[0.13444170504656208,0.10125830507399965]",4.0,"[-0.13776307052533174,0.06406652447088845]",4.0,"[-0.03787557922749563,-0.13009675617465413]",4.0,"[0.1477808228230746,-0.10701595595147319]",4.0,"[0.04156174470250193,-0.132845900161707]",4.0,"[0.02,0.02]",175.8843,0.0,36.0,36.0,184.0,1.0,,,,,,,
,,,,,,,6691fe909352702ee451b38e,684428c773935a8d5b9b876a,2025-06-07_13h57.47.211,shape_ratio,2024.1.5,Win32,59.88023952,684250e4f00cb30b92d1fa88,,,,,,,,,,,175.8851,176.3717,,,176.6239,177.1471,left,,,,,,,,0.9,0.5008,,,,,,,176.3718,176.6239,177.1472,"[0.14067685852301007,-0.07501338003967038]",100.0,"[-0.05091545629793719,0.11684467059733761]",100.0,"[-0.14047008621047818,-0.07000947963041193]",100.0,"[0.1854150311516113,-0.0036446825454155476]",100.0,"[-0.17886180389483264,0.033161430155617844]",100.0,"[-0.09692811039006187,0.17376708937035965]",100.0,"[-0.08840675167594991,0.030631872741442075]",100.0,"[0.09583777492417944,0.17293691932783678]",4.0,"[-0.09017274244345436,-0.16966865072135093]",100.0,"[-0.1015421892691323,-0.08806691632990334]",100.0,"[-0.0025426031513053025,0.09131770836767172]",100.0,"[0.10985280881265021,-0.15663364531575993]",100.0,"[0.1509680773743796,0.0764622813639129]",100.0,"[-0.09231742173204228,0.0866605996336449]",100.0,"[0.049358606967138216,0.1678911282767464]",100.0,"[-0.004688613482955483,0.14013652315092914]",100.0,"[-0.030576441770235486,-0.12291052873669396]",4.0,"[-0.19334495599149823,-0.011230105146412843]",100.0,"[0.023315434427922468,-0.011047742808618049]",100.0,"[-0.01863388340352568,-0.01237994370596614]",100.0,"[0.06053599167972732,-0.07178028320089198]",100.0,"[0.04843612822770729,0.06984149401891446]",100.0,"[0.14071628826510765,0.02459755698482027]",100.0,"[0.0874684616002041,-0.006609440635838941]",100.0,"[-0.0805260580360569,-0.010157191682227317]",100.0,"[0.01468488602548753,0.0351524065888375]",100.0,"[0.18608962885397304,-0.07225141030864439]",4.0,"[0.04750048440815411,-0.15372291286585452]",100.0,"[0.14439669899747534,-0.1322598807330782]",100.0,"[0.1225245670781318,0.11937372251705988]",100.0,"[0.011056111109102587,-0.06409594163475883]",100.0,"[0.0026811493817516597,-0.1655021340949567]",100.0,"[0.02,0.02]",178.2473,0.0,37.0,37.0,22.0,1.0,,,,,,,
,,,,,,,6691fe909352702ee451b38e,684428c773935a8d5b9b876a,2025-06-07_13h57.47.211,shape_ratio,2024.1.5,Win32,59.88023952,684250e4f00cb30b92d1fa88,,,,,,,,,,,178.248,178.7487,,,178.9971,179.4829,right,,,,,,,,0.4,0.4654,,,,,,,178.7487,178.997,179.4829,"[0.16849307461031707,0.09983551935191076]",100.0,"[-0.08440870171891862,0.05789272686231332]",4.0,"[-0.17449428801492786,-0.016662580824394407]",4.0,"[0.09746286023697309,-0.12635506099364116]",4.0,"[-0.06661668206655716,-0.033520335439774375]",100.0,"[0.17636488434416359,0.058788121424361885]",4.0,"[-0.03580784451536497,-0.1904342564375145]",4.0,"[0.02510072851786134,-0.18948543047850464]",4.0,"[-0.12757003845957648,0.04427055871181187]",100.0,"[-0.057842884500721004,-0.12394557015488437]",100.0,"[0.007721607577116999,0.05948588048773213]",4.0,"[-0.0004531708416010553,-0.07458248818481071]",100.0,"[0.08612209710083489,0.10963435439480942]",100.0,"[-0.07940806985804982,0.1719255942853086]",100.0,"[-0.18055999950980534,0.04017794843585962]",4.0,"[-0.1325924693357516,-0.061953248593397035]",4.0,"[0.0324114739982123,-0.1320451690640363]",100.0,"[-0.05690291874287923,0.011732368419882613]",100.0,"[0.06943016496130733,0.1531711341057163]",4.0,"[0.11837310996061305,0.03786435926002147]",4.0,"[0.13481198782471723,-0.0030516615244007947]",4.0,"[0.028786209674370018,0.1810260273704918]",100.0,"[0.06217540485843578,0.0049562265691993415]",4.0,"[-0.0201567826349987,0.0999650399596239]",4.0,"[0.061564688463117044,-0.043647549853830646]",100.0,"[-0.09172300693524625,-0.08413750176069426]",4.0,"[0.13521967596154388,0.07513393574991584]",100.0,"[-0.0021618497930077298,-0.15678316049870972]",4.0,"[0.012273813435571327,0.1335527762258513]",4.0,"[-0.0038746560717722767,-0.012880678474681292]",4.0,"[0.10225647689981922,-0.1664364467668205]",4.0,"[-0.15579861842149087,-0.10884098263325753]",100.0,"[0.02,0.02]",180.5777,0.0,38.0,38.0,171.0,1.0,,,,,,,
,,,,,,,6691fe909352702ee451b38e,684428c773935a8d5b9b876a,2025-06-07_13h57.47.211,shape_ratio,2024.1.5,Win32,59.88023952,684250e4f00cb30b92d1fa88,,,,,,,,,,,180.5785,181.0814,,,181.3333,181.6901,right,,,,,,,,0.1,0.346,,,,,,,181.0815,181.3332,181.6901,"[0.12164183710599254,-0.021189779748971585]",100.0,"[-0.047032010027897135,0.17204226884186025]",4.0,"[-0.1061409129560197,0.02277377474779509]",4.0,"[-0.09331317988778824,0.15327453939223262]",4.0,"[0.1348998332706215,0.02568628615813073]",4.0,"[0.19548730595700553,0.007878127899563877]",4.0,"[-0.12715626475957756,0.05917509837164333]",4.0,"[0.12629898193313766,0.1519917412552637]",4.0,"[0.07009218161781207,0.14121390132760023]",4.0,"[0.15897894590873543,0.09888393044542435]",4.0,"[0.0118567003706016,0.1933958482278609]",4.0,"[-0.05836139168374475,0.007668931539967947]",4.0,"[0.039473242183447936,-0.09301486262402954]",4.0,"[-0.002505653496733061,-0.08899461226018737]",4.0,"[0.0018762523837423846,-0.1826953099604543]",4.0,"[0.014204071806351592,0.019523819379216]",4.0,"[0.06302066112769135,-0.15503989903027912]",4.0,"[-0.04642878489444734,-0.046101745675283294]",4.0,"[0.01760083979089136,0.09664131441001857]",4.0,"[-0.144602549455367,-0.09389331423068749]",4.0,"[-0.04523839981877498,0.07093595662576027]",4.0,"[0.0012094611577361809,-0.04048435615368709]",4.0,"[0.16088401612227315,-0.11453003892929749]",4.0,"[-0.08872723553461549,-0.08182827154433647]",100.0,"[-0.023672896652388097,0.13821271641957777]",4.0,"[-0.13103354818959367,0.12471362141091355]",100.0,"[-0.17541545688512705,0.012952914673644879]",4.0,"[-0.15691391258406664,-0.05127094072503542]",4.0,"[0.12827302888393916,-0.07300524279020432]",4.0,"[0.09251398605084729,-0.11120897363523913]",4.0,"[-0.07090967652683008,-0.13103054279625106]",4.0,"[0.07262533254248735,0.0667200584141883]",4.0,"[0.02,0.02]",182.7883,0.0,39.0,39.0,195.0,1.0,,,,,,,
,,,,,,,6691fe909352702ee451b38e,684428c773935a8d5b9b876a,2025-06-07_13h57.47.211,shape_ratio,2024.1.5,Win32,59.88023952,684250e4f00cb30b92d1fa88,,,,,,,,,,,182.7889,183.2883,,,183.5384,183.9891,right,,,,,,,,0.55,0.4345,,,,,,,183.2883,183.5383,183.9892,"[-0.03466806959180132,0.1620115627615232]",100.0,"[0.028694358520229623,0.09743065338574404]",4.0,"[0.010158125169731148,-0.06082461503805834]",4.0,"[0.1378761783684012,0.05687865863695165]",100.0,"[0.08283011445054865,-0.09029974772238944]",4.0,"[-0.17080122407478887,-0.09108466537008528]",100.0,"[0.0072158537420184046,-0.14619282574547424]",100.0,"[0.16439750328391345,0.023083552032383214]",4.0,"[0.024849844201969153,-0.0134108487587248]",4.0,"[-0.09111938715695157,0.05461422571260181]",100.0,"[0.03189286604498367,0.03399092286139594]",4.0,"[0.04620460053037525,0.15234520377937077]",4.0,"[0.04769075316940131,-0.14532816115241745]",100.0,"[-0.05295080186761409,-0.027393145666828347]",100.0,"[-0.1989904182517899,-0.003946068921928707]",4.0,"[-0.10998701639638608,-0.09639933391779201]",100.0,"[-0.014179270275154168,-0.18962116624136893]",100.0,"[0.13633623986041807,-0.0734381408181362]",4.0,"[-0.15776635812403383,-0.03848821992146488]",100.0,"[-0.0791173992531753,0.010888028042094147]",4.0,"[0.1681666851467934,-0.029624515162393967]",100.0,"[-0.0547651769992338,-0.15157849575225968]",100.0,"[0.09716029083466714,0.03304634776208573]",100.0,"[0.08806112172651634,0.07536145328526676]",4.0,"[0.1794411309295568,0.06650776905439373]",100.0,"[-0.12076602013751672,0.1264812918082249]",4.0,"[0.13030552181670796,-0.11325619779391868]",4.0,"[0.09547193121759215,-0.04919445040147823]",100.0,"[-0.14342124669026537,0.06087859724571064]",100.0,"[-0.07160871870132865,0.12777963123485145]",100.0,"[-0.04484306079767383,-0.07158334379996498]",100.0,"[-0.03081724307146109,0.07504522656475515]",4.0,"[0.02,0.02]",185.0881,0.0,40.0,40.0,74.0,1.0,,,,,,,
,,,,,,,6691fe909352702ee451b38e,684428c773935a8d5b9b876a,2025-06-07_13h57.47.211,shape_ratio,2024.1.5,Win32,59.88023952,684250e4f00cb30b92d1fa88,,,,,,,,,,,185.0891,185.5878,,,185.8388,186.2383,left,,,,,,,,0.6,0.3826,,,,,,,185.5879,185.8386,186.2387,"[0.11340235495148265,-0.049413190894784825]",100.0,"[-0.17559538172224953,0.025771975572715707]",4.0,"[-0.10670886101884168,-0.08710063623874494]",100.0,"[0.17799305144357805,0.02300675728313064]",4.0,"[-0.05100263137907827,-0.13941141566940346]",100.0,"[0.013420161679882801,0.056389119448858875]",100.0,"[0.05049129104043589,0.07456174691508904]",100.0,"[-0.04093905075197051,0.011963432184386722]",4.0,"[0.07694435114136627,0.029117820648395822]",100.0,"[-0.13975307448539165,-0.015591574903604157]",100.0,"[0.10377242839485197,0.1678076780021788]",4.0,"[0.15520357396746404,-0.11241602769534229]",100.0,"[-0.03570590814851795,-0.08967544750972964]",4.0,"[-0.07850554786072468,-0.00803537263575825]",4.0,"[0.1528544911073233,0.09533179882662599]",4.0,"[0.05083713545704769,0.16748094055794108]",4.0,"[-0.013034522826143126,0.13154563735163335]",4.0,"[-0.024431083420779747,0.08978507757556732]",100.0,"[-0.09849460259365593,0.038564755418113016]",4.0,"[-0.08402429696397778,-0.16620125749417697]",4.0,"[-0.07741663982582964,0.12633061143694552]",100.0,"[-0.12133721678707798,0.10107175504515355]",100.0,"[0.1336632341087398,0.013178013995730924]",100.0,"[-0.005416936211698583,-0.04178779121069749]",100.0,"[-0.10123731054668234,-0.044309971501646624]",100.0,"[0.05554168976524035,-0.13308036594673087]",100.0,"[-0.06480942822363951,0.16701858429647068]",4.0,"[-0.04972369692143584,-0.1907942878721327]",4.0,"[0.023989380117451078,-0.1825513165186769]",100.0,"[0.0797657297795969,-0.013336246982695938]",100.0,"[0.1641700431978534,-0.028758472709102267]",100.0,"[0.10675288276282247,-0.14049852935641052]",100.0,"[0.02,0.02]",187.3376,0.0,41.0,41.0,44.0,1.0,,,,,,,
,,,,,,,6691fe909352702ee451b38e,684428c773935a8d5b9b876a,2025-06-07_13h57.47.211,shape_ratio,2024.1.5,Win32,59.88023952,684250e4f00cb30b92d1fa88,,,,,,,,,,,187.3385,187.8376,,,188.0888,188.6558,right,,,,,,,,0.5,0.5557,,,,,,,187.8377,188.0887,188.6559,"[0.15069034079126883,0.015797674897828903]",4.0,"[-0.0454182322887934,-0.09718982946675261]",100.0,"[-0.014563331636843254,-0.020455354632303028]",4.0,"[-0.1125687239931915,0.019918421732922374]",100.0,"[-0.08393143244946784,-0.17063682742122485]",100.0,"[-0.14485033077456833,0.046262403728438095]",4.0,"[-0.0016523204906464032,0.06750348097452613]",100.0,"[-0.08104213615404682,0.07238873723056889]",4.0,"[0.03626542477394104,-0.015438905232473883]",100.0,"[0.038184751979941485,0.13699996979276874]",4.0,"[0.04220665095163435,0.02525630771846601]",4.0,"[0.0007726226739448349,-0.11172398150579856]",100.0,"[0.16547350128204255,0.09901865464231298]",4.0,"[-0.030003111144852313,0.16711627932037035]",100.0,"[0.0256657213086744,-0.07662389361682725]",4.0,"[0.15573319832900576,-0.11194722592308878]",100.0,"[0.09071421627740923,-0.003254580696288626]",4.0,"[0.10065975157836844,0.14987735238993505]",4.0,"[-0.052608213772476306,0.0069225962951566435]",100.0,"[0.09200804972139576,-0.07962684430774902]",100.0,"[-0.07366840120641723,0.1127865092172244]",100.0,"[-0.1546373061342153,-0.08901754544721897]",4.0,"[-0.027807557141132023,0.11528432182533016]",100.0,"[0.037403819790038484,-0.1367303909464911]",4.0,"[0.09020003698015658,-0.15988087517025923]",4.0,"[-0.1535499772398656,0.09776003105408738]",100.0,"[0.12379684265862301,0.059200337910960944]",100.0,"[0.16833763035274352,-0.06192309816134075]",100.0,"[-0.08767020914502324,-0.047248623032794146]",4.0,"[-0.0467898050894573,0.05108141249953813]",4.0,"[0.057308001258066815,0.19103944577227583]",4.0,"[0.0025349007404651042,0.19268708496356973]",100.0,"[0.02,0.02]",189.7546,0.0,42.0,42.0,117.0,1.0,,,,,,,
,,,,,,,6691fe909352702ee451b38e,684428c773935a8d5b9b876a,2025-06-07_13h57.47.211,shape_ratio,2024.1.5,Win32,59.88023952,684250e4f00cb30b92d1fa88,,,,,,,,,,,189.7553,190.2544,,,190.5048,190.988,right,,,,,,,,0.45,0.4675,,,,,,,190.2544,190.5048,190.9881,"[-0.00847716110821516,0.032892794961224096]",4.0,"[0.05037223087023489,-0.1384690809929871]",100.0,"[-0.03621066121520401,-0.1471332755169015]",100.0,"[0.04910552579720578,0.13153075298170203]",4.0,"[0.10412191653989993,-0.06576712950610901]",100.0,"[0.015609252768445792,0.15665396140566606]",4.0,"[0.09356410154143531,0.0962837209463979]",100.0,"[0.018662418709420273,-0.1055131666228182]",4.0,"[-0.10620041030410299,0.14279809478712607]",100.0,"[-0.15638563706886008,-0.06897501781673199]",100.0,"[-0.08947150271254782,0.03303453698192158]",4.0,"[-0.07762592481735174,0.0765059122795207]",100.0,"[0.13585055391968512,0.13402149864781127]",4.0,"[-0.12704116706008983,-0.1002361519956346]",100.0,"[-0.07020555455652651,-0.10544439033604733]",100.0,"[0.09782681464829955,-0.1268621028194363]",100.0,"[0.002630594197797497,-0.01825561453311169]",4.0,"[0.18911416255471455,-0.020074215644282217]",100.0,"[0.07872637620264854,-0.006891627462896206]",4.0,"[0.1400836536651283,0.0200396136653606]",4.0,"[-0.00732770378722052,0.09136251211568991]",4.0,"[-0.1429159497052999,0.10204592276713162]",100.0,"[0.10766692717065761,0.051915081104417796]",4.0,"[0.14672672838677137,-0.07355828229959667]",4.0,"[0.1782282331714481,0.07322894585998081]",4.0,"[0.0570249221206134,-0.07842108309103785]",4.0,"[0.018496521966802373,-0.17680948649588105]",4.0,"[-0.03689283738727706,-0.06634700550469598]",4.0,"[-0.11966793738832088,-0.0507411823017746]",4.0,"[0.03892088161683343,0.012449187403798379]",100.0,"[-0.05810246031008225,-0.025313745919982145]",100.0,"[-0.1200350615155505,0.005363542995648343]",4.0,"[0.02,0.02]",192.0876,0.0,43.0,43.0,142.0,1.0,,,,,,,
,,,,,,,6691fe909352702ee451b38e,684428c773935a8d5b9b876a,2025-06-07_13h57.47.211,shape_ratio,2024.1.5,Win32,59.88023952,684250e4f00cb30b92d1fa88,,,,,,,,,,,192.0885,192.5876,,,192.8382,193.373,right,,,,,,,,0.45,0.5215,,,,,,,192.5877,192.8382,193.3731,"[-0.09189011170227894,0.17230056271329075]",4.0,"[0.13398182360731822,0.01032162565601942]",100.0,"[0.12928861833926403,0.12720959645734095]",100.0,"[-0.009417540352187961,-0.041919798281481624]",100.0,"[0.14319642464785778,0.05443421196507374]",4.0,"[-0.08268030046322003,-0.09099626808856713]",4.0,"[-0.059850049735479575,0.1004682254461471]",4.0,"[0.06450357990052678,0.15657119085727533]",4.0,"[0.04734763165165518,0.10522386547045981]",100.0,"[0.1721632869927841,-0.06356275078963337]",4.0,"[0.0030624610832902716,-0.10834457191630147]",4.0,"[0.0053166615331259525,-0.17595686451909484]",100.0,"[0.18828099561389147,0.007603710573580575]",4.0,"[0.10864188314264206,0.1620729091041727]",4.0,"[-0.11884077910502117,-0.12666094471317813]",100.0,"[0.040610884140596375,0.04602816936585551]",4.0,"[-0.007053727876571151,0.18311673829742423]",100.0,"[-0.038565117006085406,0.05728913746703433]",100.0,"[0.08063857832715512,-0.04376323572200804]",100.0,"[0.04702986348519977,-0.16738114717856814]",100.0,"[-0.09372178990194847,-0.00036541406336272294]",4.0,"[-0.1640694879673246,0.09605470190618987]",100.0,"[0.14765126699244477,-0.11299283716768656]",4.0,"[-0.13971230555029124,0.018289592811237522]",4.0,"[-0.013429802182337252,0.11366312130654682]",100.0,"[-0.0665523986136831,-0.15467465387962848]",100.0,"[0.10784695779805437,-0.10419061879991116]",100.0,"[-0.15550266996100454,-0.08922078709112007]",4.0,"[0.020779169161752348,0.0014604571888972343]",4.0,"[-0.16509203354776342,-0.027625079982276438]",4.0,"[0.10632601488009508,0.07508201659015785]",4.0,"[-0.09773179750128308,0.04362068752181127]",4.0,"[0.02,0.02]",194.4708,0.0,44.0,44.0,128.0,1.0,,,,,,,
,,,,,,,6691fe909352702ee451b38e,684428c773935a8d5b9b876a,2025-06-07_13h57.47.211,shape_ratio,2024.1.5,Win32,59.88023952,684250e4f00cb30b92d1fa88,,,,,,,,,,,194.4716,194.9709,,,195.2215,196.0881,right,,,,,,,,0.55,0.8515,,,,,,,194.9709,195.2214,196.0881,"[0.007943744586739009,-0.14370696404485642]",100.0,"[0.018868455338078224,0.15201451335696603]",4.0,"[0.11911542560285937,-0.0033822581871478623]",100.0,"[0.05310262191422957,0.180348565293815]",100.0,"[-0.0527189153469629,0.12787245382818382]",100.0,"[-0.03646058359116809,0.17515746262874046]",4.0,"[-0.07534019561864128,-0.06266873386737391]",4.0,"[-0.11082788007927451,0.08315147309228321]",100.0,"[0.07012231227500679,-0.020546919311100413]",100.0,"[0.13319026230607328,0.08311966532959546]",100.0,"[-0.06532729769307416,-0.1647894163526767]",100.0,"[-0.09919655747203021,-0.0012841537291117765]",4.0,"[-0.09029613634554282,0.17162720109823118]",100.0,"[0.14364765365891063,-0.1068681085728941]",100.0,"[0.1729836900569407,-0.06211843892874678]",100.0,"[-0.18315253567306042,-0.047416690037588465]",4.0,"[0.08108664169414002,0.05681247358625265]",4.0,"[-0.15886252073490512,-0.11748718965236166]",100.0,"[0.044797783808598626,-0.0960416633192894]",100.0,"[-0.07065545803627757,0.05612222030008438]",4.0,"[-0.15401979273595467,0.11350792974541267]",4.0,"[-0.01664533261548678,-0.18136618027022156]",4.0,"[0.11562043890988875,-0.054855018873991614]",100.0,"[-0.050311309195918086,-0.1247588375665935]",4.0,"[0.16717522850879638,0.05868778097810999]",4.0,"[-0.11079934407736064,-0.08209979710822912]",4.0,"[0.036187667576366746,0.055438181648143514]",100.0,"[-0.001572172522798719,0.19590767358124433]",4.0,"[-0.16867083523694823,0.01131468641002714]",100.0,"[0.04804782188316296,-0.18630061327684966]",100.0,"[-0.03487601515479096,-0.023781574631593007]",4.0,"[0.10122130980273888,-0.13650721139281224]",100.0,"[0.02,0.02]",197.1873,0.0,45.0,45.0,86.0,1.0,,,,,,,
,,,,,,,6691fe909352702ee451b38e,684428c773935a8d5b9b876a,2025-06-07_13h57.47.211,shape_ratio,2024.1.5,Win32,59.88023952,684250e4f00cb30b92d1fa88,,,,,,,,,,,197.1882,197.6873,,,197.9312,198.3574,left,,,,,,,,0.9,0.4111,,,,,,,197.6873,197.931,198.3574,"[-0.022643677098312415,-0.1504693848946108]",100.0,"[-0.12456189977696164,0.00091381614927029]",100.0,"[-0.09046629378750182,-0.03613646825868778]",100.0,"[-0.10180784873617993,0.058542288287785404]",100.0,"[0.12393475083176408,0.08170200242007185]",100.0,"[0.177240917680205,-0.038675609672941924]",100.0,"[0.022504085950839883,-0.1243555887811801]",100.0,"[0.07145292660625376,0.1269619109796522]",100.0,"[-0.14479913256796362,0.07714329792750864]",100.0,"[0.0654758744467856,-0.10034577961853147]",100.0,"[-0.022474023605424675,0.09113831196657562]",100.0,"[-0.09192010567629208,0.15417829586570775]",100.0,"[-0.09693124952035952,-0.1324875473559797]",100.0,"[-0.05460675959738693,-0.11508506996599117]",100.0,"[-0.07001602274108311,0.028508731126368765]",100.0,"[-0.024900423702090745,-0.06200600274886283]",4.0,"[0.02135279759371959,-0.014208477799383055]",100.0,"[-0.05577309865071249,-0.1866044584672479]",100.0,"[0.16759333983250896,0.07698971148053509]",100.0,"[-0.03491557159652218,0.13299068373165385]",4.0,"[-0.0005059578459124437,0.1550917763604903]",100.0,"[0.04754630211570989,-0.05111751705138297]",100.0,"[0.16910290476627887,-0.080546214083601]",100.0,"[0.08603986370674421,-0.010023943742892864]",100.0,"[-0.15803855235741573,-0.10585617362063181]",100.0,"[0.018467557969127534,-0.17375200260917914]",4.0,"[0.06244574663927682,0.05459286846556127]",100.0,"[0.1400888887049674,-0.14018918886959292]",100.0,"[0.10354059375467113,0.044450398585713875]",100.0,"[0.10564272449346497,-0.07110762065048275]",100.0,"[-0.164943897446526,-0.05547228754689264]",100.0,"[0.014219075661819906,0.19240595832571808]",100.0,"[0.02,0.02]",199.4542,0.0,46.0,46.0,9.0,1.0,,,,,,,
,,,,,,,6691fe909352702ee451b38e,684428c773935a8d5b9b876a,2025-06-07_13h57.47.211,shape_ratio,2024.1.5,Win32,59.88023952,684250e4f00cb30b92d1fa88,,,,,,,,,,,199.4549,199.955,,,200.2062,200.6895,left,,,,,,,,0.9,0.4677,,,,,,,199.9552,200.2061,200.6896,"[-0.047522434899356196,-0.0792501672593255]",100.0,"[-0.15117614810245064,-0.1210761566234135]",100.0,"[0.012394907690748705,-0.16715660188090148]",100.0,"[-0.11063113190787553,-0.019721113319236133]",100.0,"[0.05058084769555481,-0.0008836842150857982]",100.0,"[0.06602974598430922,-0.1634153281287175]",100.0,"[0.11078203990690717,-0.013956279674411655]",100.0,"[-0.023709679409189156,0.04305209642686342]",100.0,"[0.16716455457753107,0.015186542168126857]",100.0,"[-0.12213386651836568,0.12945538094935566]",4.0,"[-0.08625309601263596,-0.0949049571079711]",100.0,"[0.07212306420660147,-0.03731330962034649]",100.0,"[0.14141846378457562,-0.06438486463470149]",100.0,"[0.018017898111440334,-0.0937760478839764]",100.0,"[0.04116832719126628,0.16730043955228474]",100.0,"[0.1871099843762727,-0.06947437157351892]",4.0,"[0.1045622468368642,0.10578635486199328]",100.0,"[-0.020126600912449968,-0.020286685890319883]",100.0,"[0.14904383645778954,-0.1252218308479793]",100.0,"[-0.1571458427987169,-0.01074025736427065]",100.0,"[-0.09770224434266975,-0.17078642297077942]",100.0,"[0.11509805731477361,-0.09918111668414677]",100.0,"[0.1561614768793546,0.07768043335210054]",100.0,"[-0.15130310191716512,0.08150358588156688]",100.0,"[-0.0458247753397496,0.17889188353957564]",4.0,"[-0.04898172433168348,0.09936250852541541]",100.0,"[0.014052183764306033,0.19813868481602545]",100.0,"[-0.19185800136169917,-0.055434839043682724]",100.0,"[0.02713762646160991,0.1293623041257318]",100.0,"[0.09316792294461132,0.03157397744607895]",100.0,"[-0.13611809132419495,0.04336673748088327]",100.0,"[-0.07256987158156125,-0.1327049650441037]",100.0,"[0.02,0.02]",201.7874,0.0,47.0,47.0,26.0,1.0,,,,,,,
,,,,,,,6691fe909352702ee451b38e,684428c773935a8d5b9b876a,2025-06-07_13h57.47.211,shape_ratio,2024.1.5,Win32,59.88023952,684250e4f00cb30b92d1fa88,,,,,,,,,,,201.788,202.2871,,,202.5377,203.3375,right,,,,,,,,0.55,0.7841,,,,,,,202.2872,202.5376,203.3376,"[-0.032579592061518815,-0.1839853029399656]",100.0,"[0.07143154548897124,-0.17795817192146912]",100.0,"[-0.018786961309757683,0.09443965695769072]",4.0,"[-0.0639824669340697,0.05832929775423575]",4.0,"[-0.006639164547263841,-0.12444238734933552]",100.0,"[-0.037045018695664844,0.13804288993753]",100.0,"[-0.14389659788389006,-0.0900470612869994]",4.0,"[0.051233945969206836,0.029257230872405643]",100.0,"[-0.0506239153116875,-0.12087542818245613]",100.0,"[-0.08069599109593291,0.00906822648727637]",100.0,"[-0.11403054373338961,-0.030118179153845723]",4.0,"[0.08188701434202905,-0.035958003594714995]",100.0,"[0.004363352526372057,0.030126052223726624]",4.0,"[0.12669245499525003,-0.10654649254371157]",100.0,"[0.026823656759317357,0.0705337274413548]",100.0,"[-0.07183206060546515,-0.1589216318517769]",100.0,"[-0.06610424632401365,0.16788366611070296]",4.0,"[0.12901492501804146,0.11275049325348993]",4.0,"[-0.13205280396078,0.1160354745642768]",100.0,"[0.04428131491861357,-0.11315805756779533]",100.0,"[-0.03790870340826489,0.026096176467844116]",4.0,"[0.08522058138917926,0.1312464889590482]",4.0,"[-0.15391671261648723,0.028389369507016322]",100.0,"[0.1646959904141574,0.05901626792903241]",100.0,"[-0.1714772441933352,0.09237938066348325]",4.0,"[-0.03328837266348645,-0.02101148734101383]",4.0,"[-0.04301795659664054,-0.07268214752760167]",4.0,"[0.11392736565712494,0.04292094420665636]",4.0,"[0.012498159037349677,-0.028968454421770432]",100.0,"[-0.19409500099148919,-0.010693157102252167]",100.0,"[0.1705724549112244,-0.0281145916534109]",4.0,"[-0.13385040147383687,-0.14540589975688506]",100.0,"[0.02,0.02]",204.437,0.0,48.0,48.0,61.0,1.0,,,,,,,
,,,,,,,6691fe909352702ee451b38e,684428c773935a8d5b9b876a,2025-06-07_13h57.47.211,shape_ratio,2024.1.5,Win32,59.88023952,684250e4f00cb30b92d1fa88,,,,,,,,,,,204.4379,204.9368,,,205.1879,206.2042,right,,,,,,,,0.45,1.0008,,,,,,,204.9368,205.1879,206.2042,"[0.10834465161257066,0.0009049586319617966]",100.0,"[0.051391633197012586,-0.19250491720206242]",100.0,"[-0.022520507399142665,-0.01951296159797992]",4.0,"[0.06432522500307332,-0.11725208484622371]",100.0,"[0.10928701610962703,0.09949918350567825]",100.0,"[0.002485643946694443,0.1968411700460504]",4.0,"[-0.039320648224059104,-0.11245856348294613]",100.0,"[-0.036168344108897174,0.07209538387701563]",4.0,"[0.059484367216687546,0.015045756368581194]",4.0,"[-0.1430971706579462,-0.005674285106201953]",100.0,"[-0.0686638501019347,-0.02778491299905858]",100.0,"[-0.047717843308712295,0.018046902808270784]",4.0,"[0.19067814379005343,-0.013069873607983224]",4.0,"[0.0007068093909309314,-0.0641183308318997]",4.0,"[0.05769024276116047,0.08062590403994874]",100.0,"[0.1434724860031382,-0.08924482233352286]",4.0,"[-0.0003545127365146392,-0.19160106912269753]",100.0,"[0.0029534759424201177,0.0376247082234084]",100.0,"[0.15134134408677344,0.07926916909038802]",4.0,"[0.040217667972599125,-0.026784399557705868]",100.0,"[0.12099113290635562,-0.12407252867390735]",4.0,"[0.026481264591088263,0.1543431981782125]",4.0,"[-0.0828494386668205,-0.06743857409769466]",4.0,"[0.03024303188946557,-0.1585126989124511]",100.0,"[-0.12045659825200267,0.0361463090532242]",100.0,"[-0.04160743624392368,-0.18922408911886862]",4.0,"[-0.07844221098897435,0.13348209494736205]",4.0,"[-0.04166038102859592,0.1780280857692178]",4.0,"[0.05453247798637698,0.19157736791015703]",4.0,"[0.1803636685305868,-0.054417481083291315]",4.0,"[-0.11959608717652609,0.12667659365525122]",100.0,"[-0.09644142417280863,-0.1640358538763977]",4.0,"[0.02,0.02]",207.3035,0.0,49.0,49.0,146.0,1.0,,,,,,,
