right,left,explain.started,explain.stopped,key_resp_3.keys,key_resp_3.rt,key_resp_3.duration,participant,session,date,expName,psychopyVersion,OS,frameRate,study_id,explain_2.started,explain_2.stopped,key_resp_4.keys,key_resp_4.rt,key_resp_4.duration,explain_3.started,explain_3.stopped,key_resp_5.keys,key_resp_5.rt,key_resp_5.duration,fixation.started,fixation.stopped,practice.started,practice.stopped,response.started,response.stopped,key_resp.keys,feedback.started,feedback.stopped,trials_2.thisRepN,trials_2.thisTrialN,trials_2.thisN,trials_2.thisIndex,trials_2.ran,dot_ratio,key_resp.rt,key_resp.duration,explain_4.started,explain_4.stopped,key_resp_6.keys,key_resp_6.rt,key_resp_6.duration,dotDisplay.started,dotDisplay.stopped,ITI.started,polygon_1.pos,polygon_1.edges,polygon_2.pos,polygon_2.edges,polygon_3.pos,polygon_3.edges,polygon_4.pos,polygon_4.edges,polygon_5.pos,polygon_5.edges,polygon_6.pos,polygon_6.edges,polygon_7.pos,polygon_7.edges,polygon_8.pos,polygon_8.edges,polygon_9.pos,polygon_9.edges,polygon_10.pos,polygon_10.edges,polygon_11.pos,polygon_11.edges,polygon_12.pos,polygon_12.edges,polygon_13.pos,polygon_13.edges,polygon_14.pos,polygon_14.edges,polygon_15.pos,polygon_15.edges,polygon_16.pos,polygon_16.edges,polygon_17.pos,polygon_17.edges,polygon_18.pos,polygon_18.edges,polygon_19.pos,polygon_19.edges,polygon_20.pos,polygon_20.edges,polygon_21.pos,polygon_21.edges,polygon_22.pos,polygon_22.edges,polygon_23.pos,polygon_23.edges,polygon_24.pos,polygon_24.edges,polygon_25.pos,polygon_25.edges,polygon_26.pos,polygon_26.edges,polygon_27.pos,polygon_27.edges,polygon_28.pos,polygon_28.edges,polygon_29.pos,polygon_29.edges,polygon_30.pos,polygon_30.edges,polygon_31.pos,polygon_31.edges,polygon_32.pos,polygon_32.edges,dot_size,ITI.stopped,trials.thisRepN,trials.thisTrialN,trials.thisN,trials.thisIndex,trials.ran,break_2.started,break_2.stopped,trials_3.thisRepN,trials_3.thisTrialN,trials_3.thisN,trials_3.thisIndex,trials_3.ran
subject chose dot,subject chose diamond,0.0008,56.8512,space,41.8322,,66aa651e21c9af8ebcd8081e,6842bb812a3936a39a8c70e6,2025-06-06_10h58.51.095,shape_ratio,2024.1.5,Win32,60.24096386,6842b561977af9ba9b0f87ca,,,,,,,,,,,,,,,,,,,,,,,,,,,,,,,,,,,,,,,,,,,,,,,,,,,,,,,,,,,,,,,,,,,,,,,,,,,,,,,,,,,,,,,,,,,,,,,,,,,,,,,,,,,,,,,,,
,,,,,,,66aa651e21c9af8ebcd8081e,6842bb812a3936a39a8c70e6,2025-06-06_10h58.51.095,shape_ratio,2024.1.5,Win32,60.24096386,6842b561977af9ba9b0f87ca,56.8514,87.0983,space,0.2218,,,,,,,,,,,,,,,,,,,,,,,,,,,,,,,,,,,,,,,,,,,,,,,,,,,,,,,,,,,,,,,,,,,,,,,,,,,,,,,,,,,,,,,,,,,,,,,,,,,,,,,,,,,,,
,,,,,,,66aa651e21c9af8ebcd8081e,6842bb812a3936a39a8c70e6,2025-06-06_10h58.51.095,shape_ratio,2024.1.5,Win32,60.24096386,6842b561977af9ba9b0f87ca,,,,,,87.0989,91.5444,space,1.4196,,,,,,,,,,,,,,,,,,,,,,,,,,,,,,,,,,,,,,,,,,,,,,,,,,,,,,,,,,,,,,,,,,,,,,,,,,,,,,,,,,,,,,,,,,,,,,,,,,,,,,,,
,,,,,,,66aa651e21c9af8ebcd8081e,6842bb812a3936a39a8c70e6,2025-06-06_10h58.51.095,shape_ratio,2024.1.5,Win32,60.24096386,6842b561977af9ba9b0f87ca,,,,,,,,,,,91.5628,92.0603,92.0608,92.3141,92.3141,93.8086,,93.8087,94.9076,0.0,0.0,0.0,1.0,1.0,0.8,,,,,,,,,,,,,,,,,,,,,,,,,,,,,,,,,,,,,,,,,,,,,,,,,,,,,,,,,,,,,,,,,,,,,,,,,,,,,,,,,,,,,,,,
,,,,,,,66aa651e21c9af8ebcd8081e,6842bb812a3936a39a8c70e6,2025-06-06_10h58.51.095,shape_ratio,2024.1.5,Win32,60.24096386,6842b561977af9ba9b0f87ca,,,,,,,,,,,94.9081,95.4068,95.4068,95.6572,95.6572,96.2063,right,96.2063,97.3053,0.0,1.0,1.0,0.0,1.0,0.2,0.5374,,,,,,,,,,,,,,,,,,,,,,,,,,,,,,,,,,,,,,,,,,,,,,,,,,,,,,,,,,,,,,,,,,,,,,,,,,,,,,,,,,,,,,,
,,,,,,,66aa651e21c9af8ebcd8081e,6842bb812a3936a39a8c70e6,2025-06-06_10h58.51.095,shape_ratio,2024.1.5,Win32,60.24096386,6842b561977af9ba9b0f87ca,,,,,,,,,,,,,,,,,,,,,,,,,,,,97.3058,103.3502,space,3.0295,,,,,,,,,,,,,,,,,,,,,,,,,,,,,,,,,,,,,,,,,,,,,,,,,,,,,,,,,,,,,,,,,,,,,,,,,,,,,,,,,,
,,,,,,,66aa651e21c9af8ebcd8081e,6842bb812a3936a39a8c70e6,2025-06-06_10h58.51.095,shape_ratio,2024.1.5,Win32,60.24096386,6842b561977af9ba9b0f87ca,,,,,,,,,,,103.3624,103.8662,,,104.1165,104.8484,left,,,,,,,,0.5,0.7197,,,,,,,103.8666,104.1165,104.8488,"[0.06261914576728933,-0.052497894762143615]",4.0,"[-0.11169248743050823,-0.08251939168438696]",100.0,"[0.10488528691408497,0.15619478875788873]",100.0,"[-0.08377293837050231,-0.03636246855870563]",100.0,"[-0.043650015775903446,0.017605406001747516]",100.0,"[0.12817949848828955,-0.005210555743132881]",100.0,"[-0.16581958966491583,-0.0658816318978887]",100.0,"[-0.056168493062708574,0.09731161542572561]",100.0,"[-0.18462970994590805,-0.011644235751319133]",100.0,"[-0.01504184903268487,-0.14848858461789635]",4.0,"[0.18037446625007636,0.04138757756356521]",4.0,"[0.06134232294452539,0.027091958880950544]",4.0,"[0.1560496687141386,-0.11950539163084745]",100.0,"[0.1745912604023885,-0.0018949711847515305]",4.0,"[0.09227039436753813,-0.11898226907231997]",4.0,"[-0.09675840262698561,0.17176563900682176]",4.0,"[0.07056743743492687,0.09387836347300466]",100.0,"[0.13034378345494924,0.11199479510036091]",4.0,"[0.019596400464521754,0.14114331021182275]",100.0,"[-0.010052276139269305,0.0578572933767109]",100.0,"[0.0423534269606281,-0.19123104031392626]",4.0,"[-0.03931712284113292,-0.06571930472080233]",4.0,"[-0.08193989449825488,-0.13327429622961515]",4.0,"[-0.013210463991909666,0.10210640986323259]",100.0,"[0.028612373559852303,-0.1257676455775116]",4.0,"[-0.11175970090480297,0.006846299039835405]",4.0,"[-0.03927003100845208,0.1953636115537708]",4.0,"[-0.1535533820883257,-0.10496881351577432]",4.0,"[-0.12949793619377545,-0.037004708194278355]",100.0,"[-0.12704644218741404,0.06460124099942631]",4.0,"[-0.010805555380423269,-0.10314516533078258]",100.0,"[0.016397438695423032,-0.0302242220059077]",100.0,"[0.02,0.02]",105.9479,0.0,0.0,0.0,117.0,1.0,,,,,,,
,,,,,,,66aa651e21c9af8ebcd8081e,6842bb812a3936a39a8c70e6,2025-06-06_10h58.51.095,shape_ratio,2024.1.5,Win32,60.24096386,6842b561977af9ba9b0f87ca,,,,,,,,,,,105.9483,106.4472,,,106.6973,107.1468,right,,,,,,,,0.9,0.4379,,,,,,,106.4473,106.6972,107.1468,"[-0.021324623475463832,-0.045575982107052444]",100.0,"[-0.04504199750527172,0.03761327358861778]",100.0,"[0.0037992601444431025,-0.004377871502677204]",100.0,"[-0.03989197204032973,-0.1593598614382568]",100.0,"[-0.11466117280225255,-0.14841937379775244]",100.0,"[0.018970511257179537,-0.046112983825523424]",100.0,"[-0.0016108016395446594,-0.12015728470941421]",100.0,"[-0.18514275421969148,-0.0029927034048723503]",100.0,"[0.1553458239901464,-0.08330164685235955]",100.0,"[0.1234359235293157,-0.01601339071265676]",100.0,"[-0.12068063546681743,0.03605846754542604]",100.0,"[-0.08828149746654067,-0.01912013569617374]",4.0,"[-0.07963866838083745,-0.06057074337361669]",100.0,"[0.007110898334830584,0.07949550837258254]",100.0,"[0.07877695695055315,0.07748692063826657]",100.0,"[-0.10107594199136256,-0.10768815723194404]",100.0,"[0.17315143797151014,-0.04114009509819814]",100.0,"[0.14184621604489134,0.05505273583116088]",100.0,"[0.06259266535132203,0.14347250871270814]",100.0,"[0.04719168061186423,-0.1278928662376865]",100.0,"[0.10008211845359799,-0.06506396045553807]",100.0,"[0.053256777502923264,0.18360122048947153]",4.0,"[-0.18269035166062195,0.05111610014129049]",100.0,"[0.05882910610872264,0.03615376158336413]",100.0,"[0.047520507246521716,-0.07760058556500227]",100.0,"[0.13785445908755808,0.1342156801197203]",100.0,"[0.008479438834282227,0.15257990483797584]",100.0,"[-0.09266465750658812,0.14514537670749367]",100.0,"[-0.03237846366916284,0.1520148634621208]",100.0,"[-0.07545471233979147,0.1047835719908671]",4.0,"[0.18817803237529732,0.06406047494119167]",100.0,"[-0.14117715175531562,-0.07100236558803909]",100.0,"[0.02,0.02]",108.2456,0.0,1.0,1.0,1.0,1.0,,,,,,,
,,,,,,,66aa651e21c9af8ebcd8081e,6842bb812a3936a39a8c70e6,2025-06-06_10h58.51.095,shape_ratio,2024.1.5,Win32,60.24096386,6842b561977af9ba9b0f87ca,,,,,,,,,,,108.246,108.7454,,,108.9954,109.6111,left,,,,,,,,0.5,0.6103,,,,,,,108.7454,108.9954,109.6111,"[-0.13508328495323946,0.016641153509719057]",100.0,"[0.08220842789026413,-0.08074582627970178]",4.0,"[0.09382733812962778,0.11196935163283817]",100.0,"[-0.07710713417602098,0.03852267803083799]",100.0,"[0.13608780598937084,0.06051233806958107]",4.0,"[0.13736987550035937,-0.10316152383484689]",100.0,"[0.19679434372638713,-0.014031011718930808]",100.0,"[-0.02137955154332546,0.13854556507521532]",4.0,"[0.012713320952165706,0.004676944497210165]",100.0,"[0.0037714493865991863,-0.13792168390139672]",100.0,"[0.08258135890905995,-0.03327784917063221]",4.0,"[0.00017187360942074134,-0.08393392258919452]",100.0,"[0.042770096103613056,-0.14854187204392838]",100.0,"[0.10965610845161813,-0.15200798745748595]",100.0,"[-0.07438175408969942,0.08663393692364478]",4.0,"[-0.08621608809853812,-0.05498414817746164]",100.0,"[0.06257190895475959,0.022573559891068143]",100.0,"[-0.06975093407753001,0.17052244656260282]",4.0,"[-0.13977079292894812,0.10749407033026644]",4.0,"[-0.034134211198415865,0.048852212501237176]",100.0,"[-0.08479398047735202,-0.10891075202586559]",4.0,"[-0.10179676771932879,0.13308368681397]",4.0,"[-0.19113726022063646,-0.04365207743746909]",100.0,"[0.017370224409609638,-0.04473885754237944]",100.0,"[-0.060438917911715906,-0.17957775939152426]",4.0,"[0.13500646994447785,-0.007510175424687219]",4.0,"[0.08130712797647059,0.15856787393813945]",4.0,"[-0.004668359932459459,0.1928867088833953]",4.0,"[0.18029577751155734,-0.0816980566481302]",4.0,"[-0.05103388493250978,-0.08250748074208944]",4.0,"[0.0315008593427826,0.05119754851929324]",4.0,"[0.1439677573007791,0.11790172721765278]",100.0,"[0.02,0.02]",110.7104,0.0,2.0,2.0,95.0,1.0,,,,,,,
,,,,,,,66aa651e21c9af8ebcd8081e,6842bb812a3936a39a8c70e6,2025-06-06_10h58.51.095,shape_ratio,2024.1.5,Win32,60.24096386,6842b561977af9ba9b0f87ca,,,,,,,,,,,110.7108,111.2094,,,111.4598,112.1425,left,,,,,,,,0.1,0.665,,,,,,,111.2094,111.4598,112.1425,"[0.015700469360188273,-0.061090575654841994]",4.0,"[-0.020784436043404738,-0.15799370349823563]",4.0,"[0.04939058522479468,-0.1253608814008353]",4.0,"[0.061643146868446415,-0.034640212333177794]",4.0,"[-0.07722707737453016,0.15843275553003267]",100.0,"[-0.1537073291549102,0.0665343642938192]",4.0,"[-0.13053313314764659,-0.05339875357671596]",4.0,"[0.01729767271953398,0.10644365398884056]",4.0,"[0.10360767701112433,0.09850397415003123]",4.0,"[0.01888430656723281,-0.17237941380057037]",4.0,"[0.13109087080795834,-0.07185490071328679]",4.0,"[0.06323451995407493,0.03933519211304136]",4.0,"[-0.04343449317824966,0.12062097090848961]",4.0,"[-0.11554957406475724,0.10950393475006617]",4.0,"[0.06425932517814742,0.1397586417868073]",4.0,"[-0.1457748900678028,-0.014857778153428149]",4.0,"[0.15610256059137026,0.0980629806687217]",4.0,"[0.08652678425341945,-0.06670167799269242]",4.0,"[-0.09498237640687682,0.05660767269625305]",4.0,"[-0.00628205996426449,-0.01823191327286211]",4.0,"[0.1615501964529363,0.01582837189628134]",4.0,"[-0.03390003516747937,-0.051113685175158574]",100.0,"[-0.002095474038406873,-0.12033881480911782]",100.0,"[-0.13138836877139742,-0.1147023775882999]",4.0,"[0.1441339782692199,-0.1255878266842405]",4.0,"[-0.04662231749974396,0.052794279749119016]",4.0,"[-0.09510305637780414,0.00916657827276235]",4.0,"[0.09542316314341694,-0.16651940451193548]",4.0,"[0.1152228466721383,0.024875288654826893]",4.0,"[0.17327625282856832,-0.07405631682518135]",4.0,"[0.1099512942296308,-0.021814803806785805]",4.0,"[-0.000808183954502118,0.059482752145634026]",4.0,"[0.02,0.02]",113.2414,0.0,3.0,3.0,184.0,1.0,,,,,,,
,,,,,,,66aa651e21c9af8ebcd8081e,6842bb812a3936a39a8c70e6,2025-06-06_10h58.51.095,shape_ratio,2024.1.5,Win32,60.24096386,6842b561977af9ba9b0f87ca,,,,,,,,,,,113.2417,113.741,,,113.9908,114.5237,right,,,,,,,,0.4,0.5169,,,,,,,113.7412,113.9908,114.5237,"[-0.031353488670759655,-0.16242357360408313]",100.0,"[-0.07143285306226269,-0.09207944760703664]",100.0,"[-0.129717661609557,0.06436771655538483]",4.0,"[-0.052116948697219265,0.16177369977331046]",4.0,"[0.12204246190932659,0.004017256063960709]",100.0,"[0.021913299595355144,-0.02751435104511801]",100.0,"[0.11364775498564457,0.09916823077847062]",4.0,"[-0.14059156557245692,0.022872196735407555]",100.0,"[0.05790495098514825,0.18603061257201559]",4.0,"[0.029919690304871467,-0.10906305924287418]",4.0,"[-0.014725891510274876,0.10634233587875554]",100.0,"[0.11417126619356054,-0.11069404678346666]",4.0,"[-0.13953606759937942,-0.06465223625171047]",4.0,"[0.04799500020625821,0.06164596574878818]",4.0,"[-0.1798184977340826,-0.010103881209120315]",4.0,"[-0.1439663912868342,-0.10985712750985394]",100.0,"[0.08581065766282622,-0.05627515713324761]",100.0,"[0.16746520474360357,0.035227741462343545]",4.0,"[-0.09942974623234781,-0.16572745943100523]",100.0,"[-0.10010303367204067,-0.05322410356536841]",100.0,"[0.0763432113492871,0.1312536375429054]",100.0,"[-0.06320709243537137,0.003651201311401588]",4.0,"[-0.001335313453426399,-0.19694047370579715]",100.0,"[-0.04465050062222319,0.04401338685611673]",4.0,"[-0.015860248446997245,0.008103067355962165]",100.0,"[0.06333599688136567,-0.16549363208871207]",4.0,"[-0.09844058894023455,0.13639654349370967]",4.0,"[-0.009594008801595326,-0.08622838464785704]",4.0,"[-0.16292817268722412,0.08904352138205475]",4.0,"[0.1385433734198096,0.13970408714293467]",4.0,"[-0.0033379321175862524,0.15144052895648438]",4.0,"[0.04722041700961276,0.014983579691993962]",4.0,"[0.02,0.02]",115.6228,0.0,4.0,4.0,168.0,1.0,,,,,,,
,,,,,,,66aa651e21c9af8ebcd8081e,6842bb812a3936a39a8c70e6,2025-06-06_10h58.51.095,shape_ratio,2024.1.5,Win32,60.24096386,6842b561977af9ba9b0f87ca,,,,,,,,,,,115.623,116.1221,,,116.3724,116.7385,right,,,,,,,,0.45,0.3521,,,,,,,116.1222,116.3723,116.7385,"[0.06120188915008455,0.11850889412339373]",4.0,"[-0.07000364200400352,-0.015117975759028603]",4.0,"[-0.01276076280666602,0.04222208555872427]",100.0,"[-0.14862940435760127,0.018293969876355953]",4.0,"[0.15240961404602787,0.007882352747568187]",4.0,"[-0.027123737086366895,-0.09570090254825749]",100.0,"[0.08050955220846902,-0.1495865963883528]",4.0,"[-0.13660729487698697,-0.10922807658618455]",100.0,"[0.03915429151668628,-0.13593764324010144]",100.0,"[0.19190660876224752,0.040075546632233276]",4.0,"[-0.029795586498495834,-0.035097852690975574]",4.0,"[-0.013395309800302966,-0.1986169945865421]",100.0,"[-0.023124874823840676,0.11912146952305154]",4.0,"[0.041613904582137484,0.050514087531348395]",100.0,"[0.06179600752291957,-0.05471121908527714]",4.0,"[-0.10700937366027423,-0.07667460515992079]",100.0,"[-0.002050979166770873,0.1970858566627158]",4.0,"[0.1185032325264957,0.13018526347495848]",100.0,"[0.004562237935221748,0.1499679188529592]",4.0,"[-0.08267320925563391,0.12202989387441211]",100.0,"[0.10242724922849332,-0.03324939637940559]",4.0,"[0.18084708689049123,-0.022593552285503093]",4.0,"[-0.16031877314800677,-0.023896026476136388]",4.0,"[-0.08061987771598438,-0.12357896629776077]",4.0,"[-0.19433727317077798,0.04027451204290381]",4.0,"[0.11104386888226835,-0.09081624471396732]",100.0,"[-0.114760842156131,0.09312551579080869]",100.0,"[-0.0695452694072954,0.045607424117769385]",4.0,"[-0.06336714588692241,0.17431838754911563]",100.0,"[0.08688496069102696,0.008450419306986066]",100.0,"[0.08990865120738058,0.16323019967739447]",100.0,"[0.12058637067046592,0.06802905703829602]",4.0,"[0.02,0.02]",117.8374,0.0,5.0,5.0,142.0,1.0,,,,,,,
,,,,,,,66aa651e21c9af8ebcd8081e,6842bb812a3936a39a8c70e6,2025-06-06_10h58.51.095,shape_ratio,2024.1.5,Win32,60.24096386,6842b561977af9ba9b0f87ca,,,,,,,,,,,117.8378,118.337,,,118.5872,118.8532,right,,,,,,,,0.45,0.2481,,,,,,,118.337,118.5871,118.8533,"[-0.07402400646346406,0.11998955682566002]",100.0,"[0.014803944900976456,0.14361446735407077]",4.0,"[0.04717901624935189,-0.18390008257254245]",100.0,"[0.1358257509642332,0.024883594143583623]",100.0,"[-0.0034666185305246328,-0.12129000401656582]",4.0,"[0.18362829718401744,-0.06391064458848282]",4.0,"[-0.11608785695623804,0.111697111403511]",4.0,"[-0.06444542339483827,-0.011865346008585164]",4.0,"[0.09373087851134909,0.1351913495264895]",4.0,"[0.10725126157964963,-0.05774622583381073]",4.0,"[0.08864207055605659,-0.018253334693300968]",4.0,"[-0.17373216284516393,0.08993057598777086]",4.0,"[0.14734469276479958,0.07067047727760016]",4.0,"[0.0334441662240002,0.06723580651382412]",100.0,"[-0.10185983438897211,-0.045985495651865736]",4.0,"[-0.014043890502020373,0.030170804737659852]",100.0,"[-0.1623717427639868,-0.059575561201585116]",4.0,"[0.06704974335641002,-0.1187751956846807]",100.0,"[-0.03137400118680736,-0.1753563369746554]",4.0,"[0.04704853025867213,0.17939896611436568]",100.0,"[-0.18998574526159592,-0.0077859468638831544]",4.0,"[-0.12454133703216731,0.07127737982625812]",100.0,"[0.1772717905003866,-0.013082045399848677]",100.0,"[0.012605922188376728,-0.020743515263338307]",100.0,"[0.06590220531765043,-0.058668838339391995]",100.0,"[-0.06300047493805269,-0.13199842044629648]",100.0,"[-0.026148242913715588,0.1331550809504202]",4.0,"[-0.04228668088336707,0.05852294854942357]",4.0,"[0.03978415345548925,0.011122455670009234]",4.0,"[-0.10506833676067573,0.15341831481171947]",100.0,"[0.023795600728745085,-0.08522841306346211]",4.0,"[-0.0836349451904256,0.074659482802811]",100.0,"[0.02,0.02]",119.9523,0.0,6.0,6.0,129.0,1.0,,,,,,,
,,,,,,,66aa651e21c9af8ebcd8081e,6842bb812a3936a39a8c70e6,2025-06-06_10h58.51.095,shape_ratio,2024.1.5,Win32,60.24096386,6842b561977af9ba9b0f87ca,,,,,,,,,,,119.9527,120.4518,,,120.7014,121.1345,left,,,,,,,,0.6,0.4146,,,,,,,120.4518,120.7014,121.1345,"[-0.09486982173520829,0.11341013528763619]",4.0,"[-0.051047313875758595,-0.01153460053036051]",100.0,"[-0.047282330522002154,0.09709839643679205]",4.0,"[0.03514986743493435,0.18859060437270972]",100.0,"[0.017781768703319673,0.05277566514028057]",100.0,"[0.10135922218694438,0.13537416440555658]",4.0,"[-0.08518445063659937,-0.13839508063893313]",100.0,"[0.0016318137227143965,0.12647240281373834]",4.0,"[-0.13922720927948248,-0.07049398327297848]",100.0,"[-0.010394238765934443,-0.051244433424527745]",4.0,"[-0.09653399896472611,-0.0036525858508352697]",100.0,"[0.14248774091564173,0.04029084397490926]",100.0,"[-0.12519434987852554,-0.10832340326083874]",100.0,"[0.07087714536589923,-0.09293913715368339]",4.0,"[-0.04761278529107959,-0.08992463051234854]",4.0,"[0.09840129655578157,-0.14105881312664664]",100.0,"[0.1480776331387017,-0.09729616484174926]",4.0,"[-0.002109819273855859,-0.006363556974859798]",100.0,"[0.012774601585637636,-0.11497065762260392]",4.0,"[0.14272703807232465,-0.14003168277952416]",100.0,"[-0.11333250685387393,0.07528136222361463]",100.0,"[0.04745307235777597,0.1386013682743598]",4.0,"[0.07353409794379748,0.0941010800302911]",100.0,"[0.06023442591168639,-0.19009371329468897]",100.0,"[0.102293738447375,-0.06322658988484581]",100.0,"[-0.19599603661919218,0.01938556304599375]",4.0,"[0.11783997752645752,0.0975611165262655]",4.0,"[-0.047373518729284435,0.047156562294533896]",100.0,"[0.06861863133418143,0.04414093318991332]",100.0,"[-0.14771938850001679,0.04118599313138248]",4.0,"[-0.061291443306133286,0.14599118254736704]",100.0,"[0.01223940851705303,-0.17546499627753415]",100.0,"[0.02,0.02]",122.2335,0.0,7.0,7.0,53.0,1.0,,,,,,,
,,,,,,,66aa651e21c9af8ebcd8081e,6842bb812a3936a39a8c70e6,2025-06-06_10h58.51.095,shape_ratio,2024.1.5,Win32,60.24096386,6842b561977af9ba9b0f87ca,,,,,,,,,,,122.2338,122.7331,,,122.9829,123.2493,left,,,,,,,,0.1,0.2529,,,,,,,122.7332,122.9828,123.2494,"[0.1408065178071537,0.10600631439890418]",4.0,"[-0.14663354263993092,0.09232257346243174]",4.0,"[-0.05187135514555887,0.08087376246905537]",4.0,"[0.005670695468526047,0.13840103543133767]",4.0,"[-0.005188165449976714,0.046494445977245495]",4.0,"[0.04087700251959009,-0.1404773781647905]",4.0,"[0.19170025170024885,0.01788384710908805]",4.0,"[0.14878622519413917,-0.1279998398862404]",4.0,"[-0.1245599158306942,0.048851306566841946]",4.0,"[0.07994285654409992,-0.17566439996750138]",4.0,"[0.08875470260432133,0.1631870118822208]",4.0,"[-0.18586986198103547,-0.03117488472095054]",4.0,"[-0.1680538213566609,0.03797002097494562]",4.0,"[0.09891015697924041,0.12233924913004815]",4.0,"[0.03892346151490666,-0.026945309370113215]",100.0,"[-0.018416248881039904,0.17397252677380834]",4.0,"[0.13952161326751764,0.0009569780354832097]",4.0,"[0.0992217073583205,0.02679248987270602]",4.0,"[-0.0662524856463484,-0.07894720700942542]",4.0,"[0.0828285400738425,-0.11556515723461186]",4.0,"[0.16392285351578997,0.05578320114977773]",4.0,"[0.03835568474895496,-0.18823066835248053]",4.0,"[0.027721445545275784,0.18030576154077316]",4.0,"[0.10063385028712055,-0.06965807614212358]",4.0,"[0.06409804089774086,0.09707160662547827]",4.0,"[-0.06757016111066956,0.00281775967492971]",4.0,"[0.056610017813935175,0.03491463124129806]",100.0,"[-0.15220386237698647,-0.05318685425564776]",4.0,"[-0.08476153896803529,-0.036057513097350904]",4.0,"[0.023565280430065547,-0.07112228208609994]",4.0,"[-0.10567163327412286,-0.14491754548731384]",4.0,"[-0.0017043351173884388,-0.13930572097474134]",100.0,"[0.02,0.02]",124.3484,0.0,8.0,8.0,193.0,1.0,,,,,,,
,,,,,,,66aa651e21c9af8ebcd8081e,6842bb812a3936a39a8c70e6,2025-06-06_10h58.51.095,shape_ratio,2024.1.5,Win32,60.24096386,6842b561977af9ba9b0f87ca,,,,,,,,,,,124.3486,124.8477,,,125.0979,125.4309,left,,,,,,,,0.1,0.3199,,,,,,,124.8478,125.0979,125.4309,"[0.09778906201997958,0.08341274489766444]",4.0,"[-0.0880134397072192,-0.09248651430449537]",4.0,"[-0.07966924512509671,0.024306399792934072]",4.0,"[-0.15760537761887464,0.09794949210894795]",100.0,"[-0.15388612990901585,-0.12527801137662384]",4.0,"[0.05894058319375774,-0.10714897137330706]",4.0,"[0.0992644135302263,-0.10054409880259861]",4.0,"[0.0828935877160597,-0.031764914038250866]",4.0,"[-0.046507746307845,-0.06326501357601727]",4.0,"[-0.1907791767596909,0.04440184063909557]",4.0,"[-0.1737900784778525,-0.039300963062643246]",4.0,"[-0.11794933913310368,-0.02430625467995082]",4.0,"[0.037895822898448214,0.16029481221818445]",4.0,"[0.17706217053443477,0.07524118196780803]",4.0,"[0.014910283136350911,-0.02970149795257832]",4.0,"[0.13262222925866993,0.10943683594558978]",4.0,"[0.026355921394117566,0.014786802604526255]",4.0,"[0.14168601641396744,0.0023337452748723214]",4.0,"[0.11921019676628451,0.0463063271264269]",100.0,"[-0.08041641066866333,0.0662721333762482]",4.0,"[0.0803337861108586,0.13020110956062378]",4.0,"[-0.040773234366921506,0.10994698886710004]",4.0,"[-0.09454094667097007,-0.16847164096717532]",4.0,"[-0.048692899104543864,-0.15908302012775785]",4.0,"[0.1827025244486086,-0.07593296373399892]",4.0,"[-0.03395220630287319,0.15342664082598279]",4.0,"[0.02344036827631229,-0.14638970175383015]",4.0,"[0.07456091099360951,0.04485785001546821]",4.0,"[0.14377295037257626,-0.09455799950968984]",4.0,"[-0.14289855663188525,0.015504998725385855]",4.0,"[-0.019890097330127726,0.06123511393529454]",4.0,"[0.045883088860840866,-0.05556030781896462]",100.0,"[0.02,0.02]",126.5298,0.0,9.0,9.0,186.0,1.0,,,,,,,
,,,,,,,66aa651e21c9af8ebcd8081e,6842bb812a3936a39a8c70e6,2025-06-06_10h58.51.095,shape_ratio,2024.1.5,Win32,60.24096386,6842b561977af9ba9b0f87ca,,,,,,,,,,,126.5301,127.0294,,,127.279,127.7287,left,,,,,,,,0.6,0.4377,,,,,,,127.0295,127.279,127.7288,"[-0.05559915579060456,0.11942394571923666]",100.0,"[-0.1862309181241739,-0.0547248804677109]",4.0,"[-0.0746031036266091,-0.05620333735176116]",100.0,"[-0.12238610342263326,-0.0017325912879800896]",4.0,"[0.08520892970592543,0.009672108298879992]",100.0,"[-0.005842680267480637,0.08372213886274454]",4.0,"[-0.07616192123570113,-0.007189278390750166]",4.0,"[0.08170311770165828,-0.10153021807672123]",100.0,"[0.1619029286506381,-0.048005129606710585]",100.0,"[-0.06467202607095915,-0.16151127384132444]",100.0,"[0.0011390337232171266,0.022841280467488494]",4.0,"[-0.11091859506791386,0.09433701190896555]",100.0,"[0.06375943914231674,-0.17543242213765287]",100.0,"[0.10576908954331267,0.08939400099929255]",4.0,"[-0.12046070588054777,-0.1552795623565173]",100.0,"[-0.11289105413800955,0.14655263726587262]",100.0,"[-0.020266769495107705,-0.018494920053555842]",100.0,"[-0.009584658763276063,-0.18216051316740647]",100.0,"[0.029650815806324476,0.1036383743476624]",100.0,"[0.06868682985306918,0.13557233351473952]",4.0,"[-0.1288538856074095,-0.09779719481766666]",100.0,"[0.13656198818708942,-0.10393480723264797]",4.0,"[-0.022631237506643195,0.19130375519026557]",4.0,"[-0.16887322438417385,0.015520156218157676]",100.0,"[0.028287811682733498,0.15746601635969065]",100.0,"[-0.04393660240133285,-0.0956676508648356]",100.0,"[0.04535667208530316,-0.01596913041476066]",100.0,"[0.15122751390883174,0.023757303848180134]",100.0,"[-0.1435325952023426,0.06875917900644044]",4.0,"[0.021422049062592027,-0.058876136889024225]",4.0,"[0.11720164001754405,-0.043419316391754746]",4.0,"[-0.05669507295714641,0.042790913142811735]",4.0,"[0.02,0.02]",128.8276,0.0,10.0,10.0,38.0,1.0,,,,,,,
,,,,,,,66aa651e21c9af8ebcd8081e,6842bb812a3936a39a8c70e6,2025-06-06_10h58.51.095,shape_ratio,2024.1.5,Win32,60.24096386,6842b561977af9ba9b0f87ca,,,,,,,,,,,128.8278,129.3271,,,129.5775,129.9434,left,,,,,,,,0.4,0.3549,,,,,,,129.3271,129.5775,129.9434,"[0.10714060449322636,-0.03122766834301087]",100.0,"[-0.033182408775555824,-0.15880891816961398]",4.0,"[0.03867582266409802,0.09081244799015302]",4.0,"[-0.09508379557929855,0.04514134559544041]",100.0,"[-0.013677941680193128,0.12008535897844996]",4.0,"[-0.048797924958380375,-0.056210463062341114]",4.0,"[0.12271004206213078,-0.1097310661582088]",4.0,"[0.04363271442462819,-0.07773654668418506]",100.0,"[-0.1282735490777007,-0.14178672176864573]",100.0,"[-0.13213980644196802,-0.06863489650336493]",4.0,"[-0.012725620131239374,0.046530999394261995]",4.0,"[-0.16782651532300394,0.08482506029125154]",4.0,"[0.014793578361631336,-0.04660487067349822]",100.0,"[0.17325416347622374,-0.05550646816382765]",100.0,"[0.17474615272448038,0.028872935540613306]",4.0,"[0.05833567225137475,0.028450701768642773]",4.0,"[-0.12587620006511158,0.14187564716265263]",100.0,"[0.03314108856206723,-0.1589435228624587]",100.0,"[0.153210956607764,0.07499201155165038]",100.0,"[-0.08394526106782414,-0.17463868824077775]",4.0,"[0.01119640431950057,0.15229191082360757]",4.0,"[0.14828022978999061,-0.006215574449710288]",4.0,"[-0.03964470168481229,0.17208080473528506]",4.0,"[0.06478778180854076,-0.13244695478149385]",100.0,"[-0.07277484108857595,-0.004064549792736907]",4.0,"[0.061936438704385734,0.15264284381794987]",100.0,"[-0.058166236413562195,-0.09627101609327061]",4.0,"[0.12554578202034594,0.10747704055703669]",4.0,"[-0.1896316665390587,0.03368522201763475]",100.0,"[0.10742688891167985,0.0653595550655882]",100.0,"[0.017168164993990806,0.01184117153280914]",4.0,"[-0.1850747906989326,-0.029615829940663536]",4.0,"[0.02,0.02]",131.0427,0.0,11.0,11.0,169.0,1.0,,,,,,,
,,,,,,,66aa651e21c9af8ebcd8081e,6842bb812a3936a39a8c70e6,2025-06-06_10h58.51.095,shape_ratio,2024.1.5,Win32,60.24096386,6842b561977af9ba9b0f87ca,,,,,,,,,,,131.0429,131.542,,,131.7919,132.208,left,,,,,,,,0.1,0.41,,,,,,,131.542,131.7918,132.2081,"[-0.12270431904305175,0.10306164081241073]",4.0,"[0.09805273026293115,0.006095095721926518]",4.0,"[-0.019872590970197057,0.040351327458967017]",4.0,"[-0.0643849254127253,0.1613216567254408]",100.0,"[-0.0296043712825138,-0.11564439125836166]",4.0,"[0.061611903920456845,-0.15880688168461943]",4.0,"[0.03356998033691553,-0.060621261027194756]",4.0,"[0.048257062257319565,0.1708569358366324]",4.0,"[0.0032860254156307916,0.07373436121170258]",4.0,"[0.053991541125126545,0.04045533512612274]",4.0,"[-0.02552515478361148,-0.15798658322146134]",4.0,"[-0.11840931602607704,-0.06885785792088889]",100.0,"[-0.05623384631043638,-0.052698865591944706]",4.0,"[0.10413331871410451,0.1556260863567549]",4.0,"[0.08248229145584923,-0.11816040813715824]",4.0,"[-0.07094795172370531,0.1177170758399757]",4.0,"[-0.11126870679123418,0.16275934713476117]",4.0,"[0.1464672152243318,0.0444881818010925]",4.0,"[-0.08264698957295405,-0.18077021932353834]",4.0,"[-0.08092800114338972,-0.006536669216477885]",4.0,"[0.1631802715661137,-0.09887005998507366]",100.0,"[0.10544707265530892,-0.06966516659896185]",4.0,"[0.13131442102601243,0.0954072020797076]",4.0,"[0.17396924012156034,0.015255167738099405]",4.0,"[0.039609797983641476,0.12542063726068362]",4.0,"[0.189324039144896,0.05805371184200216]",4.0,"[0.12467658644318033,-0.13536814511490944]",4.0,"[0.013956404421551964,-0.18174363253464018]",4.0,"[0.1974262658697896,-0.0281882329069846]",4.0,"[-0.14966021001056953,0.05697988865126775]",4.0,"[-0.05031673939549458,0.081862406965275]",4.0,"[-0.15349634160262807,0.01082967344545291]",4.0,"[0.02,0.02]",133.3069,0.0,12.0,12.0,188.0,1.0,,,,,,,
,,,,,,,66aa651e21c9af8ebcd8081e,6842bb812a3936a39a8c70e6,2025-06-06_10h58.51.095,shape_ratio,2024.1.5,Win32,60.24096386,6842b561977af9ba9b0f87ca,,,,,,,,,,,133.3071,133.807,,,134.057,134.2733,right,,,,,,,,0.55,0.1991,,,,,,,133.807,134.0569,134.2733,"[0.13112875456424286,-0.14538116520859876]",4.0,"[0.015585270536706717,-0.08799172646736882]",100.0,"[0.09170576533582674,0.08683984967021498]",100.0,"[0.09243221783555151,0.14534755640198765]",4.0,"[0.09002345691876673,-0.003648689232943349]",100.0,"[0.04062562426139317,0.018145649595767505]",100.0,"[-0.16320344291607025,-0.05352359856781768]",4.0,"[0.054915601454517085,-0.03800686422239008]",100.0,"[-0.05771439939626196,0.08824763361102844]",100.0,"[-0.10253281396458583,-0.1429468118091924]",4.0,"[-0.048965862466879444,-0.0720897442441581]",4.0,"[0.006620772648363584,0.07746420462931651]",4.0,"[0.18019583019111024,0.0710472108207711]",100.0,"[-0.05534047376098736,0.029702511224169763]",100.0,"[0.1560637341530032,-0.03235228318159974]",4.0,"[-0.01160182173740091,0.029497470400337126]",4.0,"[0.13916183297805357,0.019334668279054876]",100.0,"[-0.056534005784447644,-0.12679092233067846]",4.0,"[-0.005678567793416566,-0.13247314435353427]",100.0,"[0.10221202643053028,-0.05555349844718236]",100.0,"[-0.13296694549597204,0.024711691713671644]",4.0,"[-0.156228580466468,-0.12288077821535867]",4.0,"[0.04642718714839902,0.17544901460154488]",100.0,"[-0.1293373640219512,0.1290144105134926]",4.0,"[-0.18413868223345434,0.022316615554020872]",4.0,"[-0.1417668119911267,0.08723862467461638]",100.0,"[-0.09016223255387097,0.0021952489669892533]",100.0,"[-0.11728495148879947,-0.05823424963210074]",100.0,"[-0.08102359140687306,0.16297770660229066]",100.0,"[0.05136141311683342,0.0903383732267476]",4.0,"[0.04775099602062748,-0.16649956030068316]",100.0,"[-0.10449256393063633,-0.09982779609068637]",100.0,"[0.02,0.02]",135.372,0.0,13.0,13.0,70.0,1.0,,,,,,,
,,,,,,,66aa651e21c9af8ebcd8081e,6842bb812a3936a39a8c70e6,2025-06-06_10h58.51.095,shape_ratio,2024.1.5,Win32,60.24096386,6842b561977af9ba9b0f87ca,,,,,,,,,,,135.3723,135.8715,,,136.1217,136.4712,left,,,,,,,,0.6,0.3364,,,,,,,135.8716,136.1217,136.4712,"[0.14296213162314778,0.1285428531756684]",4.0,"[-0.10123256062910352,0.0674684813614879]",100.0,"[0.018206264264556304,0.07171357960199469]",4.0,"[-0.05976185908293723,0.03572039748302494]",4.0,"[0.05892082066894428,-0.0036779375901986964]",4.0,"[0.1837054830776142,-0.06539890738291604]",100.0,"[0.006295045271015515,0.11357346418161517]",100.0,"[-0.10288243220082958,0.018432704019912285]",4.0,"[-0.11850883401419621,-0.1067964139545431]",4.0,"[0.05024356941562913,0.11227789446581082]",100.0,"[0.07148574864953049,-0.15385527718904313]",100.0,"[0.11935727236886173,0.0324739748576666]",4.0,"[0.08283919115916459,0.14823759708092413]",100.0,"[0.1415314288478253,-0.06996214640182187]",100.0,"[-0.1317063797164028,-0.044625622916799015]",4.0,"[0.10634773109766954,0.08582778052722201]",100.0,"[-0.19362349195399645,0.00018494746545477228]",4.0,"[0.028540849812117283,-0.19656770240127805]",100.0,"[-0.011107591107720388,-0.0853052487646154]",100.0,"[0.02222036718000256,-0.10954800856369803]",4.0,"[-0.059612180123384366,-0.07756575011931248]",4.0,"[-0.06059118610868626,0.16948101708212313]",4.0,"[-0.07984285138950407,-0.17094908504703976]",4.0,"[-0.16337647098211674,0.0668145556921453]",100.0,"[-0.17634970510056533,-0.08438656875105198]",100.0,"[-0.0391443524129983,-0.1668561460509615]",100.0,"[0.1588120199826214,0.08291988639616199]",100.0,"[-0.14500128921517735,0.0003677949515401764]",100.0,"[-0.1221323060102198,-0.1506832624353748]",100.0,"[0.12154157252648831,-0.133038655331145]",100.0,"[-0.003403821064627845,0.19642356271096093]",100.0,"[-0.044567687221436836,-0.024097970373434977]",100.0,"[0.02,0.02]",137.5702,0.0,14.0,14.0,37.0,1.0,,,,,,,
,,,,,,,66aa651e21c9af8ebcd8081e,6842bb812a3936a39a8c70e6,2025-06-06_10h58.51.095,shape_ratio,2024.1.5,Win32,60.24096386,6842b561977af9ba9b0f87ca,,,,,,,,,,,137.5706,138.0698,,,138.3199,138.7027,left,,,,,,,,0.6,0.3715,,,,,,,138.0699,138.3197,138.7027,"[0.003640984328460229,-0.06371683784291611]",4.0,"[-0.07317192125382593,-0.003158029003941174]",100.0,"[0.0427450146880577,0.12759097507053388]",4.0,"[-0.012522873712535097,0.0056637325453811225]",100.0,"[0.08865974589017682,-0.025937209585830047]",100.0,"[-0.026609744433571402,-0.14733977908201712]",4.0,"[0.06693382739772323,0.07878383007658095]",100.0,"[-0.14580899817653545,-0.011558668455877818]",100.0,"[-0.07674464403443072,-0.11542802949715594]",100.0,"[0.13059843987964903,0.14549628762243486]",100.0,"[0.04358315513640444,0.010884758827097359]",4.0,"[0.06031327707898518,-0.10574404764106281]",100.0,"[-0.06827076687829106,-0.1649444876303539]",4.0,"[-0.1457906759967725,-0.07199082590962244]",100.0,"[0.08355627407531602,0.13396919459324907]",100.0,"[0.011600697558729868,-0.11280043173269211]",100.0,"[-0.09515219432512698,0.06610927492128411]",100.0,"[0.07108402343565885,-0.18490865775451854]",100.0,"[0.12956613697002145,0.02923828034439342]",100.0,"[0.12674550151337696,0.10133308085738456]",4.0,"[-0.09248545187004739,0.1591083643012789]",4.0,"[0.06285098891599004,0.18519606273431327]",100.0,"[0.01783022070018786,-0.19078207820994053]",100.0,"[0.11608755330370982,-0.06979389809610474]",100.0,"[-0.013297666136589389,0.11202819864215918]",4.0,"[-0.11344315563774485,0.026523843786890836]",4.0,"[-0.05913710775563642,-0.061141531501168835]",4.0,"[-0.16688762359465603,0.08202890222505771]",100.0,"[-0.13110661093844425,0.11172978272889658]",4.0,"[-0.16729775757862608,0.03422730672918732]",4.0,"[0.179128854026865,0.07008808377771779]",4.0,"[0.15676306280993987,-0.04007461660010956]",100.0,"[0.02,0.02]",139.8015,0.0,15.0,15.0,54.0,1.0,,,,,,,
,,,,,,,66aa651e21c9af8ebcd8081e,6842bb812a3936a39a8c70e6,2025-06-06_10h58.51.095,shape_ratio,2024.1.5,Win32,60.24096386,6842b561977af9ba9b0f87ca,,,,,,,,,,,139.8019,140.301,,,140.5513,140.784,right,,,,,,,,0.55,0.2215,,,,,,,140.301,140.5513,140.784,"[-0.0756934694125449,0.07834140320906856]",4.0,"[0.1022990639466131,0.16274509652910898]",4.0,"[0.06405754735298312,0.18613624927927577]",4.0,"[-0.048073142221984715,-0.14549499652115377]",4.0,"[-0.11544813846712565,-0.13947870936015602]",4.0,"[0.12856985557979225,0.021687086694294012]",100.0,"[0.02314963836858239,-0.08392564361384684]",100.0,"[-0.12181930004212718,-0.07289773556855637]",100.0,"[-0.05428032119489191,-0.07744254867410393]",100.0,"[-0.005543981883307213,-0.1944266982331197]",4.0,"[-0.02321070699420708,0.05826592925098854]",100.0,"[-0.1690222829607002,0.08696199869554729]",100.0,"[0.09867195790277253,0.10033253388615963]",100.0,"[-0.08415118476493837,0.0047500667632436565]",100.0,"[0.11851686790937864,-0.021511916736729354]",100.0,"[0.11655064261072517,-0.10775660613149177]",4.0,"[-0.11713988097798535,0.10749941584248161]",100.0,"[0.017231796675636315,0.1326064533453181]",4.0,"[0.15945983915398784,-0.10277423263055162]",4.0,"[-0.026546175341617434,0.16584647212344678]",4.0,"[0.11410077173325861,-0.06750278849788124]",4.0,"[-0.03270134044512602,0.11804129075680887]",4.0,"[0.18008483039920958,0.030113340199181295]",100.0,"[0.06886136426351318,-0.11051843008097888]",100.0,"[-0.0945657818508373,0.1589172505228643]",100.0,"[0.013733011475908512,-0.12593788294701916]",100.0,"[-0.008235229544891656,-0.032301786260682266]",4.0,"[0.07436606962955467,-0.15435483180168372]",4.0,"[0.06289251530738402,0.022007415674656985]",100.0,"[-0.1889431892036741,-0.014424757648284008]",100.0,"[0.03435338287309604,-0.1649191498495642]",100.0,"[-0.13302212698443958,-0.022555996155452326]",100.0,"[0.02,0.02]",141.8832,0.0,16.0,16.0,61.0,1.0,,,,,,,
,,,,,,,66aa651e21c9af8ebcd8081e,6842bb812a3936a39a8c70e6,2025-06-06_10h58.51.095,shape_ratio,2024.1.5,Win32,60.24096386,6842b561977af9ba9b0f87ca,,,,,,,,,,,141.8835,142.3825,,,142.633,142.8993,right,,,,,,,,0.55,0.2504,,,,,,,142.3825,142.633,142.8994,"[0.07420616038462918,-0.18203086477685937]",4.0,"[-0.05452344295933028,-0.10092049069203426]",4.0,"[-0.16415317196756768,0.020576179717747077]",100.0,"[0.08787720675620522,0.01628452949347816]",4.0,"[-0.017038780969115316,-0.15635336144452813]",4.0,"[-0.03470074881558455,0.11870293723494203]",100.0,"[0.10915558815206922,0.13795586969754786]",100.0,"[-0.10119889814084186,-0.16505876858542268]",4.0,"[0.15109818348471282,0.11834620349848066]",4.0,"[-0.1206333056229929,-0.012396455175963196]",100.0,"[0.1248645599621928,-0.13631459015289385]",4.0,"[0.03156664841314324,-0.01005779073856327]",100.0,"[0.016269720284260606,-0.0744253846253302]",100.0,"[0.03895672234128092,0.10138889415180935]",100.0,"[-0.1011521915700728,0.16724087958953618]",4.0,"[-0.11822590442636834,0.06316177293887985]",100.0,"[-0.09682160346587124,0.10254280189402766]",100.0,"[0.12486504923245328,-0.04130298314566215]",100.0,"[-0.17451114674110338,-0.0831768246977017]",4.0,"[-0.06705192664266998,-0.03698271743632153]",4.0,"[-0.09381594751219,0.0181862442663015]",100.0,"[-0.1349905361602468,-0.05947499101279002]",100.0,"[-0.10151076752610118,-0.10226441505129637]",4.0,"[0.01207255696871782,0.03737887161025816]",100.0,"[0.06374394127399968,0.06707461390464828]",4.0,"[0.14394518976945553,0.06499168214603106]",100.0,"[0.02084576986291009,-0.19744786698563696]",100.0,"[0.10424221595217807,0.07262015241086113]",100.0,"[-0.1471777119055005,-0.1234816603056621]",4.0,"[0.15753605460407819,-0.07456499047752425]",100.0,"[-0.06400540694135558,-0.14518498276215985]",100.0,"[-0.019121981065308127,-0.027525480289076473]",4.0,"[0.02,0.02]",143.9981,0.0,17.0,17.0,71.0,1.0,,,,,,,
,,,,,,,66aa651e21c9af8ebcd8081e,6842bb812a3936a39a8c70e6,2025-06-06_10h58.51.095,shape_ratio,2024.1.5,Win32,60.24096386,6842b561977af9ba9b0f87ca,,,,,,,,,,,143.9986,144.4975,,,144.7478,144.9973,right,,,,,,,,0.55,0.2352,,,,,,,144.4975,144.7477,144.9974,"[-0.16937815593539604,0.04574089375998989]",4.0,"[0.0023511128856623853,0.03062403060409958]",100.0,"[-0.11963583792920214,-0.04113998002474854]",4.0,"[0.02876584259746479,0.10295659553044856]",4.0,"[-0.16159116621938602,-0.01948338775371968]",100.0,"[0.16269305566123826,-0.0796318305784085]",100.0,"[0.06569796740335346,-0.1030596400866229]",4.0,"[0.028747661974926224,0.18714276808180574]",100.0,"[0.14378737146120463,0.08630989262146906]",100.0,"[0.1640649910458719,0.04110193072566555]",4.0,"[0.14617153392765297,-0.013743644875372116]",4.0,"[-0.04013599019756017,-0.12355532980144653]",4.0,"[0.19288130036143614,0.01076243134817906]",4.0,"[0.05498629680087166,-0.0529286237049939]",4.0,"[0.01674846114148441,-0.10389728026911166]",100.0,"[-0.02286983187725065,0.08596162000780518]",4.0,"[0.06246440169318128,0.01930376746584733]",100.0,"[0.08241658221232641,0.1287689305934658]",4.0,"[-0.07495511483348753,0.16971615209745053]",100.0,"[-0.15476588962361054,-0.1010883255209289]",100.0,"[-0.011849674270562788,-0.1766871599534587]",100.0,"[-0.12711966834728652,0.05727404276135381]",100.0,"[-0.046457643155437704,-0.011745113312476976]",100.0,"[0.011274965001761367,0.14732110872823156]",4.0,"[0.02051349098430458,-0.009010532915058407]",4.0,"[-0.11171385183593398,0.14604436991877506]",100.0,"[0.10489245962274836,0.16336255531749547]",100.0,"[0.10855806641461603,0.03712463613467445]",4.0,"[-0.1399661436011202,0.10040666144750114]",100.0,"[-0.0587764232840306,-0.16591157822010158]",100.0,"[0.04543045404470347,-0.1902754134678063]",100.0,"[0.10692174839373508,-0.13870257365685856]",100.0,"[0.02,0.02]",146.0962,0.0,18.0,18.0,73.0,1.0,,,,,,,
,,,,,,,66aa651e21c9af8ebcd8081e,6842bb812a3936a39a8c70e6,2025-06-06_10h58.51.095,shape_ratio,2024.1.5,Win32,60.24096386,6842b561977af9ba9b0f87ca,,,,,,,,,,,146.0969,146.5956,,,146.8491,147.1453,right,,,,,,,,0.55,0.2903,,,,,,,146.5957,146.849,147.1453,"[-0.05747350185202281,0.08650814017701836]",4.0,"[-0.0096004706820275,0.13783524959743484]",100.0,"[0.15726587826188504,0.05407416745148165]",4.0,"[-0.03402544667714539,-0.03376519784023762]",100.0,"[0.15279813643733953,-0.04458346558042102]",4.0,"[0.011166607078107363,-0.1149380660329581]",100.0,"[-0.0678462479170431,-0.15573176603938488]",100.0,"[-0.13557454991644918,0.05046263392900071]",4.0,"[0.04672787423846637,-0.04437626620151383]",4.0,"[0.1371671945745566,0.14435359155578806]",4.0,"[-0.16216935957314632,-0.051440846806917954]",100.0,"[0.09429605131966652,0.010683634939884914]",4.0,"[-0.11328628771445119,-0.07350822504485469]",100.0,"[0.03440858899725199,0.06295866685908807]",4.0,"[-0.1647601445310099,0.0006825746049462178]",4.0,"[-0.1508920457211071,-0.10562663377945368]",100.0,"[-0.0888551119765263,-0.026823150109942847]",100.0,"[0.07064777944736907,-0.1834728986372126]",4.0,"[0.15093912485553804,-0.10902934747877406]",100.0,"[-0.006229812722687034,0.013215774295709628]",4.0,"[0.189619959647446,0.024214934930264692]",100.0,"[-0.11058517648854253,-0.14759282024433842]",100.0,"[-0.07664490246150811,0.016476227198182525]",100.0,"[0.09204582269315467,0.07847484726095302]",100.0,"[0.05392306236154623,0.016071819752604546]",100.0,"[-0.030972849388241384,-0.11963775701144855]",100.0,"[0.03870140889699213,-0.14614872103026869]",100.0,"[0.0566969386418405,0.12428682365365332]",4.0,"[-0.060333181947260436,0.14602301982419255]",4.0,"[0.031410507113201855,0.17648186813575426]",100.0,"[0.07466398770039565,-0.11585087815086434]",4.0,"[-0.15384040742541938,0.10616855925854281]",100.0,"[0.02,0.02]",148.2442,0.0,19.0,19.0,76.0,1.0,,,,,,,
,,,,,,,66aa651e21c9af8ebcd8081e,6842bb812a3936a39a8c70e6,2025-06-06_10h58.51.095,shape_ratio,2024.1.5,Win32,60.24096386,6842b561977af9ba9b0f87ca,,,,,,,,,,,148.2447,148.7436,,,148.9937,149.3102,right,,,,,,,,0.5,0.2879,,,,,,,148.7437,148.9937,149.3102,"[0.0037475288837099455,0.0287836045855518]",100.0,"[0.01499667800573667,-0.03994768434123189]",100.0,"[-0.09360723871004117,0.1642028710845393]",100.0,"[-0.08770168346164849,-0.1410559541536605]",4.0,"[-0.01961379774160118,-0.15949823076327746]",100.0,"[-0.16445219289681873,0.06203504970516932]",100.0,"[-0.16202827054988528,0.00882542266631798]",4.0,"[0.14791327825148876,-0.07266177793173735]",100.0,"[0.040922419886395466,-0.11908541545649975]",100.0,"[0.09634496063121023,0.14320294553465981]",4.0,"[0.12908744547344245,0.04671661398449958]",100.0,"[-0.005024017890660062,-0.19742455682129428]",4.0,"[0.13051894367814879,0.11940424078870164]",4.0,"[-0.06821670542140676,0.08523524984646848]",100.0,"[-0.09360265467158478,0.0008665727692887734]",4.0,"[-0.0851651849295682,0.12263722719865065]",4.0,"[0.00491687714945446,0.07331025312930127]",100.0,"[0.17843074035526885,-0.033488691709365415]",100.0,"[0.0554498246043077,-0.16367137095365167]",4.0,"[-0.07613300972259882,-0.10133518683173383]",100.0,"[-0.1459570488771647,-0.1053788464084434]",4.0,"[0.05625434496338189,-0.05976914610371439]",100.0,"[-0.06762896419792538,0.04360144318680818]",4.0,"[-0.03709124093266952,-0.03849742894561632]",4.0,"[0.06109018763100817,0.11318876344431744]",100.0,"[0.17618333030821814,0.07753339110602579]",4.0,"[-0.15282139964185348,0.10698905702853806]",4.0,"[0.020258787244162472,0.1896904401304862]",4.0,"[0.05452036034564963,0.04652371392486799]",100.0,"[-0.010074362665092764,-0.0731953257613139]",4.0,"[0.10416586165283527,-0.041282116504736906]",4.0,"[0.17718632394964032,0.019647579388178835]",100.0,"[0.02,0.02]",150.4091,0.0,20.0,20.0,118.0,1.0,,,,,,,
,,,,,,,66aa651e21c9af8ebcd8081e,6842bb812a3936a39a8c70e6,2025-06-06_10h58.51.095,shape_ratio,2024.1.5,Win32,60.24096386,6842b561977af9ba9b0f87ca,,,,,,,,,,,150.4095,150.9086,,,151.1587,151.5083,right,,,,,,,,0.55,0.3232,,,,,,,150.9086,151.1587,151.5084,"[-0.17064431106117312,0.08284652299242644]",4.0,"[0.05639220482902649,-0.059768232093670305]",4.0,"[0.01499209746440744,0.061428680941863434]",100.0,"[0.0255445633950934,0.12679752928394097]",4.0,"[0.024283762661017283,-0.10028673564212999]",100.0,"[0.0720771866528577,0.020368396586873498]",4.0,"[-0.07245501260496957,-0.06229328826462588]",4.0,"[0.09176512342787659,-0.15611906692343513]",4.0,"[-0.059630128089581694,-0.1376916642088244]",100.0,"[-0.03754785515600798,0.11089066568871467]",4.0,"[-0.012108971210720128,0.16582822872927477]",4.0,"[-0.014843570114677336,-0.19156535158516283]",100.0,"[-0.07252598365089717,-0.016373403807607566]",100.0,"[-0.1462082368699351,-0.12993172880080292]",100.0,"[-0.19472990643912091,0.01341427950743121]",100.0,"[0.14030403757833482,-0.021209673166620816]",4.0,"[-0.023834875193660843,-0.06143842780457449]",100.0,"[0.0008608404001847754,0.020757441722356534]",100.0,"[-0.13298259372547067,0.05509208247395449]",100.0,"[0.17236540805310846,0.049643046606018676]",100.0,"[-0.07952745885190542,0.06612724494075847]",4.0,"[0.05580505093288317,0.16897941355486942]",100.0,"[0.1271347410667893,0.1091532903193463]",4.0,"[-0.10242174098466618,0.02440007312598477]",4.0,"[0.06415998085246384,0.07023170938819628]",100.0,"[-0.1329033605031168,-0.09107791121603417]",100.0,"[-0.03299504321782648,0.06550809909418605]",100.0,"[-0.10483007762493304,0.1073321943487604]",4.0,"[0.01909859025654627,-0.021409683000411555]",100.0,"[-0.14311413499927716,-0.03245623249229433]",4.0,"[0.13500741180539125,-0.07120642063776352]",100.0,"[-0.0657787229205685,0.16359253556672432]",100.0,"[0.02,0.02]",152.6072,0.0,21.0,21.0,79.0,1.0,,,,,,,
,,,,,,,66aa651e21c9af8ebcd8081e,6842bb812a3936a39a8c70e6,2025-06-06_10h58.51.095,shape_ratio,2024.1.5,Win32,60.24096386,6842b561977af9ba9b0f87ca,,,,,,,,,,,152.6078,153.1066,,,153.3568,153.723,right,,,,,,,,0.45,0.3343,,,,,,,153.1066,153.3568,153.723,"[0.1049079953784153,0.045617918659631614]",100.0,"[-0.023542305874818408,-0.18809830971555638]",4.0,"[0.06587943668465294,-0.1588982712263623]",4.0,"[0.046547472039595604,-0.1120721344830832]",4.0,"[-0.17467419732563164,-0.0710727262764029]",4.0,"[0.10944766578102993,-0.1047692809176467]",100.0,"[-0.052164124175633174,0.1228663827843274]",4.0,"[-0.06482157574342984,-0.12553148139279022]",4.0,"[0.04908367268744967,0.11887775727755408]",100.0,"[-0.031689235055298706,0.1661860386268102]",4.0,"[-0.11872393018935234,0.12947630831524143]",4.0,"[-0.10118155042832418,-0.029122455791952637]",100.0,"[-0.06148586813940255,-0.004332245735641411]",4.0,"[0.1392332503503789,0.007242422463854628]",100.0,"[-0.013265761347435996,0.09374418897048578]",4.0,"[0.1629446172984966,-0.10761878680731247]",100.0,"[-0.0949000162162035,0.17466666873211664]",4.0,"[-0.07037519971824754,0.0362617614158427]",100.0,"[0.08370675081923333,0.15015272522293546]",4.0,"[0.09269653502489418,-0.0635308997396332]",100.0,"[-0.17704258753830246,0.0609416569903458]",100.0,"[0.13536537906803855,0.10116097592403571]",4.0,"[-0.19111645136405178,-0.03034035810735053]",4.0,"[0.025771672233037432,0.05654177812396395]",100.0,"[-0.03676863829006089,-0.05324291841683508]",4.0,"[-0.14220577229965517,0.005590453188169296]",100.0,"[-0.0864162689583944,0.10011330676529132]",100.0,"[-0.13061846296917526,0.08459399644936669]",4.0,"[0.019388018096997174,0.148709147402436]",100.0,"[0.0846058451776351,-0.02411509376547373]",100.0,"[0.142370908527228,0.061405068471668094]",4.0,"[-0.1313551872047963,-0.06760910512870301]",4.0,"[0.02,0.02]",154.8219,0.0,22.0,22.0,149.0,1.0,,,,,,,
,,,,,,,66aa651e21c9af8ebcd8081e,6842bb812a3936a39a8c70e6,2025-06-06_10h58.51.095,shape_ratio,2024.1.5,Win32,60.24096386,6842b561977af9ba9b0f87ca,,,,,,,,,,,154.8224,155.3217,,,155.5716,156.0542,right,,,,,,,,0.55,0.4506,,,,,,,155.3217,155.5716,156.0543,"[0.03268694763566743,0.010006996049079862]",100.0,"[-0.13406100685853292,0.08682736128116712]",100.0,"[0.12082651985351407,0.14763234888628524]",100.0,"[0.11485094024784721,0.03144708936721599]",4.0,"[-0.04164951453698828,0.10587394168288893]",4.0,"[-0.10597575315598223,-0.024449508600230832]",100.0,"[0.14470891804481464,-0.08711620231511427]",100.0,"[-0.08084134920378547,-0.18110342897634307]",4.0,"[-0.050165296167724194,-0.07994099650508338]",4.0,"[-0.04008973617003765,-0.02198952946742353]",100.0,"[0.02980709069847393,-0.08085266939616764]",100.0,"[-0.09306517333231364,0.1051921356649669]",4.0,"[-0.04460857405205833,0.02689878129651327]",100.0,"[0.04262289659973102,0.11283246570254578]",4.0,"[-0.07406353859278021,0.17282880450089827]",4.0,"[-0.00129868519499223,-0.16744489484965291]",100.0,"[0.07180735894184026,0.03839195676345192]",4.0,"[0.11871634609881085,-0.031157573717090742]",100.0,"[-0.1197777600125298,-0.12404544372645072]",100.0,"[-0.17873271135095697,0.07201152002726348]",4.0,"[0.07311748190746775,-0.07967587558662392]",100.0,"[-0.13509872903160008,-0.06645145898838754]",100.0,"[0.06990934531170254,-0.017518182334985328]",4.0,"[0.08970661655393954,-0.13390399331102398]",100.0,"[0.15234049782524425,-0.004324343856238307]",100.0,"[0.190187196148713,0.024052012577020106]",4.0,"[0.04826424334397657,-0.18226638038801385]",4.0,"[-0.12926330697423236,0.13947433615015184]",100.0,"[-0.002709722732230365,0.05859699819001581]",100.0,"[0.07934151732450995,0.16670603252656863]",4.0,"[0.16219284640210177,0.05930079958785277]",100.0,"[-0.1342195991645619,0.03482454984146102]",4.0,"[0.02,0.02]",157.1532,0.0,23.0,23.0,82.0,1.0,,,,,,,
,,,,,,,66aa651e21c9af8ebcd8081e,6842bb812a3936a39a8c70e6,2025-06-06_10h58.51.095,shape_ratio,2024.1.5,Win32,60.24096386,6842b561977af9ba9b0f87ca,,,,,,,,,,,157.1538,157.6528,,,157.9055,158.2025,right,,,,,,,,0.6,0.2718,,,,,,,157.6528,157.9055,158.2026,"[-0.036857275135146604,-0.1304703260505382]",4.0,"[-0.01139328246101026,-0.0389901257969618]",4.0,"[0.031037062455192523,0.13737607497614396]",100.0,"[0.16752744399716207,0.02359512143528307]",4.0,"[-0.09762516904022114,0.06911985557926068]",100.0,"[0.034326266170363835,0.044689355724963284]",100.0,"[0.1539302116639299,0.06587692561524103]",100.0,"[-0.17492503563881254,-0.043398567277130005]",100.0,"[-0.0759894739293722,-0.14128626001448538]",100.0,"[0.09480385772058947,0.01855493445072307]",4.0,"[-0.1218177376138818,0.11286496203430485]",100.0,"[-0.056482007487556586,-0.06842342471428894]",4.0,"[0.03469016205485644,-0.05061169889115862]",100.0,"[0.054999566063693155,0.17062854783152712]",100.0,"[-0.05911362620383266,-0.186359534126021]",100.0,"[0.19350463174018595,-0.01020352539439404]",4.0,"[-0.09275647485820555,-0.015104899344091937]",100.0,"[-0.007110479675322628,0.11323369467167375]",100.0,"[-0.009117755824337216,-0.1861570514860268]",4.0,"[-0.14214218066866796,0.06685720214973626]",100.0,"[0.15702420886445748,-0.09022879652963121]",100.0,"[-0.19338312662694263,0.007713844568665257]",4.0,"[-0.04343281670761138,0.06099467159474165]",100.0,"[0.11862702501015504,0.14923383961347472]",4.0,"[0.08599032911029651,-0.04171242688249209]",4.0,"[-0.018088446746032195,0.1665957365662796]",4.0,"[0.12466905084383373,-0.009098130732217697]",4.0,"[-0.052119721394644644,0.14349751973280173]",100.0,"[0.14015540828768036,-0.05161943137062016]",4.0,"[0.08085379524548619,-0.153390426334989]",100.0,"[0.0526434713115179,0.005643547016400479]",100.0,"[-0.10113720344356295,0.15023028049674478]",100.0,"[0.02,0.02]",159.3014,0.0,24.0,24.0,35.0,1.0,,,,,,,
,,,,,,,66aa651e21c9af8ebcd8081e,6842bb812a3936a39a8c70e6,2025-06-06_10h58.51.095,shape_ratio,2024.1.5,Win32,60.24096386,6842b561977af9ba9b0f87ca,,,,,,,,,,,159.302,159.801,,,160.0511,160.2839,left,,,,,,,,0.4,0.2063,,,,,,,159.801,160.0511,160.2839,"[-0.16568338433870985,-0.048167789465858965]",4.0,"[-0.03232909069396048,-0.08694170773316058]",100.0,"[-0.0888848475856689,0.05156171441156837]",4.0,"[0.03979778795885531,0.11952037804618412]",4.0,"[-0.12526700627967874,0.13241479446091528]",100.0,"[-0.038731905471973214,0.19256177018952056]",4.0,"[0.0982501123325338,0.12205661208698798]",4.0,"[0.1365422720878031,-0.1373157785510071]",4.0,"[0.03466323806880832,-0.17148713805260657]",100.0,"[0.06892265524821489,-0.047928392219849174]",4.0,"[0.041175335099679695,-0.001507958837785389]",4.0,"[0.10478288020400406,-0.16502309918571267]",100.0,"[0.1140210001527918,-0.056628833560197184]",4.0,"[0.037538879900886855,0.0710908956709648]",100.0,"[-0.12297074593004284,0.0038940637495176343]",4.0,"[0.18367684518765356,0.040686583157645104]",100.0,"[-0.076334489704696,-0.11739990725345605]",4.0,"[-0.04182081829992216,-0.017943784859867747]",4.0,"[0.143191378989194,0.09019933943712309]",100.0,"[-0.06119209390279868,-0.17209228215668826]",100.0,"[0.14910715043879882,-0.01474370824170744]",4.0,"[0.024658654430173257,-0.0857245572832923]",4.0,"[0.12912027195735765,0.14968312235019887]",100.0,"[-0.03599526358217338,0.038477516279126246]",100.0,"[-0.0031452394903449723,0.1737005788935055]",4.0,"[-0.11888178157415738,-0.11065786454091775]",100.0,"[-0.054505604945428214,0.10562799021226926]",4.0,"[-0.07453442697353448,0.14293243200277167]",4.0,"[0.041003986145682965,0.19238799517452085]",4.0,"[-0.15219347438449593,0.09811908001862307]",100.0,"[0.10832400586202867,0.02157456397017383]",4.0,"[0.09840576260200325,0.0684806753624311]",100.0,"[0.02,0.02]",161.3829,0.0,25.0,25.0,161.0,1.0,,,,,,,
,,,,,,,66aa651e21c9af8ebcd8081e,6842bb812a3936a39a8c70e6,2025-06-06_10h58.51.095,shape_ratio,2024.1.5,Win32,60.24096386,6842b561977af9ba9b0f87ca,,,,,,,,,,,161.3835,161.8822,,,162.1325,162.6483,left,,,,,,,,0.1,0.4929,,,,,,,161.8822,162.1324,162.6483,"[-0.01527732590790355,0.15978398152061402]",4.0,"[0.07181362936977553,-0.013442923544394126]",4.0,"[0.17715592884563325,0.0530522814603961]",4.0,"[0.08438547905712644,-0.06305530723176463]",4.0,"[0.11558504206661743,-0.00004946947096584445]",4.0,"[-0.0975499642181645,0.13186894019895704]",4.0,"[-0.06312623637801831,-0.01027974837595214]",4.0,"[0.09595146747341174,0.17259543809922132]",4.0,"[-0.17829502240891498,-0.03718581107043936]",4.0,"[0.1342988206630166,0.06287136899835848]",4.0,"[0.14222548046821074,-0.052379341691001995]",4.0,"[-0.03128015587350128,-0.07975750555425416]",4.0,"[-0.05226207118362939,0.17526976508563194]",4.0,"[0.005906852794268031,-0.06025103298230394]",4.0,"[0.041386190116099016,0.04208752447549798]",4.0,"[-0.1475063313532554,0.08240029275235528]",4.0,"[0.14269260653741822,0.11214151939698885]",100.0,"[0.022934260355930818,0.1760139799403476]",4.0,"[-0.03228219835391097,-0.1638996382317428]",4.0,"[0.07655543329094784,-0.13068218623648456]",4.0,"[-0.11708710372189796,-0.09319729688836069]",4.0,"[0.05606254360786924,-0.19193187359688926]",100.0,"[-0.13623267197805075,0.022008323433509735]",4.0,"[0.14909827893367678,-0.11208533980869533]",4.0,"[-0.04332756723838615,0.09706055055803116]",4.0,"[-0.09301516587607563,-0.17326045663745004]",4.0,"[0.019311444067706126,-0.11664703813396574]",4.0,"[0.041111019615321626,-0.08179891806382897]",4.0,"[-0.019907261224949242,-0.0007943530174496982]",4.0,"[0.07116905001233899,0.10652725883090877]",4.0,"[-0.08668517851072202,0.04574619851337333]",100.0,"[0.08296960749306515,0.055819298891849424]",4.0,"[0.02,0.02]",163.7473,0.0,26.0,26.0,204.0,1.0,,,,,,,
,,,,,,,66aa651e21c9af8ebcd8081e,6842bb812a3936a39a8c70e6,2025-06-06_10h58.51.095,shape_ratio,2024.1.5,Win32,60.24096386,6842b561977af9ba9b0f87ca,,,,,,,,,,,163.7477,164.2468,,,164.4973,164.8298,left,,,,,,,,0.1,0.3011,,,,,,,164.2469,164.4972,164.8298,"[-0.004711895925444288,-0.09839485166034956]",4.0,"[0.03252744941640823,0.06533767355373278]",4.0,"[0.03328586074051079,-0.003636554727382965]",4.0,"[0.18214882541178426,0.0361743915880593]",4.0,"[0.0017468127305910698,-0.1880426224808062]",4.0,"[0.09620992027940023,0.10045025603040518]",4.0,"[-0.06256381433438328,0.17296982412160894]",4.0,"[0.052379070533948115,0.1124115118599271]",4.0,"[-0.0876515107833094,-0.007335345531878612]",4.0,"[-0.1846387847674527,-0.07533280107137148]",4.0,"[-0.12417513564399241,0.021106296785251864]",100.0,"[-0.008251331865510142,0.17415204708397122]",4.0,"[0.1548510227855243,0.102423428087545]",100.0,"[-0.12012718034957601,-0.14897683648649876]",4.0,"[-0.03485179067161677,-0.0058854740802882525]",4.0,"[-0.14401645207936603,-0.1146909615381817]",4.0,"[-0.0766506135532813,-0.04932628099828186]",4.0,"[-0.09669168839309944,0.13801296093771354]",4.0,"[0.14792469693294474,-0.06422310600161515]",4.0,"[-0.1817660759497043,0.08334389217919844]",4.0,"[-0.015031924513897949,-0.04552481724448316]",4.0,"[-0.18864321079927387,0.034593259900460374]",100.0,"[0.08461959709371802,0.1505982465459884]",4.0,"[-0.04617569394307549,-0.13576885441770792]",4.0,"[0.030281393786574445,-0.06550288569816033]",4.0,"[-0.11322126670000442,-0.07120154549921073]",4.0,"[-0.022636226243272904,0.09473402086349117]",4.0,"[0.0596791502149127,-0.18557959548822417]",4.0,"[0.08264351945390229,-0.055459598167150535]",4.0,"[-0.06035088915345989,0.11322947950688068]",4.0,"[0.11613297116224058,-0.1083695109521383]",4.0,"[-0.07165432596498543,-0.17768928399798012]",4.0,"[0.02,0.02]",165.9288,0.0,27.0,27.0,199.0,1.0,,,,,,,
,,,,,,,66aa651e21c9af8ebcd8081e,6842bb812a3936a39a8c70e6,2025-06-06_10h58.51.095,shape_ratio,2024.1.5,Win32,60.24096386,6842b561977af9ba9b0f87ca,,,,,,,,,,,165.9293,166.4284,,,166.6819,167.1281,left,,,,,,,,0.45,0.4358,,,,,,,166.4284,166.6818,167.1282,"[-0.10484764218809826,0.0720710834130834]",4.0,"[0.14811975470429298,0.05947454178841539]",4.0,"[-0.013306157228245965,-0.05249474753327939]",100.0,"[-0.12320502556411475,-0.07999688750545372]",100.0,"[0.09255407786085167,0.06268648758887167]",4.0,"[0.02690132028160227,0.035329396991251434]",4.0,"[0.040551733304359905,-0.058545280965818056]",4.0,"[-0.14252888131468133,0.01473215432948281]",100.0,"[-0.06255036072996631,-0.15054518828874866]",100.0,"[0.01807805814712283,0.1524994236125455]",4.0,"[-0.04046560952908872,-0.08407577163029839]",4.0,"[0.005364935303352876,-0.1744581992539986]",4.0,"[-0.025314884125760804,0.0018711749626374673]",4.0,"[0.13230651637572616,0.012964457930080886]",100.0,"[0.13539312233255585,-0.0922653625534796]",100.0,"[0.1776096217974659,-0.051422400184322176]",4.0,"[0.017723920782928615,-0.021682523331504725]",4.0,"[0.061561221148790674,-0.1367156491523766]",100.0,"[0.02931080268269294,-0.09917290359048835]",100.0,"[-0.09461245902402499,0.01588715101545169]",4.0,"[-0.014672896379262359,0.09659702346662351]",100.0,"[-0.05748940121615314,-0.04192699860848376]",100.0,"[0.12205732992914291,0.12592708476158007]",100.0,"[0.07526726322687868,0.008440552963689563]",4.0,"[-0.10158999545846202,-0.16097282389022244]",4.0,"[-0.1734507843245677,-0.047972745084089996]",100.0,"[-0.03945344467754421,0.04168298221227396]",100.0,"[0.10582592001428673,-0.02414156424034956]",100.0,"[0.0755120197981203,0.1463404116007956]",4.0,"[0.10663988215256676,-0.1556266983698803]",4.0,"[-0.09043567255540937,0.13887211023403387]",4.0,"[0.16878964328704552,0.10377863511125471]",4.0,"[0.02,0.02]",168.2268,0.0,28.0,28.0,127.0,1.0,,,,,,,
,,,,,,,66aa651e21c9af8ebcd8081e,6842bb812a3936a39a8c70e6,2025-06-06_10h58.51.095,shape_ratio,2024.1.5,Win32,60.24096386,6842b561977af9ba9b0f87ca,,,,,,,,,,,168.2273,168.7263,,,168.9764,169.5259,right,,,,,,,,0.55,0.5193,,,,,,,168.7264,168.9764,169.526,"[-0.15503343424085045,0.08560257630943394]",100.0,"[-0.11079018006988854,0.028345831943188023]",4.0,"[0.028177661401479336,0.14580579918790393]",100.0,"[-0.08311125212152909,0.15460313504729675]",4.0,"[0.017389820414423062,-0.021863932499173105]",100.0,"[0.053899315538945836,0.05917883102316668]",4.0,"[-0.053003027291763004,0.019460787997094713]",100.0,"[-0.004699651025130526,-0.1527325241266096]",100.0,"[-0.17323637263000635,-0.02572185309731933]",4.0,"[-0.09053591471248909,-0.03663525780589286]",100.0,"[0.08961503790943029,0.008017576970455003]",100.0,"[-0.11986095599246188,-0.06864431781691767]",4.0,"[-0.03694458284958299,0.08373472831809427]",100.0,"[0.10101822118650003,-0.10980641537404211]",4.0,"[-0.03594103326136926,-0.05727078712196718]",100.0,"[0.05433638996149201,-0.08054134049418281]",100.0,"[-0.049886628964885174,-0.1704990177036441]",100.0,"[-0.05049784530780356,-0.10215947408899426]",4.0,"[0.16309251520618478,-0.07414027014941016]",100.0,"[-0.011105794421924142,0.1605294342506099]",4.0,"[-0.0851660498098026,-0.12643969594222218]",100.0,"[0.09953342260775801,-0.15650927516620822]",100.0,"[0.05495925335881902,-0.14521659575426046]",4.0,"[0.16151178649101647,-0.008143634746463558]",100.0,"[0.06455100135217762,0.12338969658732266]",4.0,"[0.1339953175606866,-0.03735764534141316]",100.0,"[0.1225386870375239,0.14756687930035697]",100.0,"[0.08443344322361213,-0.0527111303544168]",4.0,"[-0.1857616973533741,0.027473605776912942]",4.0,"[0.1584553996267976,0.10800338226497781]",4.0,"[0.19232381583502656,0.03421197809929542]",100.0,"[-0.00869190754068869,0.0414383321676982]",4.0,"[0.02,0.02]",170.6248,0.0,29.0,29.0,83.0,1.0,,,,,,,
,,,,,,,66aa651e21c9af8ebcd8081e,6842bb812a3936a39a8c70e6,2025-06-06_10h58.51.095,shape_ratio,2024.1.5,Win32,60.24096386,6842b561977af9ba9b0f87ca,,,,,,,,,,,170.6253,171.1245,,,171.3744,171.7573,left,,,,,,,,0.1,0.357,,,,,,,171.1245,171.3743,171.7574,"[0.05916585764403045,-0.10031915426537628]",4.0,"[0.07910500550877209,-0.17086436808347166]",4.0,"[-0.1267855876513957,-0.13588054074082198]",4.0,"[0.06333632531750188,0.18661084837223066]",4.0,"[0.00023220819239372288,-0.13636029024451765]",4.0,"[-0.0068930636803470925,0.1715314527613745]",4.0,"[-0.10665150714717953,-0.06907645100020246]",4.0,"[-0.0835918169002982,-0.1586055659880965]",4.0,"[0.07670723277347746,0.10865171619162144]",4.0,"[-0.03525218779638374,-0.10710265146768243]",4.0,"[0.14917688077751018,-0.1075245267034661]",4.0,"[-0.039644953306503444,0.08465732315727896]",4.0,"[0.025604034557334805,0.010105442326111401]",100.0,"[-0.07303498893229284,-0.005362342019365383]",4.0,"[-0.032511648966322644,-0.04914987799202614]",4.0,"[0.13223285138439803,0.13992523659725734]",4.0,"[0.18169625121939306,-0.03804256213162859]",4.0,"[0.0530659562971891,-0.04048915228087357]",4.0,"[0.08192171926881675,-0.0019392724179697716]",4.0,"[0.15505639899295628,-0.0027377142312058856]",100.0,"[0.03647960745481072,0.14591504391850899]",4.0,"[0.03657379632094345,-0.1633553442947814]",4.0,"[0.0013326513105618317,-0.0757811025506416]",4.0,"[0.05557867838387701,0.052683127685344076]",4.0,"[0.015714691531419907,-0.19838500383461635]",4.0,"[-0.19127964904639175,-0.01046140320016405]",4.0,"[-0.08486501189312391,0.047839539700749806]",4.0,"[-0.1627240905073702,0.030932530917878724]",4.0,"[-0.06584335237971374,0.14270298528525904]",4.0,"[0.1380839701136131,-0.06763883823084081]",100.0,"[0.10333426907394326,-0.118453843711391]",4.0,"[0.09783358994604939,0.05139081720209966]",4.0,"[0.02,0.02]",172.8561,0.0,30.0,30.0,203.0,1.0,,,,,,,
,,,,,,,66aa651e21c9af8ebcd8081e,6842bb812a3936a39a8c70e6,2025-06-06_10h58.51.095,shape_ratio,2024.1.5,Win32,60.24096386,6842b561977af9ba9b0f87ca,,,,,,,,,,,172.8568,173.3554,,,173.6058,173.9053,left,,,,,,,,0.1,0.2746,,,,,,,173.3554,173.6057,173.9054,"[-0.08438603785831145,-0.11240754920468254]",4.0,"[-0.031379377483132444,0.040363261251870036]",4.0,"[0.011257680338467673,0.0763430846520523]",4.0,"[-0.06018749104780259,0.18404254350312274]",4.0,"[0.014690098203346753,-0.05131087269023723]",4.0,"[0.1499024708670901,-0.07517928071149778]",4.0,"[-0.012457845366781933,-0.13664820636819683]",100.0,"[0.0037245394741045787,-0.18015647277284438]",100.0,"[-0.10116015170211219,0.15886167346157432]",4.0,"[-0.11643070441440065,0.04436919834196272]",4.0,"[0.07220144621877866,-0.10998430634174416]",100.0,"[-0.09705752130231302,-0.000778994884654921]",4.0,"[0.10981665324841314,0.05830910018353502]",4.0,"[0.05363609937648532,0.01941905268694577]",4.0,"[0.12206093215323707,0.13209479958965165]",4.0,"[-0.08607726261713497,0.08020066423954739]",4.0,"[-0.15906714817435114,0.0392391461185104]",4.0,"[-0.02888716470971861,-0.050277665517352084]",4.0,"[-0.014721395142198784,0.17255375751057558]",4.0,"[0.1547829563724653,-0.019291374311128595]",4.0,"[-0.17130577046632273,-0.05959229228268777]",4.0,"[-0.06344372551070684,-0.15994599918237884]",4.0,"[0.019266731685903607,0.1265810852529825]",4.0,"[0.17836701027224036,0.06221920207247884]",4.0,"[-0.12739534903865687,-0.04687046932561721]",4.0,"[0.06107899832802594,0.18973949732013756]",4.0,"[-0.16386829646976217,0.11000238611267595]",4.0,"[-0.19160066241188753,-0.002099129487485341]",4.0,"[-0.14744137707936852,-0.10617503606589519]",4.0,"[0.09939924505401107,-0.02782884546420099]",4.0,"[0.06626185643140177,0.07204756757709833]",4.0,"[-0.0586177744852622,0.1366189197595167]",4.0,"[0.02,0.02]",175.0044,0.0,31.0,31.0,208.0,1.0,,,,,,,
,,,,,,,66aa651e21c9af8ebcd8081e,6842bb812a3936a39a8c70e6,2025-06-06_10h58.51.095,shape_ratio,2024.1.5,Win32,60.24096386,6842b561977af9ba9b0f87ca,,,,,,,,,,,175.0049,175.5039,,,175.7542,176.2368,left,,,,,,,,0.6,0.4618,,,,,,,175.504,175.7541,176.2368,"[-0.08048614317275361,-0.09256090673101412]",4.0,"[-0.023872693095894897,-0.035083879011596056]",100.0,"[-0.07527697564247432,0.12502382344010438]",100.0,"[0.16803126446529104,0.05575950450493728]",100.0,"[0.07032185198778976,0.0366002615697463]",4.0,"[0.07058193288492981,0.16739983004909248]",4.0,"[0.05401946740452295,-0.13742819454970098]",100.0,"[-0.04273380862833708,0.07514989655535487]",100.0,"[-0.1200346160214619,0.05016892866657754]",100.0,"[0.048025016765419704,-0.0717985183138555]",100.0,"[-0.06547976058364617,0.17159294475498066]",100.0,"[-0.061581450526283256,-0.15993091382620953]",100.0,"[0.12652373137582926,-0.018639310105409222]",100.0,"[0.16152871902822843,0.11507082111482167]",4.0,"[0.0026609789150533465,0.0850923893577991]",4.0,"[-0.1084993800258084,-0.04148399745219602]",100.0,"[0.12445346008369504,0.08708416979613866]",100.0,"[-0.027813621796223046,0.015298343585432412]",4.0,"[-0.1160663320558921,0.1530378464892556]",4.0,"[0.08874238363963778,-0.15838122706915855]",100.0,"[-0.005357831692445826,-0.18900968606105803]",4.0,"[0.11208666381055227,-0.07308139029018557]",100.0,"[-0.06720486032514632,-0.04640683766624696]",100.0,"[0.18408910101352502,-0.020971273079676257]",4.0,"[-0.12932518805445645,0.10367213694389851]",100.0,"[-0.0138668506761121,0.1761442345073042]",100.0,"[0.02710063809301745,-0.0010598895834663597]",4.0,"[-0.16038533253208764,-0.03491836458988595]",100.0,"[0.02560828342618752,0.19412174028401122]",100.0,"[0.07217266036963367,-0.006130666349170779]",4.0,"[0.13010268711591805,0.03946065025216974]",4.0,"[-0.16917997413840932,-0.09005588257781992]",4.0,"[0.02,0.02]",177.3356,0.0,32.0,32.0,56.0,1.0,,,,,,,
,,,,,,,66aa651e21c9af8ebcd8081e,6842bb812a3936a39a8c70e6,2025-06-06_10h58.51.095,shape_ratio,2024.1.5,Win32,60.24096386,6842b561977af9ba9b0f87ca,,,,,,,,,,,177.3362,177.8353,,,178.0853,178.518,left,,,,,,,,0.5,0.4021,,,,,,,177.8353,178.0852,178.518,"[-0.09383929600270835,0.014243387863241499]",4.0,"[0.12534275628690258,0.10279919498250666]",4.0,"[-0.16881479491577597,0.004751169201402406]",4.0,"[0.1638588097262137,0.027456108928462584]",100.0,"[-0.10294729263469808,-0.1369663797791236]",4.0,"[0.04740675170574331,0.17135618370009031]",4.0,"[0.08637439822835206,-0.12677273605610764]",4.0,"[-0.029176116107445083,-0.15407310990880274]",100.0,"[0.13455622966699693,-0.007316777246874393]",4.0,"[0.038933318015562664,-0.16018088783220913]",100.0,"[-0.1624498392226116,-0.06780849939039234]",100.0,"[0.16423417405400176,-0.043453503536318334]",100.0,"[-0.04766839055284454,0.11774828112179542]",4.0,"[-0.1384173645111451,0.11570927474254393]",4.0,"[0.07079943410768483,0.1088543921014627]",100.0,"[-0.028668654490699812,-0.04225019159322206]",100.0,"[-0.00007093888736904216,0.038036995809618425]",4.0,"[-0.12037246728215896,0.07513112617578477]",4.0,"[0.07769086490593151,-0.06450355628780738]",100.0,"[0.04931341895251093,0.05223104629156495]",100.0,"[0.02391422654102452,-0.08536881619057053]",4.0,"[0.08193974279019367,0.01419740358988951]",100.0,"[-0.0860646416913518,0.13868903825525825]",100.0,"[-0.003448557652761514,0.09972751424551772]",4.0,"[0.024278041240236692,-0.19773086354283367]",100.0,"[-0.09711146952872657,-0.0740050495082351]",100.0,"[-0.02555925212525468,0.18084329878367328]",100.0,"[0.18273873479395475,-0.0790493913594278]",100.0,"[-0.0067831533685229935,-0.003569380141877082]",4.0,"[-0.06805587865561467,-0.18278001209331957]",100.0,"[0.0954853628929345,0.14847288776758266]",4.0,"[-0.04150802837286933,-0.09532671024676541]",4.0,"[0.02,0.02]",179.6169,0.0,33.0,33.0,115.0,1.0,,,,,,,
,,,,,,,66aa651e21c9af8ebcd8081e,6842bb812a3936a39a8c70e6,2025-06-06_10h58.51.095,shape_ratio,2024.1.5,Win32,60.24096386,6842b561977af9ba9b0f87ca,,,,,,,,,,,179.6175,180.1167,,,180.3666,180.583,right,,,,,,,,0.6,0.1918,,,,,,,180.1168,180.3665,180.583,"[0.03176917844510596,0.10553304270375277]",4.0,"[-0.06325511659863431,0.12293113486319891]",100.0,"[-0.01693649685891663,-0.04260169202513382]",4.0,"[0.18736253878150827,0.04881712512255502]",4.0,"[0.011601680599521613,-0.1940717010651309]",4.0,"[-0.15918080125774928,-0.01960341044213733]",100.0,"[-0.06342725638503248,-0.03341743644618869]",4.0,"[-0.07372992323404291,0.1775241454231576]",100.0,"[-0.059041869143110194,0.07912942034071274]",100.0,"[-0.01542503415067937,-0.15137564946914644]",100.0,"[-0.08060096521610377,-0.123061650030946]",100.0,"[0.1552344213372581,-0.1232827196522816]",4.0,"[0.002897142564079116,0.057596337302678303]",4.0,"[-0.007931351778786632,0.18048379089639094]",100.0,"[-0.1524277801075308,0.07742365092673603]",100.0,"[-0.05771764859968976,-0.18540199157657505]",100.0,"[0.05571158446068367,-0.16008751828215353]",4.0,"[-0.12508168599462682,0.11327444544277183]",4.0,"[0.014212600893478484,-0.12222598765738353]",100.0,"[-0.10724972788089432,-0.04574499753730833]",4.0,"[0.16936802808462506,-0.029438868104471605]",100.0,"[-0.07892668117812966,0.03515903722549527]",100.0,"[0.04709468811010946,-0.05377565467220864]",4.0,"[0.054521677375297985,0.0037953703087525797]",100.0,"[-0.1869409308651355,0.033872599837213205]",100.0,"[0.17753797339426503,-0.08227118918948363]",4.0,"[-0.01683067742667377,0.12691811548409715]",100.0,"[0.09927310151581574,0.1670189320701672]",100.0,"[-0.1872379367553804,-0.05858613768425284]",100.0,"[-0.11010974120799535,-0.1545686548543691]",4.0,"[0.10652154477367473,-0.0030361280667161802]",100.0,"[-0.1358598697347015,0.03154226736025559]",100.0,"[0.02,0.02]",181.6819,0.0,34.0,34.0,34.0,1.0,,,,,,,
,,,,,,,66aa651e21c9af8ebcd8081e,6842bb812a3936a39a8c70e6,2025-06-06_10h58.51.095,shape_ratio,2024.1.5,Win32,60.24096386,6842b561977af9ba9b0f87ca,,,,,,,,,,,181.6825,182.1814,,,182.4315,182.8312,right,,,,,,,,0.9,0.3667,,,,,,,182.1814,182.4314,182.8312,"[-0.12169010204965232,-0.0037854736944492565]",100.0,"[-0.14480385627871445,0.08806363750692361]",100.0,"[0.19708556791447343,0.02826858491798599]",100.0,"[-0.010528959587875865,0.18418479180970654]",100.0,"[-0.0017457999663751448,0.09555214840558224]",100.0,"[-0.13328602629592573,0.13741163489232971]",4.0,"[0.10623168939832599,-0.060962291182702855]",100.0,"[0.03999668345604114,0.015420850178413993]",100.0,"[-0.03378258631988592,0.14373469611592216]",100.0,"[-0.10741215278486096,-0.07734959385594008]",100.0,"[0.106174835401125,0.01855543272188447]",100.0,"[-0.17383457213234071,-0.0033802338406133167]",4.0,"[0.09222989433514106,-0.12457554374108011]",100.0,"[-0.11101926500141235,-0.12829215099814964]",100.0,"[0.12327289288718454,0.09566659903245531]",100.0,"[0.17575776490757944,-0.06093124710043092]",100.0,"[-0.04874345959268612,-0.10414433252143457]",100.0,"[0.03596123808181895,-0.0809724520190861]",100.0,"[0.05409507375942803,0.07451733495421632]",100.0,"[-0.08715814654476138,0.08489238454835991]",100.0,"[0.07873544924631125,0.12315905600362476]",100.0,"[0.020480662567669155,-0.12271707144041621]",100.0,"[-0.06664031627216423,0.039051367003375116]",100.0,"[-0.027176422166811043,0.021354522815440622]",100.0,"[0.03750393291352129,-0.1956191445188076]",100.0,"[0.053553810191024565,-0.028008091975731262]",100.0,"[-0.07376747474498437,-0.17093010596874156]",100.0,"[-0.03584260128031061,-0.043597076763654846]",100.0,"[-0.007330134574086871,-0.16369681592315222]",100.0,"[0.040066525678158535,0.14676613748824027]",4.0,"[0.13129022582725303,0.1443315052634007]",100.0,"[0.1558927055216295,-0.11761394527769697]",100.0,"[0.02,0.02]",183.9299,0.0,35.0,35.0,5.0,1.0,,,,,,,
,,,,,,,66aa651e21c9af8ebcd8081e,6842bb812a3936a39a8c70e6,2025-06-06_10h58.51.095,shape_ratio,2024.1.5,Win32,60.24096386,6842b561977af9ba9b0f87ca,,,,,,,,,,,183.9304,184.4294,,,184.6795,185.0291,right,,,,,,,,0.45,0.3178,,,,,,,184.4295,184.6794,185.0292,"[-0.024008047646501128,-0.07644652539166741]",4.0,"[0.09167438023903311,-0.008106901169410482]",100.0,"[0.11976819423007903,-0.10214286713456036]",4.0,"[0.14976061418744982,0.06144279273414856]",100.0,"[-0.04435026109523613,0.035306842718231646]",4.0,"[-0.11717122884187109,0.05578889737276784]",4.0,"[-0.0658371815519294,-0.06502943883642107]",4.0,"[-0.09754832927240897,-0.16425163257662304]",100.0,"[0.0392595191060625,-0.14478871534880358]",100.0,"[0.12822440262277732,-0.05058866633970059]",100.0,"[0.0006948756562082772,-0.17300278227519778]",4.0,"[-0.012341309239900573,0.10663507863157923]",4.0,"[0.066712053502499,0.028967934564915587]",4.0,"[0.003440837788866788,0.14447352147647002]",100.0,"[0.04033030394288498,-0.04583728527959499]",100.0,"[-0.08227542254980334,0.17420267691617194]",4.0,"[0.14806993571260513,-0.015437458482684649]",100.0,"[-0.009328395370595084,0.01101856539489875]",100.0,"[0.17655348734732842,-0.09083702875089116]",4.0,"[0.03856904668189428,0.16923306065768876]",4.0,"[-0.018157302203810392,-0.13016074194147756]",100.0,"[-0.14122541489662913,0.11289433160022871]",100.0,"[0.09837346989093611,0.05754285041760918]",4.0,"[0.07980057186121126,-0.11031084674687837]",100.0,"[-0.17670354837671987,-0.025577834821998813]",4.0,"[-0.12958406910244172,-0.06351357345461452]",100.0,"[-0.09715369671452986,-0.0252964002054924]",4.0,"[-0.18539271847399225,0.04308990167625629]",4.0,"[-0.09887503741750557,-0.12069622594258565]",100.0,"[0.058697590707140805,0.08318724733288321]",4.0,"[-0.05868740006929069,0.1383471710325508]",4.0,"[0.027502115655348262,-0.10370318322835671]",4.0,"[0.02,0.02]",186.128,0.0,36.0,36.0,143.0,1.0,,,,,,,
,,,,,,,66aa651e21c9af8ebcd8081e,6842bb812a3936a39a8c70e6,2025-06-06_10h58.51.095,shape_ratio,2024.1.5,Win32,60.24096386,6842b561977af9ba9b0f87ca,,,,,,,,,,,186.1285,186.6277,,,186.8775,187.1273,right,,,,,,,,0.45,0.2223,,,,,,,186.6277,186.8775,187.1273,"[0.03259357640473208,0.007543463858836931]",100.0,"[0.19825219564146465,-0.013679500914556367]",100.0,"[-0.09188698014940273,-0.11551685071177799]",4.0,"[-0.11592849994843543,-0.07329494509078698]",100.0,"[-0.05255454674566445,-0.13504332556242019]",100.0,"[-0.022812369653428193,-0.06975696776344883]",100.0,"[0.13331243538368395,0.026216773629925614]",100.0,"[0.17590248130593644,0.02602612429886892]",4.0,"[0.09431597239595538,0.11861149083496059]",100.0,"[0.056890264309471264,0.18180539332286696]",100.0,"[0.1482781996704708,-0.020562866915685093]",100.0,"[0.023237038915042026,0.07192210449377197]",100.0,"[-0.09711598496200195,-0.16881083966050797]",4.0,"[0.04370271983264892,-0.1767226402518811]",4.0,"[-0.16450392421402493,0.07346477638611758]",100.0,"[0.07179228956076002,0.06537127224076082]",4.0,"[0.09243480991433645,0.030619614534528293]",4.0,"[-0.039780725767544454,0.07943039110680145]",100.0,"[0.05287342140213069,-0.02977127741364641]",4.0,"[-0.017848849175741865,0.0130805588678343]",100.0,"[0.09901907431269062,-0.1432473601434973]",4.0,"[-0.0000046971168002782404,-0.13291055854907602]",4.0,"[0.023707887553052722,-0.07036549850730735]",4.0,"[-0.06431923543093185,0.031084749860478843]",100.0,"[-0.1528763204716409,-0.10956713895273272]",4.0,"[-0.050890730227172463,-0.019791107586221546]",4.0,"[0.1176340282210107,-0.055444733424082425]",4.0,"[-0.031464831872905094,0.15218102119592522]",4.0,"[0.05073212494990528,0.13742323684954438]",4.0,"[0.010838068533827995,0.11932576243514503]",4.0,"[-0.1604872015575101,-0.04248904848113211]",4.0,"[-0.12292037182642623,0.010419532121215358]",4.0,"[0.02,0.02]",188.2262,0.0,37.0,37.0,145.0,1.0,,,,,,,
,,,,,,,66aa651e21c9af8ebcd8081e,6842bb812a3936a39a8c70e6,2025-06-06_10h58.51.095,shape_ratio,2024.1.5,Win32,60.24096386,6842b561977af9ba9b0f87ca,,,,,,,,,,,188.2268,188.7258,,,188.9757,189.2088,right,,,,,,,,0.5,0.2012,,,,,,,188.7258,188.9757,189.2088,"[-0.07341735159457442,0.0368521377591932]",4.0,"[-0.04649855263511952,-0.036136695428454574]",100.0,"[0.11366820253711794,0.08309568639772978]",4.0,"[-0.07533174539418211,-0.18073301157983707]",4.0,"[0.016581939254198187,-0.05982694058449038]",4.0,"[0.025872887334933214,-0.19331935217039145]",4.0,"[0.13167776012210225,-0.0870062929916571]",100.0,"[0.015247824550238175,-0.1527992817654633]",100.0,"[-0.14298669068074543,0.13346606413089038]",4.0,"[0.0010429640924270091,0.025512538395673943]",100.0,"[0.12703337490475428,0.13158641837567245]",100.0,"[-0.16256155351084814,0.08795359202136926]",4.0,"[0.0118429500157272,0.09395754097790919]",100.0,"[0.16382989704188067,0.03656572203712522]",100.0,"[0.029002707455600744,-0.011483447506301113]",100.0,"[-0.05433436576054961,-0.13716098244432218]",100.0,"[0.07466130335326103,0.15506268099751505]",100.0,"[-0.03142797833809954,-0.18690183326536636]",4.0,"[0.15438564017486284,-0.02733929230853868]",4.0,"[-0.09271950432676683,-0.09352991538391103]",100.0,"[-0.07971559569245987,0.12633849256695745]",4.0,"[-0.18156373224866812,0.04075238720673532]",100.0,"[0.16665086006295374,0.09001159144704929]",4.0,"[-0.09311626979198115,-0.03429657357180217]",4.0,"[0.050389988524051306,0.05278721898657444]",100.0,"[-0.16059969390622994,-0.010063172790223717]",100.0,"[0.011296794923791471,0.16436422816544807]",4.0,"[-0.181696286214824,-0.06431925715194899]",4.0,"[0.09147755799648058,-0.08171529657992799]",100.0,"[0.12203134340426335,-0.0013754697041043053]",100.0,"[-0.11039399076532547,0.1633747523332392]",4.0,"[0.08048112210509199,0.11020479124377351]",4.0,"[0.02,0.02]",190.3075,0.0,38.0,38.0,92.0,1.0,,,,,,,
,,,,,,,66aa651e21c9af8ebcd8081e,6842bb812a3936a39a8c70e6,2025-06-06_10h58.51.095,shape_ratio,2024.1.5,Win32,60.24096386,6842b561977af9ba9b0f87ca,,,,,,,,,,,190.308,190.8072,,,191.0573,191.3236,right,,,,,,,,0.4,0.2344,,,,,,,190.8072,191.0572,191.3237,"[0.044734901701362816,0.01911141135320938]",4.0,"[-0.12136405565788072,-0.14771760678503348]",4.0,"[0.013312999872178826,-0.045997710572462366]",100.0,"[0.06383299548169606,-0.18146482227346492]",100.0,"[0.09864176528971391,-0.10739690218772621]",4.0,"[0.17456214826802333,-0.062248808575092]",100.0,"[-0.07515853800845795,0.003797063312578937]",4.0,"[-0.14105535346871695,-0.018242219652569707]",4.0,"[0.12886817361334346,-0.1457087594671992]",4.0,"[-0.04952492488697438,-0.08736316743259624]",100.0,"[0.08184413770591417,0.04651279850381475]",4.0,"[-0.06662444151494494,-0.15712701902216064]",100.0,"[-0.18831304362663398,-0.0017325649103669815]",4.0,"[-0.10719580709115123,0.15360462831420396]",100.0,"[-0.1629121011837113,-0.08211623856886033]",4.0,"[0.048112841592256275,0.08465087962326898]",100.0,"[-0.1567956551047164,0.05794090853792253]",4.0,"[0.08291091389847902,-0.06981794202836245]",100.0,"[0.05587551826035675,0.14326073635170808]",4.0,"[-0.031208430787180264,0.17916253332930124]",4.0,"[0.02171124191151911,0.17698663871820514]",4.0,"[0.15791663017031551,0.07056118595157468]",4.0,"[0.10948774509364989,-0.02644204822643975]",4.0,"[-0.0006581888204845144,0.1050797235632549]",4.0,"[-0.026303762703625486,-0.15872452520539831]",4.0,"[0.036628369682030766,-0.14036038103466994]",4.0,"[0.19748192143839072,0.0008106972903127363]",100.0,"[-0.013413918078634532,0.003971039646374807]",100.0,"[0.13089803948491743,0.028539049530262584]",100.0,"[0.008209451182530901,-0.17944798156402939]",4.0,"[0.1310811539133168,0.10656343217935475]",100.0,"[0.04623111340650601,-0.08617687922305559]",100.0,"[0.02,0.02]",192.4225,0.0,39.0,39.0,174.0,1.0,,,,,,,
,,,,,,,66aa651e21c9af8ebcd8081e,6842bb812a3936a39a8c70e6,2025-06-06_10h58.51.095,shape_ratio,2024.1.5,Win32,60.24096386,6842b561977af9ba9b0f87ca,,,,,,,,,,,192.4229,192.922,,,193.1723,193.3549,left,,,,,,,,0.45,0.1617,,,,,,,192.9221,193.1723,193.3551,"[0.14578802433179883,0.007014179650752458]",4.0,"[0.027748390667268977,0.13282116860827958]",4.0,"[0.03660092106430619,0.009161504740041048]",4.0,"[-0.09830430145689315,0.006523987206745233]",4.0,"[0.003145819894123454,0.0987947095164674]",100.0,"[0.16774664057037783,0.06805543879220693]",100.0,"[0.07751066161936823,-0.0002626003941186416]",100.0,"[-0.13929816576486836,-0.1076701851010837]",100.0,"[0.06557980255632348,-0.18015258777037396]",4.0,"[0.08076315264413554,0.14272147658110926]",4.0,"[0.009529245388139184,0.03899420965606908]",4.0,"[-0.11567586023864652,0.05806183909153233]",100.0,"[0.12829690001831237,-0.039430792949222526]",100.0,"[-0.16820420187940313,-0.018204409022922436]",100.0,"[-0.10512623948742564,-0.037329122618143376]",4.0,"[0.09370198195649485,0.09372358226395473]",4.0,"[0.004701498321122297,-0.09771440807804198]",4.0,"[-0.030434068743535013,-0.18535641272171172]",100.0,"[0.049974574024656306,0.18405525509730392]",4.0,"[-0.0065895017521464035,0.1708586762670484]",100.0,"[-0.11886953050910298,0.12683027670059058]",4.0,"[0.08143081429211692,-0.07354230111488251]",4.0,"[-0.06116399554685472,-0.01463426152755317]",4.0,"[-0.06464222007777896,0.030430425365457116]",100.0,"[0.11134926920643398,-0.10559761710053399]",100.0,"[-0.06936792070046587,-0.16649996993707886]",4.0,"[-0.04642213100575981,0.14962188388796244]",4.0,"[-0.11435443824541006,-0.1482221244558407]",4.0,"[0.033279035188740175,-0.06036064762595059]",100.0,"[0.1497053829160725,0.12389460573819369]",100.0,"[0.18656598210245934,-0.05329888718107297]",4.0,"[-0.15865238739304238,0.03517128623156344]",100.0,"[0.02,0.02]",194.454,0.0,40.0,40.0,134.0,1.0,,,,,,,
,,,,,,,66aa651e21c9af8ebcd8081e,6842bb812a3936a39a8c70e6,2025-06-06_10h58.51.095,shape_ratio,2024.1.5,Win32,60.24096386,6842b561977af9ba9b0f87ca,,,,,,,,,,,194.4545,194.9536,,,195.204,195.5864,left,,,,,,,,0.45,0.3571,,,,,,,194.9536,195.204,195.5865,"[-0.017470013880340116,-0.012077706388739748]",4.0,"[0.054154685238194375,0.09536673567686446]",100.0,"[0.010108879632356233,0.08831520845675032]",4.0,"[0.08787483891612545,0.1320839237670627]",4.0,"[-0.10275354093879079,0.03490864844084888]",100.0,"[0.139083096238372,0.05974712260462525]",100.0,"[0.046198456060972025,-0.06877184673733981]",100.0,"[0.019568326951386484,-0.15222884120233954]",4.0,"[-0.04117836744927179,-0.16245476945039652]",4.0,"[-0.09326042450245117,0.1499827753723411]",100.0,"[-0.12297669063686287,-0.06959825648382008]",100.0,"[-0.08070484901586726,-0.13459637501259714]",100.0,"[-0.17986845420861478,0.01140222955914041]",100.0,"[0.06680411981660064,-0.1528832222612683]",100.0,"[-0.14109850013933983,0.0878161156544661]",100.0,"[-0.011137804253452304,-0.05967042717843726]",4.0,"[0.17392314742600548,0.08321240283237821]",100.0,"[-0.1535406358181347,-0.10898149948584449]",100.0,"[-0.0571271496200994,-0.0549780965581863]",4.0,"[-0.05575601318774489,0.0732595337736409]",100.0,"[0.031392650082200095,0.04063735041593177]",4.0,"[0.07062837107908507,0.018757944967438864]",4.0,"[-0.025613983596440768,0.15622331608693255]",4.0,"[0.13587035945378514,-0.14493580606539153]",4.0,"[0.018400001321825975,0.17397779138211292]",4.0,"[-0.08297443212679638,-0.09319455069027084]",4.0,"[0.11920088846841022,-0.1072436455168138]",100.0,"[0.14729519425355442,-0.044977226070419686]",4.0,"[0.02772145827660883,-0.022481613062857366]",4.0,"[-0.013081969836340442,0.031203748863374518]",4.0,"[0.09086583599467647,0.07616370807896801]",4.0,"[-0.15074192548169316,0.046020237572645284]",4.0,"[0.02,0.02]",196.6852,0.0,41.0,41.0,141.0,1.0,,,,,,,
,,,,,,,66aa651e21c9af8ebcd8081e,6842bb812a3936a39a8c70e6,2025-06-06_10h58.51.095,shape_ratio,2024.1.5,Win32,60.24096386,6842b561977af9ba9b0f87ca,,,,,,,,,,,196.6856,197.185,,,197.4351,197.9678,right,,,,,,,,0.4,0.5066,,,,,,,197.185,197.435,197.9679,"[-0.12730133187697668,-0.04529610321291311]",100.0,"[0.0821206113161078,0.08962791401546596]",4.0,"[-0.019636945658237533,-0.16215980767699534]",100.0,"[-0.0495267614033778,-0.09237349308885359]",4.0,"[0.1452685538666586,-0.028038946664600935]",100.0,"[0.030732617494661402,-0.13874312608448627]",100.0,"[-0.009424457769814315,0.12355912759689978]",4.0,"[0.12144976528998036,0.11112935431281146]",4.0,"[0.047119532434489166,0.1445778747321476]",4.0,"[-0.10457924058507692,-0.008136887027378385]",100.0,"[0.15477563464233035,0.06823330261158352]",4.0,"[-0.012152408932772066,-0.07235131855020002]",100.0,"[-0.09603176475823845,0.04885546607290871]",4.0,"[0.11673672070270355,0.053300518317098984]",4.0,"[-0.08652484829223898,-0.14410482718771983]",100.0,"[-0.05399763792074313,0.17272649207486762]",4.0,"[0.01429028244629636,0.1763440980206276]",4.0,"[0.0701167935125168,0.03998826399505911]",4.0,"[0.10932551210952868,-0.11027255376396426]",4.0,"[0.19699731529364548,-0.00008843184534217024]",4.0,"[-0.06427218712598297,0.10038146476754294]",4.0,"[-0.10000401151829615,-0.07983424744175946]",4.0,"[-0.10641487164526167,0.09083589216616009]",4.0,"[-0.16461070940895509,-0.01584498497725467]",4.0,"[-0.1288349170666618,-0.1511856674344689]",4.0,"[-0.004876760297430167,0.03025411570015446]",100.0,"[0.07192176796044687,-0.14069181121232813]",4.0,"[0.1316968171445311,0.014018554148063102]",100.0,"[-0.1501267077916821,-0.09777602329765771]",100.0,"[-0.17295429277933738,0.05924039665804464]",100.0,"[0.14262679778914994,-0.13520407055873315]",100.0,"[0.035385930181538294,0.0007735549069818176]",100.0,"[0.02,0.02]",199.0666,0.0,42.0,42.0,165.0,1.0,,,,,,,
,,,,,,,66aa651e21c9af8ebcd8081e,6842bb812a3936a39a8c70e6,2025-06-06_10h58.51.095,shape_ratio,2024.1.5,Win32,60.24096386,6842b561977af9ba9b0f87ca,,,,,,,,,,,199.0672,199.5662,,,199.8164,200.4654,right,,,,,,,,0.45,0.6294,,,,,,,199.5663,199.8163,200.4655,"[-0.03472394394022581,-0.12025941543031438]",4.0,"[-0.04515818788007021,0.046709177930675166]",4.0,"[-0.016684381565055566,0.13303177791992282]",4.0,"[-0.10710561802797954,-0.10456848264303036]",4.0,"[0.19006233820546367,0.017219042750936348]",100.0,"[0.05192724499502376,-0.03994461444102756]",100.0,"[-0.1387889513399651,0.06644203582035178]",4.0,"[0.12391308695497272,0.06849359974206513]",4.0,"[-0.10764691831568257,0.1310784445292996]",100.0,"[-0.13884788861818026,-0.023900316626402344]",4.0,"[-0.021477597998539884,-0.008776042319161102]",4.0,"[-0.0967445653932059,0.08550566465454504]",4.0,"[0.07450402048549166,-0.14495814954344827]",100.0,"[0.03769260775016908,0.15689025374527907]",4.0,"[-0.09316767928470283,-0.056422544667525006]",100.0,"[-0.014130146096006121,-0.17895973722482036]",100.0,"[-0.07950814149906407,0.009563927006720789]",100.0,"[0.1820111157292672,-0.03927315741607735]",100.0,"[-0.07712723931385547,0.16092881457667704]",4.0,"[0.0388113495725356,0.045657935577578176]",4.0,"[0.04065273567210595,-0.08733178839375581]",4.0,"[0.09709625979460021,-0.08001951004280385]",4.0,"[-0.172166794881888,-0.07089105834646739]",100.0,"[-0.044954438731384036,0.08940555643591204]",4.0,"[-0.030768042504776674,-0.05218080463849466]",4.0,"[0.12380964332642845,-0.003863096217158531]",4.0,"[0.0867219996067269,0.09777877436526772]",100.0,"[0.1125818208747894,-0.12349381672436921]",100.0,"[-0.06373776864245201,-0.08897645263207964]",100.0,"[0.12161833240206195,0.1561722014243963]",4.0,"[0.1436256690936353,-0.06287094269763882]",100.0,"[-0.1567239432313678,0.01222951221208924]",100.0,"[0.02,0.02]",201.5646,0.0,43.0,43.0,147.0,1.0,,,,,,,
,,,,,,,66aa651e21c9af8ebcd8081e,6842bb812a3936a39a8c70e6,2025-06-06_10h58.51.095,shape_ratio,2024.1.5,Win32,60.24096386,6842b561977af9ba9b0f87ca,,,,,,,,,,,201.5651,202.0641,,,202.3143,202.5806,left,,,,,,,,0.55,0.2399,,,,,,,202.0641,202.3141,202.5806,"[-0.032511654496063726,-0.1864231446771411]",100.0,"[0.016551080187432708,-0.07525836526424462]",4.0,"[-0.11630062606999628,0.11274546151301174]",4.0,"[-0.18850797260090166,0.05926586617157019]",4.0,"[0.03352467597312512,-0.14727929437167714]",100.0,"[0.028160315507797306,0.018739633904961916]",100.0,"[0.06984534942533734,0.029297303726316958]",4.0,"[0.12405489827307599,-0.10245552762260743]",100.0,"[-0.06498949998270025,-0.09541730485480883]",4.0,"[-0.030881427595404017,0.17616075984814747]",100.0,"[-0.03670129675022362,0.05659878243477403]",100.0,"[0.07465484642985286,0.09748466169499519]",4.0,"[-0.02514764363145908,0.12437904501258858]",100.0,"[0.04066102514609062,0.12955475838007915]",100.0,"[0.17675569854113365,-0.039522456981534254]",100.0,"[-0.1058825968306189,-0.07774594797460246]",100.0,"[-0.07824956500306844,-0.03854601035405279]",4.0,"[0.022313367884057467,0.18543824105174714]",4.0,"[-0.1864098201396695,-0.046570362617889854]",100.0,"[0.08833644838610609,-0.01660670590290518]",100.0,"[-0.16134734989629393,0.005266867938022139]",4.0,"[-0.08751714725070506,0.17155365842564582]",100.0,"[0.045286146015459584,-0.02297434248907898]",4.0,"[-0.03362173294641415,-0.047518944205415733]",100.0,"[0.1411597368093448,0.07351356079450451]",4.0,"[0.16318957446795512,0.026972847599898833]",4.0,"[-0.17197136596563042,-0.09835539263408868]",100.0,"[-0.09401699949648587,0.013338351200075335]",100.0,"[0.07363852083646145,-0.1187874384072494]",4.0,"[0.12580910082135552,-0.15069898648467847]",100.0,"[-0.09587756093064176,-0.12314633346531156]",4.0,"[0.12396307842701411,0.11855932474441483]",100.0,"[0.02,0.02]",203.6793,0.0,44.0,44.0,89.0,1.0,,,,,,,
,,,,,,,66aa651e21c9af8ebcd8081e,6842bb812a3936a39a8c70e6,2025-06-06_10h58.51.095,shape_ratio,2024.1.5,Win32,60.24096386,6842b561977af9ba9b0f87ca,,,,,,,,,,,203.6798,204.1789,,,204.4293,204.7453,left,,,,,,,,0.55,0.2838,,,,,,,204.1789,204.4292,204.7453,"[-0.09866743907937815,0.05324526781921303]",100.0,"[0.04038057280569479,-0.19055454816539308]",100.0,"[-0.06877806521301182,0.09211684240627067]",4.0,"[0.18725085823133672,0.002034699743394457]",100.0,"[-0.15127882337289036,-0.11909349804951684]",4.0,"[0.11761907625458998,-0.1029371462123515]",4.0,"[0.15979261401824715,-0.04888185989923291]",100.0,"[0.03574274847616107,0.037288444371015424]",100.0,"[-0.09335836736505544,0.15544263680975504]",100.0,"[0.043162470684882485,-0.009231318237130573]",4.0,"[0.07556315430902336,-0.16669029907410085]",4.0,"[-0.05726648113894566,-0.12185748958979505]",100.0,"[0.007784253320863077,-0.08498058845078664]",100.0,"[-0.008026775084050407,-0.035955615660868946]",4.0,"[-0.015910226209482643,-0.13724534837691604]",100.0,"[0.12412363947825523,0.04833679356072017]",100.0,"[-0.04432130332028148,0.18032373618523717]",4.0,"[-0.023282196008725824,0.07946253078168096]",100.0,"[-0.1375831868688719,-0.07006200223862259]",4.0,"[-0.09629140524031289,-0.0918193867817377]",100.0,"[0.08073360237537536,0.07971565648581211]",100.0,"[-0.0629024041281837,-0.16366147094094827]",100.0,"[0.036449511629551845,0.16788944257347313]",4.0,"[-0.18688147931164004,-0.06493478503873151]",100.0,"[0.18773831889314416,0.05754681696661754]",4.0,"[-0.18997901610996645,-0.005614579315421442]",4.0,"[-0.055673168632202605,-0.046143409419197395]",4.0,"[-0.08002973835571478,-0.007147617319984927]",4.0,"[0.05794790888302238,-0.06951254235309938]",100.0,"[0.036543805514442085,0.10040858234441295]",100.0,"[0.08000396025303529,0.1748626520743703]",100.0,"[0.03805503203061921,-0.14797597229900225]",4.0,"[0.02,0.02]",205.844,0.0,45.0,45.0,86.0,1.0,,,,,,,
,,,,,,,66aa651e21c9af8ebcd8081e,6842bb812a3936a39a8c70e6,2025-06-06_10h58.51.095,shape_ratio,2024.1.5,Win32,60.24096386,6842b561977af9ba9b0f87ca,,,,,,,,,,,205.8445,206.3438,,,206.5941,206.9266,right,,,,,,,,0.5,0.3075,,,,,,,206.3439,206.5941,206.9267,"[-0.030171153961408917,0.09723273361707338]",4.0,"[-0.1649932815716107,0.02614456462190609]",100.0,"[0.19727337614770357,0.004018682008969337]",100.0,"[-0.047292657907946754,-0.15627842842549258]",4.0,"[0.09951311142077264,0.005802129568700179]",100.0,"[0.024159962617895502,-0.12756360092108876]",4.0,"[-0.12000140098561707,-0.0796332381278619]",4.0,"[-0.16634700281698808,-0.09401891796031217]",100.0,"[-0.02521475883777513,0.009858553531046692]",100.0,"[-0.13941536586251357,0.13366286730420768]",100.0,"[0.06451322268089095,0.13539172863058163]",4.0,"[0.023610235294396136,0.12614731645565802]",4.0,"[-0.1558931170554514,0.06902652722292425]",100.0,"[-0.06203101195978411,-0.07811066268264483]",100.0,"[-0.06442743815555607,0.1577851436955181]",100.0,"[-0.06071870784213094,0.0610963336894411]",4.0,"[0.18701573123551476,-0.04799021693289803]",4.0,"[-0.10376094625847161,0.04127894276225153]",4.0,"[-0.09186279402053525,0.1125650478443126]",100.0,"[-0.06136211180445479,-0.022392505661144438]",100.0,"[-0.015393989393541859,-0.10804141493235288]",4.0,"[0.07742373517842674,0.07237080446759381]",4.0,"[0.12604335051387616,-0.09108530038686967]",4.0,"[0.027413606672913256,0.0500468505969728]",100.0,"[0.021852434472040428,0.17894947402674485]",4.0,"[-0.1818989510708191,-0.05059311907901786]",4.0,"[0.07928906806874338,-0.032194288434765135]",4.0,"[0.022129044504882494,-0.009842046391881494]",100.0,"[0.07767796048852982,-0.1398337964995074]",4.0,"[-0.0037333555989434216,-0.06205562105641085]",100.0,"[-0.12784042474359264,-0.12502131026114854]",100.0,"[0.14500489767683555,0.008137194780130193]",100.0,"[0.02,0.02]",208.0256,0.0,46.0,46.0,98.0,1.0,,,,,,,
,,,,,,,66aa651e21c9af8ebcd8081e,6842bb812a3936a39a8c70e6,2025-06-06_10h58.51.095,shape_ratio,2024.1.5,Win32,60.24096386,6842b561977af9ba9b0f87ca,,,,,,,,,,,208.0262,208.5251,,,208.775,209.0915,left,,,,,,,,0.1,0.3,,,,,,,208.5251,208.775,209.0916,"[0.054669778261009334,0.06670492634389001]",4.0,"[0.021998062807611386,-0.011717275013012006]",4.0,"[0.019777021797791946,0.04056191205876411]",4.0,"[-0.18708243393807206,-0.022796818839396667]",4.0,"[-0.06258055537119979,0.10304865831909958]",4.0,"[0.04139078330493335,-0.1526870572879878]",100.0,"[0.14463019745209277,0.07713862264846214]",4.0,"[-0.08070138556425932,-0.027264861245995146]",4.0,"[-0.13208563651522096,0.06231569196166321]",4.0,"[-0.10149325471245088,-0.1632434677236544]",4.0,"[-0.06916579322155683,-0.1345925561970195]",4.0,"[0.06695885324611664,0.11558405607410471]",4.0,"[0.14230239876280956,0.1302422965046287]",4.0,"[0.08774533766430537,-0.06660020885174475]",4.0,"[-0.0004454807635251467,0.13273288321552607]",4.0,"[-0.033776765361899656,-0.006496995264277766]",4.0,"[-0.19085150036716172,0.025140595105120723]",100.0,"[0.15818982503118093,0.020819776838321383]",4.0,"[0.1220771543835877,-0.13872781215521515]",4.0,"[-0.006689344746683736,0.08620484179739035]",4.0,"[-0.09608399542525708,0.13575472769981387]",100.0,"[-0.02238289499913979,-0.18628608638309566]",4.0,"[-0.12843736488558205,-0.10482404561292583]",4.0,"[0.0027448566940640588,0.19127323775811855]",4.0,"[0.1659785169764854,-0.09587235071191416]",4.0,"[0.14190005336909994,-0.02525786607045023]",4.0,"[0.03941775803075126,-0.193762658349165]",4.0,"[-0.0648000954908376,-0.0946173735092242]",4.0,"[0.05541741146726018,0.16494086985723783]",4.0,"[0.18889129489603573,-0.055350847338655466]",4.0,"[-0.14661104239335293,-0.007781227425331972]",4.0,"[0.0037860169150696677,-0.050673199778411754]",4.0,"[0.02,0.02]",210.1904,0.0,47.0,47.0,206.0,1.0,,,,,,,
,,,,,,,66aa651e21c9af8ebcd8081e,6842bb812a3936a39a8c70e6,2025-06-06_10h58.51.095,shape_ratio,2024.1.5,Win32,60.24096386,6842b561977af9ba9b0f87ca,,,,,,,,,,,210.1909,210.69,,,210.9402,211.3894,left,,,,,,,,0.4,0.4174,,,,,,,210.69,210.9402,211.3895,"[-0.05890848002917444,0.08689689979205205]",100.0,"[-0.048689745980823276,-0.1400545810619402]",4.0,"[0.17982573574703134,-0.08272799886221147]",100.0,"[0.07079695081113757,-0.08964093807121924]",100.0,"[0.04292755359669776,0.0013275784866560998]",4.0,"[-0.004295471809117139,0.12405920634476561]",4.0,"[-0.16841521463360093,0.017785882721410837]",4.0,"[0.11028901607895873,-0.030905420039933497]",4.0,"[0.03760707535524466,-0.14342366563101636]",4.0,"[0.11678547537583368,0.1316008632444075]",100.0,"[-0.09587258032050172,0.16202140066951348]",4.0,"[-0.07182744790825484,0.024506235684973336]",100.0,"[0.1314929927657982,0.019834313880337122]",4.0,"[-0.06109922728302602,-0.018905673287427607]",4.0,"[-0.13154996461870347,-0.08168818544972382]",4.0,"[0.12095087739277223,0.06805869039013641]",100.0,"[-0.1591427096509415,0.05899071487893443]",100.0,"[0.0659967689374922,0.06189368923993704]",4.0,"[0.07121546953871753,0.10278809994140115]",100.0,"[0.013137706916526113,-0.05871177988460073]",100.0,"[-0.11462441947264045,0.07945178133600603]",100.0,"[-0.022373941265547283,-0.07756761615266222]",4.0,"[-0.04484730930547435,0.14697436572871483]",100.0,"[0.01690014512521713,-0.1025497769441203]",100.0,"[0.08009954679921115,0.18016552691774995]",4.0,"[0.10481912254334075,-0.16025215495759104]",4.0,"[0.10911345024501597,-0.11168498201390051]",4.0,"[-0.07908647708919163,-0.10455517432417805]",4.0,"[0.15406020983296534,-0.11849280835171759]",4.0,"[-0.016805189186312488,-0.16956638705994234]",100.0,"[-0.030661358922788248,0.012381716755347464]",4.0,"[0.018564814147597475,0.0649385838047896]",4.0,"[0.02,0.02]",212.4883,0.0,48.0,48.0,153.0,1.0,,,,,,,
,,,,,,,66aa651e21c9af8ebcd8081e,6842bb812a3936a39a8c70e6,2025-06-06_10h58.51.095,shape_ratio,2024.1.5,Win32,60.24096386,6842b561977af9ba9b0f87ca,,,,,,,,,,,212.4888,212.9879,,,213.2382,213.521,right,,,,,,,,0.55,0.2561,,,,,,,212.9879,213.2381,213.521,"[-0.015917125401293735,-0.0753060017067222]",100.0,"[0.047229565039219636,0.1026932519889575]",4.0,"[-0.1840608517128642,0.0742878380195431]",4.0,"[-0.074044668605412,-0.016595298054567748]",4.0,"[0.058093182642688826,-0.14707623664928096]",100.0,"[0.11615282043623362,0.0136069675568388]",100.0,"[-0.1278432517165645,0.07344598150511769]",4.0,"[-0.04814535276149803,-0.14114229589222652]",4.0,"[-0.002735626322803931,0.1157539811767764]",4.0,"[0.08224851672540881,0.17595491944871067]",100.0,"[0.0963640216070466,-0.05153153496586844]",4.0,"[-0.14556641148311736,-0.08831098148481553]",100.0,"[0.03965898730625135,-0.09088462219757776]",100.0,"[-0.04737265961013242,0.040729484532338836]",100.0,"[0.13212582647503904,-0.1151743467767536]",4.0,"[0.1462922888422199,0.05638351558085439]",100.0,"[-0.11434898005754836,-0.01474378956796236]",4.0,"[0.10451211158867485,-0.16795064947270416]",100.0,"[0.17636468564817273,0.009043833022391387]",4.0,"[0.08295078853895925,-0.09808305053315362]",4.0,"[-0.09167977605629186,-0.1347026260215005]",4.0,"[0.18890676862874972,-0.03349771313166647]",100.0,"[-0.08105754088082052,0.09772415014868575]",4.0,"[0.03600379664949862,-0.03040943005261793]",100.0,"[-0.1555960197441925,0.027061620514471245]",100.0,"[0.047503951300592706,0.04553942976053655]",100.0,"[-0.1061173504382682,0.13984921563422334]",4.0,"[-0.14420227733890936,0.11675684536438397]",100.0,"[0.008218192936442551,0.029471332786176144]",100.0,"[-0.01562598505508531,-0.03510494310783762]",100.0,"[-0.1907237821978615,-0.032334513058918005]",100.0,"[-0.09329024964752587,-0.0663141546044493]",100.0,"[0.02,0.02]",214.6198,0.0,49.0,49.0,80.0,1.0,,,,,,,
