right,left,explain.started,explain.stopped,key_resp_3.keys,key_resp_3.rt,key_resp_3.duration,participant,session,date,expName,psychopyVersion,OS,frameRate,study_id,explain_2.started,explain_2.stopped,key_resp_4.keys,key_resp_4.rt,key_resp_4.duration,explain_3.started,explain_3.stopped,key_resp_5.keys,key_resp_5.rt,key_resp_5.duration,fixation.started,fixation.stopped,practice.started,practice.stopped,response.started,response.stopped,key_resp.keys,feedback.started,feedback.stopped,trials_2.thisRepN,trials_2.thisTrialN,trials_2.thisN,trials_2.thisIndex,trials_2.ran,dot_ratio,key_resp.rt,key_resp.duration,explain_4.started,explain_4.stopped,key_resp_6.keys,key_resp_6.rt,key_resp_6.duration,dotDisplay.started,dotDisplay.stopped,ITI.started,polygon_1.pos,polygon_1.edges,polygon_2.pos,polygon_2.edges,polygon_3.pos,polygon_3.edges,polygon_4.pos,polygon_4.edges,polygon_5.pos,polygon_5.edges,polygon_6.pos,polygon_6.edges,polygon_7.pos,polygon_7.edges,polygon_8.pos,polygon_8.edges,polygon_9.pos,polygon_9.edges,polygon_10.pos,polygon_10.edges,polygon_11.pos,polygon_11.edges,polygon_12.pos,polygon_12.edges,polygon_13.pos,polygon_13.edges,polygon_14.pos,polygon_14.edges,polygon_15.pos,polygon_15.edges,polygon_16.pos,polygon_16.edges,polygon_17.pos,polygon_17.edges,polygon_18.pos,polygon_18.edges,polygon_19.pos,polygon_19.edges,polygon_20.pos,polygon_20.edges,polygon_21.pos,polygon_21.edges,polygon_22.pos,polygon_22.edges,polygon_23.pos,polygon_23.edges,polygon_24.pos,polygon_24.edges,polygon_25.pos,polygon_25.edges,polygon_26.pos,polygon_26.edges,polygon_27.pos,polygon_27.edges,polygon_28.pos,polygon_28.edges,polygon_29.pos,polygon_29.edges,polygon_30.pos,polygon_30.edges,polygon_31.pos,polygon_31.edges,polygon_32.pos,polygon_32.edges,dot_size,ITI.stopped,trials.thisRepN,trials.thisTrialN,trials.thisN,trials.thisIndex,trials.ran,break_2.started,break_2.stopped,trials_3.thisRepN,trials_3.thisTrialN,trials_3.thisN,trials_3.thisIndex,trials_3.ran
subject chose diamond,subject chose dot,0.0002,78.0898,space,63.0743,,66af93dfdf68b39e95f1dd7e,684429d264ef8554049c6fce,2025-06-07_14h04.12.694,shape_ratio,2024.1.5,Win32,60.24096386,684250e4f00cb30b92d1fa88,,,,,,,,,,,,,,,,,,,,,,,,,,,,,,,,,,,,,,,,,,,,,,,,,,,,,,,,,,,,,,,,,,,,,,,,,,,,,,,,,,,,,,,,,,,,,,,,,,,,,,,,,,,,,,,,,
,,,,,,,66af93dfdf68b39e95f1dd7e,684429d264ef8554049c6fce,2025-06-07_14h04.12.694,shape_ratio,2024.1.5,Win32,60.24096386,684250e4f00cb30b92d1fa88,78.0902,142.7241,space,34.621,,,,,,,,,,,,,,,,,,,,,,,,,,,,,,,,,,,,,,,,,,,,,,,,,,,,,,,,,,,,,,,,,,,,,,,,,,,,,,,,,,,,,,,,,,,,,,,,,,,,,,,,,,,,,
,,,,,,,66af93dfdf68b39e95f1dd7e,684429d264ef8554049c6fce,2025-06-07_14h04.12.694,shape_ratio,2024.1.5,Win32,60.24096386,684250e4f00cb30b92d1fa88,,,,,,142.7244,149.489,space,3.7365,,,,,,,,,,,,,,,,,,,,,,,,,,,,,,,,,,,,,,,,,,,,,,,,,,,,,,,,,,,,,,,,,,,,,,,,,,,,,,,,,,,,,,,,,,,,,,,,,,,,,,,,
,,,,,,,66af93dfdf68b39e95f1dd7e,684429d264ef8554049c6fce,2025-06-07_14h04.12.694,shape_ratio,2024.1.5,Win32,60.24096386,684250e4f00cb30b92d1fa88,,,,,,,,,,,149.508,150.0054,150.0056,150.242,150.2422,151.7383,,151.7385,152.838,0.0,0.0,0.0,1.0,1.0,0.8,,,,,,,,,,,,,,,,,,,,,,,,,,,,,,,,,,,,,,,,,,,,,,,,,,,,,,,,,,,,,,,,,,,,,,,,,,,,,,,,,,,,,,,,
,,,,,,,66af93dfdf68b39e95f1dd7e,684429d264ef8554049c6fce,2025-06-07_14h04.12.694,shape_ratio,2024.1.5,Win32,60.24096386,684250e4f00cb30b92d1fa88,,,,,,,,,,,152.8383,153.3377,153.3377,153.588,153.588,153.9542,right,153.9543,155.0539,0.0,1.0,1.0,0.0,1.0,0.2,0.3596,,,,,,,,,,,,,,,,,,,,,,,,,,,,,,,,,,,,,,,,,,,,,,,,,,,,,,,,,,,,,,,,,,,,,,,,,,,,,,,,,,,,,,,
,,,,,,,66af93dfdf68b39e95f1dd7e,684429d264ef8554049c6fce,2025-06-07_14h04.12.694,shape_ratio,2024.1.5,Win32,60.24096386,684250e4f00cb30b92d1fa88,,,,,,,,,,,,,,,,,,,,,,,,,,,,155.0542,203.7093,space,45.6264,,,,,,,,,,,,,,,,,,,,,,,,,,,,,,,,,,,,,,,,,,,,,,,,,,,,,,,,,,,,,,,,,,,,,,,,,,,,,,,,,,
,,,,,,,66af93dfdf68b39e95f1dd7e,684429d264ef8554049c6fce,2025-06-07_14h04.12.694,shape_ratio,2024.1.5,Win32,60.24096386,684250e4f00cb30b92d1fa88,,,,,,,,,,,203.7201,204.2087,,,204.4624,204.8253,left,,,,,,,,0.9,0.3366,,,,,,,204.2092,204.4624,204.8258,"[-0.1876538550763301,0.06664561499657085]",100.0,"[0.0861214389954252,-0.15479071882380985]",100.0,"[0.041894662767133994,-0.1309341459689935]",100.0,"[-0.03696108855575931,-0.007911113720194908]",100.0,"[-0.0005204424900982288,0.01426612095038995]",100.0,"[-0.06879570796621466,0.017183745792979883]",4.0,"[-0.020171730490056633,-0.12209018117976045]",100.0,"[-0.09890228416762938,0.05777977176768681]",4.0,"[0.12345617562097669,-0.0995213892063245]",100.0,"[0.05878397337971703,0.10760255633002812]",100.0,"[-0.11666835048468684,0.12103757896838731]",100.0,"[-0.18017952102108173,-0.07633778810387008]",100.0,"[-0.060585913386828824,0.08591481504572013]",100.0,"[-0.09057745820447172,-0.019013121810275677]",100.0,"[-0.06527485343873561,0.1784100195842939]",100.0,"[0.1868017132368121,0.06521710831953348]",100.0,"[0.09444492952433957,-0.07151381916034949]",100.0,"[0.043013191049339476,0.1931552363082171]",100.0,"[0.1673391124377152,-0.035177584096531156]",100.0,"[-0.018965927276561607,0.18725902694444388]",4.0,"[0.01864625696486991,-0.03070459854165545]",100.0,"[-0.09766370043699252,-0.1546773428726976]",100.0,"[0.010667415635202921,0.1085733403511413]",100.0,"[0.13132046468472866,0.1485879140951504]",100.0,"[0.1502745941442736,0.038172685031902166]",100.0,"[0.0732900696628842,-0.009526453308500557]",100.0,"[-0.0019366867945008947,-0.16227450322806425]",100.0,"[-0.10426916686205533,-0.08614144655400095]",100.0,"[-0.05121309902412856,-0.07885341035923914]",100.0,"[0.05959539250504867,0.05868433617823731]",100.0,"[-0.14762606803566963,-0.1287918863242233]",100.0,"[0.12105688419841992,-0.007829054388519193]",100.0,"[0.02,0.02]",205.9253,0.0,0.0,0.0,9.0,1.0,,,,,,,
,,,,,,,66af93dfdf68b39e95f1dd7e,684429d264ef8554049c6fce,2025-06-07_14h04.12.694,shape_ratio,2024.1.5,Win32,60.24096386,684250e4f00cb30b92d1fa88,,,,,,,,,,,205.9257,206.4249,,,206.6792,207.0248,right,,,,,,,,0.5,0.3283,,,,,,,206.425,206.6792,207.0248,"[0.1135713138712266,0.06894984263035943]",100.0,"[-0.04188958376041066,0.16984877951937688]",100.0,"[-0.0817377003559894,-0.019782269784949784]",4.0,"[0.050450888555360215,-0.1883815879598692]",4.0,"[-0.1849208339668988,0.0017190155250163552]",100.0,"[0.005719785199309127,-0.10678180430530532]",100.0,"[-0.06316410247176699,0.03307694682148369]",4.0,"[-0.07637692927921676,0.13508432550358807]",4.0,"[0.14216527717159227,-0.044597561370006616]",100.0,"[-0.1314840322681672,-0.1376965866047379]",4.0,"[-0.18255092153199268,0.06823572512105351]",4.0,"[-0.021958989244241032,0.10515561953374526]",4.0,"[0.12572164322727802,-0.10377573136265207]",100.0,"[0.04244304264503822,0.07537145652430548]",100.0,"[0.07515566586086725,0.001863446393544405]",100.0,"[-0.15878548178477675,0.11905613288839235]",4.0,"[0.03865076961659964,-0.06418270711519515]",4.0,"[0.0198434132849235,0.11517993421054654]",100.0,"[-0.030500517643842984,-0.027070535039199154]",100.0,"[-0.08330645777775342,-0.07185073495820278]",4.0,"[0.17877613560806407,0.06937376199153973]",4.0,"[0.1615666035404892,0.1156194122257093]",100.0,"[0.013531844728207402,0.16280747148924207]",4.0,"[-0.045707496780370366,-0.117263954455801]",4.0,"[-0.061489810508419875,0.0904230287835063]",100.0,"[0.05158016025759566,-0.13483124400763566]",4.0,"[-0.13941816291891837,0.05535837796769516]",4.0,"[-0.13042343452536623,0.0017303310259147184]",100.0,"[0.11491715584779504,0.11632089707382683]",4.0,"[0.16611419568616706,-0.006280641824725931]",100.0,"[-0.0854975063393973,-0.16369033816602743]",100.0,"[0.18458926417104152,-0.07001763643696417]",100.0,"[0.02,0.02]",208.1246,0.0,1.0,1.0,110.0,1.0,,,,,,,
,,,,,,,66af93dfdf68b39e95f1dd7e,684429d264ef8554049c6fce,2025-06-07_14h04.12.694,shape_ratio,2024.1.5,Win32,60.24096386,684250e4f00cb30b92d1fa88,,,,,,,,,,,208.1249,208.6244,,,208.8765,209.3076,left,,,,,,,,0.45,0.4009,,,,,,,208.6245,208.8765,209.3076,"[0.08271619652539093,0.034390062269135845]",100.0,"[0.04481714569409315,-0.1429077959487626]",4.0,"[-0.11355002574372346,0.08855645488091109]",100.0,"[0.020930302413918068,-0.03114770443393686]",4.0,"[-0.07599039713313499,0.055559798446104]",100.0,"[0.11566477561888161,-0.07236189242655823]",100.0,"[-0.15087707347840712,-0.10927036692974502]",4.0,"[-0.009856174527391409,0.19461492976996397]",100.0,"[0.08681071154964959,0.162211243866121]",100.0,"[-0.1764995689653333,-0.0580951177465573]",4.0,"[0.03185460472136892,0.12612919638615008]",4.0,"[-0.08788684516379354,-0.09418200807958027]",4.0,"[0.13773592500997472,-0.10880233014525674]",100.0,"[0.15511192520475625,0.03687993173420595]",4.0,"[0.1343583922128705,-0.03632102248914952]",4.0,"[-0.13966966523838173,0.12372782595769886]",4.0,"[-0.022520698981617147,0.08351279145143559]",4.0,"[-0.07420316843718519,0.11802343320043872]",4.0,"[0.10107933599912294,0.08073578539005664]",4.0,"[-0.02974584633225691,-0.0396001389473991]",100.0,"[0.16278185625168398,0.10493345066634836]",100.0,"[0.03744394952476317,0.06630786115140484]",100.0,"[-0.0036182684970429255,-0.10125339413038767]",4.0,"[-0.03470905281344374,-0.13816905396607632]",4.0,"[-0.05977776786513837,-0.17461879767993146]",100.0,"[-0.15996060990210012,0.053470290471185275]",4.0,"[-0.11556908158174135,-0.04787018837188874]",100.0,"[0.026097242820220076,-0.18958670207731376]",4.0,"[0.03487242217615053,-0.07725403563725351]",100.0,"[-0.0366645885329335,0.16451166570682577]",4.0,"[-0.12315146745970698,0.020486221056559385]",4.0,"[0.18991581792897966,-0.018634143868550453]",100.0,"[0.02,0.02]",210.4073,0.0,2.0,2.0,135.0,1.0,,,,,,,
,,,,,,,66af93dfdf68b39e95f1dd7e,684429d264ef8554049c6fce,2025-06-07_14h04.12.694,shape_ratio,2024.1.5,Win32,60.24096386,684250e4f00cb30b92d1fa88,,,,,,,,,,,210.4077,210.9072,,,211.1613,211.2572,right,,,,,,,,0.5,0.0702,,,,,,,210.9073,211.1613,211.2572,"[-0.19758836805322744,-0.007245161078223839]",100.0,"[0.19202695454768956,-0.024933500424613227]",100.0,"[-0.08412663528228219,0.13272777590288654]",100.0,"[0.11384496910937707,0.13786906311101324]",4.0,"[-0.18549343759662595,0.06721113636048036]",4.0,"[0.030593147651519034,-0.05967862010460123]",100.0,"[-0.00950875471035928,0.16808918430686115]",100.0,"[0.09978410129012508,0.023073161596740905]",100.0,"[-0.11341161562168835,-0.15771265221013744]",100.0,"[0.1439021056898834,0.1013065347813809]",4.0,"[-0.04228427312495746,0.028419027055616823]",4.0,"[0.007152163575816949,0.09046365542763764]",4.0,"[0.07647230431044717,0.1633566732092523]",100.0,"[0.14823743790664054,0.003738308746194739]",4.0,"[0.0408464212490445,-0.13468212768303472]",4.0,"[-0.0063694312642670866,-0.013376470648595507]",4.0,"[-0.14562074941594685,0.13617704597354163]",100.0,"[0.11002349611761174,-0.09472467521914901]",4.0,"[0.07740483701396608,-0.05590516415048531]",100.0,"[0.04291585676693865,0.03036319542399469]",4.0,"[-0.04955219287571933,-0.023191573967966006]",4.0,"[0.10281834765881304,0.06794510373041704]",4.0,"[-0.13606361575015505,-0.017520263673825632]",4.0,"[0.04423116387838561,-0.1852687977859137]",100.0,"[0.048352189419136896,0.1110287754989739]",4.0,"[0.06904458694031262,-0.015607526558596912]",4.0,"[-0.07516213983692342,-0.07317002994445665]",100.0,"[0.1598757544922643,-0.11074648651699084]",100.0,"[-0.054875948308304764,0.077097707143386]",100.0,"[-0.056097913113224124,-0.1872557622237564]",4.0,"[-0.03818852260335451,-0.11203674543201643]",100.0,"[-0.1371685369529044,0.08114133399006489]",100.0,"[0.02,0.02]",212.3568,0.0,3.0,3.0,106.0,1.0,,,,,,,
,,,,,,,66af93dfdf68b39e95f1dd7e,684429d264ef8554049c6fce,2025-06-07_14h04.12.694,shape_ratio,2024.1.5,Win32,60.24096386,684250e4f00cb30b92d1fa88,,,,,,,,,,,212.3572,212.8567,,,213.1107,213.5399,right,,,,,,,,0.1,0.4086,,,,,,,212.8568,213.1107,213.54,"[0.11972161953616776,0.07409128847859585]",4.0,"[0.015732662003157108,-0.06943377497007867]",100.0,"[-0.05482392222695239,-0.026379201359626958]",4.0,"[0.10792172527962964,-0.10884754903549575]",4.0,"[-0.0887603978117097,-0.1397761849249289]",4.0,"[-0.11710943959947785,-0.017488502415539786]",4.0,"[-0.06023289036947993,0.08069596737444756]",4.0,"[-0.01766749418955445,-0.11840893161288543]",4.0,"[0.14803676477837777,-0.09740913757690992]",4.0,"[0.0028800300652693043,0.06858102854678048]",4.0,"[-0.16452715007501273,-0.011329683704984187]",4.0,"[0.04641066183198288,0.12241413101702782]",4.0,"[0.17420318864905598,0.08284532598560328]",4.0,"[0.07479026039448866,0.17657405448651922]",4.0,"[-0.005052900321693383,0.19939628081640448]",4.0,"[0.009289883984034679,-0.004046504009047683]",4.0,"[-0.09287864596597817,0.16641147711434465]",100.0,"[0.10323577616225715,0.03008089117558709]",4.0,"[-0.06461939492263222,-0.10512599159763544]",4.0,"[0.06225254956346185,-0.1542724917183827]",4.0,"[-0.1612744233435188,-0.05482908448416815]",4.0,"[0.04102638082769294,0.0354426678698504]",100.0,"[0.05533240072530736,-0.11370108616860525]",4.0,"[0.1162039028972325,-0.055290780690405446]",4.0,"[0.14765658619907912,0.11734892933739623]",4.0,"[0.13798746007066756,-0.01928975470549346]",4.0,"[-0.11246019821944053,0.02268681344050933]",4.0,"[0.025685428667443597,0.1731672089215534]",4.0,"[-0.03495677829603899,0.037448547208004446]",4.0,"[0.19681574995444095,0.02929333037384837]",4.0,"[0.19239187494402288,-0.04354801555370809]",4.0,"[0.11382032168201014,0.1442971604493232]",4.0,"[0.02,0.02]",214.6396,0.0,4.0,4.0,208.0,1.0,,,,,,,
,,,,,,,66af93dfdf68b39e95f1dd7e,684429d264ef8554049c6fce,2025-06-07_14h04.12.694,shape_ratio,2024.1.5,Win32,60.24096386,684250e4f00cb30b92d1fa88,,,,,,,,,,,214.6399,215.1395,,,215.3937,215.7228,left,,,,,,,,0.4,0.302,,,,,,,215.1395,215.3937,215.7229,"[-0.0014782529225642242,-0.1884619966526285]",4.0,"[0.019999871463669144,-0.0643345061376748]",100.0,"[0.11905057800035876,-0.027338571259533765]",100.0,"[-0.1294950592942496,-0.0422215582172447]",100.0,"[-0.14115179180486787,0.013721942175363778]",4.0,"[-0.009512817460067486,-0.09770296369771574]",4.0,"[0.16370427575678234,-0.05926162592231062]",4.0,"[0.16043044480966057,0.03497729881103624]",4.0,"[-0.047683909935892096,-0.12102677611540132]",100.0,"[0.17172695616318898,0.09903485758774042]",4.0,"[-0.0656268385814674,0.04236003902122648]",4.0,"[-0.052278527351586564,-0.1816108887491271]",100.0,"[0.10421867981377958,0.13369293750741285]",100.0,"[0.03148317555241164,0.13834500135587788]",100.0,"[-0.11738689312362859,0.1567183626789881]",4.0,"[-0.06507788425107038,-0.031201837134536475]",4.0,"[0.15881803254006568,-0.009974203134154772]",4.0,"[-0.10961154208063106,-0.167086525907317]",4.0,"[0.04423103483264701,0.18458403670812362]",4.0,"[0.08397727830042294,-0.15123575992540542]",100.0,"[-0.004521282000738204,0.0829991518095572]",100.0,"[-0.1800336824427509,0.06831983485371551]",4.0,"[-0.10869072879257191,0.10643570860448633]",100.0,"[0.047977793692749515,0.026681615087915184]",100.0,"[-0.12648955060760073,-0.10052559482996984]",100.0,"[0.06711368679951359,0.06845454445979952]",4.0,"[0.06379476750314898,-0.08199840235718836]",4.0,"[-0.05099821828686619,0.08900097206929171]",4.0,"[0.12498179949643803,-0.07460012745484818]",4.0,"[-0.1264791025117811,0.054819674790298784]",4.0,"[0.11122286450787579,0.05272199533793384]",4.0,"[-0.18361122108796504,0.0080127176843344]",100.0,"[0.02,0.02]",216.8225,0.0,5.0,5.0,156.0,1.0,,,,,,,
,,,,,,,66af93dfdf68b39e95f1dd7e,684429d264ef8554049c6fce,2025-06-07_14h04.12.694,shape_ratio,2024.1.5,Win32,60.24096386,684250e4f00cb30b92d1fa88,,,,,,,,,,,216.8227,217.3223,,,217.5742,217.8555,right,,,,,,,,0.6,0.2502,,,,,,,217.3223,217.5742,217.8556,"[-0.018139424706039402,-0.142773266973033]",4.0,"[0.17362605903990785,0.02219643016878769]",4.0,"[0.03190614125693119,0.012051412954613192]",100.0,"[0.13115465558210582,0.07600967529838569]",100.0,"[-0.07462817000605516,0.11986827816767735]",4.0,"[-0.0017650409581324658,0.06374652851394778]",100.0,"[-0.016103053535512352,0.12050120673787566]",100.0,"[-0.14166505730421894,0.13720282412816773]",4.0,"[-0.12478963392422074,-0.03125693466778663]",100.0,"[0.07262426194624401,0.03666946082006812]",100.0,"[0.040949517884470446,0.17917778654968455]",100.0,"[-0.15750393397654236,-0.12055026980768088]",4.0,"[0.030806486599089678,-0.15585609712096504]",100.0,"[-0.02262962004353113,-0.053063047226231085]",100.0,"[-0.022101679105646112,0.012687766792232031]",100.0,"[-0.18274565475622329,-0.00210412892220165]",4.0,"[-0.1464616933830895,0.07341869611202041]",100.0,"[-0.07304876500559593,-0.16934172458930583]",100.0,"[-0.08012921704622106,0.055329620405343734]",4.0,"[-0.10998997767187342,0.09865360748265317]",4.0,"[0.08935601541908643,-0.06938896132148593]",100.0,"[-0.102049585473739,0.006342073906613125]",100.0,"[0.0069031755371557315,-0.1951915404580061]",4.0,"[0.19439311330193362,-0.043722435384352006]",4.0,"[-0.11103253926146507,-0.09357058875006333]",100.0,"[-0.07907810555652475,-0.0345945773039345]",100.0,"[0.13809224837496445,-0.10318011312796786]",100.0,"[-0.0044338232435229006,0.19221620476446571]",100.0,"[0.061696871894144606,0.11342489718904561]",4.0,"[0.05184336458958649,-0.046509479787374186]",100.0,"[0.11043116784986286,-0.15961260582618286]",4.0,"[0.10476186963477634,0.1624772260374276]",4.0,"[0.02,0.02]",218.9552,0.0,6.0,6.0,55.0,1.0,,,,,,,
,,,,,,,66af93dfdf68b39e95f1dd7e,684429d264ef8554049c6fce,2025-06-07_14h04.12.694,shape_ratio,2024.1.5,Win32,60.24096386,684250e4f00cb30b92d1fa88,,,,,,,,,,,218.9556,219.4551,,,219.7055,220.105,right,,,,,,,,0.1,0.3702,,,,,,,219.4551,219.7054,220.1051,"[0.023117666256102044,0.19636589606914767]",4.0,"[-0.06399172035701606,-0.10319228788939248]",4.0,"[-0.12398036678818132,0.11631257919331059]",4.0,"[-0.06026415239800127,0.02600012079360757]",4.0,"[0.01306761155610902,0.0759235997493186]",4.0,"[-0.12627160160594245,0.010529868138773265]",4.0,"[0.10094799967651284,-0.0745036880920526]",4.0,"[-0.15719747483585728,-0.017163755498225512]",4.0,"[0.0581102906869022,-0.15897532141023601]",4.0,"[0.14488602682426463,0.00874684636187229]",4.0,"[-0.009295991699822986,0.0029599278567214865]",4.0,"[0.09376226013387033,0.08019843870963433]",4.0,"[0.10404134206703675,0.16302150146453628]",4.0,"[0.11056391896390387,-0.027253902530764606]",4.0,"[-0.05608560937967039,0.11214208300630492]",4.0,"[-0.14495454960150395,-0.09234707749810575]",4.0,"[0.04564370471517654,-0.05774263877458467]",4.0,"[-0.10659352760680385,-0.11841608961128712]",4.0,"[-0.06214705525924459,-0.05309282458414649]",4.0,"[-0.06818213272249203,0.15385256285404483]",4.0,"[-0.17103420601890923,0.05136437518181472]",100.0,"[-0.04989881388858492,-0.14780233947343158]",4.0,"[-0.007608728543132713,0.12218353924218962]",4.0,"[0.0483231853902016,-0.11042881079815282]",4.0,"[0.17200415564775523,0.061049980427451946]",4.0,"[0.17950549853954703,-0.024990037637966724]",4.0,"[0.11722164590528539,-0.1443942391341073]",4.0,"[0.03974925766608211,0.14687115758940555]",100.0,"[0.07703892544737295,0.03856828609388289]",4.0,"[0.007680623818160492,-0.03971739235018498]",4.0,"[0.12295335196335962,0.11205614618319511]",100.0,"[0.1847732371643952,0.02079169918882611]",4.0,"[0.02,0.02]",221.2047,0.0,7.0,7.0,185.0,1.0,,,,,,,
,,,,,,,66af93dfdf68b39e95f1dd7e,684429d264ef8554049c6fce,2025-06-07_14h04.12.694,shape_ratio,2024.1.5,Win32,60.24096386,684250e4f00cb30b92d1fa88,,,,,,,,,,,221.2049,221.7045,,,221.9549,222.3044,right,,,,,,,,0.45,0.3287,,,,,,,221.7046,221.9549,222.3046,"[0.11909546059428407,0.09180747858234278]",4.0,"[0.1188523439399483,-0.13857085844362496]",100.0,"[0.04072169580358947,-0.030585471589880554]",4.0,"[0.10965821221395695,0.14263849505695367]",4.0,"[-0.08179608373920083,0.17984727080173238]",4.0,"[-0.08127470476370734,-0.17685800746812297]",4.0,"[0.07611628685686053,0.08215010613499642]",4.0,"[0.1620644614712096,-0.10174518334687882]",4.0,"[0.05507722115697395,0.12228289870398878]",4.0,"[-0.014081244808459795,-0.02130067463279849]",100.0,"[-0.12371156818831477,0.0760300149621428]",4.0,"[-0.14050198416673107,-0.03941406725695834]",100.0,"[0.08934668625732699,0.02023875442323337]",4.0,"[-0.10694877293034272,0.032623441844868296]",100.0,"[-0.009258357828458387,0.03251388150075901]",4.0,"[-0.07033515538715521,-0.04395730810701898]",100.0,"[0.04900395426406459,-0.1657226067050368]",100.0,"[-0.06660844391515745,0.0878965361179349]",100.0,"[-0.05105880734323087,0.13287584801551564]",100.0,"[0.09426064423694612,-0.024521908251035857]",4.0,"[-0.16152040091022582,0.02281586385274461]",4.0,"[-0.18002895164100718,0.06343267602317086]",100.0,"[0.12123112528397685,-0.06064388761075678]",4.0,"[0.06233695930372657,-0.12340751754383601]",100.0,"[-0.004059229652223061,-0.16589711188441858]",4.0,"[-0.08527312023285066,-0.11046240912055257]",4.0,"[-0.017129144787560183,-0.10671816624642423]",4.0,"[-0.19014535301043922,-0.02165815507353094]",100.0,"[0.17879358966717424,-0.0494171949124846]",100.0,"[-0.04186809389673802,-0.14186242422879614]",4.0,"[0.005885147487280786,0.12095553318353525]",100.0,"[-0.1434008624170993,0.12178425772560407]",100.0,"[0.02,0.02]",223.4041,0.0,8.0,8.0,125.0,1.0,,,,,,,
,,,,,,,66af93dfdf68b39e95f1dd7e,684429d264ef8554049c6fce,2025-06-07_14h04.12.694,shape_ratio,2024.1.5,Win32,60.24096386,684250e4f00cb30b92d1fa88,,,,,,,,,,,223.4045,223.9041,,,224.1559,224.3707,right,,,,,,,,0.55,0.1933,,,,,,,223.9041,224.1559,224.3707,"[-0.0021460318929537414,0.0488088519281142]",100.0,"[-0.009706443637988976,-0.12883453805372325]",4.0,"[0.10541750396081823,-0.15973183041855674]",4.0,"[-0.14775184815644973,-0.03649740799545214]",4.0,"[-0.004117870679926907,0.19887465457292183]",100.0,"[0.08326671757703585,-0.0512005863800635]",4.0,"[-0.05790128747188889,0.017246362109781487]",100.0,"[0.10385410348754005,-0.09079826245141463]",100.0,"[-0.004456771473819482,0.1566353507912988]",4.0,"[0.15434331933960344,-0.06433385752004513]",4.0,"[-0.050328390817578936,-0.03349729098522027]",4.0,"[0.1673316796203188,0.045165102154366955]",100.0,"[-0.08715714430308302,-0.0792179644279411]",100.0,"[0.03645219732099088,0.13408905755087658]",100.0,"[0.03294910163930182,-0.07528652439730776]",4.0,"[-0.043355747734293154,0.18468004084993336]",4.0,"[-0.17234494121343985,0.03793281695011984]",100.0,"[0.054712611816760605,0.0393098628275188]",100.0,"[0.04573620043399272,-0.1873825169833566]",4.0,"[-0.09097817553385187,0.13016088754661392]",100.0,"[-0.0674503882841586,-0.11407386466024698]",4.0,"[-0.16269263479059,-0.09395010180030583]",100.0,"[-0.15633415313914503,0.09067347600410387]",100.0,"[0.16146212834512108,0.10804985290416882]",100.0,"[0.11487835801335576,0.07084809869507858]",100.0,"[-0.0663584674349648,-0.17181642985431114]",100.0,"[0.1661812244580364,0.0003317186708861649]",100.0,"[0.16163597432355123,-0.10411598040300894]",4.0,"[-0.12764481737581806,-0.14267501859715986]",100.0,"[-0.005981391013674501,-0.1710459876882915]",100.0,"[-0.07099561982432517,0.06005014988773519]",4.0,"[-0.11988260408384323,0.028517228372314306]",4.0,"[0.02,0.02]",225.4704,0.0,9.0,9.0,68.0,1.0,,,,,,,
,,,,,,,66af93dfdf68b39e95f1dd7e,684429d264ef8554049c6fce,2025-06-07_14h04.12.694,shape_ratio,2024.1.5,Win32,60.24096386,684250e4f00cb30b92d1fa88,,,,,,,,,,,225.4706,225.9703,,,226.2205,226.6534,left,,,,,,,,0.45,0.4006,,,,,,,225.9703,226.2205,226.6535,"[-0.029458560544728896,0.13947937089686838]",4.0,"[-0.036311589540420464,0.19204205398562205]",4.0,"[0.06732647880854828,-0.1582629811336343]",4.0,"[-0.1075800976021591,0.008799765414158547]",4.0,"[0.08042336696897193,0.09753573146693177]",100.0,"[-0.10479502270040347,0.16760413188466683]",100.0,"[-0.03542848498110541,0.04255575188133692]",4.0,"[0.012695606048369092,0.1287524430478909]",100.0,"[-0.056398876084437624,0.08433314071401421]",4.0,"[-0.18447560588756445,-0.018459800036335194]",4.0,"[0.14799475155912736,-0.05398362989045564]",100.0,"[0.03844839672742774,-0.04840292750518024]",4.0,"[-0.1390366733048654,-0.05852081142536757]",100.0,"[0.1772692545175533,0.016335443548733362]",100.0,"[0.1313563395348031,0.12359102982158578]",100.0,"[0.09254870047974209,0.05325103413304951]",4.0,"[0.03373529778331074,0.01570288353963057]",100.0,"[-0.005219281236848124,-0.18058774197085317]",100.0,"[0.048569508664252234,-0.1213769851290423]",4.0,"[-0.1111261627758286,0.08837172550335837]",100.0,"[-0.013194685523328527,0.0812248111990084]",4.0,"[-0.03142242757228968,-0.14233494145041098]",4.0,"[0.11993579649429503,-0.12548504714898134]",100.0,"[0.11337504594698682,0.001523679589951084]",100.0,"[-0.03333062839607427,-0.03617714588012801]",4.0,"[0.02778170579896457,0.19286881816869889]",4.0,"[0.0043766665504243,-0.09450808911954571]",4.0,"[0.18447701333931377,-0.07202397624588036]",4.0,"[-0.12135042285878765,0.1295926401219092]",4.0,"[-0.10509489131815906,-0.11004905915900473]",100.0,"[-0.17285659202891762,0.08025382741101288]",4.0,"[-0.07526795999822808,-0.1647082925042006]",100.0,"[0.02,0.02]",227.753,0.0,10.0,10.0,137.0,1.0,,,,,,,
,,,,,,,66af93dfdf68b39e95f1dd7e,684429d264ef8554049c6fce,2025-06-07_14h04.12.694,shape_ratio,2024.1.5,Win32,60.24096386,684250e4f00cb30b92d1fa88,,,,,,,,,,,227.7533,228.2529,,,228.5031,229.0362,left,,,,,,,,0.9,0.5005,,,,,,,228.2529,228.5031,229.0363,"[0.0007799783128013155,-0.19690070210083055]",100.0,"[0.14686109520039958,-0.07916875065012415]",100.0,"[0.10867385426490041,-0.024615980614603426]",100.0,"[-0.07854189576289537,-0.15171624828711305]",4.0,"[0.07487828055224063,0.17476867369685922]",4.0,"[-0.041601064224411496,0.14762098899455334]",100.0,"[0.18702803657795972,0.04678953332825453]",100.0,"[0.053066340091192876,0.09379693530702558]",100.0,"[0.11659405109908935,0.027810570431773207]",100.0,"[-0.08990823210294704,0.06884569054788002]",4.0,"[-0.07248229266544588,-0.015334511510698689]",100.0,"[0.1451521207248021,0.09302731920836153]",100.0,"[-0.11220849285979528,0.0008462541627920481]",100.0,"[0.005207335774336966,0.060816738592978835]",100.0,"[-0.10670025163066135,0.15771321065095015]",100.0,"[0.02206902423475816,0.1918896272039133]",100.0,"[0.0903820434464295,-0.06875690568088423]",100.0,"[-0.049402001595674,0.027760631727568767]",100.0,"[-0.14929909487242415,-0.1163209069093373]",100.0,"[-0.004884533194024469,-0.11358281189225534]",100.0,"[0.03693090952880062,0.023912415186022967]",100.0,"[-0.0761739538185927,-0.10311144542137382]",100.0,"[0.14874283533907165,-0.007403207241553869]",100.0,"[-0.1480282995024778,0.12329840623896919]",100.0,"[0.10495119253779661,0.06891628712352989]",100.0,"[-0.13366079979013018,-0.058869460192078546]",100.0,"[-0.01811050010989147,0.1862713221247699]",100.0,"[-0.18202967169203274,-0.039524868967262886]",100.0,"[-0.05125047728676595,0.08239701864790781]",100.0,"[0.027891078073621553,-0.1401284798183445]",100.0,"[-0.005265591333528229,-0.03773359700834362]",100.0,"[-0.1629471459446911,0.07805105202628436]",100.0,"[0.02,0.02]",230.1359,0.0,11.0,11.0,24.0,1.0,,,,,,,
,,,,,,,66af93dfdf68b39e95f1dd7e,684429d264ef8554049c6fce,2025-06-07_14h04.12.694,shape_ratio,2024.1.5,Win32,60.24096386,684250e4f00cb30b92d1fa88,,,,,,,,,,,230.1362,230.6358,,,230.886,231.3023,right,,,,,,,,0.1,0.3895,,,,,,,230.6358,230.886,231.3023,"[0.011533462832277321,0.13128181301992292]",4.0,"[0.12417415863356307,0.030551588630435795]",4.0,"[0.06314984793298341,-0.11721512788242229]",4.0,"[-0.013549674167394882,-0.07952982445457404]",4.0,"[-0.0019593486096461713,0.07295921357743844]",4.0,"[-0.04772869358649904,-0.12168268373582057]",4.0,"[-0.09743150663308282,0.1478853412920631]",100.0,"[-0.143131551727186,0.027907830470077548]",4.0,"[-0.10661861653215007,-0.08324448739378013]",4.0,"[-0.09745086131318233,0.0406878372814664]",4.0,"[-0.16990043941335345,0.0865252389634839]",4.0,"[0.097401267072942,-0.08207403190669141]",4.0,"[0.16012375734830492,0.10986694685142666]",4.0,"[-0.1804418793986368,0.006250007073089412]",4.0,"[-0.003095529949297437,-0.19145234195970914]",4.0,"[0.17871327989823,0.055810378002400914]",4.0,"[0.05697037239937153,0.11122179356151324]",4.0,"[-0.027570325897833575,0.12276204098485527]",4.0,"[0.05018455061230905,-0.15822704234188223]",4.0,"[0.029635537882174354,-0.05664482827323767]",4.0,"[0.10858240370892383,0.07408687215456722]",4.0,"[0.006118985741189632,0.0030116878397649163]",4.0,"[0.18953598953564768,-0.03855401814235072]",4.0,"[0.10898102172299025,0.1625647079838733]",4.0,"[-0.07595124953922953,0.07557693747033613]",100.0,"[0.13397215652401206,-0.1284837182679057]",4.0,"[0.06669322653761832,-0.02287498002356734]",4.0,"[-0.022845006066356574,0.18791442368417888]",4.0,"[-0.1675851667999226,-0.09743880472451513]",4.0,"[-0.11296888998304506,-0.15816180432387003]",4.0,"[-0.14010372346505162,0.12374325436590684]",100.0,"[0.090796293596259,-0.15217961763437662]",4.0,"[0.02,0.02]",232.402,0.0,12.0,12.0,197.0,1.0,,,,,,,
,,,,,,,66af93dfdf68b39e95f1dd7e,684429d264ef8554049c6fce,2025-06-07_14h04.12.694,shape_ratio,2024.1.5,Win32,60.24096386,684250e4f00cb30b92d1fa88,,,,,,,,,,,232.4022,232.9019,,,233.156,233.3685,right,,,,,,,,0.4,0.1875,,,,,,,232.9019,233.156,233.3685,"[0.08246512956046735,-0.003449514546593846]",4.0,"[-0.12410422563650363,0.027087755591597294]",100.0,"[0.09720034326831006,-0.0736975641795349]",4.0,"[-0.07553953156515153,0.059959039303099045]",100.0,"[-0.09403353884268122,0.14726985934828624]",100.0,"[-0.06769282311451275,0.014976906808183536]",4.0,"[0.16993629660941467,-0.07156127168676132]",100.0,"[0.09230302100692872,0.11049903342293652]",4.0,"[-0.09390800635805735,-0.11323177729220005]",4.0,"[-0.15408819103394594,-0.055023197866988054]",4.0,"[0.17422115904246097,-0.0008866251055147011]",100.0,"[-0.14996605165098448,-0.0046947585201166505]",4.0,"[-0.016563327048523174,-0.15869942341872645]",4.0,"[-0.18186482084079114,0.07786669493430748]",100.0,"[0.04354303930688801,0.02164031305637265]",100.0,"[0.0465955765028318,-0.1693464287626386]",4.0,"[-0.04642450873853149,0.09289814349523318]",100.0,"[0.005430698478608251,0.13246114380883783]",4.0,"[0.018431317841061653,0.19040572353335392]",100.0,"[0.09942634894267383,-0.14259027713401112]",4.0,"[0.1612974692288262,0.08483397507643227]",100.0,"[0.12628346040992036,0.14632226253200012]",4.0,"[0.05183595485077115,0.16182511080481704]",100.0,"[0.12236819755734551,-0.009312637841146902]",4.0,"[0.03110512765929183,0.06405165164322238]",100.0,"[-0.05346035751253236,-0.19133155887426395]",4.0,"[-0.10196947188065471,-0.02631094902819338]",100.0,"[-0.03206547669796861,-0.09356706875751494]",4.0,"[-0.08823111225724391,-0.16524926172307322]",4.0,"[0.046640823418234785,-0.08464866348151387]",4.0,"[-0.01514488720872507,-0.01327915135001074]",4.0,"[-0.04394674582220793,0.13962260826823125]",4.0,"[0.02,0.02]",234.4682,0.0,13.0,13.0,157.0,1.0,,,,,,,
,,,,,,,66af93dfdf68b39e95f1dd7e,684429d264ef8554049c6fce,2025-06-07_14h04.12.694,shape_ratio,2024.1.5,Win32,60.24096386,684250e4f00cb30b92d1fa88,,,,,,,,,,,234.4684,234.968,,,235.2213,235.5347,right,,,,,,,,0.5,0.2836,,,,,,,234.9681,235.2212,235.5347,"[0.1785700015242468,0.0030446480479997097]",4.0,"[-0.06324293027993023,0.056339855815596175]",4.0,"[0.13660507213810202,-0.03136447308101357]",100.0,"[-0.17996848333225315,0.08456969578707]",100.0,"[0.13113218236242988,0.09765950182462367]",100.0,"[0.054298999584885196,-0.05180188628858095]",100.0,"[0.01976873019258428,0.1284916612627884]",100.0,"[0.08250074950699209,-0.13041612466139915]",100.0,"[0.12603872921582612,0.0351420419754663]",4.0,"[0.06273456119143027,0.06998615224032767]",4.0,"[-0.08830687250092366,-0.006301770389578745]",4.0,"[-0.1490878089527791,-0.10561858063361512]",4.0,"[-0.1735939537504663,-0.054877262187020805]",100.0,"[-0.012666521951992322,-0.12178452966012708]",4.0,"[-0.06702836701453965,0.13856787194075867]",4.0,"[-0.1027727303680127,-0.06557789072720664]",4.0,"[-0.01327384930614765,0.038833445837755394]",100.0,"[-0.030321086651157163,-0.04975868041512408]",4.0,"[0.09600776572839806,-0.03466115305883944]",100.0,"[0.09069084492102768,0.15070270980557512]",4.0,"[-0.12323235531078348,0.14356140322846586]",4.0,"[0.012647768926940393,0.08821705462207628]",4.0,"[0.16446925431684142,-0.060239918303114724]",100.0,"[-0.14932270579937726,0.0349965072079036]",100.0,"[-0.021669032168834635,-0.17526751028075166]",4.0,"[0.026107842552029727,-0.019925254636016236]",100.0,"[-0.11407941186010595,0.05460657081388973]",4.0,"[-0.09427476198948628,0.10223228604926045]",100.0,"[-0.03284954809066093,0.19679835168127438]",100.0,"[0.027186225658873433,-0.15561492897736243]",4.0,"[-0.06312459708774149,-0.16198963345884013]",100.0,"[0.052928371707866816,0.17815248892934935]",100.0,"[0.02,0.02]",236.6343,0.0,14.0,14.0,119.0,1.0,,,,,,,
,,,,,,,66af93dfdf68b39e95f1dd7e,684429d264ef8554049c6fce,2025-06-07_14h04.12.694,shape_ratio,2024.1.5,Win32,60.24096386,684250e4f00cb30b92d1fa88,,,,,,,,,,,236.6345,237.1342,,,237.3876,237.9007,right,,,,,,,,0.5,0.4836,,,,,,,237.1343,237.3876,237.9007,"[-0.0036618492292484414,0.056670345059459205]",4.0,"[0.16016949467849462,-0.05157979720843282]",100.0,"[-0.10158292406179403,-0.0994257809996042]",100.0,"[0.045529424005288435,0.07921928228448012]",4.0,"[-0.16435000958672763,-0.07721291081463386]",4.0,"[-0.19365016996273138,0.01406559613959055]",100.0,"[-0.07478118687687706,0.07601599737090455]",100.0,"[0.046442396843484786,0.024414965516631738]",4.0,"[0.02655009040930464,0.13412976001601024]",4.0,"[0.02551974149663015,-0.1219035509404906]",100.0,"[-0.035954616533957776,0.16897551706485628]",4.0,"[0.019276020023994873,-0.014900222586804636]",100.0,"[0.11525556537363031,-0.044899431991926565]",4.0,"[-0.05948958376725716,-0.11176354970848067]",100.0,"[-0.051989749518897836,0.02605412976935569]",100.0,"[0.15724951520852298,0.05044044222468523]",4.0,"[0.18505893901826376,-0.013208471590312394]",100.0,"[-0.012265028672767596,-0.17262427820642304]",4.0,"[0.13634226925371348,0.11015862153430546]",100.0,"[0.04105010282983945,0.19479085314856015]",4.0,"[0.1765420907879803,-0.09247323794486338]",4.0,"[-0.05692034076080722,-0.024333899922236148]",4.0,"[0.19523456690007213,0.02573950591924614]",100.0,"[0.0867614412501088,-0.007859245983178074]",4.0,"[0.08117213241314716,-0.1681489117601952]",100.0,"[-0.075839706549186,0.12168104530943144]",100.0,"[0.0542695174866004,-0.04848656191525577]",4.0,"[0.08826701640662661,0.051250624336063186]",100.0,"[0.08756025148669584,0.12799832469814662]",4.0,"[-0.1412412262871546,0.04477913761229687]",4.0,"[-0.11094354401524895,0.011734449449400254]",100.0,"[-0.16142803223704946,0.09968760352511871]",100.0,"[0.02,0.02]",239.0004,0.0,15.0,15.0,107.0,1.0,,,,,,,
,,,,,,,66af93dfdf68b39e95f1dd7e,684429d264ef8554049c6fce,2025-06-07_14h04.12.694,shape_ratio,2024.1.5,Win32,60.24096386,684250e4f00cb30b92d1fa88,,,,,,,,,,,239.0007,239.5002,,,239.7524,239.9002,right,,,,,,,,0.4,0.1172,,,,,,,239.5003,239.7523,239.9003,"[0.09915201849334644,0.06323374709968378]",100.0,"[-0.18182322298433876,0.04792854687266886]",100.0,"[0.03317954513037699,0.06534221118358645]",100.0,"[-0.0075755768897454185,0.09041961034199048]",4.0,"[0.03796225030908129,0.021412800774704133]",100.0,"[-0.020689137724178762,0.047071449600748924]",4.0,"[-0.07322936938734217,-0.16969318783734436]",100.0,"[-0.11654281848128535,-0.07439890195075305]",4.0,"[0.09718334954586497,-0.07441857353960236]",100.0,"[0.015622363065605912,0.18855217594485085]",100.0,"[0.032270681004148295,-0.019939347978792814]",100.0,"[0.15785779028326197,0.0028873568371244342]",4.0,"[0.01371270510342293,-0.05736675294484081]",100.0,"[0.10086703172169287,0.12816644998112006]",4.0,"[0.015502029507236134,-0.14769809260042374]",4.0,"[-0.1701663064452292,-0.0591285235131357]",4.0,"[-0.0721907963557959,-0.09203023497477043]",4.0,"[0.1621425382943156,0.07395145177425726]",100.0,"[-0.03815606359517318,0.1749209560316413]",4.0,"[0.1610865176049449,-0.060103354690621724]",4.0,"[-0.15410855100856446,-0.1271439588753402]",4.0,"[-0.139499707953838,0.007222916802642955]",4.0,"[0.018907577067699938,-0.19817515828076004]",4.0,"[0.13712023932763762,-0.09997664929727205]",4.0,"[-0.08137044102412577,0.019709200876550457]",4.0,"[0.07145997457612173,-0.1462146076389925]",100.0,"[-0.12078701581404974,0.11959647665870236]",4.0,"[-0.028995513081007916,-0.04287161622470369]",100.0,"[0.04907808339062262,0.11518462209388051]",100.0,"[-0.06312626480440262,0.1148320002279404]",4.0,"[-0.11036170251521259,-0.034374529852730415]",4.0,"[0.046327070175367066,-0.09870711990956836]",4.0,"[0.02,0.02]",240.9999,0.0,16.0,16.0,154.0,1.0,,,,,,,
,,,,,,,66af93dfdf68b39e95f1dd7e,684429d264ef8554049c6fce,2025-06-07_14h04.12.694,shape_ratio,2024.1.5,Win32,60.24096386,684250e4f00cb30b92d1fa88,,,,,,,,,,,241.0002,241.4998,,,241.7501,242.1664,right,,,,,,,,0.6,0.3895,,,,,,,241.4998,241.75,242.1665,"[-0.057741368351076204,0.03832409067377922]",100.0,"[-0.029641953198760423,-0.06972324659597802]",4.0,"[0.02384710505628759,0.03354636045111901]",100.0,"[0.004720768405100474,0.15168501013615862]",100.0,"[0.0040543256795491315,0.101604622701814]",4.0,"[0.07294876267797529,-0.08769270625209769]",4.0,"[-0.1494350525621533,-0.024290781286994124]",4.0,"[-0.004113793655661321,-0.19155158209332818]",4.0,"[0.09234857417623266,-0.02417478997951906]",100.0,"[0.09910888152905867,-0.1599190994908681]",100.0,"[0.14206287851745733,-0.12071738159682494]",100.0,"[0.0336991432426403,-0.07746722356122539]",4.0,"[0.1312893193346929,0.10338505854333252]",100.0,"[0.12156500427008035,0.1461005083986022]",4.0,"[-0.08530758152346365,-0.0989561612241094]",4.0,"[0.05456472568485665,0.1465915673863411]",100.0,"[-0.15999883216923938,-0.11679111707713526]",100.0,"[-0.06492464589017119,0.14238387511598213]",100.0,"[-0.028899781462074933,-0.12826295866781337]",4.0,"[-0.11122105899198127,0.029939172082326687]",100.0,"[-0.13120353126571,0.08645246462273087]",100.0,"[0.047824500365195026,-0.1671910775091555]",100.0,"[-0.10006396865203362,-0.02237114958625491]",100.0,"[0.15976941836593048,-0.08467220124573942]",4.0,"[-0.18158185208566896,-0.08291145207925255]",100.0,"[0.18958596964736976,-0.035447681999024955]",4.0,"[-0.1959728373685934,0.027052239066497976]",100.0,"[-0.09438187175187657,0.0691966025872178]",4.0,"[0.10017080817760636,0.03735055638639336]",4.0,"[-0.08183218990429647,-0.15298980190605918]",100.0,"[-0.033967467405908766,0.0856189805272902]",100.0,"[-0.11245292467991366,0.14474288553476358]",100.0,"[0.02,0.02]",243.2661,0.0,17.0,17.0,59.0,1.0,,,,,,,
,,,,,,,66af93dfdf68b39e95f1dd7e,684429d264ef8554049c6fce,2025-06-07_14h04.12.694,shape_ratio,2024.1.5,Win32,60.24096386,684250e4f00cb30b92d1fa88,,,,,,,,,,,243.2664,243.766,,,244.0192,244.2493,left,,,,,,,,0.5,0.2032,,,,,,,243.766,244.0192,244.2494,"[-0.08701091141282269,-0.1021789785081055]",100.0,"[0.1640506007281523,0.05191962380268052]",100.0,"[0.08933717151322233,0.015703872448971153]",4.0,"[0.15690534580659568,0.10926224573609063]",4.0,"[0.09845976596404889,-0.09712683965548792]",100.0,"[0.14971435595471563,0.01375190800255351]",100.0,"[0.021847985474970594,-0.03205270267348336]",4.0,"[-0.08963007911500616,0.163601639162304]",4.0,"[-0.10957039168779358,-0.1501926092162196]",100.0,"[0.02819515939360748,0.06836405089330702]",100.0,"[-0.1871885270904795,0.060462579005982016]",4.0,"[-0.05221634769994591,-0.18769109675379217]",100.0,"[-0.14283032768677595,-0.0636677154910778]",4.0,"[-0.011030355728240175,0.09115752402564715]",100.0,"[0.18082572570731043,-0.02872709932740493]",100.0,"[0.08333357573535194,-0.0568133734743312]",100.0,"[0.07434348429508432,0.11575513541621418]",4.0,"[0.11670278483346605,0.15954586366248721]",4.0,"[0.10855231891930513,0.08964030862528974]",100.0,"[0.07553464694562051,-0.13404284340584055]",4.0,"[0.04662152605545406,0.18613659991947923]",100.0,"[0.1317901341833124,-0.0448454931582426]",4.0,"[-0.1492517048046445,-0.12805196237479732]",4.0,"[-0.1665655944920802,-0.024262808854888337]",4.0,"[-0.12660488100752204,0.08832066738042861]",100.0,"[-0.022985304162872547,-0.027489383722467953]",100.0,"[-0.07423245837162688,0.10692039445995864]",4.0,"[-0.02577958865954412,0.13721726918130736]",100.0,"[-0.016502509378360515,-0.16183329682951175]",4.0,"[-0.06571741664451454,0.06611074742880714]",4.0,"[0.04669536795046139,-0.09430777984753183]",100.0,"[-0.15033583871932749,0.12951153242407404]",4.0,"[0.02,0.02]",245.3487,0.0,18.0,18.0,98.0,1.0,,,,,,,
,,,,,,,66af93dfdf68b39e95f1dd7e,684429d264ef8554049c6fce,2025-06-07_14h04.12.694,shape_ratio,2024.1.5,Win32,60.24096386,684250e4f00cb30b92d1fa88,,,,,,,,,,,245.3491,245.8486,,,246.1032,246.2987,right,,,,,,,,0.45,0.1685,,,,,,,245.8488,246.1031,246.2987,"[0.003349067657481066,-0.17338204553037193]",100.0,"[0.13456869447184813,-0.08734031728833505]",4.0,"[-0.04031117912003144,-0.12648235451994017]",100.0,"[-0.1358590417175525,0.11512342687791917]",4.0,"[0.13968135782517244,-0.04181470649982423]",4.0,"[-0.0306558212192529,0.06539762598220758]",100.0,"[-0.10376048554698084,-0.03906140621635838]",100.0,"[0.020216541358218806,0.024227055336480882]",100.0,"[-0.034633434247528246,0.14198435574390442]",100.0,"[-0.19724269930155466,-0.022002906956235472]",100.0,"[-0.04282646030968445,-0.059883141349431505]",4.0,"[0.12809786963443012,0.08347098738474326]",100.0,"[0.015023456831438537,-0.0417508181779926]",4.0,"[0.015457592506001133,0.15630596663214075]",4.0,"[0.08300434503312315,-0.05278640237603964]",100.0,"[0.039281199205358115,-0.10369590246006091]",100.0,"[-0.04423775562143607,0.010765755509216273]",4.0,"[-0.14462478392313335,0.062485462858289535]",4.0,"[0.14457853985150895,0.029013023145707438]",4.0,"[0.07620386600420176,-0.012345009764183647]",100.0,"[-0.04666931734603087,0.1821557695839515]",4.0,"[-0.14360765262154293,0.019459156282058902]",4.0,"[-0.08086315734736291,0.04292718325200003]",100.0,"[-0.10423285734872284,-0.08387310393193462]",4.0,"[0.06521020523971532,0.15753780120401278]",4.0,"[0.03019115026590099,0.11124952250072262]",4.0,"[0.05281261236238206,0.04974747245192611]",4.0,"[-0.10023402540963507,0.14500791913751604]",4.0,"[0.08375227140191187,0.09282676569297131]",100.0,"[0.11274785177529248,-0.14329978393175316]",100.0,"[-0.1378882860144245,-0.13336950330837438]",4.0,"[-0.00799313804020497,0.1945254242576569]",4.0,"[0.02,0.02]",247.3983,0.0,19.0,19.0,127.0,1.0,,,,,,,
,,,,,,,66af93dfdf68b39e95f1dd7e,684429d264ef8554049c6fce,2025-06-07_14h04.12.694,shape_ratio,2024.1.5,Win32,60.24096386,684250e4f00cb30b92d1fa88,,,,,,,,,,,247.3986,247.8982,,,248.1484,248.2982,right,,,,,,,,0.1,0.1192,,,,,,,247.8982,248.1484,248.2983,"[0.16759815075728396,-0.007027735750730478]",4.0,"[-0.05334482773836176,0.10373281418442822]",4.0,"[-0.02345758297935746,0.017830958728935947]",4.0,"[-0.1729147094636053,-0.005463922848372469]",100.0,"[-0.015804569711866587,0.06826093432322157]",4.0,"[-0.10427465390443032,-0.003602735317415433]",4.0,"[-0.07522208901365263,-0.10207769095155461]",4.0,"[-0.10247393796699762,-0.04626296966949565]",4.0,"[0.1281286340530839,0.04837344112554542]",4.0,"[-0.06857349974174594,-0.18089308940468135]",4.0,"[-0.15755755525373363,0.11324424801257757]",4.0,"[0.025763875441820364,-0.17930489426420254]",4.0,"[0.005386895854452816,-0.04323511271116765]",4.0,"[0.05926841873334815,-0.14866553690358908]",4.0,"[-0.016565386650589892,-0.19507778815828888]",4.0,"[-0.10910187197748779,0.1673665433385061]",100.0,"[-0.04190329268419448,-0.06604190636455154]",4.0,"[-0.015711856697006282,-0.1214266036923373]",4.0,"[0.11278123451291011,-0.07316104528976342]",4.0,"[0.06033096015980713,0.09180430662856544]",4.0,"[-0.12146888409753706,-0.15366026831293855]",4.0,"[0.14326955576846953,-0.12978990443401262]",4.0,"[0.11653606699352954,0.009505319528907076]",4.0,"[-0.04900215210943586,0.17699128453465393]",4.0,"[0.036499860088211586,-0.07388893287363602]",4.0,"[-0.06833240321408103,0.03056265772587899]",4.0,"[0.1870847556499933,-0.046015611058090204]",100.0,"[-0.16652566989932574,-0.04710607835882228]",4.0,"[0.08081458010560318,-0.040883419877923884]",4.0,"[-0.015492707221092649,0.11858309683214774]",4.0,"[0.05196140817738346,-0.007846393694994435]",4.0,"[-0.11345844739840637,0.10705793770239844]",4.0,"[0.02,0.02]",249.3979,0.0,20.0,20.0,199.0,1.0,,,,,,,
,,,,,,,66af93dfdf68b39e95f1dd7e,684429d264ef8554049c6fce,2025-06-07_14h04.12.694,shape_ratio,2024.1.5,Win32,60.24096386,684250e4f00cb30b92d1fa88,,,,,,,,,,,249.3981,249.8977,,,250.1479,250.169,left,,,,,,,,0.55,0.0005,,,,,,,249.8978,250.1479,250.169,"[0.030444104234472132,0.0882394378855054]",4.0,"[-0.16251345038191087,-0.033493383712188705]",100.0,"[0.01242975821108015,-0.05101230104528373]",4.0,"[-0.03684075481179049,0.020468096822169442]",100.0,"[-0.12388350680210794,-0.13924471110869047]",4.0,"[-0.016787533607684917,-0.08106913276285206]",100.0,"[-0.19622285076524268,0.021305369023073475]",4.0,"[-0.045861522504334916,0.14110793248155215]",100.0,"[-0.07228164504855816,0.08844723085978055]",100.0,"[0.05144435788017232,-0.1572188706966463]",4.0,"[0.1633177720513297,0.07258898796709416]",4.0,"[-0.023389705606336533,0.19505875937852532]",100.0,"[-0.08556758815454675,0.05025784063807904]",100.0,"[0.18934813504606887,0.011883946339096101]",100.0,"[0.08122506811658885,0.15240115711655294]",4.0,"[-0.08463181646072769,-0.16748940821818578]",4.0,"[-0.1323726241418866,-0.08884065043739808]",4.0,"[-0.0859632499868974,-0.058508002283655616]",100.0,"[0.1221334661771177,-0.07711468058962656]",4.0,"[-0.05449307086333347,-0.02230619641267188]",100.0,"[0.04792811011907858,-0.014701802195913946]",100.0,"[0.09315928003674033,-0.04394973391750291]",100.0,"[0.03373694504256544,0.045239308816499624]",100.0,"[0.11119620093120797,0.03294134168987857]",4.0,"[-0.06489101906746411,0.1883458827947656]",100.0,"[-0.019433882981723848,-0.16931204189137344]",4.0,"[-0.025777890467396987,0.06949792837047099]",100.0,"[0.1292168191508787,0.1171172796915916]",100.0,"[0.1338626067382672,-0.12597673301434215]",4.0,"[-0.16446940062626902,0.10687312008229083]",100.0,"[-0.07839945255333824,-0.11430673928522984]",4.0,"[-0.15126357896374126,0.025687724533183073]",100.0,"[0.02,0.02]",251.264,0.0,21.0,21.0,69.0,1.0,,,,,,,
,,,,,,,66af93dfdf68b39e95f1dd7e,684429d264ef8554049c6fce,2025-06-07_14h04.12.694,shape_ratio,2024.1.5,Win32,60.24096386,684250e4f00cb30b92d1fa88,,,,,,,,,,,251.2643,251.7641,,,252.0182,252.1141,right,,,,,,,,0.4,0.0773,,,,,,,251.7642,252.0182,252.1142,"[-0.03885222493126205,0.15270828731338296]",4.0,"[0.09653251110877338,0.04084139728001975]",100.0,"[-0.03438420453333769,0.0011831943839972995]",4.0,"[-0.0759576086974032,0.10524704972228725]",4.0,"[0.07291055386829887,0.10382457891047886]",100.0,"[0.05321844734183862,-0.005213999646860073]",4.0,"[-0.03196211375844322,0.19378672675604733]",100.0,"[-0.08774342396430194,0.17507646452430062]",4.0,"[-0.19175554192312996,0.03490988140966093]",4.0,"[0.022291395364038166,-0.19704735652960087]",100.0,"[0.012038346272359604,-0.15643669168014473]",4.0,"[0.10570056639146533,-0.16977926571746538]",100.0,"[0.038830706961282054,0.16170904931371632]",100.0,"[0.11824022242808656,0.09645096661557857]",100.0,"[0.15586420587188624,0.0028063458425545097]",100.0,"[-0.025086806550757637,-0.1314732804871491]",100.0,"[0.019235315621234525,0.11078731613996635]",4.0,"[-0.16447123950427156,-0.009209048063440473]",4.0,"[0.1866935172906886,0.048859797978739614]",100.0,"[-0.09944409831731958,-0.17091184709065133]",100.0,"[-0.10129488112574242,0.059323545525376116]",4.0,"[0.11134266067276742,-0.04170956673675306]",4.0,"[-0.12938526358668495,0.10199454367321817]",100.0,"[-0.17029470196071,-0.0826440644396893]",4.0,"[0.13512192686211252,-0.09598657531682359]",4.0,"[-0.13132525285250388,0.14289105122791573]",4.0,"[0.057715024386160545,-0.1064806352180201]",100.0,"[-0.022961880468965478,0.05400556316112356]",4.0,"[-0.03179918725967847,-0.06262696436635298]",4.0,"[0.09809336052947949,0.1672900231781731]",4.0,"[-0.07546860212566135,-0.03345017174674796]",4.0,"[-0.11486299818558537,-0.09719833870964995]",4.0,"[0.02,0.02]",253.2137,0.0,22.0,22.0,150.0,1.0,,,,,,,
,,,,,,,66af93dfdf68b39e95f1dd7e,684429d264ef8554049c6fce,2025-06-07_14h04.12.694,shape_ratio,2024.1.5,Win32,60.24096386,684250e4f00cb30b92d1fa88,,,,,,,,,,,253.2139,253.7136,,,253.9676,254.1968,right,,,,,,,,0.6,0.2075,,,,,,,253.7136,253.9676,254.1968,"[0.13284934263490117,0.10718449442897901]",4.0,"[-0.11376334084550511,0.06327006644457464]",4.0,"[-0.042417320227202335,0.11057638985122392]",4.0,"[0.09704782018351897,0.13887548458048724]",100.0,"[-0.09564559254298222,-0.030594246617358756]",100.0,"[-0.14979669226711295,-0.029149670562450575]",100.0,"[0.18027602969169845,-0.004592520445581703]",100.0,"[-0.1382936674059887,-0.1075370627771201]",4.0,"[-0.008452389693190121,-0.10184279161701777]",100.0,"[-0.09047083120713378,-0.11436917753162239]",100.0,"[-0.02108580384899799,0.1876071505926166]",100.0,"[-0.0841123956860822,0.17327904223174043]",100.0,"[-0.0902166686765084,-0.16523000916141903]",100.0,"[0.03917961686579749,-0.08804185466108662]",4.0,"[0.015718095058903214,-0.019197587054382924]",4.0,"[0.0856941347048442,0.08867583699563723]",4.0,"[0.0039367037014893785,0.13976997940105337]",100.0,"[-0.13564393103791014,0.11710553840828217]",100.0,"[0.05468586178384186,-0.03834271862573794]",100.0,"[-0.1879806865537106,0.0003657699499379096]",100.0,"[0.03023526035413402,-0.15073008461243492]",4.0,"[0.09823323082429501,-0.07459232721883513]",100.0,"[0.15462651187127538,0.04055975808793775]",100.0,"[0.06199802262491712,0.1768368159687547]",100.0,"[0.12094989514355951,-0.15671749008466399]",4.0,"[0.10411967018933911,-0.028892515489152112]",4.0,"[-0.03466211622693829,-0.06808030014915047]",4.0,"[-0.00863360148814599,-0.1877567745389504]",4.0,"[-0.003514948508701906,0.0423519538084586]",100.0,"[0.1757416011154262,-0.062313764295695136]",100.0,"[-0.15786834823255957,0.07659189833643379]",100.0,"[0.03587632965740742,0.08671908109862644]",4.0,"[0.02,0.02]",255.2965,0.0,23.0,23.0,48.0,1.0,,,,,,,
,,,,,,,66af93dfdf68b39e95f1dd7e,684429d264ef8554049c6fce,2025-06-07_14h04.12.694,shape_ratio,2024.1.5,Win32,60.24096386,684250e4f00cb30b92d1fa88,,,,,,,,,,,255.2968,255.7963,,,256.0506,256.2629,right,,,,,,,,0.1,0.1885,,,,,,,255.7964,256.0506,256.263,"[-0.03675397058898974,-0.18454538315752006]",4.0,"[-0.16862280059309037,-0.102994693461497]",4.0,"[-0.076937473126103,-0.11133080709868973]",4.0,"[-0.12812480067123688,0.013247715815308373]",4.0,"[0.13157137491105678,-0.12275956670212258]",100.0,"[0.18417481304659972,0.03257319010481717]",4.0,"[-0.1566139052793177,-0.029704665968559123]",4.0,"[0.06090798425308657,-0.025014830055301203]",4.0,"[0.11660058703759445,0.10641025714857895]",4.0,"[-0.10580207771477468,-0.05865573750352698]",4.0,"[0.017548783534116576,-0.16115647800912025]",4.0,"[-0.007735297673412281,0.02733198848464202]",4.0,"[0.15864122105858453,0.06362078281700008]",4.0,"[-0.14515348619541696,0.08457018153470333]",4.0,"[0.09974370212758264,-0.0038032582099979738]",4.0,"[-0.19924903885012457,0.0025364023285566026]",4.0,"[-0.14020431187481722,0.14229771582448228]",4.0,"[0.0149572973965725,-0.01017898269707999]",4.0,"[0.00874941800239522,-0.07307201064582117]",100.0,"[0.0860668093227587,0.13229601863490292]",4.0,"[0.13897861265920722,-0.03241298297787071]",4.0,"[-0.05403172146211891,-0.0628566885207439]",4.0,"[0.0003757679913990671,0.17198152517754853]",4.0,"[0.01848341152054867,0.12058109253656757]",4.0,"[0.08268934217250182,-0.11575495625965877]",4.0,"[-0.08157294572558903,0.07654647925601682]",4.0,"[0.06087619579980883,-0.15199862334005595]",4.0,"[-0.05951186324162735,0.17729023764340765]",4.0,"[0.025382866704115117,-0.11410365748425357]",100.0,"[-0.041579558500726706,0.10984449982455315]",4.0,"[0.05658637669604194,0.1839177516185742]",4.0,"[0.19226043966757686,-0.04912761935653491]",4.0,"[0.02,0.02]",257.3626,0.0,24.0,24.0,187.0,1.0,,,,,,,
,,,,,,,66af93dfdf68b39e95f1dd7e,684429d264ef8554049c6fce,2025-06-07_14h04.12.694,shape_ratio,2024.1.5,Win32,60.24096386,684250e4f00cb30b92d1fa88,,,,,,,,,,,257.3629,257.8625,,,258.1129,258.4624,right,,,,,,,,0.4,0.3171,,,,,,,257.8625,258.1128,258.4624,"[-0.11460951555421128,-0.07739101489541797]",4.0,"[0.13457349318873177,-0.051362493450212404]",4.0,"[-0.07512891989470091,-0.15422229879718874]",4.0,"[-0.044604608703493843,-0.09784435141274113]",4.0,"[0.058431158688161636,0.1506833181592515]",100.0,"[0.1210318067080388,0.13679437540201608]",100.0,"[-0.10769609298460214,0.0943997948229729]",100.0,"[0.026442525332376808,0.03751948535136187]",100.0,"[0.06958380415774967,-0.002637722634188961]",4.0,"[0.18355066606352877,-0.006406083314397138]",100.0,"[-0.11639026989916572,0.026248443808363824]",4.0,"[0.0897326888104697,-0.050585371167453576]",100.0,"[0.004932761201446423,0.11664413162463268]",4.0,"[-0.1526384460654224,0.09964693062855373]",4.0,"[-0.08663701416103838,-0.10867109906590132]",4.0,"[-0.05343063596903487,0.17120663945084236]",100.0,"[-0.009804017043497797,-0.19716674634238818]",100.0,"[0.14017836569880093,0.07564893612361227]",4.0,"[-0.15480262383283774,0.0022673258489113906]",100.0,"[-0.06638414890552057,-0.00862089765605235]",100.0,"[-0.056043240998904495,0.10441766019887627]",4.0,"[0.0002471443122419925,-0.013381376991719948]",100.0,"[-0.0926444695272608,0.1632264996000185]",4.0,"[-0.02272762763022953,-0.13960441946247035]",4.0,"[-0.004542841982744453,-0.06774886134858524]",100.0,"[0.09427495632839486,-0.09345983559170291]",4.0,"[0.06071349779517816,0.0930713397164149]",4.0,"[0.023626526650763466,-0.16441689931738276]",100.0,"[0.1048589229130979,0.023800926450440085]",4.0,"[-0.16842032194191164,-0.08202474156943189]",4.0,"[-0.02047973021905862,0.14766130732922073]",4.0,"[-0.1775486647356622,0.043868099678790975]",4.0,"[0.02,0.02]",259.562,0.0,25.0,25.0,159.0,1.0,,,,,,,
,,,,,,,66af93dfdf68b39e95f1dd7e,684429d264ef8554049c6fce,2025-06-07_14h04.12.694,shape_ratio,2024.1.5,Win32,60.24096386,684250e4f00cb30b92d1fa88,,,,,,,,,,,259.5624,260.0621,,,260.3163,260.5786,right,,,,,,,,0.45,0.243,,,,,,,260.0621,260.3163,260.5786,"[-0.13698853949934248,0.11085851005005183]",4.0,"[-0.09785153033481359,-0.09023760234904037]",4.0,"[0.040007621932768994,0.17312836376203738]",100.0,"[-0.04518079837210744,-0.09162506657152696]",4.0,"[-0.06440454506076404,-0.0558106709820182]",4.0,"[0.04778055730977479,-0.016301089816087872]",100.0,"[-0.1655181169282554,-0.03748645080442887]",4.0,"[0.15906105993557138,0.08955672043632325]",4.0,"[-0.07591777281093386,0.16782924539988614]",4.0,"[0.05850782307628173,0.1232060574226874]",4.0,"[-0.11739945126590523,-0.0019491337620689804]",100.0,"[0.18497001964287652,0.0481663948747269]",100.0,"[-0.10406405538208686,0.06285449130965344]",4.0,"[-0.02131133710758275,0.1865865638742656]",100.0,"[-0.00023275786795334135,0.011008178427485882]",100.0,"[-0.05221452339036382,0.01841059094368349]",100.0,"[-0.10567829058220467,-0.13863318581510825]",4.0,"[0.10025021552629354,-0.03348475198067368]",4.0,"[0.03305263471998653,0.09066654683872874]",4.0,"[-0.009363804962078873,0.08504245082364792]",100.0,"[0.12248622112739474,0.1142872109738181]",100.0,"[-0.18972197093483387,0.01208393569031848]",100.0,"[0.009112548904463324,-0.10988956712392463]",4.0,"[-0.1503696792571807,-0.1087768866994982]",4.0,"[-0.05183604381759075,0.08627554289311187]",100.0,"[-0.15880609458747874,0.05880111483677486]",100.0,"[0.13499245303287197,0.03754165381509211]",4.0,"[0.07610176715175931,0.06886300974643962]",100.0,"[0.09865979871355253,-0.16776999206441234]",4.0,"[0.04340115480367591,-0.17992369418032877]",4.0,"[0.10014864452211467,0.010146301108392491]",100.0,"[0.09386135082256104,0.17521150105813035]",4.0,"[0.02,0.02]",261.6782,0.0,26.0,26.0,138.0,1.0,,,,,,,
,,,,,,,66af93dfdf68b39e95f1dd7e,684429d264ef8554049c6fce,2025-06-07_14h04.12.694,shape_ratio,2024.1.5,Win32,60.24096386,684250e4f00cb30b92d1fa88,,,,,,,,,,,261.6784,262.1781,,,262.4315,262.8281,right,,,,,,,,0.55,0.3671,,,,,,,262.1782,262.4315,262.8281,"[-0.07362330897626419,0.07698484282633826]",100.0,"[-0.04925013303116322,-0.05458168188498999]",100.0,"[0.06552140071907472,0.11994897585890926]",100.0,"[0.12819824162753302,0.06432810816711684]",4.0,"[-0.11647043737831422,-0.11985512272776146]",4.0,"[0.08382290858019237,-0.15769484490519917]",100.0,"[-0.09091448095871564,0.13989426842387925]",4.0,"[-0.01155274512385829,0.00019609824460719717]",4.0,"[0.017061387191407356,-0.036605482825184235]",4.0,"[0.07023183337484855,-0.05854577794594386]",4.0,"[-0.11118886290957883,0.04434127416225701]",4.0,"[-0.15411786806168778,-0.035503760706583044]",100.0,"[-0.009495011531102824,0.08695136681733408]",4.0,"[0.025014953685765968,-0.10153841983964075]",4.0,"[0.0714722066013604,-0.10869365870849268]",100.0,"[0.18313635620688917,0.04635837112464222]",100.0,"[0.017246242781392584,-0.1740494385971715]",4.0,"[0.01840914248955598,0.18733186550456643]",100.0,"[-0.023166767314941383,0.1428613992086185]",100.0,"[-0.17624870435840184,-0.0885630168171932]",100.0,"[0.1245285760576668,0.11286003735204503]",4.0,"[0.19075933936326267,-0.01835896373743933]",100.0,"[-0.02335612534777892,-0.18703070820523018]",100.0,"[-0.11388401365585368,-0.0777733620748591]",100.0,"[0.14893370611467066,-0.07343158863183241]",100.0,"[-0.12578432731862743,-0.0051018702638344635]",100.0,"[-0.05198663182181396,-0.1300874353746113]",100.0,"[0.08705201554114013,0.055420601995396994]",100.0,"[0.0660484628827513,-0.01669485515787346]",4.0,"[0.12131707304381417,-0.009271006879214658]",4.0,"[-0.05846797799169314,-0.0031982473474958147]",4.0,"[-0.01719619966511889,-0.10734881698989683]",100.0,"[0.02,0.02]",263.9277,0.0,27.0,27.0,84.0,1.0,,,,,,,
,,,,,,,66af93dfdf68b39e95f1dd7e,684429d264ef8554049c6fce,2025-06-07_14h04.12.694,shape_ratio,2024.1.5,Win32,60.24096386,684250e4f00cb30b92d1fa88,,,,,,,,,,,263.928,264.4275,,,264.6817,265.0442,left,,,,,,,,0.9,0.3416,,,,,,,264.4276,264.6817,265.0442,"[0.16146343514682177,-0.03697325380495214]",100.0,"[0.18234090805239841,0.04311865709850341]",100.0,"[-0.06816483503406473,0.09882108118846981]",100.0,"[0.026874205508338824,0.1447839526989822]",100.0,"[-0.0913171708945371,-0.17506629228508538]",100.0,"[0.13124692145847058,-0.1176810701063527]",100.0,"[0.11150344821548007,-0.038248752212732495]",100.0,"[-0.03655308502179497,-0.09006585298884431]",100.0,"[0.0034689126034837215,0.009962127404260737]",100.0,"[0.04811448810958523,-0.11768090332388007]",4.0,"[0.05614165734131533,0.08051068143427367]",100.0,"[-0.13267329519109733,0.04481510777908692]",100.0,"[-0.0318188142291782,0.18813675992869175]",100.0,"[-0.17777998194498876,0.06221403286727949]",100.0,"[0.05921503782463447,0.18886623697162738]",100.0,"[0.12067400963267007,0.12534321143202115]",100.0,"[-0.05789381314519163,-0.14978611281801713]",100.0,"[-0.12189439601626444,-0.028502150457427457]",100.0,"[-0.1468401174344996,0.10789964865482506]",100.0,"[0.036901586762247876,0.035281889991581425]",100.0,"[-0.10665851690080898,0.12752516116111515]",100.0,"[-0.06941300989678728,0.16612718585114983]",100.0,"[-0.11889244267573833,-0.13866557093135154]",100.0,"[0.002925853053023769,-0.06941657011018108]",100.0,"[-0.0013901837341797148,0.07885839459986271]",100.0,"[-0.07360061508893463,0.005024788700054271]",100.0,"[0.08100785155336283,0.04338610268709799]",4.0,"[0.16627895393769457,-0.08803483476799998]",100.0,"[-0.06522390493982518,-0.06210775085729633]",100.0,"[-0.031095972224988878,0.13031202513762793]",100.0,"[-0.14303818946190333,-0.09798165631587145]",100.0,"[0.12763357556589927,0.04992443063268729]",4.0,"[0.02,0.02]",266.1438,0.0,28.0,28.0,15.0,1.0,,,,,,,
,,,,,,,66af93dfdf68b39e95f1dd7e,684429d264ef8554049c6fce,2025-06-07_14h04.12.694,shape_ratio,2024.1.5,Win32,60.24096386,684250e4f00cb30b92d1fa88,,,,,,,,,,,266.1442,266.6437,,,266.8978,267.3269,right,,,,,,,,0.6,0.4005,,,,,,,266.6438,266.8978,267.327,"[0.05813080499646082,-0.15657463091994486]",100.0,"[-0.02261036106881348,-0.14186283144169634]",100.0,"[-0.08134559231158744,-0.059180529889952996]",4.0,"[-0.14407545110889539,-0.12462874625308402]",100.0,"[-0.005486715566577832,-0.08630837821111556]",100.0,"[0.025839589800587322,-0.13221266582172575]",4.0,"[0.09262349384085307,0.11874371620036021]",100.0,"[0.1868628827658784,0.044683464434498936]",100.0,"[-0.015387871669826116,0.08223987136595316]",100.0,"[-0.06562696032441338,0.004902527434420327]",100.0,"[0.003144746925684928,0.13324113902090978]",100.0,"[-0.05185184372747857,-0.09078614961557835]",4.0,"[-0.18937279476492785,-0.03464793301679245]",4.0,"[0.0796827123174224,-0.034471372723372765]",4.0,"[0.13092433201588663,0.10206903273884227]",100.0,"[0.08222915427690272,0.07467416561892198]",100.0,"[0.13459738235982965,-0.14620730558237544]",4.0,"[-0.10743665377530232,0.002784060981655537]",4.0,"[-0.07717390626907839,0.05001581610354843]",100.0,"[-0.14036279628094878,0.09788008453226141]",100.0,"[0.1624855637779473,-0.0328207294471924]",100.0,"[-0.005193838851677158,-0.0030789411195480255]",100.0,"[0.09120313503794152,-0.12839813999912014]",4.0,"[-0.07004627528585512,0.13415696362636692]",100.0,"[0.13063359192529117,-0.08019685529378899]",4.0,"[-0.13718338946023456,0.14459043319130094]",100.0,"[-0.02189017225963677,0.18974334869680468]",4.0,"[0.15934904210265946,0.007826080813682986]",100.0,"[-0.012561542826593915,-0.18492839977893982]",100.0,"[0.04124099704943926,0.08636312261883494]",4.0,"[-0.17562743602072392,-0.07438341534209071]",4.0,"[-0.16986953753572856,0.021819286446298287]",4.0,"[0.02,0.02]",268.4266,0.0,29.0,29.0,44.0,1.0,,,,,,,
,,,,,,,66af93dfdf68b39e95f1dd7e,684429d264ef8554049c6fce,2025-06-07_14h04.12.694,shape_ratio,2024.1.5,Win32,60.24096386,684250e4f00cb30b92d1fa88,,,,,,,,,,,268.4269,268.9265,,,269.1805,269.543,right,,,,,,,,0.5,0.3387,,,,,,,268.9266,269.1805,269.543,"[-0.044233843329423914,-0.004608714435514858]",100.0,"[0.05344386908123006,-0.1374700439692846]",100.0,"[-0.1560023050430277,0.08173867736884906]",4.0,"[-0.19065703638646048,0.03286387615900898]",100.0,"[-0.14425812451030165,-0.06012903499608211]",4.0,"[0.0746520312851892,0.16017501426116337]",4.0,"[0.08720826443339977,-0.061931331754562134]",100.0,"[-0.05933192551087219,0.11690069237052599]",100.0,"[-0.08686976379399956,-0.011148549062131708]",100.0,"[-0.09403977030152626,-0.08681215519258]",4.0,"[-0.024699104484391353,0.06591815111486515]",4.0,"[-0.03878607546773926,-0.05751089703426112]",100.0,"[0.14079860505049188,0.0826550729339629]",4.0,"[-0.06534182967143835,-0.18092715859611197]",4.0,"[0.0518904134348978,0.024028299372384473]",4.0,"[0.008833840867621526,-0.04589654369162501]",100.0,"[0.0988944615951632,-0.14702907553917088]",100.0,"[0.13941939921736377,-0.028926778508987606]",4.0,"[0.020004677332406556,-0.08562088936968892]",100.0,"[0.14307803410755596,-0.07547724510474169]",4.0,"[-0.03722035456296627,0.1812282202691542]",4.0,"[-0.025753317400973124,-0.12694997148205786]",4.0,"[-0.09557173653969764,0.08451634075048839]",100.0,"[0.03441065635805208,0.083770815434593]",4.0,"[0.13604748574952932,0.12850107493507076]",4.0,"[0.045106931649545025,-0.1835614144349455]",4.0,"[0.09169523164198519,0.12087764320639759]",100.0,"[0.18508944657265444,-0.058083238545663905]",4.0,"[-0.16975922589080827,-0.02521583687583052]",100.0,"[-0.1026157524900947,-0.1443492081914458]",100.0,"[0.03442748797508906,0.159855549663387]",100.0,"[0.08656202825684742,-0.005705379568600585]",100.0,"[0.02,0.02]",270.6428,0.0,30.0,30.0,116.0,1.0,,,,,,,
,,,,,,,66af93dfdf68b39e95f1dd7e,684429d264ef8554049c6fce,2025-06-07_14h04.12.694,shape_ratio,2024.1.5,Win32,60.24096386,684250e4f00cb30b92d1fa88,,,,,,,,,,,270.643,271.1427,,,271.3929,271.7762,right,,,,,,,,0.45,0.3627,,,,,,,271.1427,271.3928,271.7762,"[-0.09911199461887686,-0.14295325153885508]",4.0,"[-0.01922610006293999,-0.009256671869433707]",4.0,"[-0.03001508370066649,-0.12297565517550693]",100.0,"[0.12925976964857752,0.05164463080355786]",100.0,"[-0.053968571490317585,-0.16272617023278743]",100.0,"[0.17794544616144264,0.07463703606511617]",4.0,"[-0.14137749802309257,0.05846125682903029]",4.0,"[0.18625671986650968,0.008252558454509498]",4.0,"[-0.118370771411106,0.0017547423179649529]",100.0,"[0.009174164237955881,-0.042514026019100995]",100.0,"[-0.029481935237145606,-0.062028161599765236]",4.0,"[0.14660209455986126,-0.1169954605890827]",100.0,"[-0.1466272553947874,0.10160522224659693]",100.0,"[0.04404739883606978,0.05888175009665341]",4.0,"[0.05264311467067776,-0.08401110162633581]",4.0,"[0.15925164292848812,-0.03522982777615007]",4.0,"[-0.03979721950319717,0.04066895892423158]",4.0,"[-0.0372351361115353,0.15389161482619546]",100.0,"[0.08813378088789364,-0.058565730541964324]",4.0,"[-0.0761057213142853,0.05980275069443107]",100.0,"[0.03746533344588823,0.1498131507898586]",4.0,"[-0.18837502571028433,-0.013005813786655527]",4.0,"[-0.11410889832231277,-0.06260572397761507]",4.0,"[0.0511418831473613,0.006771825410519358]",100.0,"[0.021118915280541772,-0.13122639085821453]",4.0,"[0.05145013217101605,0.10548489174645409]",100.0,"[0.002301056107081825,0.09910719249800506]",100.0,"[0.08686438445803055,-0.10494648812276502]",4.0,"[-0.07758750114601116,0.01904314257157637]",4.0,"[0.13483042574677576,0.12338866960800696]",100.0,"[-0.04126990652843718,0.09569360078897891]",4.0,"[0.10649798504158442,-0.0016104589294818066]",100.0,"[0.02,0.02]",272.8756,0.0,31.0,31.0,129.0,1.0,,,,,,,
,,,,,,,66af93dfdf68b39e95f1dd7e,684429d264ef8554049c6fce,2025-06-07_14h04.12.694,shape_ratio,2024.1.5,Win32,60.24096386,684250e4f00cb30b92d1fa88,,,,,,,,,,,272.8758,273.3754,,,273.6294,273.992,right,,,,,,,,0.45,0.3378,,,,,,,273.3755,273.6293,273.9921,"[0.09092192776259607,-0.06345318256586333]",100.0,"[0.017981444347260813,0.013548016046451344]",4.0,"[0.0855326411609819,0.10626665125356195]",4.0,"[-0.11167391342573493,0.05111923556187244]",4.0,"[0.05289514915741646,0.13805430813405226]",4.0,"[0.02946299841234692,-0.16601414502239256]",4.0,"[-0.15054966078731136,-0.016383833080273948]",100.0,"[-0.05250952619515663,-0.12611821832789843]",100.0,"[0.029973259388573384,-0.11302723161227828]",4.0,"[-0.1213987085709421,-0.1359565601561501]",100.0,"[0.13098522469864876,-0.1118099674605448]",4.0,"[0.005631658606015147,0.13082987368704418]",100.0,"[-0.13519990513029906,0.14144260509649562]",100.0,"[0.13998437612994888,0.010564702163412874]",100.0,"[0.1378872925214233,0.11501283064227884]",4.0,"[0.17301877920831732,0.09357821188879793]",100.0,"[0.1586218320747064,0.05410172890108631]",4.0,"[0.09860436399439884,-0.0047528548117553165]",4.0,"[-0.02231373555728055,0.03469622305837511]",100.0,"[0.06759383934171455,0.17707131454466815]",100.0,"[-0.07381037611259,-0.08354328268508665]",4.0,"[-0.07144625357128966,0.02558213016181593]",100.0,"[-0.08490059105988455,-0.026798989523286965]",4.0,"[0.10194916367018103,0.1481741862420039]",4.0,"[-0.011476785497555911,-0.17787067361900313]",4.0,"[-0.1623772073997361,-0.10749896438537163]",4.0,"[0.08527794997981626,0.039670227042657887]",4.0,"[0.1791255979470676,-0.030408147454741723]",100.0,"[-0.18700113642905752,0.05799476352808567]",100.0,"[-0.1717740025695039,-0.056959856872491735]",4.0,"[-0.027897929776212714,0.08883579895713248]",100.0,"[-0.15908385358721358,0.08999743499616539]",4.0,"[0.02,0.02]",275.0916,0.0,32.0,32.0,145.0,1.0,,,,,,,
,,,,,,,66af93dfdf68b39e95f1dd7e,684429d264ef8554049c6fce,2025-06-07_14h04.12.694,shape_ratio,2024.1.5,Win32,60.24096386,684250e4f00cb30b92d1fa88,,,,,,,,,,,275.092,275.5916,,,275.8417,276.2081,right,,,,,,,,0.6,0.3336,,,,,,,275.5917,275.8417,276.2081,"[0.07998590213240307,-0.0006457460525712302]",100.0,"[0.13779042666779787,0.11634030595722096]",4.0,"[-0.06779784566946644,0.15273945652039733]",4.0,"[-0.1274192165843903,-0.008025223757260305]",100.0,"[0.06531327750001985,0.05356232102457223]",100.0,"[-0.1278942756387972,-0.05054402798896234]",100.0,"[0.13222386606803502,-0.0350177018147554]",4.0,"[-0.016246539647602407,-0.13067689996280266]",100.0,"[-0.07081871589190881,-0.006218781093745582]",100.0,"[-0.1127642047178363,-0.13378454897892933]",4.0,"[-0.04101004904046332,-0.16624039491996298]",100.0,"[0.03620442790483934,0.009942303142099785]",100.0,"[0.18563991804195187,-0.018966199782566757]",4.0,"[0.04708072941418109,-0.12981248709792387]",4.0,"[0.12377502123173326,0.021037469567634474]",100.0,"[-0.14085558790330222,0.08653396360684594]",100.0,"[0.03560270437785433,0.19046506803940177]",100.0,"[-0.08341825547359644,0.07498916816759585]",4.0,"[0.08859064409412591,0.1476417562244287]",100.0,"[0.04835008362250244,0.11185416505443285]",4.0,"[-0.018058050710104474,0.17805805764116958]",100.0,"[-0.0032753081122564197,-0.025982784498037023]",4.0,"[0.024850165362071186,-0.06694638567718411]",4.0,"[-0.19445149150792498,0.027683571656849548]",100.0,"[-0.03951949928997314,0.09210085981537836]",100.0,"[0.09631556306946676,0.08766958292290375]",100.0,"[0.1910067773140654,0.039778433387279044]",100.0,"[-0.13724356921812378,0.033605707887693605]",100.0,"[-0.0183296481963155,-0.07661050050432268]",100.0,"[-0.12770681212719412,0.138804747416478]",4.0,"[0.15956469835756484,-0.09774659459278139]",4.0,"[0.10455482203340315,-0.07906913860819187]",4.0,"[0.02,0.02]",277.3079,0.0,33.0,33.0,53.0,1.0,,,,,,,
,,,,,,,66af93dfdf68b39e95f1dd7e,684429d264ef8554049c6fce,2025-06-07_14h04.12.694,shape_ratio,2024.1.5,Win32,60.24096386,684250e4f00cb30b92d1fa88,,,,,,,,,,,277.3081,277.8077,,,278.0578,278.6742,right,,,,,,,,0.9,0.5934,,,,,,,277.8077,278.0578,278.6743,"[0.15848695091140505,-0.09816959739165722]",100.0,"[-0.01569332533472781,-0.14900817337488334]",100.0,"[-0.02211043170213499,0.1209636281877376]",4.0,"[-0.013080520165742267,-0.04598551252005094]",100.0,"[-0.0551411678214687,0.1648619621870868]",100.0,"[0.1288299156576788,0.056848307206235175]",100.0,"[-0.15045487209833136,-0.011257086499030051]",100.0,"[-0.007555880098739063,0.050547090540220795]",100.0,"[0.10040122234004002,0.08535021395172726]",100.0,"[0.10580442455338661,-0.0324538261176979]",100.0,"[0.12759428122634275,0.12366148452827602]",100.0,"[-0.05500091596576153,-0.020994180614701267]",100.0,"[0.0476099867735284,-0.04301615341263886]",100.0,"[-0.10308392917706495,0.10476184450467034]",100.0,"[0.08297479034751837,-0.1602935062609367]",100.0,"[-0.17990011963423866,0.024594155998209046]",100.0,"[-0.1656170212456205,-0.07137094405210204]",100.0,"[0.06396868649400782,-0.0010224899934589702]",100.0,"[0.047066372028666044,0.14352371278672907]",100.0,"[0.17258422114305727,0.07385232028630047]",4.0,"[0.19004906195551505,-0.004486753214488211]",100.0,"[0.03754543328180628,-0.16658006070329198]",4.0,"[-0.08808139359715302,0.039642974394496294]",100.0,"[0.03954341650216198,0.06081283407939054]",100.0,"[0.1492387564251589,-0.020646731925910745]",100.0,"[0.12262511168427184,-0.07150833986242645]",100.0,"[-0.010321734819587352,0.16043487325184622]",100.0,"[-0.10817449952049703,-0.08859521507077411]",100.0,"[-0.11800283587406807,-0.035726861946305095]",100.0,"[-0.14170104958448518,0.038285005970406794]",100.0,"[-0.03121853142477617,-0.10151808434731112]",100.0,"[-0.016755534735177147,0.001636822125473635]",100.0,"[0.02,0.02]",279.7739,0.0,34.0,34.0,13.0,1.0,,,,,,,
,,,,,,,66af93dfdf68b39e95f1dd7e,684429d264ef8554049c6fce,2025-06-07_14h04.12.694,shape_ratio,2024.1.5,Win32,60.24096386,684250e4f00cb30b92d1fa88,,,,,,,,,,,279.7742,280.2737,,,280.5257,280.6404,right,,,,,,,,0.9,0.0837,,,,,,,280.2738,280.5257,280.6404,"[-0.04400829837430533,-0.13012579484895714]",100.0,"[0.18434477690086803,-0.027104325921852194]",100.0,"[-0.05048721538883267,-0.02347650859500223]",100.0,"[0.011457441915640146,-0.16025691469236883]",100.0,"[-0.12232397291461092,0.10826376624695884]",100.0,"[0.13958112418442933,0.05789138497455767]",100.0,"[-0.012440262041186268,-0.06599367403647793]",100.0,"[-0.11689588512514464,-0.005374896502838546]",100.0,"[0.05080058834422205,0.07759447894435101]",100.0,"[-0.02096145509740735,0.0660066965606924]",100.0,"[-0.17033188659826604,0.038578583408327184]",100.0,"[0.05314093776182788,-0.1858279913568997]",100.0,"[0.1270577416622621,-0.14113657552123918]",100.0,"[0.11269926229542769,0.11347393987810561]",100.0,"[0.10463779073681308,-0.04297644040501266]",4.0,"[0.028174188674826805,0.1280935118819296]",100.0,"[0.09653312639043518,-0.10873736227011635]",100.0,"[-0.11636191918432656,-0.055131870331973906]",4.0,"[-0.029112311188883862,0.12423673947453907]",100.0,"[-0.1376528033943982,-0.10337823625390283]",100.0,"[0.054998788976420236,-0.01266180635801685]",4.0,"[-0.12091184550886429,0.04132189791095629]",100.0,"[0.14950241965937067,-0.0918538526325884]",100.0,"[0.14882595639326887,-0.05039318308490058]",100.0,"[0.1816534027199573,0.04235922532240279]",100.0,"[0.01384887711565085,0.004019641464355639]",100.0,"[0.039023617683807195,-0.11380756430886001]",100.0,"[-0.07562477467816621,0.1637690014162141]",100.0,"[0.07489151111799221,-0.14805659346538694]",100.0,"[-0.1617645694156386,0.09539737651037912]",100.0,"[-0.023751020914575413,-0.1820801384831048]",100.0,"[-0.1666360866323997,-0.06805171095528414]",100.0,"[0.02,0.02]",281.7401,0.0,35.0,35.0,21.0,1.0,,,,,,,
,,,,,,,66af93dfdf68b39e95f1dd7e,684429d264ef8554049c6fce,2025-06-07_14h04.12.694,shape_ratio,2024.1.5,Win32,60.24096386,684250e4f00cb30b92d1fa88,,,,,,,,,,,281.7404,282.2399,,,282.4941,283.5064,left,,,,,,,,0.4,1.0062,,,,,,,282.24,282.494,283.5065,"[-0.08045109090333862,-0.18044746352493438]",100.0,"[0.15656469153282696,-0.035544900344811975]",4.0,"[-0.12340559509840264,-0.1141235922558905]",100.0,"[0.12812722679225325,-0.08791405993632416]",4.0,"[0.05400688633880172,0.14322192850264914]",4.0,"[0.15767723543332696,0.11526420811230657]",100.0,"[-0.08165226566202688,-0.08657970990370278]",4.0,"[-0.09924728696619582,0.015575327477402829]",4.0,"[0.11886975764120442,0.03959274784104894]",4.0,"[-0.040801204781757826,-0.07917972212949849]",4.0,"[-0.19381329070706038,0.04330877135610592]",4.0,"[0.07863021406248093,0.047356805393170734]",4.0,"[0.1029855123059506,0.16390750043614133]",100.0,"[0.17856805935114933,0.07358823087717895]",4.0,"[-0.13856824816120897,0.1422754226383412]",100.0,"[0.04558198661185811,-0.07300340655559981]",100.0,"[-0.14021609135111163,-0.03587263996536424]",100.0,"[0.09665291978017329,-0.05288284526374618]",4.0,"[0.08920776211900323,-0.17412372093516282]",4.0,"[0.096808580865262,0.11028764686112744]",4.0,"[-0.0270941811180085,-0.0036661213737257284]",4.0,"[-0.010659549653759695,0.19951952762249636]",100.0,"[0.07322195563501097,-0.135457537313292]",100.0,"[0.028023772701398386,0.1106089009916001]",4.0,"[0.014791957368630848,0.16475527899154943]",100.0,"[-0.1696253244529764,0.003480429379325223]",4.0,"[0.16092220798122805,0.029391389504915003]",4.0,"[-0.09633060030765844,0.1731718201137955]",4.0,"[-0.07212489635763658,-0.01601531820917824]",100.0,"[-0.12184507788128206,0.06650161864767566]",100.0,"[0.0612067357600613,0.00490149221050334]",100.0,"[-0.04649321528571658,0.12238806803485523]",4.0,"[0.02,0.02]",284.606,0.0,36.0,36.0,173.0,1.0,,,,,,,
,,,,,,,66af93dfdf68b39e95f1dd7e,684429d264ef8554049c6fce,2025-06-07_14h04.12.694,shape_ratio,2024.1.5,Win32,60.24096386,684250e4f00cb30b92d1fa88,,,,,,,,,,,284.6063,285.106,,,285.3561,285.8058,right,,,,,,,,0.1,0.417,,,,,,,285.106,285.3561,285.8059,"[0.001280191148672828,-0.16368175550296848]",4.0,"[-0.18561770805687045,0.06456976476050529]",100.0,"[0.036348545123120836,0.07741173545231692]",4.0,"[0.1425004143502798,0.050746476888638196]",100.0,"[0.04846254960799723,0.014186989382439811]",4.0,"[0.004675021516690927,-0.12079935578235927]",4.0,"[0.1757704119085131,-0.08022785337609135]",4.0,"[0.053472832917937405,-0.09455461265571782]",4.0,"[0.0778548545758418,0.06480512055817612]",4.0,"[-0.09293755008147717,-0.12605952704405546]",4.0,"[-0.12163134231277846,0.1397453216189833]",4.0,"[0.06700980559890378,-0.04632332849024215]",4.0,"[-0.044521193066388666,-0.10645260132519682]",4.0,"[0.14255764521196498,-0.0017772063446384564]",4.0,"[0.10865883541537939,0.11389271378652908]",4.0,"[0.013962166995946832,0.15856666953895052]",4.0,"[-0.16516393118808087,-0.08794541785252083]",4.0,"[-0.11692872367955771,0.010206713679816216]",4.0,"[-0.0969784588338162,-0.06705623382961914]",4.0,"[0.0946953047494108,0.0032500393316515753]",100.0,"[0.007300916608796027,-0.014430292326108703]",4.0,"[-0.08292607236588065,0.09225186128969402]",4.0,"[-0.06959054185707626,-0.16714532925991338]",4.0,"[0.14304224433771257,-0.04922911488370492]",4.0,"[-0.047608337027767185,0.002985038698942546]",4.0,"[0.04114516435710359,0.1950445662619309]",4.0,"[-0.172018595997372,-0.04696789725143077]",4.0,"[0.04177952462111304,-0.15427446298463465]",4.0,"[-0.1657219246060284,0.015939627551375023]",4.0,"[-0.0010016374606294854,-0.06581902596182282]",4.0,"[-0.005938665828742983,0.061357646193157256]",4.0,"[0.19046668321776763,0.018349249900879886]",4.0,"[0.02,0.02]",286.9055,0.0,37.0,37.0,180.0,1.0,,,,,,,
,,,,,,,66af93dfdf68b39e95f1dd7e,684429d264ef8554049c6fce,2025-06-07_14h04.12.694,shape_ratio,2024.1.5,Win32,60.24096386,684250e4f00cb30b92d1fa88,,,,,,,,,,,286.9058,287.4053,,,287.6596,287.9721,right,,,,,,,,0.55,0.2916,,,,,,,287.4053,287.6596,287.9722,"[-0.007327401808215645,0.14444475394538728]",4.0,"[0.08012049010630036,-0.12687428143904503]",100.0,"[-0.1673265637509682,-0.09918337496624978]",4.0,"[0.1045584013597054,0.14822659933772508]",100.0,"[-0.12464511383230219,0.07834830051003448]",4.0,"[0.019085042133697744,0.02268910934256189]",100.0,"[-0.048847860654513985,-0.007253602683008186]",4.0,"[0.12444110381273692,0.025023609505377506]",100.0,"[0.03338804659427556,0.07012598770391339]",100.0,"[0.17735401852707441,-0.008893672912987677]",4.0,"[0.08792139313782076,-0.06869251439816387]",100.0,"[0.0406700976196581,-0.1087595189547274]",100.0,"[-0.06583882393099934,0.179437112242165]",4.0,"[-0.0678876422511516,-0.14647280027189083]",4.0,"[0.07537171587850995,0.10691154630568904]",4.0,"[-0.18783428207310954,-0.025491957876308678]",100.0,"[-0.059998989637620154,-0.08425541318500995]",100.0,"[-0.08045681618124866,0.058273542245850414]",100.0,"[-0.05037108095894682,0.08937003840571991]",100.0,"[0.15572907867612995,0.08562868432247024]",100.0,"[-0.09830367009195642,0.14460725669202537]",4.0,"[-0.1472774760457609,-0.061868894949031694]",4.0,"[-0.09077271142811535,-0.00035757118173731335]",100.0,"[0.12148863475111629,-0.13385136654769053]",100.0,"[0.049121772304774755,0.18682704228965863]",100.0,"[-0.10936650759938919,-0.11988135557185778]",100.0,"[0.17802709497489952,-0.08139666193562697]",4.0,"[0.1160542743580159,0.0672836821408158]",100.0,"[-0.14098389712935677,0.011932929948286902]",4.0,"[0.03441765346691939,-0.04545811910454086]",100.0,"[0.05890406144402623,0.0015375413326950587]",4.0,"[-0.010920841752578498,-0.025577299342865442]",4.0,"[0.02,0.02]",289.0717,0.0,38.0,38.0,65.0,1.0,,,,,,,
,,,,,,,66af93dfdf68b39e95f1dd7e,684429d264ef8554049c6fce,2025-06-07_14h04.12.694,shape_ratio,2024.1.5,Win32,60.24096386,684250e4f00cb30b92d1fa88,,,,,,,,,,,289.072,289.5715,,,289.8217,290.3714,left,,,,,,,,0.55,0.5255,,,,,,,289.5715,289.8216,290.3715,"[0.04367795090850678,0.13389166222676752]",100.0,"[0.12124606918784368,-0.018460384318200792]",4.0,"[0.020634521879697224,-0.06208957346902357]",4.0,"[0.10701458721525693,-0.13830366317497547]",4.0,"[-0.1657669470673433,0.01787784719496271]",4.0,"[-0.051122109404182756,-0.006330149872392101]",4.0,"[-0.16390720348050364,-0.1120394231264868]",100.0,"[0.19452255779253227,-0.002661460132396372]",4.0,"[-0.15274741182807366,0.07508738545656339]",4.0,"[-0.0164088827428477,0.07688455640563588]",100.0,"[0.11110224111741934,0.04543472179767327]",100.0,"[-0.08518515648473972,-0.15019731728075392]",4.0,"[0.08732965178357192,0.10014061852073557]",4.0,"[-0.13636537708950416,0.12864994952443926]",100.0,"[-0.10439769290841992,0.08883231779099089]",100.0,"[0.05932256391489253,-0.12272629805155053]",100.0,"[-0.08083277093537279,0.02551442750748952]",4.0,"[-0.11054105043473064,-0.1091484136726128]",100.0,"[-0.12180639837450687,-0.06747086752488021]",100.0,"[-0.0673049110007054,-0.05333888921915136]",100.0,"[-0.017200397160671267,0.023565187034389243]",4.0,"[-0.039953328615969126,-0.1244804449035967]",100.0,"[-0.10895896379610856,0.1636009494448819]",4.0,"[-0.005149266976650563,-0.19427739129364982]",4.0,"[0.1611710834762756,0.02070475123768091]",100.0,"[-0.05955147407925046,-0.1837478180926944]",100.0,"[0.15414201350823617,0.12339263685358524]",100.0,"[0.09947707425291133,0.15002999084012794]",100.0,"[-0.17846118476436026,-0.07089691191642003]",100.0,"[0.07329903458693142,-0.0649910099421019]",4.0,"[0.034607867534640936,-0.17568667216530923]",100.0,"[-0.014798947999581211,0.11945196426079398]",100.0,"[0.02,0.02]",291.4728,0.0,39.0,39.0,61.0,1.0,,,,,,,
,,,,,,,66af93dfdf68b39e95f1dd7e,684429d264ef8554049c6fce,2025-06-07_14h04.12.694,shape_ratio,2024.1.5,Win32,60.24096386,684250e4f00cb30b92d1fa88,,,,,,,,,,,291.473,291.971,,,292.2211,292.6375,right,,,,,,,,0.6,0.3834,,,,,,,291.9711,292.2211,292.6376,"[-0.060819939999132946,-0.1349039896074181]",100.0,"[0.04358236968759251,0.058643091991962944]",100.0,"[-0.0016691005041437586,0.1484257952055976]",100.0,"[0.16155943531972936,-0.05677795254325792]",100.0,"[-0.10379823519587077,0.04154703032193024]",4.0,"[-0.056918391524758465,-0.08909468171528565]",4.0,"[0.012305514235245889,0.0998029775515739]",4.0,"[0.1801900385572299,-0.010506333629244757]",100.0,"[-0.04125153328018935,0.07174358722803467]",100.0,"[0.17563806177505717,0.044630260830374434]",100.0,"[0.08666925245215576,-0.1241022511639887]",100.0,"[0.08851204539158085,-0.07729145271709234]",4.0,"[0.055284404163994105,0.007533276986492813]",100.0,"[0.05410652161168893,0.10818427868937305]",100.0,"[-0.034637857444330546,0.19240543034738733]",100.0,"[0.13593425847421728,0.10733642516279496]",100.0,"[-0.03532537258209269,-0.19295568279860198]",4.0,"[-0.15680158821012194,-0.016886786044833933]",4.0,"[-0.1456564227158374,0.13647216182280764]",4.0,"[-0.008846208319900682,-0.09515531243578337]",100.0,"[-0.00032869993017803947,-0.01118406409443498]",100.0,"[-0.19345903412079377,0.004774920564819633]",4.0,"[-0.10845546007299368,0.1080593916926668]",4.0,"[0.1259693635148922,0.018935532902044354]",100.0,"[-0.04989322152332427,-0.03735256427339017]",4.0,"[0.029505802874523812,0.17951690040402976]",100.0,"[0.03469548694493225,-0.1323914102532574]",100.0,"[-0.1387856751308366,-0.05984806645983855]",4.0,"[0.07851204283906738,0.178234206130253]",4.0,"[-0.0948378795683246,-0.05814158611358104]",4.0,"[0.10468117336330363,-0.027156946640475986]",100.0,"[-0.04132525835957281,0.013602299524017125]",100.0,"[0.02,0.02]",293.7372,0.0,40.0,40.0,57.0,1.0,,,,,,,
,,,,,,,66af93dfdf68b39e95f1dd7e,684429d264ef8554049c6fce,2025-06-07_14h04.12.694,shape_ratio,2024.1.5,Win32,60.24096386,684250e4f00cb30b92d1fa88,,,,,,,,,,,293.7375,294.2371,,,294.4873,294.9872,right,,,,,,,,0.55,0.4679,,,,,,,294.2371,294.4873,294.9873,"[0.1752979936439681,0.0800665981604293]",100.0,"[0.1307403644350551,0.13253308189496105]",100.0,"[-0.09658201246556808,-0.040942695515827764]",100.0,"[0.0015982462445779026,-0.08740033078517942]",100.0,"[0.08230035074588604,0.08861299024742662]",4.0,"[0.013662734350677703,0.14097083710117872]",4.0,"[-0.1986851877932165,0.008121089328908617]",100.0,"[-0.14490095703124134,-0.12216683294125409]",100.0,"[-0.10077500501080605,0.043693570202579954]",100.0,"[0.18247200699889704,-0.02473546929538633]",100.0,"[0.09513782993043222,0.17374856626672755]",4.0,"[-0.03938358371273595,-0.07480827672251082]",100.0,"[0.08643545417118967,-0.1600392827180275]",4.0,"[-0.046195865582109565,0.13229789358961508]",4.0,"[0.15139367301440193,-0.10608533007750826]",4.0,"[0.013605522341450472,-0.1344124643371488]",4.0,"[-0.14985587933039185,-0.05096440065689165]",100.0,"[-0.19009739771076314,-0.04433311252219533]",100.0,"[-0.15618229052990423,0.12041647157913848]",4.0,"[0.012030696200328862,0.07245114513989978]",4.0,"[-0.02082885149885393,0.011795507620800201]",4.0,"[-0.10128688527885417,0.12922273718274613]",100.0,"[0.14701649411452158,0.014233160695945286]",100.0,"[0.08283372584826032,-0.04404253810289787]",100.0,"[0.010025664550827379,0.18180733750913988]",100.0,"[-0.10072597986577514,0.08766753330019973]",100.0,"[-0.11194225934103548,0.0028083433456262347]",100.0,"[0.0032162520057346165,-0.1769077783698047]",100.0,"[0.05448497132391874,-0.11106004700255229]",4.0,"[-0.05761699913695901,-0.11920577102491826]",4.0,"[-0.10782212723438034,-0.16009311299816067]",4.0,"[0.05541073825931063,0.051486764906244056]",4.0,"[0.02,0.02]",296.0866,0.0,41.0,41.0,75.0,1.0,,,,,,,
,,,,,,,66af93dfdf68b39e95f1dd7e,684429d264ef8554049c6fce,2025-06-07_14h04.12.694,shape_ratio,2024.1.5,Win32,60.24096386,684250e4f00cb30b92d1fa88,,,,,,,,,,,296.0869,296.5866,,,296.8367,297.4196,right,,,,,,,,0.45,0.5505,,,,,,,296.5866,296.8367,297.4197,"[0.1517423816048709,0.038459040416044483]",100.0,"[-0.14296611518573243,-0.01458777644113128]",100.0,"[0.0967188837326941,0.07361100576796747]",4.0,"[0.05261957608403004,0.08958428917818084]",4.0,"[0.19112865254588315,0.0463422128707502]",100.0,"[0.15791792396882454,0.08278628878245754]",100.0,"[0.041593430483972044,0.16010886137785402]",4.0,"[0.0467061064512428,-0.16061081942269587]",4.0,"[-0.16120257035942984,0.056963244234252655]",4.0,"[-0.07260216762622484,-0.01550980119420147]",4.0,"[-0.09217659624378832,0.07903619116292035]",4.0,"[0.16696002975321395,-0.07725121902274718]",100.0,"[0.018568408659413206,0.11922531566542474]",4.0,"[0.06634393727891762,-0.10318987079171872]",4.0,"[-0.06738624034119713,-0.13543053908861502]",100.0,"[-0.1922750497666738,-0.054862477140469684]",4.0,"[0.1706100893951734,-0.02469923832375965]",4.0,"[-0.07491798748522632,0.17477220019703765]",4.0,"[-0.09645694994524079,-0.06192588994915407]",4.0,"[0.007696295632723471,-0.06535533882819132]",100.0,"[0.0919672045254049,0.15226396170028852]",4.0,"[-0.007228625275926556,-0.12087930700167399]",4.0,"[-0.15133671010416086,0.10510514395264736]",100.0,"[0.08895162609448487,-0.052390741998951884]",100.0,"[-0.09633765580763635,0.020982752852364873]",100.0,"[-0.008267695525224389,0.027196397720698106]",100.0,"[0.1386075526754515,-0.13565797831273987]",4.0,"[0.06988241179530706,0.022734984079820317]",100.0,"[-0.14248284879850429,-0.0804477718843012]",4.0,"[-0.12471250335718365,-0.13403820539465455]",100.0,"[0.031944859512055064,-0.0027643971273038016]",4.0,"[-0.0021192641155708372,0.15723037613728805]",100.0,"[0.02,0.02]",298.5194,0.0,42.0,42.0,148.0,1.0,,,,,,,
,,,,,,,66af93dfdf68b39e95f1dd7e,684429d264ef8554049c6fce,2025-06-07_14h04.12.694,shape_ratio,2024.1.5,Win32,60.24096386,684250e4f00cb30b92d1fa88,,,,,,,,,,,298.5196,299.0193,,,299.2732,299.9361,left,,,,,,,,0.55,0.6461,,,,,,,299.0194,299.2732,299.9361,"[0.0859755222670104,-0.03966985346624134]",4.0,"[-0.012785386761099391,-0.02784372077599498]",100.0,"[-0.16228771123536068,0.08713391390601545]",100.0,"[0.04014456650827154,-0.08906034327620999]",100.0,"[0.12688992769790491,0.11195867740403596]",4.0,"[0.024720750870108645,0.16692801151208667]",4.0,"[-0.13045735813693374,-0.05815814732354332]",100.0,"[-0.06516883825122216,-0.026865349444167106]",4.0,"[0.1593496995673639,0.07017029475372617]",100.0,"[-0.15979304733251273,-0.10139678286827494]",100.0,"[-0.06618510488618003,-0.18186563146320825]",4.0,"[0.08957558557271598,0.1597115999456669]",100.0,"[0.10007405596908174,-0.1599498007837515]",4.0,"[-0.05864537356804425,0.037724832125732105]",100.0,"[-0.0364551198546585,-0.10944405074629764]",4.0,"[-0.09958556302836531,0.059218699511544376]",100.0,"[-0.014982629299829409,-0.14859994961334594]",100.0,"[-0.03002176808083472,0.17379378090928707]",4.0,"[0.0056096086934974585,0.01823379194089977]",100.0,"[-0.1186403619139211,-0.1352458070860768]",4.0,"[-0.030017500184114667,0.06645471015698297]",100.0,"[0.01598432576215261,0.06918541683735913]",100.0,"[-0.10779920894290258,-0.01743243890079742]",4.0,"[0.07676324702279483,0.0859201245907278]",100.0,"[-0.18759318449035037,-0.058016962562964194]",100.0,"[0.1481891189118264,-0.049929413880994006]",4.0,"[-0.00884248284088385,-0.19318182765754052]",4.0,"[-0.14917735367094603,0.01584023258810231]",100.0,"[-0.091795026211946,-0.08127546404855537]",4.0,"[0.10298521264685943,0.05533321054937]",100.0,"[0.10791580497772554,-0.10430314183486576]",4.0,"[0.16589324574903036,0.030657929256562737]",100.0,"[0.02,0.02]",301.0355,0.0,43.0,43.0,71.0,1.0,,,,,,,
,,,,,,,66af93dfdf68b39e95f1dd7e,684429d264ef8554049c6fce,2025-06-07_14h04.12.694,shape_ratio,2024.1.5,Win32,60.24096386,684250e4f00cb30b92d1fa88,,,,,,,,,,,301.0358,301.5353,,,301.7855,302.3185,right,,,,,,,,0.1,0.5001,,,,,,,301.5353,301.7855,302.3186,"[-0.11051594090757498,0.0184859174894442]",4.0,"[0.08943410247384305,0.03100910420410964]",4.0,"[0.12979614144994678,-0.14589487076838786]",4.0,"[-0.04740221809626436,-0.17282440240119742]",4.0,"[-0.0513841356042993,-0.029701804625537336]",4.0,"[-0.014170713851401806,0.1109492787317643]",100.0,"[-0.0017503753787696868,0.17773175748814116]",100.0,"[-0.03805711651291064,-0.08542908276450542]",4.0,"[0.13494565513369144,0.01606860398532908]",4.0,"[0.07523884692699498,-0.015312159147815455]",4.0,"[0.1259050080480926,0.12182747007662768]",4.0,"[-0.17465904892560455,0.07949380226246704]",4.0,"[0.15320565069435074,0.06727697931196644]",4.0,"[0.06107561330949479,-0.16682830689902256]",4.0,"[0.03690114548064601,0.16216230768338427]",4.0,"[-0.09200209636820182,0.08366814878122797]",4.0,"[-0.008270104025949203,0.04317261092094008]",4.0,"[0.008627410453155408,-0.10457797507896964]",4.0,"[-0.18126991768837308,-0.07963714056000662]",100.0,"[-0.11243982805991447,-0.030819850390356583]",4.0,"[0.0820848302864196,-0.05651595787610124]",4.0,"[0.030670605333694156,-0.07030270327037495]",4.0,"[0.13582266872784293,-0.07169145717705595]",4.0,"[-0.013610669624554544,-0.053572099445494424]",4.0,"[-0.19965362488563815,0.00004385585065441108]",4.0,"[0.09130484743031143,0.08607993687184638]",4.0,"[-0.08265822458944047,-0.07156941726276894]",4.0,"[-0.10467709718817086,-0.12899997360883292]",4.0,"[0.00551217275428898,-0.16262389734445454]",4.0,"[0.03087820943577349,0.053223041281075835]",4.0,"[0.017203181680473634,-0.02062165248224741]",4.0,"[0.08010348008066302,0.16993996952455126]",4.0,"[0.02,0.02]",303.4182,0.0,44.0,44.0,189.0,1.0,,,,,,,
,,,,,,,66af93dfdf68b39e95f1dd7e,684429d264ef8554049c6fce,2025-06-07_14h04.12.694,shape_ratio,2024.1.5,Win32,60.24096386,684250e4f00cb30b92d1fa88,,,,,,,,,,,303.4185,303.9181,,,304.1719,304.6679,right,,,,,,,,0.6,0.4673,,,,,,,303.9181,304.1719,304.6679,"[-0.0738170001511982,0.026401141434956733]",4.0,"[-0.034896814883437335,0.19052822041308448]",4.0,"[0.19525234982720288,-0.042196542694277195]",100.0,"[-0.08132865704906532,-0.0381239421066264]",4.0,"[0.1558082252207834,-0.010835986639594467]",100.0,"[0.03617097580324778,-0.19450651485335999]",100.0,"[0.08137780022522077,0.10662858753234102]",100.0,"[-0.020805540246939213,-0.00969820665405148]",100.0,"[-0.023420962263724927,-0.14649878889830928]",100.0,"[-0.06432748311848294,-0.08623388994037216]",4.0,"[-0.17444365670916787,-0.010273892182712588]",4.0,"[-0.01870740153904977,-0.09313592474329496]",100.0,"[0.03492912775824429,-0.10080021004629011]",100.0,"[-0.14359609940389748,0.02503327925991671]",100.0,"[-0.07903136282675377,0.1452149971476395]",4.0,"[0.0991858122959006,-0.04244285881005563]",100.0,"[0.018261444878323742,-0.05004911902177521]",100.0,"[0.033650947768520255,0.1647243529433436]",100.0,"[-0.03180251806716743,0.07952483365458278]",100.0,"[0.1617145818647044,0.07828963378040653]",4.0,"[-0.1270120324221491,-0.041058763881264344]",4.0,"[0.09261664939162778,-0.13174164884913092]",4.0,"[0.13071740989889288,-0.07445303328199378]",100.0,"[0.04132319554508153,0.00018170620674876027]",100.0,"[0.09433026025732542,0.05156276026588294]",100.0,"[0.15428344232019583,0.12661504257252268]",100.0,"[0.028549077204919417,0.1087522457607819]",4.0,"[-0.13094870569938374,-0.14622423574837237]",4.0,"[0.05299461902368099,-0.14947152371205608]",100.0,"[-0.17832475000056913,-0.0691657458939003]",4.0,"[0.10205506916656788,0.14178664280386]",4.0,"[-0.09004357842559438,0.10387864111459354]",100.0,"[0.02,0.02]",305.7677,0.0,45.0,45.0,43.0,1.0,,,,,,,
,,,,,,,66af93dfdf68b39e95f1dd7e,684429d264ef8554049c6fce,2025-06-07_14h04.12.694,shape_ratio,2024.1.5,Win32,60.24096386,684250e4f00cb30b92d1fa88,,,,,,,,,,,305.7679,306.2676,,,306.5215,307.034,left,,,,,,,,0.5,0.4855,,,,,,,306.2676,306.5215,307.034,"[0.1458361134475041,-0.11359966498416792]",100.0,"[0.15415573896903842,0.08052622955801565]",100.0,"[-0.055641130922219846,-0.0562118084621052]",100.0,"[0.02828468326521899,0.17672927240023134]",4.0,"[-0.00551255823744409,-0.09021447336072096]",4.0,"[0.08581891906123523,0.061233820650462165]",100.0,"[0.06518931358607727,-0.039298117184548176]",100.0,"[-0.026311144426194002,0.1585390576682543]",4.0,"[0.022840372538571737,0.05819162164001453]",100.0,"[-0.09126226638138644,-0.10374285203314362]",100.0,"[0.1353986610795962,-0.00678812748209907]",4.0,"[-0.1363626284771905,-0.07789183102857226]",100.0,"[0.09467569480661507,-0.15056105086019994]",100.0,"[0.11451885098800366,-0.07278375994318799]",4.0,"[-0.054415218817306446,-0.0017619115126222306]",4.0,"[-0.025631160331537457,0.03260223373139455]",4.0,"[-0.15239030965409756,0.08293365062886318]",100.0,"[0.06481878601756158,0.1600477380248893]",4.0,"[-0.08736957119787139,0.09978324228148353]",4.0,"[0.047749728910054676,0.11444613102812681]",4.0,"[0.17048116387826973,-0.028900552413834373]",100.0,"[-0.001984740390198169,-0.0011251153360314259]",4.0,"[0.1841762151683152,0.010602282936870364]",4.0,"[-0.14459720568170223,-0.023948503010383006]",100.0,"[-0.09675547739461533,-0.15662192347959972]",4.0,"[-0.10932506292221078,0.04172613065751998]",100.0,"[0.10824050106353585,0.11352350597193649]",100.0,"[0.10904844445104193,0.16611839370388506]",100.0,"[-0.04235135106197868,-0.1084063859169116]",100.0,"[-0.18608038881313468,0.04514347348474271]",4.0,"[0.06142035957030164,0.012951040753378194]",4.0,"[0.04102802411360468,-0.10710465371936952]",4.0,"[0.02,0.02]",308.1337,0.0,46.0,46.0,95.0,1.0,,,,,,,
,,,,,,,66af93dfdf68b39e95f1dd7e,684429d264ef8554049c6fce,2025-06-07_14h04.12.694,shape_ratio,2024.1.5,Win32,60.24096386,684250e4f00cb30b92d1fa88,,,,,,,,,,,308.1339,308.6335,,,308.8876,309.6668,right,,,,,,,,0.4,0.7593,,,,,,,308.6336,308.8876,309.6668,"[0.011752813432641968,-0.07422317154655364]",4.0,"[0.11444401183720197,-0.008485471801072824]",100.0,"[0.06697630112404021,-0.02648932473950145]",4.0,"[-0.011148290972273675,0.18842758738719576]",100.0,"[0.11843158085915226,0.10874325711070466]",4.0,"[0.04683896297618093,0.1168726669444667]",4.0,"[0.06215152834123041,0.18621669482432426]",100.0,"[0.1565684968771382,0.05800354187753812]",4.0,"[-0.026854384859213952,0.07805174790268347]",4.0,"[-0.09110857662372347,-0.15336634681666922]",4.0,"[0.04285693019703093,0.017931567940065635]",100.0,"[0.06893028589100797,-0.11972642099572031]",100.0,"[-0.10698222055662915,-0.09619524253249352]",100.0,"[-0.1126176992061765,0.06198226103807931]",4.0,"[0.19410765604810953,0.0037825811228998536]",4.0,"[-0.04765335263901934,0.04350549476111447]",4.0,"[0.054802070367802665,-0.17361273582581638]",4.0,"[-0.1617771667663875,0.02331752200346923]",4.0,"[-0.1788862280793519,-0.08275742167361581]",4.0,"[-0.1705870804582455,0.07561209598778304]",4.0,"[-0.04402504273146067,-0.07983088136508995]",100.0,"[0.11195863546516784,-0.10364708640969912]",100.0,"[0.005734737751722022,-0.1386753386295697]",100.0,"[-0.1469704162605204,-0.13184921933948116]",100.0,"[-0.05971007835208137,0.00510536875551924]",4.0,"[-0.09675955206553369,0.10594179414048377]",4.0,"[-0.04350053909578827,0.13839754342791977]",100.0,"[-0.07521329599603162,-0.05302907280016973]",4.0,"[-0.009006038097654679,-0.18673454331696737]",4.0,"[-0.12367875186645685,-0.012930693514953174]",100.0,"[0.10849658743713063,0.053263246703339956]",100.0,"[0.005850103327556358,-0.02624786528098216]",4.0,"[0.02,0.02]",310.7663,0.0,47.0,47.0,179.0,1.0,,,,,,,
,,,,,,,66af93dfdf68b39e95f1dd7e,684429d264ef8554049c6fce,2025-06-07_14h04.12.694,shape_ratio,2024.1.5,Win32,60.24096386,684250e4f00cb30b92d1fa88,,,,,,,,,,,310.7666,311.2662,,,311.5197,312.2495,left,,,,,,,,0.45,0.7025,,,,,,,311.2663,311.5196,312.2495,"[0.10638623179062828,-0.05404601229385936]",4.0,"[0.08306670815742367,0.006386338608815616]",4.0,"[-0.10216400837101132,0.13471757431304823]",100.0,"[0.14966913920420305,-0.07125217323726557]",4.0,"[-0.06741360179909049,-0.1691665059812649]",4.0,"[-0.019188155336865294,0.09487927438713684]",100.0,"[0.03723908233086257,0.030250754864572113]",100.0,"[0.002304861098586655,-0.008864960385842488]",4.0,"[-0.09729307142252888,-0.055717821897224]",4.0,"[-0.07114260109894831,-0.11962628663194916]",4.0,"[0.14875411377593367,0.07863460657407537]",100.0,"[-0.0020451118988332566,-0.17114541312211884]",4.0,"[0.027498187872641917,-0.09417403693585197]",100.0,"[-0.11535378508188437,-0.12686170603669414]",4.0,"[0.009411852535871805,-0.13192544796984426]",100.0,"[-0.03908066964821216,0.03554873911179182]",4.0,"[0.02399849688425449,0.07538792169150375]",100.0,"[0.18922864000486866,0.04183287974093065]",100.0,"[-0.10190842784886045,0.04407175996154911]",100.0,"[-0.17608942439158778,-0.02695958500521241]",4.0,"[0.1450305388029209,0.01490885119761982]",100.0,"[0.07915454402805415,-0.11893343897827367]",4.0,"[-0.043653460848026376,-0.02881061661820628]",100.0,"[-0.022553540563602998,0.15345604477264507]",4.0,"[0.10657394540371176,0.08093829458991973]",100.0,"[0.06868157872144555,0.1693533196773219]",4.0,"[-0.05938670731511101,0.10603341303843443]",100.0,"[-0.135561227905743,-0.01732701323762222]",4.0,"[0.03746436337403732,0.1300809654203236]",4.0,"[-0.1508836352260947,-0.0582243551401539]",100.0,"[-0.031975793229195464,-0.13845494982346457]",4.0,"[-0.17056281620322442,0.055598574942918325]",4.0,"[0.02,0.02]",313.3491,0.0,48.0,48.0,130.0,1.0,,,,,,,
,,,,,,,66af93dfdf68b39e95f1dd7e,684429d264ef8554049c6fce,2025-06-07_14h04.12.694,shape_ratio,2024.1.5,Win32,60.24096386,684250e4f00cb30b92d1fa88,,,,,,,,,,,313.3493,313.849,,,314.1023,314.4823,right,,,,,,,,0.55,0.36,,,,,,,313.849,314.1022,314.4823,"[0.042485948913724696,0.028930000020125853]",4.0,"[-0.19167395483314936,0.020758683881659763]",100.0,"[0.08527536006138074,-0.11316393529744426]",100.0,"[0.0385125805694874,0.15721254410517088]",100.0,"[-0.04102432411082028,0.06194644040657648]",100.0,"[-0.09991291772478837,0.15841485047097237]",4.0,"[-0.10512633096071002,0.05008252794520597]",100.0,"[-0.18326328933390598,-0.07821579581169255]",100.0,"[0.10815853580996845,0.03390581123108985]",4.0,"[0.14405615816730508,0.10912483317863042]",4.0,"[-0.07145111611943147,0.09390580106620261]",4.0,"[0.17987428706203504,0.053346826054081996]",4.0,"[-0.020511242490843722,-0.19296333331116944]",100.0,"[0.04473207759717737,-0.045563197846784295]",100.0,"[-0.10114125019006523,-0.07653951470505993]",4.0,"[-0.006224205117684734,-0.02981479496490708]",4.0,"[-0.15383603323676698,-0.024873944825394182]",100.0,"[-0.061812667270296946,-0.13945834752044212]",100.0,"[-0.10290996549980677,-0.010076542748494545]",4.0,"[0.137252945215519,-0.030604795783156644]",4.0,"[-0.06844541368113051,-0.037392835716258586]",100.0,"[0.003491090216406578,-0.11356425495942295]",100.0,"[-0.13350613689332852,-0.11623982094848809]",4.0,"[0.07888396526012587,0.1525233744042882]",100.0,"[0.023105297799470847,-0.18417511577942314]",100.0,"[0.03719105281259517,-0.13766331522107236]",100.0,"[0.08602774163843033,0.08230471276046676]",4.0,"[-0.03782599923055625,0.016665230886423462]",100.0,"[0.18928883139889266,0.001950848542457934]",100.0,"[0.1223339475096115,-0.08794801279783662]",100.0,"[-0.1513022848349486,0.04532190970278094]",4.0,"[-0.15159179872270018,0.10487549472090579]",4.0,"[0.02,0.02]",315.582,0.0,49.0,49.0,70.0,1.0,,,,,,,
