right,left,explain.started,explain.stopped,key_resp_3.keys,key_resp_3.rt,key_resp_3.duration,participant,session,date,expName,psychopyVersion,OS,frameRate,study_id,explain_2.started,explain_2.stopped,key_resp_4.keys,key_resp_4.rt,key_resp_4.duration,explain_3.started,explain_3.stopped,key_resp_5.keys,key_resp_5.rt,key_resp_5.duration,fixation.started,fixation.stopped,practice.started,practice.stopped,response.started,response.stopped,key_resp.keys,key_resp.rt,key_resp.duration,feedback.started,feedback.stopped,trials_2.thisRepN,trials_2.thisTrialN,trials_2.thisN,trials_2.thisIndex,trials_2.ran,dot_ratio,explain_4.started,explain_4.stopped,key_resp_6.keys,key_resp_6.rt,key_resp_6.duration,dotDisplay.started,dotDisplay.stopped,ITI.started,polygon_1.pos,polygon_1.edges,polygon_2.pos,polygon_2.edges,polygon_3.pos,polygon_3.edges,polygon_4.pos,polygon_4.edges,polygon_5.pos,polygon_5.edges,polygon_6.pos,polygon_6.edges,polygon_7.pos,polygon_7.edges,polygon_8.pos,polygon_8.edges,polygon_9.pos,polygon_9.edges,polygon_10.pos,polygon_10.edges,polygon_11.pos,polygon_11.edges,polygon_12.pos,polygon_12.edges,polygon_13.pos,polygon_13.edges,polygon_14.pos,polygon_14.edges,polygon_15.pos,polygon_15.edges,polygon_16.pos,polygon_16.edges,polygon_17.pos,polygon_17.edges,polygon_18.pos,polygon_18.edges,polygon_19.pos,polygon_19.edges,polygon_20.pos,polygon_20.edges,polygon_21.pos,polygon_21.edges,polygon_22.pos,polygon_22.edges,polygon_23.pos,polygon_23.edges,polygon_24.pos,polygon_24.edges,polygon_25.pos,polygon_25.edges,polygon_26.pos,polygon_26.edges,polygon_27.pos,polygon_27.edges,polygon_28.pos,polygon_28.edges,polygon_29.pos,polygon_29.edges,polygon_30.pos,polygon_30.edges,polygon_31.pos,polygon_31.edges,polygon_32.pos,polygon_32.edges,dot_size,ITI.stopped,trials.thisRepN,trials.thisTrialN,trials.thisN,trials.thisIndex,trials.ran,break_2.started,break_2.stopped,trials_3.thisRepN,trials_3.thisTrialN,trials_3.thisN,trials_3.thisIndex,trials_3.ran
subject chose dot,subject chose diamond,0.0003,82.2936,space,67.2809,,66fb12ba2bfd1e0379ced77c,6842baf91828ed44861df872,2025-06-06_05h13.40.685,shape_ratio,2024.1.5,Win32,57.14285714,6842b561977af9ba9b0f87ca,,,,,,,,,,,,,,,,,,,,,,,,,,,,,,,,,,,,,,,,,,,,,,,,,,,,,,,,,,,,,,,,,,,,,,,,,,,,,,,,,,,,,,,,,,,,,,,,,,,,,,,,,,,,,,,,,
,,,,,,,66fb12ba2bfd1e0379ced77c,6842baf91828ed44861df872,2025-06-06_05h13.40.685,shape_ratio,2024.1.5,Win32,57.14285714,6842b561977af9ba9b0f87ca,82.294,187.6804,space,75.3663,,,,,,,,,,,,,,,,,,,,,,,,,,,,,,,,,,,,,,,,,,,,,,,,,,,,,,,,,,,,,,,,,,,,,,,,,,,,,,,,,,,,,,,,,,,,,,,,,,,,,,,,,,,,,
,,,,,,,66fb12ba2bfd1e0379ced77c,6842baf91828ed44861df872,2025-06-06_05h13.40.685,shape_ratio,2024.1.5,Win32,57.14285714,6842b561977af9ba9b0f87ca,,,,,,187.6808,192.4084,space,1.7074,,,,,,,,,,,,,,,,,,,,,,,,,,,,,,,,,,,,,,,,,,,,,,,,,,,,,,,,,,,,,,,,,,,,,,,,,,,,,,,,,,,,,,,,,,,,,,,,,,,,,,,,
,,,,,,,66fb12ba2bfd1e0379ced77c,6842baf91828ed44861df872,2025-06-06_05h13.40.685,shape_ratio,2024.1.5,Win32,57.14285714,6842b561977af9ba9b0f87ca,,,,,,,,,,,192.4378,192.9247,192.9259,193.1767,193.1772,194.2774,right,1.062,,194.2782,195.375,0.0,0.0,0.0,1.0,1.0,0.8,,,,,,,,,,,,,,,,,,,,,,,,,,,,,,,,,,,,,,,,,,,,,,,,,,,,,,,,,,,,,,,,,,,,,,,,,,,,,,,,,,,,,,
,,,,,,,66fb12ba2bfd1e0379ced77c,6842baf91828ed44861df872,2025-06-06_05h13.40.685,shape_ratio,2024.1.5,Win32,57.14285714,6842b561977af9ba9b0f87ca,,,,,,,,,,,195.3758,195.8753,195.8756,196.1304,196.1305,196.7586,right,0.6118,,196.7589,197.8587,0.0,1.0,1.0,0.0,1.0,0.2,,,,,,,,,,,,,,,,,,,,,,,,,,,,,,,,,,,,,,,,,,,,,,,,,,,,,,,,,,,,,,,,,,,,,,,,,,,,,,,,,,,,,,
,,,,,,,66fb12ba2bfd1e0379ced77c,6842baf91828ed44861df872,2025-06-06_05h13.40.685,shape_ratio,2024.1.5,Win32,57.14285714,6842b561977af9ba9b0f87ca,,,,,,,,,,,,,,,,,,,,,,,,,,,,197.8605,200.9749,space,0.09,,,,,,,,,,,,,,,,,,,,,,,,,,,,,,,,,,,,,,,,,,,,,,,,,,,,,,,,,,,,,,,,,,,,,,,,,,,,,,,,,,
,,,,,,,66fb12ba2bfd1e0379ced77c,6842baf91828ed44861df872,2025-06-06_05h13.40.685,shape_ratio,2024.1.5,Win32,57.14285714,6842b561977af9ba9b0f87ca,,,,,,,,,,,200.991,201.4925,,,201.7278,202.6412,left,0.8957,,,,,,,,,0.6,,,,,,201.4929,201.7277,202.642,"[-0.002025549785760045,-0.04658917048882529]",100.0,"[0.016619295595007987,-0.16020790629622994]",100.0,"[-0.04520509662714819,-0.0217949930021695]",100.0,"[0.18273439988027504,0.08046328611642521]",4.0,"[-0.10244296005312965,0.14703631970670142]",4.0,"[0.08156672785352863,-0.08639706143573854]",4.0,"[0.148454087765612,-0.11831430682607165]",100.0,"[0.0619971682591177,-0.022491011323037043]",100.0,"[0.18274792824750602,0.027583654917079037]",100.0,"[-0.10988396783885554,0.033966370279470165]",100.0,"[0.023533136706312022,0.005199966381891802]",4.0,"[0.06364537268507674,0.08872396562647152]",100.0,"[0.10511460656973451,0.10355934807184715]",100.0,"[-0.07394821674674162,-0.09687295824768706]",100.0,"[0.12193655530170247,0.020222770816820487]",4.0,"[0.021040367730905438,0.14444060298861303]",100.0,"[0.1694109815750155,-0.06896582392257156]",4.0,"[-0.04130366971165027,0.08584815966499222]",4.0,"[-0.1719953444463247,0.04673430713526]",100.0,"[-0.12545341243748753,-0.015485765935902928]",4.0,"[0.016432881106538243,-0.08816167767450578]",4.0,"[0.051510011474208736,-0.1925998243379619]",100.0,"[-0.13446371653351805,0.12247072447073411]",4.0,"[-0.19349925159250372,-0.038183064058170554]",100.0,"[0.19143727289018256,-0.017503068818003373]",100.0,"[-0.05584120131682091,-0.1398160125911302]",100.0,"[0.09745990404611754,-0.04145642818833648]",100.0,"[-0.05395511092118623,0.14255123348394794]",4.0,"[-0.12571578670892414,-0.15276702518353769]",4.0,"[-0.005741705415703932,0.052628046953695794]",4.0,"[-0.1857475159671742,0.008273296886527481]",100.0,"[-0.08621804837516493,0.105827286394686]",100.0,"[0.02,0.02]",203.7428,0.0,0.0,0.0,48.0,1.0,,,,,,,
,,,,,,,66fb12ba2bfd1e0379ced77c,6842baf91828ed44861df872,2025-06-06_05h13.40.685,shape_ratio,2024.1.5,Win32,57.14285714,6842b561977af9ba9b0f87ca,,,,,,,,,,,203.7442,204.242,,,204.493,205.1076,right,0.5981,,,,,,,,,0.6,,,,,,204.2422,204.4929,205.1076,"[-0.0500815985095849,0.18524111021471662]",100.0,"[-0.1272893227928994,0.00626925382542527]",100.0,"[-0.04020366916447787,-0.15149897405852905]",100.0,"[-0.1866214384664102,0.05777875078472343]",4.0,"[0.0602392460514257,-0.09630196901010314]",100.0,"[0.11204333405891015,0.0390261877124313]",4.0,"[-0.07545054374038976,-0.08446212120300764]",100.0,"[-0.01625329821311516,-0.09168305505443246]",100.0,"[-0.17574250255287244,-0.03633237185610071]",100.0,"[-0.14751642861801925,-0.07737836640678662]",100.0,"[0.017988389305121595,0.10552206456431816]",4.0,"[0.10556542303068532,-0.04412229299863578]",4.0,"[0.06912290351004409,-0.01724793315826631]",4.0,"[0.015073725061319784,-0.02289064638588172]",4.0,"[0.11029471018114265,0.08372293087629287]",100.0,"[-0.10755633888578728,0.15108536865630462]",4.0,"[0.07255530797235471,-0.1556513682013323]",100.0,"[0.11949163268526855,-0.1387819268784857]",100.0,"[0.10684923227961401,-0.003234269176515533]",100.0,"[0.15004558284052338,0.10939106761088332]",4.0,"[0.19265848783616177,0.006003535826111557]",100.0,"[0.015835666755812567,-0.19207617655897796]",100.0,"[-0.015486320955863327,0.1562035531888843]",100.0,"[0.10793355987351246,0.14429159746428452]",100.0,"[-0.06560811478662687,0.014862880843449666]",4.0,"[-0.08415744948122227,-0.13674327749255558]",100.0,"[-0.081034002348274,0.061780837593164835]",100.0,"[0.16674257649444763,0.043841300250921734]",4.0,"[-0.1364694923649995,0.07878594212234873]",4.0,"[-0.04626512916366473,0.10088248144973971]",4.0,"[0.03907220741995549,0.011178161884089842]",100.0,"[0.056407744401196794,0.14209258955926635]",4.0,"[0.02,0.02]",206.2075,0.0,1.0,1.0,43.0,1.0,,,,,,,
,,,,,,,66fb12ba2bfd1e0379ced77c,6842baf91828ed44861df872,2025-06-06_05h13.40.685,shape_ratio,2024.1.5,Win32,57.14285714,6842b561977af9ba9b0f87ca,,,,,,,,,,,206.2079,206.7077,,,206.958,207.3746,left,0.4066,,,,,,,,,0.1,,,,,,206.7077,206.958,207.3747,"[-0.13448544992183945,0.041151784087082074]",4.0,"[0.15832059024675332,0.08123217040903673]",4.0,"[0.08420374691576274,0.07283886309385659]",4.0,"[0.03386339472329718,-0.15330034773107154]",4.0,"[-0.12347007000975929,0.13876551178520377]",4.0,"[-0.09477577655106975,-0.17111238864702885]",4.0,"[0.12305752427329698,-0.09687891638799252]",4.0,"[-0.1031295949060834,0.07902099506724924]",4.0,"[-0.039293363288236176,0.09183062180010801]",4.0,"[-0.05228427816244094,-0.11054017007514917]",100.0,"[-0.037942687915759526,0.18743788793976432]",4.0,"[0.11710669962754729,0.15593448748180722]",4.0,"[-0.06912286993590867,0.12038157087115664]",100.0,"[0.005223808767721582,-0.004906664665665086]",4.0,"[-0.11267457549186839,-0.08325949094327724]",4.0,"[-0.029480842471932556,-0.14763760811918472]",4.0,"[0.024566692598381297,0.19104715070444592]",4.0,"[-0.0072540670984136725,0.12168352800297391]",4.0,"[-0.06197776952638308,-0.06913487198154844]",4.0,"[0.17071559985266954,0.006128797274179801]",4.0,"[0.008207520614627043,0.0773332834735845]",100.0,"[0.07209647793290341,0.1514702833100964]",4.0,"[-0.07807381482755225,0.047601292765946435]",4.0,"[0.012470754911643614,-0.05349882560275902]",4.0,"[-0.17418810803083967,-0.018760933758308437]",4.0,"[0.009230605878221384,-0.09427184478563555]",4.0,"[0.08771661249127922,-0.0491860986416722]",4.0,"[-0.15473127910048495,-0.06301928441524526]",4.0,"[-0.15272905947311896,0.09935921865683817]",4.0,"[0.0103456784743251,0.03583206435241521]",4.0,"[0.10823709876362031,-0.16069187867441762]",4.0,"[0.15358679535095915,-0.04795084632730338]",4.0,"[0.02,0.02]",208.4758,0.0,2.0,2.0,184.0,1.0,,,,,,,
,,,,,,,66fb12ba2bfd1e0379ced77c,6842baf91828ed44861df872,2025-06-06_05h13.40.685,shape_ratio,2024.1.5,Win32,57.14285714,6842b561977af9ba9b0f87ca,,,,,,,,,,,208.477,208.9754,,,209.2259,209.6587,right,0.4204,,,,,,,,,0.6,,,,,,208.9756,209.2259,209.6588,"[0.1271131364077375,0.030579086689915786]",100.0,"[-0.09250422242801129,-0.12783871706548994]",4.0,"[0.04924596070977729,0.13623289891511303]",100.0,"[0.01154144274121854,-0.17698231171720555]",100.0,"[0.0036424012859699343,0.06388550510918302]",4.0,"[0.17615681303250724,-0.0894343086049462]",100.0,"[-0.047046085865489994,0.07423844949195793]",4.0,"[0.013278230375671019,0.10476528680526255]",4.0,"[-0.15532621249222026,0.008127476989327134]",4.0,"[-0.04041022332498292,-0.022885747942502102]",4.0,"[0.022105903582161402,-0.12566692223215145]",100.0,"[-0.02049749443053526,-0.10003546223266219]",4.0,"[0.12063003079953065,-0.056805546271162896]",100.0,"[-0.1261874922280952,0.11357196489012998]",4.0,"[-0.04331270147479437,-0.1556857771137301]",100.0,"[-0.06527708935940522,0.17236954289050954]",100.0,"[-0.08406565316775609,-0.07310838929254933]",100.0,"[0.04173255666279909,0.024435231252268506]",4.0,"[-0.08271473250586325,0.11532027655093306]",100.0,"[-0.15528473513995608,-0.10731466064803724]",4.0,"[0.0856529425037216,0.016361012005319725]",4.0,"[0.036552483045106325,-0.07416077560439437]",100.0,"[0.1493844860225072,0.11534287285544832]",100.0,"[-0.09260007414665043,0.012733294871620445]",4.0,"[0.08985301734092575,0.14765283134339757]",100.0,"[0.056702694647455136,-0.19027407545315858]",100.0,"[0.05453803420798354,0.08851239889650972]",4.0,"[0.1144841779605019,-0.10168820524419797]",100.0,"[0.16315449207102203,-0.00705746903636278]",100.0,"[-0.010844475466251856,0.13784601059259236]",100.0,"[-0.1192672333776241,-0.051233751937129486]",100.0,"[0.08403528279787816,-0.028216412851419945]",100.0,"[0.02,0.02]",210.7589,0.0,3.0,3.0,45.0,1.0,,,,,,,
,,,,,,,66fb12ba2bfd1e0379ced77c,6842baf91828ed44861df872,2025-06-06_05h13.40.685,shape_ratio,2024.1.5,Win32,57.14285714,6842b561977af9ba9b0f87ca,,,,,,,,,,,210.76,211.2588,,,211.51,212.0924,right,0.5684,,,,,,,,,0.45,,,,,,211.259,211.5099,212.0926,"[-0.09601843894707868,-0.06814916336176423]",100.0,"[0.03519194498167946,-0.11936777989151046]",100.0,"[-0.03116472690981608,-0.13330947413693303]",100.0,"[0.11371914470238523,-0.03581864588493316]",4.0,"[0.1825927670726813,-0.0409945491961494]",4.0,"[-0.17373438575810063,0.08141616731753236]",100.0,"[0.030811379305763702,0.0061396422207376546]",100.0,"[-0.022132799033153766,0.1696475348707867]",100.0,"[-0.05467089787562723,-0.013095530114427082]",100.0,"[0.045026834149091394,-0.17754019570561205]",4.0,"[-0.02229272113002738,0.07502693077342867]",100.0,"[-0.14103057952347878,-0.04745388905974861]",4.0,"[-0.10692677663890873,0.1390917888736545]",100.0,"[-0.09597745347510346,0.058508697228229385]",4.0,"[-0.11485280071037986,0.004455361741125095]",4.0,"[0.07032492092740646,0.11989868553991034]",100.0,"[-0.1760938341700093,-0.07952556623604037]",100.0,"[0.0995082474278499,-0.1448359528922944]",4.0,"[0.013309496683685227,0.14542510325048605]",4.0,"[0.1734633301760311,0.05698593887633888]",4.0,"[-0.1490163076191603,-0.10959917593644279]",4.0,"[0.08328600535970128,0.15950764519724345]",100.0,"[-0.13727519195887927,0.10451686846423798]",4.0,"[0.08944035944177145,0.05694178133359869]",4.0,"[0.1495057919941025,0.10196784299079197]",4.0,"[0.05219912130343202,-0.035394662183054766]",100.0,"[-0.06063269622795352,0.09153443074700608]",4.0,"[0.1265370449778086,0.02025834021432321]",4.0,"[0.08283796352255572,0.009770987533958992]",4.0,"[0.18084835660947918,0.0022191614340692275]",4.0,"[-0.02986783000290264,0.11967779271614142]",100.0,"[0.012395015274073504,0.10011624506220584]",4.0,"[0.02,0.02]",213.1922,0.0,4.0,4.0,127.0,1.0,,,,,,,
,,,,,,,66fb12ba2bfd1e0379ced77c,6842baf91828ed44861df872,2025-06-06_05h13.40.685,shape_ratio,2024.1.5,Win32,57.14285714,6842b561977af9ba9b0f87ca,,,,,,,,,,,213.1934,213.6923,,,213.9443,214.3261,left,0.3669,,,,,,,,,0.1,,,,,,213.6924,213.9441,214.3264,"[0.019519407382098876,-0.09263191813332461]",4.0,"[-0.021161209033041185,-0.1786939863170496]",100.0,"[-0.1827488206203983,0.00031290197149702245]",4.0,"[0.10592338882728064,-0.10459066530050566]",4.0,"[-0.0738166842090189,-0.05928397511939077]",4.0,"[0.11638265691393622,0.05936904122215086]",4.0,"[-0.07495082550614947,0.005777727422376881]",4.0,"[-0.09971673300235794,0.0519373518405906]",4.0,"[0.004811492333348636,0.050371230655940714]",4.0,"[0.028963800012434284,-0.04456238865370191]",4.0,"[-0.16462896080225625,0.04180222474656909]",4.0,"[-0.1481975474888296,-0.03913064549808265]",4.0,"[-0.041288490219910726,0.10809355159351954]",4.0,"[-0.12476644843465638,-0.097618307948601]",4.0,"[-0.048274595177882386,-0.1102319711036863]",4.0,"[-0.09994303894501926,-0.1446361866260084]",4.0,"[0.13923955654840986,-0.03829301183112815]",4.0,"[0.1294486382607786,0.09820086871363659]",4.0,"[0.0076819024593478055,0.1832616880855627]",4.0,"[0.1955123439391291,0.02198132714533208]",4.0,"[0.07332690665294178,0.12925077539351637]",4.0,"[0.1505515999662911,0.02287486400926949]",4.0,"[0.03879985120113321,0.15652643690912585]",4.0,"[-0.05153320378771544,0.06538711814871781]",4.0,"[-0.004774962288878966,0.010544818920419417]",4.0,"[-0.177341689322626,0.09225800023374016]",100.0,"[0.1870467299664759,0.06497891343257092]",4.0,"[0.045003331103045066,-0.17075898378590884]",4.0,"[0.0011605491176563533,0.09437869486857288]",4.0,"[0.04619299602337369,-0.12444538411513557]",4.0,"[0.08424155355397467,-0.04647259638636519]",100.0,"[0.17359676670570218,-0.071615480281719]",4.0,"[0.02,0.02]",215.4256,0.0,5.0,5.0,205.0,1.0,,,,,,,
,,,,,,,66fb12ba2bfd1e0379ced77c,6842baf91828ed44861df872,2025-06-06_05h13.40.685,shape_ratio,2024.1.5,Win32,57.14285714,6842b561977af9ba9b0f87ca,,,,,,,,,,,215.4268,215.925,,,216.1775,216.5925,right,0.4005,,,,,,,,,0.9,,,,,,215.925,216.1774,216.5927,"[0.01755271869204754,-0.0698289729702374]",100.0,"[-0.08295345314828109,-0.11326214938525626]",100.0,"[0.10348635851266641,-0.1711420787936155]",100.0,"[0.1252492781607159,0.14136150207166162]",100.0,"[0.12821969352261464,-0.06832862692809884]",4.0,"[0.07641891789061099,0.012130183689436032]",100.0,"[0.0930839089134742,-0.1178754507859134]",100.0,"[-0.0980844326621816,0.12430829559835807]",100.0,"[-0.16856606434145355,0.025315009599314257]",100.0,"[-0.01898907826813175,0.05658093332967684]",100.0,"[-0.07434719301223255,0.06585153096179448]",100.0,"[-0.1534148893596404,-0.04113387066291715]",4.0,"[-0.07664610720819427,-0.17704859195419914]",100.0,"[-0.17675150868293543,-0.08269741149724777]",100.0,"[-0.15130967256493824,-0.11759706974434377]",100.0,"[0.0012340407869655533,0.17961439396613396]",4.0,"[-0.11648212406550715,-0.061888484548192686]",100.0,"[-0.03738299271749975,0.19005634405545532]",100.0,"[-0.1407378555667665,0.08353303357966572]",100.0,"[0.1311339079539212,0.009369595701092998]",100.0,"[0.1377457581635887,0.05140931217694744]",100.0,"[0.1848572792731304,-0.013019965750480056]",100.0,"[-0.06435533542864451,-0.045096730250492725]",100.0,"[-0.09686527043037875,0.014769490571244253]",100.0,"[-0.021397516810161745,-0.18032438896410538]",100.0,"[0.037879733750054816,0.15822360163946175]",100.0,"[0.05531600293038781,0.08294702615905544]",100.0,"[-0.1267405070565583,0.04148823775003856]",100.0,"[0.05187783380734584,-0.10691372272601098]",100.0,"[0.13560429747800404,-0.1314979888945256]",100.0,"[0.08403370166376846,0.1723416860137426]",100.0,"[-0.02981179129799924,0.11706911860679786]",100.0,"[0.02,0.02]",217.6926,0.0,6.0,6.0,20.0,1.0,,,,,,,
,,,,,,,66fb12ba2bfd1e0379ced77c,6842baf91828ed44861df872,2025-06-06_05h13.40.685,shape_ratio,2024.1.5,Win32,57.14285714,6842b561977af9ba9b0f87ca,,,,,,,,,,,217.6941,218.1924,,,218.4436,218.8444,right,0.3925,,,,,,,,,0.9,,,,,,218.1925,218.4435,218.8445,"[0.19243404520631832,-0.03961228072862966]",100.0,"[-0.16774045356039438,-0.04740688376132254]",100.0,"[0.03773706071409197,-0.04266292630383699]",100.0,"[0.03719464886350685,-0.16422234426356858]",100.0,"[0.14755440220522895,0.07339987038421009]",100.0,"[0.12290805972103828,-0.12296053622655997]",100.0,"[-0.15703963512021235,0.11191995601916709]",100.0,"[-0.03266458308320187,0.14488084155917394]",4.0,"[0.03390918768168526,0.1165472243306928]",100.0,"[-0.16843647666627187,0.06783613011607538]",100.0,"[-0.10157712833511935,0.0072249502887679045]",100.0,"[0.05225261823900152,0.050766230122942096]",100.0,"[-0.049846945518182376,0.03984496355154093]",100.0,"[-0.09802226462784523,-0.14261635799472827]",100.0,"[-0.013161594052570629,0.18066982026630327]",100.0,"[0.001191486403350164,-0.10011256785969466]",100.0,"[-0.04591832801426646,-0.1944948343424115]",100.0,"[-0.01034474071085782,0.10560866760735761]",100.0,"[-0.057022515084280995,-0.008521377489423224]",100.0,"[-0.0037900560290441048,0.03865934965885223]",100.0,"[-0.031214726613422998,-0.13120687393100228]",100.0,"[-0.08060806979216527,0.13346658807249714]",100.0,"[-0.1909230764523092,-0.006802255607492655]",100.0,"[0.13539661500606467,-0.020200934405252374]",100.0,"[0.004055721040003892,-0.019339665978546427]",100.0,"[-0.07725184041121946,-0.04757904507587118]",100.0,"[0.11193305621291882,-0.061051645713459876]",4.0,"[0.08484618898452131,0.17413670847839807]",100.0,"[-0.0310000310661728,-0.05817928929850606]",100.0,"[0.11160922165596686,0.1440693033654987]",4.0,"[-0.12151635561426986,0.15251010494762354]",100.0,"[-0.1265524402719511,0.03978671943078386]",100.0,"[0.02,0.02]",219.9415,0.0,7.0,7.0,18.0,1.0,,,,,,,
,,,,,,,66fb12ba2bfd1e0379ced77c,6842baf91828ed44861df872,2025-06-06_05h13.40.685,shape_ratio,2024.1.5,Win32,57.14285714,6842b561977af9ba9b0f87ca,,,,,,,,,,,219.9419,220.4413,,,220.6916,221.2747,right,0.5762,,,,,,,,,0.45,,,,,,220.4413,220.6915,221.2747,"[-0.08906408569550242,-0.05505822341984488]",4.0,"[0.11509518324787481,0.01897611890072666]",100.0,"[-0.02078245768806658,-0.04436078361460371]",100.0,"[0.05395791655705029,-0.12253334235233203]",100.0,"[-0.07473862592410574,0.13569291175131076]",4.0,"[-0.10336723704310101,-0.14125525180232448]",100.0,"[-0.03742696546961274,0.10523284361528626]",100.0,"[0.10540377296666473,-0.09801094548115415]",4.0,"[0.0775277165370972,-0.18393151311674866]",4.0,"[-0.14059183024012722,0.14042422091453083]",100.0,"[-0.1594002624258419,0.0624795998222832]",100.0,"[0.19626250991706004,0.01491779574220335]",4.0,"[-0.10299682094232124,0.04163866268089243]",4.0,"[-0.15796837429330993,0.0200512897270188]",4.0,"[0.12682479008188283,0.09292981907221316]",4.0,"[-0.11684889843025206,0.09819524047160061]",4.0,"[0.024024727809999244,0.031273565639012506]",4.0,"[0.018159327481329143,0.08781290491503402]",100.0,"[0.012986615179318702,-0.10758987634899643]",100.0,"[0.029657292593291994,-0.03504565709646908]",4.0,"[0.05755445936773762,0.1654055708509524]",100.0,"[0.07025669543458751,0.0008626706710684966]",4.0,"[-0.042220928507254236,0.1873704997994314]",4.0,"[0.083312134801382,0.0700771283345487]",4.0,"[-0.1832804470025275,-0.05548367903404497]",100.0,"[0.15137119839907692,-0.030833739552828553]",4.0,"[0.1554042027107223,0.014530705806089032]",4.0,"[0.09664133406229894,-0.054658018887985854]",100.0,"[-0.026002326660276704,-0.1967841093465738]",4.0,"[0.11749641486969482,-0.14004186785897466]",100.0,"[-0.020599244434117665,-0.0003652594503259006]",4.0,"[-0.13775319059848307,-0.0411872740067923]",100.0,"[0.02,0.02]",222.3746,0.0,8.0,8.0,124.0,1.0,,,,,,,
,,,,,,,66fb12ba2bfd1e0379ced77c,6842baf91828ed44861df872,2025-06-06_05h13.40.685,shape_ratio,2024.1.5,Win32,57.14285714,6842b561977af9ba9b0f87ca,,,,,,,,,,,222.375,222.8746,,,223.1252,223.5414,right,0.4067,,,,,,,,,0.4,,,,,,222.8746,223.1252,223.5414,"[0.07443165794341175,-0.13798857881646126]",100.0,"[-0.08851964697491926,0.12442018726606789]",4.0,"[-0.026123659810043564,0.07446465819214602]",4.0,"[-0.09083158733500551,-0.07325881069804478]",4.0,"[-0.04158271061329477,-0.1288849894680822]",4.0,"[-0.0166145050163786,-0.07176520997903871]",100.0,"[0.04075539640696431,-0.1597749484742933]",100.0,"[-0.03979501980730813,-0.1833201460106429]",100.0,"[0.0871728611185376,0.11229274405980572]",4.0,"[-0.1359909979923338,-0.014728454804367507]",4.0,"[0.014549965786593403,0.08899337380619078]",100.0,"[0.12763614858565117,-0.08158088808105197]",100.0,"[0.029430505712464625,0.039256577171118495]",100.0,"[0.1646171230904659,0.11357199681315239]",4.0,"[0.07987838725359932,-0.05542485238090268]",4.0,"[-0.005717316140685459,0.15293028303352973]",100.0,"[-0.042129179080674754,-0.009448748675009895]",4.0,"[0.16973253472136396,0.02764200942975526]",4.0,"[0.10173386227411509,0.16970727932788937]",100.0,"[-0.06423711524523833,0.09117803136576505]",4.0,"[-0.12217916507636159,0.08534516152447044]",100.0,"[-0.09440409762587502,0.0499965413645487]",4.0,"[-0.12115793462703639,-0.10365742197342166]",100.0,"[0.030768752350068606,-0.01600472008537398]",100.0,"[-0.09539997172880985,0.16383100382525806]",4.0,"[0.11316277031004914,-0.006083436616066463]",4.0,"[0.0589128865040771,0.0824398501503213]",4.0,"[0.18346117716257043,0.06994443327124131]",4.0,"[-0.1769332624553862,0.04685309604105653]",100.0,"[0.1817048239992506,-0.04884521354659635]",4.0,"[-0.00028528075743075256,0.19723382438149137]",4.0,"[-0.07930606970287457,0.008553171584015435]",4.0,"[0.02,0.02]",224.6413,0.0,9.0,9.0,151.0,1.0,,,,,,,
,,,,,,,66fb12ba2bfd1e0379ced77c,6842baf91828ed44861df872,2025-06-06_05h13.40.685,shape_ratio,2024.1.5,Win32,57.14285714,6842b561977af9ba9b0f87ca,,,,,,,,,,,224.6416,225.1421,,,225.3926,225.8425,left,0.4428,,,,,,,,,0.4,,,,,,225.1421,225.3926,225.8426,"[0.11656427321257001,0.06620949537637562]",100.0,"[-0.07261481636797998,0.08842708751215766]",100.0,"[-0.08816015549558572,-0.12977121917190276]",100.0,"[-0.1407746788755485,0.07816983292169229]",4.0,"[-0.03845463079446581,-0.046480101797325306]",100.0,"[-0.04613962014047131,-0.1404312546080165]",100.0,"[0.05153948935390751,-0.03847283815603734]",100.0,"[-0.08036289243066941,-0.031227314046053625]",4.0,"[0.12430702860613896,0.022918314458286754]",4.0,"[0.1797673289473036,0.02650894514487499]",4.0,"[0.01333694062379226,-0.055424332972276794]",4.0,"[-0.007469642328778419,-0.001518683693403331]",4.0,"[-0.0581778739203354,0.16867307484311164]",4.0,"[0.05171889127408008,0.04837028268799587]",4.0,"[0.1612819349821013,0.11188413429049314]",100.0,"[-0.04126095276606352,0.12402657993659336]",4.0,"[0.15745056486680206,-0.05216865649021598]",4.0,"[-0.19324874528834982,0.0012143795692463343]",100.0,"[-0.030657194687007415,-0.19460179200802413]",100.0,"[-0.12058829649816348,-0.05956684215551595]",100.0,"[-0.13032476136470028,-0.12984273323350018]",4.0,"[0.11533273127257783,0.14081177665591318]",4.0,"[0.10772734316765448,-0.019750210645160752]",100.0,"[-0.013977365084561212,-0.09715254245170782]",4.0,"[0.09269982262078648,-0.17122162274908434]",100.0,"[0.05969970430427625,0.1195515144035646]",4.0,"[0.0038074520258590074,0.19938548174214907]",4.0,"[-0.052019971976684586,0.03189827885619018]",4.0,"[0.036909116567663415,0.01068668635393763]",4.0,"[-0.1384266141653358,0.14354506316224275]",4.0,"[0.05769592143823146,-0.09269471145804377]",4.0,"[0.07061893765490108,0.18160836537539202]",100.0,"[0.02,0.02]",226.9424,0.0,10.0,10.0,161.0,1.0,,,,,,,
,,,,,,,66fb12ba2bfd1e0379ced77c,6842baf91828ed44861df872,2025-06-06_05h13.40.685,shape_ratio,2024.1.5,Win32,57.14285714,6842b561977af9ba9b0f87ca,,,,,,,,,,,226.9438,227.4424,,,227.6923,228.0083,right,0.3069,,,,,,,,,0.9,,,,,,227.4426,227.6922,228.0084,"[-0.15458682963563458,-0.11524607948730593]",100.0,"[0.13690853622353163,0.10486408276786585]",100.0,"[-0.008385810496126331,-0.15867161034874477]",100.0,"[-0.060893366216990284,0.0539185844881639]",100.0,"[0.13854473167533435,0.033963354295679433]",100.0,"[-0.08323668226290136,0.11749839460738737]",100.0,"[0.17546489082615285,-0.006322681268908409]",100.0,"[0.07601785993350907,-0.056677723530120586]",100.0,"[-0.056641061085592,-0.10385677136827957]",100.0,"[0.10044309142498035,-0.12991086903035984]",100.0,"[-0.11511722748548736,-0.12880759374058698]",100.0,"[-0.07268212375928847,0.17167220749430645]",4.0,"[0.05005991371490631,-0.13931431249208198]",100.0,"[-0.12049154821457772,0.008900427967590814]",100.0,"[0.12983003372878688,-0.01989416544452408]",100.0,"[-0.1695374601600452,0.039972955556534094]",4.0,"[0.08174494141815614,0.13823913494501597]",100.0,"[-0.007659754494164234,-0.003194556424125056]",100.0,"[0.028316453164939824,0.16953626578387201]",100.0,"[0.04595562347641334,-0.005932436607806573]",100.0,"[0.08678290630986049,-0.1693603274214591]",100.0,"[0.16736565782259907,-0.07573029253322575]",100.0,"[-0.0715145446856605,-0.16599909653413797]",100.0,"[-0.02231268166092806,0.1586183265003217]",100.0,"[0.02441941882159771,0.05167432756010599]",100.0,"[-0.033455230585797545,0.10913917880538192]",100.0,"[0.061296037555662417,0.09641747919646294]",100.0,"[-0.09938427785777873,-0.03478527825365744]",100.0,"[-0.11463685056171723,0.07735567300845146]",100.0,"[-0.005207275509819789,-0.08723961614514926]",100.0,"[0.010321226492705756,0.10090310859945216]",100.0,"[0.1489563545459815,-0.12742205905798798]",4.0,"[0.02,0.02]",229.109,0.0,11.0,11.0,7.0,1.0,,,,,,,
,,,,,,,66fb12ba2bfd1e0379ced77c,6842baf91828ed44861df872,2025-06-06_05h13.40.685,shape_ratio,2024.1.5,Win32,57.14285714,6842b561977af9ba9b0f87ca,,,,,,,,,,,229.1103,229.6093,,,229.8637,230.2934,right,0.4085,,,,,,,,,0.55,,,,,,229.6093,229.8636,230.2935,"[-0.04206909362411604,0.12974378050589336]",4.0,"[0.16444654419195048,0.08272550223759415]",100.0,"[-0.0799295431619152,-0.16176749590829465]",4.0,"[-0.012072327885842945,-0.18452299652106782]",100.0,"[-0.03978814937087617,0.17981813775271058]",100.0,"[0.09081948031899208,-0.0018404311175880636]",100.0,"[0.13068559159165988,0.15024558227313722]",4.0,"[0.13968588663006162,-0.033853462827901665]",4.0,"[0.015124978702972143,0.19149263353269022]",100.0,"[-0.034138831505169547,-0.10169102796980149]",100.0,"[-0.11988670120742541,-0.03844405934764957]",100.0,"[0.05119230820184171,0.07476576845007527]",4.0,"[0.046281564863688195,-0.024421050263496103]",100.0,"[-0.07137543268039166,-0.059955238805340566]",100.0,"[0.0665548259397178,-0.09221899724266222]",100.0,"[0.02306073123697147,0.13886122938553505]",100.0,"[-0.022695720542634183,0.04133184023693948]",100.0,"[0.031931386535036535,-0.17789526203890546]",4.0,"[-0.12910490348043635,-0.0905053351722867]",4.0,"[-0.16886223824936084,-0.09711000954593418]",4.0,"[-0.11783345115683144,0.08537465620117754]",100.0,"[-0.18897925503058619,-0.02242148842091713]",100.0,"[0.07567950185384086,-0.14089875418913772]",4.0,"[-0.08080700835957236,0.1619002083766937]",100.0,"[-0.16483267650091082,0.022454160115621555]",4.0,"[0.07536940156175238,0.11991187191927122]",4.0,"[-0.02837001404684177,-0.04384942210080175]",100.0,"[-0.07722039016802285,0.10475000764869026]",100.0,"[-0.09074513678888078,0.03616694318097752]",100.0,"[0.12110189875972066,-0.12073861032283349]",4.0,"[-0.12834570040829557,0.1486967428311769]",4.0,"[0.10305867605702154,0.0676855701779424]",4.0,"[0.02,0.02]",231.393,0.0,12.0,12.0,67.0,1.0,,,,,,,
,,,,,,,66fb12ba2bfd1e0379ced77c,6842baf91828ed44861df872,2025-06-06_05h13.40.685,shape_ratio,2024.1.5,Win32,57.14285714,6842b561977af9ba9b0f87ca,,,,,,,,,,,231.3943,231.8931,,,232.1444,232.5254,right,0.3643,,,,,,,,,0.4,,,,,,231.8932,232.1443,232.5254,"[0.06923456015883371,-0.16571309524716757]",100.0,"[-0.05932298207252,-0.1433574190000403]",4.0,"[0.02521929610525009,0.14175010915438124]",4.0,"[-0.1792712758011485,0.06034817816064827]",4.0,"[0.13182761690076036,0.11419069400688502]",100.0,"[-0.1022222564407064,0.14590023875905195]",4.0,"[0.055782125200517244,0.10008737006969726]",100.0,"[0.08291698428804256,0.040200813576519924]",4.0,"[-0.07558480212579456,-0.023027212188952102]",4.0,"[0.027949192260228028,-0.16022230977718183]",4.0,"[-0.0026441272934272,0.19760597268397684]",4.0,"[0.08337852958651043,-0.11302210125228204]",100.0,"[0.10338879140058323,0.07768492499490616]",4.0,"[0.01882103403626697,0.001309753567542421]",4.0,"[0.09150701123697086,-0.045425055838260564]",100.0,"[-0.02880617801567576,0.046821865508439205]",100.0,"[0.04189691355678607,-0.03439936939820221]",100.0,"[0.18731387605214225,-0.024132448885934694]",4.0,"[0.14730594009343118,-0.0437477920262824]",4.0,"[-0.05676103311009926,0.11058091260381502]",100.0,"[-0.1232529613202762,0.10279325052702043]",4.0,"[-0.12330839780421782,-0.07946569033930521]",100.0,"[-0.012543950021160382,-0.0485120519745709]",100.0,"[0.11049804540044136,-0.0099311517390293]",4.0,"[0.036183922292988425,-0.10852200886516644]",4.0,"[-0.08700744416914141,0.030412980477433512]",4.0,"[0.16197535792421072,0.028017448576614555]",100.0,"[-0.15881413350689727,-0.00010148618901361339]",4.0,"[0.09712118531942031,0.1381384256396813]",4.0,"[-0.1078014151653021,0.0653262566702451]",100.0,"[-0.1190704503249109,-0.13839029363363817]",100.0,"[0.07873649592351281,0.18283220961047272]",4.0,"[0.02,0.02]",233.6249,0.0,13.0,13.0,157.0,1.0,,,,,,,
,,,,,,,66fb12ba2bfd1e0379ced77c,6842baf91828ed44861df872,2025-06-06_05h13.40.685,shape_ratio,2024.1.5,Win32,57.14285714,6842b561977af9ba9b0f87ca,,,,,,,,,,,233.6253,234.1249,,,234.3752,234.7083,left,0.3256,,,,,,,,,0.4,,,,,,234.125,234.3752,234.7084,"[0.16048722618528613,-0.05075514982657366]",4.0,"[-0.007809675584759892,-0.13983588144855066]",100.0,"[-0.0800505384449926,-0.03475090042297669]",4.0,"[-0.040516573612111466,0.03518399783056673]",100.0,"[0.15333056897788197,0.054767713764995424]",100.0,"[-0.1407402824543927,0.05854707464303831]",100.0,"[0.018911408490430288,-0.08529100765577212]",4.0,"[0.08421628743948673,0.0012105031624579262]",4.0,"[0.08864929074534332,0.051937961760536354]",100.0,"[0.07621970045427881,-0.05362261628217819]",100.0,"[-0.04538371541807106,-0.0702245547829209]",4.0,"[-0.010972818662984824,0.17535087387250753]",4.0,"[0.05856065351191844,-0.17658650937552425]",4.0,"[-0.061263753005167065,0.12372078321421247]",4.0,"[0.15494439762021242,-0.12378047517229804]",100.0,"[0.053974825397486506,0.18269872767937625]",4.0,"[0.09048406884745769,0.15442085509327869]",4.0,"[-0.18459320480545496,-0.0002577829775087041]",4.0,"[-0.0823997464513718,0.16679723829755336]",4.0,"[0.08663013563571613,0.10098637183796484]",100.0,"[0.03006571258366099,0.04514702465953213]",4.0,"[-0.1431308875418023,0.10682571171898]",4.0,"[-0.044972151740059044,-0.18403003873645032]",4.0,"[-0.0129028291432959,-0.02144386788716427]",100.0,"[-0.10327683068546908,-0.11787400412031124]",100.0,"[-0.18249542471580768,-0.07406430256988965]",4.0,"[0.0091591454823494,0.13165844315479827]",100.0,"[0.08491624546095004,-0.14342394825868635]",4.0,"[0.11280518714431163,-0.08175561058564967]",100.0,"[-0.09883649543221994,-0.07717262375291291]",4.0,"[-0.09819436158543063,-0.16898389740379433]",100.0,"[-0.039485117482778824,0.07949509523036961]",4.0,"[0.02,0.02]",235.8084,0.0,14.0,14.0,179.0,1.0,,,,,,,
,,,,,,,66fb12ba2bfd1e0379ced77c,6842baf91828ed44861df872,2025-06-06_05h13.40.685,shape_ratio,2024.1.5,Win32,57.14285714,6842b561977af9ba9b0f87ca,,,,,,,,,,,235.8086,236.3083,,,236.5586,236.8251,right,0.2553,,,,,,,,,0.9,,,,,,236.3084,236.5585,236.8251,"[0.03414487666523678,0.1283900711408091]",100.0,"[-0.16432831932704775,0.03463827067624273]",100.0,"[-0.07786062640332989,0.14342252081076445]",100.0,"[-0.050401893619465614,-0.18656354984085788]",100.0,"[0.05258128723226379,-0.16970624486612182]",100.0,"[0.17304796670489547,-0.01741248764383074]",100.0,"[-0.14790869374928453,-0.03813130151579225]",100.0,"[0.14454688517724076,0.019304435183027605]",100.0,"[-0.0341383489307829,0.1333394486910248]",100.0,"[-0.07260885647309376,0.058627140105257707]",4.0,"[-0.010025691366947392,0.016865121068788735]",100.0,"[-0.024446534040137545,-0.1104457064980774]",4.0,"[0.04968817824496759,-0.04462714131648665]",100.0,"[-0.09892577788687713,-0.031184995017457348]",100.0,"[0.15869605044352353,-0.11116468995515646]",100.0,"[-0.10939749654012915,0.009444631617968319]",100.0,"[0.09460280934319394,0.09720165316975979]",100.0,"[0.18205062756723156,0.08165195883792666]",100.0,"[-0.1400138542927767,-0.0963432969362572]",100.0,"[0.0806384695590429,-0.13522604303047245]",4.0,"[0.1189975839895512,-0.0691074731423344]",100.0,"[-0.10679912409038729,-0.1487676680045321]",100.0,"[0.05279928929188468,-0.09923469101369257]",100.0,"[0.013768893099072092,-0.07782676660255067]",100.0,"[-0.013637794366062913,-0.032665110432547655]",100.0,"[-0.01945602738465727,0.07937491992014754]",100.0,"[0.17395669769883113,-0.07242905463412003]",100.0,"[-0.15157270871954645,0.1141391284013713]",100.0,"[0.05768193551833597,0.03670496972819419]",100.0,"[0.09808355532343482,-0.010397603727511617]",100.0,"[0.13960075320704532,0.06836226619422772]",100.0,"[0.11923283147218934,0.1522388572325927]",100.0,"[0.02,0.02]",237.9256,0.0,15.0,15.0,16.0,1.0,,,,,,,
,,,,,,,66fb12ba2bfd1e0379ced77c,6842baf91828ed44861df872,2025-06-06_05h13.40.685,shape_ratio,2024.1.5,Win32,57.14285714,6842b561977af9ba9b0f87ca,,,,,,,,,,,237.9265,238.426,,,238.6766,239.2755,left,0.5881,,,,,,,,,0.4,,,,,,238.4261,238.6766,239.2755,"[-0.1470291379692322,0.003501840257025797]",100.0,"[0.17622041979455152,0.0005594778505774424]",4.0,"[0.11805709305365153,0.14556744804339894]",4.0,"[-0.02374578215709748,-0.11238968202547242]",100.0,"[0.044217676077143525,0.09385236147684424]",4.0,"[0.02544535209480522,0.1507470783534102]",4.0,"[0.0640476017296294,-0.05980472673656109]",100.0,"[0.08108229223221568,0.060644734990035976]",4.0,"[0.10850042171105066,0.015904278630376308]",100.0,"[-0.11776484547073103,-0.13337332270304836]",4.0,"[-0.12562062234758795,0.04312968332040651]",4.0,"[0.02519690524992587,-0.1376124541161637]",4.0,"[0.07768144034852098,-0.13744202951124168]",4.0,"[0.11120322933174877,-0.16461477241331557]",100.0,"[-0.13929901427242677,0.1403819541747041]",100.0,"[-0.12670096690551835,-0.04126767610812491]",100.0,"[0.03204449286361284,0.03835361379214098]",4.0,"[0.0019003043669395332,-0.05813844554457638]",4.0,"[-0.01684194475553151,0.0495691810681948]",4.0,"[-0.16672403452844772,0.06932491013670704]",100.0,"[0.050166657693872366,-0.17015161446010674]",4.0,"[-0.1824133995820858,-0.05497163834973753]",100.0,"[0.11203596863760144,0.09797984767168927]",4.0,"[0.15273108399081436,0.10582642035997125]",4.0,"[0.12418582998921396,-0.12461584736770355]",4.0,"[0.14871089977743493,-0.030498553679813516]",100.0,"[-0.03539769929814051,0.16876283149735213]",100.0,"[-0.08390073419158256,-0.0622827900789371]",4.0,"[-0.030107932360924204,0.1217092806804801]",4.0,"[-0.03313674221837583,-0.18256594444596516]",100.0,"[-0.07801880102150434,0.1612674525293864]",4.0,"[-0.08837846203311775,0.09024630233157836]",100.0,"[0.02,0.02]",240.3753,0.0,16.0,16.0,173.0,1.0,,,,,,,
,,,,,,,66fb12ba2bfd1e0379ced77c,6842baf91828ed44861df872,2025-06-06_05h13.40.685,shape_ratio,2024.1.5,Win32,57.14285714,6842b561977af9ba9b0f87ca,,,,,,,,,,,240.3757,240.8764,,,241.1267,241.4768,right,0.3398,,,,,,,,,0.55,,,,,,240.8765,241.1266,241.4769,"[-0.12007885920008728,0.04593382291326555]",100.0,"[0.0057336116580806035,-0.12516857693419386]",100.0,"[0.10524408191139216,-0.03602707873110489]",100.0,"[-0.016653803113376178,-0.06364503313776712]",100.0,"[-0.11203579699838019,-0.01671098540394256]",4.0,"[-0.1316475505219064,0.08615091062542857]",100.0,"[0.10875927717407377,-0.1115961072069928]",100.0,"[0.013731067362751545,0.06979564076313262]",100.0,"[-0.16350969571378715,-0.004708116940594197]",4.0,"[-0.12853188502950944,-0.12330586338568882]",4.0,"[0.11377158359600997,0.14523865149439252]",4.0,"[0.031854718432052495,-0.08117666450858162]",4.0,"[0.02701802840184347,0.16863685851036375]",100.0,"[0.16330027056286908,0.05099931204225716]",100.0,"[-0.009732566241483364,-0.17209556513810756]",100.0,"[-0.057675442441327364,0.16119151384576835]",100.0,"[-0.09978911457180092,-0.08270311777196013]",4.0,"[-0.08179901514212964,0.10611932377087203]",4.0,"[0.13191558192477862,0.07789949736803832]",100.0,"[0.04364338188123491,0.12770252401833293]",4.0,"[0.08999508791633125,0.05165066257159357]",4.0,"[-0.06988381248435435,0.015032572528166848]",100.0,"[0.19445066267465044,0.016880839555501417]",100.0,"[0.13104780706025043,0.004141472926331501]",4.0,"[-0.08405781863611804,0.0644610144084938]",100.0,"[-0.05441322200450822,-0.17840756844579664]",100.0,"[0.030516804665331625,-0.017072724452681143]",4.0,"[0.1866036101310741,-0.04769955875331503]",4.0,"[-0.035308676790066974,0.0601475675162985]",100.0,"[-0.021947575197790472,0.1282886236159646]",100.0,"[-0.03035094496629716,-0.019930479646786646]",4.0,"[-0.15974719863870493,-0.04555171722656022]",4.0,"[0.02,0.02]",242.576,0.0,17.0,17.0,75.0,1.0,,,,,,,
,,,,,,,66fb12ba2bfd1e0379ced77c,6842baf91828ed44861df872,2025-06-06_05h13.40.685,shape_ratio,2024.1.5,Win32,57.14285714,6842b561977af9ba9b0f87ca,,,,,,,,,,,242.577,243.0752,,,243.3277,243.628,left,0.2919,,,,,,,,,0.6,,,,,,243.0753,243.3276,243.6284,"[0.09492087472424607,-0.04852626647402434]",100.0,"[0.05108070117543337,-0.006492793528291247]",100.0,"[-0.047489320110719005,-0.057511680864782186]",4.0,"[-0.0012296991431634018,-0.13063068147304097]",100.0,"[-0.052316706200438885,-0.10700732587104893]",100.0,"[0.07196809578960724,0.1398147310554724]",4.0,"[0.1490483353127797,-0.07506906624587698]",100.0,"[-0.03115846359693023,0.06583659349582366]",100.0,"[-0.10632274961135989,-0.08390285682968791]",100.0,"[0.1563350038252807,0.019097492293333556]",4.0,"[-0.005912769988088779,0.023667267716617153]",4.0,"[-0.07090038806249319,0.031077436370520545]",4.0,"[-0.08985135597712433,0.08053506623132822]",100.0,"[0.11044034807859769,-0.08845303884031194]",100.0,"[-0.09241090602805235,0.1671922925140979]",4.0,"[-0.09067124298959951,-0.131210083824296]",4.0,"[0.009768716159871698,0.15719834469467428]",4.0,"[-0.0023645233027020747,-0.033390236462221085]",100.0,"[-0.03400435036581656,0.1949255497758151]",4.0,"[-0.025698470342023064,-0.17969996031221883]",100.0,"[-0.026093758328169018,0.13845426058803242]",100.0,"[0.09594301298408735,0.17459842903738573]",4.0,"[-0.16242756328723798,0.04204821318663589]",100.0,"[-0.14341238261589534,0.10189459621876513]",100.0,"[0.17605206086278516,-0.02356160263554583]",100.0,"[0.11899707476990658,-0.13067515684116204]",100.0,"[-0.07278674905344618,-0.17515713283295328]",100.0,"[-0.12130771942101329,0.052145149908403916]",4.0,"[-0.16820521871197536,-0.0036402649885944128]",100.0,"[0.0770398180966908,0.040768139171646844]",4.0,"[0.14384784059559666,0.10781306115156145]",100.0,"[-0.12486826528133659,0.0031575874001224247]",4.0,"[0.02,0.02]",244.7262,0.0,18.0,18.0,31.0,1.0,,,,,,,
,,,,,,,66fb12ba2bfd1e0379ced77c,6842baf91828ed44861df872,2025-06-06_05h13.40.685,shape_ratio,2024.1.5,Win32,57.14285714,6842b561977af9ba9b0f87ca,,,,,,,,,,,244.7272,245.2267,,,245.4763,245.7618,right,0.2786,,,,,,,,,0.9,,,,,,245.2268,245.4762,245.7619,"[0.10247446975987778,-0.05381194158867826]",100.0,"[-0.08200433780081252,-0.07151064351115136]",100.0,"[0.11677674476029,0.14780816504370994]",100.0,"[0.004044415612280483,0.10463364796705861]",100.0,"[0.10457373333354944,-0.16119381886128764]",4.0,"[0.07356674758972892,0.15569352736367753]",100.0,"[0.04709083108290892,0.029439700755382152]",100.0,"[-0.14868026441879525,0.13199121528250318]",100.0,"[-0.10367287069977713,0.0978866149653264]",100.0,"[-0.04936172498463282,-0.14220927323518534]",100.0,"[0.15770658679945823,0.00897984236682706]",100.0,"[-0.1039739558218163,-0.11453870731431878]",100.0,"[0.10273690470501165,0.04027491343836792]",100.0,"[-0.05953943249527124,0.09500963032445749]",100.0,"[-0.008254565509881124,0.0038276274422141114]",100.0,"[0.1290782086890371,-0.11903327771985689]",100.0,"[0.07433886693575309,-0.017129806654472578]",100.0,"[-0.06145681398862682,-0.019158187918353067]",4.0,"[0.06799969118298552,-0.12937196762626024]",100.0,"[0.03447902791874177,-0.17513404113795236]",100.0,"[-0.057226138023749366,0.03774684149099973]",100.0,"[0.17511562155674743,-0.028588520517595854]",100.0,"[0.09669959012372928,0.10419891099879328]",100.0,"[0.005080067956803429,0.04951571385957446]",100.0,"[-0.1272750111927602,-0.07822147961396703]",100.0,"[-0.10297340413995108,-0.012221023395929275]",100.0,"[-0.17380616150749617,-0.06388070382826799]",100.0,"[-0.15224219824432053,0.07124807975539668]",100.0,"[0.013834645544249699,-0.10173546096758676]",100.0,"[-0.08860810129916383,-0.1551075096574164]",4.0,"[0.026841270413939466,0.1785622972258495]",100.0,"[-0.0106220653205119,0.14196915365610357]",100.0,"[0.02,0.02]",246.8597,0.0,19.0,19.0,6.0,1.0,,,,,,,
,,,,,,,66fb12ba2bfd1e0379ced77c,6842baf91828ed44861df872,2025-06-06_05h13.40.685,shape_ratio,2024.1.5,Win32,57.14285714,6842b561977af9ba9b0f87ca,,,,,,,,,,,246.8608,247.3596,,,247.6107,248.2767,left,0.6526,,,,,,,,,0.45,,,,,,247.3597,247.6106,248.2768,"[0.012965797287456282,0.002563863418605799]",4.0,"[-0.084226273904174,-0.09307816622087432]",100.0,"[-0.09887307946894047,-0.04455248400359068]",100.0,"[0.06871905910431356,0.1834010535752055]",100.0,"[0.0259551274543295,0.07652042946377391]",100.0,"[0.05923161887896311,-0.18911721290231664]",4.0,"[-0.10641420218707685,-0.15633685312190762]",100.0,"[-0.15961638142960838,0.04907244375321646]",100.0,"[0.1645855691712055,-0.009730941972176043]",100.0,"[0.1534342340834361,0.062131761898548715]",100.0,"[0.10631298603803191,-0.05077060045980192]",4.0,"[0.008216594881301139,0.1604906070696907]",4.0,"[0.06567911491435459,0.0445984748675924]",4.0,"[0.025268426811375488,-0.14489650384626904]",4.0,"[-0.1312642962690453,0.12627309120570887]",4.0,"[-0.0398286389004806,0.19029224000333245]",100.0,"[-0.017639440736933645,-0.1793593915077811]",4.0,"[0.07956554847637343,-0.10999640230165703]",4.0,"[0.07756004372722732,0.10962329306078257]",100.0,"[0.13698476359640935,0.11464360214818053]",100.0,"[0.021424580723570816,-0.0950419853661601]",4.0,"[0.10972668794344326,0.1552543584054254]",4.0,"[-0.10319763487300923,0.05948024671200173]",4.0,"[0.1411896782244047,-0.08791936266944361]",4.0,"[-0.143686359817457,-0.13457195737326638]",4.0,"[-0.15099204907588454,0.0032483061911221913]",4.0,"[-0.017760429997129026,0.06028788307438265]",4.0,"[-0.12987030700935767,-0.09325170127487493]",4.0,"[-0.17393457663092388,0.09599642555913718]",100.0,"[-0.027012846110500397,-0.05191250298183187]",100.0,"[0.10395413296873178,0.07613015747199839]",4.0,"[0.07996527009527692,0.005840817557858913]",100.0,"[0.02,0.02]",249.3763,0.0,20.0,20.0,123.0,1.0,,,,,,,
,,,,,,,66fb12ba2bfd1e0379ced77c,6842baf91828ed44861df872,2025-06-06_05h13.40.685,shape_ratio,2024.1.5,Win32,57.14285714,6842b561977af9ba9b0f87ca,,,,,,,,,,,249.3774,249.8764,,,250.1266,250.7089,left,0.5718,,,,,,,,,0.4,,,,,,249.8764,250.1265,250.7089,"[0.1101020426852414,0.15760941464061323]",4.0,"[-0.16886278604346802,-0.09935708094452184]",4.0,"[-0.1101704819530322,-0.060788046795039304]",100.0,"[0.1377450727022223,0.1103767917372773]",4.0,"[-0.03056955835318232,-0.01157843215969918]",4.0,"[-0.17106251620815607,-0.0059395530844757695]",4.0,"[0.07260485459154438,-0.08255001140649477]",4.0,"[0.027864140927316414,-0.16574099810558224]",100.0,"[-0.05083124489593594,0.1917008997739992]",4.0,"[-0.037419994020429295,-0.1721873757931677]",100.0,"[0.021361964036674008,0.10782420139794924]",4.0,"[0.15723369215875183,0.052114481649485976]",100.0,"[-0.10650046449488561,0.03007393759558897]",4.0,"[-0.05828794771737005,0.0851946901103339]",4.0,"[-0.04518243791388431,-0.09251574802423579]",4.0,"[0.027784111170199195,-0.08686400683295185]",4.0,"[0.12207351055310006,-0.0766219507920305]",100.0,"[0.09231024258852141,0.050628600104258424]",100.0,"[0.05965359758808256,-0.012845581565906856]",100.0,"[0.19138337428948152,-0.0390871662452815]",100.0,"[-0.06091184246019755,0.15032560651643567]",100.0,"[-0.12486892089136847,0.07080203632415263]",4.0,"[0.00401626266281663,-0.12048113848650514]",100.0,"[0.12773353501452397,-0.1512940164993035]",4.0,"[-0.16996536276207805,0.03892117601780441]",100.0,"[0.013670227856018988,0.016447200167643585]",4.0,"[0.07615367316580594,0.08730464341457085]",4.0,"[0.1692330404475425,-0.08195572788580083]",100.0,"[-0.00926908922159075,0.06894722660634796]",4.0,"[0.1276149512990591,-0.0008362803633473126]",4.0,"[0.008938721266188372,0.16279841362878633]",100.0,"[0.011463711984687805,-0.03011583096680126]",4.0,"[0.02,0.02]",251.8088,0.0,21.0,21.0,178.0,1.0,,,,,,,
,,,,,,,66fb12ba2bfd1e0379ced77c,6842baf91828ed44861df872,2025-06-06_05h13.40.685,shape_ratio,2024.1.5,Win32,57.14285714,6842b561977af9ba9b0f87ca,,,,,,,,,,,251.8091,252.309,,,252.5599,252.8755,right,0.2975,,,,,,,,,0.9,,,,,,252.309,252.5598,252.8755,"[-0.07425672477561937,0.10757602765213095]",100.0,"[-0.08669578007947608,-0.06532242757672345]",100.0,"[-0.12369602455956193,0.15714607346607726]",100.0,"[0.004367767235175814,-0.12292165938922309]",100.0,"[0.053038225967016246,0.12550248776307651]",100.0,"[-0.13025806527750552,0.03217777614617638]",100.0,"[0.00028556847245124646,-0.009494256799827624]",100.0,"[0.10319849918168342,0.019368250383799437]",100.0,"[0.05344019550062892,-0.035783204983318995]",100.0,"[-0.04182868617445466,0.002206549006431396]",100.0,"[-0.007061222119854158,0.17103387800754724]",100.0,"[-0.06576729843690976,-0.1598903811443222]",100.0,"[0.1850574492422624,0.0271223116130981]",100.0,"[0.10442849561346636,-0.16347392099759767]",100.0,"[0.10876165271909055,-0.02981763716000018]",100.0,"[0.10744546956892968,0.1071128817232833]",4.0,"[0.08691509898745335,0.15361469962731408]",100.0,"[0.06011632071911855,-0.12289473115179907]",100.0,"[-0.029989489026157813,0.057867541503624706]",100.0,"[-0.13120626586648415,-0.05577647215271367]",4.0,"[0.1491627905881628,-0.04179489072545926]",100.0,"[-0.12474968234568413,0.07284124852876254]",100.0,"[0.020578796919525053,-0.19049109624909055]",100.0,"[-0.016283544188739795,0.11872549656073078]",4.0,"[0.1673733762673029,-0.09389628954186453]",100.0,"[-0.05615478347193466,0.15529632244969727]",100.0,"[-0.0472589139677043,-0.08917195699123916]",100.0,"[-0.18671663390353088,0.06521971453354983]",100.0,"[0.11772872234562151,-0.08120832956811093]",100.0,"[0.06426239503105567,-0.18441148793417148]",100.0,"[0.1437628594202705,0.12749816838243663]",100.0,"[-0.09121847474630074,-0.025290071743419854]",100.0,"[0.02,0.02]",253.9763,0.0,22.0,22.0,11.0,1.0,,,,,,,
,,,,,,,66fb12ba2bfd1e0379ced77c,6842baf91828ed44861df872,2025-06-06_05h13.40.685,shape_ratio,2024.1.5,Win32,57.14285714,6842b561977af9ba9b0f87ca,,,,,,,,,,,253.9774,254.4759,,,254.7275,255.1112,right,0.371,,,,,,,,,0.6,,,,,,254.476,254.7274,255.1114,"[-0.08147099973670101,-0.12746980664620178]",4.0,"[-0.10123274809045833,0.0531743666348893]",4.0,"[-0.12482710181416413,0.13061448614369264]",100.0,"[0.11914530636884779,-0.13030960235181627]",100.0,"[0.15273685691351258,0.11244929552893708]",4.0,"[0.10437050147611153,0.05790936149434942]",4.0,"[-0.046844796619973504,0.16284970436793839]",4.0,"[-0.13923242037513014,-0.13864924781922713]",100.0,"[0.049184271374521464,-0.142772126526105]",100.0,"[-0.048741515079083315,-0.18075340819288419]",100.0,"[-0.028776972904123822,-0.10672492254222513]",100.0,"[0.013836380583082623,0.09187659597909294]",100.0,"[-0.08182400337932937,-0.0817205969818312]",100.0,"[-0.0036218854787949703,-0.060345549865702536]",100.0,"[-0.09809345626158449,-0.034790738097093446]",100.0,"[0.1052348767607844,-0.0056896370319716215]",100.0,"[-0.15765595792443785,0.07449386406496644]",4.0,"[0.08918236481375263,-0.04828750033255502]",4.0,"[-0.12778325105065286,0.012527377734474538]",4.0,"[-0.16206590304179447,-0.02966332813497359]",4.0,"[0.14697419290602926,0.07124914910072142]",100.0,"[0.1392501323598119,0.020010466732717412]",4.0,"[0.0738792521328431,0.13651950241119556]",4.0,"[0.1931840258298561,-0.0012957632342636251]",100.0,"[-0.008229904010809383,0.00500805344185749]",100.0,"[0.03719016069573227,-0.03224312634529788]",4.0,"[-0.1806529019045797,0.007263063290500811]",100.0,"[-0.08086010044465822,0.10576912546481476]",100.0,"[-0.048091275692574764,-0.05680031920269942]",4.0,"[0.13520721639769914,-0.046548527053260375]",100.0,"[-0.015988660119885284,0.19520778457719798]",100.0,"[0.045863283359593165,-0.08495610282008617]",100.0,"[0.02,0.02]",256.209,0.0,23.0,23.0,30.0,1.0,,,,,,,
,,,,,,,66fb12ba2bfd1e0379ced77c,6842baf91828ed44861df872,2025-06-06_05h13.40.685,shape_ratio,2024.1.5,Win32,57.14285714,6842b561977af9ba9b0f87ca,,,,,,,,,,,256.2094,256.709,,,256.9594,257.6928,right,0.7253,,,,,,,,,0.5,,,,,,256.7091,256.9594,257.6928,"[0.13711784882285172,-0.14254849055596816]",4.0,"[-0.15730534748086625,0.10895129251399371]",4.0,"[0.06122261234846935,0.15972861112000591]",4.0,"[-0.0008307507196236892,0.14400405532387328]",100.0,"[-0.040425958281540296,0.045669520378994556]",4.0,"[-0.09456201128860095,0.056318206509587423]",100.0,"[0.02411464371955527,0.10272034814805639]",4.0,"[0.13435974045649662,0.11220378373921616]",100.0,"[-0.09129927546879311,0.10642052589900398]",100.0,"[-0.041902918860865904,0.145643391602509]",4.0,"[0.17776978343106403,0.033038902938387016]",100.0,"[-0.1919613142365614,0.043272743552182864]",100.0,"[0.10171397755134594,-0.00114771823537591]",4.0,"[0.07860424507224938,0.04297203184407268]",4.0,"[-0.02156303807858874,-0.06558575425439535]",100.0,"[0.0007641479366609338,-0.12655774022015112]",100.0,"[-0.1192149148304914,-0.013777681872441482]",100.0,"[-0.0776124380304275,-0.13341948604794135]",4.0,"[-0.042177701432536296,0.09916541667280533]",4.0,"[-0.09335508921892446,0.1581965131981648]",100.0,"[0.030466815582160665,-0.0020807350182796345]",100.0,"[-0.17089278171541325,-0.00038234640669031336]",4.0,"[0.08998122148169665,-0.15670695184209812]",100.0,"[0.10789387771999596,-0.0887383606786675]",100.0,"[-0.10632743239919966,-0.07286332588689985]",100.0,"[0.18343292864698157,-0.07608045431206645]",4.0,"[-0.04190780665489379,-0.026458520406503382]",100.0,"[0.012176017395280802,0.03933363896197871]",4.0,"[0.07675432764572088,0.08343983214709763]",4.0,"[-0.13841471112913625,0.05896604192845755]",4.0,"[-0.02682188138948853,0.1877119172260287]",100.0,"[0.05787401016613708,-0.03951370199229437]",4.0,"[0.02,0.02]",258.7926,0.0,24.0,24.0,106.0,1.0,,,,,,,
,,,,,,,66fb12ba2bfd1e0379ced77c,6842baf91828ed44861df872,2025-06-06_05h13.40.685,shape_ratio,2024.1.5,Win32,57.14285714,6842b561977af9ba9b0f87ca,,,,,,,,,,,258.7928,259.2927,,,259.5429,260.3113,left,0.7558,,,,,,,,,0.4,,,,,,259.2927,259.5429,260.3115,"[-0.03913300276702566,-0.00728797304783698]",4.0,"[-0.11388913851208511,0.13758453525297965]",4.0,"[0.050151899602606,0.07716361737448284]",100.0,"[0.13137703375387735,0.020430799977513136]",4.0,"[0.08061223090405445,-0.12981796019756783]",100.0,"[-0.09755778594657132,0.005561499721322369]",100.0,"[0.1485451102870353,-0.02548731409257985]",4.0,"[0.08188204063364743,0.16815948026727554]",4.0,"[0.1546692133981084,-0.11190133244319304]",4.0,"[-0.04208465405408609,-0.057676111220940234]",4.0,"[-0.007377781853846108,0.06026927368267664]",100.0,"[-0.18558152097291775,-0.05596755843769053]",4.0,"[-0.07974403128392953,-0.08086686472302199]",4.0,"[-0.040137956453031975,0.1462314537507176]",100.0,"[0.10792331302056703,0.08273015267874764]",4.0,"[-0.14518720760172538,-0.012213085914318095]",4.0,"[0.018353298932766802,-0.11153709169941213]",100.0,"[-0.07096862441722035,-0.16877893711565023]",100.0,"[-0.12622927368560918,0.05109280803732467]",100.0,"[0.09731819715221574,-0.03875747186471538]",4.0,"[-0.06892922184785118,0.0860012521032831]",4.0,"[0.002097311390675751,-0.05890486040188132]",100.0,"[0.000701249581117097,0.10701720407783254]",4.0,"[-0.12520261543468358,0.09415281676092507]",4.0,"[-0.14844160547636426,-0.10174776392548013]",100.0,"[-0.115159854932128,-0.16080193475375867]",4.0,"[0.04659929709957378,-0.07122134902689105]",100.0,"[0.056368589384014636,0.13007021710742545]",100.0,"[0.01276463121164103,-0.16196966256297227]",4.0,"[0.10122065634946532,-0.0833841399641483]",100.0,"[0.11687683604813363,0.13264606361887868]",4.0,"[0.016350436279567386,-0.003169815705829326]",4.0,"[0.02,0.02]",261.4092,0.0,25.0,25.0,154.0,1.0,,,,,,,
,,,,,,,66fb12ba2bfd1e0379ced77c,6842baf91828ed44861df872,2025-06-06_05h13.40.685,shape_ratio,2024.1.5,Win32,57.14285714,6842b561977af9ba9b0f87ca,,,,,,,,,,,261.4096,261.909,,,262.1594,262.7267,left,0.5578,,,,,,,,,0.6,,,,,,261.909,262.1594,262.7268,"[0.13187865571282859,0.13942541489616664]",100.0,"[0.06596252916017654,-0.1478676300039263]",4.0,"[0.1367204463179494,-0.05798066749115361]",100.0,"[0.11437818167028628,-0.16132621978225742]",100.0,"[0.004017424188289922,-0.18278084796339]",100.0,"[-0.11009172608097903,-0.03318627236965951]",4.0,"[0.13486341888304276,0.050820089777448466]",4.0,"[0.09878331865991193,-0.04103501410386919]",4.0,"[-0.1440595034027529,0.11624973656680498]",100.0,"[-0.040153544783655744,-0.03807631812187732]",4.0,"[0.05409732698605701,0.06945624760146901]",100.0,"[0.02237692451342603,0.03719386279912974]",100.0,"[-0.02748054165117541,0.07439571101767231]",4.0,"[-0.04032030679501911,0.1881865137737898]",100.0,"[-0.14567846412674795,-0.07135454656783975]",100.0,"[-0.04508803032205375,0.003471124518333277]",100.0,"[0.0513494614334987,0.1923043472101817]",4.0,"[-0.016447681045358868,0.11713617305416249]",4.0,"[0.13123741279484247,0.0034300444862295785]",4.0,"[0.0009342565251671559,-0.08984187424497718]",100.0,"[-0.17985697764961378,-0.001917813510690231]",100.0,"[-0.074315528663799,0.1344528416987978]",4.0,"[0.19603827227213233,-0.005887173140010947]",100.0,"[0.09830024990906024,0.08508003491428275]",100.0,"[0.19365452896414279,-0.04980732347226549]",100.0,"[-0.07221148994663315,0.06739731412740523]",4.0,"[0.0348246078217582,0.12776832957655157]",100.0,"[0.051854079912971786,-0.019627300454134043]",100.0,"[-0.11428907669773435,0.15461876873512936]",100.0,"[-0.07346303429198862,-0.18144079505590116]",100.0,"[-0.07754124724178306,-0.12207217567502282]",4.0,"[0.014342687539855688,-0.14167700035360753]",4.0,"[0.02,0.02]",263.8267,0.0,26.0,26.0,58.0,1.0,,,,,,,
,,,,,,,66fb12ba2bfd1e0379ced77c,6842baf91828ed44861df872,2025-06-06_05h13.40.685,shape_ratio,2024.1.5,Win32,57.14285714,6842b561977af9ba9b0f87ca,,,,,,,,,,,263.8276,264.327,,,264.5809,265.1845,left,0.586,,,,,,,,,0.5,,,,,,264.3271,264.5809,265.1848,"[-0.15715912072670984,-0.10733064522938117]",100.0,"[-0.15762617178254743,0.0006249795669593041]",4.0,"[0.045811582438048004,0.10637097347955803]",100.0,"[0.003912537745995308,0.17009527307048422]",4.0,"[0.15089296398819466,-0.1011025839963431]",4.0,"[0.11039544652776632,0.010178506046470609]",4.0,"[0.09925607057421013,0.07209884679872136]",4.0,"[-0.08761246121538255,0.15949181658933492]",100.0,"[0.025170308177730166,-0.12357586221182605]",4.0,"[0.18300127234021563,0.03696056566681567]",4.0,"[-0.022421768653916055,0.09239232505663056]",4.0,"[0.13563180607667172,0.11366828128915314]",100.0,"[0.05540546655833672,-0.04106455519435112]",4.0,"[-0.10670044231336731,-0.14355707785781635]",100.0,"[-0.036487639741772215,-0.1891964009202628]",4.0,"[-0.08522431463007626,0.01560810747965455]",4.0,"[0.09540273362952782,-0.11077461506256936]",4.0,"[-0.09218712978169427,0.07144198104560691]",4.0,"[-0.050063665080538666,-0.11362310585982699]",100.0,"[0.08938132484957989,-0.1704976665466929]",100.0,"[0.18731974126839657,-0.0617007104815636]",100.0,"[-0.03833598474476627,-0.04031082709732395]",100.0,"[0.09229674863934482,0.11937674992111784]",100.0,"[0.12113694163161792,-0.029912075911717954]",100.0,"[-0.051937474022834794,0.04681246788805911]",100.0,"[-0.1358554257821245,0.1094150994354779]",4.0,"[0.14856020846879048,0.06437010498110286]",4.0,"[0.016579175590396854,-0.023139429050992043]",100.0,"[0.07696060508927843,0.15875843297199754]",100.0,"[-0.04897404456593972,0.17449785761179046]",4.0,"[-0.1167116078549395,-0.04465261971739626]",100.0,"[0.03429395199445872,-0.17921331295889822]",100.0,"[0.02,0.02]",266.2762,0.0,27.0,27.0,110.0,1.0,,,,,,,
,,,,,,,66fb12ba2bfd1e0379ced77c,6842baf91828ed44861df872,2025-06-06_05h13.40.685,shape_ratio,2024.1.5,Win32,57.14285714,6842b561977af9ba9b0f87ca,,,,,,,,,,,266.2772,266.7767,,,267.0276,267.4605,left,0.4072,,,,,,,,,0.1,,,,,,266.7768,267.0275,267.4606,"[-0.02605566689413467,0.10779097779158034]",100.0,"[-0.09387604513210007,-0.011876504768411676]",4.0,"[-0.06229659462220291,-0.18610289790695878]",4.0,"[0.10261384394991473,-0.1172596112117776]",4.0,"[-0.15869076837281534,-0.03684892633611204]",4.0,"[0.06287603070532843,-0.04640953162632745]",4.0,"[-0.1763403298818474,-0.08419091571451331]",4.0,"[-0.03301775117869242,-0.09939083309698438]",4.0,"[-0.040313787849582366,0.1508009300843775]",4.0,"[0.01703573388133309,0.178010111953816]",4.0,"[0.19030973262613238,-0.042302873797589596]",4.0,"[0.10790176216727863,0.11180147513634003]",4.0,"[-0.0028030220295208177,0.06970335868105657]",4.0,"[0.0011803631974689453,-0.16193989968846695]",100.0,"[0.03345712398651743,-0.0006871712799962751]",4.0,"[-0.12239153069083253,0.12687298844715278]",4.0,"[-0.06071666573852418,0.030664575727953114]",4.0,"[0.0115874867021583,-0.06245588055879672]",4.0,"[0.13828675470913002,-0.07123170574804594]",4.0,"[0.0915496314205495,0.0350128632936879]",4.0,"[-0.16546353636519295,0.10659619600931661]",4.0,"[-0.10542634116867153,0.07008360966480781]",4.0,"[0.07264104671678635,0.07336986111011436]",4.0,"[-0.08672293744457758,0.17040249795762183]",4.0,"[0.0035230834942414817,0.13869607629824598]",4.0,"[-0.1136782929816841,-0.1435564487633147]",4.0,"[0.026814988571183737,-0.10791311381475005]",4.0,"[0.08458135517174882,-0.16863616594326694]",4.0,"[0.07931377080124956,0.16020621637864815]",4.0,"[0.1753637609576382,0.05934995055780339]",4.0,"[-0.12550035276831517,-0.06549251964335012]",4.0,"[-0.16318564409212696,0.03511937925939176]",100.0,"[0.02,0.02]",268.5606,0.0,28.0,28.0,190.0,1.0,,,,,,,
,,,,,,,66fb12ba2bfd1e0379ced77c,6842baf91828ed44861df872,2025-06-06_05h13.40.685,shape_ratio,2024.1.5,Win32,57.14285714,6842b561977af9ba9b0f87ca,,,,,,,,,,,268.5618,269.0595,,,269.315,269.7103,left,0.3678,,,,,,,,,0.45,,,,,,269.0596,269.3148,269.7103,"[0.07117709729941687,-0.12025490423371145]",100.0,"[0.07513972007673232,-0.010483444326421667]",100.0,"[0.15162005011470314,0.09214013238316938]",100.0,"[0.021010307438373014,-0.17746198785856251]",4.0,"[0.043866429641561525,0.10825485015207596]",4.0,"[0.10682838260723564,0.05369463357246485]",100.0,"[-0.1539744728501549,-0.008089232103075581]",100.0,"[0.05252564486372384,-0.07781928019069495]",4.0,"[-0.14312820001519316,-0.128502988024453]",4.0,"[-0.016865443305191068,0.030312545196927724]",100.0,"[0.05778216405576068,0.0447766869116251]",4.0,"[-0.013861774337854831,-0.06233963859961126]",4.0,"[-0.09487845146443367,0.16037094807276175]",4.0,"[0.10969976728814425,0.10353447852791005]",100.0,"[0.002969440250703191,0.1594063165301222]",100.0,"[0.1696443529186423,-0.04970949140119198]",4.0,"[-0.10369146877559018,-0.04708138447835868]",4.0,"[-0.05288984661325995,-0.17028047007989192]",4.0,"[-0.18326115628739645,0.047146431465227304]",100.0,"[0.048747402081697006,0.1601668486167438]",4.0,"[-0.12835656517306318,-0.08289562298799827]",100.0,"[-0.11440535469710578,0.09535548122316764]",4.0,"[-0.041477410836356136,0.1278894647922503]",4.0,"[-0.11109865925841712,0.022696567243746708]",100.0,"[-0.0376799914028967,-0.10850854228809212]",4.0,"[0.08915733555900875,0.15528667402276447]",4.0,"[-0.04751713539828887,0.1754671703515033]",100.0,"[-0.07322649049060813,0.055617206933177364]",4.0,"[-0.01455756640148461,-0.1976148023256347]",4.0,"[0.1489772389208116,-0.13140630915168316]",100.0,"[-0.0009542751882369983,-0.006736031893642212]",4.0,"[-0.18046212875732523,-0.06239005929705218]",100.0,"[0.02,0.02]",270.8103,0.0,29.0,29.0,142.0,1.0,,,,,,,
,,,,,,,66fb12ba2bfd1e0379ced77c,6842baf91828ed44861df872,2025-06-06_05h13.40.685,shape_ratio,2024.1.5,Win32,57.14285714,6842b561977af9ba9b0f87ca,,,,,,,,,,,270.811,271.3101,,,271.5619,272.1447,left,0.569,,,,,,,,,0.5,,,,,,271.3101,271.5618,272.1449,"[-0.09662262299026904,0.025310654738560555]",4.0,"[0.07509236231790463,0.17197957924209187]",100.0,"[0.0657426214160573,-0.004712660718114044]",4.0,"[-0.00830616135806825,0.10493246741210242]",4.0,"[0.03145407940786679,-0.1958350839440212]",100.0,"[-0.03772613358409471,0.18157332870913984]",4.0,"[0.11146698865369825,-0.007633652006165974]",100.0,"[0.10904991883099015,0.1437923900045627]",100.0,"[0.029179398192128194,-0.08714433117349821]",4.0,"[0.12371002448792072,-0.13551723483920325]",4.0,"[-0.023434217790646392,0.049858100069491304]",100.0,"[0.11918231030343394,-0.06949794523840074]",4.0,"[0.08593011761932853,0.04624834264104183]",4.0,"[-0.029155039105308662,0.0027696487010247938]",4.0,"[-0.1090660008000707,0.15567882656569598]",4.0,"[-0.06815082259711931,0.10044108379715427]",4.0,"[-0.046655408413357656,-0.14983939221740636]",4.0,"[0.17936117366378043,-0.07593389091975358]",100.0,"[0.17246488194401555,-0.03381928578546524]",100.0,"[0.04172495231057009,-0.038296742140446094]",4.0,"[-0.10654096098649835,-0.10716875389703771]",4.0,"[-0.03308506265961807,-0.04581325915067465]",100.0,"[-0.14628269462672733,-0.05298087231430346]",100.0,"[0.1280931856143012,0.0448212324163193]",100.0,"[0.08531234530239706,0.09625473496976743]",100.0,"[-0.16977264916348864,0.025721651855803763]",4.0,"[0.047974589116563604,-0.12884377822133009]",100.0,"[0.021964822203904166,0.03834034037829104]",100.0,"[-0.010971533110763333,-0.17788013296061883]",100.0,"[-0.07627089773983613,-0.01383196226900661]",4.0,"[-0.0037164465585050903,-0.12152525156789935]",100.0,"[-0.1280803905353296,0.07533289599078835]",100.0,"[0.02,0.02]",273.2451,0.0,30.0,30.0,105.0,1.0,,,,,,,
,,,,,,,66fb12ba2bfd1e0379ced77c,6842baf91828ed44861df872,2025-06-06_05h13.40.685,shape_ratio,2024.1.5,Win32,57.14285714,6842b561977af9ba9b0f87ca,,,,,,,,,,,273.2466,273.7444,,,273.9952,274.4792,right,0.4752,,,,,,,,,0.55,,,,,,273.7446,273.9952,274.4793,"[-0.0661164318348732,0.164965807996554]",100.0,"[0.030502874351605383,-0.12438427128804877]",100.0,"[-0.05521508228110443,-0.11775892093667673]",4.0,"[0.0910194326007563,-0.02035150193410861]",4.0,"[0.08230274986950563,0.11576293687446858]",100.0,"[-0.08275403117475051,-0.1818563053237974]",4.0,"[-0.16054251712540707,-0.021902821282823632]",100.0,"[0.03523717808206839,0.11218337970612285]",4.0,"[0.08334839677630168,0.03288430030598732]",100.0,"[-0.011814219528767642,-0.036146867348512024]",4.0,"[0.09932690972335569,-0.14852924768156506]",4.0,"[-0.144762511287354,0.11512674452077118]",100.0,"[0.13824843591536393,-0.033416437432384115]",4.0,"[0.04453275166270021,-0.08234540030698659]",100.0,"[0.13797704529115878,0.11699368556918781]",100.0,"[-0.06579593970179795,-0.07835264366635186]",4.0,"[0.13563150317561432,-0.10644758697679199]",100.0,"[0.16244297954217315,-0.06796853392797322]",100.0,"[-0.15779001856656313,0.03516003390784834]",100.0,"[-0.04190657045769754,-0.18114650627402598]",4.0,"[-0.09479331944977262,0.1354853658103689]",4.0,"[-0.19877427158521083,-0.005555910029394066]",100.0,"[-0.08456811072205701,0.0050140654183840885]",100.0,"[0.1427273464579047,0.031825971158928726]",100.0,"[0.023962550739698833,0.18890844689330805]",4.0,"[0.008417589385106658,0.0010184664486772097]",4.0,"[0.043123975191688195,0.03418684076229877]",4.0,"[-0.12333511112666903,-0.1191920729675955]",100.0,"[-0.12655758522265523,0.06908187449326689]",4.0,"[0.009137676866749577,-0.16291158840347497]",100.0,"[-0.11696074907677673,-0.03309819526267643]",100.0,"[0.006909877425027353,0.052728891098357954]",100.0,"[0.02,0.02]",275.5771,0.0,31.0,31.0,78.0,1.0,,,,,,,
,,,,,,,66fb12ba2bfd1e0379ced77c,6842baf91828ed44861df872,2025-06-06_05h13.40.685,shape_ratio,2024.1.5,Win32,57.14285714,6842b561977af9ba9b0f87ca,,,,,,,,,,,275.5783,276.0772,,,276.3308,276.817,left,0.4693,,,,,,,,,0.4,,,,,,276.0773,276.3308,276.8171,"[0.16815495258789082,0.1032386079295436]",100.0,"[0.04738389180105323,-0.17779990111048902]",4.0,"[-0.11029711298234629,0.14811156708624715]",100.0,"[0.0905177576550571,0.15935581020568126]",100.0,"[-0.007866781225320951,-0.01999790529159152]",100.0,"[0.03299795276902429,-0.09335901827579199]",100.0,"[-0.1502005596723808,-0.012663878146790278]",4.0,"[0.12376242022164548,0.0403538443750976]",4.0,"[0.06186046529516691,0.08687667631086873]",4.0,"[0.10890904771971194,-0.07556203195647448]",4.0,"[-0.13327203634461773,-0.06173497548710952]",100.0,"[0.19185699732017422,0.04036627939942484]",4.0,"[-0.06776559600942525,-0.17366461126119978]",4.0,"[0.005536607248847835,0.15143530801729516]",4.0,"[-0.10505542152273056,-0.1374721425879305]",100.0,"[0.09559931934245038,-0.173695226129212]",100.0,"[-0.026366707443713784,0.09357673873814887]",4.0,"[0.05668992885139597,-0.01852093578401919]",100.0,"[-0.09650930156245009,0.10613442275875244]",4.0,"[-0.1972529525407209,0.012942459210470578]",4.0,"[0.10973647399827949,-0.032554647028045135]",4.0,"[-0.15317689490444644,0.07408559287268411]",4.0,"[0.128710680405545,0.14369940853071442]",100.0,"[-0.05986044989945952,0.1471381652938752]",4.0,"[0.01348048042223588,0.08180825611123675]",4.0,"[0.04956972395840466,0.18095182252544598]",100.0,"[-0.04793823869795506,-0.11855771654160117]",4.0,"[-0.08431069836779312,-0.009942501959586183]",4.0,"[0.1946046621256776,-0.03372178073477681]",100.0,"[-0.05685238831890843,-0.041677428500763315]",4.0,"[-0.0014650871883452154,-0.19173087073840125]",100.0,"[-0.01083873307817331,-0.0804969726726318]",4.0,"[0.02,0.02]",277.9109,0.0,32.0,32.0,166.0,1.0,,,,,,,
,,,,,,,66fb12ba2bfd1e0379ced77c,6842baf91828ed44861df872,2025-06-06_05h13.40.685,shape_ratio,2024.1.5,Win32,57.14285714,6842b561977af9ba9b0f87ca,,,,,,,,,,,277.9123,278.4108,,,278.6658,279.2444,left,0.5558,,,,,,,,,0.45,,,,,,278.411,278.6656,279.2446,"[-0.021493540975794322,0.019776636913612634]",4.0,"[0.060236998463882786,0.09876488469466994]",4.0,"[0.08748498058154701,-0.08573356218928832]",4.0,"[0.010931087258177225,-0.1139933804917543]",4.0,"[-0.0629247480650124,0.07490642834062239]",100.0,"[0.11255708310481488,-0.020010104829293923]",4.0,"[0.01859488709544597,0.10174562220457187]",100.0,"[0.0257572498823179,-0.05201255735537676]",4.0,"[-0.04244332022748993,0.15484948805800533]",4.0,"[0.08234491263162837,-0.14667726104460835]",100.0,"[0.006249526574431917,0.1805511607171751]",100.0,"[-0.02936958072873585,-0.1111653585108066]",4.0,"[-0.11845425810846723,-0.0801715131766099]",4.0,"[0.1294460947905728,0.10177206929250981]",4.0,"[0.003217802001982519,-0.15686330452261787]",4.0,"[-0.14845863964887152,-0.02971662315650253]",4.0,"[0.1701530608791173,-0.02476397062312615]",100.0,"[0.1537174362319481,0.02304228247632367]",100.0,"[0.08709392376398514,0.1721701914823584]",100.0,"[-0.12348524676108825,0.02150236250339022]",4.0,"[0.049187820283187016,0.033019729636810706]",4.0,"[-0.1369592677310354,0.10942674582669544]",100.0,"[-0.017070724035979624,0.12132290954855642]",100.0,"[0.05041672325531218,-0.10541456796964692]",4.0,"[-0.057048111315225254,0.11464019567698629]",4.0,"[0.17356151348140483,0.06356699792546434]",100.0,"[0.08677812170386337,0.017232339358522867]",4.0,"[-0.08372847597482785,-0.006742370433217826]",4.0,"[0.009960459050286183,-0.007002251402287408]",100.0,"[0.12586719592951054,-0.15491528987472883]",100.0,"[-0.15963993321619024,-0.08483701780324761]",100.0,"[-0.15539240242937558,0.04858196853689195]",100.0,"[0.02,0.02]",280.343,0.0,33.0,33.0,137.0,1.0,,,,,,,
,,,,,,,66fb12ba2bfd1e0379ced77c,6842baf91828ed44861df872,2025-06-06_05h13.40.685,shape_ratio,2024.1.5,Win32,57.14285714,6842b561977af9ba9b0f87ca,,,,,,,,,,,280.3438,280.8432,,,281.0963,281.7267,right,0.6068,,,,,,,,,0.45,,,,,,280.8434,281.0963,281.7268,"[-0.013522242930143185,0.007491572699965183]",4.0,"[-0.14535800154211914,0.1005914836564514]",4.0,"[-0.09881233180381062,0.14946095294198783]",100.0,"[0.019587616480546473,-0.020659687223841715]",100.0,"[-0.039657771046876115,-0.06499967144666254]",100.0,"[0.10116848118606506,0.14926815048820044]",4.0,"[-0.1530241506132298,-0.11501515954531404]",4.0,"[-0.10696429452785049,-0.075839492782628]",4.0,"[-0.08641124184639187,0.02030061506851919]",4.0,"[0.0446313388867388,0.1170831064169022]",100.0,"[-0.13864594144496628,0.0077755980551385325]",4.0,"[0.011775314211183963,-0.07082180633306319]",4.0,"[0.07276407127226399,-0.08412036360210513]",4.0,"[0.009227359830002984,0.08494321213907216]",4.0,"[-0.1860790836216278,0.024016087336095067]",4.0,"[0.09942442572479711,-0.17290901148014987]",4.0,"[0.17911282406435214,-0.007075159188088661]",100.0,"[0.07813784915741415,0.01390752904067106]",4.0,"[-0.022317502412266547,-0.12147052792244648]",4.0,"[0.03560136699803555,-0.16291901629643535]",100.0,"[-0.043868143674058675,0.18790183794882448]",100.0,"[0.14481866721031975,-0.07017107509301977]",100.0,"[0.11052484041050233,0.05459789146482626]",100.0,"[-0.03465936927170018,-0.19308886445046025]",4.0,"[-0.04264579260030294,0.09215992173645512]",100.0,"[0.10606717647284605,-0.031881140321066745]",100.0,"[-0.09832357090785221,0.06281636767057486]",100.0,"[0.1296619401242068,0.001551163127875876]",4.0,"[0.15070345540469765,-0.1127446195954982]",4.0,"[-0.10032553442576353,-0.16261772542506814]",100.0,"[0.020752614736647176,-0.12405509434120286]",100.0,"[0.05742243432022721,0.1866217982609632]",4.0,"[0.02,0.02]",282.8266,0.0,34.0,34.0,132.0,1.0,,,,,,,
,,,,,,,66fb12ba2bfd1e0379ced77c,6842baf91828ed44861df872,2025-06-06_05h13.40.685,shape_ratio,2024.1.5,Win32,57.14285714,6842b561977af9ba9b0f87ca,,,,,,,,,,,282.8273,283.3276,,,283.5787,284.0613,left,0.4699,,,,,,,,,0.45,,,,,,283.3279,283.5786,284.0614,"[0.01787364934634253,0.005077401525168948]",100.0,"[-0.09658753615554434,-0.15896864036561265]",4.0,"[-0.04230526448840933,0.017181223064876912]",100.0,"[-0.15036146710413703,-0.09709876871470975]",100.0,"[0.1569125310911224,0.0885691283356276]",4.0,"[0.0951448161609443,0.1305682337026653]",100.0,"[-0.029210166373832322,0.055656905087091]",100.0,"[0.08886294213925422,0.0446093009658946]",4.0,"[0.010343770284675376,0.16894368146780767]",100.0,"[-0.10025986573485673,-0.029964327184225006]",4.0,"[-0.055002347554137354,0.1586112754268216]",100.0,"[0.0588549961950069,-0.00980904273307369]",4.0,"[-0.036282636125405485,-0.07622974075185714]",4.0,"[-0.1538597410741465,-0.04328893707338644]",100.0,"[0.1767325661825212,0.03284214851088417]",100.0,"[-0.01456375033871181,0.12101333970893703]",4.0,"[0.08709932085437763,-0.04858344271498741]",100.0,"[-0.11393595420623441,0.08665049475855983]",100.0,"[-0.030605692791541517,-0.16494746740646143]",4.0,"[0.05173608663823609,-0.10771723172128998]",4.0,"[-0.16442284104467986,0.037348281371515364]",4.0,"[-0.15268724388496224,0.10961095046878204]",100.0,"[-0.10917985161067893,0.033002996402098174]",4.0,"[-0.04934390085101089,-0.03760446435508984]",4.0,"[0.07817625218415988,0.08703080604532423]",100.0,"[0.02271180926828514,0.08795329986254842]",4.0,"[0.05345988244328019,-0.16845435680665866]",4.0,"[0.0540248178480359,0.138476136601373]",100.0,"[-0.11433722191781967,-0.11559479173224141]",4.0,"[-0.0680859853872041,0.11103632324537971]",4.0,"[-0.09518037731313114,0.1450211520839359]",4.0,"[0.006254069628391472,-0.1865884509159086]",4.0,"[0.02,0.02]",285.16,0.0,35.0,35.0,144.0,1.0,,,,,,,
,,,,,,,66fb12ba2bfd1e0379ced77c,6842baf91828ed44861df872,2025-06-06_05h13.40.685,shape_ratio,2024.1.5,Win32,57.14285714,6842b561977af9ba9b0f87ca,,,,,,,,,,,285.1603,285.6611,,,285.9126,286.5945,left,0.6683,,,,,,,,,0.1,,,,,,285.6612,285.9125,286.5947,"[0.029268036182470966,0.12061178485908185]",4.0,"[0.16169712975031791,0.037790463631848153]",4.0,"[0.054294324831523966,-0.03940013529685741]",4.0,"[0.11757828359408627,-0.07079989517693755]",4.0,"[-0.019602756216690994,-0.1362853421869884]",4.0,"[-0.15524415887776186,0.11940280707169187]",4.0,"[-0.18656219337115276,-0.05052855407947904]",4.0,"[-0.12678879666908074,0.04127588848887063]",4.0,"[0.19312297848292415,-0.01707479445608832]",4.0,"[0.07315883737335163,0.14519768076216585]",4.0,"[-0.048909823507204415,0.11948016403173785]",100.0,"[0.14537160680130234,-0.11074276511245836]",4.0,"[-0.03816652024583245,0.053600363226386984]",4.0,"[-0.14784395590151103,-0.08857151562882602]",4.0,"[0.11836365360696363,0.1347865639954532]",4.0,"[-0.18226270295544336,0.02902567877145129]",4.0,"[0.002425429026568242,-0.17733038979003724]",4.0,"[0.10958504420974642,0.015857974891598407]",4.0,"[0.09153169728737007,-0.1650122475682125]",4.0,"[-0.11378449415525549,0.1276196351483929]",100.0,"[-0.025448123433757498,-0.04366118740080277]",4.0,"[-0.09027503435303445,-0.14563700443311825]",100.0,"[-0.14246294945203902,-0.1327164744974039]",4.0,"[0.05349088595936598,0.034778456667607045]",4.0,"[0.16528068267386484,-0.05013814245489229]",4.0,"[-0.08128734961275791,-0.09380859295882424]",4.0,"[-0.05289554092643146,-0.00959141205789218]",4.0,"[0.022300592334074925,0.08069856333335745]",4.0,"[-0.1341322471488983,-0.025793731606191743]",4.0,"[-0.015980038561073072,-0.09525086823776101]",4.0,"[0.09602027014964915,-0.11243971323239413]",4.0,"[-0.16854351014302202,0.06669955441377633]",4.0,"[0.02,0.02]",287.6947,0.0,36.0,36.0,183.0,1.0,,,,,,,
,,,,,,,66fb12ba2bfd1e0379ced77c,6842baf91828ed44861df872,2025-06-06_05h13.40.685,shape_ratio,2024.1.5,Win32,57.14285714,6842b561977af9ba9b0f87ca,,,,,,,,,,,287.6955,288.1948,,,288.4453,288.8272,right,0.368,,,,,,,,,0.9,,,,,,288.1949,288.4452,288.8273,"[0.0029897993055698307,-0.04247436679431625]",100.0,"[-0.13772322309524362,-0.002165666258506715]",100.0,"[0.003344990593667595,0.07776069773214654]",100.0,"[-0.03115533629196385,0.16091260397383705]",100.0,"[0.05874271844768764,0.05138013970661127]",100.0,"[0.14853943802113304,-0.0502980358547617]",100.0,"[0.09666161395845672,0.004363579107874838]",100.0,"[-0.052586697125042936,-0.14467694341240833]",100.0,"[-0.10857595117899212,0.15587122023418204]",100.0,"[-0.17298840871780186,0.06965787553635173]",100.0,"[-0.04333216790422346,0.06154785100919207]",100.0,"[0.17996961376891515,-0.011849064667971835]",100.0,"[0.05381211531420853,-0.008167813625506682]",4.0,"[0.06366736465889203,0.1103215485513717]",100.0,"[-0.13087711826986528,-0.13383981063302697]",100.0,"[0.12848282607414332,0.088262413645403]",100.0,"[0.07815887560487332,0.16487391856293562]",100.0,"[0.0013350786248977169,-0.12443306282907057]",100.0,"[0.06507172561704136,-0.051944891612689524]",100.0,"[-0.053190648338576715,-0.04158649526854048]",4.0,"[-0.06337472683249343,-0.09250011949477698]",100.0,"[0.11950871896028614,0.1520767389169706]",100.0,"[-0.16219666695072488,-0.05830200851446531]",100.0,"[0.044468184495003525,-0.10461003684977983]",100.0,"[-0.12428884359633882,0.06803447214985814]",100.0,"[0.07943704292525336,-0.1820518546373022]",4.0,"[0.0004148981758863105,0.0034064170597203768]",100.0,"[-0.08149695404926827,0.0342471584905663]",100.0,"[-0.08434475065837169,-0.17490685761091407]",100.0,"[-0.10032543515027482,0.11364784627111696]",100.0,"[0.13723851160003583,-0.09684907175015552]",100.0,"[0.1382286314602061,0.010670560123818361]",100.0,"[0.02,0.02]",289.9265,0.0,37.0,37.0,25.0,1.0,,,,,,,
,,,,,,,66fb12ba2bfd1e0379ced77c,6842baf91828ed44861df872,2025-06-06_05h13.40.685,shape_ratio,2024.1.5,Win32,57.14285714,6842b561977af9ba9b0f87ca,,,,,,,,,,,289.9268,290.4265,,,290.6769,291.0933,right,0.4054,,,,,,,,,0.9,,,,,,290.4266,290.6768,291.0934,"[0.024619104604107718,0.1300919747339545]",100.0,"[-0.1499041453517059,-0.11882836337976989]",100.0,"[-0.06704800469971722,-0.18288096234140108]",100.0,"[-0.04264756752837788,0.09373066633179103]",100.0,"[-0.1449066657084364,0.010011320314205197]",100.0,"[0.15819629020828901,-0.014477285841829954]",100.0,"[0.09158979724787292,-0.0001449417483991865]",100.0,"[-0.028455915236541656,-0.1186303184670975]",100.0,"[0.08692528496569193,-0.09072111656643157]",100.0,"[-0.09816520974772806,-0.08172216420511111]",100.0,"[0.16954660526834447,-0.07269244433443704]",100.0,"[0.06983800739805478,0.0970532648561302]",100.0,"[-0.10546066233114124,-0.031817655206957715]",100.0,"[-0.12171816642352097,0.05717394794800945]",100.0,"[-0.016011478513293556,0.01235534357757169]",100.0,"[0.1025526602129618,-0.039562734412969286]",100.0,"[0.028087396006685104,-0.1801806118927462]",100.0,"[0.030747690913183145,-0.04748078294893231]",100.0,"[-0.01687154406943724,0.16871585125973576]",100.0,"[-0.0685165245450644,-0.0022655766399642865]",100.0,"[0.12053249290358542,0.15951030877721598]",4.0,"[-0.011662659804644555,-0.03642498661793643]",100.0,"[-0.15970231259523657,0.10324990938712861]",100.0,"[-0.05657307506566107,0.17392117031771923]",100.0,"[0.18638342057240312,0.05641528640406369]",100.0,"[-0.1205557579925589,0.13607377576691893]",100.0,"[0.14063291488150328,0.04023018802070565]",4.0,"[0.1273810604992489,0.11991265251683306]",4.0,"[0.050366395627100734,0.004879667604902451]",100.0,"[0.04047134881981385,0.05012650055465686]",100.0,"[0.029814320110735065,-0.09651296049209013]",100.0,"[0.08416132043658188,-0.14470623542282296]",100.0,"[0.02,0.02]",292.1932,0.0,38.0,38.0,9.0,1.0,,,,,,,
,,,,,,,66fb12ba2bfd1e0379ced77c,6842baf91828ed44861df872,2025-06-06_05h13.40.685,shape_ratio,2024.1.5,Win32,57.14285714,6842b561977af9ba9b0f87ca,,,,,,,,,,,292.1936,292.6933,,,292.9448,293.5611,right,0.6078,,,,,,,,,0.5,,,,,,292.6933,292.9446,293.5613,"[-0.12933905967098658,-0.1257987327737664]",100.0,"[0.15659679975446905,0.029202063042437863]",100.0,"[-0.08293332576622757,0.0019612931905267817]",4.0,"[0.02595043022422772,0.012224109638331386]",100.0,"[0.1886377730729061,-0.05492303716218563]",100.0,"[0.004581876286271478,0.0578203933992276]",4.0,"[-0.09602166787053769,0.15654134137794212]",4.0,"[0.013909652421841681,-0.12744878713983887]",4.0,"[0.012382466970239902,-0.038790736266585704]",100.0,"[0.03418651822097976,0.10491548705367286]",4.0,"[-0.03767390852531563,-0.1263601401826315]",100.0,"[-0.046605893127417676,-0.06970760421025284]",100.0,"[-0.0383711778862458,0.026899587287804557]",100.0,"[0.022551288501701225,0.18473995509769187]",4.0,"[-0.17589551906379214,0.016246942016366134]",100.0,"[0.012402247051222027,0.14351136867904243]",4.0,"[-0.13838261952628303,-0.002772229185837739]",4.0,"[0.08871720194664853,0.14039438752829694]",4.0,"[0.12351095508724651,0.07288722320940283]",4.0,"[0.13891628349901056,-0.13277798138850305]",100.0,"[0.06993811642172185,0.023972035370793496]",100.0,"[-0.19539461466281702,-0.04250634141033316]",100.0,"[0.19449903502447202,0.007514852212928064]",4.0,"[-0.08474354130835371,0.057334438353056086]",100.0,"[-0.0041126224825118966,-0.08676238959683989]",4.0,"[-0.010870389008088151,-0.1736921183221547]",4.0,"[-0.040662778249286005,0.09347534339934806]",100.0,"[-0.13915276369037494,0.11917534349023165]",4.0,"[-0.023406853885514715,0.18972429534382007]",4.0,"[-0.08873441987323065,-0.0912133115593802]",100.0,"[0.10904696728851694,-0.004028506937985071]",100.0,"[0.1050436720105337,-0.07594620238613176]",4.0,"[0.02,0.02]",294.6599,0.0,39.0,39.0,90.0,1.0,,,,,,,
,,,,,,,66fb12ba2bfd1e0379ced77c,6842baf91828ed44861df872,2025-06-06_05h13.40.685,shape_ratio,2024.1.5,Win32,57.14285714,6842b561977af9ba9b0f87ca,,,,,,,,,,,294.6603,295.16,,,295.4104,295.8268,right,0.4019,,,,,,,,,0.55,,,,,,295.1601,295.4104,295.8268,"[-0.03538912747529964,-0.12180484103248297]",4.0,"[-0.08818615000575536,0.03295506816900857]",4.0,"[0.07632359747689525,-0.012505549268074822]",100.0,"[0.04004312541869063,0.02985020923143333]",4.0,"[-0.12531854734433615,-0.1415510027048431]",100.0,"[-0.060255653094988836,0.1308464496748632]",4.0,"[0.1268422800352858,0.1519399270760654]",100.0,"[0.10446158859264915,-0.08651642554184032]",4.0,"[-0.007368857396347451,-0.1574071150906031]",100.0,"[0.034453794801896385,-0.10464451759846982]",100.0,"[-0.036209618914276195,-0.1868502061882373]",100.0,"[-0.16907314832244724,-0.0837838198410501]",100.0,"[-0.11559618362298339,-0.05332717180993578]",100.0,"[-0.06556832501896447,-0.001955954723011779]",4.0,"[0.06891178527147823,0.15801696282214864]",100.0,"[0.1315037142654136,0.095567021447084]",4.0,"[-0.09017486345479496,0.17357917335799442]",100.0,"[-0.1502664328128256,0.0007771738539020838]",100.0,"[-0.16072239791224385,0.09858749689494319]",4.0,"[0.015342818976292825,0.1830096750607777]",4.0,"[0.10631543733776205,-0.040076123630774334]",4.0,"[0.010467064486856274,0.08580615372220471]",100.0,"[0.15388039103919002,-0.0283784885638094]",4.0,"[0.09042193132081201,0.06383318545942099]",100.0,"[0.021272673089937973,-0.19874042307274192]",100.0,"[-0.0273048639108885,0.1970523382924275]",4.0,"[-0.04658782629619486,-0.07495138834135588]",4.0,"[0.12142333132685011,0.0059835580339838235]",4.0,"[0.05256606950574864,-0.04475988788164423]",100.0,"[-0.008804345269683888,0.01210371465771602]",100.0,"[0.19112714883833876,-0.05161370641714061]",100.0,"[0.12960774347129642,0.048607961393518063]",100.0,"[0.02,0.02]",296.9267,0.0,40.0,40.0,73.0,1.0,,,,,,,
,,,,,,,66fb12ba2bfd1e0379ced77c,6842baf91828ed44861df872,2025-06-06_05h13.40.685,shape_ratio,2024.1.5,Win32,57.14285714,6842b561977af9ba9b0f87ca,,,,,,,,,,,296.927,297.4273,,,297.6786,298.161,right,0.4749,,,,,,,,,0.4,,,,,,297.4275,297.6785,298.1611,"[-0.03155415022207999,-0.0887433203518824]",100.0,"[-0.14738843847542973,-0.07213935613595406]",4.0,"[-0.060086912250027144,-0.15947313473555294]",100.0,"[0.042528196666911315,0.14553244950373756]",100.0,"[-0.11055491633603533,-0.0323777296021306]",4.0,"[-0.09561789478944491,0.027245092778147243]",100.0,"[0.02329325466792277,0.10896806806240024]",4.0,"[0.06997074911376648,0.10413962774919905]",4.0,"[0.07084299840923328,-0.10197716389419428]",100.0,"[-0.1475717356600906,0.012568252440401979]",4.0,"[-0.10246308831870336,-0.13479825392358524]",4.0,"[0.019088230340631708,-0.13568664686739476]",100.0,"[-0.06498148047146979,0.116340319573846]",4.0,"[0.16067289307002597,0.03539242435596405]",4.0,"[0.13051782338095405,0.07265437348630341]",100.0,"[0.14825331671749253,-0.028130936362334873]",4.0,"[0.1523585035061457,-0.11927917960802005]",100.0,"[0.027757131184515785,-0.016989909010086898]",4.0,"[0.000335358922596965,-0.055409671019809426]",4.0,"[-0.09143032580846956,-0.07884247542152963]",4.0,"[-0.10821986095484523,0.10224634384454077]",100.0,"[-0.16351479624746176,-0.02496319767369967]",4.0,"[0.03328839719755065,-0.18158329396792922]",4.0,"[0.18818619889286614,-0.014008191288548695]",4.0,"[-0.019159606898968992,0.0036689326631823543]",100.0,"[-0.0054569341129544055,0.18225281627483805]",4.0,"[-0.16278864378321115,0.05328379724274664]",4.0,"[-0.022312520546517976,0.12788702517401093]",100.0,"[0.10522864454823481,-0.001719168094422928]",100.0,"[-0.015106118245890126,0.07898608669057593]",4.0,"[-0.016839905118539698,-0.17956127959241125]",4.0,"[0.10258076648881424,-0.059740561183139446]",100.0,"[0.02,0.02]",299.2614,0.0,41.0,41.0,156.0,1.0,,,,,,,
,,,,,,,66fb12ba2bfd1e0379ced77c,6842baf91828ed44861df872,2025-06-06_05h13.40.685,shape_ratio,2024.1.5,Win32,57.14285714,6842b561977af9ba9b0f87ca,,,,,,,,,,,299.2625,299.7615,,,300.0125,300.4603,left,0.4353,,,,,,,,,0.5,,,,,,299.7615,300.0124,300.4604,"[0.0968471773891424,-0.03643159782777619]",4.0,"[0.14900582764972015,-0.02042811229128898]",100.0,"[-0.1400369970251879,0.12649511671071703]",100.0,"[0.03482267078231927,0.16629239292084766]",100.0,"[-0.19376991558913764,0.03525086849339932]",4.0,"[0.025483455787364027,-0.09446725045153251]",100.0,"[0.055955832234783086,0.12466128506786255]",4.0,"[-0.09757466353104942,-0.011186035817162257]",4.0,"[0.16798005793798723,0.09172676200988371]",4.0,"[-0.012955362794192033,0.1535767489522609]",100.0,"[-0.01885410652079739,-0.17999994121968219]",100.0,"[-0.0018525598804398913,0.035300923788669544]",100.0,"[-0.10985791721991847,-0.051873666155128416]",4.0,"[-0.019463648946534955,-0.11060393680138891]",100.0,"[0.12499687583688573,0.10879607693524106]",100.0,"[0.07995837896865794,-0.13423740722057756]",4.0,"[-0.07001518130288427,0.16392015686600145]",4.0,"[0.005847432119403515,-0.026640201289366967]",4.0,"[0.14034265330500198,-0.06989268404750622]",4.0,"[-0.1525828468842225,-0.10787173477541648]",4.0,"[0.07338989925643317,0.07200728944343969]",100.0,"[0.07138778768483428,0.007663368397649925]",4.0,"[-0.0854406262437399,-0.12504195010296779]",100.0,"[-0.19112211750270958,-0.01140757094489226]",100.0,"[0.045499714854276035,-0.18353011166858535]",100.0,"[-0.028671355484597046,0.06823518235726522]",100.0,"[0.05754604706945888,-0.06050766277611123]",100.0,"[-0.10620359872447852,0.07424047264293285]",100.0,"[0.11981274750822764,0.05039596505166891]",4.0,"[-0.09034524630767757,0.11360863084607369]",4.0,"[0.10117357544121623,0.17153412698342252]",4.0,"[-0.007533463458976086,0.19594510770039233]",4.0,"[0.02,0.02]",301.5608,0.0,42.0,42.0,103.0,1.0,,,,,,,
,,,,,,,66fb12ba2bfd1e0379ced77c,6842baf91828ed44861df872,2025-06-06_05h13.40.685,shape_ratio,2024.1.5,Win32,57.14285714,6842b561977af9ba9b0f87ca,,,,,,,,,,,301.5615,302.0612,,,302.3126,302.7617,right,0.4374,,,,,,,,,0.9,,,,,,302.0614,302.3124,302.7619,"[0.03941710638762525,-0.0038188540759806497]",100.0,"[-0.010560315405694297,-0.09030471683098358]",100.0,"[0.07894969721695966,-0.04434246658854915]",100.0,"[0.11560692701140926,0.08776444285537358]",100.0,"[-0.05664783474744343,-0.011470400380523561]",100.0,"[-0.12714807148249926,0.007203265074329839]",100.0,"[-0.1481610950145147,0.10952144070146086]",100.0,"[0.13552057504415552,-0.04946053031486665]",100.0,"[0.07195744287160825,0.10473821255807743]",4.0,"[-0.036784161510884254,0.17183317506650578]",4.0,"[0.002913205157494165,0.18342567768927312]",100.0,"[-0.08343808024384854,-0.16114101248956458]",100.0,"[-0.19248254412770568,0.0036481006102744087]",100.0,"[0.16378103937737318,0.10376397167417756]",100.0,"[0.17661103626842262,-0.04074416856321686]",100.0,"[-0.023478161384767993,0.06400498052246352]",100.0,"[-0.11291573698644453,-0.07056498440093806]",4.0,"[0.05816745178976883,-0.11486154320305016]",100.0,"[0.1420827786969967,-0.0026955100540905826]",100.0,"[-0.0019205528320002459,0.12823517174441448]",100.0,"[-0.07960835581818844,-0.1000342836213298]",100.0,"[-0.08006542800599648,0.10767655123434398]",100.0,"[0.052743863177182486,0.1438498152255387]",100.0,"[0.016434236265968887,0.07726000211305467]",100.0,"[-0.08604091562146945,0.16680145787606804]",100.0,"[0.08868604305654153,0.028456999904244037]",100.0,"[-0.1510694466597059,-0.10210698391793463]",100.0,"[0.0008623344233359394,0.013354533351004413]",100.0,"[0.09503702881642337,0.1390160469221961]",100.0,"[0.007809197360579618,-0.15621773770350342]",100.0,"[0.14400470024076273,-0.09104308320740427]",100.0,"[-0.037659837753498446,-0.1688427450019306]",100.0,"[0.02,0.02]",303.8611,0.0,43.0,43.0,22.0,1.0,,,,,,,
,,,,,,,66fb12ba2bfd1e0379ced77c,6842baf91828ed44861df872,2025-06-06_05h13.40.685,shape_ratio,2024.1.5,Win32,57.14285714,6842b561977af9ba9b0f87ca,,,,,,,,,,,303.8624,304.3611,,,304.6129,305.1789,left,0.5518,,,,,,,,,0.6,,,,,,304.3612,304.6128,305.179,"[0.190752740595761,-0.05936172484854204]",4.0,"[0.01751919285364931,-0.08973206564020769]",100.0,"[-0.003625740411930346,0.12975746353729226]",100.0,"[0.07129404269949544,-0.07078916105168095]",4.0,"[-0.1560058410570067,0.07214437061818106]",4.0,"[0.06137332760759385,-0.1538929629422782]",100.0,"[-0.14225251422358148,0.010979858359977848]",100.0,"[-0.05707957370307664,0.12238644837494617]",4.0,"[0.04954316376809054,0.029866449854060097]",4.0,"[-0.08347721757495927,0.01895451739753217]",100.0,"[0.10889007058590061,-0.1104435344132132]",100.0,"[0.005338649903107562,-0.011928891289944035]",100.0,"[0.1868378985548135,0.045083780506834745]",100.0,"[0.12073809942481116,0.07397945417221895]",100.0,"[-0.19297671835389088,-0.05077878327651037]",100.0,"[0.026645628693464467,0.17345730186952088]",100.0,"[0.1811586118796131,-0.014503270617547514]",4.0,"[-0.012377597263455725,-0.12348978084770247]",4.0,"[0.03996205991845736,0.09976673749704044]",4.0,"[0.08200876574340328,0.12006954108733409]",100.0,"[-0.12529473938128127,0.11173334690287384]",100.0,"[-0.05719404164161419,-0.054270184504172175]",4.0,"[-0.0974396391830487,0.15178515710994203]",100.0,"[-0.17347987861346412,-0.08964120990099499]",4.0,"[-0.09793273012275769,0.06579183263069212]",100.0,"[-0.09036523797935059,-0.1195410705450396]",4.0,"[0.11296701999039904,-0.030223670024037166]",4.0,"[0.07131261738974527,0.17862594431741102]",100.0,"[0.13170401812213534,0.11573718066889772]",4.0,"[0.13117804520135476,-0.06696152432430953]",100.0,"[0.07867789082833011,0.06954963973970846]",100.0,"[-0.1892970903143348,0.01689643940143102]",100.0,"[0.02,0.02]",306.2787,0.0,44.0,44.0,59.0,1.0,,,,,,,
,,,,,,,66fb12ba2bfd1e0379ced77c,6842baf91828ed44861df872,2025-06-06_05h13.40.685,shape_ratio,2024.1.5,Win32,57.14285714,6842b561977af9ba9b0f87ca,,,,,,,,,,,306.2798,306.7789,,,307.0282,307.3617,right,0.321,,,,,,,,,0.9,,,,,,306.7789,307.0282,307.3618,"[-0.07955429835810393,0.06157567773848121]",100.0,"[0.01744554501170806,-0.09071558339716974]",100.0,"[0.07405138634717205,0.08530824633742129]",100.0,"[0.06697679048800284,-0.11520036812739007]",100.0,"[-0.09247372547808003,0.0071282820355486765]",100.0,"[-0.09951015200511794,-0.16498307974912796]",4.0,"[0.03942792640654396,-0.01094516088098059]",100.0,"[0.04724570423173216,0.13323620418940246]",4.0,"[0.007664406068127338,-0.18043254493672414]",100.0,"[-0.11761132896027104,0.14554577599310034]",100.0,"[0.025036649587792177,0.17504281298845328]",100.0,"[-0.16462823980441957,0.048497663264205404]",100.0,"[0.1084364146324611,0.14352746531270816]",100.0,"[-0.15473042878178178,-0.001313500116162792]",100.0,"[-0.08278383231378372,-0.12441630775519436]",100.0,"[-0.05536201673993526,0.1458493483027971]",100.0,"[0.12255241819010813,-0.08198411770233008]",100.0,"[-0.13722660116541022,-0.0914713949977237]",100.0,"[0.1656737463349542,0.026262612102399725]",4.0,"[-0.05659489705150037,-0.16461257967359708]",100.0,"[0.11703117094437554,0.09641574268153986]",100.0,"[-0.04490385990922675,-0.06295136256172898]",100.0,"[0.013888097346823315,-0.13551588339598541]",100.0,"[0.16102889059482703,0.09661512880550965]",100.0,"[0.019759951182340516,0.050782348823862795]",100.0,"[0.1041500503204564,-0.1366640687372346]",100.0,"[-0.13279528784850037,0.08392800960961841]",100.0,"[0.14857257428857823,-0.12068491219177939]",100.0,"[0.16783275812674772,-0.0271051262476124]",100.0,"[-0.02205085021969906,0.0017703439407586832]",100.0,"[-0.0893737475037082,-0.07579943519509616]",100.0,"[0.11279621170616906,-0.02307038845160449]",100.0,"[0.02,0.02]",308.4618,0.0,45.0,45.0,8.0,1.0,,,,,,,
,,,,,,,66fb12ba2bfd1e0379ced77c,6842baf91828ed44861df872,2025-06-06_05h13.40.685,shape_ratio,2024.1.5,Win32,57.14285714,6842b561977af9ba9b0f87ca,,,,,,,,,,,308.4636,308.9616,,,309.2116,309.6785,right,0.4581,,,,,,,,,0.4,,,,,,308.9618,309.2116,309.6787,"[-0.16078247611727597,0.004007592534682201]",100.0,"[0.002058191488612558,-0.05627713816061101]",4.0,"[0.04152075330505112,0.02914400527453453]",4.0,"[0.03031842860944456,-0.12921393953165347]",4.0,"[-0.06842318328772892,-0.07898919669671113]",100.0,"[0.0183287838395141,0.18870965962019748]",4.0,"[-0.0764173248143513,0.11863731018358142]",4.0,"[-0.04979183817492824,-0.11951696065572343]",4.0,"[0.114356831834768,-0.023126146637170168]",100.0,"[0.10711607868749523,0.04404666777344598]",4.0,"[-0.05440455038232763,0.054976127012911984]",4.0,"[0.12144032630020726,-0.1464901476593881]",4.0,"[0.035436046824128084,-0.19373012040364423]",100.0,"[0.04118560191126371,0.1168121870542171]",4.0,"[-0.1017087743503101,-0.14862750423643867]",100.0,"[-0.09340144644522538,0.15691358214565387]",4.0,"[0.06360873228820142,0.1537274966337025]",100.0,"[0.16431807071377508,0.08590018081786158]",100.0,"[-0.17407085105733133,-0.06872740928008209]",100.0,"[-0.0035800404249094753,0.06999825399216872]",100.0,"[-0.13169925898277235,-0.06732390138472102]",100.0,"[0.1209528713947584,0.10889089181188752]",4.0,"[-0.02514310657449105,0.17184097760946335]",4.0,"[0.13995451301569037,-0.07052876606306124]",100.0,"[0.05434244222319134,-0.06262630208776444]",4.0,"[-0.07121642500075162,0.011333432330619937]",100.0,"[-0.02277756542082639,0.02933678470504859]",100.0,"[-0.1458632241977568,0.05846949329926863]",4.0,"[0.1837221033548076,0.009489739513338093]",4.0,"[-0.10256459656957617,0.08118397444475658]",4.0,"[0.09324131167398529,-0.10743286942450556]",4.0,"[-0.05472990005958505,-0.16549429820593214]",4.0,"[0.02,0.02]",310.7774,0.0,46.0,46.0,171.0,1.0,,,,,,,
,,,,,,,66fb12ba2bfd1e0379ced77c,6842baf91828ed44861df872,2025-06-06_05h13.40.685,shape_ratio,2024.1.5,Win32,57.14285714,6842b561977af9ba9b0f87ca,,,,,,,,,,,310.7782,311.2771,,,311.5301,311.9944,right,0.4451,,,,,,,,,0.55,,,,,,311.2773,311.5301,311.9946,"[0.04279533086858697,0.09304996293862866]",4.0,"[-0.060487646200254354,-0.01966311046795209]",4.0,"[0.12166667474632287,-0.14450820873401007]",4.0,"[0.0538134305430032,0.15604946881761136]",100.0,"[-0.17609094398049574,0.013547341354047926]",4.0,"[-0.055614913829003375,-0.11240528891815807]",100.0,"[0.14204981545501344,0.1327359046631947]",100.0,"[-0.16540032194151622,-0.10844851803218743]",100.0,"[0.015301307857982982,-0.18429345076414128]",100.0,"[-0.11484726531166636,-0.08776698329087748]",100.0,"[0.13064325083895165,0.06422597272495745]",4.0,"[0.02484852163455655,-0.06280565234711556]",100.0,"[0.07224894449117968,0.004606688250337734]",4.0,"[-0.007940358004651963,0.011800078173267115]",100.0,"[0.19276997518274971,-0.03611668426631033]",100.0,"[0.17729871908680725,0.03465749083849739]",4.0,"[-0.08900023054464212,0.17306011852067812]",100.0,"[-0.018039144034627173,0.1493320314025888]",100.0,"[-0.06774736211482027,-0.17247047812280544]",4.0,"[0.09757403997453426,-0.04801734244732927]",100.0,"[-0.06759336327673623,0.029011923931371027]",100.0,"[-0.08987660145040048,0.12871764950814396]",100.0,"[0.015984491924949325,-0.1177318521762141]",4.0,"[0.14627250244318887,-0.10313066688715634]",100.0,"[-0.14105014333374735,0.12464584702456788]",4.0,"[-0.10566638698129786,-0.036241444107146005]",100.0,"[-0.1744996932704794,0.08986277604925663]",4.0,"[0.08459772875450641,0.09867653810465624]",4.0,"[-0.18277430881951318,-0.061801485107494954]",100.0,"[-0.13260282067955093,0.054409362464307914]",4.0,"[0.12317415802140919,-0.016702703123452005]",4.0,"[-0.04185679891571812,0.10109930715962835]",100.0,"[0.02,0.02]",313.0949,0.0,47.0,47.0,88.0,1.0,,,,,,,
,,,,,,,66fb12ba2bfd1e0379ced77c,6842baf91828ed44861df872,2025-06-06_05h13.40.685,shape_ratio,2024.1.5,Win32,57.14285714,6842b561977af9ba9b0f87ca,,,,,,,,,,,313.0959,313.5946,,,313.8487,314.2126,right,0.3402,,,,,,,,,0.6,,,,,,313.5947,313.8486,314.2127,"[0.12382167514780855,-0.14277218088530977]",100.0,"[0.041339239412468747,0.18822799072352775]",4.0,"[0.0035750884147003176,-0.16031901308862315]",100.0,"[0.012552814574427265,0.15192664465328581]",4.0,"[-0.11643246997810103,-0.010114067182947824]",4.0,"[0.1345915641916022,-0.006793965341832214]",100.0,"[0.1361661660013323,0.06572339802648039]",4.0,"[-0.060531910748483936,-0.17457806712710114]",100.0,"[0.05498206980668787,-0.06146641941477497]",100.0,"[-0.11133896214622478,-0.06341480481048654]",100.0,"[-0.05726643704721967,0.06706421983042493]",4.0,"[0.015542469819886185,-0.11578213441526658]",100.0,"[0.17022508717081183,-0.08831848819741588]",100.0,"[-0.11859988806750552,-0.15354998905738504]",4.0,"[-0.06885916010801443,0.02087209416700192]",100.0,"[-0.16431003826801663,0.06478714505961675]",100.0,"[-0.13187117998724912,0.14398821600321193]",100.0,"[-0.07310057964469094,-0.021676710685016306]",100.0,"[-0.037917737629146915,-0.14035766829590438]",100.0,"[0.07112853617248718,0.03509919325968849]",100.0,"[-0.006258367302869917,0.05895216005354263]",4.0,"[0.0031377072844860185,0.005285026316824427]",4.0,"[-0.10009499302315854,0.10409159749652644]",4.0,"[0.05728926962157846,-0.15368543611549343]",100.0,"[-0.12588414597684847,0.03721314146100167]",4.0,"[0.16852146547214492,0.09679457213239227]",4.0,"[-0.07524073589877947,0.15836837606780094]",100.0,"[-0.1258610320377732,-0.10445853093283478]",4.0,"[0.06169154974486341,0.1346053694604876]",100.0,"[-0.020011503382864816,-0.19820547480871714]",100.0,"[0.10403870809176946,-0.05217467446346216]",4.0,"[-0.1441816688246398,-0.03984618006961187]",100.0,"[0.02,0.02]",315.3119,0.0,48.0,48.0,57.0,1.0,,,,,,,
,,,,,,,66fb12ba2bfd1e0379ced77c,6842baf91828ed44861df872,2025-06-06_05h13.40.685,shape_ratio,2024.1.5,Win32,57.14285714,6842b561977af9ba9b0f87ca,,,,,,,,,,,315.3138,315.8124,,,316.063,316.4291,left,0.3533,,,,,,,,,0.4,,,,,,315.8124,316.0628,316.4293,"[0.010286092293300427,-0.01882997145449545]",4.0,"[0.028245745292323182,-0.054687734548406454]",100.0,"[0.11302925572921253,0.13577116316803428]",100.0,"[0.08042752862670782,-0.14098380547299375]",100.0,"[-0.14929737227672638,-0.07436408603048446]",100.0,"[-0.018375730971686648,-0.18603474605464365]",4.0,"[-0.0991267243794223,0.0268333588246021]",4.0,"[-0.08715162400551742,0.1339396069553457]",100.0,"[0.1697648198387903,0.03277800479014478]",4.0,"[0.02842009014359351,0.11491181502868719]",4.0,"[-0.08419222446775684,-0.1634913508030051]",4.0,"[0.14322071469603198,-0.028874188611442267]",4.0,"[0.07073815302377764,0.03294946764537337]",100.0,"[-0.09380614445939668,-0.11919066911491137]",4.0,"[-0.04164986205460232,-0.024623220924213277]",100.0,"[-0.13390265863147363,0.14604488434467577]",100.0,"[-0.12885338841953303,0.06955098639756087]",4.0,"[-0.1284951063900429,-0.14929326324261338]",4.0,"[-0.04033010706027705,0.09352697288212392]",100.0,"[0.11644565142344238,0.06403440663496593]",4.0,"[-0.022661948350403048,-0.08614305876865766]",4.0,"[-0.07682859942315143,-0.06871939806219131]",100.0,"[-0.12702349580487607,-0.03304120563444996]",4.0,"[-0.03264044318497429,-0.13413958597568162]",4.0,"[-0.17877218522322674,-0.0035468799590282784]",100.0,"[-0.046997948145178756,0.026255496421608918]",4.0,"[-0.0057076858484471065,0.14123461185565467]",4.0,"[0.07195713592555288,0.09184624887596167]",4.0,"[0.13524461662871473,-0.11810385855672316]",100.0,"[-0.183561841866642,0.06515197142981882]",4.0,"[0.010140762518661563,0.19569248248505824]",100.0,"[0.1479550140188912,-0.07788503338740634]",4.0,"[0.02,0.02]",317.5287,0.0,49.0,49.0,164.0,1.0,,,,,,,
