right,left,explain.started,explain.stopped,key_resp_3.keys,key_resp_3.rt,key_resp_3.duration,participant,session,date,expName,psychopyVersion,OS,frameRate,study_id,explain_2.started,explain_2.stopped,key_resp_4.keys,key_resp_4.rt,key_resp_4.duration,explain_3.started,explain_3.stopped,key_resp_5.keys,key_resp_5.rt,key_resp_5.duration,fixation.started,fixation.stopped,practice.started,practice.stopped,response.started,response.stopped,key_resp.keys,feedback.started,feedback.stopped,trials_2.thisRepN,trials_2.thisTrialN,trials_2.thisN,trials_2.thisIndex,trials_2.ran,dot_ratio,key_resp.rt,key_resp.duration,explain_4.started,explain_4.stopped,key_resp_6.keys,key_resp_6.rt,key_resp_6.duration,dotDisplay.started,dotDisplay.stopped,ITI.started,polygon_1.pos,polygon_1.edges,polygon_2.pos,polygon_2.edges,polygon_3.pos,polygon_3.edges,polygon_4.pos,polygon_4.edges,polygon_5.pos,polygon_5.edges,polygon_6.pos,polygon_6.edges,polygon_7.pos,polygon_7.edges,polygon_8.pos,polygon_8.edges,polygon_9.pos,polygon_9.edges,polygon_10.pos,polygon_10.edges,polygon_11.pos,polygon_11.edges,polygon_12.pos,polygon_12.edges,polygon_13.pos,polygon_13.edges,polygon_14.pos,polygon_14.edges,polygon_15.pos,polygon_15.edges,polygon_16.pos,polygon_16.edges,polygon_17.pos,polygon_17.edges,polygon_18.pos,polygon_18.edges,polygon_19.pos,polygon_19.edges,polygon_20.pos,polygon_20.edges,polygon_21.pos,polygon_21.edges,polygon_22.pos,polygon_22.edges,polygon_23.pos,polygon_23.edges,polygon_24.pos,polygon_24.edges,polygon_25.pos,polygon_25.edges,polygon_26.pos,polygon_26.edges,polygon_27.pos,polygon_27.edges,polygon_28.pos,polygon_28.edges,polygon_29.pos,polygon_29.edges,polygon_30.pos,polygon_30.edges,polygon_31.pos,polygon_31.edges,polygon_32.pos,polygon_32.edges,dot_size,ITI.stopped,trials.thisRepN,trials.thisTrialN,trials.thisN,trials.thisIndex,trials.ran,break_2.started,break_2.stopped,trials_3.thisRepN,trials_3.thisTrialN,trials_3.thisN,trials_3.thisIndex,trials_3.ran
subject chose diamond,subject chose dot,0.0004,71.6493,space,56.6288,,672b330d847a68f7de308027,684429403ff03c54a4ebd4d9,2025-06-07_11h59.44.590,shape_ratio,2024.1.5,Win32,59.88023952,684250e4f00cb30b92d1fa88,,,,,,,,,,,,,,,,,,,,,,,,,,,,,,,,,,,,,,,,,,,,,,,,,,,,,,,,,,,,,,,,,,,,,,,,,,,,,,,,,,,,,,,,,,,,,,,,,,,,,,,,,,,,,,,,,
,,,,,,,672b330d847a68f7de308027,684429403ff03c54a4ebd4d9,2025-06-07_11h59.44.590,shape_ratio,2024.1.5,Win32,59.88023952,684250e4f00cb30b92d1fa88,71.6517,110.9545,space,9.2927,,,,,,,,,,,,,,,,,,,,,,,,,,,,,,,,,,,,,,,,,,,,,,,,,,,,,,,,,,,,,,,,,,,,,,,,,,,,,,,,,,,,,,,,,,,,,,,,,,,,,,,,,,,,,
,,,,,,,672b330d847a68f7de308027,684429403ff03c54a4ebd4d9,2025-06-07_11h59.44.590,shape_ratio,2024.1.5,Win32,59.88023952,684250e4f00cb30b92d1fa88,,,,,,110.9554,115.1869,space,1.2118,,,,,,,,,,,,,,,,,,,,,,,,,,,,,,,,,,,,,,,,,,,,,,,,,,,,,,,,,,,,,,,,,,,,,,,,,,,,,,,,,,,,,,,,,,,,,,,,,,,,,,,,
,,,,,,,672b330d847a68f7de308027,684429403ff03c54a4ebd4d9,2025-06-07_11h59.44.590,shape_ratio,2024.1.5,Win32,59.88023952,684250e4f00cb30b92d1fa88,,,,,,,,,,,115.226,115.7016,115.7023,115.9533,115.9548,117.4513,,117.4516,118.5515,0.0,0.0,0.0,1.0,1.0,0.8,,,,,,,,,,,,,,,,,,,,,,,,,,,,,,,,,,,,,,,,,,,,,,,,,,,,,,,,,,,,,,,,,,,,,,,,,,,,,,,,,,,,,,,,
,,,,,,,672b330d847a68f7de308027,684429403ff03c54a4ebd4d9,2025-06-07_11h59.44.590,shape_ratio,2024.1.5,Win32,59.88023952,684250e4f00cb30b92d1fa88,,,,,,,,,,,118.5541,119.0509,119.051,119.3014,119.3014,119.7006,left,119.7008,120.8002,0.0,1.0,1.0,0.0,1.0,0.2,0.3853,,,,,,,,,,,,,,,,,,,,,,,,,,,,,,,,,,,,,,,,,,,,,,,,,,,,,,,,,,,,,,,,,,,,,,,,,,,,,,,,,,,,,,,
,,,,,,,672b330d847a68f7de308027,684429403ff03c54a4ebd4d9,2025-06-07_11h59.44.590,shape_ratio,2024.1.5,Win32,59.88023952,684250e4f00cb30b92d1fa88,,,,,,,,,,,,,,,,,,,,,,,,,,,,120.8008,123.9206,space,0.0995,,,,,,,,,,,,,,,,,,,,,,,,,,,,,,,,,,,,,,,,,,,,,,,,,,,,,,,,,,,,,,,,,,,,,,,,,,,,,,,,,,
,,,,,,,672b330d847a68f7de308027,684429403ff03c54a4ebd4d9,2025-06-07_11h59.44.590,shape_ratio,2024.1.5,Win32,59.88023952,684250e4f00cb30b92d1fa88,,,,,,,,,,,123.9448,124.4332,,,124.6841,124.9162,right,,,,,,,,0.4,0.2164,,,,,,,124.4346,124.6839,124.9169,"[0.001003635090325448,-0.08278972680938647]",4.0,"[-0.038841137889346615,-0.18459992415311097]",4.0,"[0.038695891601390454,-0.026996727215851238]",100.0,"[0.11984627350889497,-0.027195644663809703]",4.0,"[-0.13089653504538573,-0.15114603208069236]",4.0,"[0.09042097771221108,-0.16927534275661107]",100.0,"[-0.14124351873114477,-0.1097274987285617]",4.0,"[0.1667063643873814,-0.014685544088899735]",4.0,"[0.07192159156782917,0.12533251903740952]",4.0,"[-0.12711059295924554,-0.009294476733836515]",4.0,"[-0.061006809462064215,-0.004717139764936987]",100.0,"[0.05706389156257125,0.1753866865142154]",100.0,"[-0.14978676649481495,0.12015377278114382]",4.0,"[-0.1285000438861925,0.04284600728898763]",100.0,"[-0.1743130316364762,0.03989884163124497]",100.0,"[0.04468347692694187,-0.1295376869035689]",100.0,"[0.06082560122069143,0.023969396128229577]",4.0,"[-0.0005872620585017558,0.19701017066181714]",4.0,"[-0.027071167381391578,-0.04571930840285811]",4.0,"[-0.09751550587361058,0.088580592320145]",4.0,"[0.11008718356515707,0.035947876075093275]",100.0,"[-0.01999067856966875,-0.00009185663203522236]",4.0,"[-0.08613900867219054,0.03438977092551532]",100.0,"[-0.04015221534795067,0.11070611205464073]",100.0,"[0.07040522375095529,0.07389594270661413]",4.0,"[0.0015155131757603987,-0.19916154770018438]",100.0,"[-0.03819223121391963,0.04619361646492082]",100.0,"[0.1205858235276134,-0.12267334742520652]",4.0,"[0.017570764820052147,0.04067338045571835]",100.0,"[-0.061102384134599515,0.16221639251509054]",4.0,"[0.1404442447341159,0.07955723379539752]",4.0,"[0.08131626136384734,-0.0974666657732592]",4.0,"[0.02,0.02]",126.0164,0.0,0.0,0.0,167.0,1.0,,,,,,,
,,,,,,,672b330d847a68f7de308027,684429403ff03c54a4ebd4d9,2025-06-07_11h59.44.590,shape_ratio,2024.1.5,Win32,59.88023952,684250e4f00cb30b92d1fa88,,,,,,,,,,,126.0174,126.516,,,126.7664,127.0837,right,,,,,,,,0.5,0.3017,,,,,,,126.5162,126.7664,127.0838,"[0.016705834671014247,0.057675933198047466]",4.0,"[-0.18349865537107496,0.03153040697352097]",4.0,"[0.11092186005988801,-0.10281862692671259]",4.0,"[-0.03197909604042961,0.14230544839055304]",4.0,"[-0.18121056434760707,-0.05129111993852023]",100.0,"[-0.006133144916214527,-0.0074503707622243795]",100.0,"[-0.0236549577261606,0.04127609021323549]",4.0,"[0.185923550440732,0.04314519835590178]",100.0,"[0.03620466339679491,-0.1377670708732741]",100.0,"[0.0573240992295368,-0.060102251553400536]",4.0,"[0.06075960732692486,-0.16988563263925466]",100.0,"[-0.11379154290173278,-0.0761806364757141]",100.0,"[0.09835057492423789,-0.020214133405489287]",100.0,"[0.10873237570984756,0.09673087203622523]",4.0,"[-0.09855912251440156,0.009398628879981108]",4.0,"[-0.0739334737317336,0.04427178509224083]",100.0,"[-0.0766684594768036,-0.038810158583222384]",4.0,"[0.055686245107262194,0.09260909424561906]",4.0,"[-0.0685104211234432,-0.10777121517279747]",100.0,"[0.09733812632009688,-0.06494374527104897]",100.0,"[-0.12250111253108337,0.0760475348063379]",100.0,"[0.002138676766073518,-0.06928159145718138]",100.0,"[-0.10118753753736018,0.16309345753440632]",100.0,"[0.17224988734507402,-0.041205536539108176]",4.0,"[-0.03587703710833149,0.09259141188743517]",4.0,"[0.03785842190474044,-0.015126484841797678]",100.0,"[-0.0016860281983173506,0.19634021143292543]",100.0,"[0.1401535161065349,-0.1370504652772926]",4.0,"[-0.16792438342668928,0.08755543981295762]",4.0,"[0.12022951661084917,0.03469931540211813]",4.0,"[0.07446727520255918,-0.12245617685023262]",4.0,"[0.020038437911888692,-0.17863935967325956]",100.0,"[0.02,0.02]",128.1822,0.0,1.0,1.0,113.0,1.0,,,,,,,
,,,,,,,672b330d847a68f7de308027,684429403ff03c54a4ebd4d9,2025-06-07_11h59.44.590,shape_ratio,2024.1.5,Win32,59.88023952,684250e4f00cb30b92d1fa88,,,,,,,,,,,128.1829,128.6823,,,128.9327,129.0988,right,,,,,,,,0.4,0.1511,,,,,,,128.6823,128.9326,129.0989,"[0.12718662222334834,-0.041696854854452785]",100.0,"[-0.02635491295610276,0.11960332521486382]",4.0,"[-0.0278897788280411,-0.013852607972413907]",100.0,"[0.1466088310351959,0.11733760388181937]",100.0,"[0.1277200245447635,0.06834497891544418]",100.0,"[0.06568459481476151,-0.14657821077925215]",100.0,"[-0.045556108288313676,-0.16154201154368902]",4.0,"[0.19294841504658153,-0.035435026904976706]",4.0,"[-0.1575331163187573,0.103771069821055]",4.0,"[-0.023121243834753488,0.036337013380943584]",100.0,"[0.0041337937712414,-0.11050973882322467]",4.0,"[-0.09954425700212458,0.12680557552030836]",100.0,"[-0.054786812388033894,-0.06934252633161152]",4.0,"[0.01648808862632354,-0.032962785973422185]",4.0,"[0.07868524983220358,-0.08805286732912826]",4.0,"[0.028137660512760284,0.050387369053111836]",100.0,"[-0.16454029597580494,-0.022958642622524852]",4.0,"[0.043294278378541384,0.14957947043491152]",100.0,"[-0.19907222475859224,0.004211033883500506]",4.0,"[-0.1184736967083521,0.04099030833400953]",100.0,"[-0.055768940641823674,0.17829000091503264]",100.0,"[0.16150349828756713,0.030706738526427357]",4.0,"[0.05178638166670401,0.08475522397538834]",100.0,"[-0.12801259765756565,-0.10222286547773533]",4.0,"[0.14661831401522726,-0.08655271180445111]",4.0,"[0.033791893313202495,-0.07054710728707261]",4.0,"[-0.10889181510221581,-0.05023129858941682]",4.0,"[0.12183252620206617,0.015517125245148363]",100.0,"[0.0013129274872750415,0.17744380329398257]",4.0,"[-0.011823773216901137,-0.0693943394708056]",4.0,"[-0.06552832116486189,0.00754716112417519]",4.0,"[0.08894387919487612,0.04208574785248968]",4.0,"[0.02,0.02]",130.1989,0.0,2.0,2.0,162.0,1.0,,,,,,,
,,,,,,,672b330d847a68f7de308027,684429403ff03c54a4ebd4d9,2025-06-07_11h59.44.590,shape_ratio,2024.1.5,Win32,59.88023952,684250e4f00cb30b92d1fa88,,,,,,,,,,,130.1999,130.6981,,,130.9489,131.1154,right,,,,,,,,0.5,0.1539,,,,,,,130.6983,130.9489,131.1157,"[0.009068573585443641,0.09998375931783735]",4.0,"[-0.06376895541859251,-0.1333688257582307]",100.0,"[-0.0345440143366544,0.11099223789784313]",4.0,"[0.0155803293571764,0.008166843247360164]",100.0,"[-0.1336346364536699,-0.03411843368713382]",4.0,"[-0.08362666382037105,-0.033688825757988816]",4.0,"[0.04576085018214295,-0.12734179458309303]",100.0,"[-0.02377961078764053,-0.18039782930878442]",4.0,"[-0.01006841964858387,-0.11003161321814313]",100.0,"[0.06077787683135878,-0.16772583962576365]",100.0,"[-0.15045270099156693,-0.10609236754477935]",4.0,"[-0.09687477874307707,0.12211249530137798]",4.0,"[-0.14895993401155339,0.023315903128976245]",100.0,"[0.1583638753284855,-0.11214242567557228]",4.0,"[0.050571034675586324,-0.07778997010179613]",100.0,"[0.1159979277257905,0.031668915458775475]",100.0,"[0.14135877494787955,0.0903211705816222]",100.0,"[0.09104254990105527,-0.1149256162187613]",4.0,"[0.18854568924013293,-0.010708197681418829]",100.0,"[-0.03523170854024258,0.1653318525669385]",4.0,"[-0.060181578502244634,0.002503479690213443]",100.0,"[0.09191997588825866,0.06544817083428732]",100.0,"[0.09312314214440402,-0.05549606929447687]",100.0,"[-0.07023373616325893,0.06954799039614785]",4.0,"[-0.08787375559146444,-0.07867832398346643]",100.0,"[0.024838480098612885,-0.1958253990831186]",4.0,"[-0.021969609598254496,-0.03287168871172811]",4.0,"[-0.10735161568133987,0.05427614785582863]",100.0,"[0.18982450126085812,0.05943028451662555]",4.0,"[-0.15739806280068433,0.08224000192272882]",4.0,"[0.11591248678873615,0.1529869053298236]",4.0,"[0.13362591862665074,-0.14430661366833855]",100.0,"[0.02,0.02]",132.2148,0.0,3.0,3.0,95.0,1.0,,,,,,,
,,,,,,,672b330d847a68f7de308027,684429403ff03c54a4ebd4d9,2025-06-07_11h59.44.590,shape_ratio,2024.1.5,Win32,59.88023952,684250e4f00cb30b92d1fa88,,,,,,,,,,,132.2156,132.7144,,,132.9652,133.1983,right,,,,,,,,0.6,0.2193,,,,,,,132.7145,132.9652,133.1984,"[0.18410755193872141,-0.04085537979257601]",100.0,"[-0.12730288497328784,0.06327005588883872]",4.0,"[-0.08539619749965317,0.03518624937009591]",100.0,"[-0.09541549695567811,0.13881852630751754]",4.0,"[0.04311845883965994,-0.08420129532362446]",4.0,"[0.1952167597688175,0.006453162831958525]",4.0,"[-0.16317094694968615,0.04496175966118918]",100.0,"[-0.09872124848912203,-0.12335906145513535]",100.0,"[-0.04857872853201392,-0.06144792842646454]",100.0,"[0.1423915812985494,0.0013642595105252985]",100.0,"[-0.046021838465912394,0.058226953578089984]",100.0,"[-0.03511614844544615,0.005103145042439274]",4.0,"[0.03442961069844337,0.03454302493179105]",4.0,"[-0.1748170576147688,-0.002249207634370243]",4.0,"[0.10010068608831503,-0.013691357898223445]",100.0,"[-0.04838056007657128,0.11540548401105766]",100.0,"[-0.05745780132706907,-0.12375252470866797]",100.0,"[0.05527930791132659,-0.0235347209851227]",4.0,"[0.14641438300368032,0.08170967870202751]",100.0,"[0.017137984448589372,0.09117276194313162]",100.0,"[0.1565400313498838,0.12351584414525389]",4.0,"[0.02418140121223466,0.16627849162239614]",100.0,"[0.06262447656623826,0.12115373953693687]",4.0,"[-0.09401776800162477,-0.060915699093440454]",100.0,"[0.10222782969802671,-0.061125082313497454]",100.0,"[0.022119188006747573,-0.12701762074921402]",100.0,"[0.1123568243029978,-0.11608565874779284]",100.0,"[-0.008682514304943009,0.13721931769407297]",100.0,"[-0.055247367720292914,0.17582467350052136]",4.0,"[0.16948901745941797,-0.07908003701814746]",4.0,"[0.11000397770679808,0.03490039137669257]",100.0,"[-0.1504345212966859,-0.12583700207883175]",4.0,"[0.02,0.02]",134.2975,0.0,4.0,4.0,40.0,1.0,,,,,,,
,,,,,,,672b330d847a68f7de308027,684429403ff03c54a4ebd4d9,2025-06-07_11h59.44.590,shape_ratio,2024.1.5,Win32,59.88023952,684250e4f00cb30b92d1fa88,,,,,,,,,,,134.2982,134.7979,,,135.0481,135.1811,right,,,,,,,,0.55,0.1211,,,,,,,134.798,135.048,135.1811,"[-0.1250592863312866,-0.15252374053124604]",100.0,"[-0.04743339703625509,0.057986706247874886]",4.0,"[-0.07595684941107819,-0.14963819915920493]",4.0,"[-0.002471793380463135,0.039651931930878556]",100.0,"[0.03015294854075327,-0.17488577220979082]",100.0,"[0.055035025100747634,-0.03413783465290646]",100.0,"[-0.014221201179250123,0.19693892758393905]",4.0,"[-0.05778924614077596,-0.044105954110480426]",100.0,"[0.10473341228897838,-0.033272886773223743]",100.0,"[-0.04645936746328608,0.004454956837106506]",100.0,"[0.05469173397233375,0.1022118111955662]",100.0,"[-0.053197312734012674,-0.18978516899607456]",4.0,"[-0.11005299263646656,-0.015611041890998848]",4.0,"[0.13645931330671718,0.06607894995717847]",100.0,"[-0.16154376296576736,-0.10501317468699946]",4.0,"[-0.1781533810122805,-0.03249401655122715]",100.0,"[-0.12609978986451162,0.14971679842624827]",4.0,"[0.027591618286996685,0.14284862280573518]",100.0,"[-0.03902210749331604,0.12350339028563333]",4.0,"[0.15344127137802543,-0.0800457241271958]",100.0,"[-0.1075143494491991,0.029689008838308457]",100.0,"[0.09058004236170349,-0.10586162755876075]",100.0,"[0.03565290871686804,0.06346122568242699]",100.0,"[0.013519948045874274,-0.05460833628593278]",4.0,"[-0.028134699065553687,-0.12377972216523567]",4.0,"[0.09714918900021187,0.09793047327342115]",100.0,"[0.1633529904286197,0.019541589698820312]",4.0,"[-0.07103754341503879,-0.08514917141027654]",100.0,"[0.14755706041949587,0.12629771231263143]",4.0,"[0.016578920236999636,-0.13136187137168268]",4.0,"[-0.11318369649087104,-0.07337243349518034]",4.0,"[0.08701691143632442,0.02754322380328826]",100.0,"[0.02,0.02]",136.2805,0.0,5.0,5.0,66.0,1.0,,,,,,,
,,,,,,,672b330d847a68f7de308027,684429403ff03c54a4ebd4d9,2025-06-07_11h59.44.590,shape_ratio,2024.1.5,Win32,59.88023952,684250e4f00cb30b92d1fa88,,,,,,,,,,,136.2811,136.7801,,,137.0308,137.2972,right,,,,,,,,0.5,0.2514,,,,,,,136.7802,137.0308,137.2973,"[-0.07793583753515278,-0.0868314292584688]",100.0,"[0.030819526783613455,-0.09103446383508947]",100.0,"[-0.16111078237820226,-0.06858876060794838]",4.0,"[-0.04130135201964805,-0.050468763701114513]",4.0,"[-0.10767931434395482,0.07741054310906695]",4.0,"[-0.09220250901659897,-0.12868291427939005]",4.0,"[-0.008408195518284515,-0.10980946818206297]",4.0,"[0.12960712979180572,-0.09687741294060384]",4.0,"[0.06624553917136403,-0.1127289247236819]",4.0,"[0.05591015388198042,0.07480225101599024]",100.0,"[0.0633718852952715,-0.0008968905711962899]",4.0,"[-0.07374135550480992,0.012503446918395488]",4.0,"[-0.16628959762965695,0.015754454037235743]",100.0,"[-0.07172272958684144,0.10651325194708347]",100.0,"[-0.05450318279094248,-0.1875914597501745]",100.0,"[-0.15482851867898462,-0.10922614475220083]",4.0,"[-0.023827295805985794,-0.008415101754313417]",4.0,"[-0.166217658700385,0.08742652918862923]",100.0,"[-0.1597763217880537,-0.028528190831223977]",100.0,"[0.016645159427819765,-0.1992607724233328]",100.0,"[0.1271694444343097,-0.04470453610989923]",4.0,"[0.05476623921767728,0.12783733923495216]",100.0,"[0.11514067547400636,0.11714971093763364]",4.0,"[0.18917674568605206,0.022147207803060738]",100.0,"[-0.12475791260188099,0.14102198047321318]",100.0,"[-0.003197047602437375,0.04067335620325811]",4.0,"[0.033814728829255195,-0.13731076512605156]",4.0,"[0.11960727856520653,0.0676553970256436]",4.0,"[0.17912833278692206,-0.04957543452335917]",100.0,"[-0.06766779507203222,0.05758485334750541]",100.0,"[0.07288709384158826,-0.04877642036480087]",100.0,"[-0.039379107844516974,0.15862615270715263]",100.0,"[0.02,0.02]",138.3969,0.0,6.0,6.0,119.0,1.0,,,,,,,
,,,,,,,672b330d847a68f7de308027,684429403ff03c54a4ebd4d9,2025-06-07_11h59.44.590,shape_ratio,2024.1.5,Win32,59.88023952,684250e4f00cb30b92d1fa88,,,,,,,,,,,138.3981,138.8969,,,139.1474,139.3466,left,,,,,,,,0.45,0.1837,,,,,,,138.8971,139.1473,139.3467,"[0.06080757063911001,-0.14062439433498003]",4.0,"[-0.103591195030676,-0.14041785772132373]",4.0,"[0.08506459570682795,0.013157193134052886]",4.0,"[-0.1613320784994796,-0.0324717675611233]",4.0,"[-0.0704173891643362,0.04977176204303028]",4.0,"[0.1542948677547765,-0.010752329117540232]",4.0,"[0.007967045463139144,0.119319850013913]",100.0,"[0.17970681713316386,0.06917832563239262]",100.0,"[-0.04066611127506228,-0.03079027108420608]",4.0,"[-0.04441114897414579,-0.08900966651599346]",4.0,"[-0.06226293984350657,0.1552767439964329]",4.0,"[-0.12019308604599063,0.09458725896720753]",100.0,"[0.06098074197789043,0.08964386605840248]",4.0,"[-0.11981246653346973,0.14045159267719892]",100.0,"[-0.058181901511147,-0.1426290189565065]",100.0,"[0.008191289070797579,-0.14261601761698622]",4.0,"[0.1209806951286765,0.12173248971962475]",100.0,"[-0.17638120598608367,0.0753732139020115]",100.0,"[0.18655875770635466,0.015110692277245992]",100.0,"[0.08844973025483624,-0.05948409599613185]",4.0,"[-0.04221260652315457,0.012652092242229058]",100.0,"[0.0010418422549729352,0.027572706888626033]",100.0,"[-0.07986145678269202,-0.18293770911006976]",4.0,"[0.014987006373595926,-0.05560376835814585]",4.0,"[-0.09419608927641636,0.011080713411969974]",100.0,"[-0.09733729745360917,-0.0356157671190666]",4.0,"[-0.19178181104803455,0.0030756297187603575]",4.0,"[0.013899083301203529,-0.011887152711072928]",4.0,"[0.004485061350809919,0.06778909513933981]",100.0,"[0.08337794812846493,-0.17718335151605785]",100.0,"[0.08217316522725325,0.1759769889860712]",4.0,"[0.11513389681928804,-0.10881467212688731]",100.0,"[0.02,0.02]",140.4466,0.0,7.0,7.0,148.0,1.0,,,,,,,
,,,,,,,672b330d847a68f7de308027,684429403ff03c54a4ebd4d9,2025-06-07_11h59.44.590,shape_ratio,2024.1.5,Win32,59.88023952,684250e4f00cb30b92d1fa88,,,,,,,,,,,140.4478,140.9464,,,141.1968,141.2966,right,,,,,,,,0.6,0.0855,,,,,,,140.9465,141.1968,141.2967,"[-0.03173973322897245,0.13496956261241813]",4.0,"[-0.03541529767004903,0.014159877551649724]",4.0,"[-0.14761927690680895,0.007312640101900655]",100.0,"[-0.007181147017437574,-0.07801062922749132]",4.0,"[0.09187783670999944,0.1320823371956756]",100.0,"[-0.07415699344080849,-0.06728070621779418]",100.0,"[-0.0344941623463923,-0.18744204784235563]",100.0,"[0.1201041807106401,-0.12720049577479392]",4.0,"[0.0592231423660903,0.09080273991636054]",100.0,"[-0.14275890792959722,-0.09136729574012993]",4.0,"[-0.05695813951523127,0.17645704400058315]",100.0,"[0.09146638962182163,0.013794308305808769]",100.0,"[-0.16042076397881588,0.11324893652190787]",4.0,"[0.020942550693487046,0.06783801061611493]",100.0,"[0.13674928131496047,-0.055609322999205756]",100.0,"[0.08737532562326154,-0.060576421035180544]",100.0,"[-0.08159587050634609,0.021408067457038455]",100.0,"[-0.12284931928579568,0.03979243909468824]",100.0,"[-0.18900768638849752,-0.04320861933615021]",100.0,"[0.02977775348039579,-0.10195650804953064]",100.0,"[0.016474935234206664,0.1779122237129116]",100.0,"[0.004036381730173457,-0.00942831949603338]",4.0,"[0.15461606605052966,0.05579521378482677]",4.0,"[-0.06761713590024344,-0.01944684769826911]",100.0,"[-0.07060244007825796,0.09641710463240907]",4.0,"[0.18034193994353895,-0.041568151564824525]",100.0,"[-0.030142227668459698,0.05397790264246322]",4.0,"[0.04402129897833904,0.006008535501244514]",4.0,"[-0.08777034908363755,0.1343732877603832]",100.0,"[0.03354563593577189,0.1251318658268885]",4.0,"[-0.19586611552937713,0.02856195704730321]",100.0,"[-0.11992326376103625,-0.13219490410162713]",4.0,"[0.02,0.02]",142.3959,0.0,8.0,8.0,56.0,1.0,,,,,,,
,,,,,,,672b330d847a68f7de308027,684429403ff03c54a4ebd4d9,2025-06-07_11h59.44.590,shape_ratio,2024.1.5,Win32,59.88023952,684250e4f00cb30b92d1fa88,,,,,,,,,,,142.3966,142.896,,,143.1465,143.3458,right,,,,,,,,0.6,0.1822,,,,,,,142.8961,143.1464,143.3458,"[-0.12176722018172811,0.13152151089773692]",100.0,"[0.007546098034897594,0.02951809775133574]",100.0,"[0.03466362541415926,-0.16254602888604683]",100.0,"[-0.09821769691263466,-0.13153845300561764]",100.0,"[-0.05613216765583775,0.08774728986413859]",4.0,"[-0.18641291551576844,-0.06389364508559717]",4.0,"[-0.048470868294808366,0.026128864677398216]",4.0,"[0.07666561604035255,-0.07120803824310894]",100.0,"[0.1287075591658619,-0.06182028329938783]",100.0,"[-0.1884401281194515,0.03441163504355707]",100.0,"[-0.03294938688499604,-0.09507218327799061]",4.0,"[0.0320221606541478,0.1769498149592438]",4.0,"[-0.03089986385149284,0.16615043421492667]",100.0,"[-0.1580750177218944,0.06166605554589975]",100.0,"[0.19008577293463777,0.049314500608700115]",4.0,"[0.12871133214910832,0.13878860327718398]",4.0,"[0.07529259922983457,0.0853920655778313]",4.0,"[0.0775982352541304,0.17518025272890553]",100.0,"[-0.08342028740367188,-0.17709565520796605]",100.0,"[0.05681141869354474,0.003590074770357364]",100.0,"[0.19173940899793226,-0.013375942987350368]",4.0,"[0.1337011322497858,0.09017538988792453]",4.0,"[-0.06980359261185687,0.1552159374758248]",100.0,"[-0.15153727027054545,0.007142860085273821]",4.0,"[-0.04190526465374679,-0.014649703276096491]",100.0,"[-0.11811472095668892,0.05021511782405782]",100.0,"[-0.1524174419067305,-0.11178550612870261]",100.0,"[-0.004455603019697059,-0.037696460908358494]",4.0,"[-0.07581269574956406,-0.052271479759279746]",100.0,"[0.04989662415239866,0.05409466092906778]",4.0,"[0.08158483116342458,-0.14868279247458774]",100.0,"[-0.03219212235171229,-0.17093106484641168]",100.0,"[0.02,0.02]",144.4456,0.0,9.0,9.0,48.0,1.0,,,,,,,
,,,,,,,672b330d847a68f7de308027,684429403ff03c54a4ebd4d9,2025-06-07_11h59.44.590,shape_ratio,2024.1.5,Win32,59.88023952,684250e4f00cb30b92d1fa88,,,,,,,,,,,144.4464,144.9453,,,145.1959,145.262,right,,,,,,,,0.5,0.0493,,,,,,,144.9453,145.1958,145.2621,"[0.10148632172286144,-0.019537370981871076]",4.0,"[-0.044817871049608986,0.008921267188285011]",4.0,"[-0.14930659212273484,0.1134854542851466]",4.0,"[0.06275028761930332,-0.1429412456063508]",4.0,"[0.009454758310002033,-0.09178145993968154]",100.0,"[-0.17162851838334053,0.0034223800111520537]",100.0,"[-0.04723738327559609,0.06415282171099711]",4.0,"[0.022459373134663122,0.04251139850409619]",4.0,"[0.007970277905855047,0.15960107781141306]",100.0,"[-0.04923515171079827,-0.1732262712276651]",100.0,"[0.18195358987251664,0.03785603915519426]",100.0,"[0.1231534994805683,-0.13255431785321822]",100.0,"[-0.09073570701213506,0.05683810341206479]",4.0,"[0.06299668694039737,0.05103734072703237]",100.0,"[0.08184635694790343,0.17102007176445438]",4.0,"[-0.044088726351071854,0.16895932979105768]",4.0,"[0.12460599468510242,0.057348597836610365]",4.0,"[0.028380047721181755,-0.016946277598066915]",4.0,"[-0.09565915180060537,-0.083314583352443]",4.0,"[-0.029331047449113294,-0.05510774567682857]",4.0,"[-0.16398910186606278,0.07498104823188924]",100.0,"[0.00426774471939151,0.09665316641533203]",4.0,"[-0.13742478427933008,-0.07478132890448927]",100.0,"[0.03161233912095615,0.19500208208830383]",100.0,"[0.06704421009473265,0.10080413056180773]",100.0,"[0.11555288794498661,-0.061518263369004254]",100.0,"[0.1559573567765668,-0.049767759325499906]",100.0,"[0.16834307781232347,0.08541532168815918]",4.0,"[-0.14596873319861986,-0.13064629779418424]",4.0,"[-0.12716267967487574,0.006274930582064085]",100.0,"[0.019950582507526075,-0.1332477283821323]",100.0,"[-0.12311820908640146,-0.036654623359070486]",100.0,"[0.02,0.02]",146.3617,0.0,10.0,10.0,101.0,1.0,,,,,,,
,,,,,,,672b330d847a68f7de308027,684429403ff03c54a4ebd4d9,2025-06-07_11h59.44.590,shape_ratio,2024.1.5,Win32,59.88023952,684250e4f00cb30b92d1fa88,,,,,,,,,,,146.3623,146.8617,,,147.1121,147.2284,right,,,,,,,,0.4,0.1027,,,,,,,146.8617,147.1121,147.2285,"[0.15875356419334682,0.04752908819368208]",100.0,"[-0.029940911293669558,-0.13926266172888146]",100.0,"[-0.05407587255077703,0.007993795113650577]",4.0,"[0.06133704408615836,-0.09529953639769818]",4.0,"[-0.13265203989191834,0.02557028451764052]",4.0,"[-0.08382573919885981,0.09984968665249064]",4.0,"[-0.12857535464682807,-0.14491370453333927]",100.0,"[-0.041889624990674605,0.08500707668504576]",100.0,"[0.023192766310569827,-0.17580662393453578]",4.0,"[0.07630816668975937,-0.1368412993121161]",4.0,"[0.06867562077952927,0.14393826548442307]",100.0,"[0.023912803563258013,-0.015315653914438152]",4.0,"[-0.05005446651168369,-0.04878323471660166]",100.0,"[0.08870646313687619,0.04857408730294743]",4.0,"[-0.011868773641385466,0.03763733657991283]",4.0,"[-0.12942777066109257,-0.015773879443804262]",4.0,"[-0.1679179489943766,0.06554020421867852]",4.0,"[0.04640602171841824,0.08549493782296301]",4.0,"[-0.05191446571575588,0.13983911612674554]",100.0,"[0.07880760792730852,-0.013641060376972136]",4.0,"[-0.019633507843635368,0.18890481101375398]",100.0,"[0.11988727957247589,-0.09509447353812314]",4.0,"[0.11983657741787163,0.014399262133923533]",100.0,"[-0.0991081190715533,-0.08134089960254119]",4.0,"[-0.09181115327416424,-0.16764024909417527]",100.0,"[0.1575876158922518,-0.06315734151414656]",100.0,"[-0.06660820417302434,0.18688122232767715]",4.0,"[0.1222310027265419,0.1353780383347616]",4.0,"[0.011701810558121698,-0.10494288083848134]",100.0,"[-0.0409269425174798,-0.09213952792385086]",4.0,"[0.13166709557435768,-0.14830110905454852]",4.0,"[-0.17715600672359547,-0.08293583772239603]",100.0,"[0.02,0.02]",148.3282,0.0,11.0,11.0,150.0,1.0,,,,,,,
,,,,,,,672b330d847a68f7de308027,684429403ff03c54a4ebd4d9,2025-06-07_11h59.44.590,shape_ratio,2024.1.5,Win32,59.88023952,684250e4f00cb30b92d1fa88,,,,,,,,,,,148.3287,148.8279,,,149.0785,149.178,left,,,,,,,,0.5,0.0839,,,,,,,148.828,149.0784,149.1781,"[0.04103580708976749,-0.07833574559903253]",4.0,"[-0.14489961245066404,-0.04538881192920096]",100.0,"[-0.1254397432946903,0.050985618721985725]",100.0,"[0.08546656075776558,-0.12554883608663306]",100.0,"[0.12489876695850799,0.07385363843910388]",4.0,"[0.07444499515690982,0.08375986600049479]",100.0,"[0.025324285126233286,0.12998946693834323]",100.0,"[0.09662029443919601,-0.1643532536223289]",100.0,"[0.04069023186633856,0.1694437162406984]",4.0,"[-0.18863395026999996,0.0164500683216208]",100.0,"[-0.0616928455348812,0.15295155345494676]",4.0,"[0.11433134600759318,-0.08207659319702768]",4.0,"[0.08539499557589868,-0.05393320444940922]",100.0,"[-0.12362385181612819,0.15088200342506233]",100.0,"[-0.05421991566807909,-0.060833918004103205]",4.0,"[-0.13816436459203452,-0.11337660740761658]",4.0,"[-0.014410369895800003,0.004937503193969822]",4.0,"[-0.1521726331141278,0.0832598975433929]",100.0,"[0.04065001525542728,-0.1602023458584313]",100.0,"[-0.03754049371730946,-0.11681436816868818]",4.0,"[0.11253775877960302,-0.017341584744215825]",4.0,"[0.1378280177856073,0.01594728527824762]",100.0,"[-0.08192973783765807,-0.1779456972038164]",4.0,"[0.00011195232282584425,-0.1854081246828949]",4.0,"[0.17578621885560933,-0.09510362032741317]",4.0,"[-0.11112147243963984,-0.017280218237572486]",4.0,"[0.10378021449668721,0.11857814922250705]",100.0,"[0.040826921890045206,0.04000374667210538]",4.0,"[0.02405755319455172,-0.02231333698704558]",100.0,"[-0.0644247166717228,0.08244678980338307]",4.0,"[0.18332045310657594,-0.03105877620696046]",100.0,"[-0.09602298331102274,-0.11418235581099564]",100.0,"[0.02,0.02]",150.2776,0.0,12.0,12.0,116.0,1.0,,,,,,,
,,,,,,,672b330d847a68f7de308027,684429403ff03c54a4ebd4d9,2025-06-07_11h59.44.590,shape_ratio,2024.1.5,Win32,59.88023952,684250e4f00cb30b92d1fa88,,,,,,,,,,,150.2781,150.7774,,,151.0279,151.0616,right,,,,,,,,0.5,0.0209,,,,,,,150.7775,151.0278,151.0617,"[0.07230482938358813,-0.0660750106233979]",4.0,"[0.043960407413570865,0.1674604253992958]",100.0,"[0.011210290907543923,0.08059420644505587]",100.0,"[-0.02036858164427438,0.028634907095875007]",100.0,"[-0.02900440945954295,-0.1544349787337502]",4.0,"[0.05642036900065312,-0.15574771168537216]",100.0,"[0.002397678957961813,-0.10950743502681974]",4.0,"[0.15295225210740462,-0.08681217177444038]",100.0,"[-0.0818205587170868,-0.1530519234129781]",4.0,"[-0.05646929562384633,0.05917861815692772]",100.0,"[0.1132697446328195,-0.022870658984707092]",4.0,"[-0.14939659822747856,0.05392397182082145]",4.0,"[-0.04175156004930393,-0.04499366735320366]",4.0,"[-0.1269604833835072,0.1315812715563592]",4.0,"[0.12727277564808168,-0.15389378022826788]",4.0,"[0.059507882026178543,0.10401009215793681]",100.0,"[-0.17976294876288065,0.024595978349328963]",100.0,"[-0.09886168233274506,-0.08325455973233818]",100.0,"[0.1411862302711913,0.0499148563917509]",4.0,"[0.076754907925213,0.043849896343279085]",100.0,"[-0.07451403588452835,0.14352977176166395]",100.0,"[-0.17152097588566242,0.10276572907527667]",4.0,"[0.14324221523137345,0.11518399011085922]",4.0,"[-0.08760165868512863,-0.011043150649242202]",4.0,"[0.007259797320511295,-0.05086381075507516]",4.0,"[-0.03155954838659852,0.14523173539005282]",100.0,"[-0.037677978885708556,-0.10495137504986438]",100.0,"[0.18390201798026617,-0.03085141984801402]",4.0,"[0.01977237030933913,-0.1883774157804165]",4.0,"[-0.1519319714422283,-0.07222700277002089]",100.0,"[-0.13453785355037295,0.0021921869926914816]",100.0,"[0.017541411585406296,0.12203151774793311]",100.0,"[0.02,0.02]",152.1604,0.0,13.0,13.0,96.0,1.0,,,,,,,
,,,,,,,672b330d847a68f7de308027,684429403ff03c54a4ebd4d9,2025-06-07_11h59.44.590,shape_ratio,2024.1.5,Win32,59.88023952,684250e4f00cb30b92d1fa88,,,,,,,,,,,152.1611,152.6603,,,152.911,152.9779,left,,,,,,,,0.55,0.0521,,,,,,,152.6604,152.9109,152.9781,"[-0.06517381493017864,-0.013950175323311826]",100.0,"[0.07022115192296328,0.045773805054454005]",4.0,"[0.016142962807052116,0.0863915742338104]",4.0,"[0.005091391343763572,-0.15487070154672142]",100.0,"[-0.11890674607661643,0.05859622787495744]",100.0,"[0.18778891254414332,-0.018178165153025665]",100.0,"[0.14052277022270493,0.11185926504818834]",4.0,"[-0.04764269205907121,-0.07728154453117449]",100.0,"[0.047877870845892186,-0.14541831998303203]",100.0,"[-0.15640001893519787,0.08008387883260618]",100.0,"[-0.1578295665181,-0.11510796592384524]",100.0,"[0.08839298439965887,-0.054930297306557296]",4.0,"[-0.012298275190080725,0.12720964267382068]",4.0,"[0.04060177782872596,0.1806994596713489]",4.0,"[0.025994579028566882,0.03652830625935338]",100.0,"[0.099134758059319,0.08617250092267646]",4.0,"[-0.1680608711571449,-0.06557194588705009]",100.0,"[0.014520321120639846,-0.020495260050386554]",4.0,"[-0.0565048378271516,-0.14255846224445914]",4.0,"[-0.005949674846626842,-0.08598563234180441]",4.0,"[0.10272684263454594,0.13863194442839935]",100.0,"[0.11001079252219417,-0.11402361804181897]",4.0,"[-0.07913164532683971,0.02592403013801004]",100.0,"[-0.10156844763277913,-0.09279524781604608]",100.0,"[-0.17779562493443027,0.03357851722549376]",100.0,"[0.1696164434815069,-0.08251940012294456]",4.0,"[0.11879117294196417,0.010869203624975097]",4.0,"[0.09404162241682332,-0.17570068316093068]",100.0,"[-0.14279298952400638,0.13451842747627843]",100.0,"[-0.019703175045189297,0.16876828986259185]",100.0,"[0.17339602850318517,0.02709672663650182]",4.0,"[-0.06388070998604904,0.1025441666454581]",100.0,"[0.02,0.02]",154.0772,0.0,14.0,14.0,89.0,1.0,,,,,,,
,,,,,,,672b330d847a68f7de308027,684429403ff03c54a4ebd4d9,2025-06-07_11h59.44.590,shape_ratio,2024.1.5,Win32,59.88023952,684250e4f00cb30b92d1fa88,,,,,,,,,,,154.0785,154.577,,,154.8273,154.8606,right,,,,,,,,0.1,0.0214,,,,,,,154.5771,154.8273,154.8607,"[0.08775024165971558,-0.1441534877201675]",4.0,"[-0.010900238455003642,0.06832337715668624]",4.0,"[0.14832259052423966,0.12404739018964996]",4.0,"[-0.0006451414925364175,0.18918731354866655]",100.0,"[-0.061262638045619947,-0.013301044465136186]",100.0,"[-0.18086444900593665,0.06259863034378747]",4.0,"[-0.19296805492783822,-0.036468869153776576]",4.0,"[0.12286897064008859,-0.10452257010829563]",4.0,"[-0.08962100687984133,0.07245611635947505]",4.0,"[-0.1317253825053145,-0.1415101664028895]",4.0,"[-0.12236571704828965,-0.03134120177336021]",4.0,"[0.03975714692351268,0.0641977320108274]",4.0,"[-0.010231620241006434,-0.13119343617003956]",4.0,"[0.09491934347685298,0.1377398421889466]",4.0,"[0.023571177304270354,0.024635879586504518]",4.0,"[-0.004404030393628917,0.14742166021375422]",4.0,"[0.10188680441310136,0.009631109107074338]",100.0,"[-0.04467799610575946,-0.09589310764391885]",4.0,"[0.1399791557124533,-0.059693895269359455]",4.0,"[-0.14302418786627794,-0.07248481694170006]",4.0,"[0.17785186220270485,0.026569925272802376]",4.0,"[-0.0748602412176252,-0.1309723308416413]",4.0,"[-0.0654352802274499,0.16957532409575776]",4.0,"[0.06705660895356608,-0.02255661865493793]",4.0,"[-0.0010616848353737348,-0.09033911808340093]",4.0,"[-0.1052995980468475,-0.10074407294134242]",4.0,"[0.08385521832696119,0.08490326996764025]",4.0,"[-0.04410336418191547,0.04594117061529855]",4.0,"[-0.012374990271524085,-0.023323943052666194]",4.0,"[-0.11203028557535896,0.007842020997660975]",4.0,"[-0.09618449241600324,0.12175978632699636]",4.0,"[0.03401487930224317,-0.1727847121286303]",4.0,"[0.02,0.02]",155.9596,0.0,15.0,15.0,189.0,1.0,,,,,,,
,,,,,,,672b330d847a68f7de308027,684429403ff03c54a4ebd4d9,2025-06-07_11h59.44.590,shape_ratio,2024.1.5,Win32,59.88023952,684250e4f00cb30b92d1fa88,,,,,,,,,,,155.9603,156.4597,,,156.7109,156.8275,right,,,,,,,,0.5,0.1028,,,,,,,156.4597,156.7108,156.8306,"[0.005965944506081824,-0.12091464732090694]",4.0,"[0.07836412052881395,0.14470471182988318]",100.0,"[-0.1261933798135035,0.01222474057297022]",100.0,"[0.11178950141901112,-0.04347046733477876]",100.0,"[-0.02564134072881114,-0.06221230029028213]",100.0,"[0.12522132260556615,0.1182724055239752]",100.0,"[-0.06312517394752223,-0.03936473506054443]",4.0,"[-0.11037437255130259,-0.02708275943307665]",4.0,"[-0.12003293683211891,0.13284068754212885]",4.0,"[0.08027060178578309,0.005203437998459728]",100.0,"[-0.06151126774029293,0.01585767356893585]",4.0,"[0.10632754402234938,-0.12021875309760963]",4.0,"[0.018400210932949752,-0.012101038186092037]",100.0,"[-0.0008522502655277735,0.09920669864317751]",4.0,"[-0.049421444262877895,0.17639467691269828]",100.0,"[0.0448466945500354,-0.18930697329683535]",4.0,"[0.12432971151447302,0.05098690526459216]",4.0,"[-0.0643897314712608,-0.1733355561452653]",4.0,"[-0.06037358053717026,-0.1045126011876351]",100.0,"[-0.001020900055290385,0.055812974097305616]",4.0,"[0.061312028414869144,0.10407927716553844]",4.0,"[-0.17113779959141848,-0.08900759845602116]",100.0,"[0.17059298811204712,0.08350075153510345]",100.0,"[0.09760772142432447,-0.1717838244095462]",4.0,"[0.17261833230729173,0.027122748462328605]",4.0,"[0.025502959573794406,0.19027652116246663]",100.0,"[-0.12396954867690665,-0.08450175418667016]",100.0,"[-0.09308361733896638,0.16793944467320565]",100.0,"[-0.1638470956221554,-0.008746032631735304]",4.0,"[0.06109094747431786,-0.05536551671426713]",100.0,"[-0.06213244147691457,0.11723339739720517]",100.0,"[-0.021341734827122438,-0.19260072524663527]",4.0,"[0.02,0.02]",157.926,0.0,16.0,16.0,105.0,1.0,,,,,,,
,,,,,,,672b330d847a68f7de308027,684429403ff03c54a4ebd4d9,2025-06-07_11h59.44.590,shape_ratio,2024.1.5,Win32,59.88023952,684250e4f00cb30b92d1fa88,,,,,,,,,,,157.9266,158.4258,,,158.6766,158.8095,left,,,,,,,,0.9,0.1174,,,,,,,158.4258,158.6765,158.8095,"[-0.00003477403166376647,-0.002079782181013307]",100.0,"[0.10287489939379049,0.017114052823086003]",100.0,"[0.15553946547722064,-0.11523208645973099]",4.0,"[0.003227637048090679,0.19878351540661304]",100.0,"[0.18704270231479045,0.03629159508465095]",100.0,"[0.10843658263099999,0.10653549187468118]",100.0,"[-0.1351244401013793,-0.0015034286457395153]",100.0,"[0.13238921094467984,0.04514933353874289]",100.0,"[-0.09910974699552276,0.16919539598887526]",100.0,"[-0.00360257258517318,-0.10711600005292876]",100.0,"[-0.18060784794880155,-0.014951289320596858]",100.0,"[0.06794229552931316,-0.11753054778892028]",4.0,"[0.04569620555391797,-0.15761368843483245]",100.0,"[-0.05890984777788956,-0.07649526880087887]",100.0,"[0.07102960443816711,-0.02493550709428952]",100.0,"[-0.09806447603414777,0.07443396623743352]",100.0,"[-0.04723308887088142,0.11172398159683684]",100.0,"[-0.053112827143722195,0.15550122067034933]",100.0,"[-0.1538063059232268,0.1208475753121012]",100.0,"[-0.018005977816167026,-0.17507438180759305]",100.0,"[0.03213220655418629,-0.08346690117628813]",100.0,"[0.0757808030695416,0.1842600428853688]",100.0,"[0.08901497723671953,-0.16205056240460078]",100.0,"[0.017726852216816018,0.0527757167794974]",100.0,"[-0.17095424060802658,0.05864398862847678]",100.0,"[0.1479565040351833,-0.03259401498584884]",100.0,"[-0.0030935891845164584,-0.04196886820099025]",100.0,"[-0.06834619506092748,-0.1521263222946555]",100.0,"[0.1852133312293998,-0.07525728175320304]",100.0,"[0.05051349051618415,0.07595343958353326]",100.0,"[0.11338837941568086,-0.08981091586081748]",100.0,"[0.022000392917004983,0.133147210759874]",4.0,"[0.02,0.02]",159.9091,0.0,17.0,17.0,19.0,1.0,,,,,,,
,,,,,,,672b330d847a68f7de308027,684429403ff03c54a4ebd4d9,2025-06-07_11h59.44.590,shape_ratio,2024.1.5,Win32,59.88023952,684250e4f00cb30b92d1fa88,,,,,,,,,,,159.9097,160.4088,,,160.6599,162.1585,,,,,,,,,0.55,,,,,,,,160.4089,160.6598,162.1586,"[-0.028690176875086484,0.0561060592791788]",100.0,"[-0.05803964943709338,-0.06508298805566215]",100.0,"[0.10208763415324411,-0.018078317641529992]",4.0,"[0.001870942164688641,-0.06267251250846481]",100.0,"[0.14106494710624673,-0.1278896582125377]",100.0,"[0.08533724665656715,0.0866143443035718]",4.0,"[0.0023957726248278965,-0.1595790688488685]",4.0,"[0.07950059251440904,-0.08324958946839894]",100.0,"[-0.10348087721037642,0.1675989790002725]",4.0,"[-0.020753085212720988,-0.004468438802338969]",100.0,"[0.03717811014744822,0.08557833165069847]",4.0,"[0.09005923951789047,-0.13523523066787504]",4.0,"[-0.07435526142763225,-0.11529131138352804]",4.0,"[-0.09016894504390532,0.06682426612668618]",4.0,"[-0.12313200058233578,-0.024102257403729056]",4.0,"[0.009609927802232004,0.1300936919907981]",100.0,"[-0.05021232370863533,-0.1570313960786511]",4.0,"[-0.09483496552006752,-0.15057173663983867]",100.0,"[-0.1655875107458676,0.012379743879761134]",4.0,"[0.08421034109093951,-0.17825214739900064]",100.0,"[-0.14504164124070004,-0.11431983573872243]",4.0,"[0.11588568675448371,0.14393619113583564]",4.0,"[0.12609433753361624,0.05756611215015809]",100.0,"[0.18999128319692657,-0.05032057674069261]",100.0,"[0.019230874085122363,0.020030517996315167]",100.0,"[-0.12533188444246068,0.09001595178581734]",100.0,"[0.15576219894719198,0.11119225068341318]",100.0,"[-0.17970361931797357,0.06492201364648867]",100.0,"[0.1371178958065196,-0.07517642542572384]",100.0,"[0.03564416325317091,-0.13050374938164386]",4.0,"[0.163505937773129,0.03583929113786627]",100.0,"[-0.16947563619472786,-0.0800060774902137]",100.0,"[0.02,0.02]",163.2583,0.0,18.0,18.0,79.0,1.0,,,,,,,
,,,,,,,672b330d847a68f7de308027,684429403ff03c54a4ebd4d9,2025-06-07_11h59.44.590,shape_ratio,2024.1.5,Win32,59.88023952,684250e4f00cb30b92d1fa88,,,,,,,,,,,163.2589,163.7584,,,164.009,164.1925,right,,,,,,,,0.6,0.1684,,,,,,,163.7585,164.0088,164.1928,"[0.013537010210571868,-0.07362150496152912]",4.0,"[0.08146464342325753,0.07124149417325262]",100.0,"[0.0005013283349801848,0.18494348132298963]",100.0,"[0.0671065922234535,-0.0671269169055247]",4.0,"[-0.13946065842919791,-0.034443785431448826]",4.0,"[-0.12647968685408678,0.10878753666245661]",100.0,"[0.07409584359315669,-0.11893598613052339]",100.0,"[-0.005043487732878652,0.09953812036773348]",100.0,"[0.014563559130980988,-0.16497808545538764]",100.0,"[-0.12039360110718225,0.028233390648933272]",100.0,"[-0.08137023460402518,0.04146244828413535]",100.0,"[0.16028832647429359,-0.10967068280837168]",4.0,"[0.12904618271889984,0.12813275744100497]",4.0,"[-0.12927181850007102,-0.11547674533053826]",100.0,"[-0.024544285599713198,-0.02621568289752242]",100.0,"[-0.08552844023944177,0.14643392706819255]",4.0,"[-0.04814258652756873,0.12673416483890831]",100.0,"[-0.007497207183106074,-0.12637212884787946]",4.0,"[0.07711303017974025,0.12450085703809684]",4.0,"[0.16286438383901167,0.07423245949245912]",100.0,"[0.013634779879319726,0.04098842354690937]",100.0,"[-0.0322664847401901,-0.16577777086949308]",100.0,"[0.15218568019804887,0.0052721973912419045]",4.0,"[-0.07009105879666272,-0.0058593037096848904]",100.0,"[0.1071598083623306,-0.1447579644717413]",100.0,"[-0.1054102759503156,-0.16187584254385792]",4.0,"[0.05814863946400559,-0.024136560781767517]",4.0,"[0.037580582086060875,0.16481712189670536]",100.0,"[0.08091072181334605,0.02847234166814484]",4.0,"[0.14435086676257947,-0.04489708064915264]",4.0,"[-0.1456752520487447,-0.07462617884851408]",100.0,"[0.18368552662909493,-0.07284962603653118]",100.0,"[0.02,0.02]",165.2915,0.0,19.0,19.0,44.0,1.0,,,,,,,
,,,,,,,672b330d847a68f7de308027,684429403ff03c54a4ebd4d9,2025-06-07_11h59.44.590,shape_ratio,2024.1.5,Win32,59.88023952,684250e4f00cb30b92d1fa88,,,,,,,,,,,165.2924,165.7911,,,166.0416,166.1456,right,,,,,,,,0.9,0.0892,,,,,,,165.7912,166.0416,166.1459,"[-0.17960391840303722,0.04903482342251674]",100.0,"[0.10653185440463417,-0.13308688753637105]",100.0,"[-0.15817574974015816,0.014596930179826068]",100.0,"[0.12914450123063925,0.1503796171582578]",100.0,"[-0.0027187423886344,0.03165394030194801]",100.0,"[0.1407794131930277,0.03328066345987737]",100.0,"[0.1163025460804976,-0.0020954827905065995]",100.0,"[0.03563278730597873,-0.18674069652666353]",100.0,"[-0.016555572254888896,0.12813398907600745]",100.0,"[-0.03687835237373681,0.07530904166896878]",100.0,"[0.07181034015841825,0.17265496606196865]",100.0,"[-0.0403800639919175,-0.19227765456870693]",100.0,"[-0.19486673724980824,-0.008923642144618884]",4.0,"[-0.10257797972047149,0.07561088415883256]",100.0,"[-0.026179690455874254,0.1834788386915948]",100.0,"[-0.0514675257330744,0.021258316573781355]",100.0,"[-0.011653788092145978,-0.11636979975660404]",100.0,"[0.07525933319832924,-0.059510039986425546]",4.0,"[0.04251500931567231,-0.004727589032330064]",100.0,"[-0.052346311304616866,-0.14017225837979852]",4.0,"[-0.11012687707877031,0.03584751667639251]",100.0,"[-0.07248100138500359,-0.05891191805768044]",100.0,"[0.08157899172129329,-0.1743529124595338]",100.0,"[0.05292064329152217,0.03419286255877555]",100.0,"[0.03195027897735331,0.12035889739790445]",100.0,"[0.18933973505752483,0.010725357474410772]",100.0,"[-0.14750131860423546,0.09050687619302493]",100.0,"[0.15488824823970498,-0.0880704564498397]",100.0,"[-0.026088830545007498,-0.05222831272579432]",100.0,"[-0.1190973618536913,-0.09113462616153481]",100.0,"[0.10241872156976863,0.10511502405196711]",100.0,"[-0.09223935541866676,0.14770234657764142]",100.0,"[0.02,0.02]",167.241,0.0,20.0,20.0,3.0,1.0,,,,,,,
,,,,,,,672b330d847a68f7de308027,684429403ff03c54a4ebd4d9,2025-06-07_11h59.44.590,shape_ratio,2024.1.5,Win32,59.88023952,684250e4f00cb30b92d1fa88,,,,,,,,,,,167.2418,167.7407,,,167.9914,168.124,left,,,,,,,,0.45,0.118,,,,,,,167.7407,167.9913,168.1241,"[0.01034284508297057,0.18090516307843743]",100.0,"[-0.130848620845178,0.06775970333760273]",100.0,"[0.028857923222689822,0.09358667229567538]",4.0,"[0.024708342165079666,-0.1607107408496024]",100.0,"[-0.1060032848227965,-0.04112531004330943]",4.0,"[0.11411547447607562,-0.15951101766657644]",4.0,"[-0.07877900207853526,-0.1033778523859908]",4.0,"[0.12170246431699519,0.15616134090682413]",4.0,"[0.12716122124680862,0.1024229175841905]",4.0,"[0.07074018029507935,-0.10853409675659442]",4.0,"[-0.06633568240480653,0.15723920765534305]",100.0,"[-0.16465498556864763,0.011361157963851554]",4.0,"[0.15052470526539533,-0.005444684223802904]",100.0,"[-0.0730187017312353,0.10387340870088564]",100.0,"[-0.1845895600509219,-0.03350142460358829]",100.0,"[0.01638999847717531,-0.08850977287054317]",4.0,"[-0.025619360635184253,-0.12352038566531978]",4.0,"[0.02942009117523854,0.020417141490990897]",100.0,"[0.05527976892932218,-0.01436364179809758]",4.0,"[-0.17154727490965196,-0.08781006185208708]",4.0,"[-0.1068762600999163,0.00682127707274568]",100.0,"[0.14869683065082726,-0.047483932617433305]",4.0,"[-0.022008470563753716,0.025126595622673484]",4.0,"[0.1715283215324341,0.06704653092920869]",4.0,"[0.14621368615248273,-0.09147565467814994]",100.0,"[-0.131012088279778,-0.13961940936969022]",100.0,"[-0.03956326974338599,-0.063910411045448]",100.0,"[0.0635827441032779,-0.18567657293783946]",4.0,"[0.06702467294994455,-0.0629380630877904]",4.0,"[0.10384550566360182,0.02233136099476501]",4.0,"[-0.06551140552890047,0.06215779398209312]",100.0,"[-0.012227192473259731,0.0755043513318193]",100.0,"[0.02,0.02]",169.2239,0.0,21.0,21.0,121.0,1.0,,,,,,,
,,,,,,,672b330d847a68f7de308027,684429403ff03c54a4ebd4d9,2025-06-07_11h59.44.590,shape_ratio,2024.1.5,Win32,59.88023952,684250e4f00cb30b92d1fa88,,,,,,,,,,,169.225,169.7237,,,169.9742,170.1071,right,,,,,,,,0.6,0.1176,,,,,,,169.7237,169.9741,170.1072,"[0.11778611425250847,-0.01130812497754987]",100.0,"[0.02359540294964962,0.03479799318582817]",100.0,"[-0.10147997123207918,0.019105163688792663]",100.0,"[-0.11631031585710709,-0.12918406708734448]",100.0,"[-0.10108670724978429,-0.08299498954319051]",4.0,"[0.15982213814653376,-0.06509749307392866]",100.0,"[0.027622552089938687,-0.16746714565911475]",4.0,"[0.138126863540782,0.06683424321154129]",4.0,"[-0.044354372223467296,0.03272174540934663]",100.0,"[-0.1903658415181141,0.008086110122243974]",100.0,"[0.12420613250942636,0.12883144556446624]",4.0,"[-0.1460180464845933,0.026397294191512412]",4.0,"[-0.1464041911108223,-0.048652365223960964]",4.0,"[0.07086345568142063,0.08807184182488136]",4.0,"[0.18638175609519606,-0.031995100066213714]",100.0,"[0.04613176498437439,-0.01587114201104089]",4.0,"[0.014231186769697533,-0.12273551764083744]",100.0,"[-0.14858751045886898,0.06637604144047199]",4.0,"[0.010279366967759317,-0.05650467693249775]",100.0,"[0.02943436494804923,0.07534785519143226]",100.0,"[-0.19713987845553493,-0.03332595575995853]",100.0,"[-0.06661421770533338,0.1585907586151612]",100.0,"[0.03255915278006768,0.14539126051194226]",100.0,"[0.08307347970375756,0.17984271620254944]",4.0,"[0.07181723021149324,-0.1808664634963901]",100.0,"[0.07592286715096609,0.13843935445634808]",100.0,"[-0.0022340105499939803,0.0033617419337897162]",4.0,"[-0.006007252151675377,0.1966177458241384]",100.0,"[0.10860412156688744,-0.06371108292590287]",4.0,"[-0.044143957198045085,0.10824899412379349]",4.0,"[-0.05098934464894719,-0.07265191297716553]",100.0,"[0.09257424029700372,0.034139457292954145]",100.0,"[0.02,0.02]",171.2066,0.0,22.0,22.0,32.0,1.0,,,,,,,
,,,,,,,672b330d847a68f7de308027,684429403ff03c54a4ebd4d9,2025-06-07_11h59.44.590,shape_ratio,2024.1.5,Win32,59.88023952,684250e4f00cb30b92d1fa88,,,,,,,,,,,171.2073,171.7064,,,171.9577,172.1071,right,,,,,,,,0.1,0.1345,,,,,,,171.7064,171.9576,172.1073,"[-0.1237486842386793,-0.05242319370748525]",4.0,"[-0.10615757423515682,0.1525114161736087]",4.0,"[-0.0014879003627531545,-0.19170506604848364]",4.0,"[0.030043546358333013,0.1022804144041141]",4.0,"[0.1139697882568817,0.11480079945358496]",4.0,"[-0.056667789419197714,0.17484987285555026]",4.0,"[0.09225765209165351,0.0319600958380718]",100.0,"[-0.12381338550673017,-0.09480938142071442]",4.0,"[-0.05459769111580566,0.08949247169370536]",4.0,"[0.024549633906502548,0.040370907639734575]",100.0,"[-0.02033517861886411,0.19196877896018746]",4.0,"[0.08566306219207775,-0.06816483763751086]",4.0,"[0.07533729199130375,0.1437836293414424]",4.0,"[0.005805427560834832,-0.034081708597461936]",4.0,"[0.17901705208089547,-0.01984895028320806]",4.0,"[0.06409283123589088,-0.007018351525881033]",4.0,"[0.0567121690195276,-0.14479375871431122]",4.0,"[0.11924087607430331,-0.15063888789063815]",4.0,"[-0.1942228124038827,0.022300037107932096]",4.0,"[0.14400082444489057,0.0879221418094919]",4.0,"[-0.12610659692232085,0.08420890810941445]",4.0,"[-0.0696483643294626,-0.05933808275673027]",4.0,"[-0.15768702023152112,-0.1203704401407056]",4.0,"[-0.02102360146999563,-0.08394606484251749]",4.0,"[-0.09032399459299742,0.06493404885342716]",4.0,"[-0.14289284550934697,0.026501334764711205]",100.0,"[-0.0419434600051094,-0.18963519646116736]",4.0,"[-0.0073076952489744855,-0.15197199177165355]",4.0,"[-0.17577983224120403,0.06682530982396098]",4.0,"[-0.0035819372175489514,0.1453452186307278]",4.0,"[-0.09507487070484139,-0.1688042457082956]",4.0,"[0.035093918003996756,-0.10094192041277968]",4.0,"[0.02,0.02]",173.2062,0.0,23.0,23.0,209.0,1.0,,,,,,,
,,,,,,,672b330d847a68f7de308027,684429403ff03c54a4ebd4d9,2025-06-07_11h59.44.590,shape_ratio,2024.1.5,Win32,59.88023952,684250e4f00cb30b92d1fa88,,,,,,,,,,,173.2067,173.7061,,,173.9567,174.1393,right,,,,,,,,0.45,0.1677,,,,,,,173.7061,173.9567,174.1394,"[0.046762657985547296,-0.07213887902074737]",100.0,"[0.05368246542155127,-0.17340957026393325]",100.0,"[0.07617440897900868,0.08723434814358982]",4.0,"[-0.15532333107494242,-0.11787857323121714]",100.0,"[-0.023400923654355713,0.059088556948115455]",4.0,"[-0.023508824877216367,-0.04002442683574611]",4.0,"[0.08728347114679318,-0.06916339738596311]",4.0,"[-0.1774085184153055,0.08936673302565393]",100.0,"[0.16197566164170546,-0.020515731966670833]",100.0,"[0.12099360126399543,0.08107749939563903]",100.0,"[-0.1004215768791009,0.1313839492766998]",100.0,"[0.0076053271821665555,-0.010975758525470898]",100.0,"[-0.17195186015351854,-0.04309418123992331]",100.0,"[-0.060477081052732314,0.11439623290117977]",4.0,"[0.004720137034431903,-0.08352667703127327]",4.0,"[-0.09159134725973195,0.00958719111221902]",4.0,"[0.014605328879321509,0.09510766815569922]",4.0,"[-0.09048608778625063,-0.048083501259936295]",100.0,"[-0.09242677248812932,-0.16652538993382235]",4.0,"[-0.10765096075434874,-0.09833109359876772]",4.0,"[0.136853458388037,0.012440906115274914]",4.0,"[0.057826215569860215,0.014103944504871187]",4.0,"[0.18098307270573066,0.07501951539161088]",100.0,"[-0.13496839561056775,-0.025660765658581535]",100.0,"[-0.05691793620070131,0.036621516912204964]",4.0,"[-0.15882783215919385,0.03798550359731967]",100.0,"[0.07287276484999305,-0.11878397483969459]",4.0,"[0.0176100967642443,-0.19454915349380297]",4.0,"[0.17385850961493474,-0.060717424137647254]",100.0,"[-0.04951149030078048,-0.07354190244291361]",4.0,"[0.03524868064100934,0.05385543944140867]",4.0,"[-0.04019531501452487,0.16232982856617992]",4.0,"[0.02,0.02]",175.239,0.0,24.0,24.0,132.0,1.0,,,,,,,
,,,,,,,672b330d847a68f7de308027,684429403ff03c54a4ebd4d9,2025-06-07_11h59.44.590,shape_ratio,2024.1.5,Win32,59.88023952,684250e4f00cb30b92d1fa88,,,,,,,,,,,175.2396,175.739,,,175.9896,176.1252,left,,,,,,,,0.9,0.124,,,,,,,175.739,175.9895,176.1253,"[-0.06264899352762784,-0.015750768116865283]",100.0,"[0.02109370862089735,0.13869727177578237]",4.0,"[0.1054624199776602,0.0341133600835872]",100.0,"[0.01300892873476248,-0.07434340855166346]",100.0,"[-0.15574295743348923,0.0629718504825891]",100.0,"[-0.10771674850173946,-0.12118486228594665]",100.0,"[-0.15156167096077014,-0.0407398264552729]",100.0,"[0.17518108997737697,-0.05449939907865021]",100.0,"[0.08768991901238847,-0.04036621421662026]",100.0,"[-0.11770196834437739,-0.0009236064075538214]",100.0,"[-0.126569072929602,0.1129657088771752]",4.0,"[0.15175107798098722,0.1035058252181604]",100.0,"[-0.05057256082149061,0.14455688461982455]",100.0,"[0.061358056101361434,-0.16078243936881942]",100.0,"[-0.03861665581777173,-0.1746559696155684]",100.0,"[0.0402625971848494,-0.014482552623865209]",100.0,"[-0.08715857226799655,-0.04891208179643349]",100.0,"[-0.006154755984770074,0.011974075743615387]",100.0,"[0.13357112746997948,-0.05189261214791736]",100.0,"[-0.11035683276574607,0.07249074715151876]",100.0,"[-0.023408060122245455,-0.047885147934070976]",100.0,"[-0.07476187772646747,0.02923743769373175]",100.0,"[0.13667961517166202,-0.14414402027997783]",4.0,"[0.076791196151429,0.09298181976199771]",100.0,"[0.05511988858565257,0.05398338415304908]",100.0,"[-0.04111606382280204,0.05264957208042429]",100.0,"[-0.022188882253417985,0.1980510690606937]",100.0,"[-0.08472545823801597,0.16775547002285354]",100.0,"[-0.12425351160519,-0.07792836486313616]",100.0,"[-0.05054118630955848,-0.08258455551869949]",100.0,"[-0.047454584992835974,0.0986662327663679]",100.0,"[0.041153860735703755,0.17696096237462675]",100.0,"[0.02,0.02]",177.2223,0.0,25.0,25.0,8.0,1.0,,,,,,,
,,,,,,,672b330d847a68f7de308027,684429403ff03c54a4ebd4d9,2025-06-07_11h59.44.590,shape_ratio,2024.1.5,Win32,59.88023952,684250e4f00cb30b92d1fa88,,,,,,,,,,,177.2231,177.7223,,,177.9726,178.0387,right,,,,,,,,0.9,0.0506,,,,,,,177.7224,177.9726,178.0389,"[0.012684572168856134,0.10278366106600824]",100.0,"[-0.08182834672175375,-0.04770934180032739]",100.0,"[0.017874190782387046,-0.05722266768587219]",4.0,"[0.11707126685619604,-0.018299771323657284]",100.0,"[-0.13639854527800105,0.07537299384121846]",100.0,"[-0.13436453525445816,-0.09411879657986433]",100.0,"[-0.009886967541955134,-0.19757541255431713]",100.0,"[-0.047588927122868704,-0.13655533080990773]",100.0,"[0.010423620443884908,-0.002990687534996787]",100.0,"[-0.06146515648116632,0.15359435375248737]",100.0,"[-0.011565511408961096,-0.08931466524354323]",100.0,"[-0.011549537483416885,0.17703392246355595]",100.0,"[0.08127119124135808,0.05699363609227522]",100.0,"[0.07280520666576788,-0.07464413002990043]",100.0,"[0.1672657717031521,0.07420129030483522]",100.0,"[-0.11429394649148161,0.13430014718209476]",100.0,"[0.16488792468589936,-0.05361674008115036]",100.0,"[-0.16347515295834336,0.01782412315010482]",4.0,"[-0.062257356778639715,-0.00039879608641847506]",100.0,"[-0.08701939447856188,-0.10768272763366528]",100.0,"[-0.14473666817708175,-0.02146227240450391]",100.0,"[0.07174622473428109,0.14317182804551215]",4.0,"[0.11908992960754969,-0.1524764413581196]",100.0,"[0.150521603955102,-0.09863817398917975]",100.0,"[-0.07879764378003248,0.0628876801475027]",100.0,"[0.0371161277939829,-0.13032534356475797]",100.0,"[-0.18953524145212644,-0.0524005387126486]",100.0,"[0.11396367370989387,0.1506113961065524]",100.0,"[0.11831202592977204,-0.07126688551834896]",100.0,"[0.12385504653170076,0.03237230657579526]",100.0,"[-0.004846151120830224,0.03656031516480515]",100.0,"[0.030260439018762783,-0.1820044835065372]",100.0,"[0.02,0.02]",179.1384,0.0,26.0,26.0,18.0,1.0,,,,,,,
,,,,,,,672b330d847a68f7de308027,684429403ff03c54a4ebd4d9,2025-06-07_11h59.44.590,shape_ratio,2024.1.5,Win32,59.88023952,684250e4f00cb30b92d1fa88,,,,,,,,,,,179.1389,179.6383,,,179.8887,180.1216,left,,,,,,,,0.45,0.2191,,,,,,,179.6384,179.8887,180.1217,"[-0.06724344334678849,0.03473742567645765]",100.0,"[0.06245685892484526,-0.06575460855065038]",100.0,"[-0.05264089465710521,-0.059174674049692885]",100.0,"[0.1559066352857555,0.10072091504492538]",4.0,"[-0.023177693567743306,0.0651598359166521]",100.0,"[0.01683091947538149,0.16671517633717411]",4.0,"[0.14881472081085384,-0.07861810117459171]",4.0,"[0.11460841352756232,0.09230592849843261]",4.0,"[0.017204271605991202,-0.007909134757782052]",100.0,"[-0.11531356301235685,0.01204372274385453]",4.0,"[-0.05020470803825209,0.13201879851172535]",4.0,"[-0.05983905426233539,-0.15019499131220393]",100.0,"[-0.15396273846876005,-0.11212215194284016]",4.0,"[0.042316912920570667,-0.17664745594261272]",4.0,"[-0.004811528750731193,0.1266266668827112]",100.0,"[-0.15092796700461983,0.08997881089830902]",100.0,"[0.1412028332451626,0.05165631344306074]",4.0,"[-0.09911732240922992,-0.1068880754983657]",4.0,"[0.06703008030503929,-0.14476344468631203]",100.0,"[-0.017298002771154508,-0.1778479523074161]",100.0,"[0.10431794408071918,0.007487581242994716]",4.0,"[-0.0008003683202541541,-0.1021771198938468]",4.0,"[-0.10999305195242483,0.13290129255783367]",100.0,"[0.10887888675049918,-0.1269880702507004]",4.0,"[0.09692111124078089,-0.03801123658231136]",4.0,"[0.17122479697901044,0.019009542045427902]",4.0,"[-0.03481093161308934,-0.0000562808505198874]",4.0,"[-0.09292530302338751,0.16932912539670253]",100.0,"[0.14584103995578346,-0.038032404237812685]",4.0,"[-0.09800325014352505,-0.04029933094188712]",4.0,"[0.06539161230668021,-0.0021018318996229228]",100.0,"[-0.18482848657362574,0.015496616152016064]",100.0,"[0.02,0.02]",181.2213,0.0,27.0,27.0,137.0,1.0,,,,,,,
,,,,,,,672b330d847a68f7de308027,684429403ff03c54a4ebd4d9,2025-06-07_11h59.44.590,shape_ratio,2024.1.5,Win32,59.88023952,684250e4f00cb30b92d1fa88,,,,,,,,,,,181.2219,181.7217,,,181.9717,182.0212,right,,,,,,,,0.5,0.0332,,,,,,,181.7217,181.9717,182.0212,"[-0.04234824377315351,0.02935738505192897]",100.0,"[-0.05431623813764557,0.14012965556201903]",4.0,"[0.08399661361399947,0.042687665923729946]",4.0,"[-0.03458515610128048,-0.09811314399377533]",100.0,"[0.036878225026516505,-0.000024322681675937833]",4.0,"[-0.020791149551528568,0.09898738104145448]",100.0,"[-0.020086583060456915,-0.040522404875238185]",100.0,"[0.0069321237696629455,0.16137675513559477]",100.0,"[0.12581512400499664,0.0372899463056833]",100.0,"[0.18079540838672878,0.07074920996887157]",4.0,"[0.06904098911653098,-0.17253334143003343]",100.0,"[-0.13554484858709434,0.009203919361992446]",4.0,"[0.15164301040412886,-0.04851044590851175]",4.0,"[-0.09020904059139792,-0.14710212677967172]",100.0,"[0.05012568930119687,0.12286460715265961]",100.0,"[-0.07761923430227426,0.07265596516531704]",4.0,"[-0.0007859097438222583,-0.19934651677493742]",4.0,"[0.050707924952595206,0.18150029765758166]",100.0,"[0.054294548514676674,0.0750837767958993]",100.0,"[0.07001488036572018,-0.08107988994405291]",4.0,"[-0.13792979445281575,-0.06262381866062622]",100.0,"[-0.18251985606881263,-0.014130823880012557]",4.0,"[-0.020502033920037452,-0.15529163933932452]",100.0,"[-0.10471535267694862,0.10529099959319885]",100.0,"[0.12911864705405016,0.12905573617722413]",4.0,"[0.18712087404487104,0.026310164821824262]",4.0,"[0.13236608307935693,-0.08867637566115388]",4.0,"[0.10678583948406012,-0.049672156484593014]",4.0,"[-0.034530908813176955,0.17553419597137523]",4.0,"[-0.09445181530460148,-0.029486521156001217]",100.0,"[0.14252631803488036,-0.00428215755406066]",4.0,"[-0.15034336988804223,-0.11890903791655855]",100.0,"[0.02,0.02]",183.1208,0.0,28.0,28.0,97.0,1.0,,,,,,,
,,,,,,,672b330d847a68f7de308027,684429403ff03c54a4ebd4d9,2025-06-07_11h59.44.590,shape_ratio,2024.1.5,Win32,59.88023952,684250e4f00cb30b92d1fa88,,,,,,,,,,,183.1213,183.6212,,,183.8725,184.1542,left,,,,,,,,0.55,0.266,,,,,,,183.6212,183.8723,184.1544,"[-0.13765648593191368,-0.06191518558645312]",4.0,"[0.14183284194026763,0.12625815512498467]",100.0,"[0.04005327833659421,-0.06936144875010272]",4.0,"[-0.09856285782500987,0.04548709702516294]",100.0,"[0.1083685603541869,-0.0400047272248726]",100.0,"[0.19246262477232337,0.0003369118412490976]",100.0,"[0.06350138759636446,-0.1679700993773101]",4.0,"[-0.015990245308388197,-0.15759038172979103]",4.0,"[0.06032432463321712,-0.02323144807981336]",100.0,"[0.05486618219720541,0.12076565244878561]",4.0,"[-0.0017058021405700497,0.020840875893682036]",4.0,"[0.012985441255643122,-0.12531425285497058]",100.0,"[-0.0861063056563814,-0.0511931322144738]",4.0,"[-0.15875402660210183,0.013306471988643409]",4.0,"[-0.0005675756813265563,0.16622852089298493]",100.0,"[0.14991827635448388,-0.07692625999511558]",100.0,"[0.11114515424675252,-0.1350356640779121]",4.0,"[-0.15366594434491992,0.10174204538514604]",4.0,"[-0.12936036779920096,-0.12902413034128468]",4.0,"[0.06051785804545758,-0.12035789940403052]",100.0,"[0.06552575030041367,0.05053252569714797]",4.0,"[0.10858741123061422,0.15406749862437727]",100.0,"[-0.018173149038504824,0.06828751138578354]",100.0,"[0.010070760970278429,0.11042181160598066]",100.0,"[-0.058590102026244505,0.11881799579031645]",100.0,"[0.09748361038184301,0.024894918076315296]",100.0,"[-0.12370249990031706,0.13404818751717654]",100.0,"[-0.022769385951096385,-0.053746449182610206]",100.0,"[-0.05583419138989853,0.010274497173072578]",100.0,"[-0.06935167347543464,-0.14429600053770372]",4.0,"[-0.10384680578580978,-0.08945108806046949]",100.0,"[0.041677879629391325,0.012450547741734513]",4.0,"[0.02,0.02]",185.256,0.0,29.0,29.0,72.0,1.0,,,,,,,
,,,,,,,672b330d847a68f7de308027,684429403ff03c54a4ebd4d9,2025-06-07_11h59.44.590,shape_ratio,2024.1.5,Win32,59.88023952,684250e4f00cb30b92d1fa88,,,,,,,,,,,185.2576,185.7539,,,186.0069,186.1228,right,,,,,,,,0.1,0.1052,,,,,,,185.7539,186.0066,186.123,"[0.06386960606283253,-0.16458220725594153]",4.0,"[-0.02543539551843132,-0.0071811677352688055]",4.0,"[-0.08390930463893155,0.09677616408974153]",100.0,"[0.09521938813708232,0.06270774319880289]",4.0,"[0.1648755649015561,-0.004954527915754528]",4.0,"[0.047713739231429485,0.10643095910144827]",4.0,"[-0.03054706751090147,0.07053996995599772]",100.0,"[-0.13150749729925518,0.03269864705324925]",4.0,"[-0.003948836344332591,-0.1752731048338928]",4.0,"[0.09069588012851423,0.14089476268317117]",4.0,"[-0.15341332292173201,-0.0055326355102448856]",4.0,"[0.11235593028657247,-0.05987332135686462]",4.0,"[-0.12346740940817398,0.1493259396998021]",4.0,"[-0.04677009763086385,-0.05250779638781904]",4.0,"[0.041383988226875244,-0.09113268244783201]",100.0,"[-0.02747692036401172,-0.10123293143648528]",4.0,"[0.11730151074101988,-0.002267351778032418]",4.0,"[-0.06630267563315034,0.16138855747225023]",4.0,"[-0.10891134835496971,-0.006273672240354959]",4.0,"[-0.08015835418874649,0.04972659410632406]",4.0,"[-0.12447151416609004,-0.12570282582111134]",4.0,"[0.17886492262817,0.060589135462613936]",4.0,"[0.03309528053651069,0.17008125785916028]",4.0,"[-0.18982822823933046,0.04716078940538847]",4.0,"[0.1565250551083958,0.12087422917054343]",4.0,"[0.01736401141294908,-0.007115113714821695]",4.0,"[0.019095792346327183,0.040490741232436164]",4.0,"[0.13710255889808245,-0.11933845799888662]",4.0,"[-0.025360756799936882,0.15310623748416777]",4.0,"[-0.07422721817592683,-0.12091580483487017]",4.0,"[0.13544998719147852,0.07463520865713913]",4.0,"[0.10186991221690793,-0.1458404658528086]",4.0,"[0.02,0.02]",187.2204,0.0,30.0,30.0,197.0,1.0,,,,,,,
,,,,,,,672b330d847a68f7de308027,684429403ff03c54a4ebd4d9,2025-06-07_11h59.44.590,shape_ratio,2024.1.5,Win32,59.88023952,684250e4f00cb30b92d1fa88,,,,,,,,,,,187.2218,187.7201,,,187.9704,188.2701,right,,,,,,,,0.45,0.2853,,,,,,,187.7201,187.9703,188.2702,"[0.0747394090980092,0.1649771082549142]",4.0,"[-0.018620064517632925,0.15403015585495528]",4.0,"[0.03578241545576812,-0.11688739433279596]",4.0,"[0.009041696205335866,0.051622243534226]",100.0,"[-0.11388567351815473,0.07968727176545708]",100.0,"[0.019895229585957797,-0.18123315242525673]",100.0,"[-0.04917537438358637,-0.1115699539616346]",4.0,"[0.11335055474789006,0.060073187767098885]",4.0,"[-0.0767353772199129,-0.1840213643851525]",4.0,"[-0.1269866888801211,-0.14065760068117364]",4.0,"[0.031108981405564538,0.19349486772770588]",100.0,"[0.02516709604404645,-0.07355266008864873]",4.0,"[-0.16764581403379947,0.08765480494066326]",4.0,"[0.18615545013135762,0.07263193170041833]",4.0,"[-0.10085693389873555,-0.05038817495261009]",100.0,"[0.19409185258541267,-0.01700763672014209]",100.0,"[0.00930780193926159,0.0014034247819763024]",4.0,"[-0.03622840257512375,-0.0059402201213369634]",4.0,"[-0.11473132576296681,-0.005060516744861956]",100.0,"[-0.12006554503814372,-0.09078484999780408]",4.0,"[-0.18835976345951286,0.009578116713250968]",4.0,"[-0.06938723208199477,0.10964032110753771]",100.0,"[0.04709735690436348,0.11539745617074346]",100.0,"[-0.02550927225094417,0.0768352516543943]",4.0,"[0.1266592934976064,-0.014835696773798675]",100.0,"[0.1379657642827666,0.12429670542103369]",100.0,"[0.11919924201494918,-0.11753272273762963]",4.0,"[-0.11931257583681419,0.15980198775761092]",100.0,"[0.1783183248396275,-0.06081063946065513]",100.0,"[0.07307201112794731,-0.025799789466413606]",4.0,"[-0.0029816083175183694,-0.10395494187900553]",100.0,"[0.13663520521693542,-0.06278381090373265]",4.0,"[0.02,0.02]",189.3698,0.0,31.0,31.0,144.0,1.0,,,,,,,
,,,,,,,672b330d847a68f7de308027,684429403ff03c54a4ebd4d9,2025-06-07_11h59.44.590,shape_ratio,2024.1.5,Win32,59.88023952,684250e4f00cb30b92d1fa88,,,,,,,,,,,189.371,189.8701,,,190.12,190.2362,right,,,,,,,,0.9,0.1011,,,,,,,189.8702,190.12,190.2363,"[-0.026399701562758195,0.04336827556781408]",100.0,"[0.1240347368534151,0.05284021618036529]",100.0,"[-0.0624280753133718,-0.07329596822378184]",100.0,"[-0.00514003338865692,-0.19248188025901897]",100.0,"[-0.003625526946952122,-0.12034866919109476]",100.0,"[-0.1418264796616153,0.07077068230912456]",100.0,"[0.1240051368929117,0.133411359049217]",100.0,"[0.07019072587551053,0.0619608303751573]",100.0,"[0.14765390590255098,-0.07475025276585044]",4.0,"[-0.0781146537850736,0.09050275927212666]",100.0,"[0.1974508165595753,-0.021783056381564872]",100.0,"[0.012996369341518639,-0.04706949990630461]",100.0,"[-0.17341694963054521,-0.0024109725982622635]",100.0,"[-0.024854910163574606,0.09076126467199405]",4.0,"[0.01711194449461299,0.14134036280055143]",100.0,"[-0.01661146292024737,-0.0023353658379801274]",100.0,"[0.045941207708438264,-0.15085600062370655]",100.0,"[-0.059715474349307976,-0.0015129639085454606]",100.0,"[0.07623662136405572,0.009818277916474572]",100.0,"[-0.06646070660851595,-0.14986054231068602]",100.0,"[0.05268406967478129,-0.05699970897662031]",100.0,"[-0.13616045395519044,0.11389612367831052]",4.0,"[-0.08825230511947221,0.036968245007348105]",100.0,"[-0.1139410704878495,-0.05091027529495103]",100.0,"[0.10124472471329571,-0.051609233916171546]",100.0,"[-0.044003625391328606,-0.11345997521130141]",100.0,"[-0.0385674272660078,0.19296121267042174]",100.0,"[0.10382494731352107,0.09554403872366468]",100.0,"[-0.09016504829879045,-0.10722796339266803]",100.0,"[0.09135050815961175,-0.15311420188616942]",100.0,"[-0.12775943991707922,-0.14177740486435084]",100.0,"[0.010903377972651833,0.1845807970754011]",100.0,"[0.02,0.02]",191.3363,0.0,32.0,32.0,10.0,1.0,,,,,,,
,,,,,,,672b330d847a68f7de308027,684429403ff03c54a4ebd4d9,2025-06-07_11h59.44.590,shape_ratio,2024.1.5,Win32,59.88023952,684250e4f00cb30b92d1fa88,,,,,,,,,,,191.3374,191.8358,,,192.0863,192.2375,left,,,,,,,,0.5,0.1355,,,,,,,191.8359,192.0862,192.2376,"[0.036710003234848985,0.11672872829344523]",4.0,"[0.13893322477818631,-0.04098018898340035]",100.0,"[0.07816927125389232,-0.10878163089681248]",100.0,"[-0.09234987411651088,0.0560171586722185]",100.0,"[0.08551613901719038,-0.061694370919900154]",100.0,"[-0.11034335489682559,0.11005246521403193]",4.0,"[0.09522144099061468,0.019298454081147078]",100.0,"[0.02584554115234647,0.1917438228105664]",4.0,"[-0.1489091582016057,0.028256932471233277]",4.0,"[0.15955826120208616,-0.10185705019421766]",100.0,"[-0.18916215456076352,0.00040437050476316495]",4.0,"[-0.16398944912258334,-0.07715663089960283]",4.0,"[-0.07519769400327289,-0.09208063893498253]",4.0,"[-0.07137874666561589,-0.17758326233883065]",4.0,"[-0.033657828850997766,-0.13684815997014263]",4.0,"[-0.0029401898542284134,0.060125642946204316]",100.0,"[-0.04067229209486369,-0.0686702680782239]",4.0,"[0.04081948798395867,0.06834289247489397]",100.0,"[-0.1152921916469563,0.16133914689283813]",4.0,"[-0.09077370335695126,0.008901090031696148]",100.0,"[-0.02931791971786322,0.19698130913592843]",4.0,"[0.15563467113549057,0.1221562574655594]",4.0,"[0.09853472357643579,-0.16855731251991424]",100.0,"[-0.11751848996504687,-0.14193801978585152]",4.0,"[0.10629324175075507,0.1424503496216496]",100.0,"[0.034440186643094096,-0.19583829836057354]",100.0,"[0.13770502446387017,0.07612517206881361]",100.0,"[0.01029993247415979,0.018292324084589685]",4.0,"[-0.04321886615498542,0.11359371165471854]",4.0,"[0.01653461805485726,-0.02501852227328572]",100.0,"[-0.10764404178804964,-0.03256817307456898]",100.0,"[-0.15854142097855145,0.08992966036560487]",100.0,"[0.02,0.02]",193.3356,0.0,33.0,33.0,90.0,1.0,,,,,,,
,,,,,,,672b330d847a68f7de308027,684429403ff03c54a4ebd4d9,2025-06-07_11h59.44.590,shape_ratio,2024.1.5,Win32,59.88023952,684250e4f00cb30b92d1fa88,,,,,,,,,,,193.3362,193.8352,,,194.0858,194.2019,left,,,,,,,,0.1,0.1029,,,,,,,193.8354,194.0858,194.202,"[0.06274125268705119,0.15216246034871025]",4.0,"[-0.011858492503745178,0.12403758599191236]",100.0,"[-0.0009156878636792882,-0.19451486271532745]",4.0,"[0.0807399714740844,0.1032560427229097]",4.0,"[-0.15021688993243992,-0.00112293947027466]",4.0,"[0.1000931414039488,-0.0997164278073313]",4.0,"[-0.10702574943633776,0.1320917505415522]",4.0,"[-0.04653686132594758,-0.09207142758422292]",4.0,"[0.17095294021840418,0.05121701439057381]",4.0,"[-0.09797709051338163,0.03868582501640271]",4.0,"[0.11639971247007257,0.06315159288461102]",4.0,"[-0.04009230750121913,0.15522937089970307]",4.0,"[0.05089341516171903,-0.06537796493715514]",4.0,"[0.08057704748293099,-0.026147016488288412]",4.0,"[-0.17543939845675977,0.09511098724523674]",4.0,"[0.0060492539706308406,-0.07453163472778718]",4.0,"[-0.011720088548041487,-0.11331096647081554]",4.0,"[0.15130909881693064,0.09141561416893997]",4.0,"[-0.021217315488796566,0.056829156419610775]",4.0,"[-0.11504558395549219,-0.1242643693741221]",4.0,"[0.03781813947509387,-0.027014530851222098]",4.0,"[-0.14996304643196132,-0.04314920367618105]",4.0,"[-0.12950463494119357,0.09781161053582647]",100.0,"[-0.019438865861428796,0.015342197124825083]",4.0,"[0.0643283677980695,0.0142822268641902]",4.0,"[0.12119732620155882,0.1461536147383488]",4.0,"[0.12516325193691,0.002945819616750679]",4.0,"[-0.05137929664054552,-0.034370878633110995]",100.0,"[0.19213782377018393,-0.05250611915100877]",4.0,"[-0.12812938446692906,-0.08185562904027775]",4.0,"[-0.08105109124494286,0.001972616618540414]",4.0,"[0.15371959163919757,-0.03309673116454634]",4.0,"[0.02,0.02]",195.3017,0.0,34.0,34.0,198.0,1.0,,,,,,,
,,,,,,,672b330d847a68f7de308027,684429403ff03c54a4ebd4d9,2025-06-07_11h59.44.590,shape_ratio,2024.1.5,Win32,59.88023952,684250e4f00cb30b92d1fa88,,,,,,,,,,,195.3022,195.802,,,196.052,196.1351,right,,,,,,,,0.45,0.0678,,,,,,,195.802,196.052,196.1351,"[-0.0893658541405201,-0.08041166871142412]",4.0,"[-0.1320948735766319,-0.029938889569439835]",100.0,"[0.101546382304894,-0.09587598577369967]",4.0,"[0.08354398448406722,-0.016528165048699486]",4.0,"[0.14338646712211606,0.06671034459090294]",100.0,"[-0.15153067037997542,0.02910978324464639]",100.0,"[-0.036196791516825505,0.0430478276419312]",4.0,"[0.14832494715795055,-0.0012282590240908014]",4.0,"[-0.1867194085695817,0.06805579160254144]",4.0,"[0.02195390799569728,-0.013117827493969001]",4.0,"[0.08684167911892693,0.050540253515021255]",4.0,"[-0.06147477241724656,-0.045170567597041245]",100.0,"[0.07841484650627284,-0.1449926406826444]",100.0,"[-0.08962731629582452,-0.164394593528042]",100.0,"[-0.019005155074973575,-0.02614631744592936]",100.0,"[0.03801296564245269,-0.09363068872597972]",4.0,"[0.007542898161915609,0.08024842083941845]",100.0,"[-0.029256835209856547,-0.1419810493551387]",100.0,"[0.09497265646769115,0.10862152836548623]",4.0,"[0.16140664553221323,-0.065557554488814]",100.0,"[-0.16528293344684702,-0.078776833393986]",4.0,"[-0.007207075371903813,0.18693264118442238]",4.0,"[-0.06518187604755885,0.07564439312598106]",4.0,"[0.19058756366446764,-0.001979186968395706]",4.0,"[-0.17430183342367725,-0.01623913110528827]",100.0,"[-0.10973266744407381,0.08221817198826431]",4.0,"[0.13281888135407027,0.13469326957748146]",4.0,"[-0.0807694936089277,0.1621892048506664]",100.0,"[-0.0060062063649008,-0.09108164582619319]",4.0,"[0.08875920583696145,0.15519174346132575]",100.0,"[-0.045509440859344705,-0.18150787976678806]",100.0,"[0.00442311555467642,0.1349021738152018]",4.0,"[0.02,0.02]",197.2346,0.0,35.0,35.0,149.0,1.0,,,,,,,
,,,,,,,672b330d847a68f7de308027,684429403ff03c54a4ebd4d9,2025-06-07_11h59.44.590,shape_ratio,2024.1.5,Win32,59.88023952,684250e4f00cb30b92d1fa88,,,,,,,,,,,197.2352,197.7344,,,197.985,198.4677,right,,,,,,,,0.4,0.4685,,,,,,,197.7345,197.9849,198.4679,"[-0.048519470023371106,-0.053272166853085536]",100.0,"[-0.08092194554782,0.15419633305802372]",4.0,"[-0.06180781111700662,-0.10075474166085707]",100.0,"[0.18099245232622668,0.08138433538219092]",4.0,"[-0.15983341509273383,-0.07417011648811013]",100.0,"[0.07161721524180525,-0.13722560132286876]",4.0,"[0.09872691450434114,0.1583585565710741]",4.0,"[-0.028200767810804033,-0.18497304224170777]",4.0,"[-0.14516430677302988,0.09200852978478473]",100.0,"[0.1749085687877192,-0.03725758247333199]",4.0,"[-0.09769660450034408,0.08385848905416037]",4.0,"[0.08660940278849985,-0.00016836321546798751]",100.0,"[-0.031515154510128894,-0.008302966197311183]",100.0,"[0.05887654924540194,0.1660631601756545]",4.0,"[-0.19554245162576833,0.032011469685027265]",4.0,"[0.1878374978818026,0.033123716775525204]",4.0,"[-0.022294023281574992,0.04337725396660551]",4.0,"[0.044719756620398274,0.10743681222701802]",4.0,"[0.051213652948821735,0.03424041280192571]",100.0,"[-0.11939193232453854,-0.13951852741457357]",100.0,"[-0.014508736130936525,-0.10057492904149146]",100.0,"[-0.08994425820946622,-0.06552841547812739]",4.0,"[0.10148887295941965,-0.0763664991571651]",4.0,"[0.13064205954650135,0.07062835347660502]",100.0,"[0.12175891851678645,-0.04106707746425024]",100.0,"[-0.08678569293229937,0.005898335854811127]",4.0,"[0.025578733172756295,-0.03922576753903893]",4.0,"[-0.15188379280924222,-0.0008632590432299494]",4.0,"[-0.027748632492163455,0.1548956054008719]",100.0,"[0.08893649332836068,0.08241609652061085]",4.0,"[-0.05068709127922196,0.11696986709918165]",100.0,"[0.11451757177312963,-0.14876756943468228]",4.0,"[0.02,0.02]",199.5677,0.0,36.0,36.0,171.0,1.0,,,,,,,
,,,,,,,672b330d847a68f7de308027,684429403ff03c54a4ebd4d9,2025-06-07_11h59.44.590,shape_ratio,2024.1.5,Win32,59.88023952,684250e4f00cb30b92d1fa88,,,,,,,,,,,199.5682,200.0673,,,200.318,200.5008,right,,,,,,,,0.55,0.1681,,,,,,,200.0674,200.318,200.5009,"[-0.16299466805375076,-0.0270990502900999]",4.0,"[-0.15345269773141249,-0.09813461904773736]",4.0,"[0.013557319053222,0.0940226249680689]",4.0,"[0.17679788180602724,0.06302857640127825]",4.0,"[0.04033677283040767,0.12419311049532408]",100.0,"[-0.05949193949520617,0.08560788885041008]",100.0,"[0.07514563599231715,0.07611857009190041]",100.0,"[0.029091110693135212,0.19578279718188965]",100.0,"[0.017907382839502124,0.022911110167173985]",4.0,"[0.12041881101599744,0.02298442524381104]",100.0,"[-0.011687686522116424,-0.15036301692732792]",100.0,"[-0.09382550401232582,0.020346153967349706]",100.0,"[-0.1425371944733375,0.03907819112265535]",100.0,"[-0.0998412504487219,-0.031837851905327966]",4.0,"[0.07580769553585247,-0.031490664592933655]",4.0,"[-0.03128702477447508,-0.11362606492223379]",100.0,"[-0.09443897585422165,-0.0759173917990458]",100.0,"[0.13520722530396467,0.09382869474908387]",100.0,"[0.013909600031269922,-0.11014243356906736]",4.0,"[-0.0033067494070576826,0.14426282782398225]",4.0,"[-0.04475754960169697,0.1308372044194735]",100.0,"[0.06950068308130605,0.15579302981361678]",100.0,"[0.08241329547664793,-0.17135196564092947]",4.0,"[-0.0400577503585669,-0.03573443642128388]",4.0,"[0.059207054056174595,-0.12382567053173671]",4.0,"[-0.16811554549836857,0.07489446415192863]",100.0,"[-0.07494349109845955,-0.1311011069855949]",100.0,"[0.0008331140020173734,-0.02206746917105552]",4.0,"[-0.005519985869942297,-0.1921053229559822]",100.0,"[-0.06868156891055653,0.1631387318678419]",4.0,"[0.18078502488721246,0.009680580832629826]",100.0,"[0.10462707141000305,-0.08724053451082886]",100.0,"[0.02,0.02]",201.6003,0.0,37.0,37.0,87.0,1.0,,,,,,,
,,,,,,,672b330d847a68f7de308027,684429403ff03c54a4ebd4d9,2025-06-07_11h59.44.590,shape_ratio,2024.1.5,Win32,59.88023952,684250e4f00cb30b92d1fa88,,,,,,,,,,,201.601,202.1002,,,202.3508,203.3004,left,,,,,,,,0.9,0.9334,,,,,,,202.1004,202.3507,203.3005,"[-0.03308306486717077,0.14674972082061363]",4.0,"[-0.03706512846709608,-0.12300765060415288]",100.0,"[-0.038460295223815597,0.01738436353259209]",100.0,"[0.03362936141857708,-0.11674898001080267]",100.0,"[0.11937791449723859,-0.020897335881836857]",100.0,"[-0.1352711210652372,-0.12230629132795152]",100.0,"[-0.16481051362978966,-0.00036955764114080046]",100.0,"[0.13679766242267086,-0.07170516968138567]",100.0,"[0.08017455569301227,-0.1570086852374716]",100.0,"[0.11950951694543953,0.10561813972682063]",100.0,"[-0.006415061657238652,-0.011165824857009773]",100.0,"[0.017407775662636633,-0.17918511869487894]",100.0,"[-0.1568468476670795,0.06706959990077713]",100.0,"[-0.07377658339202568,-0.06345249614480247]",100.0,"[-0.11009505913096437,0.06035654690557214]",100.0,"[-0.02696078077589064,0.09563203943774522]",100.0,"[0.1048727521232079,0.05923751579214307]",4.0,"[0.005934982682136589,0.18998842608083832]",100.0,"[0.07655465562459145,-0.023179409238795766]",100.0,"[-0.04485645633230011,0.05893947421618046]",100.0,"[0.11308121254126727,-0.12404285019624839]",100.0,"[-0.13792232692871492,-0.06038723573893777]",100.0,"[0.022747497542209144,-0.06588120061023903]",100.0,"[-0.08228782234793025,0.1753252760648525]",100.0,"[-0.17979908978936107,-0.0560371926638118]",100.0,"[0.09496183377657189,0.15591165937530535]",100.0,"[-0.08012416658958663,-0.16990564649306839]",100.0,"[0.15941771882293285,0.0021225490740849925]",100.0,"[-0.08765739981521964,0.11181055404198828]",4.0,"[0.0379408254315916,0.06108578537294639]",100.0,"[0.16400536891833808,0.06345671538781751]",100.0,"[-0.020306410554621804,-0.08611071645847786]",100.0,"[0.02,0.02]",204.4001,0.0,38.0,38.0,22.0,1.0,,,,,,,
,,,,,,,672b330d847a68f7de308027,684429403ff03c54a4ebd4d9,2025-06-07_11h59.44.590,shape_ratio,2024.1.5,Win32,59.88023952,684250e4f00cb30b92d1fa88,,,,,,,,,,,204.401,204.8998,,,205.1501,205.5335,right,,,,,,,,0.55,0.3685,,,,,,,204.9,205.1501,205.5336,"[-0.12890706648043174,0.0649680179776442]",100.0,"[0.039474462493954546,0.15045006729742572]",4.0,"[0.12674267182934512,0.1181614668620709]",100.0,"[-0.06568627071872206,0.12482266934572112]",100.0,"[-0.08057408769520596,0.08168304487328121]",100.0,"[-0.0434736095813693,-0.0028469740797848818]",100.0,"[0.15641411248607534,-0.03178874096283285]",100.0,"[0.13355824228409416,0.009991979030025319]",4.0,"[0.07085651203720465,-0.15536347460671787]",4.0,"[0.029141891792669537,0.056803537317806546]",4.0,"[-0.10760655877879662,-0.1508593752110439]",100.0,"[-0.047086845055381764,-0.18469733983731101]",100.0,"[0.013098506113032007,-0.014318443552468424]",100.0,"[-0.0012144972595235243,0.11368828047487982]",4.0,"[0.041810786805285646,-0.08235877359991953]",100.0,"[-0.13136353703667952,-0.005798182974594223]",100.0,"[-0.09556016479150134,-0.08852066042095226]",4.0,"[0.18273951126087692,0.056295680653570664]",100.0,"[-0.07100864665911898,0.03795931097815307]",100.0,"[-0.034450883078513114,0.0752935111111081]",4.0,"[-0.14978207266209034,-0.052158500653429966]",100.0,"[0.0032637728756325394,-0.19337931445132037]",4.0,"[0.09910940050679241,0.0724474687417354]",4.0,"[-0.033811683739836215,-0.13105178539144957]",4.0,"[-0.03133503633010815,-0.062325296280863474]",100.0,"[-0.15319469803901728,0.12783134962873755]",4.0,"[-0.003888812291887913,0.033453337619337366]",4.0,"[0.0310037651895103,-0.16111219490874834]",100.0,"[-0.17718365425853877,0.08456788321396151]",4.0,"[0.08248976131185246,0.11797431401684273]",100.0,"[0.11670467306992797,-0.11563610909791973]",4.0,"[0.0903402804325782,0.01888332303788182]",100.0,"[0.02,0.02]",206.6328,0.0,39.0,39.0,71.0,1.0,,,,,,,
,,,,,,,672b330d847a68f7de308027,684429403ff03c54a4ebd4d9,2025-06-07_11h59.44.590,shape_ratio,2024.1.5,Win32,59.88023952,684250e4f00cb30b92d1fa88,,,,,,,,,,,206.6334,207.1327,,,207.3832,207.8006,right,,,,,,,,0.1,0.4068,,,,,,,207.1328,207.3832,207.8006,"[-0.014509293491476552,0.0767551643432738]",4.0,"[-0.08886041757837854,0.1410385349456347]",4.0,"[0.1670882626822748,-0.08137616945881378]",4.0,"[0.019204802304343016,-0.08315413998742933]",4.0,"[-0.10659631469815475,-0.009717949291311938]",4.0,"[-0.1019538651420653,-0.08654897951102947]",4.0,"[-0.09613703142330958,0.06887607739658128]",4.0,"[0.03449387503841798,0.034269851312892924]",4.0,"[0.0556860483942841,0.17189267625609703]",100.0,"[-0.03552615681076698,-0.06247094689774225]",4.0,"[0.14097555692974587,-0.11308875463167534]",100.0,"[-0.14871517127628767,0.13043307515486377]",4.0,"[-0.06463022676782817,-0.028640786111845264]",4.0,"[0.14879622026509426,-0.02615013773117689]",4.0,"[-0.03381238939421736,0.0116648498610017]",4.0,"[0.1404135835020769,0.12530427284870252]",4.0,"[0.017459852505484295,-0.002272540836513975]",4.0,"[0.10704911714061527,0.0635526352342169]",4.0,"[-0.0349877238282453,0.1601010416127688]",4.0,"[0.17615515505283125,0.041693992940781965]",4.0,"[0.05263276786968804,-0.023375469941256846]",4.0,"[0.08985831829072091,-0.13550173440581725]",4.0,"[0.10269814816206004,-0.012335919565389729]",4.0,"[-0.18130804926089625,0.053414618745673006]",4.0,"[-0.029221566555867093,-0.1235403317075227]",100.0,"[0.09830019512195692,0.11499090737938726]",4.0,"[-0.16749322705974162,-0.00004214240399094639]",4.0,"[-0.14109187606092433,-0.1185327225616767]",4.0,"[-0.08199401665609297,-0.15677898428931342]",4.0,"[0.011569594101277184,-0.14378514688858043]",4.0,"[0.041645616559726956,0.09922266540330259]",4.0,"[0.0028827587272952163,0.19400264863963612]",4.0,"[0.02,0.02]",208.8988,0.0,40.0,40.0,201.0,1.0,,,,,,,
,,,,,,,672b330d847a68f7de308027,684429403ff03c54a4ebd4d9,2025-06-07_11h59.44.590,shape_ratio,2024.1.5,Win32,59.88023952,684250e4f00cb30b92d1fa88,,,,,,,,,,,208.8994,209.399,,,209.6494,210.1169,left,,,,,,,,0.5,0.4522,,,,,,,209.3991,209.6493,210.117,"[-0.1754596980535789,0.004107168516888372]",100.0,"[0.1050913071839149,0.06095341705396069]",4.0,"[0.018913425410152965,-0.08053857081414863]",100.0,"[-0.007645219101296234,-0.17987433572605993]",4.0,"[-0.06068483300329179,0.14590197489889833]",100.0,"[0.16043723419887923,-0.04318880062844891]",4.0,"[-0.02363937448662787,0.04273977478737533]",100.0,"[0.09051693242254287,0.10615812589179861]",100.0,"[-0.017663949254077074,0.09634864499210351]",100.0,"[-0.12919044496368948,0.054263645277936395]",4.0,"[-0.07018003845191888,0.05761064586928575]",100.0,"[-0.11794496134924747,0.0961837396285135]",100.0,"[-0.01657908008674722,0.18938324931847866]",100.0,"[0.041536278295664364,-0.15035820231019606]",100.0,"[0.09045193431707518,-0.1328607446152885]",100.0,"[0.07920760521173696,0.1570709137562762]",100.0,"[0.12785475988561534,0.025134087836875055]",100.0,"[-0.08706854545061034,0.0003101995383714053]",4.0,"[-0.17132328144109388,-0.06707622598891287]",100.0,"[0.02003531871172407,-0.0058376558899498315]",100.0,"[0.1376915620058335,0.09387290891715379]",4.0,"[-0.13065517201824675,-0.09556617019480598]",4.0,"[0.037910649397304666,0.14833679533603206]",4.0,"[0.04450265890798844,-0.044800097223534834]",4.0,"[-0.04590330789588057,-0.15632689340004696]",4.0,"[-0.05477451846052872,-0.06005797226578641]",4.0,"[0.16229182346923834,-0.1067077274337123]",4.0,"[0.04470946393970888,0.08603278275906702]",4.0,"[0.12884149845080717,0.14499084234106552]",4.0,"[-0.08376267823097809,-0.09458305965949833]",4.0,"[0.09652890027545478,-0.014776857479914701]",100.0,"[-0.14052808480864423,-0.03147612866812695]",4.0,"[0.02,0.02]",211.2151,0.0,41.0,41.0,94.0,1.0,,,,,,,
,,,,,,,672b330d847a68f7de308027,684429403ff03c54a4ebd4d9,2025-06-07_11h59.44.590,shape_ratio,2024.1.5,Win32,59.88023952,684250e4f00cb30b92d1fa88,,,,,,,,,,,211.2158,211.715,,,211.9655,212.0817,right,,,,,,,,0.45,0.1011,,,,,,,211.715,211.9654,212.0819,"[0.047047261902661154,0.16203511940299442]",100.0,"[-0.06130424769855274,0.014230978469643685]",100.0,"[0.012125344037563915,-0.06530594392426715]",4.0,"[0.1469081502144765,0.0651681559399618]",4.0,"[-0.026920759705610676,-0.0905274022396332]",100.0,"[-0.19162188954234136,0.0167851952036444]",100.0,"[-0.046267286162941984,-0.14227228361064503]",100.0,"[0.147774540460782,-0.08938979310280513]",4.0,"[0.010386308854622812,0.07405272031839531]",4.0,"[0.11668180406771346,-0.04419761631336384]",4.0,"[-0.1614425579968116,0.1131955846243001]",100.0,"[-0.07698742513674488,0.07245522894490163]",4.0,"[-0.14741620440181577,-0.07652928346251839]",100.0,"[0.11037912471062819,-0.14672198117221735]",100.0,"[0.0755277053656004,-0.06810528528466311]",4.0,"[-0.06251475445409085,0.13705210766231518]",4.0,"[-0.009006753907938094,-0.197785361472337]",4.0,"[-0.1063475684332473,-0.04077639927112497]",4.0,"[-0.0013660731216048564,-0.0029033970752273563]",100.0,"[0.013461852836436153,0.12913131797176336]",4.0,"[-0.11443135260831247,-0.1490120104099364]",100.0,"[-0.1595709937494863,-0.030458798471767176]",4.0,"[0.058562070394635575,0.11197408383053711]",4.0,"[0.08733992792662963,0.04070299036993891]",4.0,"[-0.02991789675129435,0.04938082422863622]",100.0,"[-0.1221018305288878,0.032280921047995036]",100.0,"[0.15261354237484492,-0.02029889975390981]",4.0,"[0.06224384082668167,-0.17028926089292554]",4.0,"[-0.11973560823450777,0.11101514081135767]",4.0,"[-0.06081355356608514,0.18138970593360018]",100.0,"[0.10134137248001222,0.16127727504288358]",4.0,"[0.126810599109822,0.028167945965926422]",100.0,"[0.02,0.02]",213.1812,0.0,42.0,42.0,128.0,1.0,,,,,,,
,,,,,,,672b330d847a68f7de308027,684429403ff03c54a4ebd4d9,2025-06-07_11h59.44.590,shape_ratio,2024.1.5,Win32,59.88023952,684250e4f00cb30b92d1fa88,,,,,,,,,,,213.1819,213.6812,,,213.9316,214.3488,right,,,,,,,,0.45,0.4044,,,,,,,213.6813,213.9316,214.3493,"[-0.017149615784781174,-0.12800070936938468]",100.0,"[0.07872616915215183,0.14622529945915386]",4.0,"[0.17349124084990317,0.08891987476069417]",100.0,"[-0.13473647628750768,0.034171529141130405]",4.0,"[0.04680718000900868,-0.0010298727429680357]",100.0,"[-0.05577735720329616,0.11215417141362197]",100.0,"[0.13548713149091338,0.025411849564838482]",100.0,"[-0.0835585608779634,-0.009482682946116497]",100.0,"[0.0697274517887067,-0.11601077196435383]",4.0,"[0.004231357408435089,0.09308588740515471]",4.0,"[0.06173755165840964,0.09947545234685973]",100.0,"[0.10364209557426664,-0.08652813928625996]",4.0,"[-0.06893372542190876,0.04567871152601926]",4.0,"[0.11686797615632226,-0.1586527079763361]",100.0,"[-0.10088565692357275,0.08055408957111661]",100.0,"[-0.13890647154621458,-0.13526252916346562]",4.0,"[0.12865014832870508,-0.02933262017193446]",100.0,"[-0.1008249802694001,-0.06677017462343095]",4.0,"[0.005854831081680365,-0.018634021439943905]",100.0,"[-0.06919685937250336,-0.12106264878186018]",100.0,"[0.13191373859561034,0.08390104006740004]",100.0,"[-0.19501271432910494,0.026529291106095667]",4.0,"[0.07715139689306415,-0.05141642560366668]",4.0,"[0.021496449284304282,-0.1518174256122652]",4.0,"[-0.04127929381459278,-0.16579306922406875]",4.0,"[-0.17770637363299424,-0.07665322928973253]",4.0,"[0.09339927366025917,0.014807340896138424]",100.0,"[-0.022139669879519677,0.17153434132822035]",4.0,"[-0.05418676168959082,-0.044627923264745406]",4.0,"[-0.15810997615924297,-0.007959502871474107]",4.0,"[0.1779177316920179,0.03922246193481754]",4.0,"[-0.10142783972732959,-0.1606083070721209]",4.0,"[0.02,0.02]",215.4483,0.0,43.0,43.0,146.0,1.0,,,,,,,
,,,,,,,672b330d847a68f7de308027,684429403ff03c54a4ebd4d9,2025-06-07_11h59.44.590,shape_ratio,2024.1.5,Win32,59.88023952,684250e4f00cb30b92d1fa88,,,,,,,,,,,215.4492,215.9476,,,216.2003,216.4657,left,,,,,,,,0.4,0.2525,,,,,,,215.9477,216.2001,216.466,"[0.06349955906189457,0.06098888010582303]",100.0,"[-0.15216432017839318,0.03662825973307296]",4.0,"[-0.11945064653582266,-0.06003768103983965]",4.0,"[0.00475328800757065,0.19624178138953874]",4.0,"[0.13498490234756055,0.1279235445003557]",100.0,"[0.013108583635996006,-0.1931714703529849]",100.0,"[-0.0439256403624885,0.010466463492253063]",100.0,"[-0.03665863611612242,-0.19243791113961817]",4.0,"[0.15191341684225473,0.0008877823906556329]",4.0,"[0.022821303811811425,0.13351475087206724]",4.0,"[-0.007705908633411182,-0.058403841709451364]",100.0,"[0.010664382736644962,0.04971130100330966]",4.0,"[-0.038408489724921335,0.17847385110779157]",100.0,"[-0.054926139857420196,-0.09843486070491167]",4.0,"[-0.040007339650241586,0.056905470081825685]",4.0,"[-0.10374624654928401,0.008406138056099143]",100.0,"[-0.08403934706967553,0.1072518018800778]",4.0,"[0.14285434057649876,0.04651781877511785]",100.0,"[0.060066130974147224,0.17667063390621263]",4.0,"[-0.13754014101151865,-0.13244042595209626]",4.0,"[0.18960939350430994,0.020165605249178317]",4.0,"[-0.19700130505345267,-0.030429367994855207]",100.0,"[-0.027103167607375068,0.10325891856419134]",100.0,"[0.08792800986080418,-0.1563767385885106]",4.0,"[0.06012092680590813,0.021110939369562324]",100.0,"[0.19472171079561404,-0.02864235873011846]",4.0,"[0.05654527180956959,-0.06733965555265216]",4.0,"[-0.16446700476638068,0.07910508259213274]",4.0,"[0.10138772381428503,-0.08379867521807925]",100.0,"[0.1766967407391757,0.07324377362558396]",100.0,"[0.08061029925078946,-0.01501281104783481]",4.0,"[-0.07742451004812786,-0.1362940021184233]",4.0,"[0.02,0.02]",217.5641,0.0,44.0,44.0,166.0,1.0,,,,,,,
,,,,,,,672b330d847a68f7de308027,684429403ff03c54a4ebd4d9,2025-06-07_11h59.44.590,shape_ratio,2024.1.5,Win32,59.88023952,684250e4f00cb30b92d1fa88,,,,,,,,,,,217.565,218.0639,,,218.3143,218.3805,right,,,,,,,,0.1,0.0511,,,,,,,218.064,218.3142,218.3806,"[0.08896105426329098,-0.17409229653663338]",4.0,"[-0.1415893430461763,-0.04559121390896589]",4.0,"[-0.12968750853822925,0.11600003202011253]",4.0,"[-0.0771959149968779,-0.1161700234612593]",4.0,"[-0.0417832634780014,-0.07370694204285774]",4.0,"[-0.11264448361921182,-0.14406092460866915]",4.0,"[0.0934443363595923,0.10557308305841126]",4.0,"[0.1281471968235936,-0.09506879947926056]",100.0,"[-0.0987024963587175,-0.03038154848603662]",4.0,"[-0.009488045470212984,0.17510719908149158]",4.0,"[0.02679443492574261,-0.058603080107358076]",4.0,"[0.13112740716679464,0.13812879795227764]",4.0,"[0.03004299931520243,-0.15428036946987708]",100.0,"[-0.010893561301815685,0.007680525579799498]",4.0,"[-0.162402066018347,0.03894040360929445]",4.0,"[-0.09791233333046215,0.01258933631408953]",4.0,"[-0.17127509866625712,0.08449876583047372]",4.0,"[-0.19621888762351086,0.0002048931020793728]",4.0,"[0.05500035524257631,0.04844488024293575]",4.0,"[0.12202969620811045,-0.004722909705519783]",4.0,"[0.16374589962665256,0.03360270639339521]",4.0,"[0.07269738848755121,0.1471288730236002]",4.0,"[0.15855191043186714,-0.047250537395523325]",4.0,"[0.04716055559388567,0.11462289496373769]",4.0,"[0.005774865057399272,0.05337166538912387]",4.0,"[-0.06008305613980527,0.13705954263606834]",4.0,"[-0.06412252594999783,0.06628762672132425]",4.0,"[0.0015190133705874642,-0.09110011800074]",100.0,"[-0.09215574742329567,-0.07523966147611151]",4.0,"[0.04959798282711724,-0.09669235845971288]",4.0,"[0.10150534940851692,-0.12940175601136772]",4.0,"[0.09765672240502023,0.028048831353194824]",4.0,"[0.02,0.02]",219.4803,0.0,45.0,45.0,202.0,1.0,,,,,,,
,,,,,,,672b330d847a68f7de308027,684429403ff03c54a4ebd4d9,2025-06-07_11h59.44.590,shape_ratio,2024.1.5,Win32,59.88023952,684250e4f00cb30b92d1fa88,,,,,,,,,,,219.4812,219.9801,,,220.2309,220.5974,right,,,,,,,,0.4,0.3526,,,,,,,219.9803,220.2308,220.5975,"[0.006138182388020351,0.17684104775012077]",4.0,"[0.09410334582717125,0.009401514436169134]",100.0,"[0.010170232614680343,-0.036216817951356006]",100.0,"[-0.009836385654514892,-0.19300435826718015]",4.0,"[-0.06087961416470789,-0.013661700262708533]",4.0,"[0.08986301903784477,0.1572921189576308]",100.0,"[-0.16116969569672485,0.047993417075238604]",100.0,"[-0.08119760181951516,0.08907469809138538]",4.0,"[-0.0011077470645487486,-0.1267434801680231]",100.0,"[-0.15584769062713172,-0.10800114703063002]",100.0,"[-0.12261504721735943,-0.018082033148593392]",4.0,"[0.12606181121359955,0.06453182517054656]",4.0,"[-0.06722438602071598,0.04183558755258475]",4.0,"[0.05039777115710498,0.07648630545916785]",100.0,"[0.18712494958342116,-0.005463135161091839]",4.0,"[0.14302409575273253,0.10306279868000373]",100.0,"[0.09351728401216838,0.09325768441611292]",4.0,"[0.04927005848369209,-0.18427419781788054]",100.0,"[0.023157831904404104,0.004770059119563934]",4.0,"[-0.03914570998268505,-0.15270483514007513]",4.0,"[0.0962808123823262,-0.12366745976876571]",4.0,"[0.13535586254655324,-0.03903655765906876]",4.0,"[-0.013614860868095857,0.12228860819970874]",4.0,"[-0.0965111368577002,-0.07837634100676716]",100.0,"[-0.04251951921413712,0.1727629969121047]",4.0,"[-0.10788981391986129,0.024063144619573585]",4.0,"[0.0782738474691697,-0.035215540158491924]",4.0,"[0.17563831932547272,0.04024695955124818]",100.0,"[-0.12505319565341128,0.08299732129680155]",4.0,"[-0.10846941029183037,-0.16436639046513232]",100.0,"[0.13894794757713402,0.01354750185570668]",4.0,"[-0.03509005480568053,-0.06592641355881118]",100.0,"[0.02,0.02]",221.6965,0.0,46.0,46.0,172.0,1.0,,,,,,,
,,,,,,,672b330d847a68f7de308027,684429403ff03c54a4ebd4d9,2025-06-07_11h59.44.590,shape_ratio,2024.1.5,Win32,59.88023952,684250e4f00cb30b92d1fa88,,,,,,,,,,,221.6975,222.197,,,222.4465,222.6961,left,,,,,,,,0.55,0.2356,,,,,,,222.197,222.4464,222.6961,"[0.03439463271495211,-0.05121898104122775]",4.0,"[-0.16193120169441272,0.11006303876099861]",100.0,"[-0.15520528288770613,0.022252423729938568]",4.0,"[0.13480184190335692,-0.0484947586408438]",100.0,"[-0.0650616880691138,0.028871835811129603]",100.0,"[-0.009434470040414023,0.15749445938460657]",100.0,"[-0.15479813367589512,-0.12263359478514269]",100.0,"[-0.09021233027257217,-0.08601617804222149]",100.0,"[0.11630451639534843,-0.10983081719393367]",4.0,"[0.17352804231465196,-0.008075203096145154]",100.0,"[0.13151291482025548,-0.14752265103286058]",100.0,"[-0.19519601334361672,0.023167652887342433]",4.0,"[0.1375112221959556,0.058587039062987525]",4.0,"[-0.02120138023123001,-0.14156400100000993]",100.0,"[0.012131421090129374,-0.09407657804080702]",4.0,"[-0.053171638277315254,0.09522508529156448]",100.0,"[-0.11050435738752862,0.14676739871115096]",100.0,"[-0.1068049402665695,-0.03236471512299475]",4.0,"[-0.010942701322594933,0.06771680514346408]",100.0,"[0.07370676805094248,0.009474997950238689]",100.0,"[-0.06230715052384069,-0.12986607640016723]",4.0,"[0.003881398607540938,-0.19993227081760725]",100.0,"[0.05910180227353219,0.10829571683357889]",100.0,"[0.009204048701990528,0.0011393399322971417]",4.0,"[-0.09346942211428387,0.10891320305027703]",4.0,"[-0.01987043304228464,-0.05396967881824992]",4.0,"[-0.049866801478526346,0.16073798579790083]",100.0,"[0.0280283193139751,0.04445879065717373]",4.0,"[-0.14603847684572546,0.06527969086872154]",4.0,"[-0.1082417114131879,0.009867815969837662]",100.0,"[-0.18055637595555674,-0.07199711243842305]",4.0,"[0.14063901656373276,0.10057644455643446]",100.0,"[0.02,0.02]",223.7961,0.0,47.0,47.0,64.0,1.0,,,,,,,
,,,,,,,672b330d847a68f7de308027,684429403ff03c54a4ebd4d9,2025-06-07_11h59.44.590,shape_ratio,2024.1.5,Win32,59.88023952,684250e4f00cb30b92d1fa88,,,,,,,,,,,223.7969,224.296,,,224.5469,224.6457,right,,,,,,,,0.45,0.084,,,,,,,224.296,224.5469,224.6458,"[0.07565016379470822,0.10508710955594686]",4.0,"[-0.04044530947589494,0.010009721930965337]",4.0,"[0.07938985799028918,-0.16844933527899592]",4.0,"[0.03294614836761168,0.19578113758589963]",4.0,"[0.06838880272658053,0.02404932235919051]",4.0,"[0.11533246621370252,0.04274903089885059]",4.0,"[-0.01971867040867453,0.07333898472419874]",4.0,"[-0.021643692756918083,0.14923169196376404]",4.0,"[0.024194198082449454,-0.13814197998195743]",100.0,"[0.14434173540453668,-0.09755107779546514]",4.0,"[0.19948460085830821,0.013949975292849673]",4.0,"[-0.12354285424645291,0.06203599924973391]",4.0,"[-0.09581190027194679,-0.1037320758505122]",100.0,"[-0.11863588957972443,0.14488576612210055]",4.0,"[-0.17954977580652265,-0.06611322473295612]",4.0,"[0.05930177391635012,-0.019338768653704142]",4.0,"[-0.0660052509591128,0.0724450455758775]",100.0,"[0.03177117022717704,0.14975411477350783]",100.0,"[0.033926573157133856,0.09010462328562385]",100.0,"[-0.1630734397115658,-0.013967999569564488]",100.0,"[0.11013871987248111,-0.055401018263733774]",4.0,"[0.03836600836641964,-0.08245499372210992]",4.0,"[0.03237501866851881,0.04378239620896381]",100.0,"[0.16613124604781934,-0.04838141320038197]",4.0,"[0.016525280686639974,-0.045419302208198356]",100.0,"[-0.05176513153056085,-0.14468236406692664]",100.0,"[-0.10548082366583812,-0.0255776708548829]",100.0,"[-0.0660423351118557,0.1755558912446864]",100.0,"[0.16862751826905173,0.05139082495975927]",4.0,"[0.1249587220358882,0.1244815153954471]",100.0,"[-0.10508773895234784,0.017112606781209138]",100.0,"[-0.04923526546865343,-0.03974693432337523]",100.0,"[0.02,0.02]",225.7453,0.0,48.0,48.0,135.0,1.0,,,,,,,
,,,,,,,672b330d847a68f7de308027,684429403ff03c54a4ebd4d9,2025-06-07_11h59.44.590,shape_ratio,2024.1.5,Win32,59.88023952,684250e4f00cb30b92d1fa88,,,,,,,,,,,225.7459,226.2453,,,226.4957,226.7288,right,,,,,,,,0.45,0.2177,,,,,,,226.2454,226.4957,226.7288,"[-0.05396435738327501,0.0222093384619365]",4.0,"[-0.03270293944662947,-0.07447535437683757]",100.0,"[-0.06723942639467063,-0.036856619355888104]",100.0,"[-0.008893176124893844,-0.15041701918859837]",4.0,"[-0.033776938066219744,0.06559854076835478]",100.0,"[-0.06131682173750819,-0.10950157054574794]",4.0,"[-0.0028808401775634093,0.11848191328945006]",100.0,"[-0.07880832441909683,0.06283336413709094]",4.0,"[0.008377112189242345,-0.05954502146119665]",4.0,"[0.1201119017425723,-0.0896664845244081]",4.0,"[-0.12344302589711288,-0.012608653393095649]",100.0,"[0.11195615726220225,0.15412196287961186]",4.0,"[-0.12384478075829009,0.08101117603926679]",100.0,"[-0.19494693561757348,-0.0038056823422607813]",100.0,"[0.011155973145654013,-0.09986969362760321]",100.0,"[0.09772698843910362,0.016710099255395464]",100.0,"[0.03641405089408474,0.060788693122994085]",4.0,"[-0.13832269356230642,0.14366155300734243]",100.0,"[-0.07948981272335823,0.17445319890284547]",4.0,"[-0.10076404876359883,-0.07941419432387604]",4.0,"[0.13327058362775338,-0.0310221869093188]",100.0,"[0.04680218145821101,-0.18854925937657904]",4.0,"[0.1821759276500309,0.04146514515558438]",4.0,"[-0.008981385861110002,0.16342973342723954]",100.0,"[-0.10042733270841896,-0.1687957043870622]",4.0,"[0.16338289026904,-0.07369293446787782]",4.0,"[0.15453249781799197,0.10518392004776612]",4.0,"[0.045970940524651435,0.0998412462162731]",4.0,"[-0.06640530900346876,0.11948404169181549]",100.0,"[0.10731086330887003,-0.12876165428508615]",100.0,"[-0.04016545175372069,-0.18820844490576236]",4.0,"[0.04105857889172246,0.18817905021604908]",4.0,"[0.02,0.02]",227.8289,0.0,49.0,49.0,147.0,1.0,,,,,,,
