right,left,explain.started,explain.stopped,key_resp_3.keys,key_resp_3.rt,key_resp_3.duration,participant,session,date,expName,psychopyVersion,OS,frameRate,study_id,explain_2.started,explain_2.stopped,key_resp_4.keys,key_resp_4.rt,key_resp_4.duration,explain_3.started,explain_3.stopped,key_resp_5.keys,key_resp_5.rt,key_resp_5.duration,fixation.started,fixation.stopped,practice.started,practice.stopped,response.started,response.stopped,key_resp.keys,key_resp.rt,key_resp.duration,feedback.started,feedback.stopped,trials_2.thisRepN,trials_2.thisTrialN,trials_2.thisN,trials_2.thisIndex,trials_2.ran,dot_ratio,explain_4.started,explain_4.stopped,key_resp_6.keys,key_resp_6.rt,key_resp_6.duration,dotDisplay.started,dotDisplay.stopped,ITI.started,polygon_1.pos,polygon_1.edges,polygon_2.pos,polygon_2.edges,polygon_3.pos,polygon_3.edges,polygon_4.pos,polygon_4.edges,polygon_5.pos,polygon_5.edges,polygon_6.pos,polygon_6.edges,polygon_7.pos,polygon_7.edges,polygon_8.pos,polygon_8.edges,polygon_9.pos,polygon_9.edges,polygon_10.pos,polygon_10.edges,polygon_11.pos,polygon_11.edges,polygon_12.pos,polygon_12.edges,polygon_13.pos,polygon_13.edges,polygon_14.pos,polygon_14.edges,polygon_15.pos,polygon_15.edges,polygon_16.pos,polygon_16.edges,polygon_17.pos,polygon_17.edges,polygon_18.pos,polygon_18.edges,polygon_19.pos,polygon_19.edges,polygon_20.pos,polygon_20.edges,polygon_21.pos,polygon_21.edges,polygon_22.pos,polygon_22.edges,polygon_23.pos,polygon_23.edges,polygon_24.pos,polygon_24.edges,polygon_25.pos,polygon_25.edges,polygon_26.pos,polygon_26.edges,polygon_27.pos,polygon_27.edges,polygon_28.pos,polygon_28.edges,polygon_29.pos,polygon_29.edges,polygon_30.pos,polygon_30.edges,polygon_31.pos,polygon_31.edges,polygon_32.pos,polygon_32.edges,dot_size,ITI.stopped,trials.thisRepN,trials.thisTrialN,trials.thisN,trials.thisIndex,trials.ran,break_2.started,break_2.stopped,trials_3.thisRepN,trials_3.thisTrialN,trials_3.thisN,trials_3.thisIndex,trials_3.ran
subject chose dot,subject chose diamond,0.0002,38.2111,space,23.1932,,676054ef296caad582258e02,6842bab55b1a86511aa0124a,2025-06-06_10h54.28.635,shape_ratio,2024.1.5,Win32,60.24096386,6842b561977af9ba9b0f87ca,,,,,,,,,,,,,,,,,,,,,,,,,,,,,,,,,,,,,,,,,,,,,,,,,,,,,,,,,,,,,,,,,,,,,,,,,,,,,,,,,,,,,,,,,,,,,,,,,,,,,,,,,,,,,,,,,
,,,,,,,676054ef296caad582258e02,6842bab55b1a86511aa0124a,2025-06-06_10h54.28.635,shape_ratio,2024.1.5,Win32,60.24096386,6842b561977af9ba9b0f87ca,38.2112,70.9978,space,2.7725,,,,,,,,,,,,,,,,,,,,,,,,,,,,,,,,,,,,,,,,,,,,,,,,,,,,,,,,,,,,,,,,,,,,,,,,,,,,,,,,,,,,,,,,,,,,,,,,,,,,,,,,,,,,,
,,,,,,,676054ef296caad582258e02,6842bab55b1a86511aa0124a,2025-06-06_10h54.28.635,shape_ratio,2024.1.5,Win32,60.24096386,6842b561977af9ba9b0f87ca,,,,,,70.9979,75.6458,space,1.6229,,,,,,,,,,,,,,,,,,,,,,,,,,,,,,,,,,,,,,,,,,,,,,,,,,,,,,,,,,,,,,,,,,,,,,,,,,,,,,,,,,,,,,,,,,,,,,,,,,,,,,,,
,,,,,,,676054ef296caad582258e02,6842bab55b1a86511aa0124a,2025-06-06_10h54.28.635,shape_ratio,2024.1.5,Win32,60.24096386,6842b561977af9ba9b0f87ca,,,,,,,,,,,75.6598,76.1465,76.1467,76.3959,76.396,77.7291,left,1.3093,,77.7293,78.8284,0.0,0.0,0.0,1.0,1.0,0.8,,,,,,,,,,,,,,,,,,,,,,,,,,,,,,,,,,,,,,,,,,,,,,,,,,,,,,,,,,,,,,,,,,,,,,,,,,,,,,,,,,,,,,
,,,,,,,676054ef296caad582258e02,6842bab55b1a86511aa0124a,2025-06-06_10h54.28.635,shape_ratio,2024.1.5,Win32,60.24096386,6842b561977af9ba9b0f87ca,,,,,,,,,,,78.8288,79.3284,79.3285,79.5777,79.5778,80.3107,right,0.7268,,80.3107,81.4105,0.0,1.0,1.0,0.0,1.0,0.2,,,,,,,,,,,,,,,,,,,,,,,,,,,,,,,,,,,,,,,,,,,,,,,,,,,,,,,,,,,,,,,,,,,,,,,,,,,,,,,,,,,,,,
,,,,,,,676054ef296caad582258e02,6842bab55b1a86511aa0124a,2025-06-06_10h54.28.635,shape_ratio,2024.1.5,Win32,60.24096386,6842b561977af9ba9b0f87ca,,,,,,,,,,,,,,,,,,,,,,,,,,,,81.4107,85.7094,space,1.2687,,,,,,,,,,,,,,,,,,,,,,,,,,,,,,,,,,,,,,,,,,,,,,,,,,,,,,,,,,,,,,,,,,,,,,,,,,,,,,,,,,
,,,,,,,676054ef296caad582258e02,6842bab55b1a86511aa0124a,2025-06-06_10h54.28.635,shape_ratio,2024.1.5,Win32,60.24096386,6842b561977af9ba9b0f87ca,,,,,,,,,,,85.7185,86.2089,,,86.4592,87.1249,right,0.6477,,,,,,,,,0.6,,,,,,86.2092,86.4592,87.1252,"[0.07546690943653506,-0.1507248839291791]",100.0,"[0.06488822270881238,0.1531128996817165]",100.0,"[-0.01824483327504723,-0.06064527043420579]",100.0,"[0.0876725677123733,0.048107637920639545]",4.0,"[0.13211308134434915,-0.14732601037704757]",4.0,"[-0.1580606699696595,-0.12211717731403397]",4.0,"[-0.09609808518185063,0.016432476616996417]",100.0,"[-0.08745908580969596,0.15876048373790386]",4.0,"[-0.04875025227725762,-0.1841916351632362]",100.0,"[0.1254640989872461,-0.09938551170395934]",100.0,"[-0.09840651534322013,0.11020670897382456]",100.0,"[0.013138947859432464,0.10973244844987956]",4.0,"[0.19473463666479196,-0.025071264002719543]",100.0,"[-0.06686882398541726,-0.14408989935887692]",4.0,"[0.09739949108641843,-0.04467670407600529]",100.0,"[-0.1840663705328933,-0.02156132582727056]",100.0,"[0.019078658142838403,0.06989998416606678]",4.0,"[-0.08373172487051996,-0.039192453084732654]",100.0,"[0.10730292188553624,0.16055120936405842]",100.0,"[-0.15220212954705936,0.044340668647979926]",4.0,"[-0.16091358737524905,0.0971734462995872]",100.0,"[-0.03526229128097029,0.11089605337744891]",4.0,"[-0.011155852113883024,-0.1431482354587171]",100.0,"[0.156826947855522,-0.007103207120180888]",4.0,"[-0.027910371940116783,-0.0013257512812797911]",4.0,"[-0.05139657397258613,-0.08534056756800748]",100.0,"[0.0540879903171253,-0.0035975787341311865]",100.0,"[0.14388506985395136,0.11169299732065405]",100.0,"[-0.11911455424382031,-0.08251778833422707]",100.0,"[0.026961670941143108,-0.1838915091229825]",4.0,"[-0.1280768832370909,-0.036651177257789935]",100.0,"[-0.10151518348118099,0.06019771085440942]",4.0,"[0.02,0.02]",88.2245,0.0,0.0,0.0,32.0,1.0,,,,,,,
,,,,,,,676054ef296caad582258e02,6842bab55b1a86511aa0124a,2025-06-06_10h54.28.635,shape_ratio,2024.1.5,Win32,60.24096386,6842b561977af9ba9b0f87ca,,,,,,,,,,,88.2248,88.7241,,,88.9744,89.3405,left,0.3491,,,,,,,,,0.6,,,,,,88.7242,88.9744,89.3405,"[-0.07935231433524635,-0.17275240840570918]",4.0,"[0.09375706942427231,-0.08668581057148875]",100.0,"[-0.03773127078798311,-0.18765356257584095]",100.0,"[-0.106943268230055,-0.003547456350602237]",100.0,"[0.021892346139667937,-0.14099198797045395]",4.0,"[0.1060663921614921,-0.00032656507232525794]",100.0,"[-0.17490814738222912,0.04387356597142945]",4.0,"[-0.15294138703874183,-0.034543387587830404]",4.0,"[-0.08497290904905995,-0.05561755778811264]",100.0,"[-0.028812446081528102,0.12979818179240837]",100.0,"[0.12341295963041843,0.1367892063845116]",4.0,"[0.19352673772596862,0.039863006506377925]",4.0,"[-0.08227900625543866,0.13889263051589495]",100.0,"[-0.1583707996802523,-0.08027400913435205]",100.0,"[-0.04388024741510974,0.17490554622773263]",100.0,"[0.15519914024211037,0.06988022502004841]",4.0,"[0.06357532393737865,-0.029170646431652517]",100.0,"[0.17724454324724082,-0.0704298905844658]",100.0,"[0.06575726302815342,0.04465932035163341]",100.0,"[-0.07463119777931645,0.02799066346672587]",100.0,"[0.06625327988186996,0.10365361679114357]",100.0,"[-0.05126119041248885,-0.134915098388127]",4.0,"[0.1363226771330806,-0.11144099391987258]",4.0,"[0.11216168822316744,0.07638166091547564]",100.0,"[-0.028929966611996226,0.03781691626717979]",4.0,"[-0.03330665742403959,-0.02761942345997832]",100.0,"[-0.19656747595045485,-0.00047603731048759333]",100.0,"[0.02516686082831302,-0.07874922180830515]",4.0,"[0.14720386103798097,0.0060026284047506664]",4.0,"[-0.15566734883456898,0.0851525280517497]",4.0,"[-0.003518007632155797,0.18701505400747936]",100.0,"[-0.1361271538174425,0.1316510260862922]",100.0,"[0.02,0.02]",90.4408,0.0,1.0,1.0,33.0,1.0,,,,,,,
,,,,,,,676054ef296caad582258e02,6842bab55b1a86511aa0124a,2025-06-06_10h54.28.635,shape_ratio,2024.1.5,Win32,60.24096386,6842b561977af9ba9b0f87ca,,,,,,,,,,,90.441,90.9406,,,91.1908,91.573,right,0.3781,,,,,,,,,0.9,,,,,,90.9406,91.1907,91.573,"[0.004116178761411046,-0.08598068810797124]",100.0,"[0.09936392449707869,-0.02706803030545518]",4.0,"[0.04003696100148146,-0.12336541798084825]",100.0,"[0.17605003650917453,-0.04831809816736899]",100.0,"[-0.18444423794296969,0.006311494601943896]",100.0,"[-0.08141043877503086,0.010012409685288381]",100.0,"[-0.05830885755927669,-0.10104811528531106]",100.0,"[-0.17510361230425248,-0.09243552140510847]",4.0,"[0.0001441462655117633,-0.02100412047366372]",4.0,"[0.11508623772381707,-0.11888167204272321]",100.0,"[-0.06431911444394443,0.1343717178180372]",100.0,"[0.023376974653141994,0.12987087880702297]",100.0,"[-0.09501262098389834,0.17158693943433567]",100.0,"[-0.09203783248208522,-0.040826810707989776]",100.0,"[-0.04843148917243208,0.0447586357290648]",100.0,"[0.14357403386890732,0.11632038965919811]",100.0,"[-0.08466727175673962,-0.13694516244397328]",100.0,"[-0.11380317913381137,-0.07914894781678027]",100.0,"[0.1620742311833473,-0.11636512498546234]",100.0,"[-0.03764683945278286,-0.06268386959050262]",100.0,"[0.17420072181484944,-0.002539612726445171]",100.0,"[0.04666908873089035,-0.08259800211955316]",100.0,"[-0.050072093335363714,-0.18333481773777366]",100.0,"[-0.1218080119691775,0.05222913772425721]",100.0,"[0.0635962183267825,0.08101895147157172]",100.0,"[-0.17066286666441496,0.07332803919997057]",100.0,"[0.058901348966695244,-0.010795382425976656]",100.0,"[-0.03783596705540124,0.08740873354027862]",100.0,"[0.029994398903153176,-0.19346171711751814]",100.0,"[-0.10839014680432428,0.09887843775093721]",100.0,"[0.0024945992677105826,-0.13850316938655896]",100.0,"[0.043352494838511835,0.19510500339283288]",100.0,"[0.02,0.02]",92.6728,0.0,2.0,2.0,6.0,1.0,,,,,,,
,,,,,,,676054ef296caad582258e02,6842bab55b1a86511aa0124a,2025-06-06_10h54.28.635,shape_ratio,2024.1.5,Win32,60.24096386,6842b561977af9ba9b0f87ca,,,,,,,,,,,92.673,93.1724,,,93.4226,93.9723,right,0.5325,,,,,,,,,0.5,,,,,,93.1724,93.4225,93.9723,"[-0.1968777894417774,-0.02733859878306803]",4.0,"[0.018335000190717227,-0.11945744078876992]",4.0,"[-0.08669191019249918,0.09416131467768094]",4.0,"[-0.007199861244857696,0.17545267869477527]",4.0,"[0.07695987585050319,-0.16878259758771902]",4.0,"[0.1317781170415061,0.020550321605764442]",100.0,"[-0.1419706440493224,0.019612124762177965]",100.0,"[-0.1080921449519137,-0.023961637587816394]",100.0,"[-0.0034103427316973575,-0.04094195152554336]",4.0,"[0.13932461767173265,-0.029984306437051314]",4.0,"[-0.023091758004493895,0.014173887123187678]",100.0,"[0.08783449338230225,0.11097872333445509]",4.0,"[-0.05633037300275388,-0.18829677351572294]",100.0,"[0.023854415890314454,-0.19195434336403136]",100.0,"[0.059250640575631654,0.06819018811713659]",100.0,"[0.19273417110184946,-0.002091695496790838]",4.0,"[0.10854240001794756,-0.08320606809418916]",4.0,"[0.16937463184790436,-0.06402934416926388]",100.0,"[-0.13828991597223653,-0.06831150965770202]",4.0,"[-0.0760945950057122,0.046053133219642405]",4.0,"[-0.0699040265492091,0.16221076333084505]",4.0,"[-0.05185765893949564,-0.0645401233445484]",100.0,"[0.012127776462262947,0.10239421764146074]",100.0,"[0.0960601937875531,0.1739264357929093]",100.0,"[-0.04125909563551291,-0.13065081075635904]",100.0,"[0.019701073372542708,0.01323656524768854]",100.0,"[0.16282273856185261,0.0567605382020204]",100.0,"[0.06077427522156658,-0.08050066063020515]",100.0,"[-0.13305684256482292,0.09234407904701813]",4.0,"[-0.030314041327350095,0.06019576939016359]",100.0,"[-0.13620674951252923,-0.14270941162109055]",4.0,"[-0.19688216709878886,0.016539756447642603]",4.0,"[0.02,0.02]",95.0718,0.0,3.0,3.0,96.0,1.0,,,,,,,
,,,,,,,676054ef296caad582258e02,6842bab55b1a86511aa0124a,2025-06-06_10h54.28.635,shape_ratio,2024.1.5,Win32,60.24096386,6842b561977af9ba9b0f87ca,,,,,,,,,,,95.072,95.5715,,,95.8215,96.1548,left,0.3237,,,,,,,,,0.1,,,,,,95.5715,95.8215,96.1548,"[0.05830841191135531,-0.1018436360087296]",100.0,"[0.16393845354430006,0.09233113605584393]",4.0,"[0.030030900105320973,0.11158052321771832]",4.0,"[-0.05765328796317623,-0.037697513633297736]",4.0,"[0.1363169825445358,-0.14544121496586376]",4.0,"[0.08949917207781279,-0.13360359056546597]",4.0,"[-0.1514453584501471,0.032586300212175005]",100.0,"[0.14313830890663576,-0.002653596757409234]",4.0,"[-0.02010405078792841,0.030097335520887687]",4.0,"[-0.19031989767052518,0.04582874076075749]",4.0,"[0.024623944208847975,-0.06521675549626114]",4.0,"[0.021699617788829666,0.0009630685870438834]",4.0,"[0.09184874521111308,0.16222606707625523]",4.0,"[-0.03580120795667,-0.13838279900711759]",100.0,"[-0.1710733491524855,0.09702932727938605]",4.0,"[0.1039313524931105,0.09017310124574561]",4.0,"[-0.13670114526654892,0.1435270445732727]",4.0,"[-0.04423001778989533,-0.0877813531778847]",4.0,"[-0.12228229548256964,0.06971533629317249]",4.0,"[-0.061013133827572084,0.036029126707046374]",4.0,"[0.08430896552424574,-0.045939967599021574]",4.0,"[-0.08335091357922964,-0.12169497730650625]",4.0,"[-0.011728023043466802,-0.17906897579542266]",4.0,"[-0.016954332241742115,0.1576431623201477]",4.0,"[0.0233451965900585,-0.13857814213367528]",4.0,"[-0.08845735679948794,-0.07897534263610317]",4.0,"[0.05003197655964466,0.05433079713130957]",4.0,"[-0.15299718401368792,-0.02342497633689806]",4.0,"[0.1626131040243409,-0.04261523988388893]",4.0,"[-0.09354519901841697,-0.01147333597702458]",4.0,"[-0.01378207933227008,0.08107540754385935]",4.0,"[0.11960059132572347,0.044118243116727754]",4.0,"[0.02,0.02]",97.2543,0.0,4.0,4.0,201.0,1.0,,,,,,,
,,,,,,,676054ef296caad582258e02,6842bab55b1a86511aa0124a,2025-06-06_10h54.28.635,shape_ratio,2024.1.5,Win32,60.24096386,6842b561977af9ba9b0f87ca,,,,,,,,,,,97.2545,97.7541,,,98.0043,98.4711,right,0.4524,,,,,,,,,0.5,,,,,,97.7541,98.0042,98.4712,"[0.11565797590664219,-0.15232690027988394]",4.0,"[0.047025984209677324,0.010002735150138572]",4.0,"[0.18213527940439164,0.005321129870075831]",100.0,"[0.07644612682535706,-0.06792975574647521]",4.0,"[0.00891672918080668,0.14471119334303664]",4.0,"[0.11327754126200099,-0.04912999188615948]",4.0,"[-0.13293666854925845,-0.09318757875002467]",4.0,"[-0.024554704537602,0.0628403306732951]",4.0,"[-0.08102247383202989,-0.021271746074073335]",4.0,"[-0.05776045154596461,0.17792994073135993]",100.0,"[0.1089948690184017,0.13986167806067273]",4.0,"[0.13761300839833054,0.005773508584243594]",4.0,"[-0.16691454751517867,-0.02012317294304314]",4.0,"[0.016038253885098632,-0.1145326445191931]",100.0,"[-0.06372545780799477,0.07629832641927936]",100.0,"[0.05197444693952888,0.14997954254164322]",100.0,"[-0.19218730955471508,0.03213378373007055]",4.0,"[0.1415400691039031,0.11195664723660495]",4.0,"[0.06963143354603035,0.08726446255626016]",4.0,"[-0.09834982642609058,-0.11796207692949404]",100.0,"[-0.03597233225334508,0.12721524711272003]",100.0,"[0.1542314927501921,-0.11471868890328323]",100.0,"[-0.14533773085197818,0.12052728829267575]",100.0,"[0.015948151310863436,0.051148286272532845]",100.0,"[-0.17779210664496517,-0.08704534460824485]",100.0,"[-0.0556335386844615,0.03609220327127265]",100.0,"[-0.019170209046308662,-0.18195190707983658]",4.0,"[-0.170177028784383,0.0783288442266247]",100.0,"[-0.10949481659512206,0.012831700828839233]",100.0,"[-0.10372233192119443,0.16242623015431895]",100.0,"[0.18253200296253463,0.07155851358100165]",4.0,"[-0.07048937319857254,-0.14718033288094934]",100.0,"[0.02,0.02]",99.5705,0.0,5.0,5.0,111.0,1.0,,,,,,,
,,,,,,,676054ef296caad582258e02,6842bab55b1a86511aa0124a,2025-06-06_10h54.28.635,shape_ratio,2024.1.5,Win32,60.24096386,6842b561977af9ba9b0f87ca,,,,,,,,,,,99.5708,100.0703,,,100.32,100.7196,right,0.3843,,,,,,,,,0.9,,,,,,100.0703,100.32,100.7196,"[-0.023464460800080803,-0.051295145626654985]",100.0,"[0.006262284934514087,0.0914087363458491]",100.0,"[0.13393810415112276,-0.13380788948929306]",100.0,"[0.12500666227087634,0.10587322023243849]",100.0,"[-0.1800557476381009,-0.06339122231811561]",100.0,"[0.07531888935029415,-0.10196057838856473]",100.0,"[-0.06420385322260139,0.10458016783541411]",4.0,"[-0.1767498728410086,-0.005328133630667764]",100.0,"[-0.12492360797138453,-0.08772832925923964]",100.0,"[0.1102420174819742,-0.06911403799658926]",100.0,"[0.07788160872000048,0.09817336001735597]",100.0,"[0.030223866633011676,-0.0162311318571982]",100.0,"[-0.11844181420009423,-0.03817532348549765]",100.0,"[-0.12220432271025203,0.1012661503142402]",100.0,"[-0.10286666874219931,-0.12183865764537209]",4.0,"[0.006156894539890057,-0.18104449736663003]",100.0,"[-0.07302382368239968,0.022737501144540716]",100.0,"[0.08237952793975288,0.031792694881683826]",100.0,"[-0.06790771781023522,0.15741562233327486]",100.0,"[0.014841878951974146,0.17094151307057567]",100.0,"[-0.003491915491902481,0.038124357089341775]",100.0,"[-0.07408851128815154,-0.06120064152551169]",100.0,"[-0.020971012022376445,-0.10787734912740213]",100.0,"[-0.0513530643102321,-0.17418695898858055]",100.0,"[-0.15430608670756915,0.043629653618545886]",100.0,"[0.14983168531913935,-0.05491235562266477]",100.0,"[0.13058840191181864,0.0015535644829905476]",4.0,"[0.09778110389395255,0.17394557668273813]",100.0,"[0.045398971856806324,0.06711221810230918]",100.0,"[-0.01690645041052874,0.12541169948074607]",100.0,"[-0.060823974122303434,-0.1192061884554324]",100.0,"[0.03629562941024065,0.11985492298815865]",100.0,"[0.02,0.02]",101.8191,0.0,6.0,6.0,11.0,1.0,,,,,,,
,,,,,,,676054ef296caad582258e02,6842bab55b1a86511aa0124a,2025-06-06_10h54.28.635,shape_ratio,2024.1.5,Win32,60.24096386,6842b561977af9ba9b0f87ca,,,,,,,,,,,101.8193,102.3189,,,102.5696,102.8353,right,0.2561,,,,,,,,,0.9,,,,,,102.3189,102.5696,102.8354,"[0.00032084908715726795,0.14290068479172496]",100.0,"[-0.0500185926283512,-0.07905186073291672]",100.0,"[0.15635930236429013,0.021789745571459438]",100.0,"[-0.13518827898436858,0.0513678015747432]",100.0,"[-0.0937203695745491,-0.032508747866642]",100.0,"[0.02970094990652962,0.031060767958913525]",100.0,"[-0.010192132997065888,0.0984603360849379]",100.0,"[0.07051648098179464,0.11268483290842284]",4.0,"[0.06393795337512417,-0.10597175769028414]",100.0,"[0.11477879605608417,-0.08642112084645828]",100.0,"[-0.040531054584078956,0.16103550770678413]",100.0,"[-0.1528644470197191,-0.04670063406766436]",100.0,"[0.06011009335563648,0.16497203395536383]",100.0,"[0.11305472637294744,0.10627191259124245]",100.0,"[-0.16387878661286928,-0.09336246902104776]",4.0,"[0.1743300845626191,-0.09624124201790552]",100.0,"[-0.11916396258807385,0.12573264974944579]",100.0,"[-0.08789963976282096,0.08052182207225754]",100.0,"[-0.18155408589778874,0.004795360054624767]",100.0,"[-0.07247188509338354,0.1199357143179737]",100.0,"[0.003799400570296187,-0.010754573206880091]",100.0,"[-0.03365646383509186,-0.1935983426465878]",100.0,"[0.004514011747526234,-0.09093987737191014]",100.0,"[0.053382053793139525,-0.010266507481993202]",100.0,"[-0.017784610839375024,-0.14778491811078698]",100.0,"[0.15901160952721247,-0.04678774110806508]",100.0,"[-0.05594245663232834,-0.0016150818409833897]",100.0,"[0.04966529142382921,-0.1824577944909876]",100.0,"[-0.04139203232557955,0.04404475032945438]",100.0,"[-0.1491669581345896,-0.1309204257729401]",100.0,"[-0.15402980477948333,0.10448927417806476]",100.0,"[0.0832188826521564,0.03987901436009192]",4.0,"[0.02,0.02]",103.9351,0.0,7.0,7.0,27.0,1.0,,,,,,,
,,,,,,,676054ef296caad582258e02,6842bab55b1a86511aa0124a,2025-06-06_10h54.28.635,shape_ratio,2024.1.5,Win32,60.24096386,6842b561977af9ba9b0f87ca,,,,,,,,,,,103.9353,104.4348,,,104.6849,105.1014,left,0.4037,,,,,,,,,0.4,,,,,,104.4348,104.6849,105.1014,"[0.11162248634626688,0.14268071292095505]",4.0,"[-0.06300496463801551,-0.09075021714773875]",4.0,"[0.04408011342783108,0.14219626818902179]",4.0,"[0.028282606086905943,-0.12499937884505039]",4.0,"[-0.007699115610480167,0.05582750583122276]",100.0,"[0.0629051210277593,-0.15494396587268575]",100.0,"[-0.019055282443238914,-0.03382017067525152]",4.0,"[-0.07172839437407572,-0.026841320492241194]",100.0,"[0.0367452464676156,0.0884040545771115]",100.0,"[0.13796935314557887,-0.04066441804434661]",100.0,"[0.10057180988972172,0.03333407107492422]",4.0,"[-0.019138527077168083,-0.1005987334436502]",100.0,"[-0.06037394052423201,0.1766429289283186]",4.0,"[-0.0626409646051678,-0.1803763414620201]",4.0,"[-0.11958180501432224,0.07048924633687807]",4.0,"[0.14650820102247153,0.09778677582362179]",4.0,"[-0.1825595833461062,-0.03014356744968499]",4.0,"[-0.15176773899271204,-0.09853843933156774]",4.0,"[-0.003894707562603172,0.18193826663378848]",100.0,"[-0.08174047120999856,0.13895982057825582]",4.0,"[0.03049278031737321,-0.037477953062973995]",4.0,"[-0.18852070704611795,0.023017999116789683]",4.0,"[0.18753988155195042,-0.029635677590165395]",100.0,"[-0.1681687317235738,0.06371194683134454]",4.0,"[-0.09529975072193236,0.007094468418606075]",100.0,"[-0.13289532145753533,-0.051392464288862225]",100.0,"[0.012503777268504997,0.016378204284286]",4.0,"[0.0005870698978152354,-0.16969136937050674]",100.0,"[0.07680687291681947,-0.04497858445613583]",4.0,"[0.13637398168581916,-0.10377091552159899]",4.0,"[0.16241329848079508,0.02026309148188468]",100.0,"[0.09678535985838017,-0.07963965813439244]",100.0,"[0.02,0.02]",106.2009,0.0,8.0,8.0,164.0,1.0,,,,,,,
,,,,,,,676054ef296caad582258e02,6842bab55b1a86511aa0124a,2025-06-06_10h54.28.635,shape_ratio,2024.1.5,Win32,60.24096386,6842b561977af9ba9b0f87ca,,,,,,,,,,,106.201,106.701,,,106.9512,107.4339,right,0.4654,,,,,,,,,0.4,,,,,,106.7011,106.9512,107.4339,"[-0.0833151163329949,-0.05860779431837326]",100.0,"[-0.02795746469600954,-0.028508622287971408]",4.0,"[-0.07875810264377113,0.13105992103747285]",4.0,"[-0.16599051776109172,0.10342599929249824]",100.0,"[0.022622432949738695,-0.0024047386808750304]",4.0,"[0.12528526931110293,-0.1501150821564754]",4.0,"[0.053111131739796744,0.09307256352682977]",4.0,"[0.1283720178460692,0.06580039860728053]",4.0,"[0.12653821508198576,-0.027961510898056516]",4.0,"[0.06500433793977381,0.16869436790699652]",4.0,"[0.06160924773058437,-0.04832523836205319]",100.0,"[-0.03304160760628102,0.1969049233964752]",100.0,"[-0.13796325984804259,-0.11623861917880286]",100.0,"[0.018599891118159767,0.15457484051301612]",100.0,"[-0.040653532136915506,-0.11812506267066265]",4.0,"[-0.10726645704999185,-0.01793208028473072]",100.0,"[-0.05216353161769536,0.054961676549784455]",4.0,"[-0.17745337145407564,0.03315930406459687]",100.0,"[0.11379854889512862,0.12710562138529272]",4.0,"[0.133512891702991,-0.07731842775158812]",100.0,"[-0.10617498918559413,-0.15099770603059068]",4.0,"[0.15900312773205286,0.023852754999593013]",4.0,"[0.07403317785932596,0.020415889988111544]",4.0,"[0.0015170154642372884,-0.182032236564199]",4.0,"[-0.01127087145695773,0.08166191932176575]",100.0,"[0.1643779055873744,0.1050512524325062]",100.0,"[0.03031029445300401,0.05519366014901792]",4.0,"[0.02669499014013916,-0.07963963953024158]",100.0,"[-0.1535901612577985,-0.06862818937655597]",4.0,"[-0.04431768977893191,0.10704236957684554]",100.0,"[-0.09217759741783485,0.05750184122171538]",4.0,"[-0.051734663804338075,-0.17262451645254429]",4.0,"[0.02,0.02]",108.5333,0.0,9.0,9.0,160.0,1.0,,,,,,,
,,,,,,,676054ef296caad582258e02,6842bab55b1a86511aa0124a,2025-06-06_10h54.28.635,shape_ratio,2024.1.5,Win32,60.24096386,6842b561977af9ba9b0f87ca,,,,,,,,,,,108.5335,109.0331,,,109.2832,109.783,right,0.485,,,,,,,,,0.55,,,,,,109.0331,109.2832,109.783,"[-0.18513742797594548,-0.0480640634606574]",100.0,"[0.035635243685382546,0.09875236863066243]",4.0,"[-0.1586471454025388,-0.0796590817710429]",4.0,"[-0.02502825955525335,-0.1353045518762534]",100.0,"[-0.05619988649674845,-0.03330032621612399]",100.0,"[0.06560411585659856,-0.11840198627539694]",100.0,"[0.0025749889798898787,0.000021966205215776815]",4.0,"[-0.110806532977424,-0.02807784323765122]",4.0,"[-0.00897671397023497,-0.09657884067068286]",100.0,"[0.18208351270369696,0.08254751776538127]",100.0,"[0.02030097690834125,-0.19666567929386367]",100.0,"[-0.1404388715075914,0.06197278625754251]",4.0,"[0.11549564470662056,-0.02153861881945815]",4.0,"[0.10755418409379491,0.14571710603853094]",100.0,"[-0.007831125747085969,0.05304073118891576]",4.0,"[-0.02812590908561314,0.15094707415813916]",100.0,"[0.06922561247190415,-0.018484501816243355]",100.0,"[-0.041944148557154955,0.021451999142660765]",4.0,"[0.15318075489657387,0.05235819806736377]",100.0,"[0.05681179433419268,0.023015002802852277]",100.0,"[-0.12926817934623208,0.12123915233937407]",4.0,"[0.0908904171842333,0.07940629092444636]",4.0,"[0.024213478672024513,0.1883700751939389]",4.0,"[-0.006018499411876516,0.11305452377270502]",100.0,"[0.09670806761765396,-0.06465578646434235]",100.0,"[0.16476153835986115,-0.09623093156132781]",100.0,"[0.12649478292781374,-0.11595691441109392]",100.0,"[-0.0815336793413979,0.03670336634535277]",100.0,"[-0.08705049194800284,-0.16228774851064307]",4.0,"[0.001434373523007932,-0.047645060930724875]",100.0,"[-0.07829794602055806,0.11702529376632154]",4.0,"[-0.09761267328459718,-0.0877803788972155]",4.0,"[0.02,0.02]",110.8825,0.0,10.0,10.0,71.0,1.0,,,,,,,
,,,,,,,676054ef296caad582258e02,6842bab55b1a86511aa0124a,2025-06-06_10h54.28.635,shape_ratio,2024.1.5,Win32,60.24096386,6842b561977af9ba9b0f87ca,,,,,,,,,,,110.8827,111.3821,,,111.6323,112.082,left,0.4321,,,,,,,,,0.1,,,,,,111.3821,111.6323,112.082,"[-0.055056822450911494,0.1485842978705382]",4.0,"[-0.0524479383695313,0.06278283323154892]",100.0,"[0.056575019054737476,-0.13865819999990847]",4.0,"[0.1042824050060926,0.10434278397825955]",4.0,"[0.14130534812164547,-0.07055468307679111]",4.0,"[-0.023172478247470332,0.1827681425491422]",4.0,"[-0.03857809272740521,0.016211071270376163]",4.0,"[0.030395686456484473,-0.02029015942162017]",4.0,"[-0.1675280959239264,-0.05576479882726431]",4.0,"[0.1685729494074545,0.05505337568502363]",4.0,"[0.06715996865463329,-0.18479287443469067]",4.0,"[0.10421958380738378,0.03195190504809721]",4.0,"[-0.039220431186220074,-0.09466561437530087]",4.0,"[0.0022127805548825415,-0.12467960157013921]",4.0,"[-0.07951337951621264,-0.031026820464095523]",4.0,"[0.17542341319085203,-0.09150893731655314]",4.0,"[0.1520360348121792,0.01484643430003795]",4.0,"[0.07234969984926225,-0.056206153465644025]",100.0,"[0.13050328543610254,0.14227296696064756]",4.0,"[0.08454960163096124,-0.09905150850195107]",4.0,"[-0.08555749492178381,-0.10201586174152898]",4.0,"[0.004533599390467852,-0.17264979788363463]",100.0,"[0.18178625744338442,-0.03257272246997843]",4.0,"[0.07401287126300587,0.13576798256836528]",4.0,"[-0.027517328029583413,-0.04471106782498929]",4.0,"[0.011112465132781206,0.15901658432884094]",4.0,"[0.16181138474850315,0.11727489884095355]",4.0,"[0.12442051438182586,-0.027704612305768775]",4.0,"[0.043537848548614665,0.025039459945054084]",4.0,"[0.0016610846990506992,0.05811351999337498]",4.0,"[-0.02095534545515587,0.11418506854535583]",4.0,"[-0.1297079681865388,-0.11162145030962416]",4.0,"[0.02,0.02]",113.1816,0.0,11.0,11.0,183.0,1.0,,,,,,,
,,,,,,,676054ef296caad582258e02,6842bab55b1a86511aa0124a,2025-06-06_10h54.28.635,shape_ratio,2024.1.5,Win32,60.24096386,6842b561977af9ba9b0f87ca,,,,,,,,,,,113.1818,113.6812,,,113.9314,114.2477,left,0.3093,,,,,,,,,0.45,,,,,,113.6812,113.9314,114.2477,"[-0.15019534105365545,0.060317381208658226]",4.0,"[0.06979054493320222,-0.01211978881180407]",100.0,"[0.07058140581005369,-0.17346500174582077]",100.0,"[0.042357363794856794,0.191772062847303]",100.0,"[-0.14641502649732815,-0.09767338213265038]",4.0,"[-0.08865618888912777,0.15216976201966376]",100.0,"[-0.026380481100053334,-0.050187544804765755]",100.0,"[0.1330585379848901,-0.05267279956045733]",4.0,"[-0.13188236858084823,0.1344507874879362]",4.0,"[0.15747354471608702,0.09499910984514229]",4.0,"[0.017762937858695385,-0.00897004660933429]",4.0,"[0.16478482770146605,0.0017543536752948209]",100.0,"[-0.04980838071709029,-0.14575443255317044]",4.0,"[0.10505921118562805,0.019269725614543234]",4.0,"[-0.06514268802677352,-0.1846853616765462]",4.0,"[0.038402960382795046,0.14843982075785295]",4.0,"[-0.144972187945279,-0.04605269565749477]",4.0,"[-0.02313176471141986,0.04889589715043229]",4.0,"[-0.17414068183539622,0.021686272904059497]",4.0,"[0.015086801779802603,-0.14440510959271557]",100.0,"[-0.08100855874284904,0.017159622453632114]",4.0,"[0.009405150234623695,-0.0912587249180897]",100.0,"[0.0034222919226167313,0.09498293020995562]",100.0,"[-0.05055989109081318,-0.10060332993720972]",4.0,"[-0.18381647686790287,-0.03071185875270553]",100.0,"[0.12083514443945367,-0.14323385433133187]",4.0,"[0.08766587228570975,0.14910547992466575]",100.0,"[0.09786786406791215,0.06003134912775575]",4.0,"[-0.16908105722898864,0.1064905893542373]",100.0,"[0.17908491336983706,-0.06469404582628087]",100.0,"[0.03963551654969975,0.05471057762070943]",4.0,"[-0.08111104654656212,0.05735338166271168]",100.0,"[0.02,0.02]",115.3478,0.0,12.0,12.0,133.0,1.0,,,,,,,
,,,,,,,676054ef296caad582258e02,6842bab55b1a86511aa0124a,2025-06-06_10h54.28.635,shape_ratio,2024.1.5,Win32,60.24096386,6842b561977af9ba9b0f87ca,,,,,,,,,,,115.3481,115.8472,,,116.0973,116.3804,right,0.2714,,,,,,,,,0.9,,,,,,115.8472,116.0973,116.3805,"[-0.15037582752333106,-0.1034778620874899]",100.0,"[0.047341499669418044,-0.10493737085007283]",100.0,"[0.03400411772892163,0.16570108503255984]",100.0,"[0.001499232752062183,0.10073932985974925]",100.0,"[-0.07716250674760222,-0.16487591861039413]",4.0,"[0.0693878088481048,-0.05584389585394862]",4.0,"[0.040507749741599354,-0.001261706311211464]",100.0,"[0.08731908708967481,-0.1204208905145009]",100.0,"[-0.08212372312282783,0.070688578126476]",100.0,"[0.07692480272880492,-0.17030751551789663]",100.0,"[-0.06266889656097309,0.1564496407390932]",100.0,"[0.02259575694709109,-0.14700589966358074]",100.0,"[0.06532705532603225,0.04932224450420569]",100.0,"[-0.18987538524072642,-0.01661512601556992]",100.0,"[0.15544822864339375,-0.08458344076396879]",100.0,"[0.14851657625551345,0.06867119860510637]",4.0,"[0.12549027696853426,0.004437090369294821]",100.0,"[0.11530707117684365,0.1507472624603242]",100.0,"[-0.14050551013471224,0.1028613916977419]",100.0,"[-0.020505424882992198,-0.025051008358145055]",100.0,"[0.19167584513704433,-0.004759436256821931]",100.0,"[-0.03341457894394704,0.04286634309054119]",100.0,"[-0.00153110520282248,-0.08958949993530033]",100.0,"[-0.1326800439747247,0.031105165195947953]",100.0,"[0.05978444554071628,0.090485999066596]",100.0,"[-0.1033345588328818,0.0005650482169706519]",100.0,"[0.12813778369744006,-0.039933645508804134]",100.0,"[0.18861999550737996,-0.061167138028200174]",100.0,"[0.10722371675405187,-0.07720636788256863]",100.0,"[-0.016885580938372554,0.1989775957913822]",100.0,"[-0.05767183590657203,-0.070474571838649]",100.0,"[-0.11871907740292055,-0.07308471111208459]",100.0,"[0.02,0.02]",117.4803,0.0,13.0,13.0,4.0,1.0,,,,,,,
,,,,,,,676054ef296caad582258e02,6842bab55b1a86511aa0124a,2025-06-06_10h54.28.635,shape_ratio,2024.1.5,Win32,60.24096386,6842b561977af9ba9b0f87ca,,,,,,,,,,,117.4806,117.9803,,,118.2301,118.6129,left,0.3647,,,,,,,,,0.45,,,,,,117.9803,118.2301,118.6129,"[0.06294666852438009,-0.1673046661044055]",100.0,"[0.035552794876357624,0.11327396921458288]",4.0,"[0.09155285779584273,0.12353822016181744]",100.0,"[-0.07699133358837978,0.09964762315074856]",4.0,"[-0.09725682105938926,0.014667981732660252]",4.0,"[-0.053990255031938834,0.154425167129127]",100.0,"[0.0406079629557883,-0.06985234865296447]",4.0,"[0.18427574912447775,-0.02835727873677918]",100.0,"[-0.0007186747349591479,-0.1747602001217875]",100.0,"[-0.04967357236376929,-0.012012464983075333]",4.0,"[0.023710683124342317,0.06201546225375204]",4.0,"[0.10233528373447157,-0.021703190015766614]",4.0,"[0.06201683617863279,0.026149507453092274]",100.0,"[0.090148873608928,-0.11911961783805251]",4.0,"[0.0010826812181248214,0.15986705338051949]",4.0,"[0.17854832832342224,0.06852155592824849]",4.0,"[-0.13226994657349533,0.07327453696785796]",4.0,"[-0.07224267120091273,-0.08161668628188938]",4.0,"[0.12498793923609136,-0.09722621638892562]",100.0,"[-0.10981319895901052,-0.12229842316080958]",100.0,"[-0.08496195663569331,-0.16509378289145205]",4.0,"[0.042510983041675277,0.18958831201214413]",4.0,"[-0.1962534743401384,-0.037367049860939465]",4.0,"[0.12418604317150252,0.03631801116394955]",100.0,"[-0.02296997072293799,0.08368576862989519]",4.0,"[0.17154968677840185,0.02734019961610098]",100.0,"[-0.1757692305969179,0.039764035511788816]",100.0,"[-0.12000379921611938,-0.029730906268986123]",4.0,"[0.17659563682567292,-0.0902755384221946]",100.0,"[-0.01715219370623828,0.1968793923242648]",100.0,"[0.13235019036092702,0.13088491225022694]",100.0,"[-0.01355645468963559,-0.07921870062117989]",4.0,"[0.02,0.02]",119.7123,0.0,14.0,14.0,142.0,1.0,,,,,,,
,,,,,,,676054ef296caad582258e02,6842bab55b1a86511aa0124a,2025-06-06_10h54.28.635,shape_ratio,2024.1.5,Win32,60.24096386,6842b561977af9ba9b0f87ca,,,,,,,,,,,119.7125,120.2122,,,120.4622,120.8292,left,0.349,,,,,,,,,0.1,,,,,,120.2122,120.4622,120.8292,"[0.0024104127925950853,-0.08355788914128474]",4.0,"[-0.04903468839342722,-0.12446740661841098]",4.0,"[0.012983951711345313,0.11582931577749334]",4.0,"[0.1047606411229851,0.016363394076245496]",4.0,"[-0.18859452463963355,0.02829685737467316]",4.0,"[-0.09916243958592741,-0.13601545279136787]",4.0,"[-0.06647044741860934,-0.006158005116606823]",4.0,"[0.0027192539237375496,-0.005917752117148112]",4.0,"[-0.10862658375811854,0.14011043713929436]",100.0,"[0.15017753213567883,-0.12617139185324838]",4.0,"[-0.12431202454888174,-0.0640441077491975]",4.0,"[-0.05057553556595564,-0.1736544916652032]",4.0,"[0.07748555776240285,-0.13615976214244443]",4.0,"[0.05943638533211958,0.10465698811134494]",4.0,"[-0.1053096037893977,-0.022523463765118774]",4.0,"[0.07794861537029546,-0.06676375415579727]",4.0,"[0.08139671819764997,0.1738177941483615]",4.0,"[0.04379968187904013,0.025217593734040405]",100.0,"[-0.13699698179617847,0.07947420330199648]",4.0,"[0.0295408093313111,-0.16376761737828674]",4.0,"[-0.047439305678742015,-0.061575569633984806]",4.0,"[-0.035681363383620476,0.18851940833721506]",4.0,"[0.17675639496356366,0.003953349535553324]",100.0,"[0.13932132620423734,-0.020306289475778658]",4.0,"[-0.15843666204712906,-0.0174668542499034]",4.0,"[-0.07909331398562934,0.08157834607246096]",4.0,"[-0.007066289726236936,-0.12347228017857866]",4.0,"[-0.036046786130467204,0.09441841507635314]",4.0,"[0.15925425243476163,0.06278877894847268]",4.0,"[0.011304703136598183,0.0507307449266639]",4.0,"[-0.16897101830309696,-0.07497687010185611]",4.0,"[0.07468976214570741,-0.010609488278231022]",4.0,"[0.02,0.02]",121.9283,0.0,15.0,15.0,205.0,1.0,,,,,,,
,,,,,,,676054ef296caad582258e02,6842bab55b1a86511aa0124a,2025-06-06_10h54.28.635,shape_ratio,2024.1.5,Win32,60.24096386,6842b561977af9ba9b0f87ca,,,,,,,,,,,121.9284,122.4284,,,122.6785,123.0944,right,0.4096,,,,,,,,,0.45,,,,,,122.4284,122.6785,123.0944,"[-0.01004711759186839,-0.14383886071903917]",100.0,"[-0.027685786733473786,0.0713542760559979]",100.0,"[0.0806635725357844,-0.018443182843814396]",4.0,"[0.02510269183755558,-0.09441631958086023]",4.0,"[0.04782335207199895,-0.05136801989263187]",100.0,"[0.07206538622517145,0.03468136448446044]",100.0,"[0.18033253542656955,-0.006326534243210472]",100.0,"[0.17966877950590565,0.07470381460885671]",100.0,"[0.0638556904088561,-0.12637475931262326]",100.0,"[0.041870526796719994,0.17494580470209456]",100.0,"[-0.0222128927852207,0.0011977424103760822]",4.0,"[0.11479714168460146,0.14576833872652287]",4.0,"[-0.1235214644206574,0.03170583260649221]",4.0,"[0.035071564573320016,0.08402014961795705]",100.0,"[-0.13796253589747218,-0.008497962447946514]",100.0,"[-0.043364337465540165,-0.03843680248620371]",4.0,"[-0.11167895705081364,-0.06836876299922945]",4.0,"[0.029834741133878323,-0.18093385690524053]",4.0,"[-0.16068344562451603,0.049901167638867476]",4.0,"[0.0626041212343396,0.12850327260070582]",100.0,"[-0.010488498393071213,-0.06477943831611375]",4.0,"[-0.14347624748615895,0.11817241900895008]",100.0,"[0.13439215651619313,-0.04830486693144203]",100.0,"[0.09538728439921486,-0.10073099481655151]",4.0,"[-0.045230997003509084,0.12861528975313324]",4.0,"[-0.03601958314636104,0.17557472674091518]",4.0,"[-0.05838347267080647,-0.17719423698278466]",4.0,"[0.12772157257286776,0.035725461901343965]",4.0,"[0.1720775894663835,-0.0996213725482254]",4.0,"[0.13281522167309584,0.08674237098446462]",100.0,"[0.12357937762943101,-0.14530871622863287]",4.0,"[-0.11920255780680436,-0.12623956504125594]",4.0,"[0.02,0.02]",124.1941,0.0,16.0,16.0,149.0,1.0,,,,,,,
,,,,,,,676054ef296caad582258e02,6842bab55b1a86511aa0124a,2025-06-06_10h54.28.635,shape_ratio,2024.1.5,Win32,60.24096386,6842b561977af9ba9b0f87ca,,,,,,,,,,,124.1943,124.694,,,124.9439,125.3603,right,0.4007,,,,,,,,,0.4,,,,,,124.694,124.9439,125.3603,"[-0.08632886003643998,-0.09989981352969565]",100.0,"[-0.16577513877814834,0.06363788193498292]",100.0,"[-0.10035510301063483,0.14837575997134883]",100.0,"[-0.04538745345496151,0.06172589570647081]",100.0,"[0.025328376696861298,-0.18526275720555654]",4.0,"[-0.14887153786467625,-0.01046558297495336]",4.0,"[0.09118226914858792,-0.022114967268716673]",100.0,"[0.06305635691845368,0.010041121754075321]",4.0,"[0.04702078906069512,-0.06208266194780061]",4.0,"[-0.01672275771517724,-0.19315142380807312]",4.0,"[-0.08391303374918394,-0.16067622323323472]",4.0,"[0.07639234140977971,-0.15382420138330286]",4.0,"[0.12008774431602245,-0.11768476111641542]",4.0,"[0.16121376703505683,0.028009359520544546]",4.0,"[0.0975693050610789,0.05177957620980244]",4.0,"[-0.11696947065451803,0.0536004052721021]",100.0,"[0.0032158663798063946,-0.029610142416222958]",4.0,"[-0.02550351808799291,0.15610858114069398]",4.0,"[0.016514593552448602,0.014071511363963429]",100.0,"[0.0914371441988258,-0.06569241898575173]",4.0,"[-0.0042785182379646985,-0.13997755306163104]",100.0,"[0.09607156946026713,0.121540263785533]",4.0,"[-0.198446069895661,-0.002196761988010511]",100.0,"[-0.13560553867130185,-0.09945546873000662]",100.0,"[0.0963400668867071,0.16424166509168378]",100.0,"[-0.10548285271732856,-0.019435272761993003]",100.0,"[-0.021424107379575653,-0.07256834725402488]",4.0,"[-0.12091678590941592,0.10041761132898049]",100.0,"[0.03519196847535044,0.1574190892758597]",4.0,"[0.1471647774538624,-0.040775472310564484]",4.0,"[-0.05895775566609283,0.12740736102639802]",4.0,"[0.1639253101913185,0.1118272748185651]",4.0,"[0.02,0.02]",126.4601,0.0,17.0,17.0,162.0,1.0,,,,,,,
,,,,,,,676054ef296caad582258e02,6842bab55b1a86511aa0124a,2025-06-06_10h54.28.635,shape_ratio,2024.1.5,Win32,60.24096386,6842b561977af9ba9b0f87ca,,,,,,,,,,,126.4604,126.9601,,,127.2103,127.776,right,0.5584,,,,,,,,,0.9,,,,,,126.9601,127.2103,127.776,"[0.07666098236426289,-0.05480235060942402]",100.0,"[-0.05892585342248016,0.11574358257774392]",100.0,"[-0.050376795596431295,-0.154974589208552]",100.0,"[0.03338772673437198,0.1716145691068027]",100.0,"[0.022012302272189057,0.09046662411556913]",100.0,"[-0.03145800135549912,0.18467298438153912]",100.0,"[-0.135043001117373,0.12836506544905504]",100.0,"[-0.11848711118265391,0.017449370949151114]",100.0,"[-0.07055380024235634,0.1633064867379147]",100.0,"[0.05886019882106663,0.00657966521386219]",100.0,"[-0.13124230934539802,-0.04988350577635144]",100.0,"[0.16327314484692076,-0.10742807579966683]",4.0,"[-0.10822961142755146,-0.16231311523641218]",100.0,"[0.06493276696091332,-0.1725130454424677]",100.0,"[-0.04903432022072844,0.04776744665354879]",100.0,"[0.09388069070397657,0.07195771532087263]",100.0,"[-0.004089135795759668,-0.12381111244372123]",4.0,"[0.19741546762865836,-0.002379026115040746]",100.0,"[-0.1841219899289341,0.010021375508439798]",100.0,"[0.16790867181795568,0.07790631990962463]",100.0,"[0.13365085363162285,-0.06726278949952183]",100.0,"[-0.0732423360412708,-0.10178825894346466]",4.0,"[0.07255086826225363,-0.10981918896288091]",100.0,"[0.009391182315379575,0.04149693965263784]",100.0,"[-0.042256001265487175,-0.018991926938591263]",100.0,"[0.008194098534077035,-0.0085407776661698]",100.0,"[-0.08483112962134887,-0.009910819813779562]",100.0,"[-0.011381410062975593,0.11477481751514672]",100.0,"[-0.12131750958995112,-0.09409132221163631]",100.0,"[0.04912091811390053,0.12687559809268592]",100.0,"[-0.06770429269180414,-0.057198203631243554]",100.0,"[-0.14430540412143214,-0.12704896254176132]",100.0,"[0.02,0.02]",128.8756,0.0,18.0,18.0,24.0,1.0,,,,,,,
,,,,,,,676054ef296caad582258e02,6842bab55b1a86511aa0124a,2025-06-06_10h54.28.635,shape_ratio,2024.1.5,Win32,60.24096386,6842b561977af9ba9b0f87ca,,,,,,,,,,,128.8758,129.3754,,,129.6255,129.9583,left,0.3273,,,,,,,,,0.55,,,,,,129.3754,129.6254,129.9584,"[0.0046477543115555735,0.054530052302152354]",4.0,"[0.1196868560066715,0.04770684633377534]",100.0,"[-0.07729475935946674,-0.09455190375957129]",100.0,"[0.07938748435931194,0.06411943018487003]",100.0,"[-0.0523247140256497,0.1643697532472786]",4.0,"[-0.015619661113186769,0.09083146225503283]",100.0,"[0.18296018597739008,-0.06646513355400767]",100.0,"[-0.16537106142982574,0.056818312370036046]",4.0,"[0.103596465660583,0.11292599188674043]",100.0,"[0.07678302442003952,0.1636809292403441]",4.0,"[-0.1298348815920647,0.024137417515603037]",100.0,"[0.007470921480374514,-0.05489047096834669]",100.0,"[-0.1020880125228222,0.11928296976755108]",4.0,"[0.10682326607734596,-0.08190176707055648]",100.0,"[0.17452699481833486,0.04135753876993659]",100.0,"[-0.00038084481472617116,-0.13060695416502746]",100.0,"[0.1346641853482422,-0.049910358468935836]",100.0,"[-0.03186775363122144,-0.09255554260599022]",4.0,"[-0.1313681122651805,-0.13354825861078096]",4.0,"[0.025392102765919217,0.005505478709308586]",4.0,"[-0.048220155576304005,-0.024724184161308015]",100.0,"[-0.14036661910333645,-0.06954154874789119]",4.0,"[0.017456008268511552,-0.1873129736641708]",4.0,"[-0.0985500462877904,-0.04797205048821985]",4.0,"[0.06944973375380253,-0.031842426151014736]",100.0,"[0.028348840075101217,0.15601503319671295]",4.0,"[-0.03988971258862406,0.03282655707747547]",4.0,"[0.18111390879239536,-0.016332737418490968]",4.0,"[0.12027807966128087,-0.1364612474704231]",100.0,"[0.05948153317781648,-0.1020030405760932]",100.0,"[-0.18760149868662707,-0.03848679605648727]",100.0,"[0.1562877562758233,0.10796898449847413]",100.0,"[0.02,0.02]",131.058,0.0,19.0,19.0,65.0,1.0,,,,,,,
,,,,,,,676054ef296caad582258e02,6842bab55b1a86511aa0124a,2025-06-06_10h54.28.635,shape_ratio,2024.1.5,Win32,60.24096386,6842b561977af9ba9b0f87ca,,,,,,,,,,,131.0582,131.5577,,,131.8078,132.6905,left,0.8658,,,,,,,,,0.5,,,,,,131.5577,131.8078,132.6906,"[-0.022914828284972853,-0.019871425377703648]",4.0,"[0.04363992869944173,-0.12190727972510541]",4.0,"[0.10058771446183887,0.04081277508547745]",100.0,"[0.19566850230979363,0.01561437755529606]",100.0,"[-0.08267106431048923,-0.13593845867628304]",100.0,"[0.03553798092560392,-0.19345410516436118]",4.0,"[0.032575396257971685,-0.02193325873547878]",4.0,"[-0.16631949948676356,-0.04186319486886406]",4.0,"[-0.013623387811918146,0.06620834073256636]",4.0,"[-0.15460385284420947,0.020946459896937646]",100.0,"[-0.0070658676614794615,0.11711737772105786]",4.0,"[-0.09196763318732255,0.06900520848357289]",100.0,"[0.13864074527168932,0.11523771185219413]",100.0,"[-0.04280617105469817,-0.06362772840352726]",100.0,"[-0.14861244060813067,-0.13009233467103082]",100.0,"[-0.04428173831174682,-0.1550818637609243]",4.0,"[0.14676750538157743,-0.1257015521238453]",4.0,"[-0.14470027944339045,0.08323854453181902]",100.0,"[0.06326079416190468,0.145164753278044]",4.0,"[0.06600704644881025,0.09570333342240109]",4.0,"[-0.11866489747186335,-0.01027345712941081]",4.0,"[-0.0630117322990322,-0.018002816626621194]",100.0,"[0.15529697461599937,0.0169435765167305]",4.0,"[-0.022698478547618882,0.18202403318184987]",100.0,"[0.11885536993316716,-0.012393739958868999]",100.0,"[-0.11005143974747297,0.14434892377586736]",100.0,"[0.14869962317832205,-0.07897191059846373]",4.0,"[0.028993542970583822,0.03475874204844229]",100.0,"[0.08965392587858755,-0.08468203967075064]",4.0,"[-0.10487424810427237,-0.16985671234535854]",100.0,"[-0.11279508695214283,-0.08902714459290353]",100.0,"[-0.05398272962963062,0.1278843920807002]",4.0,"[0.02,0.02]",133.7907,0.0,20.0,20.0,102.0,1.0,,,,,,,
,,,,,,,676054ef296caad582258e02,6842bab55b1a86511aa0124a,2025-06-06_10h54.28.635,shape_ratio,2024.1.5,Win32,60.24096386,6842b561977af9ba9b0f87ca,,,,,,,,,,,133.7909,134.2903,,,134.5407,134.8233,left,0.2765,,,,,,,,,0.6,,,,,,134.2904,134.5407,134.8233,"[0.08271737935964345,-0.12621267489528679]",100.0,"[-0.07109231347344278,0.10330088511999497]",100.0,"[0.11783716263613149,0.05644778594215688]",100.0,"[0.10917299425734478,0.007004649019827253]",100.0,"[0.10094932076510364,0.1030313331714156]",100.0,"[-0.08507606639764041,-0.02446480765277044]",4.0,"[-0.17505819155285282,-0.018145743910875426]",100.0,"[0.0485552493169738,0.018263703533578153]",100.0,"[-0.11944959927593424,-0.12358385509856634]",4.0,"[0.04827974834067741,0.1096596629470814]",4.0,"[0.1586333682405492,0.06390324276120682]",4.0,"[0.1975850219322386,-0.02339439182609967]",100.0,"[-0.1528205220345272,0.06455785217378068]",4.0,"[0.16213966434734695,0.011525255772496312]",4.0,"[0.020172844131511748,-0.01674718119191643]",4.0,"[0.12336876064833759,-0.1203468325204414]",100.0,"[-0.07063243413898901,0.17147993781127632]",4.0,"[0.1561854765577595,-0.03576337425908766]",100.0,"[0.04554710419905382,0.15494468620293625]",100.0,"[-0.019530129275547817,0.14825182388260405]",4.0,"[-0.09968221635243722,0.05244927852294981]",100.0,"[-0.06432453039662486,-0.1025591195997645]",100.0,"[-0.13753746083915577,0.1237238551904328]",4.0,"[-0.16712534507804047,-0.06153027185193885]",100.0,"[-0.020708142372470054,-0.11361816570014709]",100.0,"[0.02053306039445535,-0.14701960200123063]",100.0,"[-0.04017155761598837,0.03597819334846832]",4.0,"[0.015306714178081448,0.04590831458524783]",4.0,"[0.08616673374266223,-0.06059636361554897]",100.0,"[-0.02299465363567977,-0.022960112154297663]",100.0,"[-0.03064337902423616,-0.17289411709658917]",4.0,"[0.16370605327969198,-0.10495423105328285]",100.0,"[0.02,0.02]",135.9229,0.0,21.0,21.0,51.0,1.0,,,,,,,
,,,,,,,676054ef296caad582258e02,6842bab55b1a86511aa0124a,2025-06-06_10h54.28.635,shape_ratio,2024.1.5,Win32,60.24096386,6842b561977af9ba9b0f87ca,,,,,,,,,,,135.9231,136.4226,,,136.6727,136.9557,right,0.2715,,,,,,,,,0.9,,,,,,136.4227,136.6727,136.9557,"[-0.06485267834960622,0.08397606065589329]",100.0,"[0.09234271488029357,0.17387424896271114]",100.0,"[0.03098290318415811,-0.07275406731052894]",100.0,"[0.14609063724286786,-0.0007848340016336681]",100.0,"[-0.1193026769952032,0.09180021135065129]",100.0,"[0.03357065578608825,0.13258647412165117]",100.0,"[-0.18022998056334769,-0.04793485104447483]",100.0,"[-0.011871366948696624,-0.12245301686302994]",100.0,"[-0.03984939686644648,0.1868737741073762]",100.0,"[0.07259929156900055,-0.12755281291994994]",4.0,"[-0.08550736997147078,-0.0073087740415350155]",100.0,"[0.05887559524735833,-0.18800285354939544]",100.0,"[-0.16334889252732665,-0.09246890207632405]",100.0,"[-0.13786745710524834,0.006805128433351904]",100.0,"[0.037489836661617475,0.17690014807989154]",100.0,"[-0.020936695930369377,0.09394001348650549]",100.0,"[0.018978541606614354,-0.009613602963047415]",100.0,"[0.0037452974917520166,0.039617823875875015]",100.0,"[-0.011610909477924444,0.14786084051706622]",100.0,"[-0.18261157590302327,0.04092752359952607]",100.0,"[0.11129982680212652,-0.06663699929709455]",100.0,"[0.16334672693467242,0.11384701352466313]",100.0,"[-0.06254401397726561,0.15243958250897946]",4.0,"[-0.09481166054872522,-0.07972650312094047]",4.0,"[-0.06392020459778852,-0.17084621805862837]",100.0,"[0.07741405227836849,0.12384739780798144]",100.0,"[-0.03965476822586927,-0.010804458828416562]",100.0,"[-0.06415993811239332,-0.04901434262952283]",100.0,"[-0.014698883884265029,-0.06587663813019287]",100.0,"[0.15588417380821307,-0.12256395178902789]",100.0,"[-0.0986313855829975,-0.14872553090313423]",100.0,"[0.15829090256026035,-0.06981138774534022]",100.0,"[0.02,0.02]",138.0552,0.0,22.0,22.0,10.0,1.0,,,,,,,
,,,,,,,676054ef296caad582258e02,6842bab55b1a86511aa0124a,2025-06-06_10h54.28.635,shape_ratio,2024.1.5,Win32,60.24096386,6842b561977af9ba9b0f87ca,,,,,,,,,,,138.0555,138.5552,,,138.8053,139.1383,right,0.323,,,,,,,,,0.5,,,,,,138.5553,138.8053,139.1383,"[0.05603687685190656,0.07290065038042406]",4.0,"[0.008763171220114156,-0.18597160618667907]",100.0,"[-0.15909487574541548,0.07451548737471746]",4.0,"[-0.09154064606311792,0.05533726307911106]",4.0,"[0.17647752684762652,-0.07384285442545407]",4.0,"[0.04193706357289841,-0.012956906602330395]",100.0,"[-0.017308201942356292,0.03983224504072893]",100.0,"[0.042773925232517836,0.15028882834792662]",4.0,"[0.12721052036850816,-0.15290883672376557]",100.0,"[-0.18472343665939442,0.011547422245523369]",4.0,"[-0.11496212969618472,-0.025329123818306886]",100.0,"[0.1501780401318325,0.08691058140779463]",100.0,"[0.14938052745712282,-0.10867683547069779]",4.0,"[-0.05939181697219316,-0.03208035796371956]",100.0,"[-0.11367537004295922,0.13616572747085845]",4.0,"[-0.19011180821371648,-0.05853034133548145]",4.0,"[-0.01620006870239457,-0.04778157032483981]",100.0,"[0.1769393750109122,0.047002489747042096]",4.0,"[0.09053256943029345,-0.0005189735424989837]",100.0,"[0.027186970855973228,0.19329168360018542]",100.0,"[-0.024424951832842195,-0.15646528872584195]",4.0,"[0.15099322812833912,-0.006535732076596724]",4.0,"[-0.13364748659635062,-0.0645435502660062]",100.0,"[0.06538984650118336,-0.1694882363422843]",100.0,"[-0.00651394461572295,-0.10790681588271063]",4.0,"[0.1004947361492716,-0.09597367592620056]",100.0,"[-0.0701287873862511,-0.07853708132645239]",4.0,"[-0.06106775641360571,0.12970550809416317]",100.0,"[-0.06737814622954603,-0.17744067635119826]",100.0,"[-0.07413990072416374,-0.13153192404581587]",4.0,"[0.199138732777191,-0.01690575222257107]",100.0,"[0.09707935496593527,0.15142327876482273]",4.0,"[0.02,0.02]",140.2384,0.0,23.0,23.0,116.0,1.0,,,,,,,
,,,,,,,676054ef296caad582258e02,6842bab55b1a86511aa0124a,2025-06-06_10h54.28.635,shape_ratio,2024.1.5,Win32,60.24096386,6842b561977af9ba9b0f87ca,,,,,,,,,,,140.2387,140.7383,,,140.9877,141.2209,left,0.2212,,,,,,,,,0.45,,,,,,140.7383,140.9876,141.2209,"[-0.17721092082706827,0.05936689284965881]",100.0,"[-0.0030128417895414284,-0.02395775258319346]",100.0,"[0.04054392757448681,0.00592643370002738]",100.0,"[0.0564614573398582,0.18518924462195113]",4.0,"[-0.1615102135375512,-0.060084491942206865]",4.0,"[0.0855917772344868,-0.03298963872044271]",100.0,"[0.03446327753970061,-0.08593349191171752]",4.0,"[-0.13668276723271186,-0.10274069608011535]",4.0,"[0.09935082439448968,0.03704020714228667]",4.0,"[0.12525578005884258,-0.003300300152757932]",4.0,"[0.127474955575717,0.08905579283691945]",4.0,"[0.013582081507129778,0.16849418504207267]",100.0,"[-0.09964001050131731,0.018207021544631073]",100.0,"[0.12951357563453825,-0.05711717518345256]",100.0,"[0.0000714313595494851,-0.11455682045081374]",4.0,"[-0.08207775352217135,-0.15226757318730175]",100.0,"[-0.07066046026533625,0.08003092658652727]",4.0,"[0.1074413452390637,0.1675807241781636]",4.0,"[-0.05869983302266191,-0.02985873585250432]",4.0,"[-0.14506655529611354,0.09366709495215648]",4.0,"[0.08917247825835949,-0.09409945932283835]",4.0,"[-0.02764969558890838,0.05890915649743288]",100.0,"[0.1806011271855864,-0.07082490940381958]",100.0,"[-0.021883160057450748,-0.07482260885359852]",4.0,"[-0.11338332085804334,0.13147643356146743]",4.0,"[-0.007216565622189983,-0.18592566672672375]",4.0,"[-0.182468564817734,0.0070817174623575485]",100.0,"[0.04613723616828301,0.08392599648712515]",100.0,"[0.1396293035893627,-0.10678429578966867]",100.0,"[-0.14166927709484972,0.01567085685267208]",100.0,"[0.17468431447678628,0.04723367068844499]",4.0,"[0.19075637354177347,-0.024287792807166083]",4.0,"[0.02,0.02]",142.3208,0.0,24.0,24.0,126.0,1.0,,,,,,,
,,,,,,,676054ef296caad582258e02,6842bab55b1a86511aa0124a,2025-06-06_10h54.28.635,shape_ratio,2024.1.5,Win32,60.24096386,6842b561977af9ba9b0f87ca,,,,,,,,,,,142.3211,142.82,,,143.0707,143.4534,right,0.3701,,,,,,,,,0.55,,,,,,142.82,143.0707,143.4534,"[-0.17580369283820085,0.0470168222223617]",100.0,"[0.04787072261499121,0.13968874985288643]",4.0,"[-0.013559468735610022,0.11724487544626117]",4.0,"[-0.09631406859243666,-0.1341358035681343]",100.0,"[0.16090043312291466,0.05091893458192168]",100.0,"[0.09215553375841594,0.12493444488529418]",4.0,"[0.028933165537298855,0.1844063671512505]",100.0,"[0.06724019478176356,-0.061275409428165055]",4.0,"[0.108310866996897,0.04189699819340095]",100.0,"[0.07221722136965904,0.08798568009475913]",100.0,"[-0.10754932084423406,0.07672766215345304]",100.0,"[-0.010138097861965935,0.16785478155916264]",100.0,"[0.02954407277393896,-0.11325753128695294]",100.0,"[0.1738149421910371,-0.05243701498056815]",100.0,"[0.025812647342796445,0.10610476460289849]",100.0,"[-0.01864710769004037,-0.09396662172686547]",4.0,"[-0.051079713142477556,0.08753301879201562]",100.0,"[0.15099649348578495,0.10917697463320097]",100.0,"[0.09609620289682644,-0.1191074039265122]",4.0,"[0.09618227011683378,-0.1748263175750845]",100.0,"[0.03789837707061756,-0.03374299892438271]",4.0,"[-0.05997003141481926,-0.03700052169618988]",4.0,"[-0.056828272051827534,-0.14286250544895257]",4.0,"[0.04104508062779822,-0.17389087452886914]",4.0,"[0.1209635840584195,-0.04408901532679793]",4.0,"[-0.07911138366356421,0.012516418809997622]",4.0,"[0.13650095875701013,0.013039243863007139]",4.0,"[-0.1704573797219025,-0.015555341089419219]",100.0,"[-0.13850842537642363,-0.12834746285263388]",4.0,"[0.125283238041976,0.1558913377464397]",100.0,"[-0.17664355772236123,-0.08278862932877314]",100.0,"[-0.008440819853299046,-0.003124782472934087]",100.0,"[0.02,0.02]",144.5528,0.0,25.0,25.0,86.0,1.0,,,,,,,
,,,,,,,676054ef296caad582258e02,6842bab55b1a86511aa0124a,2025-06-06_10h54.28.635,shape_ratio,2024.1.5,Win32,60.24096386,6842b561977af9ba9b0f87ca,,,,,,,,,,,144.5531,145.0527,,,145.3027,145.6197,left,0.2988,,,,,,,,,0.1,,,,,,145.0527,145.3027,145.6197,"[-0.14297464600059098,0.04614969919964395]",4.0,"[0.04796335957849323,-0.06138059822238297]",4.0,"[-0.06937558828815431,-0.18517161879835106]",4.0,"[0.07838664163509396,-0.03430137149816868]",4.0,"[0.1732407456950246,-0.08043997312017391]",4.0,"[-0.11930418301492952,-0.016956027212868006]",4.0,"[0.16859596362896997,-0.023186000337713685]",4.0,"[-0.1842352250829329,0.023829145624699417]",4.0,"[0.11180078950909501,-0.1427029802978486]",4.0,"[-0.09390279292670704,-0.13480388047675823]",4.0,"[0.01911810152722841,0.13964804775307282]",4.0,"[0.05577691469132549,0.11468394517298514]",100.0,"[-0.04398414546835061,0.015784607214237575]",4.0,"[-0.09622229987207737,0.17304698391402837]",4.0,"[-0.015609154568966834,0.18707292127356037]",4.0,"[-0.06622816155835327,-0.018274171432500486]",4.0,"[-0.050230787815440735,-0.0854165853365389]",4.0,"[-0.10520776412494724,0.09714183331082735]",4.0,"[0.11893433984518584,-0.006283476954954723]",4.0,"[-0.15305652800228733,-0.097430552421547]",4.0,"[-0.09363978166890158,-0.07137594529145232]",100.0,"[-0.004648196192164198,-0.19326906042469447]",4.0,"[0.19216990530430014,0.048449503754356964]",100.0,"[-0.05983959252578184,0.054060647464149625]",4.0,"[-0.04549246754150372,0.14594766563074799]",4.0,"[0.06632865136181021,-0.11084108651803135]",4.0,"[0.03862896826785477,-0.01856457964377177]",4.0,"[-0.15046744140078264,0.10644455498632754]",4.0,"[0.10137919166186644,0.09901365411197766]",4.0,"[0.07041588944420156,0.17799872796184965]",4.0,"[0.027555914513146772,-0.12495074318345714]",4.0,"[-0.047897032082139496,-0.1315079997403996]",4.0,"[0.02,0.02]",146.7185,0.0,26.0,26.0,207.0,1.0,,,,,,,
,,,,,,,676054ef296caad582258e02,6842bab55b1a86511aa0124a,2025-06-06_10h54.28.635,shape_ratio,2024.1.5,Win32,60.24096386,6842b561977af9ba9b0f87ca,,,,,,,,,,,146.7189,147.2183,,,147.4684,147.9015,right,0.4284,,,,,,,,,0.55,,,,,,147.2183,147.4684,147.9015,"[-0.02590928469962149,-0.03472887843624118]",100.0,"[-0.15475951622410009,0.04009651309304541]",4.0,"[-0.07418854962347579,-0.10263213373379619]",4.0,"[-0.1516513492047012,-0.11958382419311127]",100.0,"[0.08456370562905564,-0.1348575389252637]",100.0,"[0.18891676857399228,0.04951395024264752]",100.0,"[-0.007149388873471831,-0.19228381390675786]",100.0,"[-0.11796122499492591,0.0635273778568503]",4.0,"[-0.09037898627563205,-0.1652455785822581]",100.0,"[-0.028143834328201518,-0.14000639656053498]",100.0,"[0.07601561340457359,-0.06660080013160706]",100.0,"[-0.19533970628449995,-0.01538378395634728]",4.0,"[0.13203030910582259,-0.11296640183988599]",4.0,"[0.07120355088257972,0.11132986250119507]",100.0,"[0.16479899300839437,-0.05863274330844056]",4.0,"[0.12016917401319452,0.14879835746374426]",4.0,"[-0.1497312299999011,0.09332950226497383]",4.0,"[-0.060489560693937516,0.010428784952916203]",100.0,"[-0.03742301671561694,0.16483092691489334]",100.0,"[0.06320270348646653,0.17299491225900843]",4.0,"[0.19412292126815509,-0.011090676582809274]",100.0,"[0.05544906503132993,-0.016301866595178738]",100.0,"[0.05106756241788425,-0.10047269851910465]",100.0,"[-0.09419393946366728,-0.049634494584943595]",4.0,"[-0.0119817536209968,-0.07916061291437874]",4.0,"[0.11450896737327974,0.08887066749116491]",4.0,"[0.1465754514582995,0.11630357149055462]",4.0,"[-0.011395635635470452,0.014627141309866178]",100.0,"[0.01813552107670668,0.18043032809565707]",100.0,"[0.035843727070565094,0.05811740880739559]",100.0,"[-0.012845784984336212,0.09870856422529276]",4.0,"[0.11918364852500346,0.000053456979152347504]",100.0,"[0.02,0.02]",149.0011,0.0,27.0,27.0,73.0,1.0,,,,,,,
,,,,,,,676054ef296caad582258e02,6842bab55b1a86511aa0124a,2025-06-06_10h54.28.635,shape_ratio,2024.1.5,Win32,60.24096386,6842b561977af9ba9b0f87ca,,,,,,,,,,,149.0013,149.5008,,,149.751,150.2342,right,0.4663,,,,,,,,,0.45,,,,,,149.5008,149.751,150.2342,"[-0.14708241693869087,-0.04289213897799018]",4.0,"[0.11410907641409794,-0.11747776919254957]",4.0,"[0.06998135833710417,-0.13810761661014317]",4.0,"[-0.03574327529326752,-0.03880223664210776]",4.0,"[-0.019470644372313328,0.041120671533940494]",100.0,"[0.13903910101344114,-0.0022722903969617557]",4.0,"[0.18142513750169784,0.07946704053787096]",100.0,"[0.06145512603706883,0.03976328019065914]",100.0,"[0.13384418481970217,-0.07940277622680811]",100.0,"[0.1849766177575604,-0.039409777506056134]",4.0,"[-0.07189198249338064,0.13623770513833647]",4.0,"[0.18021016461084252,0.03754920736370161]",4.0,"[-0.07930330110884043,-0.14840765932227923]",4.0,"[-0.11617558742515799,-0.08227731017749546]",4.0,"[-0.04964615454400546,0.06859085468606413]",4.0,"[0.02586342121153343,-0.13319501628388453]",4.0,"[-0.005918699345990311,-0.17584082488619496]",4.0,"[-0.15394090834239282,0.08462076607475172]",100.0,"[0.08038964333640951,-0.18127020819886164]",100.0,"[0.1381145532852083,0.13953710886437626]",4.0,"[0.0006322583299668371,0.13313674943486833]",100.0,"[-0.07245467455617498,-0.10277615138934194]",100.0,"[-0.10330792140545432,0.0914801579831739]",100.0,"[0.11685915079704805,0.08630807071318547]",100.0,"[-0.144338861002726,0.131501215218908]",100.0,"[0.06381099831002007,0.18509140782750874]",4.0,"[0.05029694129141148,0.14588585388733277]",100.0,"[0.041927975054461705,0.09446857125048601]",4.0,"[0.03045967495371549,0.01256566325072095]",100.0,"[-0.07916800838564671,-0.03367214585735491]",4.0,"[0.036170923266927744,-0.19376819154510097]",4.0,"[-0.17560511239753004,-0.005963663528474959]",100.0,"[0.02,0.02]",151.3336,0.0,28.0,28.0,145.0,1.0,,,,,,,
,,,,,,,676054ef296caad582258e02,6842bab55b1a86511aa0124a,2025-06-06_10h54.28.635,shape_ratio,2024.1.5,Win32,60.24096386,6842b561977af9ba9b0f87ca,,,,,,,,,,,151.3339,151.8334,,,152.0835,152.4505,left,0.3494,,,,,,,,,0.55,,,,,,151.8334,152.0835,152.4505,"[-0.08522345076949348,-0.1772580371918497]",100.0,"[0.04296422305399372,-0.009065193541053711]",4.0,"[0.0017269146229508508,0.04680004691297218]",100.0,"[-0.017802342810660593,0.1586202502705918]",100.0,"[0.061663694629582474,0.12339245296356983]",4.0,"[-0.09672171206681858,0.04887881360177278]",100.0,"[-0.13088831249331737,-0.14137740440479796]",4.0,"[-0.15581153383179575,-0.0475743774755288]",4.0,"[0.07712623951240559,0.0340627274085919]",100.0,"[0.0037821768569094583,-0.05403820915514898]",100.0,"[-0.06588925765316207,-0.07250733489261281]",100.0,"[-0.12328676086965915,0.15194727684557538]",100.0,"[0.14136377318085236,0.06129873356330871]",100.0,"[-0.1808218814683654,0.08076650572151774]",4.0,"[0.03024761258029933,0.08712358067950698]",4.0,"[0.07959635266785856,-0.1370242010464605]",4.0,"[-0.09688191496538069,-0.026139627541741067]",100.0,"[0.11011140837932885,-0.1663406829603822]",100.0,"[0.13528399885581036,-0.05218693514287999]",4.0,"[0.028839407699959817,0.19398608872893675]",100.0,"[-0.04347715728132737,-0.19474385317391865]",100.0,"[0.17522107799668335,-0.08513237656586985]",4.0,"[-0.053965645981479696,0.18350080083675713]",100.0,"[0.18492941490064754,0.021441072513203364]",100.0,"[-0.07860693540376733,0.09471988033001946]",4.0,"[-0.03907934767773858,-0.028817165761266958]",4.0,"[0.08238411234102212,-0.047629018976496004]",100.0,"[-0.027635557177113666,0.012569660619786116]",100.0,"[0.13414566116009755,0.021820965253810703]",4.0,"[0.03300604209684195,-0.18477686255395312]",100.0,"[-0.15136730254881434,0.005644029100271462]",4.0,"[0.03056888454156261,-0.09779448009415996]",4.0,"[0.02,0.02]",153.5492,0.0,29.0,29.0,84.0,1.0,,,,,,,
,,,,,,,676054ef296caad582258e02,6842bab55b1a86511aa0124a,2025-06-06_10h54.28.635,shape_ratio,2024.1.5,Win32,60.24096386,6842b561977af9ba9b0f87ca,,,,,,,,,,,153.5495,154.0497,,,154.2999,154.6496,left,0.3327,,,,,,,,,0.5,,,,,,154.0498,154.2999,154.6497,"[0.021177386805965023,0.03339915792714286]",4.0,"[-0.15044182272743364,-0.11719402589390318]",4.0,"[0.08577183920612556,-0.14630435300898528]",4.0,"[-0.10385389143210512,0.16955814906256514]",4.0,"[0.1450360297275847,0.07314911015294644]",100.0,"[-0.061545978818249185,-0.07517621477374209]",100.0,"[0.06090413959898431,0.18875746675105565]",4.0,"[0.10004469132732495,0.01941779015401967]",100.0,"[-0.020827179854118822,0.06273598590970195]",4.0,"[0.010221165115253478,0.10139366009621663]",100.0,"[-0.0784919270270505,-0.11686675524106273]",100.0,"[0.08029681149919415,-0.07793597245694919]",4.0,"[-0.03249051133507027,-0.12853245770420849]",100.0,"[-0.16326099121380322,0.01780990614555707]",4.0,"[-0.1692573241101184,-0.040678856084937896]",4.0,"[-0.10561651958095604,0.0002438979017181101]",100.0,"[-0.09759424960751142,0.04478318195858594]",100.0,"[0.0003773359296772782,-0.029576078326362117]",4.0,"[0.0548297128386364,0.14882051763549878]",4.0,"[-0.12189599838938853,-0.07922178113295505]",100.0,"[0.14985273035500546,-0.12351847709975262]",4.0,"[0.18774161131682618,-0.01944164813701137]",100.0,"[0.012820840448546868,-0.17715473015108382]",100.0,"[-0.11603819196766078,-0.14179641002379162]",4.0,"[0.06549462316545379,-0.039556761127275485]",100.0,"[0.16107439912738822,0.01702660074479929]",4.0,"[-0.10759656253626765,0.1279254872422752]",4.0,"[0.051147317147070735,0.0739874557485489]",100.0,"[-0.06825729740164856,-0.15632063681034888]",100.0,"[-0.053939661605568116,0.09280924419909246]",100.0,"[0.014867443237251265,-0.11027307898485003]",100.0,"[0.13570612545711314,-0.08166433748910573]",4.0,"[0.02,0.02]",155.749,0.0,30.0,30.0,104.0,1.0,,,,,,,
,,,,,,,676054ef296caad582258e02,6842bab55b1a86511aa0124a,2025-06-06_10h54.28.635,shape_ratio,2024.1.5,Win32,60.24096386,6842b561977af9ba9b0f87ca,,,,,,,,,,,155.7492,156.2483,,,156.4983,157.0486,right,0.5349,,,,,,,,,0.4,,,,,,156.2483,156.4983,157.0487,"[-0.07364402361445924,-0.05809334864082551]",4.0,"[-0.03005516071910344,0.18555761501046453]",100.0,"[0.1937735468423892,0.04283441271246216]",4.0,"[0.09412569527271375,-0.05969933484713813]",4.0,"[-0.0988248353521468,0.051001029915283616]",100.0,"[-0.07436720441005214,0.08632797287580551]",4.0,"[-0.17404785219377797,0.05376939674427893]",100.0,"[0.05434307408903979,-0.15655948549088075]",4.0,"[-0.0243768376155554,-0.050621120422089605]",4.0,"[-0.06420843513410211,0.158061766308601]",4.0,"[-0.015855438353241585,0.02714313393255938]",100.0,"[0.1254776155839547,0.014157219325187674]",4.0,"[-0.12035294632819879,0.09676469497867432]",100.0,"[-0.06982639166603989,-0.13551805648577]",100.0,"[0.07347897189817704,0.1429106520714255]",4.0,"[0.13517647925358564,0.08769309215215293]",4.0,"[0.19045187982962822,-0.025116906153595023]",4.0,"[-0.023056211229933884,-0.19615663092876362]",4.0,"[-0.005101177699096482,0.153018301065233]",4.0,"[0.11495625346964325,-0.1548916872619088]",100.0,"[-0.0953696534206163,-0.16757423100710386]",4.0,"[-0.13487736510387216,-0.09937314561046284]",4.0,"[0.0320568039856165,-0.08758605172061561]",100.0,"[0.02602791288904428,0.01848530308875141]",4.0,"[0.15486490169331374,-0.05075136071181534]",100.0,"[-0.16595391583542718,0.10211873645751568]",4.0,"[0.006643343967969867,0.0890147244725883]",100.0,"[0.00300004971362825,-0.13069693686191852]",100.0,"[-0.13426581658105433,0.00434874868569976]",100.0,"[-0.07972141949286876,0.005329337390835665]",100.0,"[-0.1221610675416797,0.14142727309996958]",4.0,"[0.07698993210116345,0.045325347998210704]",4.0,"[0.02,0.02]",158.1481,0.0,31.0,31.0,156.0,1.0,,,,,,,
,,,,,,,676054ef296caad582258e02,6842bab55b1a86511aa0124a,2025-06-06_10h54.28.635,shape_ratio,2024.1.5,Win32,60.24096386,6842b561977af9ba9b0f87ca,,,,,,,,,,,158.1483,158.6479,,,158.8979,159.4479,left,0.535,,,,,,,,,0.55,,,,,,158.648,158.8978,159.4479,"[-0.09548522027404749,-0.17531267666986547]",100.0,"[-0.015187590859981955,0.1611094536593949]",100.0,"[0.03652844602474371,-0.07221569327382989]",100.0,"[0.09149100113526852,0.14405653255742562]",100.0,"[-0.010837109474202793,-0.08760119629615785]",4.0,"[-0.0834873243035041,-0.07288604392499454]",100.0,"[-0.12298767259758978,0.06973707104741547]",100.0,"[-0.03581659690158663,-0.1632801110049709]",100.0,"[0.1596862243807035,-0.0819270797887494]",100.0,"[-0.14880863406595754,-0.09848773255646838]",4.0,"[-0.057306222106612896,0.13829399887623645]",4.0,"[0.007849956171913194,0.12254804406763996]",4.0,"[-0.029237651830008524,0.08520552383361812]",100.0,"[-0.16476712519568765,0.10075667224843232]",100.0,"[0.15678049704528801,0.02382442082668338]",4.0,"[0.043873714332776946,0.07860925372181536]",4.0,"[0.14323128254607612,0.06177536228004657]",4.0,"[-0.0767636286388372,-0.01822675103992846]",100.0,"[-0.1703066936834096,-0.009100085707509219]",100.0,"[0.056500318515337246,0.032144948859836674]",4.0,"[0.0782287700885016,-0.05824575075384276]",100.0,"[0.12750829975726063,-0.026831057992968598]",4.0,"[-0.049198211617159884,0.18600560546226516]",100.0,"[0.18600816351170965,0.07114783663711563]",4.0,"[0.022028182098145884,-0.028736096543969743]",100.0,"[0.10838986518849235,-0.09064166483044617]",4.0,"[-0.07315543632479432,-0.11783705546677589]",100.0,"[-0.19270457028161245,0.030206322912361666]",100.0,"[-0.12674262916053933,0.1320403366631761]",4.0,"[-0.06813279244439875,0.021021396432473735]",4.0,"[0.04793369003330426,-0.19000609663181925]",4.0,"[0.011909708306920517,0.19689887635232634]",100.0,"[0.02,0.02]",160.5474,0.0,32.0,32.0,70.0,1.0,,,,,,,
,,,,,,,676054ef296caad582258e02,6842bab55b1a86511aa0124a,2025-06-06_10h54.28.635,shape_ratio,2024.1.5,Win32,60.24096386,6842b561977af9ba9b0f87ca,,,,,,,,,,,160.5476,161.047,,,161.2967,161.6128,left,0.312,,,,,,,,,0.1,,,,,,161.047,161.2967,161.6129,"[-0.051127827721728185,-0.013651058754811686]",4.0,"[0.13617533636791693,0.0608453166850733]",4.0,"[-0.1515955414912167,-0.06676640461612655]",4.0,"[-0.029059745420004238,0.14785405768432758]",4.0,"[-0.18935726944036035,0.0032153274593117345]",4.0,"[0.005066755528962426,0.012977380206305318]",4.0,"[0.19636524879584508,0.004375595620726554]",4.0,"[-0.09543019578666234,-0.13312628698574033]",4.0,"[-0.10510410138000133,-0.04838442689509207]",4.0,"[-0.09162188838036228,0.1025940543161949]",4.0,"[0.13853418474200985,-0.12338478950783119]",100.0,"[0.021702039279070353,-0.13254496774237298]",4.0,"[0.0456497777061481,0.18718020032368513]",4.0,"[-0.13469477961650164,0.0580704615105404]",100.0,"[0.11063879737642728,-0.03815205379235182]",4.0,"[-0.17155198295751414,-0.10226142755977212]",4.0,"[0.018554103890509648,0.11646150095646171]",4.0,"[-0.10713220200284476,0.00291448197521052]",4.0,"[0.06367982788259358,-0.18197988646283264]",4.0,"[0.05619224197081226,-0.05878521056394325]",4.0,"[-0.0010647193102552913,-0.07002757264260015]",4.0,"[0.05672449165771073,-0.10718763792899831]",4.0,"[0.07838663926700169,0.11017213032537554]",100.0,"[-0.04688912245247883,-0.12040708399427642]",4.0,"[-0.17778848128578653,0.06429603609874877]",4.0,"[-0.07456909478657135,0.0616139514625803]",4.0,"[0.1262838668604166,0.14808534536752255]",4.0,"[0.15462049051200916,-0.07487480857949283]",4.0,"[-0.1345987186976513,0.14601244684589962]",4.0,"[-0.026283031185380994,0.08848528124558956]",4.0,"[-0.05845799064258261,-0.19017671570028252]",4.0,"[0.012910046199386363,-0.1767749752873477]",4.0,"[0.02,0.02]",162.7126,0.0,33.0,33.0,191.0,1.0,,,,,,,
,,,,,,,676054ef296caad582258e02,6842bab55b1a86511aa0124a,2025-06-06_10h54.28.635,shape_ratio,2024.1.5,Win32,60.24096386,6842b561977af9ba9b0f87ca,,,,,,,,,,,162.7128,163.2123,,,163.4624,163.7456,left,0.2751,,,,,,,,,0.45,,,,,,163.2123,163.4624,163.7456,"[-0.052607747186706896,-0.05367811471584176]",100.0,"[0.18766734586041436,-0.05555726442888005]",100.0,"[0.09071263731307043,-0.1542847084651881]",4.0,"[-0.08364835987063379,0.016215183014141]",4.0,"[0.014356482006705867,-0.04314081627590591]",100.0,"[0.12212781930666189,0.1231821622821231]",100.0,"[-0.12180795956580374,0.03439149210489809]",4.0,"[-0.09299632014798678,-0.09528764219976184]",4.0,"[-0.13641928335661607,-0.11186939874777681]",100.0,"[-0.05757924070720726,0.1610938139316412]",4.0,"[0.16289047611977484,0.023434400286933582]",4.0,"[-0.015885225470373226,0.11904363189766982]",4.0,"[-0.037141879571061694,-0.11985368994598435]",4.0,"[-0.16939231078304393,-0.08720934655714084]",4.0,"[-0.1762645564119496,0.002735177982553892]",100.0,"[-0.03278147297484545,-0.0142977949288957]",100.0,"[0.11907384200330728,-0.04774949099659476]",100.0,"[0.14694519246533172,-0.11603698155580065]",100.0,"[-0.13844546411963066,0.14303071107447285]",4.0,"[-0.034441735392027856,-0.16080998162471868]",4.0,"[0.05248106518744497,-0.13654648612543482]",100.0,"[-0.13241640625757262,-0.04013414058382286]",4.0,"[-0.15271824734907186,0.06610095972736972]",4.0,"[0.16382069754714182,0.07680792347144604]",4.0,"[0.05722402880417082,-0.030052326096674624]",100.0,"[0.04379978248826156,-0.18784558532252074]",4.0,"[0.12614572547654157,0.057756900336450985]",4.0,"[-0.0644046093534751,0.09753589888865273]",100.0,"[0.07404734817650324,0.08544013286638433]",100.0,"[-0.012256560110129723,0.1721402037251012]",100.0,"[0.02113456996081791,0.002365516011396725]",4.0,"[-0.16221029587884128,0.10712872740235979]",4.0,"[0.02,0.02]",164.8451,0.0,34.0,34.0,140.0,1.0,,,,,,,
,,,,,,,676054ef296caad582258e02,6842bab55b1a86511aa0124a,2025-06-06_10h54.28.635,shape_ratio,2024.1.5,Win32,60.24096386,6842b561977af9ba9b0f87ca,,,,,,,,,,,164.8453,165.3449,,,165.595,165.9447,left,0.3422,,,,,,,,,0.1,,,,,,165.3449,165.595,165.9447,"[0.07865178543728847,-0.08392214494763901]",4.0,"[-0.00973111298069863,0.025151998843454444]",4.0,"[0.03785452453077072,-0.055249138566496235]",4.0,"[-0.0487258886327659,0.18131658389474922]",4.0,"[-0.18445569575825138,-0.07106659921272135]",4.0,"[-0.15786075083641335,0.004364941078734369]",4.0,"[0.051844011143988344,0.07262500377059325]",4.0,"[0.16793612681147885,-0.01503823038856488]",4.0,"[0.05957931897242932,0.13163964243020662]",4.0,"[-0.09037321478174885,0.04829539410771846]",4.0,"[-0.14670159542869773,-0.09864654106284045]",4.0,"[-0.14165750926427942,0.05705096451887778]",100.0,"[-0.048851503130301316,-0.06050612910696223]",4.0,"[-0.04969996301528224,-0.18955850296384444]",4.0,"[0.09964339563048961,0.13166687172142633]",4.0,"[0.11367314753401866,-0.13863613762335172]",4.0,"[-0.057564074566544804,0.08210642385766521]",4.0,"[0.13557915432045348,0.043331717895482125]",4.0,"[0.12424452834319416,-0.06129567869336392]",4.0,"[-0.0025797289412800737,0.08483036328987645]",100.0,"[-0.07377973441607993,-0.1394790126687423]",4.0,"[0.004014662954351908,-0.019294561976816418]",4.0,"[0.09175866899314299,0.0365680963347278]",4.0,"[-0.10542152209139045,-0.05157096489747225]",4.0,"[-0.12941020951589688,0.10870056913256106]",4.0,"[0.0018054083753444045,0.16424113296005163]",4.0,"[-0.08389662776458855,0.15910802724712175]",100.0,"[0.17182369735154646,-0.07104800076081938]",4.0,"[-0.18241099315449588,0.08149214184629004]",4.0,"[0.04991716913384526,-0.13506133965135608]",4.0,"[0.002019770180263396,-0.17579300947665963]",4.0,"[0.07182582344032269,-0.014480532045487618]",4.0,"[0.02,0.02]",167.0444,0.0,35.0,35.0,196.0,1.0,,,,,,,
,,,,,,,676054ef296caad582258e02,6842bab55b1a86511aa0124a,2025-06-06_10h54.28.635,shape_ratio,2024.1.5,Win32,60.24096386,6842b561977af9ba9b0f87ca,,,,,,,,,,,167.0446,167.5441,,,167.7942,168.0778,left,0.2703,,,,,,,,,0.4,,,,,,167.5441,167.7942,168.0778,"[-0.1037997177161178,0.16784497319170014]",4.0,"[0.005708940711661352,0.07982592029036]",4.0,"[-0.022043334453549376,-0.12003957084115846]",100.0,"[-0.10371814368800092,-0.11407104926494904]",100.0,"[0.178126985882217,-0.041945466368218415]",100.0,"[-0.16041513772515162,0.008363116042082194]",100.0,"[-0.0009409996029977648,-0.037620865969161664]",4.0,"[-0.04226225108609028,0.06448258894213696]",100.0,"[-0.05602063977470846,0.14331315301336892]",4.0,"[0.0029891697293535557,0.18627597796311232]",4.0,"[-0.09983608733209179,-0.03320405960738623]",4.0,"[0.06925483293303931,-0.12433394481603989]",100.0,"[-0.18953165509885903,0.04638960557643685]",4.0,"[0.10396260883274473,-0.014766067835864037]",4.0,"[-0.16180441552141436,-0.06316530057433442]",100.0,"[0.09859571305722611,-0.1702740077751225]",4.0,"[-0.054733750447978576,0.02633181950781152]",100.0,"[0.12779121364516965,-0.06426111927583647]",4.0,"[0.14487171758645018,-0.1317320629909535]",4.0,"[0.06871639906855248,0.04884812404502335]",4.0,"[0.10515991347872873,0.14394114373147443]",4.0,"[0.11045211465659097,0.04624415580685777]",4.0,"[-0.09563669055049946,0.05901897287435311]",100.0,"[-0.012034725562220634,0.012663747909388106]",4.0,"[0.0736423615345029,0.11197861493953168]",100.0,"[-0.04198306563989205,0.1952166325458065]",4.0,"[-0.055824666864042374,-0.15929054355023428]",100.0,"[0.16440934034684887,0.009021397552733547]",4.0,"[0.052043085263009395,-0.00850447710440626]",100.0,"[-0.057786364813900704,-0.07414486453428122]",100.0,"[0.025735810169455135,-0.18523319119085624]",4.0,"[-0.14776881134827533,0.09345700739354526]",4.0,"[0.02,0.02]",169.1768,0.0,36.0,36.0,173.0,1.0,,,,,,,
,,,,,,,676054ef296caad582258e02,6842bab55b1a86511aa0124a,2025-06-06_10h54.28.635,shape_ratio,2024.1.5,Win32,60.24096386,6842b561977af9ba9b0f87ca,,,,,,,,,,,169.177,169.6767,,,169.9266,170.3598,left,0.4177,,,,,,,,,0.4,,,,,,169.6767,169.9266,170.3599,"[-0.11514566697637796,0.015641945545248826]",100.0,"[-0.05959488182879435,-0.1397183286196399]",100.0,"[-0.007971339049572994,-0.11564218833187098]",100.0,"[-0.024001707830128602,0.15381258218232358]",4.0,"[-0.14674782037363893,0.11646638079221969]",4.0,"[0.006071582127116192,0.0828845216353195]",4.0,"[0.02032804408827844,-0.17544143527854156]",4.0,"[0.09212052456380089,0.13618421291866908]",4.0,"[-0.18663581640229315,-0.06981353044125438]",4.0,"[-0.06445880324025914,0.04078534465777244]",100.0,"[0.11350025147261439,-0.07650851544801324]",4.0,"[0.11703315202951378,0.06625884489829906]",100.0,"[0.019656821244951113,-0.06419724773628732]",100.0,"[-0.08284951591715417,0.10949686415020819]",4.0,"[-0.032404865750817004,-0.19071956909387985]",100.0,"[-0.1040115011584408,0.07424386404733724]",100.0,"[0.013360786146119822,0.036366539927280735]",100.0,"[-0.09909452356392408,-0.027115746415779653]",4.0,"[-0.01778344820417119,-0.012081991371135038]",100.0,"[0.15542201152018317,-0.04396390399245777]",4.0,"[-0.11108562056885248,-0.15955510654075716]",4.0,"[0.13263176263025425,0.10579852884937818]",4.0,"[0.08480278954466433,-0.16299374514391896]",4.0,"[-0.14837197019358608,0.06894012871729345]",4.0,"[0.16733289761911854,-0.000649216311094118]",4.0,"[0.0732636553273221,-0.08508103196821333]",4.0,"[0.07520303551440682,0.18213879832680416]",100.0,"[-0.1632200786081366,-0.032953394626658875]",4.0,"[-0.05445019336273448,-0.08821103914253041]",100.0,"[0.160080772813728,-0.10413451125432964]",100.0,"[-0.1353835774936717,-0.09193783106754698]",4.0,"[0.12023945420928828,-0.010688606961486064]",4.0,"[0.02,0.02]",171.4591,0.0,37.0,37.0,177.0,1.0,,,,,,,
,,,,,,,676054ef296caad582258e02,6842bab55b1a86511aa0124a,2025-06-06_10h54.28.635,shape_ratio,2024.1.5,Win32,60.24096386,6842b561977af9ba9b0f87ca,,,,,,,,,,,171.4593,171.9596,,,172.209,172.6253,right,0.3997,,,,,,,,,0.9,,,,,,171.9596,172.2089,172.6254,"[0.012102925983024931,0.16923371270941936]",100.0,"[-0.036943976976237504,-0.054972369827323515]",100.0,"[-0.023877533447844497,0.056446846963935246]",100.0,"[0.027592745487989314,0.11194996273349751]",4.0,"[-0.12503798964064877,-0.07821201369009706]",100.0,"[-0.014731702853248704,0.09950738995690032]",4.0,"[-0.025123578905223144,-0.17484375570721183]",100.0,"[0.09344746667651355,-0.11114166945279097]",100.0,"[0.07183826194563755,0.05399161630409494]",100.0,"[0.16839186968306566,-0.003106463679471484]",100.0,"[-0.170083931909765,-0.01742246042370499]",100.0,"[0.04438977527770463,-0.15473166463132365]",100.0,"[-0.05705208470776302,0.08854919262663409]",100.0,"[0.10979442693071734,0.14181860439226704]",100.0,"[0.019201318157309775,0.06999076720454302]",100.0,"[-0.02370319774860926,0.006989544728898357]",100.0,"[-0.013317343902740105,-0.12884058860564562]",100.0,"[0.12487409621168233,-0.0513454700213242]",100.0,"[-0.09855487904354504,-0.11857990156637337]",100.0,"[-0.163589068327848,0.09371471878794634]",100.0,"[0.18044348482796094,0.05028679141596453]",100.0,"[-0.1410255679817981,-0.1329665504793176]",100.0,"[-0.04926738833242388,0.187586408917168]",100.0,"[-0.17836159509926258,0.040138510037119345]",100.0,"[-0.1147918119014692,0.047180314740186524]",100.0,"[0.08917230351538363,-0.020902512496475765]",100.0,"[-0.07657672643006291,-0.15783280788890824]",100.0,"[0.06878552326027201,0.18555225847581314]",100.0,"[0.10895832013082596,0.08587543991059872]",4.0,"[0.16681672761717956,-0.04712149966874453]",100.0,"[-0.12180331703181992,0.1304684906826824]",100.0,"[0.14793760174134246,0.12594959904417646]",100.0,"[0.02,0.02]",173.725,0.0,38.0,38.0,21.0,1.0,,,,,,,
,,,,,,,676054ef296caad582258e02,6842bab55b1a86511aa0124a,2025-06-06_10h54.28.635,shape_ratio,2024.1.5,Win32,60.24096386,6842b561977af9ba9b0f87ca,,,,,,,,,,,173.7253,174.2249,,,174.4749,174.8247,left,0.3338,,,,,,,,,0.1,,,,,,174.2249,174.4749,174.8247,"[0.040968155419455234,0.007407185876421443]",4.0,"[-0.13214635963335059,-0.05374622621553494]",4.0,"[-0.10178015984087153,-0.12035944978046957]",4.0,"[-0.17354123903793953,-0.08566309946740583]",4.0,"[-0.1501970219571526,0.1086861316267167]",4.0,"[0.05351249274256885,-0.12709586835560197]",4.0,"[-0.06559495773950436,0.08808211076978001]",100.0,"[-0.01987253490143145,-0.15702015827653626]",4.0,"[0.17904679216760297,-0.03469529892664821]",4.0,"[-0.021157155422971242,0.14055929706477968]",4.0,"[-0.016861673582908868,-0.0429270914117711]",4.0,"[0.13117227267990397,0.09270067395784444]",4.0,"[0.09512397983367868,0.14422358614024203]",4.0,"[0.009483292304169466,0.03434728592562746]",4.0,"[0.0997484790277642,-0.006134328422214752]",4.0,"[-0.09628204379120398,-0.07867243133643301]",4.0,"[0.17210715022689213,0.010470271092448696]",4.0,"[-0.07168642766700453,0.1684957129213705]",100.0,"[-0.16455197949157424,-0.010229015115223738]",4.0,"[-0.1742006682287174,0.06428730914948454]",4.0,"[0.14329236318490943,-0.07659492438203802]",4.0,"[-0.057010241536011676,-0.06116066116911961]",4.0,"[0.09020111546364287,-0.15796323673962903]",4.0,"[-0.06576267990531773,-0.1484157835395892]",4.0,"[-0.12016428645253142,0.14662606320302915]",4.0,"[0.07286004438795059,0.09817204051738115]",100.0,"[0.008619994821772526,0.08358852735320134]",4.0,"[-0.0624892238826223,0.03368253665712278]",4.0,"[-0.1083914792987922,-0.1642836143929858]",4.0,"[-0.08353364951136096,-0.027073966913756277]",4.0,"[0.18799284895769303,0.05446604652074348]",4.0,"[-0.009964538327353292,-0.002621430731261534]",4.0,"[0.02,0.02]",175.9241,0.0,39.0,39.0,192.0,1.0,,,,,,,
,,,,,,,676054ef296caad582258e02,6842bab55b1a86511aa0124a,2025-06-06_10h54.28.635,shape_ratio,2024.1.5,Win32,60.24096386,6842b561977af9ba9b0f87ca,,,,,,,,,,,175.9243,176.4241,,,176.6742,177.1406,left,0.4546,,,,,,,,,0.45,,,,,,176.4241,176.6741,177.1406,"[-0.1374812174632548,0.07210685056107569]",4.0,"[-0.08332430479131255,-0.1111480766509012]",100.0,"[-0.18142880069871078,-0.004009076994563002]",100.0,"[-0.11954056165628671,0.14277373312710964]",4.0,"[0.07723421601881586,-0.10039339657953929]",4.0,"[-0.04853047190266616,0.10562915470570411]",100.0,"[0.013899344405038807,0.09504425084357564]",4.0,"[0.10726793721631336,0.13339254975888085]",100.0,"[-0.0394571702123012,-0.16904277734455853]",100.0,"[-0.02714028840405784,0.17455835759554106]",100.0,"[0.09859733263158559,-0.040745190729035714]",4.0,"[0.009053348212517588,-0.0011674094517553676]",4.0,"[0.17132579443022425,-0.05797799904119512]",4.0,"[-0.08972671841017658,0.014697077829577368]",100.0,"[-0.13788177959579054,-0.11393745711132246]",4.0,"[0.12582049657003386,0.010772275705666773]",4.0,"[0.16405563770873485,0.034155793311484516]",4.0,"[0.16811925057814422,-0.014687461177863646]",4.0,"[-0.09611480599203705,-0.035324703658341075]",4.0,"[-0.02753657347208441,-0.024288997768895683]",100.0,"[0.03392349036143343,-0.11077640986496715]",100.0,"[-0.16727611098600031,-0.07189008946195904]",100.0,"[0.163302316114493,-0.11407895255127182]",4.0,"[0.052299274517520665,0.16846367990000222]",100.0,"[-0.0242931496874404,0.03079268784855789]",100.0,"[0.07740441160454467,0.02803940416475861]",100.0,"[-0.140899904293688,0.029713440686684484]",4.0,"[0.015699905201310614,-0.1713331248278619]",4.0,"[0.00936819166482407,0.19440684331844016]",4.0,"[-0.06175735158499606,0.046113263415275746]",4.0,"[0.09466101118446801,-0.13652218854123901]",100.0,"[-0.08971719109566212,0.09594650400009265]",4.0,"[0.02,0.02]",178.2398,0.0,40.0,40.0,132.0,1.0,,,,,,,
,,,,,,,676054ef296caad582258e02,6842bab55b1a86511aa0124a,2025-06-06_10h54.28.635,shape_ratio,2024.1.5,Win32,60.24096386,6842b561977af9ba9b0f87ca,,,,,,,,,,,178.2402,178.7403,,,178.99,179.5727,right,0.5785,,,,,,,,,0.9,,,,,,178.7403,178.9899,179.5727,"[0.0662028325218035,-0.12500183169225232]",100.0,"[-0.021510061230093344,0.1918876124069422]",100.0,"[-0.10882318948346693,0.07667848537936854]",100.0,"[-0.1654935846020345,-0.07309620146105314]",100.0,"[0.15752072522116356,-0.08403332105879732]",100.0,"[0.03331235021290956,-0.043192642404593466]",100.0,"[0.02368609974174492,0.10714897249299828]",100.0,"[-0.06635568730080542,-0.03656774408097303]",100.0,"[0.052861154608367655,0.009922905566193197]",100.0,"[-0.1009598791576286,-0.11651446697736659]",100.0,"[-0.08957825118599101,0.02999073183053421]",100.0,"[-0.013725309902268345,-0.10346990722476364]",4.0,"[-0.027007919892721534,0.08990183267031346]",100.0,"[0.010599387378929109,-0.16487867166449144]",100.0,"[0.08947521867564845,-0.02388026496518324]",100.0,"[0.19862643254683476,0.015074090586584304]",100.0,"[-0.07467129240373564,-0.17025007432849007]",100.0,"[0.0819147007737177,0.06085713808633777]",100.0,"[0.003010592234892447,0.02001309874956769]",4.0,"[-0.00790763812963575,-0.04517889724326965]",100.0,"[0.10350258911757401,-0.10667197298695187]",100.0,"[0.07124653703076071,-0.07598425641566837]",4.0,"[0.04472711420060851,0.17794241917253412]",100.0,"[0.025461975903163257,0.05385731738444109]",100.0,"[0.13228157852584593,0.026880733001919472]",100.0,"[0.1290781333008237,0.10296679710652396]",100.0,"[0.11461480784558607,-0.06574488153608214]",100.0,"[0.17050825919578305,-0.03471649120086847]",100.0,"[0.08422509786176596,0.15410427551721234]",100.0,"[-0.16246318207140298,0.08576197905092985]",100.0,"[-0.15120809097934737,0.008552472086495585]",100.0,"[-0.10850947375542157,0.12595743590203995]",100.0,"[0.02,0.02]",180.6724,0.0,41.0,41.0,1.0,1.0,,,,,,,
,,,,,,,676054ef296caad582258e02,6842bab55b1a86511aa0124a,2025-06-06_10h54.28.635,shape_ratio,2024.1.5,Win32,60.24096386,6842b561977af9ba9b0f87ca,,,,,,,,,,,180.6725,181.1723,,,181.4223,181.7219,right,0.282,,,,,,,,,0.9,,,,,,181.1723,181.4223,181.722,"[-0.14947895445166362,0.016529768606929816]",100.0,"[-0.049575338795099115,-0.09660811047236824]",100.0,"[0.014994203695864685,0.058868394368697126]",100.0,"[0.06834439824659559,0.1547778233917801]",100.0,"[-0.09217909737186983,-0.16624596814885548]",100.0,"[-0.11400636550058804,0.07728861666108755]",100.0,"[0.11880869958595566,0.123547549724159]",100.0,"[-0.10418543754773635,-0.07865840256427634]",100.0,"[0.007619939573537008,-0.16017188813147434]",100.0,"[-0.08893207904841706,0.02859990885335999]",100.0,"[-0.14690872844634248,-0.028291654022003575]",100.0,"[-0.023774157470725258,0.12393130043190258]",100.0,"[-0.1743259169506059,0.053531944319327555]",100.0,"[-0.057561567644128904,-0.05125474056709128]",100.0,"[-0.0345895001725255,0.06457271195160554]",100.0,"[0.07103656222055624,0.01262090003263014]",100.0,"[0.17674267051088619,-0.0204859989040137]",100.0,"[0.08744732859123516,-0.062005103050517076]",4.0,"[0.08899642858656158,0.08863735558390679]",100.0,"[-0.16632234291855988,0.10799425948276277]",100.0,"[-0.014122558968209973,0.18100336669268086]",100.0,"[0.14852193668590868,0.09390210524235083]",100.0,"[0.14124670842517828,-0.1044931135540401]",100.0,"[0.04554966096781549,-0.09438735072057688]",4.0,"[-0.09789421925759167,0.1679247652700609]",100.0,"[0.08395670431161124,-0.13495817417817507]",100.0,"[-0.03457088483102869,-0.01567915309228279]",4.0,"[-0.01664504819955324,-0.060698458365679206]",100.0,"[0.15631088727030232,-0.05741135713641182]",100.0,"[0.02956828922025967,0.1278330882822722]",100.0,"[-0.14588705500342733,-0.11424425228374285]",100.0,"[0.15905596781085637,0.04260282673936801]",100.0,"[0.02,0.02]",182.8214,0.0,42.0,42.0,12.0,1.0,,,,,,,
,,,,,,,676054ef296caad582258e02,6842bab55b1a86511aa0124a,2025-06-06_10h54.28.635,shape_ratio,2024.1.5,Win32,60.24096386,6842b561977af9ba9b0f87ca,,,,,,,,,,,182.8217,183.3213,,,183.5713,183.9546,left,0.3659,,,,,,,,,0.6,,,,,,183.3213,183.5713,183.9547,"[0.051428973262085356,-0.18464104939958123]",100.0,"[0.00972428253668801,0.09282662109673723]",4.0,"[0.1782121931144602,-0.01054572131647936]",100.0,"[-0.04192072837916285,-0.18358798864265954]",100.0,"[0.06866681663858058,-0.0952799071437121]",4.0,"[-0.1951415955328572,0.043511194748479046]",4.0,"[0.057730075115695445,-0.01019557769602501]",4.0,"[0.062091301942462374,0.09174105329195381]",4.0,"[-0.0732753304269795,0.17668529908418212]",100.0,"[0.15309405302225518,-0.0801979579889799]",4.0,"[-0.1543746814175075,-0.09232531985890724]",100.0,"[0.006859735253939394,-0.12029031666890529]",4.0,"[-0.05064897280376303,0.028678472715244444]",100.0,"[0.01725790013921049,-0.008344021385961194]",100.0,"[-0.016520962666128784,-0.08664292286018387]",4.0,"[-0.16671982665413823,-0.008649224533568318]",100.0,"[0.14669734924415564,0.08184898455568138]",4.0,"[0.12395930188538104,0.017575827423860713]",4.0,"[0.1347099427844487,-0.13888042889491092]",100.0,"[-0.11395776349359024,0.13412670479423935]",4.0,"[0.10408051062258653,0.12130736539040146]",100.0,"[0.11159995285000107,-0.08080255524507424]",100.0,"[-0.11821541069305927,-0.12067652249130359]",100.0,"[-0.058648233453747214,0.08376703022229189]",100.0,"[0.0883757903731948,-0.13386109707022642]",4.0,"[0.009179140536750284,0.14301993588431852]",100.0,"[-0.12432613978020081,-0.007984402638291773]",100.0,"[-0.10523438748173657,0.06185377156598889]",4.0,"[0.07418347538102768,0.15660282659367303]",100.0,"[-0.1733634414313803,0.0941737496531872]",100.0,"[-0.031251155457390774,-0.04578926407433347]",100.0,"[-0.06958906218685003,-0.11795189017681225]",100.0,"[0.02,0.02]",185.0541,0.0,43.0,43.0,50.0,1.0,,,,,,,
,,,,,,,676054ef296caad582258e02,6842bab55b1a86511aa0124a,2025-06-06_10h54.28.635,shape_ratio,2024.1.5,Win32,60.24096386,6842b561977af9ba9b0f87ca,,,,,,,,,,,185.0543,185.5539,,,185.8039,186.3537,left,0.5328,,,,,,,,,0.1,,,,,,185.5539,185.8039,186.3537,"[0.05123675197578747,0.08616036623227617]",4.0,"[0.16997115936085513,-0.016007850874959303]",100.0,"[-0.07198319540031058,0.0364244236929628]",4.0,"[-0.16710245358271766,-0.0013446912829142778]",4.0,"[-0.1494049106998415,0.12439887036664245]",4.0,"[-0.050625326542245275,0.16936606916412686]",4.0,"[0.18573379073850535,-0.0735285610112814]",4.0,"[0.0647364460916222,0.1711785069360868]",4.0,"[0.10743731888553905,0.06681952255078273]",4.0,"[-0.0024151963404187857,-0.16103630416753836]",4.0,"[0.07281235268141542,-0.16802036065908385]",4.0,"[-0.11179653388047234,-0.006657926798811108]",4.0,"[-0.17814166593647227,-0.08424933163882063]",4.0,"[0.12612394970863294,0.13054561471243548]",4.0,"[-0.0986475881047806,0.17360739071283718]",4.0,"[-0.08064100220575433,-0.1746086289544506]",4.0,"[-0.1360261822710871,0.06157409760133731]",4.0,"[-0.03540761937618337,0.12335456946899397]",4.0,"[-0.09130762255196961,-0.0935210293969414]",4.0,"[0.0010407529449417742,0.06655298999079244]",4.0,"[0.11529808331264392,-0.04741392841821264]",4.0,"[0.08935894014357584,-0.09411811129297656]",4.0,"[0.05626608009137588,-0.013224247532201062]",4.0,"[0.0809724370702493,0.13017537044310143]",4.0,"[-0.13726390777373637,-0.0751391160406151]",4.0,"[-0.07984661975250845,-0.03731124406144561]",4.0,"[0.005949575227518183,0.014814943236983184]",4.0,"[0.1335184851137863,-0.11584736141173921]",100.0,"[0.03009658735980697,-0.11351685258504106]",4.0,"[-0.03975665470831696,-0.0419348859271365]",4.0,"[0.027117997673007165,0.19183826089917017]",4.0,"[-0.0778238821943291,0.0803202820957827]",100.0,"[0.02,0.02]",187.4531,0.0,44.0,44.0,184.0,1.0,,,,,,,
,,,,,,,676054ef296caad582258e02,6842bab55b1a86511aa0124a,2025-06-06_10h54.28.635,shape_ratio,2024.1.5,Win32,60.24096386,6842b561977af9ba9b0f87ca,,,,,,,,,,,187.4534,187.9529,,,188.203,188.8526,left,0.6379,,,,,,,,,0.45,,,,,,187.9529,188.203,188.8526,"[-0.1644981991717174,-0.03397316797199173]",4.0,"[-0.18171884655805043,0.07663151108451982]",100.0,"[0.06426843206864233,0.003856689501922412]",4.0,"[-0.04372453719667545,-0.1403275914833145]",4.0,"[-0.1405405578923407,-0.12004946386324604]",4.0,"[0.05583069345478765,-0.1000313207966845]",4.0,"[0.07760782323091832,0.06294661127600616]",4.0,"[-0.02993701372192389,0.1946706533527433]",4.0,"[-0.011851684547617551,0.14137107688553247]",100.0,"[0.14033840666476685,0.11088276539864125]",4.0,"[-0.1605025525015656,0.006701138504121138]",100.0,"[0.09839871717713206,-0.06713959080625524]",4.0,"[-0.08312280621365942,0.08071459710912011]",100.0,"[0.1765547773820345,-0.05897802054132655]",4.0,"[-0.009035891193647378,-0.1758771199283568]",100.0,"[0.13740968481858024,-0.018096709597378836]",100.0,"[-0.0925962483536046,0.16853982797016304]",100.0,"[0.08473717744927943,-0.17403876170924895]",4.0,"[-0.01991626439437666,0.08993258319486265]",4.0,"[-0.13395900260255234,0.14635994457377252]",100.0,"[0.03676080923173315,0.10540999951866478]",100.0,"[-0.0417404839231027,0.025502436228408764]",100.0,"[0.18986444029898358,0.0001943399691130006]",100.0,"[0.18279431121736786,0.06574925252411311]",4.0,"[-0.11641344227935412,0.012339030049231689]",100.0,"[0.08168892994614309,0.1302740260241873]",4.0,"[-0.13607454496566052,-0.07306340958281342]",4.0,"[0.023353389817130286,0.19675239043256312]",4.0,"[-0.013490416963646744,-0.11038333522337888]",4.0,"[-0.09310541087538826,-0.1424022222238716]",4.0,"[-0.014530824922514589,-0.06945186141783921]",100.0,"[0.0006229585024907608,0.03508888774119838]",100.0,"[0.02,0.02]",189.9521,0.0,45.0,45.0,128.0,1.0,,,,,,,
,,,,,,,676054ef296caad582258e02,6842bab55b1a86511aa0124a,2025-06-06_10h54.28.635,shape_ratio,2024.1.5,Win32,60.24096386,6842b561977af9ba9b0f87ca,,,,,,,,,,,189.9523,190.452,,,190.7021,191.1183,left,0.4023,,,,,,,,,0.55,,,,,,190.452,190.7021,191.1183,"[0.0033196873993860698,0.06486535960631129]",4.0,"[0.11799228784179686,0.13679368424373237]",100.0,"[-0.1245129695997743,-0.06922695555477243]",4.0,"[-0.11539382827235181,0.12233020140343283]",100.0,"[-0.07499886738428027,-0.05790062261836447]",100.0,"[0.1599374935970338,-0.04834664276472779]",100.0,"[-0.046234936034666996,0.129580543281487]",100.0,"[0.008595344068732297,0.1476525142359124]",4.0,"[0.12286882990483473,-0.07640275109138744]",100.0,"[0.05077842434768724,0.1668145680103279]",4.0,"[0.08044850804583165,0.01596193633576237]",4.0,"[-0.11547031718201496,-0.12427459345594467]",100.0,"[0.14117721842289147,0.02488160568892053]",4.0,"[-0.020346997906022405,-0.07973734124073553]",4.0,"[0.045520527685614674,-0.025829534976238407]",4.0,"[-0.10626414282256497,0.06868753496097148]",100.0,"[-0.042648384826932,0.19128734896193184]",100.0,"[0.15200150068184665,0.08334186674343931]",100.0,"[0.07711019459217451,0.0955830063592314]",4.0,"[-0.00006444835312102953,-0.1816682571066676]",100.0,"[-0.15474342292886195,0.05150234745127349]",4.0,"[-0.08701558592463976,0.15502901415688974]",4.0,"[-0.08790736132979736,-0.004295050588337813]",4.0,"[0.13510523788032666,-0.1462344515300574]",100.0,"[-0.06953003544555054,0.08718738629352665]",4.0,"[-0.18561312059936655,0.0008184277865745479]",100.0,"[-0.05392032664102902,0.020481578285528018]",100.0,"[-0.06490754677215325,-0.12774701653795525]",4.0,"[0.048472007919384205,0.05144046423857851]",100.0,"[0.06136322436121473,-0.1641625572224413]",100.0,"[0.06948376795563396,-0.06086707740594434]",100.0,"[0.023234029085129355,-0.07745067939121834]",100.0,"[0.02,0.02]",192.2188,0.0,46.0,46.0,80.0,1.0,,,,,,,
,,,,,,,676054ef296caad582258e02,6842bab55b1a86511aa0124a,2025-06-06_10h54.28.635,shape_ratio,2024.1.5,Win32,60.24096386,6842b561977af9ba9b0f87ca,,,,,,,,,,,192.219,192.7178,,,192.9682,193.2841,right,0.3043,,,,,,,,,0.6,,,,,,192.7178,192.9681,193.2841,"[-0.17600440003412418,0.0894228032104408]",4.0,"[0.07637005480942219,0.04250486470205182]",100.0,"[-0.1238390797127211,0.11009252515173348]",4.0,"[-0.17814263759388999,-0.07114290865041133]",4.0,"[0.12614967832187018,-0.049570910158335896]",100.0,"[-0.05357088130485854,-0.07408715596770363]",100.0,"[0.08226892753365915,-0.057329972624859254]",100.0,"[0.1034247026024111,-0.09627432243363802]",100.0,"[-0.0025346144370229405,0.04265478650425761]",100.0,"[0.03226319511190652,-0.19167662267931304]",100.0,"[-0.06961807498422327,0.17330692914856652]",100.0,"[-0.10584242500271705,-0.04076697340506836]",4.0,"[0.004821207743460792,-0.0933908140473049]",100.0,"[0.14452275617903543,0.05970029761546332]",100.0,"[-0.14998354384410312,-0.13006197256952143]",100.0,"[-0.04010276506973026,0.020590511256828755]",100.0,"[0.05863211670494738,-0.09795218805598187]",100.0,"[-0.16693321305845316,-0.016703519725981095]",100.0,"[0.008613209703119322,0.1160095044615432]",4.0,"[-0.025969888005534788,0.17228387543578402]",4.0,"[0.08443444208598416,0.16865222828893467]",100.0,"[-0.04329941250928101,0.07626922436556986]",100.0,"[0.03616576968542054,-0.14340575852780854]",4.0,"[-0.0780400162708776,0.055240030954113284]",100.0,"[-0.050332128954048455,0.12853508443722356]",100.0,"[0.13504376806863394,0.11518725019632509]",100.0,"[-0.11499216398147875,-0.09102310069359903]",4.0,"[0.18351346789557807,-0.025586045208967307]",4.0,"[0.17533785898559348,-0.08039065367972158]",4.0,"[-0.05921426458887393,-0.1553944192431737]",4.0,"[0.08929724804495033,-0.13825745787076435]",4.0,"[0.04989812416782834,0.1902294058419975]",4.0,"[0.02,0.02]",194.3839,0.0,47.0,47.0,56.0,1.0,,,,,,,
,,,,,,,676054ef296caad582258e02,6842bab55b1a86511aa0124a,2025-06-06_10h54.28.635,shape_ratio,2024.1.5,Win32,60.24096386,6842b561977af9ba9b0f87ca,,,,,,,,,,,194.3842,194.8837,,,195.1336,195.3501,right,0.2116,,,,,,,,,0.6,,,,,,194.8837,195.1336,195.3502,"[-0.07571089027378018,-0.11429607489169981]",100.0,"[0.015750489457747558,0.17818386245401874]",4.0,"[-0.06485715555733453,0.18812242093440526]",100.0,"[0.013806626435667331,0.033389955384974426]",4.0,"[-0.14820539332734436,-0.11808091129402734]",4.0,"[-0.09608390010498197,0.14956801011923163]",100.0,"[-0.035173842896665856,0.003987855726103913]",4.0,"[0.06658357988608535,0.008361367751352792]",100.0,"[0.0872845537142466,0.09124020035293626]",100.0,"[0.1554944130366475,-0.010495726497100745]",4.0,"[0.10497478137952625,-0.08592522266323437]",4.0,"[0.15245566267088115,0.03947278929578093]",100.0,"[0.16683124329859098,0.0952005655595716]",100.0,"[-0.016919809867887554,-0.19091649279100667]",100.0,"[-0.01062869126706645,0.11351524710566857]",100.0,"[-0.09912655577912051,0.018181259433205085]",100.0,"[0.1327491084707501,-0.1405966389108894]",4.0,"[-0.02014198296238634,-0.034859084840646176]",4.0,"[-0.02376829771870091,0.1854173282738571]",100.0,"[-0.16035059716627834,-0.056758324308802045]",100.0,"[-0.18562142676587412,0.05992548675993191]",100.0,"[0.08203876727517692,-0.04622547318018492]",4.0,"[0.167631876738495,-0.06890957808547574]",100.0,"[-0.06298181352887802,-0.0697238943604406]",4.0,"[-0.11341526966072199,-0.06258200706977397]",4.0,"[0.06282475706448559,0.1280531176992512]",4.0,"[-0.0247944336908356,-0.11666356000602168]",4.0,"[0.07369618016583238,-0.11401869511777836]",100.0,"[0.038347038695836826,-0.16718746988849567]",100.0,"[-0.0717623437090672,-0.023437661634372352]",100.0,"[0.11077593702781362,0.15723277065611882]",100.0,"[-0.04844791596862071,0.08085488981386803]",100.0,"[0.02,0.02]",196.4502,0.0,48.0,48.0,38.0,1.0,,,,,,,
,,,,,,,676054ef296caad582258e02,6842bab55b1a86511aa0124a,2025-06-06_10h54.28.635,shape_ratio,2024.1.5,Win32,60.24096386,6842b561977af9ba9b0f87ca,,,,,,,,,,,196.4504,196.9496,,,197.1994,197.5994,right,0.386,,,,,,,,,0.6,,,,,,196.9496,197.1994,197.5994,"[0.062440751054618965,0.15520264739041675]",100.0,"[-0.028131658019283516,0.13150953676736638]",4.0,"[0.10761408951706296,0.1652391163150107]",100.0,"[0.10490738340202703,-0.15936943783483706]",4.0,"[-0.06555519551895304,-0.059360558882400355]",4.0,"[-0.18763742550192222,-0.006559987096202587]",4.0,"[-0.1785082638536017,0.04515813695574593]",100.0,"[0.03304024872271572,-0.05173659204511278]",100.0,"[-0.038568247357846065,0.06135632442019484]",100.0,"[-0.014336914237153602,-0.047538431277129055]",100.0,"[0.12993579528647012,-0.009342315962670412]",4.0,"[-0.1725937368353038,0.0978731631440581]",4.0,"[-0.00707560507094522,-0.09702197479792894]",100.0,"[-0.11538479344502992,0.15327419136193818]",4.0,"[-0.1266468194191494,0.11044465092555723]",4.0,"[0.16129889949471543,-0.10207855308996182]",100.0,"[-0.03504915958333891,-0.004539015028983967]",4.0,"[-0.1266166371543594,-0.14401295656051633]",100.0,"[-0.13130614498488447,-0.05423996027260245]",100.0,"[-0.07485347217769364,-0.16075287989953216]",100.0,"[0.14076657312430096,0.10515568820447564]",4.0,"[-0.07222570207001347,0.0911924189207566]",100.0,"[0.17607517833872546,0.002988002082332494]",100.0,"[-0.08840494193496345,-0.0031928543453427958]",4.0,"[0.06470913598580431,-0.16607098493916397]",4.0,"[0.06263847821444066,0.04662998592144152]",100.0,"[0.050801901138060664,-0.12068074141764977]",100.0,"[0.15088400079136186,0.06434455465452217]",100.0,"[0.031695818466374204,0.12243193492057579]",100.0,"[0.0252632694815656,0.004216693250191192]",4.0,"[-0.030956389373922755,-0.18886934365790228]",100.0,"[-0.15624622013771552,-0.10950994408477802]",100.0,"[0.02,0.02]",198.6989,0.0,49.0,49.0,36.0,1.0,,,,,,,
