right,left,explain.started,explain.stopped,key_resp_3.keys,key_resp_3.rt,key_resp_3.duration,participant,session,date,expName,psychopyVersion,OS,frameRate,study_id,explain_2.started,explain_2.stopped,key_resp_4.keys,key_resp_4.rt,key_resp_4.duration,explain_3.started,explain_3.stopped,key_resp_5.keys,key_resp_5.rt,key_resp_5.duration,fixation.started,fixation.stopped,practice.started,practice.stopped,response.started,response.stopped,key_resp.keys,feedback.started,feedback.stopped,trials_2.thisRepN,trials_2.thisTrialN,trials_2.thisN,trials_2.thisIndex,trials_2.ran,dot_ratio,key_resp.rt,key_resp.duration,explain_4.started,explain_4.stopped,key_resp_6.keys,key_resp_6.rt,key_resp_6.duration,dotDisplay.started,dotDisplay.stopped,ITI.started,polygon_1.pos,polygon_1.edges,polygon_2.pos,polygon_2.edges,polygon_3.pos,polygon_3.edges,polygon_4.pos,polygon_4.edges,polygon_5.pos,polygon_5.edges,polygon_6.pos,polygon_6.edges,polygon_7.pos,polygon_7.edges,polygon_8.pos,polygon_8.edges,polygon_9.pos,polygon_9.edges,polygon_10.pos,polygon_10.edges,polygon_11.pos,polygon_11.edges,polygon_12.pos,polygon_12.edges,polygon_13.pos,polygon_13.edges,polygon_14.pos,polygon_14.edges,polygon_15.pos,polygon_15.edges,polygon_16.pos,polygon_16.edges,polygon_17.pos,polygon_17.edges,polygon_18.pos,polygon_18.edges,polygon_19.pos,polygon_19.edges,polygon_20.pos,polygon_20.edges,polygon_21.pos,polygon_21.edges,polygon_22.pos,polygon_22.edges,polygon_23.pos,polygon_23.edges,polygon_24.pos,polygon_24.edges,polygon_25.pos,polygon_25.edges,polygon_26.pos,polygon_26.edges,polygon_27.pos,polygon_27.edges,polygon_28.pos,polygon_28.edges,polygon_29.pos,polygon_29.edges,polygon_30.pos,polygon_30.edges,polygon_31.pos,polygon_31.edges,polygon_32.pos,polygon_32.edges,dot_size,ITI.stopped,trials.thisRepN,trials.thisTrialN,trials.thisN,trials.thisIndex,trials.ran,break_2.started,break_2.stopped,trials_3.thisRepN,trials_3.thisTrialN,trials_3.thisN,trials_3.thisIndex,trials_3.ran
subject chose dot,subject chose diamond,0.0018,55.236,space,40.2135,,676c33a837a28914650c4962,6842bbfbd8e6f71878035cde,2025-06-06_12h01.16.738,shape_ratio,2024.1.5,Win32,59.88023952,6842b561977af9ba9b0f87ca,,,,,,,,,,,,,,,,,,,,,,,,,,,,,,,,,,,,,,,,,,,,,,,,,,,,,,,,,,,,,,,,,,,,,,,,,,,,,,,,,,,,,,,,,,,,,,,,,,,,,,,,,,,,,,,,,
,,,,,,,676c33a837a28914650c4962,6842bbfbd8e6f71878035cde,2025-06-06_12h01.16.738,shape_ratio,2024.1.5,Win32,59.88023952,6842b561977af9ba9b0f87ca,55.2364,105.4392,space,20.1898,,,,,,,,,,,,,,,,,,,,,,,,,,,,,,,,,,,,,,,,,,,,,,,,,,,,,,,,,,,,,,,,,,,,,,,,,,,,,,,,,,,,,,,,,,,,,,,,,,,,,,,,,,,,,
,,,,,,,676c33a837a28914650c4962,6842bbfbd8e6f71878035cde,2025-06-06_12h01.16.738,shape_ratio,2024.1.5,Win32,59.88023952,6842b561977af9ba9b0f87ca,,,,,,105.4395,110.501,space,2.0544,,,,,,,,,,,,,,,,,,,,,,,,,,,,,,,,,,,,,,,,,,,,,,,,,,,,,,,,,,,,,,,,,,,,,,,,,,,,,,,,,,,,,,,,,,,,,,,,,,,,,,,,
,,,,,,,676c33a837a28914650c4962,6842bbfbd8e6f71878035cde,2025-06-06_12h01.16.738,shape_ratio,2024.1.5,Win32,59.88023952,6842b561977af9ba9b0f87ca,,,,,,,,,,,110.5621,111.0124,111.0129,111.2539,111.2541,112.7457,,112.746,113.8455,0.0,0.0,0.0,1.0,1.0,0.8,,,,,,,,,,,,,,,,,,,,,,,,,,,,,,,,,,,,,,,,,,,,,,,,,,,,,,,,,,,,,,,,,,,,,,,,,,,,,,,,,,,,,,,,
,,,,,,,676c33a837a28914650c4962,6842bbfbd8e6f71878035cde,2025-06-06_12h01.16.738,shape_ratio,2024.1.5,Win32,59.88023952,6842b561977af9ba9b0f87ca,,,,,,,,,,,113.8465,114.3358,114.3358,114.5831,114.5832,115.045,right,115.0452,116.145,0.0,1.0,1.0,0.0,1.0,0.2,0.4389,,,,,,,,,,,,,,,,,,,,,,,,,,,,,,,,,,,,,,,,,,,,,,,,,,,,,,,,,,,,,,,,,,,,,,,,,,,,,,,,,,,,,,,
,,,,,,,676c33a837a28914650c4962,6842bbfbd8e6f71878035cde,2025-06-06_12h01.16.738,shape_ratio,2024.1.5,Win32,59.88023952,6842b561977af9ba9b0f87ca,,,,,,,,,,,,,,,,,,,,,,,,,,,,116.1459,124.9211,space,5.7667,,,,,,,,,,,,,,,,,,,,,,,,,,,,,,,,,,,,,,,,,,,,,,,,,,,,,,,,,,,,,,,,,,,,,,,,,,,,,,,,,,
,,,,,,,676c33a837a28914650c4962,6842bbfbd8e6f71878035cde,2025-06-06_12h01.16.738,shape_ratio,2024.1.5,Win32,59.88023952,6842b561977af9ba9b0f87ca,,,,,,,,,,,124.943,125.4278,,,125.6801,125.8627,left,,,,,,,,0.5,0.1671,,,,,,,125.4284,125.6799,125.8631,"[-0.07441280319241973,0.13897624888896792]",4.0,"[0.12967445294028945,-0.07720657706787849]",100.0,"[-0.02687166183534954,0.005093133679383012]",4.0,"[-0.1531689798427287,0.06212372229210694]",4.0,"[-0.06453862029821034,-0.14235379871115947]",4.0,"[0.0498241568480937,0.0005413194878501197]",100.0,"[-0.1378500021231873,-0.09269180317428025]",100.0,"[-0.16211305692564404,0.01982245676986221]",4.0,"[-0.06611389682091477,0.015668220993348473]",4.0,"[0.037198365249562715,0.05283773018136328]",4.0,"[0.04020493984466372,-0.05125268056870292]",100.0,"[-0.03574190606016145,0.18790448598600568]",100.0,"[0.1303987719645552,0.00674362280121499]",100.0,"[-0.14518168337346887,-0.03763063370243893]",100.0,"[0.03913383422428013,0.11915437556452857]",100.0,"[0.1662973319308059,0.04588827875282214]",100.0,"[-0.11327167360964896,0.03416484331042847]",4.0,"[0.029201097956732893,-0.15323593510659847]",100.0,"[-0.03503235781476496,-0.17922258060106253]",100.0,"[0.07630407205975144,0.07022031585372376]",100.0,"[-0.017697565452906103,0.1012481514666177]",100.0,"[0.13251383811245815,0.12827425520406088]",4.0,"[0.19588525096393294,-0.02338826665915346]",100.0,"[-0.1323982621327883,0.13777411049932928]",4.0,"[-0.19325051394510667,-0.016357144122608715]",100.0,"[-0.008157473606730681,-0.04035880724068083]",4.0,"[-0.18588178788391116,-0.0623355733061749]",4.0,"[0.04799139843909199,-0.10127079091218333]",4.0,"[0.11188884352921934,-0.15217080967475236]",4.0,"[0.179746853731386,-0.07156384908509222]",100.0,"[-0.08728277607479498,0.09617880276917667]",4.0,"[0.013132038439411431,0.1567543160341276]",4.0,"[0.02,0.02]",126.9626,0.0,0.0,0.0,117.0,1.0,,,,,,,
,,,,,,,676c33a837a28914650c4962,6842bbfbd8e6f71878035cde,2025-06-06_12h01.16.738,shape_ratio,2024.1.5,Win32,59.88023952,6842b561977af9ba9b0f87ca,,,,,,,,,,,126.9632,127.4624,,,127.7028,128.1371,left,,,,,,,,0.6,0.4181,,,,,,,127.4625,127.7028,128.1372,"[-0.15475676205543615,0.08531509587557487]",100.0,"[0.12083479023343202,-0.13675953224248322]",100.0,"[0.1729181339742,-0.008621561717013828]",4.0,"[0.02604667466340083,0.1663505358935309]",4.0,"[0.011330429842749203,0.06970784440230268]",100.0,"[-0.09606368404077285,-0.16808293769592744]",100.0,"[0.10741228813383402,0.0752435211994052]",100.0,"[0.003590615501619675,-0.1611064292167529]",4.0,"[0.17027708627145585,0.06781163712855466]",100.0,"[-0.044090681959834156,0.1252806142094516]",4.0,"[0.13550171943338316,-0.09271059649523528]",100.0,"[-0.025267097877196384,0.008381431302551841]",100.0,"[0.1495546958521257,-0.049233543394094074]",4.0,"[0.05065959138687228,-0.06274903820809849]",100.0,"[0.0720379025891259,0.1493196978340691]",4.0,"[0.0736632454346585,-0.14827017090626632]",100.0,"[-0.12720890278853203,0.13538730004165447]",100.0,"[0.038499844697735354,-0.01923254120052003]",4.0,"[-0.05066272155206877,-0.1697313777424287]",100.0,"[-0.1753542696993054,-0.017564678170278854]",4.0,"[-0.1170495760067698,0.037085091956932915]",4.0,"[-0.04388035899630184,-0.03659172872985052]",100.0,"[-0.09561075241309952,-0.06392051941804813]",100.0,"[-0.09615668903368813,0.07904366874402496]",4.0,"[0.07149430357164192,0.04535383829533447]",100.0,"[0.0699994532960047,-0.10211342756149212]",100.0,"[0.0790258884102214,-0.002727439270386879]",100.0,"[0.10992809153297506,-0.03235171650435419]",4.0,"[-0.01627154790124937,-0.08790925078518927]",4.0,"[-0.05206498323079811,-0.1272089661894088]",100.0,"[-0.08097483951099656,0.1608271935221113]",100.0,"[0.15538562155016822,0.10837573298390472]",4.0,"[0.02,0.02]",129.229,0.0,1.0,1.0,53.0,1.0,,,,,,,
,,,,,,,676c33a837a28914650c4962,6842bbfbd8e6f71878035cde,2025-06-06_12h01.16.738,shape_ratio,2024.1.5,Win32,59.88023952,6842b561977af9ba9b0f87ca,,,,,,,,,,,129.2296,129.7278,,,129.9694,131.2616,left,,,,,,,,0.55,1.2706,,,,,,,129.7278,129.9694,131.2617,"[-0.15109174493932137,-0.05960440484362035]",100.0,"[-0.12663467253010896,-0.11327944654312963]",100.0,"[-0.1849496791517532,-0.03282035693374446]",100.0,"[-0.14712141406022547,0.10706701688711412]",4.0,"[0.07165352940383926,-0.08904778045553624]",4.0,"[0.08194666742261791,0.0719428512637802]",100.0,"[-0.04039517047113102,-0.03325516685022454]",100.0,"[0.009372080508194634,0.1285678217618953]",100.0,"[0.1424674064676424,0.04196630869184218]",4.0,"[0.025572593655117392,0.1833929192826979]",4.0,"[0.03504742392469011,-0.1806221901322315]",4.0,"[-0.026072917220963984,-0.10573972298379557]",100.0,"[0.07721379246433453,0.12045920326556867]",100.0,"[0.11626384400916248,-0.15534276377998948]",4.0,"[0.13038770236893185,-0.05113911507250995]",4.0,"[0.03372340464045584,-0.06739071193622487]",4.0,"[-0.06342968812892476,-0.1349067986729491]",100.0,"[0.1308305201632344,-0.11069029378621968]",4.0,"[-0.07479823824549207,0.15601164744565352]",100.0,"[-0.13993459308470005,0.0656781989088513]",4.0,"[-0.0739612243408969,0.08470130454991737]",100.0,"[-0.052194130432448145,0.024452118739410812]",4.0,"[-0.0019772037757762816,0.05081958320707265]",4.0,"[-0.022140904892875967,-0.16093299681441084]",100.0,"[0.18034617281736504,0.023637867407534152]",100.0,"[0.0866289143801918,-0.01690158501757687]",100.0,"[0.02800312168502675,0.0852834216896171]",100.0,"[0.17315056581767369,-0.058546166442589094]",4.0,"[-0.0900123051553095,-0.17767390902705088]",4.0,"[0.1352962905458811,0.14588891034146986]",100.0,"[0.06331296599433199,0.16783868123842924]",100.0,"[-0.09939132214752816,0.013227832106141663]",100.0,"[0.02,0.02]",132.3525,0.0,2.0,2.0,70.0,1.0,,,,,,,
,,,,,,,676c33a837a28914650c4962,6842bbfbd8e6f71878035cde,2025-06-06_12h01.16.738,shape_ratio,2024.1.5,Win32,59.88023952,6842b561977af9ba9b0f87ca,,,,,,,,,,,132.3532,132.8441,,,133.0859,134.1845,right,,,,,,,,0.55,1.0826,,,,,,,132.8442,133.0858,134.1845,"[-0.16385485080065174,-0.04390091455091331]",4.0,"[0.10460707843856416,-0.12562911000155053]",100.0,"[0.05721090811563954,0.12427293463710429]",100.0,"[-0.041583502418677816,0.08049388567494015]",4.0,"[-0.014464650180380996,0.15935773377587714]",4.0,"[0.004750934955778306,0.04491653358697335]",4.0,"[0.03707109466072543,0.010722586329488925]",100.0,"[0.08882193604608388,-0.02926724451688829]",100.0,"[-0.1290154132181465,0.05792561864870748]",4.0,"[-0.09771178993294914,-0.052448499391787626]",4.0,"[0.19725967428291322,-0.01612172053996716]",4.0,"[0.04101082746407557,-0.13591706668311807]",100.0,"[-0.13762995733184877,-0.0800063843432041]",100.0,"[-0.07313873594462075,0.011103376917153447]",4.0,"[0.07798695968496787,-0.07882560578174101]",4.0,"[-0.043754697262849376,-0.11662780867858841]",4.0,"[0.11358290568477417,0.03794279666105178]",4.0,"[0.16381987922974303,-0.07230732918285235]",100.0,"[-0.13742087874893041,0.10231990027547377]",100.0,"[-0.13507346580163473,-0.13169802046052562]",4.0,"[-0.006734931267463229,-0.09159320073576668]",100.0,"[-0.14785514002610234,0.012980376027101762]",100.0,"[-0.05540422840000208,-0.07020327627648806]",100.0,"[0.12262015793980628,-0.06247277213498222]",4.0,"[-0.0869015329985011,-0.17974269813700872]",100.0,"[-0.07122813218914015,0.11752536508081808]",4.0,"[-0.022957638100876258,0.11630782318050147]",100.0,"[0.1471716834284085,0.08771522111962081]",100.0,"[0.04664919914526754,0.0655778361068883]",100.0,"[-0.06461393233566318,0.18702846841076481]",100.0,"[0.1531164101928798,-0.11140397188976216]",100.0,"[-0.19216455529784415,0.036663419635667945]",100.0,"[0.02,0.02]",135.284,0.0,3.0,3.0,76.0,1.0,,,,,,,
,,,,,,,676c33a837a28914650c4962,6842bbfbd8e6f71878035cde,2025-06-06_12h01.16.738,shape_ratio,2024.1.5,Win32,59.88023952,6842b561977af9ba9b0f87ca,,,,,,,,,,,135.2847,135.7781,,,136.0302,136.5775,right,,,,,,,,0.6,0.5204,,,,,,,135.7781,136.0302,136.5776,"[0.05752946876676251,0.08184700357395194]",4.0,"[-0.06692122847922224,-0.006045732051923857]",4.0,"[0.13120640966776678,-0.023372120819059542]",100.0,"[-0.0582372385381848,-0.16770113503571987]",100.0,"[-0.0001601885440526663,0.11205174446039176]",100.0,"[0.08266494839413124,0.13904035102631127]",4.0,"[0.11066071217488227,-0.06557862302638119]",4.0,"[-0.183960787987608,0.023522838185185063]",100.0,"[0.008223807798599835,-0.047788157626038635]",4.0,"[-0.1828233153259786,-0.018612133169398356]",100.0,"[-0.018188533691591856,-0.1596722902486181]",4.0,"[-0.10806521886802783,-0.1629342895179562]",100.0,"[0.1823247534818181,0.04633239959107306]",100.0,"[-0.08077869684991577,-0.08623064891798823]",100.0,"[-0.0276510458757086,0.019720089829087645]",4.0,"[-0.02155609374377199,-0.08726510726556476]",100.0,"[0.1273075625175594,0.031531688851795435]",100.0,"[0.08441891506945401,-0.1646653093228617]",4.0,"[0.06529216817751798,0.1784718264590266]",4.0,"[0.09804000710791015,0.08838422450254098]",100.0,"[-0.006594044305787886,0.060885404596497855]",100.0,"[0.13339921229429394,0.12118439926809162]",100.0,"[-0.023574758803043442,0.17547160824128002]",100.0,"[-0.06951072920584887,0.13137797288329636]",100.0,"[-0.1266931333603167,-0.07714964663697543]",4.0,"[0.1905211959646549,-0.05731005654377744]",4.0,"[-0.14236671329140374,0.13185065820486652]",100.0,"[-0.16558206872723918,-0.05761529662054528]",100.0,"[-0.1637295685790418,0.07911580707127663]",100.0,"[0.04974272705508667,-0.04661238095445353]",4.0,"[0.01914431029598558,0.14895483252262462]",4.0,"[0.035973808346542305,0.022462544264980053]",100.0,"[0.02,0.02]",137.6772,0.0,4.0,4.0,31.0,1.0,,,,,,,
,,,,,,,676c33a837a28914650c4962,6842bbfbd8e6f71878035cde,2025-06-06_12h01.16.738,shape_ratio,2024.1.5,Win32,59.88023952,6842b561977af9ba9b0f87ca,,,,,,,,,,,137.6779,138.1774,,,138.4365,139.7777,left,,,,,,,,0.6,1.3171,,,,,,,138.1775,138.4363,139.7778,"[0.10781408353704891,0.14065011626158255]",4.0,"[0.026438636249917925,0.00390788095396322]",100.0,"[-0.0878831272111508,0.08538353411620209]",4.0,"[0.0069305485058694105,0.18837939661185088]",100.0,"[0.06465335632137502,-0.13492247265373375]",100.0,"[0.028458383640063024,0.10476100408926343]",4.0,"[-0.058632219175877874,0.13968891660516947]",100.0,"[0.08448718068741129,-0.037268108355270974]",100.0,"[-0.034443259088495284,-0.01213822116690062]",4.0,"[0.1371640987019164,0.014073400387797974]",100.0,"[-0.039672851775420466,-0.05930819457490414]",100.0,"[-0.10115826916571098,-0.04627299492162935]",100.0,"[-0.15098330817564373,-0.02838507147201837]",100.0,"[-0.022085651671684865,-0.17850593298939774]",4.0,"[0.07723326486749153,0.10043771137822115]",4.0,"[-0.1381058660627159,0.11747367551970837]",4.0,"[0.14597950030115445,-0.13568584738664216]",100.0,"[-0.14951505209453408,-0.08240835393715379]",100.0,"[0.03691780855457957,-0.10012984974607317]",4.0,"[0.1349985861968943,0.0974615836810945]",100.0,"[0.1647175429700568,-0.03418469464291003]",4.0,"[0.10150635225085745,-0.0818957366441795]",100.0,"[0.19511001814094783,-0.004857032052935726]",4.0,"[-0.11400989605690956,-0.14217267489634977]",4.0,"[-0.01874135507345402,-0.1348176997961145]",100.0,"[-0.17521488725237258,0.08873264061946044]",100.0,"[0.048185509378866474,-0.18041142432634472]",4.0,"[0.06939927862002034,0.16905064328147387]",100.0,"[0.0017590413372676624,-0.0724848456339298]",100.0,"[-0.02673831678665813,0.08754867638068196]",100.0,"[0.02535957353987212,0.14781079415929815]",4.0,"[-0.01356219861867273,0.047889072168348236]",100.0,"[0.02,0.02]",140.8851,0.0,5.0,5.0,38.0,1.0,,,,,,,
,,,,,,,676c33a837a28914650c4962,6842bbfbd8e6f71878035cde,2025-06-06_12h01.16.738,shape_ratio,2024.1.5,Win32,59.88023952,6842b561977af9ba9b0f87ca,,,,,,,,,,,140.8858,141.3778,,,141.6193,142.1109,right,,,,,,,,0.55,0.4678,,,,,,,141.3778,141.6192,142.1109,"[-0.1031089703392102,0.11406416944522735]",4.0,"[0.11388760742688778,0.03354205990621401]",4.0,"[-0.03954141723760929,-0.09432654533275225]",4.0,"[0.08981410979494708,-0.07648440546741822]",4.0,"[0.035902283744715685,0.06666076656280127]",4.0,"[-0.009092312456641395,0.011979096361593314]",100.0,"[-0.14806328672514346,0.04224965645408377]",4.0,"[-0.16453696382970867,-0.09183690548535797]",4.0,"[0.1513192985074135,0.07669155242232509]",4.0,"[-0.0338008433712629,-0.03301449712925153]",100.0,"[-0.12658698069374816,-0.05238810698080782]",4.0,"[-0.09468307053221556,-0.11451302107462778]",100.0,"[0.14660514389192375,-0.10707737031855047]",100.0,"[-0.040106386985662844,-0.16240473609279174]",100.0,"[-0.05109656777995365,0.051178969652028755]",100.0,"[-0.1208410618618873,-0.14700467313872195]",100.0,"[0.17319006659961128,-0.03317023631910708]",4.0,"[0.19299436170435372,0.03570354327820054]",100.0,"[-0.10277551578566457,0.16606316332975654]",100.0,"[0.07337306111451099,-0.13048450219231672]",4.0,"[0.014492702977392942,0.1644474520683698]",100.0,"[-0.15570373024459633,0.08484224588647837]",100.0,"[0.06446532051135144,-0.1877047584134792]",100.0,"[0.12002596915500487,-0.014718150180083052]",4.0,"[-0.11289352172337898,0.016250575387374046]",100.0,"[0.05397359232192775,0.11088963545321774]",4.0,"[0.1149735167352469,-0.15542174846862805]",100.0,"[0.12909227534120757,0.13828321036398142]",100.0,"[0.18384247739121087,-0.07712289333895635]",100.0,"[-0.002704239127377178,-0.05908580028704828]",4.0,"[-0.15702426843571743,-0.024478133085355375]",100.0,"[0.018734048607000408,-0.19439521458962464]",100.0,"[0.02,0.02]",143.2148,0.0,6.0,6.0,88.0,1.0,,,,,,,
,,,,,,,676c33a837a28914650c4962,6842bbfbd8e6f71878035cde,2025-06-06_12h01.16.738,shape_ratio,2024.1.5,Win32,59.88023952,6842b561977af9ba9b0f87ca,,,,,,,,,,,143.2153,143.7148,,,143.9689,145.1484,right,,,,,,,,0.1,1.1633,,,,,,,143.7148,143.9689,145.1485,"[0.08746644350164791,0.08673427379935182]",4.0,"[0.04898557114926096,-0.18061626960963165]",4.0,"[-0.14823289622624947,0.04906842250162249]",4.0,"[-0.03372228960665224,0.17280006952548788]",4.0,"[-0.023609723960247703,0.04111109558905521]",4.0,"[0.06345434620505934,0.1393701503755858]",4.0,"[0.0928308346291083,-0.1651617262723606]",4.0,"[0.14642767469305476,-0.11334665646781354]",4.0,"[0.18599517192779363,0.01355584686570113]",4.0,"[0.01921388047926862,0.0939308118923335]",4.0,"[-0.07865359501144023,0.02350616054525049]",100.0,"[-0.08663061204716864,-0.06459251650347587]",4.0,"[-0.060964534988150305,0.0613229966438903]",4.0,"[-0.040529746259297075,-0.0950597355730239]",4.0,"[-0.014174879268207353,-0.15832589821810644]",100.0,"[0.051800812420617036,-0.012817024243980535]",4.0,"[-0.1347322576024746,-0.13848374008587908]",4.0,"[-0.025074377117303263,-0.022564398826062183]",4.0,"[0.16520158103985955,0.10116202298643662]",4.0,"[0.06749427713305452,0.025631734759196792]",100.0,"[0.0008520892202065031,-0.10605524497499148]",4.0,"[-0.14086546862016894,0.09373368812175607]",4.0,"[-0.13067447119926537,-0.026678491867056318]",4.0,"[0.1105898062965362,0.033033899152402124]",4.0,"[0.07514453922592416,-0.12448298983247283]",4.0,"[0.0999117923099606,0.16475131519298283]",4.0,"[0.08193481930626469,-0.08066670137358631]",4.0,"[-0.08427072870922794,-0.1647642725495823]",4.0,"[-0.11641989510004486,-0.09686741920128451]",4.0,"[-0.0748601969822682,-0.11972012775433738]",4.0,"[-0.06950646937445419,0.10917000933985982]",4.0,"[0.017529670747390536,-0.04879953337370569]",4.0,"[0.02,0.02]",146.2503,0.0,7.0,7.0,191.0,1.0,,,,,,,
,,,,,,,676c33a837a28914650c4962,6842bbfbd8e6f71878035cde,2025-06-06_12h01.16.738,shape_ratio,2024.1.5,Win32,59.88023952,6842b561977af9ba9b0f87ca,,,,,,,,,,,146.2509,146.7434,,,146.9942,147.5271,right,,,,,,,,0.9,0.5143,,,,,,,146.7435,146.9941,147.5273,"[0.10385693917704962,-0.06814211219241029]",100.0,"[-0.06015462285772288,0.037094443244732704]",100.0,"[-0.17161996310401748,-0.0052222206030398555]",100.0,"[0.014142894738456504,-0.15628339917413334]",100.0,"[0.19127791492933,-0.02081053369315628]",100.0,"[-0.09936780437499963,0.08424047054104586]",100.0,"[0.033619845364356894,-0.06275796500844077]",100.0,"[-0.048419761908698504,-0.16995472169576673]",100.0,"[-0.013318673243925657,0.10927776883584911]",100.0,"[-0.07723669102382252,-0.1371470087685819]",4.0,"[-0.017237464666743144,-0.04522789338588357]",100.0,"[0.04663481508048706,0.07406562407461333]",100.0,"[0.16878266387826127,-0.06102045527540512]",100.0,"[0.12554712755789263,0.09306975242995125]",100.0,"[-0.060871851085385675,-0.08535351183031398]",4.0,"[-0.018325226773767193,0.0011190036063362789]",100.0,"[-0.09844129623910061,-0.039214884155853454]",100.0,"[-0.08193516209027357,-0.0022471201444976977]",100.0,"[0.12753213005082994,-0.01248952603778626]",100.0,"[0.12323938528225553,0.15653224940812016]",100.0,"[-0.05009480850643657,0.0791093159299362]",100.0,"[-0.06399446296456897,0.18516212383579117]",100.0,"[0.0014346620907091762,0.1579841364964224]",100.0,"[-0.06089100774686879,0.13851099783402845]",100.0,"[0.0691461767076098,0.1455775378861473]",4.0,"[0.08899522917593995,-0.14203648964538906]",100.0,"[-0.13131299572168423,-0.1316197291759142]",100.0,"[0.14706473599828215,-0.13374816212663435]",100.0,"[-0.023464660076851433,-0.10977365889709517]",100.0,"[0.03913467315076152,0.18095387564588314]",100.0,"[0.0744647983585821,0.0005869380564126139]",100.0,"[-0.11629835563098521,-0.0850807928244218]",100.0,"[0.02,0.02]",148.6313,0.0,8.0,8.0,28.0,1.0,,,,,,,
,,,,,,,676c33a837a28914650c4962,6842bbfbd8e6f71878035cde,2025-06-06_12h01.16.738,shape_ratio,2024.1.5,Win32,59.88023952,6842b561977af9ba9b0f87ca,,,,,,,,,,,148.6319,149.1286,,,149.3684,150.3004,left,,,,,,,,0.5,0.9158,,,,,,,149.1286,149.3684,150.3004,"[-0.04794024513667872,0.04811073545728503]",4.0,"[0.020331356034066297,0.03828203376046482]",100.0,"[0.11413429382983542,0.10973175095442582]",4.0,"[-0.006515983043636632,0.08439021438314855]",4.0,"[0.18495458508591284,-0.04174278313114846]",4.0,"[-0.064827935129821,0.1143448679576117]",100.0,"[-0.16228276262453337,-0.014999538808096869]",100.0,"[0.13317388014589635,-0.0632146891041904]",100.0,"[0.1568436816165257,-0.12016071409716059]",4.0,"[-0.11601669048739953,0.15263934476955313]",4.0,"[0.08095631758958724,0.0817766618034539]",4.0,"[0.03811470397524655,0.13873759240935155]",100.0,"[-0.023323951215251302,-0.19438799495896733]",100.0,"[0.026509783913205045,-0.10150266947891472]",100.0,"[0.09514884494183094,-0.04557046054123493]",4.0,"[-0.03732883979215243,-0.03246646103636817]",4.0,"[0.03897490535277325,-0.020708095032801188]",4.0,"[-0.07225300488149404,-0.1652636444117]",100.0,"[0.06313468924544074,0.17113477208147312]",100.0,"[0.09947339625879816,-0.10398955284278125]",4.0,"[0.168305174235965,0.054441652050994944]",4.0,"[-0.12181092522828371,-0.1332976347262037]",100.0,"[-0.12521544703421555,0.08635308545141177]",100.0,"[0.12241425858438384,-0.1528198030669224]",4.0,"[-0.11143707330822462,-0.03862349151466828]",100.0,"[-0.06601416487697886,0.003201602898382699]",100.0,"[-0.012207387874728401,0.16537735146783183]",4.0,"[0.03370364100138154,-0.061682860568956756]",4.0,"[-0.06364800291367265,0.15640944658579545]",100.0,"[0.041480331969228366,-0.18923769641609092]",100.0,"[0.07292446442776354,0.009581690167078669]",4.0,"[-0.05331061545641517,-0.06952081383774647]",100.0,"[0.02,0.02]",151.3934,0.0,9.0,9.0,99.0,1.0,,,,,,,
,,,,,,,676c33a837a28914650c4962,6842bbfbd8e6f71878035cde,2025-06-06_12h01.16.738,shape_ratio,2024.1.5,Win32,59.88023952,6842b561977af9ba9b0f87ca,,,,,,,,,,,151.3941,151.8934,,,152.1353,153.1526,right,,,,,,,,0.9,1.0012,,,,,,,151.8935,152.1353,153.1526,"[-0.07996085341669297,-0.03985409566139467]",100.0,"[0.06862212811996579,-0.10368202801095712]",100.0,"[-0.02834934125266891,-0.02226217122305211]",100.0,"[0.18420140689728348,-0.04352952863311994]",100.0,"[0.10517166384723436,-0.07922339191808127]",100.0,"[0.12517043243393255,-0.14812012844494737]",100.0,"[0.06882154687188474,0.0949121686054242]",4.0,"[-0.10709477941134957,0.15835463128341482]",100.0,"[0.12840514960581326,0.12883533388107232]",4.0,"[0.11269086325120024,0.009378543222902299]",100.0,"[0.15495203642796507,-0.11657122304096405]",100.0,"[0.16284247779854027,0.025514097495012298]",100.0,"[-0.15977689166176318,0.006678429339223242]",100.0,"[0.02850460369215601,-0.0918237705385466]",100.0,"[-0.06499555121450747,0.14436842375706985]",100.0,"[0.009021511279445496,0.18365312540248252]",100.0,"[0.06334410530290899,-0.18253242223366506]",100.0,"[-0.11066836036397215,-0.13483036646416982]",100.0,"[-0.1321280078788624,0.043838651351583574]",100.0,"[-0.06556858560950955,0.102724893589948]",100.0,"[-0.15956230467866936,0.1190798856464898]",4.0,"[-0.04911709658833035,-0.08205295874103817]",100.0,"[-0.10934080884589065,-0.06913796775507997]",100.0,"[-0.032753905409968,-0.13756699402755923]",100.0,"[0.00516036955726461,-0.1648750718289495]",100.0,"[0.07567264114451845,0.05213276279800198]",100.0,"[-0.04718680291330653,0.01351957488129184]",100.0,"[0.05145298103246607,-0.0025315673707083843]",100.0,"[0.06005794016707974,0.17014173578643987]",100.0,"[0.012964353759075838,0.09542410092291033]",100.0,"[-0.17106090492014467,-0.09503883360077914]",100.0,"[-0.04196518012458193,0.05699845690626951]",100.0,"[0.02,0.02]",154.2516,0.0,10.0,10.0,19.0,1.0,,,,,,,
,,,,,,,676c33a837a28914650c4962,6842bbfbd8e6f71878035cde,2025-06-06_12h01.16.738,shape_ratio,2024.1.5,Win32,59.88023952,6842b561977af9ba9b0f87ca,,,,,,,,,,,154.2522,154.7515,,,155.0015,156.21,right,,,,,,,,0.9,1.1837,,,,,,,154.7515,155.0015,156.2101,"[-0.09445259106305007,-0.00898416020048614]",100.0,"[-0.05913454300821047,-0.18879725731509564]",100.0,"[0.14239527197889693,0.04624931675670054]",4.0,"[-0.08573767589932683,-0.12742889554920822]",4.0,"[0.1965200527357422,-0.034266789638227615]",100.0,"[0.14329958380111363,-0.02203874127036922]",100.0,"[0.06672611227313031,-0.08226177570903644]",100.0,"[0.15375862981655433,0.08637249817607566]",100.0,"[0.0041287369174167485,0.00315682380938542]",100.0,"[-0.03279638690043697,-0.13505390791404667]",100.0,"[-0.13771689934073458,-0.015653797304961803]",100.0,"[0.02252916272177642,-0.03338931603200148]",100.0,"[-0.05908727256140738,0.11157141758657563]",100.0,"[0.10766143220204996,-0.057005446111996705]",100.0,"[-0.008098088764024361,0.10260697271344695]",100.0,"[0.12236149594592693,-0.14412861228074286]",100.0,"[0.07303047409921891,-0.02588734925950279]",4.0,"[0.10209684209917393,0.029332050622061557]",100.0,"[0.16809774333595218,-0.0763360977173947]",100.0,"[-0.11555479365235452,0.08886368663458488]",100.0,"[0.03476343158597326,0.15516400824729898]",100.0,"[0.06830841171476457,0.08685362887368554]",100.0,"[0.19808440288947662,0.01748360185162054]",100.0,"[-0.1404425164955627,0.124976965568418]",100.0,"[-0.0809690212144244,-0.07485921627389909]",100.0,"[-0.015122925956802261,0.06162225379980059]",100.0,"[0.059251885838426534,0.04220141494763486]",100.0,"[0.07622739397593697,-0.17136085756798175]",100.0,"[0.03866990670550367,-0.11778451858787918]",100.0,"[0.0818518352958513,0.17382625313049774]",100.0,"[0.11461332256074441,-0.09763365559439263]",100.0,"[-0.15323519897107088,-0.09007148454357675]",100.0,"[0.02,0.02]",157.3174,0.0,11.0,11.0,9.0,1.0,,,,,,,
,,,,,,,676c33a837a28914650c4962,6842bbfbd8e6f71878035cde,2025-06-06_12h01.16.738,shape_ratio,2024.1.5,Win32,59.88023952,6842b561977af9ba9b0f87ca,,,,,,,,,,,157.3181,157.8096,,,158.0511,159.5435,,,,,,,,,0.5,,,,,,,,157.8096,158.0511,159.5436,"[0.15343294765430315,0.09327930040473492]",4.0,"[-0.06195411817116311,-0.1436465635896938]",100.0,"[0.08576744366487243,-0.06348985973347832]",4.0,"[-0.11249952676479849,-0.07590366775595678]",100.0,"[-0.15732589650659137,0.11719049878905104]",100.0,"[0.17566149877631274,0.005665471235820259]",100.0,"[-0.03708998181278943,-0.019686587281600273]",4.0,"[0.17069532755526715,0.05508750035030637]",100.0,"[0.004315006779911472,0.17496708525081472]",4.0,"[0.038169303439068075,-0.026839287285155812]",100.0,"[0.012312527996100327,-0.17666460520676067]",4.0,"[0.06247672341971126,-0.159039838869653]",4.0,"[-0.1610224381108224,0.06641081507194373]",100.0,"[0.10201320311625457,0.14287221826355964]",4.0,"[-0.017647631803105118,0.11158178986758044]",4.0,"[0.1235795535406461,-0.0871830428376695]",4.0,"[0.06731561994014228,0.026372830317310473]",4.0,"[0.03555235495439763,0.05859472078198644]",4.0,"[-0.06631426976759927,0.1790296909955865]",100.0,"[-0.14577587565059189,-0.04295871329394335]",4.0,"[-0.10064810622371734,-0.12405038801882608]",4.0,"[-0.0950587064926641,0.081519010601384]",100.0,"[0.056619855948270355,0.0971335046571352]",4.0,"[-0.013983049795163235,-0.07087142527227365]",4.0,"[-0.08851216593823386,0.003674891950353031]",100.0,"[0.13181616905462543,0.0299158803002859]",100.0,"[0.11539431519507835,-0.15784123199357197]",4.0,"[-0.16477478351584335,-0.10240215255297683]",100.0,"[-0.002217709836401684,-0.11385741836623349]",100.0,"[-0.1361220607201957,0.00622848717417054]",100.0,"[-0.032747026006836294,0.03301994264915238]",100.0,"[0.18167383696861492,-0.04822301586292666]",100.0,"[0.02,0.02]",160.6427,0.0,12.0,12.0,111.0,1.0,,,,,,,
,,,,,,,676c33a837a28914650c4962,6842bbfbd8e6f71878035cde,2025-06-06_12h01.16.738,shape_ratio,2024.1.5,Win32,59.88023952,6842b561977af9ba9b0f87ca,,,,,,,,,,,160.6435,161.1429,,,161.3843,161.8018,left,,,,,,,,0.6,0.4005,,,,,,,161.143,161.3843,161.8018,"[0.03952512857087965,0.1519616736701944]",4.0,"[0.09270786384544376,-0.000659895438223073]",100.0,"[-0.007689110129348319,0.16003959399379025]",100.0,"[0.12135773645511112,0.07255001744159986]",100.0,"[0.12852098120232855,-0.12240964390473157]",4.0,"[-0.14496934197543637,-0.07893107688314047]",4.0,"[0.05074677902923817,0.10604592727270715]",100.0,"[-0.03069352176366668,-0.10640752074935764]",100.0,"[0.019736672636662806,-0.08171917861781569]",4.0,"[-0.024014240302466957,-0.027757625376702483]",100.0,"[-0.09549580313349917,-0.1431863455959047]",4.0,"[0.054041707792779725,-0.1664971371966631]",100.0,"[-0.1444551655836001,0.12242957071848369]",4.0,"[0.05500320721360907,-0.11975440726246758]",4.0,"[0.1691912391195893,0.09873069040629497]",4.0,"[0.0004591362677349138,0.049960259473897276]",100.0,"[0.09110002999113796,0.11404218740753436]",4.0,"[-0.09740241411639218,-0.09727916165509956]",100.0,"[0.07229267950302387,0.17802300268808427]",100.0,"[0.022341204455992844,0.012566925036114517]",100.0,"[-0.17185404221652098,-0.043657127130850355]",100.0,"[0.14498764439284745,0.03014692110495895]",4.0,"[-0.09182886525355977,0.017263043446699433]",100.0,"[0.15044904908340487,-0.03556383050506414]",100.0,"[0.08146235116025617,-0.060002000895547386]",100.0,"[0.1298305940364509,-0.07353998033585928]",4.0,"[-0.050221191719124564,-0.06589866325670395]",4.0,"[-0.014384835380275617,0.10185559138640565]",100.0,"[-0.154037883879961,0.008209227778934137]",100.0,"[-0.07249592380089477,0.14555116442204297]",100.0,"[-0.06103100137250409,-0.18879499761851734]",4.0,"[-0.05274679469662285,0.08443124317698238]",100.0,"[0.02,0.02]",162.8928,0.0,13.0,13.0,39.0,1.0,,,,,,,
,,,,,,,676c33a837a28914650c4962,6842bbfbd8e6f71878035cde,2025-06-06_12h01.16.738,shape_ratio,2024.1.5,Win32,59.88023952,6842b561977af9ba9b0f87ca,,,,,,,,,,,162.8936,163.3929,,,163.6342,164.2445,right,,,,,,,,0.55,0.594,,,,,,,163.3929,163.6342,164.2448,"[0.18254929601664072,-0.026083500678415295]",4.0,"[-0.15002108131336053,0.06830306489532618]",4.0,"[0.13994515570002414,-0.054073009313888074]",100.0,"[0.15734473761485174,0.07694602770167838]",100.0,"[0.012878886724818536,-0.16744991380504773]",100.0,"[-0.14183838318113975,-0.006180933948918447]",100.0,"[-0.09091634528505457,0.03281883098317048]",100.0,"[0.1203875329540117,0.09350325403150533]",100.0,"[0.10053528752893319,-0.13858468824674344]",100.0,"[-0.15516793146599256,-0.058475209607929804]",4.0,"[-0.08597762793415586,-0.13268866662921125]",100.0,"[0.02941134973698073,-0.009185861546251103]",100.0,"[0.02335021373690288,0.19829218194784248]",4.0,"[-0.18375962033180746,0.020843661153259127]",4.0,"[0.06766201387429559,-0.04382955826217618]",100.0,"[0.06413107514287755,0.1709245696022017]",100.0,"[0.13058033566236427,0.024453935530208814]",100.0,"[0.072215008296668,0.12726688371245118]",4.0,"[0.010534227417188163,-0.10938807622156446]",4.0,"[-0.09497203890506208,0.1448708267657363]",4.0,"[-0.0009456628871466868,0.07621077624394088]",4.0,"[0.04062182670633601,0.04526863545439166]",100.0,"[-0.033538020963973694,-0.08332364040946001]",100.0,"[0.052766288269758765,-0.16101203327833216]",4.0,"[0.02914537491440643,0.1458752210003412]",4.0,"[0.13083075927564386,-0.09686334650010599]",100.0,"[-0.10137411940220087,-0.09305503144489319]",100.0,"[-0.011126132063716127,0.02935744588270491]",4.0,"[-0.060510613678510794,0.11831353602993357]",100.0,"[-0.024491751038122674,-0.03519552989876295]",4.0,"[-0.030719636521073544,-0.15831362418800266]",4.0,"[-0.014682779460885842,0.13811184287840209]",100.0,"[0.02,0.02]",165.3425,0.0,14.0,14.0,77.0,1.0,,,,,,,
,,,,,,,676c33a837a28914650c4962,6842bbfbd8e6f71878035cde,2025-06-06_12h01.16.738,shape_ratio,2024.1.5,Win32,59.88023952,6842b561977af9ba9b0f87ca,,,,,,,,,,,165.3432,165.8424,,,166.0846,166.6811,right,,,,,,,,0.55,0.5805,,,,,,,165.8425,166.0845,166.6812,"[0.16074547542058798,-0.03954635872101037]",100.0,"[0.18800710194008088,0.05180609374422484]",100.0,"[0.08652364828440483,0.06459696780741395]",100.0,"[0.08736969757373529,-0.1029734497837047]",4.0,"[-0.0017624663487141895,-0.14447485145431588]",100.0,"[0.04627362961876939,0.01030957382589941]",100.0,"[0.1278644350374915,0.0916599761207065]",4.0,"[0.03195682392588918,-0.08292745435678539]",100.0,"[0.054473741472239004,-0.032201435138244174]",100.0,"[-0.06630403513420784,-0.04354913858142959]",4.0,"[-0.19008377279840796,-0.041699796718644766]",100.0,"[-0.11017089753450213,-0.04123605721316666]",4.0,"[0.041368621614911616,0.07383763739551577]",100.0,"[-0.1548390220065499,0.03708675196508055]",100.0,"[0.1696460455638155,-0.09379676630549955]",100.0,"[0.009690867581685107,0.1240324050863011]",100.0,"[-0.10881608486968043,-0.12933963506255394]",100.0,"[-0.08005613152600947,0.12031367851395441]",4.0,"[0.13144504472015583,-0.13741701928911956]",100.0,"[-0.145189953902022,-0.09211013233143771]",4.0,"[0.12946261685987304,0.030699360377592477]",100.0,"[-0.06980288511303606,0.07692095644216401]",100.0,"[-0.06211033295907643,0.013799290432131241]",4.0,"[0.05298708257966048,0.18912362255685483]",4.0,"[0.004497553204901794,-0.042810120415424986]",100.0,"[-0.1673361331436116,0.08423534534947111]",4.0,"[0.016635620642046663,-0.19313615394733866]",4.0,"[-0.0643256240749897,-0.13859700545492365]",4.0,"[-0.10529194920314046,0.16112054288786426]",4.0,"[0.07443423963076892,-0.14780473787290707]",4.0,"[-0.015483813187218046,0.053037881365686074]",4.0,"[-0.10436657186501726,-0.08628091985093443]",100.0,"[0.02,0.02]",167.7756,0.0,15.0,15.0,65.0,1.0,,,,,,,
,,,,,,,676c33a837a28914650c4962,6842bbfbd8e6f71878035cde,2025-06-06_12h01.16.738,shape_ratio,2024.1.5,Win32,59.88023952,6842b561977af9ba9b0f87ca,,,,,,,,,,,167.7764,168.2797,,,168.5181,170.0089,,,,,,,,,0.45,,,,,,,,168.2798,168.5181,170.009,"[-0.029068358937550033,-0.10102927797281015]",4.0,"[-0.09949989600025012,0.11062683727911708]",4.0,"[-0.018770414289484075,0.051936378178965945]",4.0,"[-0.07438497952064548,-0.03796115803328326]",100.0,"[0.028914196989460586,-0.022955487794789377]",4.0,"[0.047412765684668894,-0.19031997478836157]",100.0,"[-0.16096133421270734,-0.09449885802610554]",100.0,"[0.034116477467035035,-0.08421391798250678]",100.0,"[-0.11405638582872317,-0.10104536449824243]",100.0,"[0.1001288077081552,-0.03641318146942313]",4.0,"[0.05024613781539525,0.08322678867123946]",4.0,"[0.12992028872165604,0.05374810234985931]",100.0,"[-0.050722732447442916,-0.18858243894281332]",4.0,"[-0.1404047068319288,0.11483800830244517]",100.0,"[-0.0172316825100953,0.17188231177009636]",4.0,"[-0.04095390928219835,-0.06026780007888937]",4.0,"[0.08864444432773226,-0.1561879350182745]",100.0,"[-0.10005028389521359,0.16360263041114015]",100.0,"[0.08673989717394705,0.17057142725353383]",4.0,"[-0.07839800861095864,0.07301618730346308]",100.0,"[-0.05504788336482308,0.001127634706018748]",100.0,"[0.1567753274322374,0.023374087331666245]",4.0,"[-0.18236570921978545,0.011540022488460209]",100.0,"[0.07648253939996172,-0.10437254643085354]",4.0,"[0.17457287537811153,-0.030879103599733334]",100.0,"[-0.05706279838907748,0.19044208295922477]",4.0,"[-0.01679516385423198,0.12230159521435457]",4.0,"[0.017454238457963782,0.14297648049225803]",100.0,"[-0.17200504437501413,-0.03875516023062877]",4.0,"[0.006772586792881644,-0.15689559699638633]",4.0,"[-0.09306335207669053,-0.14872502892940306]",4.0,"[-0.09712145989995226,-0.0017527316284354035]",4.0,"[0.02,0.02]",171.1087,0.0,16.0,16.0,125.0,1.0,,,,,,,
,,,,,,,676c33a837a28914650c4962,6842bbfbd8e6f71878035cde,2025-06-06_12h01.16.738,shape_ratio,2024.1.5,Win32,59.88023952,6842b561977af9ba9b0f87ca,,,,,,,,,,,171.1094,171.6175,,,171.8612,172.2605,left,,,,,,,,0.5,0.384,,,,,,,171.6176,171.861,172.2605,"[-0.09689221953328452,0.013981037727318915]",100.0,"[-0.18154477122392754,0.042053595019337336]",100.0,"[0.08636385351696244,-0.031220754257500122]",4.0,"[0.18968226649692696,-0.037887039778961254]",4.0,"[-0.11673200007280342,-0.03149451840915177]",100.0,"[-0.0004298325366785978,-0.17684486395656415]",4.0,"[0.001144675867459775,0.1456415065746923]",4.0,"[-0.00037470933158824274,-0.0006740223611235435]",4.0,"[-0.046317658414925654,0.018474626969126353]",4.0,"[0.12238428064042343,0.05026675678713871]",4.0,"[-0.15968733678643582,-0.09579263005713226]",100.0,"[0.18613388168398384,0.04938404541824619]",4.0,"[-0.004474951066271802,0.09373742679428429]",100.0,"[-0.05923051729812949,0.10435549159162617]",4.0,"[0.14826246228977277,-0.08974319459130899]",4.0,"[-0.07318945344847393,-0.06848582123657698]",100.0,"[0.10809894592424896,0.09071524502639505]",4.0,"[0.07234377245410158,0.1649697127765566]",4.0,"[-0.17730016029249793,0.08927190485500629]",100.0,"[-0.09422309930468961,0.07060843424770856]",4.0,"[0.03712070538785534,-0.09979709463978749]",100.0,"[0.1339385854855676,-0.1274790277462472]",4.0,"[0.16137515382150985,0.0010099348638685122]",100.0,"[0.1519767759085484,0.12794464955314547]",100.0,"[0.08446370578351431,-0.15657234919604684]",100.0,"[0.004497801313775994,-0.12770887390832183]",100.0,"[-0.132754519163177,-0.14639985607926834]",100.0,"[-0.09547907475998013,-0.12615217284913147]",100.0,"[-0.04167709740323982,0.1500040843386303]",4.0,"[-0.054810940770359584,-0.17111370468029335]",4.0,"[0.04023678478888462,0.0027340333000292023]",100.0,"[-0.0425990458106669,-0.03521133263924136]",100.0,"[0.02,0.02]",173.3613,0.0,17.0,17.0,90.0,1.0,,,,,,,
,,,,,,,676c33a837a28914650c4962,6842bbfbd8e6f71878035cde,2025-06-06_12h01.16.738,shape_ratio,2024.1.5,Win32,59.88023952,6842b561977af9ba9b0f87ca,,,,,,,,,,,173.3618,173.8602,,,174.1109,174.5769,left,,,,,,,,0.1,0.4506,,,,,,,173.8602,174.1109,174.577,"[0.014132230290811653,-0.05404481759253338]",4.0,"[0.1481760802410141,-0.12577910068414963]",4.0,"[0.10449354473947382,0.022370302982759077]",4.0,"[0.1360935246998151,-0.03460430921772342]",4.0,"[0.09065195486776985,-0.10615720030048018]",4.0,"[0.09936072928151793,0.08408872099563967]",4.0,"[0.05171522342884166,0.13976545940648116]",4.0,"[-0.11832153386908349,0.06130075304073309]",4.0,"[-0.11468643325637361,-0.1251444632802912]",4.0,"[-0.09505559490555791,-0.08003142472305873]",4.0,"[-0.0319344714716261,-0.17883745050261582]",4.0,"[-0.043507355872995465,0.025286975115666778]",4.0,"[-0.17834517021722904,-0.0033986479563784715]",4.0,"[0.0479984156191269,0.1857591525598281]",4.0,"[-0.059566830763391636,-0.03202733683209578]",4.0,"[-0.17694593397154404,-0.08483108855566707]",4.0,"[-0.06606202959767711,0.11619430818242596]",4.0,"[0.16923457290131508,0.048539038177816574]",100.0,"[0.06214651385229625,0.05048830849730558]",4.0,"[-0.14067750865034104,0.01953154555620833]",4.0,"[-0.1479003732825955,0.12282526541873769]",4.0,"[-0.1048548104746592,-0.004574473346666412]",4.0,"[0.01858176156235028,-0.12188060018570557]",4.0,"[0.17402395117407846,-0.07347842010590167]",4.0,"[0.1847076716567086,-0.02597427114335826]",4.0,"[-0.056295044290045955,-0.12344889530463524]",4.0,"[-0.006674864594087308,0.07244022718692085]",4.0,"[0.05275822240105264,-0.1458475970129584]",4.0,"[-0.019566591037168953,-0.10256183003584658]",100.0,"[-0.11229032689481204,0.15514639006423575]",4.0,"[0.06611633611007642,-0.026575230167613727]",4.0,"[0.09563242320773595,-0.1571711129996037]",100.0,"[0.02,0.02]",175.6769,0.0,18.0,18.0,206.0,1.0,,,,,,,
,,,,,,,676c33a837a28914650c4962,6842bbfbd8e6f71878035cde,2025-06-06_12h01.16.738,shape_ratio,2024.1.5,Win32,59.88023952,6842b561977af9ba9b0f87ca,,,,,,,,,,,175.6774,176.1768,,,176.4268,177.5105,left,,,,,,,,0.4,1.0755,,,,,,,176.1768,176.4268,177.5106,"[0.03622373579675713,-0.16580681076014314]",4.0,"[0.04965612986410154,-0.05463721021749813]",100.0,"[-0.15131991629339522,0.11912992240064389]",100.0,"[0.17441938433290563,-0.034781596310431984]",100.0,"[0.13280278899947423,0.007274976752645067]",100.0,"[0.038167804610871964,-0.09673114132197703]",100.0,"[-0.07774050770435144,-0.06677791310353194]",4.0,"[-0.07618645743468287,0.18296824555485305]",4.0,"[0.11150955533998687,-0.09302073059216291]",4.0,"[-0.03124635605200608,-0.18546935427650396]",100.0,"[-0.0668616946472857,-0.12909999182410642]",4.0,"[0.07122695568375634,0.06408394435004791]",100.0,"[0.16381675991541694,-0.09525211588551243]",100.0,"[0.031162334702884608,0.07788688110121185]",4.0,"[-0.15432333268499118,-0.10198875990565769]",4.0,"[-0.15340037861179504,0.0373818996247345]",4.0,"[-0.12478373097619426,-0.02248545323710132]",100.0,"[-0.01872600290842106,-0.036211809103964585]",100.0,"[0.17580693669512104,0.07385638758442561]",4.0,"[-0.16851913040364938,0.08068118750532836]",4.0,"[-0.08911221042604828,0.029266307984297125]",100.0,"[0.12817750741146822,0.061518538946178085]",4.0,"[0.05836667452862543,0.016460575389993456]",100.0,"[-0.11738360522724713,0.06398862261260325]",4.0,"[-0.11696351298121567,-0.0788415707506164]",100.0,"[0.02001518841116966,0.13697788019049345]",4.0,"[0.12529366803510789,0.11711815128218722]",4.0,"[0.12123780978509538,-0.045669771449665636]",4.0,"[-0.18837870510826207,-0.06276029748184399]",4.0,"[-0.11122703522709329,-0.1451900559471851]",4.0,"[0.014985265374626263,-0.007699063301406825]",4.0,"[-0.036588066260932736,0.11189590694686917]",4.0,"[0.02,0.02]",178.61,0.0,19.0,19.0,159.0,1.0,,,,,,,
,,,,,,,676c33a837a28914650c4962,6842bbfbd8e6f71878035cde,2025-06-06_12h01.16.738,shape_ratio,2024.1.5,Win32,59.88023952,6842b561977af9ba9b0f87ca,,,,,,,,,,,178.6105,179.11,,,179.3605,180.0436,left,,,,,,,,0.45,0.6675,,,,,,,179.1101,179.3604,180.0436,"[0.16833488965441556,0.10618818341699222]",4.0,"[0.060198122727185145,0.11694069162393]",4.0,"[-0.04746793252976214,0.004645626964234345]",4.0,"[0.057168374710107064,-0.06340479363407543]",100.0,"[-0.09175290644397906,-0.15533850694191095]",4.0,"[-0.06718262068453597,-0.10123787604630097]",100.0,"[0.058942074005702894,0.00689740181262881]",4.0,"[0.13234980894660547,0.1426540969121588]",100.0,"[0.06080058667907581,-0.10394199303303882]",100.0,"[-0.10890164388073771,0.11988525824075867]",100.0,"[-0.13372112695445693,-0.011623635826738728]",100.0,"[-0.12376536232547491,-0.06092569400295625]",4.0,"[-0.005601093875117803,0.1171321668648568]",4.0,"[0.11478290892869504,-0.10176883419772055]",4.0,"[0.010938770040106753,0.014134647979838495]",4.0,"[0.09355178805937099,-0.02812466169431141]",4.0,"[-0.11525720980839106,0.03460290473450724]",100.0,"[0.06846905289167707,-0.15509258235329776]",4.0,"[-0.16624175674207803,0.10119304331452818]",100.0,"[0.10174672663727594,0.0405047497457681]",4.0,"[-0.06718161985530467,-0.18716506853032872]",4.0,"[0.16383025190058378,-0.10319335037826667]",100.0,"[0.009091386518118529,-0.14878819775959867]",4.0,"[-0.14186376424823402,-0.1024152539615328]",4.0,"[0.005932395713154336,-0.0967719382213285]",4.0,"[0.12273025851260962,-0.05686624765404946]",4.0,"[0.015388927975794884,0.059565466637923385]",100.0,"[0.1786056315095438,-0.03446263103967053]",4.0,"[-0.01796098888915224,-0.18687085832858946]",100.0,"[0.06428992419406784,0.1726802597079295]",100.0,"[-0.07065328862367153,0.09761429406993459]",100.0,"[-0.004662560395549223,-0.05581979359707646]",100.0,"[0.02,0.02]",181.142,0.0,20.0,20.0,122.0,1.0,,,,,,,
,,,,,,,676c33a837a28914650c4962,6842bbfbd8e6f71878035cde,2025-06-06_12h01.16.738,shape_ratio,2024.1.5,Win32,59.88023952,6842b561977af9ba9b0f87ca,,,,,,,,,,,181.1426,181.6419,,,181.8932,182.2089,left,,,,,,,,0.1,0.2976,,,,,,,181.6419,181.8932,182.2089,"[-0.04262894224684809,-0.021004794116142797]",100.0,"[0.13725536038651062,-0.03184732742690557]",4.0,"[-0.02279265961586896,0.04148743735085172]",4.0,"[-0.038956420539676635,-0.1285283472761343]",4.0,"[-0.06129791331819782,0.15071011572211596]",4.0,"[0.09356892275838544,0.08767355825141317]",4.0,"[0.1767030734571756,-0.07298559276069404]",4.0,"[0.061728161509112284,-0.17416757574801406]",4.0,"[-0.12422682212026946,0.05629401156987815]",4.0,"[0.02372625089138135,0.19067168290476924]",4.0,"[-0.027324072188036754,-0.08863273076518868]",100.0,"[0.0353845438322213,0.14008363993474177]",4.0,"[0.024732593700334028,-0.18951611681327404]",4.0,"[-0.024274741347736342,0.17566629547928542]",4.0,"[0.13920998319501907,0.01634220127443795]",4.0,"[0.027841896550343904,0.025895394756383017]",4.0,"[0.09702731313182422,-0.09671216376237377]",4.0,"[-0.12996829053551753,-0.032183388354943596]",4.0,"[-0.08520199409767529,0.04093052190373334]",4.0,"[0.0984061645066149,0.15358155580823216]",4.0,"[-0.15568771936905446,-0.12465127615853192]",4.0,"[-0.176586947162811,-0.021563476249236223]",100.0,"[0.0597358227487387,0.06188792013569935]",4.0,"[-0.09032526953284341,0.10185532018046928]",4.0,"[0.018432262973990282,-0.13700035401536168]",4.0,"[0.09371682624564547,0.024956857536675283]",4.0,"[-0.017027455608273644,0.11277469963339165]",4.0,"[0.17576586349605278,0.03936611634987739]",4.0,"[-0.16381008182837256,0.07819958596199748]",4.0,"[0.17478932066108538,0.09104715616984245]",4.0,"[-0.11205116394523418,-0.09480625883400468]",4.0,"[0.11842788885808184,-0.1474264826263188]",4.0,"[0.02,0.02]",183.3084,0.0,21.0,21.0,193.0,1.0,,,,,,,
,,,,,,,676c33a837a28914650c4962,6842bbfbd8e6f71878035cde,2025-06-06_12h01.16.738,shape_ratio,2024.1.5,Win32,59.88023952,6842b561977af9ba9b0f87ca,,,,,,,,,,,183.309,183.8085,,,184.0589,184.4587,left,,,,,,,,0.1,0.384,,,,,,,183.8085,184.0589,184.4588,"[-0.05003607826552501,0.08042400955520121]",4.0,"[0.06626449932654624,-0.09518897798585942]",4.0,"[-0.0015028676499354836,0.09586830148859297]",4.0,"[0.13259186797282455,0.03880175623079217]",100.0,"[-0.04509734942234965,0.13207871786456102]",4.0,"[0.15594182593060082,0.10154549095250943]",4.0,"[0.062148028038486146,0.16343250902638282]",4.0,"[-0.13222673050684092,0.011040688994365474]",4.0,"[0.17050219041121717,-0.07660950414142663]",4.0,"[-0.03136024321654076,0.002226861962901248]",4.0,"[-0.08882150890080726,0.020761139356514007]",4.0,"[-0.11086248145658222,0.0636793875977246]",4.0,"[-0.05829773028408219,-0.132281800570665]",4.0,"[0.016375139570412957,-0.17625718169236668]",4.0,"[-0.0032939052002844025,0.04337216049688727]",4.0,"[0.10396470587045598,-0.11164139534093509]",4.0,"[-0.12106668193116386,0.14997368435092648]",4.0,"[-0.1258629393338769,-0.1281637818072545]",4.0,"[0.012444488125596136,0.1421547706561864]",4.0,"[0.09641557730363479,0.06697788076904426]",4.0,"[0.025031593367516664,-0.07397484834283194]",4.0,"[0.11680084432540244,-0.00046469050060718323]",4.0,"[-0.18284789629392745,-0.03964680995015318]",4.0,"[-0.030647567596231152,-0.039139941347299]",4.0,"[-0.07357586138638747,-0.048883149976765086]",4.0,"[-0.022191639306273138,0.19833922882425584]",100.0,"[0.065525377892083,-0.1461665841592905]",4.0,"[0.05469742788651496,-0.03303049125064714]",100.0,"[-0.11317240701947429,-0.02938806552334221]",4.0,"[0.16895474475458722,0.0030425146696315035]",4.0,"[0.10514239046208199,-0.051220030394569065]",4.0,"[-0.10150373296951457,0.10735068258928629]",4.0,"[0.02,0.02]",185.5584,0.0,22.0,22.0,198.0,1.0,,,,,,,
,,,,,,,676c33a837a28914650c4962,6842bbfbd8e6f71878035cde,2025-06-06_12h01.16.738,shape_ratio,2024.1.5,Win32,59.88023952,6842b561977af9ba9b0f87ca,,,,,,,,,,,185.559,186.0584,,,186.3104,186.6932,right,,,,,,,,0.9,0.3673,,,,,,,186.0584,186.3103,186.6932,"[-0.002097437913636579,0.0414763584705551]",100.0,"[0.0027713782566132204,-0.15655171233496856]",100.0,"[-0.10205772066139136,0.022795891245292438]",100.0,"[-0.18347253736273528,-0.06609851683860979]",100.0,"[0.15556725305324742,-0.01091009053327469]",100.0,"[-0.16464501193676948,0.11005788271241426]",100.0,"[0.06566479546799615,0.07797361314962864]",100.0,"[-0.04099459151748711,-0.14616998476039123]",100.0,"[0.05482126971386239,0.1799730146949842]",100.0,"[-0.022994113513719244,0.14067681547667413]",100.0,"[-0.0448176259694001,-0.030541574651688243]",100.0,"[0.10600977620080454,-0.015077554467078418]",100.0,"[0.03842250351635076,-0.18071198972122315]",100.0,"[0.16704734407511498,-0.106462633598451]",100.0,"[0.11582578468509795,-0.14860763759879494]",100.0,"[0.16999298286190306,0.03708087197730371]",100.0,"[-0.07913727069670386,-0.10424939230956894]",4.0,"[-0.13785643414886353,-0.04056224362074625]",100.0,"[-0.15633093472185047,-0.09617916598978216]",100.0,"[-0.00630773672558832,0.18005489444231063]",4.0,"[0.155975831264683,-0.06148015114993471]",4.0,"[0.018966603611598794,-0.009053892213158499]",100.0,"[0.10470785296742441,0.06547220773968451]",100.0,"[-0.03275872288078804,-0.09949635892406454]",100.0,"[-0.12694567685055808,-0.12438060046035372]",100.0,"[-0.09375186427787306,0.07765078334989593]",100.0,"[-0.0975653271331241,-0.16341740270131924]",100.0,"[0.10444065861847755,0.16685819573414296]",100.0,"[-0.07471259525876779,0.15143539065896286]",100.0,"[0.008025486872561402,0.08364465674596393]",100.0,"[0.14237654078285045,0.08640727500734295]",100.0,"[-0.1227008843424857,0.12703739521923807]",100.0,"[0.02,0.02]",187.7926,0.0,23.0,23.0,25.0,1.0,,,,,,,
,,,,,,,676c33a837a28914650c4962,6842bbfbd8e6f71878035cde,2025-06-06_12h01.16.738,shape_ratio,2024.1.5,Win32,59.88023952,6842b561977af9ba9b0f87ca,,,,,,,,,,,187.7933,188.2927,,,188.5436,189.2765,left,,,,,,,,0.45,0.721,,,,,,,188.2927,188.5436,189.2766,"[0.06434182100292826,-0.13744230337382848]",4.0,"[0.10911986258109672,0.014197803269327118]",4.0,"[0.13022009541862764,0.11071258088930873]",100.0,"[-0.0971633610754197,-0.07365802384692158]",100.0,"[-0.12471560758228978,-0.025895565456798407]",4.0,"[-0.096471529039717,0.07360167365177263]",4.0,"[0.07317095217004632,-0.02450125053442465]",100.0,"[0.1633471197375929,0.01818537458134078]",4.0,"[0.05437583158913814,0.03188308540560993]",100.0,"[-0.05194540584919568,0.028623379185049792]",4.0,"[-0.07681263178350352,0.10908548162671115]",4.0,"[0.04174766833343436,-0.07913134646081235]",100.0,"[-0.10308031271008132,0.03284185196871263]",4.0,"[-0.18864428681790038,0.0170556224606118]",100.0,"[-0.013344761942962394,0.12357985129826565]",4.0,"[-0.03466773183976922,0.08159009555162514]",100.0,"[0.03459204791139647,0.17455998400980552]",4.0,"[0.13782730954438993,-0.1302997095256307]",4.0,"[-0.1167896423036918,-0.11579888061773799]",4.0,"[0.05632557354793158,0.13284752757967222]",4.0,"[0.008090888372989309,-0.12290676936189318]",100.0,"[-0.06315347567081084,0.1587522718727813]",100.0,"[-0.049382556570353654,-0.08776057774040327]",4.0,"[0.1783278637341077,-0.05772034810952835]",100.0,"[0.08241849634398515,-0.07061604212872452]",100.0,"[-0.155809756178365,-0.07156568404969889]",4.0,"[-0.006865402182041549,0.1635147563030103]",4.0,"[0.1776271010759412,0.08386318795382745]",4.0,"[-0.11946269916151094,0.12187412994946568]",100.0,"[-0.05507061527998825,-0.04338575855068682]",4.0,"[0.06019232366032945,0.07703287131344835]",100.0,"[0.19433991198439082,-0.019504813467392166]",100.0,"[0.02,0.02]",190.3761,0.0,24.0,24.0,141.0,1.0,,,,,,,
,,,,,,,676c33a837a28914650c4962,6842bbfbd8e6f71878035cde,2025-06-06_12h01.16.738,shape_ratio,2024.1.5,Win32,59.88023952,6842b561977af9ba9b0f87ca,,,,,,,,,,,190.3767,190.8759,,,191.1263,191.7929,left,,,,,,,,0.5,0.6548,,,,,,,190.8759,191.1262,191.793,"[-0.08442964033079882,-0.024269226477250966]",4.0,"[-0.008872347498367832,-0.07068194927041106]",4.0,"[0.047656494203859465,0.17684549815055636]",100.0,"[0.04837435477404233,0.01335107468951552]",4.0,"[-0.13706197547646629,0.03165687913479918]",100.0,"[-0.15709698742461167,-0.039455849589365426]",4.0,"[0.0851791652286713,-0.08078683400097769]",100.0,"[-0.09763426994166295,-0.13119444393183669]",100.0,"[0.06362510805987118,0.08583431016000674]",100.0,"[0.005370334829093077,-0.1198446471115981]",4.0,"[0.14737042269253414,-0.11604036951701806]",100.0,"[-0.07221337339566045,0.05261925046229905]",100.0,"[-0.013357572896502665,0.18252281162852152]",4.0,"[0.14156300043703768,-0.06903140707385669]",4.0,"[0.09858485560886694,0.03605616572555453]",4.0,"[-0.029462133138210268,0.048753750000210025]",100.0,"[-0.03404994993323058,-0.011647636614425763]",100.0,"[0.013692987395587726,0.08773286502455539]",100.0,"[-0.04669814950699379,0.15872742368205234]",100.0,"[0.09859008952646363,-0.01582255878000797]",4.0,"[-0.04875800583097847,0.11495069143304475]",100.0,"[-0.005000694444926861,-0.1651418047281234]",100.0,"[-0.1284156297633862,-0.10165773395421696]",4.0,"[0.06200668625734597,-0.1823361528293809]",100.0,"[-0.1786807430747123,0.0643737220784456]",4.0,"[-0.06787945731158589,-0.07264205814141411]",4.0,"[0.01108938873770968,0.039346617245787724]",100.0,"[0.045579174415356256,-0.03273403539275279]",100.0,"[-0.04534986530458054,-0.18098242552980373]",4.0,"[0.13694702055303207,0.09424773551409407]",4.0,"[0.0965664118470166,0.14605206695519085]",4.0,"[0.16162547481511527,-0.030825431345704767]",4.0,"[0.02,0.02]",192.8926,0.0,25.0,25.0,93.0,1.0,,,,,,,
,,,,,,,676c33a837a28914650c4962,6842bbfbd8e6f71878035cde,2025-06-06_12h01.16.738,shape_ratio,2024.1.5,Win32,59.88023952,6842b561977af9ba9b0f87ca,,,,,,,,,,,192.8931,193.3927,,,193.643,194.1761,left,,,,,,,,0.5,0.5171,,,,,,,193.3928,193.643,194.1762,"[-0.022347126105553356,-0.1424606539753049]",100.0,"[-0.05582854710653546,0.07238034961859596]",100.0,"[0.058606707900456065,-0.0913461250838483]",4.0,"[0.03611616762465535,-0.14871570795066769]",100.0,"[-0.1727691788182168,-0.014884786614531732]",4.0,"[0.036628290491970014,0.06596756857573179]",100.0,"[-0.11180450760742505,-0.1318577175101574]",4.0,"[0.07790488276362328,0.06559923700431486]",100.0,"[0.15422542056402724,0.05249848669945635]",4.0,"[0.012427800089547004,0.02763438289987422]",100.0,"[0.13321211811724903,-0.06324157377189397]",100.0,"[-0.030487192746422222,0.13075014614190794]",100.0,"[0.12011968777537582,0.10855245887469654]",4.0,"[-0.134907360165082,-0.04664490851248863]",4.0,"[0.056945214807753754,-0.00944952470531798]",100.0,"[-0.10713260735421512,0.11065145184059558]",100.0,"[-0.10093585024786797,0.043395400816355595]",4.0,"[0.09856915016612193,0.15448029951134043]",4.0,"[0.08774498661771493,-0.1622199474198956]",4.0,"[-0.09402622985862506,0.1684216319128029]",100.0,"[-0.023403643115841966,-0.013729879893822319]",4.0,"[-0.06635668475980128,0.0068558074378671455]",100.0,"[-0.1679854154700539,-0.08404267529396636]",4.0,"[-0.07306713490887058,-0.0544517929946805]",4.0,"[0.09504577110524819,-0.0459565641256603]",4.0,"[0.11323928879954893,0.019067614809505085]",100.0,"[0.030482976136032503,-0.05713136534078559]",4.0,"[0.050667937313003626,0.15719430853197]",4.0,"[0.0056355831045643645,0.09740408813865548]",100.0,"[-0.070518838558281,-0.1472639543759361]",100.0,"[-0.03788099189397535,-0.18000397981093028]",100.0,"[0.19117229588946483,0.03193311349602257]",4.0,"[0.02,0.02]",195.2759,0.0,26.0,26.0,116.0,1.0,,,,,,,
,,,,,,,676c33a837a28914650c4962,6842bbfbd8e6f71878035cde,2025-06-06_12h01.16.738,shape_ratio,2024.1.5,Win32,59.88023952,6842b561977af9ba9b0f87ca,,,,,,,,,,,195.2763,195.7757,,,196.0265,196.4094,left,,,,,,,,0.5,0.37,,,,,,,195.7758,196.0264,196.4095,"[-0.06812433125938498,0.17234590514338202]",100.0,"[0.0492521336559618,-0.07616321143894608]",100.0,"[-0.11007693816817016,0.139937015339934]",4.0,"[-0.006158965465743085,0.1254769735109622]",100.0,"[-0.19366756365872373,-0.012937807591500048]",100.0,"[-0.024641777724018828,-0.1742466656116316]",4.0,"[-0.04789775822243421,0.04495518210102169]",4.0,"[0.025127821480758743,0.09072821501543364]",100.0,"[0.07056639271563178,0.013533242722149329]",100.0,"[-0.1433011182876496,0.11640748317137146]",4.0,"[0.10381517910313917,0.1462355799280962]",4.0,"[-0.039443945274554415,-0.12370773654331318]",100.0,"[0.13391370629308696,-0.13722756068302502]",100.0,"[0.1653736306400127,0.07312851250305209]",4.0,"[0.007020140502839513,-0.01188631212569734]",4.0,"[-0.06109508000727632,-0.08767877610327919]",4.0,"[0.13983526363219587,-0.010053511690981475]",4.0,"[0.1441658407984752,0.031376425873343994]",100.0,"[-0.0025909841574464068,-0.09383965014787359]",4.0,"[-0.18423145964694856,-0.054359517452433004]",100.0,"[-0.12770004750496933,0.02448543556049454]",100.0,"[0.181724003148014,-0.011648978265408562]",4.0,"[-0.1287717223651741,-0.14450275329037973]",100.0,"[-0.16890443928662857,0.027775428964048932]",100.0,"[0.15949591027979362,-0.09330875026302617]",4.0,"[-0.06997480832274616,-0.003657850791448658]",4.0,"[0.13343022739376487,0.10890303829877887]",4.0,"[0.02423769477021779,0.0381950985463358]",100.0,"[-0.06219152973098949,0.11016124994164773]",4.0,"[0.11209997934210113,0.07301377970998643]",100.0,"[-0.02796617857824107,0.1932561498130747]",100.0,"[0.030227300933463295,-0.14042376188528793]",4.0,"[0.02,0.02]",197.5102,0.0,27.0,27.0,97.0,1.0,,,,,,,
,,,,,,,676c33a837a28914650c4962,6842bbfbd8e6f71878035cde,2025-06-06_12h01.16.738,shape_ratio,2024.1.5,Win32,59.88023952,6842b561977af9ba9b0f87ca,,,,,,,,,,,197.5108,198.0092,,,198.2596,198.6426,right,,,,,,,,0.55,0.3682,,,,,,,198.0092,198.2595,198.6426,"[0.1659668047487639,0.04467813423415797]",100.0,"[0.06448975628230612,0.08390182002815683]",4.0,"[0.18579327528016254,-0.03619142087901992]",4.0,"[-0.05230507443267757,-0.1292703776898128]",100.0,"[0.03462642901842238,-0.06597073969824582]",100.0,"[0.15242853762959574,0.09917589371064081]",100.0,"[-0.0848629055823163,0.028540223937309567]",4.0,"[-0.005273175186197526,0.07170973536849766]",100.0,"[0.06162835945295967,-0.12499187003492022]",100.0,"[-0.16533379870610765,0.07445057598850799]",100.0,"[0.1459973765436981,-0.04353541809762034]",4.0,"[0.12423761954891409,-0.004336536749827265]",4.0,"[0.18931182158748433,0.005713765774794005]",4.0,"[-0.06157568916453557,-0.07353697656994085]",4.0,"[0.06763236426769258,0.031207041628120345]",100.0,"[0.022739202967294828,0.19156736464996396]",4.0,"[-0.06701007845017025,-0.01789975648867234]",4.0,"[0.05017502773084908,0.13929109232393233]",4.0,"[0.08492746699176375,0.17559907598638907]",100.0,"[-0.15826983232824365,-0.11175883734989105]",100.0,"[-0.10727040144040313,0.10581869096091749]",4.0,"[-0.09523237702124612,-0.09759197463829028]",100.0,"[0.10176215065637996,-0.08395599081372283]",4.0,"[0.10654082552535467,-0.13131915610301292]",100.0,"[0.15311856699060564,-0.09072178867820384]",100.0,"[-0.011495128707250061,-0.052514091384839055]",100.0,"[-0.040744711190076104,0.04296325052550991]",100.0,"[-0.14926217006402503,-0.0576205526501591]",100.0,"[0.005230575654142355,-0.16640405836922398]",4.0,"[-0.03830774431672719,0.17291054222915972]",100.0,"[-0.1941597395267603,0.040694950563047484]",100.0,"[0.03243455306908337,0.00638290342829553]",4.0,"[0.02,0.02]",199.7424,0.0,28.0,28.0,81.0,1.0,,,,,,,
,,,,,,,676c33a837a28914650c4962,6842bbfbd8e6f71878035cde,2025-06-06_12h01.16.738,shape_ratio,2024.1.5,Win32,59.88023952,6842b561977af9ba9b0f87ca,,,,,,,,,,,199.7428,200.2424,,,200.4928,200.9462,right,,,,,,,,0.55,0.4454,,,,,,,200.2424,200.4927,200.9463,"[0.17455616694609943,0.0123921502690725]",100.0,"[-0.08240188317835019,-0.03782512846620808]",100.0,"[0.04112719764566049,0.18860739515460992]",4.0,"[-0.02689499836595736,-0.0780634938063078]",100.0,"[0.14074100048864857,-0.09247699771406914]",4.0,"[0.07281919665130623,0.055348705963415096]",100.0,"[-0.03196822290330221,0.029235594802908882]",100.0,"[0.07007861837228967,0.11182005206687348]",100.0,"[-0.05261149514561558,0.08318691067676967]",100.0,"[-0.12862223353479177,0.0046951587373306085]",4.0,"[0.08021624599711934,-0.04938216313008143]",4.0,"[0.1581709353992525,-0.04880610941912071]",100.0,"[0.04560225668950552,-0.07915464838112331]",100.0,"[-0.03970079260047789,-0.15683858338300524]",4.0,"[-0.09289542507544564,-0.11139435257836089]",4.0,"[0.04191010897829812,-0.003176947156937794]",100.0,"[0.05343828836831796,-0.12426280838094304]",4.0,"[-0.1884336737347648,-0.028217789488423056]",4.0,"[-0.12928937116677414,-0.08754036565664353]",100.0,"[0.08426101987980442,0.17229312357639603]",4.0,"[-0.09976977357908805,0.12225919334632365]",4.0,"[0.12403515130297389,0.06793063299604904]",100.0,"[0.023655135504862954,-0.1543477999485505]",100.0,"[0.10688639442331128,0.028702423958910216]",4.0,"[-0.002351469846164412,0.19652262348643434]",100.0,"[0.16431452406576058,0.1032404738057237]",100.0,"[-0.019056733927222798,0.13303216945908666]",100.0,"[0.09058599725225396,-0.17253242005474756]",4.0,"[-0.09426591689663,0.06730280831504015]",4.0,"[0.10541322621508778,-0.12247381820369639]",100.0,"[-0.009735913912247806,0.09220810513088787]",100.0,"[0.028171273321971134,0.05957388342156819]",4.0,"[0.02,0.02]",202.0412,0.0,29.0,29.0,89.0,1.0,,,,,,,
,,,,,,,676c33a837a28914650c4962,6842bbfbd8e6f71878035cde,2025-06-06_12h01.16.738,shape_ratio,2024.1.5,Win32,59.88023952,6842b561977af9ba9b0f87ca,,,,,,,,,,,202.042,202.5328,,,202.776,203.1426,right,,,,,,,,0.4,0.3507,,,,,,,202.5329,202.7759,203.1427,"[0.07767100872064829,0.18342180143216535]",4.0,"[0.07703628158496714,0.019162102910905768]",100.0,"[-0.010032325728035257,0.18406626373504958]",4.0,"[-0.022644936814844353,-0.1691457784989636]",100.0,"[-0.1551358575671683,-0.04027860172353094]",4.0,"[-0.10806145534828367,0.1328757436675457]",100.0,"[-0.018710977188013043,-0.03269745636268258]",4.0,"[-0.053304417332632505,0.004237157496294489]",4.0,"[0.02593495567196911,0.11022525427410333]",100.0,"[-0.02631606528800345,0.09304832309924348]",100.0,"[-0.01619956137571905,-0.0944145456695833]",4.0,"[-0.11780128543238325,0.003501342509234406]",4.0,"[0.08658311354691192,0.11051820675502518]",100.0,"[0.06189161722278417,-0.04901715655773857]",4.0,"[0.12593688324798852,-0.13037166660678942]",100.0,"[0.1048622303693575,-0.06580266153372798]",100.0,"[-0.06321516307510791,0.1229955326628741]",4.0,"[-0.09813498242037065,0.07388380919397378]",4.0,"[-0.12548743496770676,-0.10142294306514674]",100.0,"[-0.07524828225623419,-0.04366203976648028]",4.0,"[-0.1391238625339551,0.08461101625070606]",100.0,"[0.1382935199976912,0.017747743049144983]",100.0,"[0.014196915600313477,-0.007881000045236985]",4.0,"[-0.18448406710854667,0.023057239635163488]",100.0,"[0.17216676916021847,-0.08714325200418883]",4.0,"[-0.06925707718609193,-0.16899208980432215]",4.0,"[0.06154035624672862,-0.15102008093215302]",4.0,"[0.17090618336846103,-0.016934722714800687]",4.0,"[0.10521132205597096,0.05853745568026858]",4.0,"[0.009362416594451565,-0.13330209895572534]",4.0,"[0.048743947027471105,-0.0921719135558454]",4.0,"[0.03190225614631948,0.05685527585219646]",100.0,"[0.02,0.02]",204.2421,0.0,30.0,30.0,156.0,1.0,,,,,,,
,,,,,,,676c33a837a28914650c4962,6842bbfbd8e6f71878035cde,2025-06-06_12h01.16.738,shape_ratio,2024.1.5,Win32,59.88023952,6842b561977af9ba9b0f87ca,,,,,,,,,,,204.2425,204.7417,,,204.9925,205.4756,left,,,,,,,,0.1,0.4696,,,,,,,204.7418,204.9924,205.4757,"[0.11431520069720909,-0.012817640980346491]",4.0,"[-0.1445273576315153,-0.11453297234011266]",4.0,"[-0.03857141195682798,-0.07705609823989357]",4.0,"[0.12483991325918276,0.06722701845013665]",100.0,"[-0.004623077891608236,0.15852216025508034]",100.0,"[0.028008814799610707,0.014765264988106154]",4.0,"[0.0374487045936648,0.08142137520037318]",4.0,"[0.1325036149525579,-0.05001197826864901]",4.0,"[0.11672180029600379,-0.10805504991540618]",4.0,"[0.1696649798907689,0.05095484295665362]",4.0,"[-0.09892638610768792,-0.07683789471031352]",4.0,"[-0.04675259688860819,-0.16181657855190967]",4.0,"[0.07289873314774076,0.04092171854115883]",4.0,"[-0.010096986433010578,0.0641590670957696]",4.0,"[0.18650716840992515,-0.04405839396529312]",4.0,"[-0.04632673287304943,-0.01492935015605714]",4.0,"[-0.15217894250851935,0.12355268732594954]",4.0,"[-0.0731079937000791,0.10620398120181568]",4.0,"[-0.11256276476131072,0.07180024802183801]",4.0,"[0.08483709619443217,0.1131435064851415]",4.0,"[-0.13206226754844305,-0.04931453314049784]",4.0,"[-0.09255623921135764,0.14963412820038952]",4.0,"[0.01352711338916407,-0.10494980702596844]",4.0,"[0.13168161024472722,0.13651713679261143]",100.0,"[-0.06100329349416778,0.18922966369103575]",4.0,"[-0.10141577644426154,0.012694302388337802]",4.0,"[-0.1847004780704874,0.03447461723352379]",4.0,"[-0.1774125692757297,-0.09084903788028124]",4.0,"[0.06181845807685997,-0.09725414228704096]",4.0,"[0.18808958050553737,0.011399455208847529]",4.0,"[0.09317434500544064,0.16159748090023102]",4.0,"[0.16862751798075273,0.10147223911099464]",4.0,"[0.02,0.02]",206.5753,0.0,31.0,31.0,197.0,1.0,,,,,,,
,,,,,,,676c33a837a28914650c4962,6842bbfbd8e6f71878035cde,2025-06-06_12h01.16.738,shape_ratio,2024.1.5,Win32,59.88023952,6842b561977af9ba9b0f87ca,,,,,,,,,,,206.5758,207.0754,,,207.3268,207.8255,left,,,,,,,,0.45,0.4831,,,,,,,207.0755,207.3268,207.8256,"[-0.08036857337377633,-0.15063919288484384]",100.0,"[-0.1150986880311177,0.10740688819098827]",100.0,"[0.1478169827261309,0.05482794198174102]",100.0,"[0.0744036524570085,-0.10143386545519499]",100.0,"[-0.01278747282937075,0.00514353928153806]",100.0,"[-0.16190059402603305,0.06756233210374005]",100.0,"[0.0724162297393121,0.1652736151636624]",4.0,"[0.17259618712477345,0.0872830534293947]",4.0,"[-0.09092685305057374,0.16271325313526833]",100.0,"[0.026000257522676533,0.13821816025364095]",4.0,"[-0.09642440328584859,-0.0438740315112401]",100.0,"[-0.16008951408262004,-0.01408657021130949]",4.0,"[-0.00934211203978029,0.06812520280852381]",100.0,"[0.00951264076931014,-0.1736751598878755]",4.0,"[-0.09384548407610162,0.05780350100311863]",4.0,"[0.07066211850380512,-0.15038510406881622]",4.0,"[-0.07653548922709638,-0.11003214693895103]",100.0,"[0.12089734103515345,0.09404569031232528]",4.0,"[0.051441724418470995,0.04831150104759853]",4.0,"[-0.03190813915201859,-0.08203845741608375]",4.0,"[-0.16681994851774792,0.11021228084267164]",4.0,"[0.0797660163931675,0.12279939588192337]",4.0,"[0.19667798838102088,0.019035872572658364]",4.0,"[0.14288287186749893,-0.13127748954717008]",100.0,"[-0.06309284703441784,-0.1888234383202807]",4.0,"[0.18980099775393827,-0.03974606776399845]",100.0,"[0.14220341820373128,-0.03802906067940161]",4.0,"[0.08011835767709709,-0.04957425360371663]",100.0,"[0.016640151367403464,-0.09870303323399868]",4.0,"[0.12494220819049566,0.004239648058257973]",100.0,"[-0.0064592047970464675,0.167408825311192]",4.0,"[-0.020028674182396174,-0.034889451679649235]",4.0,"[0.02,0.02]",208.9253,0.0,32.0,32.0,142.0,1.0,,,,,,,
,,,,,,,676c33a837a28914650c4962,6842bbfbd8e6f71878035cde,2025-06-06_12h01.16.738,shape_ratio,2024.1.5,Win32,59.88023952,6842b561977af9ba9b0f87ca,,,,,,,,,,,208.9257,209.4253,,,209.6758,210.0921,left,,,,,,,,0.1,0.4007,,,,,,,209.4253,209.6757,210.0921,"[0.08371407609238753,-0.12738558792623475]",4.0,"[-0.06746874393131062,0.10547898931560509]",4.0,"[-0.020463930985562744,-0.0852172089230877]",4.0,"[-0.06276856220596663,0.05355874889252552]",4.0,"[0.11151442087712465,-0.020448651239111822]",4.0,"[-0.17822251771353195,0.0183633692354902]",4.0,"[0.0675611517358501,-0.06366833790309943]",4.0,"[-0.166490441957345,-0.09423902758287209]",4.0,"[-0.05487009750854843,0.161413779478973]",4.0,"[0.1555716230115522,-0.0011410182826684756]",4.0,"[-0.04650092181587795,-0.13423058314171413]",4.0,"[-0.006529655052587246,-0.01800365468430191]",4.0,"[-0.06926329487813129,-0.09256597783270966]",4.0,"[0.14185791323102132,-0.0980807021076131]",4.0,"[0.06932602317405115,0.13736991122086406]",100.0,"[-0.10722435589754133,0.12879908455416877]",4.0,"[0.042747611075366086,0.042818906586225815]",4.0,"[0.10860114940707194,-0.1639225605630994]",4.0,"[0.18351719897257535,-0.042522987974690195]",4.0,"[-0.08954270197289144,0.006241917131521035]",4.0,"[0.02403297722922938,-0.15555658708961986]",4.0,"[0.06460440568309384,-0.009280545474811771]",4.0,"[0.021381793874770023,0.1923919735014386]",4.0,"[-0.027546123602352146,0.13021463560018967]",4.0,"[0.0013154068968230209,0.08938856785750975]",100.0,"[-0.1884039999703865,-0.04554031517940633]",4.0,"[-0.10359653467124291,-0.13135439803739787]",100.0,"[0.15428139356224269,0.12244571252113028]",4.0,"[-0.06034119889160708,-0.051943625220568994]",4.0,"[-0.11660295864898401,0.044194355252509185]",4.0,"[-0.018432952315282886,-0.18802369096635724]",4.0,"[-0.15340192283089774,0.10692420330667364]",4.0,"[0.02,0.02]",211.1918,0.0,33.0,33.0,181.0,1.0,,,,,,,
,,,,,,,676c33a837a28914650c4962,6842bbfbd8e6f71878035cde,2025-06-06_12h01.16.738,shape_ratio,2024.1.5,Win32,59.88023952,6842b561977af9ba9b0f87ca,,,,,,,,,,,211.1923,211.6919,,,211.9424,212.3254,left,,,,,,,,0.45,0.3663,,,,,,,211.6919,211.9424,212.3254,"[0.09427322805710538,-0.17162692657576584]",100.0,"[0.02974750491589377,0.179851543787281]",100.0,"[0.04325445568649507,0.10206158401618878]",4.0,"[0.12016355199967833,0.1403068062282854]",100.0,"[-0.12351558997543675,-0.07153539337294446]",4.0,"[0.15554999876065503,0.06736515948940433]",100.0,"[-0.0866039468485999,-0.05456692111873896]",100.0,"[0.08870474518733736,0.030105792499153468]",4.0,"[-0.02724875457298231,0.03138762381913652]",4.0,"[0.09452714356003818,-0.08420270939856285]",100.0,"[0.14510779721392647,-0.09020208383632015]",100.0,"[0.007128783734575582,0.07771733483108274]",100.0,"[0.05057968385719759,-0.13421769404959943]",100.0,"[-0.1476459497607359,0.02645243527641085]",100.0,"[-0.1759829745640768,-0.03105251105734273]",100.0,"[-0.08812781845602406,-0.0051345881812296665]",4.0,"[0.14936061266639386,0.01815302697536521]",4.0,"[-0.06056795680468108,-0.12273727699419434]",4.0,"[0.007325711374606014,-0.19768427523884968]",4.0,"[-0.04652344183638188,-0.17668773869993804]",100.0,"[-0.08117634135196618,0.17034832735781547]",4.0,"[-0.015268891763055856,-0.08013624520758686]",4.0,"[-0.12289743177724778,0.08025766014064735]",4.0,"[-0.05563221895733019,0.12617043634646033]",4.0,"[-0.13882770718436863,-0.12255713774241539]",4.0,"[-0.01752435153319217,0.15571986678261826]",100.0,"[0.0378979458330903,-0.003280914935135758]",4.0,"[0.003474354979915909,-0.11800047478402872]",4.0,"[-0.07929162267290808,0.06913058071497678]",4.0,"[0.07334292533267445,-0.022150232463161026]",4.0,"[0.17812516143608415,-0.011839233229087894]",4.0,"[0.0295332419696778,-0.07511015923240057]",100.0,"[0.02,0.02]",213.4251,0.0,34.0,34.0,129.0,1.0,,,,,,,
,,,,,,,676c33a837a28914650c4962,6842bbfbd8e6f71878035cde,2025-06-06_12h01.16.738,shape_ratio,2024.1.5,Win32,59.88023952,6842b561977af9ba9b0f87ca,,,,,,,,,,,213.4257,213.925,,,214.1754,215.1586,left,,,,,,,,0.45,0.968,,,,,,,213.9251,214.1753,215.1587,"[-0.06766090523681553,0.06685193358741111]",4.0,"[0.04048591307039172,-0.12670414013764]",100.0,"[-0.07595095550650362,-0.0860687305719326]",4.0,"[-0.18639181918544662,-0.05052658485456512]",100.0,"[0.019789258145101376,0.19257345733596426]",4.0,"[0.03090582014678292,0.10697991465301346]",100.0,"[0.14666706671790422,0.09837899749251806]",100.0,"[-0.00570900343166231,-0.15699567648423698]",4.0,"[0.1219762727472949,-0.04557436775350675]",4.0,"[0.11371368285598712,0.1300657978492303]",4.0,"[0.058779146386759996,0.1495009179873756]",100.0,"[-0.1244023505494565,0.10151932518270707]",4.0,"[0.17061261673136405,0.030802343684474837]",100.0,"[-0.013535847983133353,-0.09153226565705296]",4.0,"[-0.17208890833199222,0.010671466110641072]",4.0,"[-0.15450146090317515,0.05448951942094708]",100.0,"[-0.03970440630840594,0.02110272564190864]",100.0,"[-0.024079430484412953,0.10255222906969033]",100.0,"[-0.04750544641034608,0.14369170790594932]",4.0,"[0.028758437438998308,-0.18082071585557158]",4.0,"[0.11091898864291916,-0.10929125604000663]",4.0,"[-0.011945395940737564,-0.019374418195106956]",4.0,"[-0.11567182201135469,-0.014686282331590068]",4.0,"[-0.12476023728820837,-0.10816817069615933]",4.0,"[0.07677436496109019,0.10256399024710348]",4.0,"[0.11786703432226484,-0.004053990173501203]",100.0,"[-0.07734349696251532,0.1801742363080553]",4.0,"[0.03718420067952747,-0.05069196558223514]",100.0,"[0.06509021706599653,0.04596750422064938]",100.0,"[0.0008783708927001641,0.13751122911060995]",100.0,"[0.1557814926570208,-0.08562188508337112]",4.0,"[0.00009487248986233007,0.03966155735166758]",100.0,"[0.02,0.02]",216.2598,0.0,35.0,35.0,149.0,1.0,,,,,,,
,,,,,,,676c33a837a28914650c4962,6842bbfbd8e6f71878035cde,2025-06-06_12h01.16.738,shape_ratio,2024.1.5,Win32,59.88023952,6842b561977af9ba9b0f87ca,,,,,,,,,,,216.2603,216.7583,,,217.0088,217.8917,left,,,,,,,,0.4,0.8677,,,,,,,216.7583,217.0087,217.8917,"[0.08196445562673611,-0.0391810927043059]",4.0,"[0.064101114691146,-0.15250521324634628]",4.0,"[0.06934025093291353,0.1142953165091206]",100.0,"[-0.08794115288604014,0.05484782781585057]",4.0,"[0.1108319472830141,0.14793964710760493]",4.0,"[-0.0636476526255354,0.09978532181035932]",4.0,"[-0.14751358090307715,-0.006230501287786991]",100.0,"[-0.045045488929288335,-0.043911650902771035]",4.0,"[-0.09909963581833932,-0.07795186177042038]",100.0,"[0.03716278483305439,-0.08116928471441964]",4.0,"[-0.1492767126251871,-0.12218012877271536]",100.0,"[-0.10239676576036873,-0.12297902954385279]",4.0,"[0.14996686634675585,-0.09479583144763642]",4.0,"[-0.0032094655917244918,0.06653956874760286]",4.0,"[0.153746302430556,0.1066274214629427]",4.0,"[-0.00467839007840185,-0.1666606148898859]",100.0,"[-0.1526966399468954,0.12405561059169082]",4.0,"[0.029442273264699285,-0.02914314906137022]",4.0,"[-0.12233066354802122,0.15344941757894573]",100.0,"[-0.1616128579673232,0.06331329895702885]",100.0,"[-0.07816170790623198,0.16568318772032148]",4.0,"[0.15570169829620648,-0.013031106413055922]",100.0,"[-0.032347262332066445,-0.13442176520875962]",4.0,"[0.049441401812252254,0.18791243672742725]",100.0,"[-0.19537302053601874,0.009676818182519642]",100.0,"[0.17976348256971653,0.055875950205191]",4.0,"[0.13279865665553703,0.0472956836691061]",4.0,"[-0.09228352503781424,-0.1654670787360972]",100.0,"[-0.024734496343964494,-0.002046749980924368]",100.0,"[0.042990666902079304,0.08210945857264125]",100.0,"[-0.004161233434094457,0.19893346003515935]",4.0,"[-0.17974590422814246,-0.05124334114074612]",4.0,"[0.02,0.02]",218.9917,0.0,36.0,36.0,164.0,1.0,,,,,,,
,,,,,,,676c33a837a28914650c4962,6842bbfbd8e6f71878035cde,2025-06-06_12h01.16.738,shape_ratio,2024.1.5,Win32,59.88023952,6842b561977af9ba9b0f87ca,,,,,,,,,,,218.9921,219.4913,,,219.7417,220.2916,left,,,,,,,,0.5,0.5341,,,,,,,219.4913,219.7417,220.2917,"[-0.0504240089558272,0.1433038155522424]",4.0,"[-0.019911861771943328,0.050283744971055644]",100.0,"[-0.1504247158502937,-0.03230305429921016]",100.0,"[0.04802966506281323,-0.16038938990246046]",4.0,"[-0.07935333856083938,0.0619069227389407]",100.0,"[0.1528609470186713,0.04715966714761128]",100.0,"[-0.09834467287918448,-0.12165777825436068]",4.0,"[0.09783077521316726,0.00007784277945682327]",100.0,"[-0.033304338710932996,-0.060144614446252964]",100.0,"[0.05616548271130505,-0.012716167797377595]",4.0,"[0.043858403979099236,0.05538380735845992]",4.0,"[0.14721567886637565,-0.07617194116846708]",100.0,"[0.1251606141983009,0.10785710227060041]",4.0,"[-0.15791154723583992,-0.08782777305740931]",100.0,"[0.06863453887094283,0.14142957666622796]",100.0,"[0.026941133828880356,-0.06262431976372336]",4.0,"[0.0008286964594283555,-0.16393787352141329]",100.0,"[0.056906250711576636,-0.08969475180117313]",100.0,"[-0.12028283797863001,0.03662490986480965]",4.0,"[-0.0059587733108940975,0.1390779878598068]",100.0,"[0.10719539003560746,-0.050964688665491725]",4.0,"[0.08771176439479475,0.09091971304036658]",4.0,"[0.1670588910077799,-0.03432738349529604]",100.0,"[0.11934238421420595,-0.12749407421648148]",100.0,"[-0.0848126229337878,-0.012991746367605491]",4.0,"[0.017001283447570133,-0.021154940903492847]",4.0,"[-0.18138041940874855,0.07299352586019862]",4.0,"[-0.19223677726699323,0.01348073056729239]",4.0,"[0.02739672423042466,0.16185987014073608]",100.0,"[-0.06465828263458341,-0.1772288245931959]",100.0,"[-0.10283580471978268,0.11883542632948993]",4.0,"[-0.07593426602054042,-0.07684618310599867]",4.0,"[0.02,0.02]",221.3914,0.0,37.0,37.0,119.0,1.0,,,,,,,
,,,,,,,676c33a837a28914650c4962,6842bbfbd8e6f71878035cde,2025-06-06_12h01.16.738,shape_ratio,2024.1.5,Win32,59.88023952,6842b561977af9ba9b0f87ca,,,,,,,,,,,221.3921,221.8914,,,222.1418,222.625,right,,,,,,,,0.9,0.4719,,,,,,,221.8914,222.1418,222.6251,"[-0.05498403528555956,-0.1217120426948701]",100.0,"[-0.19862103395158293,-0.013682055798661637]",100.0,"[0.05421158068279523,0.1303097780356677]",100.0,"[-0.15873764884870534,-0.10518649534476524]",100.0,"[-0.011964845154067533,0.16440805303226225]",100.0,"[-0.08858552441456745,0.037646502681462746]",100.0,"[0.16222167473976132,-0.04814411432607009]",100.0,"[0.019853833695963503,-0.10858636467160653]",100.0,"[0.12393262945734733,0.09314548416544995]",100.0,"[-0.1309584312800917,-0.04249399698862913]",4.0,"[0.03671622468839615,-0.14953111041845812]",100.0,"[0.16948084095469165,0.04752175663961025]",100.0,"[-0.05272756803861387,-0.069775494500232]",100.0,"[-0.17388315883639305,0.06944621462040883]",100.0,"[0.10111795084676489,0.044297928933479586]",4.0,"[-0.08681725406585311,0.10150655083600256]",100.0,"[0.17154047562439675,-0.00389147139528173]",100.0,"[0.08145210607249015,-0.052071178293244695]",100.0,"[-0.06467155322755248,0.1408083353005396]",100.0,"[0.11954022226604312,-0.07520741204063355]",100.0,"[0.1450715097205799,-0.119318996857437]",100.0,"[-0.1428080079253133,0.0401564622255021]",100.0,"[0.0651787580269393,-0.09350858198586508]",100.0,"[0.07454715303187771,-0.007248957045548608]",100.0,"[-0.0062791059577825175,0.08521852122782966]",100.0,"[-0.14843606717967606,0.10779511382286419]",4.0,"[-0.1021909072671356,-0.16176247165164512]",100.0,"[-0.02084913015996865,-0.04125846538684255]",100.0,"[0.1681298962079386,0.10521691586359308]",100.0,"[0.0531323374782141,0.17126733215990816]",100.0,"[0.07101352992272195,0.07734952152973597]",100.0,"[0.1267466709844261,0.14704118484037007]",100.0,"[0.02,0.02]",223.7247,0.0,38.0,38.0,14.0,1.0,,,,,,,
,,,,,,,676c33a837a28914650c4962,6842bbfbd8e6f71878035cde,2025-06-06_12h01.16.738,shape_ratio,2024.1.5,Win32,59.88023952,6842b561977af9ba9b0f87ca,,,,,,,,,,,223.7253,224.2246,,,224.4752,225.1732,right,,,,,,,,0.55,0.6816,,,,,,,224.2248,224.4751,225.1735,"[-0.00906612255193649,0.031092231973037336]",100.0,"[0.030007414247268657,0.18046434565528363]",100.0,"[-0.040041510648152964,-0.030305700660883065]",100.0,"[-0.09770139032883654,-0.05399514190162304]",4.0,"[-0.09830649940952656,0.06130657109699719]",4.0,"[0.10269457327025037,0.005319450509939489]",4.0,"[0.11046699302736585,-0.15042937379262902]",4.0,"[-0.15368850000485434,-0.12444055205920998]",4.0,"[0.1479805513142372,0.1190248420548215]",4.0,"[-0.09663549919024576,-0.12135218154262256]",100.0,"[-0.039152908830290135,0.11213689957020397]",100.0,"[0.008212105353347992,-0.10129412013996648]",100.0,"[-0.1104977651287586,0.12180650656376343]",4.0,"[0.04750721571654871,-0.16884877922756814]",100.0,"[-0.1430087122536541,-0.06823149996270783]",100.0,"[0.04258709162492406,0.050336374517198086]",100.0,"[-0.15208534477793997,0.015946124316229496]",100.0,"[0.12340411035947717,-0.06780797526603394]",100.0,"[0.15736326925111857,0.0026221370596186894]",4.0,"[0.0030594231683986227,0.0834429012395676]",100.0,"[-0.11505400157724935,-0.005122722807941235]",100.0,"[-0.024541527226402852,-0.16972701601247664]",4.0,"[-0.17765907714282028,0.05504001517580797]",100.0,"[0.03921134594218816,-0.040603305964831735]",100.0,"[0.07055461018234394,0.1426339257382301]",4.0,"[0.1214540149116966,0.040779370174866714]",4.0,"[0.13018869351774728,0.08195946045639674]",100.0,"[-0.06034921131500278,0.044248096927483306]",4.0,"[0.08633981417496248,0.07251536401198415]",100.0,"[0.019849295488459814,0.13130115046055926]",4.0,"[0.1995972789744051,0.008387819689398725]",100.0,"[0.05700039080609147,-0.09031959083937548]",4.0,"[0.02,0.02]",226.2729,0.0,39.0,39.0,85.0,1.0,,,,,,,
,,,,,,,676c33a837a28914650c4962,6842bbfbd8e6f71878035cde,2025-06-06_12h01.16.738,shape_ratio,2024.1.5,Win32,59.88023952,6842b561977af9ba9b0f87ca,,,,,,,,,,,226.2734,226.7733,,,227.0237,227.7235,right,,,,,,,,0.55,0.6867,,,,,,,226.7733,227.0236,227.7235,"[0.050969660441059404,0.16856943065331098]",100.0,"[0.1665212292235709,0.0076173190342001965]",4.0,"[-0.09409198044382648,0.03334119509002076]",4.0,"[0.04128165246237667,-0.08620032889111305]",4.0,"[0.0059422919692476055,0.1789515265938885]",4.0,"[-0.07729965309183652,0.1518757742462013]",100.0,"[-0.017492362462213473,0.09899688699402666]",100.0,"[0.13325496405410053,0.04108553506754772]",100.0,"[-0.05050066017056924,-0.05842809257904944]",100.0,"[-0.03430928924980693,0.18907869020796977]",4.0,"[-0.020280713840976527,-0.10481351382907446]",100.0,"[-0.036327621637604265,0.012722260549996955]",100.0,"[-0.15943965778694785,-0.014058058836719053]",4.0,"[0.054898280994387864,-0.12405368996900235]",100.0,"[0.09286704656012955,0.00020964378920999155]",4.0,"[-0.07762812961364986,0.09003469596860898]",4.0,"[-0.010628482183826915,-0.15933226862080344]",4.0,"[0.15826780995118722,-0.08364332680654794]",100.0,"[-0.03553172988885044,-0.1916132696459594]",100.0,"[-0.1521589556094223,-0.11801307114350545]",4.0,"[0.1736788360580321,0.08520804513264023]",100.0,"[0.07673448880018865,0.0760932555647949]",4.0,"[-0.15935990900355368,0.1072434519265588]",100.0,"[-0.08861099384750555,-0.17698195857743626]",100.0,"[0.108075087910391,-0.13828314532953856]",4.0,"[0.1273236085908596,0.1243302573141955]",4.0,"[-0.048127182385992846,0.0564215366749013]",100.0,"[0.04675882970607561,0.10608100289972489]",100.0,"[0.19222904844201427,-0.04937653729674179]",100.0,"[0.06403914070616465,-0.050341734533287594]",100.0,"[0.04025362387680211,0.02754056469701989]",100.0,"[-0.15853615714996694,0.05632101175581413]",4.0,"[0.02,0.02]",228.8231,0.0,40.0,40.0,69.0,1.0,,,,,,,
,,,,,,,676c33a837a28914650c4962,6842bbfbd8e6f71878035cde,2025-06-06_12h01.16.738,shape_ratio,2024.1.5,Win32,59.88023952,6842b561977af9ba9b0f87ca,,,,,,,,,,,228.8237,229.3232,,,229.5655,229.9404,right,,,,,,,,0.6,0.3538,,,,,,,229.3232,229.5654,229.9405,"[0.022739593143739776,0.04601308946206655]",4.0,"[0.028967315996834112,-0.1775511991785392]",100.0,"[-0.07212927501372664,-0.07743864241958842]",4.0,"[0.025143021926146758,-0.02325397065614721]",100.0,"[-0.15092501967007693,-0.029211855094107984]",100.0,"[0.12712205017679917,-0.15376290749862104]",4.0,"[0.1320112683435449,0.06474182641684251]",4.0,"[-0.010220414324531378,-0.18744832769199116]",100.0,"[-0.01325495288491482,0.1543581161433682]",4.0,"[-0.1550348686882359,0.06790468974033195]",100.0,"[0.13748246203779207,-0.03171528853525707]",100.0,"[0.04955908710679849,0.16749241394188935]",4.0,"[0.18535998333749892,0.014076310299130044]",100.0,"[0.07214601328825035,-0.09635717959629539]",4.0,"[0.13425725548334166,0.1323119243889924]",100.0,"[0.06879863345233461,0.08484513954612068]",100.0,"[-0.10650578565756337,0.11020278093471775]",100.0,"[0.1808870418143586,0.07192922775337415]",4.0,"[0.03353752287878495,0.12891163787846363]",100.0,"[-0.1631833887226984,-0.09076069900278123]",100.0,"[0.023406216240475015,-0.08517263407920553]",100.0,"[-0.09436548153727278,0.03659195321822184]",100.0,"[0.08746349472572101,-0.05598597160030289]",4.0,"[-0.06739734408504616,-0.18552168938647898]",100.0,"[0.19153112625897462,-0.02687198709401416]",100.0,"[0.13193801446295936,0.020573829993354196]",100.0,"[-0.03401651597962024,0.0019742609821322924]",4.0,"[-0.08216627892397026,0.16320871316747718]",4.0,"[-0.03182141812185407,0.08216159254414422]",100.0,"[0.07527574014557867,0.03286233816479611]",100.0,"[-0.011609996333640448,-0.14443270899924138]",4.0,"[-0.198738947640282,0.016586578682623067]",4.0,"[0.02,0.02]",231.0398,0.0,41.0,41.0,51.0,1.0,,,,,,,
,,,,,,,676c33a837a28914650c4962,6842bbfbd8e6f71878035cde,2025-06-06_12h01.16.738,shape_ratio,2024.1.5,Win32,59.88023952,6842b561977af9ba9b0f87ca,,,,,,,,,,,231.0407,231.5404,,,231.7817,232.2896,right,,,,,,,,0.5,0.4904,,,,,,,231.5405,231.7817,232.2897,"[-0.05107576185469801,-0.14129834872608002]",4.0,"[0.0284748465165174,-0.12923495271335675]",100.0,"[-0.04353046279131596,0.07548338407700651]",100.0,"[-0.09821452741160873,0.16478842073675104]",100.0,"[0.07648038492449674,-0.019738900744989924]",4.0,"[0.1695234350422592,0.08928256779206538]",100.0,"[0.04776495644598036,0.09130633596610493]",100.0,"[-0.11285844347685449,0.10293155057755984]",100.0,"[-0.16620897759647593,-0.06588077114808312]",100.0,"[-0.18358000373290564,0.003139894853895841]",4.0,"[-0.011465777686581616,-0.09366126764524983]",4.0,"[0.1795025058870101,0.005806017808121856]",4.0,"[0.16585511275788523,-0.09993662049594024]",100.0,"[0.10723199282384428,-0.05600043685962472]",4.0,"[0.007092578089852878,0.05584242744686255]",4.0,"[0.11495927443978357,0.1144347863317223]",100.0,"[-0.10415753330701359,-0.1396473515192723]",100.0,"[-0.004520659704412178,-0.0216695619328296]",4.0,"[-0.04564866312841884,0.01769062670768976]",4.0,"[0.031181270141530982,-0.08611958455833686]",100.0,"[-0.01477694645572797,-0.18119109428973104]",4.0,"[0.10427162037158737,0.030876426865302765]",4.0,"[0.09919250962556149,0.07401611431261333]",100.0,"[0.035520979295015256,0.009322305555845607]",4.0,"[-0.1389790577738477,-0.03442359233908099]",100.0,"[0.06831910479051184,-0.10859619002141752]",4.0,"[-0.1409879223258252,0.04755967374780457]",4.0,"[-0.08417712446186408,0.0563254609982144]",100.0,"[0.04284316118324547,0.1731299625031579]",100.0,"[0.18851581850415006,0.05369459347395021]",4.0,"[0.1851909030141141,-0.03613717563809565]",4.0,"[-0.06275381379281784,0.1868327363576624]",100.0,"[0.02,0.02]",233.3894,0.0,42.0,42.0,98.0,1.0,,,,,,,
,,,,,,,676c33a837a28914650c4962,6842bbfbd8e6f71878035cde,2025-06-06_12h01.16.738,shape_ratio,2024.1.5,Win32,59.88023952,6842b561977af9ba9b0f87ca,,,,,,,,,,,233.3902,233.8897,,,234.1315,235.0728,right,,,,,,,,0.5,0.9171,,,,,,,233.8897,234.1315,235.0729,"[0.09404696155370876,-0.1258070830637445]",4.0,"[-0.08214994003111614,-0.16274216910147793]",100.0,"[0.0684396418016859,0.08711461492132892]",100.0,"[-0.015499562676734444,0.11520308767733402]",100.0,"[-0.03108978537212724,0.16913506074204895]",4.0,"[0.038995096847146894,-0.08651489889050441]",100.0,"[0.07450096398505941,-0.04084978945728024]",100.0,"[-0.12936001080702053,0.07426381479896861]",100.0,"[0.01980936033887328,0.1961071068707456]",4.0,"[-0.11599232857148625,-0.02150978437578672]",4.0,"[0.03257540603158553,0.04561493132523026]",4.0,"[0.05155418398857626,-0.15612302649510698]",4.0,"[-0.18073013485707456,0.045619222934632164]",4.0,"[-0.034045980226646524,-0.0072516106339293685]",100.0,"[-0.04054006637539807,-0.14263696068164589]",100.0,"[0.11469014709250736,-0.014106548890724687]",100.0,"[0.009203601577991601,0.00916109586471188]",4.0,"[0.03994338657526605,-0.19528980580254823]",100.0,"[0.025853815164981364,0.1294920322496806]",4.0,"[-0.08711974116312261,0.040559429634794676]",100.0,"[0.11889390212900834,0.09139057583858337]",4.0,"[-0.09840135688525636,0.16651227510527547]",4.0,"[0.11081084825546242,0.1437956898242752]",100.0,"[0.14895655850782796,-0.12644618823906778]",4.0,"[-0.07626844344940782,-0.10230477531788267]",4.0,"[0.1748087429875546,0.019355984684474758]",100.0,"[-0.15724895654519017,0.10759292329488049]",100.0,"[-0.10603459706410019,-0.13006645381870807]",100.0,"[-0.12137216395069388,-0.07540254222350089]",100.0,"[0.1403347494590316,0.042733711197859736]",4.0,"[-0.15964332012765536,-0.02996867757040952]",4.0,"[0.16942811112627768,0.08510183396827098]",4.0,"[0.02,0.02]",236.1729,0.0,43.0,43.0,118.0,1.0,,,,,,,
,,,,,,,676c33a837a28914650c4962,6842bbfbd8e6f71878035cde,2025-06-06_12h01.16.738,shape_ratio,2024.1.5,Win32,59.88023952,6842b561977af9ba9b0f87ca,,,,,,,,,,,236.1737,236.673,,,236.9144,237.7572,left,,,,,,,,0.55,0.8214,,,,,,,236.6731,236.9143,237.7573,"[-0.052852675419233636,0.16710088048298358]",100.0,"[0.08786693128677839,0.17414618802983534]",100.0,"[-0.018160775924430415,-0.15421089665782897]",4.0,"[0.008986581685649416,0.014210043336866646]",4.0,"[0.14547944579491623,-0.10467076874972871]",100.0,"[0.05403533377155924,0.05120508248399037]",100.0,"[-0.11376889375203045,0.07501121165024434]",100.0,"[0.16219377898297807,0.026910656381394945]",100.0,"[-0.05655170213283718,-0.08927761666214146]",4.0,"[0.021243995340296456,-0.052149279297984255]",4.0,"[-0.0028821752067262267,0.14589716673529204]",4.0,"[0.1840566017214349,-0.07181272581579999]",4.0,"[0.024947813590870387,-0.17204390706604708]",100.0,"[0.07613370537207162,0.12873640031045563]",100.0,"[0.19645005057338538,-0.015217238080757303]",100.0,"[0.12937387928817393,0.1422668110474441]",100.0,"[-0.012167080934516945,0.0618991211307402]",4.0,"[0.13904795279929638,-0.0618370464704321]",4.0,"[0.07924491290144675,0.003926504695563372]",100.0,"[-0.13776148943018238,-0.02524593203996753]",100.0,"[-0.18141926320810714,0.009771762354201569]",4.0,"[-0.13252075473673236,-0.10534105303535679]",4.0,"[0.0754656726018692,-0.11815633549654862]",4.0,"[0.13385755304292052,-0.007273118489039762]",100.0,"[-0.10712349588514465,0.013515473654472882]",4.0,"[0.02820873409778718,-0.11937420470122274]",100.0,"[-0.06868143783639367,0.09805275971022988]",100.0,"[0.06311509705726083,-0.053276634822499426]",100.0,"[-0.050253068686449104,-0.02892646880207479]",100.0,"[-0.1741063882796499,-0.08692511411222023]",4.0,"[0.04209386790357439,0.1755660457868427]",4.0,"[-0.0622227912488194,0.02320621671931409]",100.0,"[0.02,0.02]",238.8573,0.0,44.0,44.0,64.0,1.0,,,,,,,
,,,,,,,676c33a837a28914650c4962,6842bbfbd8e6f71878035cde,2025-06-06_12h01.16.738,shape_ratio,2024.1.5,Win32,59.88023952,6842b561977af9ba9b0f87ca,,,,,,,,,,,238.8583,239.3642,,,239.608,240.1575,left,,,,,,,,0.1,0.5332,,,,,,,239.3643,239.608,240.1575,"[-0.13660954414571877,0.12520278561718276]",4.0,"[0.14514901025544374,0.05801701825240231]",4.0,"[-0.12296708745068047,-0.06192250994867372]",4.0,"[0.05439284400023794,-0.13104884599950714]",4.0,"[0.04273595252583197,0.13760552313857813]",4.0,"[-0.12131924484381745,0.010730034715822281]",4.0,"[0.015714481503982105,-0.1107431852106755]",4.0,"[-0.16298111137143154,0.09488958365068437]",4.0,"[-0.19636797802529526,0.025389128438129457]",4.0,"[-0.061996435345037786,-0.09059090513202855]",4.0,"[-0.02189627161759301,0.09650252485576344]",4.0,"[0.08721667347149492,0.06795122710820647]",4.0,"[-0.1333965496299156,0.06220931152658337]",4.0,"[-0.07365983277123526,-0.1724260741139002]",4.0,"[-0.043357301327579194,-0.04301338292898099]",4.0,"[0.12624021190270288,-0.13844974145842548]",4.0,"[0.05465881654923849,-0.009451725842335123]",4.0,"[0.11347864006639485,0.11629790641208106]",4.0,"[0.13845107695155545,-0.09784102014898033]",4.0,"[0.19402484225161376,-0.007245014144910848]",4.0,"[-0.034894976353372825,0.15311552763964167]",4.0,"[-0.006141326888122233,0.04457921160872946]",4.0,"[-0.05937909091119226,0.06563613794438625]",100.0,"[-0.09477787152595792,0.16836984920673845]",4.0,"[-0.026200222422247912,-0.12476236081855423]",4.0,"[0.004674165035788831,-0.1786327225113342]",4.0,"[-0.09654359693100908,-0.13698979721638785]",4.0,"[0.06487214312491929,0.17101762546971888]",4.0,"[0.1395771191940836,-0.05331191169118262]",100.0,"[0.016816823276934033,0.08243838181209992]",4.0,"[-0.008277787962456474,0.004537196708521623]",100.0,"[0.08203542790609683,0.026175781408612497]",4.0,"[0.02,0.02]",241.2572,0.0,45.0,45.0,207.0,1.0,,,,,,,
,,,,,,,676c33a837a28914650c4962,6842bbfbd8e6f71878035cde,2025-06-06_12h01.16.738,shape_ratio,2024.1.5,Win32,59.88023952,6842b561977af9ba9b0f87ca,,,,,,,,,,,241.2577,241.7567,,,242.0074,242.3241,left,,,,,,,,0.55,0.3018,,,,,,,241.7568,242.0073,242.3241,"[0.07175070283398882,-0.07096550533199043]",4.0,"[0.009227945262710755,0.09949030510950876]",100.0,"[-0.030214777558387484,-0.1940212821040469]",4.0,"[0.12005479980373546,0.1439531468497491]",100.0,"[0.0671492791949549,0.019643067874247494]",4.0,"[0.11746737388741815,0.04361303082714508]",100.0,"[-0.03213939541586463,0.18521017145239055]",4.0,"[0.11952593335778137,-0.024331888742102428]",4.0,"[-0.12640081432627942,-0.06986127881070327]",4.0,"[0.06476864491694397,0.1273269934183408]",100.0,"[-0.06335518403009655,0.02952298667858318]",4.0,"[-0.12069556061234847,0.015447158914230789]",4.0,"[0.09595455471665028,-0.16582231048695778]",100.0,"[-0.09174475421251685,0.17539644034761812]",4.0,"[-0.13516595110174126,0.07531907542802892]",100.0,"[-0.030086532530488295,-0.08062235581623597]",100.0,"[0.023265382669909344,-0.08568267336057919]",100.0,"[0.02365799043102478,0.14264263177049477]",4.0,"[0.19136994145072364,0.0031598788942660944]",100.0,"[-0.07624155289835843,-0.05871336567441474]",100.0,"[-0.18876031883625352,-0.024798028723054266]",100.0,"[-0.10642498693256572,-0.1450339110424212]",4.0,"[0.043702330608397025,-0.03388072533315377]",4.0,"[-0.1797011088631119,0.05343049812103388]",100.0,"[0.13827461359026566,-0.10360647500243475]",100.0,"[-0.09053654132289488,-0.10540646366303014]",100.0,"[-0.032058295230639286,-0.033303709413542895]",4.0,"[0.009068830245026242,-0.13774582961290904]",100.0,"[-0.0790355189396977,0.1373548669297548]",100.0,"[-0.04233486090883388,-0.12669799458638883]",4.0,"[-0.08231806085819626,0.0924772011809929]",100.0,"[0.1685848177529659,0.0890896370943277]",100.0,"[0.02,0.02]",243.4236,0.0,46.0,46.0,86.0,1.0,,,,,,,
,,,,,,,676c33a837a28914650c4962,6842bbfbd8e6f71878035cde,2025-06-06_12h01.16.738,shape_ratio,2024.1.5,Win32,59.88023952,6842b561977af9ba9b0f87ca,,,,,,,,,,,243.4244,243.9238,,,244.1741,244.4905,left,,,,,,,,0.6,0.3006,,,,,,,243.9238,244.1741,244.4906,"[-0.18227781255178968,0.04720271455273562]",100.0,"[0.18977369894591492,0.020463746206132102]",100.0,"[-0.09087188081673381,-0.025550586304815708]",100.0,"[-0.14355792736226747,0.028730937230367418]",4.0,"[-0.1502733158524522,0.12551470326812436]",4.0,"[0.05940793529342402,0.14779241458547354]",100.0,"[0.049005518961064864,-0.09439263956778768]",100.0,"[-0.018073010925155127,-0.03549354745871908]",100.0,"[0.10259309014452049,-0.015901139464294896]",100.0,"[0.014078099318289641,-0.11738720367229069]",4.0,"[-0.01853576695995049,0.17350508663471803]",100.0,"[0.048064578787830076,0.10290101378998763]",4.0,"[0.1479192327883442,-0.04358576527342632]",100.0,"[0.06518407406923507,0.015634031692715822]",4.0,"[0.11566383499937483,0.10724407910309029]",4.0,"[0.010768502056727395,0.12824055736135975]",4.0,"[-0.0899953665504485,-0.11927986227189008]",100.0,"[-0.05209875247953841,-0.07247048027380616]",4.0,"[-0.061965780000923704,0.04925309661934647]",100.0,"[-0.13101219861117314,-0.08713445516615904]",100.0,"[0.0045685585612915015,-0.1998050912405134]",100.0,"[0.015439265747907122,0.04862808355421899]",4.0,"[-0.13896475096641336,-0.016846591633802015]",100.0,"[-0.035128505838165854,0.014172086000292548]",100.0,"[-0.1090825228021422,0.05169685693573026]",100.0,"[0.10591298649065511,-0.07244010260623773]",4.0,"[0.11582707782559437,-0.11941995281467292]",100.0,"[0.04756080967421045,-0.1462650827641069]",4.0,"[0.11414145555972077,0.040146918988827836]",4.0,"[-0.1799574727259587,-0.07050907286945395]",100.0,"[0.005372506445421048,0.08755969449704963]",4.0,"[-0.10943281651598366,0.09853554057630338]",100.0,"[0.02,0.02]",245.5904,0.0,47.0,47.0,37.0,1.0,,,,,,,
,,,,,,,676c33a837a28914650c4962,6842bbfbd8e6f71878035cde,2025-06-06_12h01.16.738,shape_ratio,2024.1.5,Win32,59.88023952,6842b561977af9ba9b0f87ca,,,,,,,,,,,245.591,246.0903,,,246.3412,246.7073,right,,,,,,,,0.9,0.3516,,,,,,,246.0903,246.3411,246.7074,"[-0.10910060662636484,0.014898199930706471]",100.0,"[0.1293427135436083,0.12318747917356576]",100.0,"[0.019863649905024254,-0.10923089316259149]",100.0,"[-0.1145541432341098,0.1031134520749104]",100.0,"[0.1545760019374677,-0.02509614634966561]",100.0,"[0.04525777618891468,0.08357287284246286]",100.0,"[-0.005634945413324962,0.03379838084203044]",100.0,"[-0.02782196189057842,0.10039279899697763]",100.0,"[-0.06527367435393217,-0.047700832353273784]",100.0,"[-0.08570712090281772,0.16150382291160992]",100.0,"[-0.01967533254438598,-0.0743395721099798]",100.0,"[0.05855954865028478,0.17564755099768234]",100.0,"[0.10072141571224649,-0.04330034151594389]",100.0,"[0.09321773035299187,0.09550783338354703]",100.0,"[-0.14465740452580203,-0.11284545419580082]",100.0,"[0.1674490962474672,-0.06927521616786317]",100.0,"[0.051893743702285396,-0.04662022297657168]",100.0,"[0.0676931662887521,0.0005778667687260324]",100.0,"[0.16806627680036765,0.03736050926610326]",100.0,"[0.09161605955098491,-0.12383460879842248]",100.0,"[0.13214546844063638,-0.13634576774398605]",100.0,"[-0.0758659695962276,-0.1201454776422479]",100.0,"[0.02528715900825283,0.12733496684413997]",100.0,"[0.03756132123583339,-0.1876358993948522]",4.0,"[-0.010202022208473235,-0.1369191815874719]",100.0,"[0.06614812534561222,0.129429696564739]",100.0,"[0.010776333573680985,-0.03356236371211054]",100.0,"[-0.15584222824153526,0.07801496447156271]",100.0,"[-0.11289080118217691,-0.06840122488119718]",4.0,"[-0.16719347706421978,-0.0728977796221595]",4.0,"[-0.08805150472639825,-0.1790126260732041]",100.0,"[-0.04299385017485476,0.016656613284825563]",100.0,"[0.02,0.02]",247.8073,0.0,48.0,48.0,0.0,1.0,,,,,,,
,,,,,,,676c33a837a28914650c4962,6842bbfbd8e6f71878035cde,2025-06-06_12h01.16.738,shape_ratio,2024.1.5,Win32,59.88023952,6842b561977af9ba9b0f87ca,,,,,,,,,,,247.8078,248.3068,,,248.5572,248.8906,right,,,,,,,,0.6,0.3256,,,,,,,248.3069,248.5571,248.8907,"[-0.18900531108285795,0.03811270673776865]",4.0,"[0.16443433043375752,-0.007602000678700393]",100.0,"[0.14068047808558443,0.04740745730116569]",100.0,"[0.07305655661072522,-0.13690400493986427]",100.0,"[-0.09009452483622407,-0.028925485480270862]",4.0,"[-0.1579380352877694,0.011240647017803869]",4.0,"[-0.052324507225624255,-0.18002035912368625]",100.0,"[-0.09175108189265134,-0.07869109245719455]",100.0,"[-0.08079114886529887,0.12678941644308017]",100.0,"[-0.17255826212795974,-0.05010165547872238]",100.0,"[-0.11234756073563412,-0.12182248341046552]",4.0,"[-0.038482928561000954,-0.10635840837782803]",100.0,"[0.04905382537108845,-0.015610178827286178]",100.0,"[0.04789383778215522,0.08576187082663704]",100.0,"[-0.08243509318961992,0.17888329957355795]",4.0,"[-0.14039588163858338,0.05862967582923785]",100.0,"[0.017152193333282797,-0.13366768730837528]",100.0,"[0.1267443915497542,-0.0919633287874913]",100.0,"[0.08526551129581245,0.16667326663170984]",4.0,"[-0.059747573832029124,0.03706073871543624]",100.0,"[0.029331747593839986,0.17148717258593332]",4.0,"[0.11423052772615319,-0.039853198602585065]",4.0,"[0.06855379786986628,0.0280727130967365]",100.0,"[0.17351459523087925,0.09075369012000403]",4.0,"[-0.04426245602426217,-0.0081211116666224]",100.0,"[-0.050283373308384116,-0.06276308107752818]",4.0,"[-0.0036872966097623795,0.03433747211432045]",100.0,"[-0.06455139680959882,0.08044414041998976]",4.0,"[0.08724540660287756,0.09305371546409369]",100.0,"[0.06639935109319571,-0.05464466049317862]",4.0,"[-0.02635817583313689,0.09945851709939027]",4.0,"[0.18291279553391876,0.032623645054659485]",100.0,"[0.02,0.02]",249.991,0.0,49.0,49.0,47.0,1.0,,,,,,,
