right,left,explain.started,explain.stopped,key_resp_3.keys,key_resp_3.rt,key_resp_3.duration,participant,session,date,expName,psychopyVersion,OS,frameRate,study_id,explain_2.started,explain_2.stopped,key_resp_4.keys,key_resp_4.rt,key_resp_4.duration,explain_3.started,explain_3.stopped,key_resp_5.keys,key_resp_5.rt,key_resp_5.duration,fixation.started,fixation.stopped,practice.started,practice.stopped,response.started,response.stopped,key_resp.keys,feedback.started,feedback.stopped,trials_2.thisRepN,trials_2.thisTrialN,trials_2.thisN,trials_2.thisIndex,trials_2.ran,dot_ratio,key_resp.rt,key_resp.duration,explain_4.started,explain_4.stopped,key_resp_6.keys,key_resp_6.rt,key_resp_6.duration,dotDisplay.started,dotDisplay.stopped,ITI.started,polygon_1.pos,polygon_1.edges,polygon_2.pos,polygon_2.edges,polygon_3.pos,polygon_3.edges,polygon_4.pos,polygon_4.edges,polygon_5.pos,polygon_5.edges,polygon_6.pos,polygon_6.edges,polygon_7.pos,polygon_7.edges,polygon_8.pos,polygon_8.edges,polygon_9.pos,polygon_9.edges,polygon_10.pos,polygon_10.edges,polygon_11.pos,polygon_11.edges,polygon_12.pos,polygon_12.edges,polygon_13.pos,polygon_13.edges,polygon_14.pos,polygon_14.edges,polygon_15.pos,polygon_15.edges,polygon_16.pos,polygon_16.edges,polygon_17.pos,polygon_17.edges,polygon_18.pos,polygon_18.edges,polygon_19.pos,polygon_19.edges,polygon_20.pos,polygon_20.edges,polygon_21.pos,polygon_21.edges,polygon_22.pos,polygon_22.edges,polygon_23.pos,polygon_23.edges,polygon_24.pos,polygon_24.edges,polygon_25.pos,polygon_25.edges,polygon_26.pos,polygon_26.edges,polygon_27.pos,polygon_27.edges,polygon_28.pos,polygon_28.edges,polygon_29.pos,polygon_29.edges,polygon_30.pos,polygon_30.edges,polygon_31.pos,polygon_31.edges,polygon_32.pos,polygon_32.edges,dot_size,ITI.stopped,trials.thisRepN,trials.thisTrialN,trials.thisN,trials.thisIndex,trials.ran,break_2.started,break_2.stopped,trials_3.thisRepN,trials_3.thisTrialN,trials_3.thisN,trials_3.thisIndex,trials_3.ran
subject chose dot,subject chose diamond,0.0004,19.4893,space,4.4792,,6773ea482c488f0e35bd7b5c,6842bbd118fcc34cd77fab51,2025-06-06_10h58.52.797,shape_ratio,2024.1.5,Win32,59.52380952,6842b561977af9ba9b0f87ca,,,,,,,,,,,,,,,,,,,,,,,,,,,,,,,,,,,,,,,,,,,,,,,,,,,,,,,,,,,,,,,,,,,,,,,,,,,,,,,,,,,,,,,,,,,,,,,,,,,,,,,,,,,,,,,,,
,,,,,,,6773ea482c488f0e35bd7b5c,6842bbd118fcc34cd77fab51,2025-06-06_10h58.52.797,shape_ratio,2024.1.5,Win32,59.52380952,6842b561977af9ba9b0f87ca,19.4898,50.6215,space,1.1106,,,,,,,,,,,,,,,,,,,,,,,,,,,,,,,,,,,,,,,,,,,,,,,,,,,,,,,,,,,,,,,,,,,,,,,,,,,,,,,,,,,,,,,,,,,,,,,,,,,,,,,,,,,,,
,,,,,,,6773ea482c488f0e35bd7b5c,6842bbd118fcc34cd77fab51,2025-06-06_10h58.52.797,shape_ratio,2024.1.5,Win32,59.52380952,6842b561977af9ba9b0f87ca,,,,,,50.6216,54.2546,space,0.6039,,,,,,,,,,,,,,,,,,,,,,,,,,,,,,,,,,,,,,,,,,,,,,,,,,,,,,,,,,,,,,,,,,,,,,,,,,,,,,,,,,,,,,,,,,,,,,,,,,,,,,,,
,,,,,,,6773ea482c488f0e35bd7b5c,6842bbd118fcc34cd77fab51,2025-06-06_10h58.52.797,shape_ratio,2024.1.5,Win32,59.52380952,6842b561977af9ba9b0f87ca,,,,,,,,,,,54.2651,54.7544,54.7549,55.0049,55.005,56.5047,,56.5049,57.6047,0.0,0.0,0.0,1.0,1.0,0.8,,,,,,,,,,,,,,,,,,,,,,,,,,,,,,,,,,,,,,,,,,,,,,,,,,,,,,,,,,,,,,,,,,,,,,,,,,,,,,,,,,,,,,,,
,,,,,,,6773ea482c488f0e35bd7b5c,6842bbd118fcc34cd77fab51,2025-06-06_10h58.52.797,shape_ratio,2024.1.5,Win32,59.52380952,6842b561977af9ba9b0f87ca,,,,,,,,,,,57.6053,58.1043,58.1044,58.3545,58.3546,59.3378,left,59.3378,60.4375,0.0,1.0,1.0,0.0,1.0,0.2,0.9662,,,,,,,,,,,,,,,,,,,,,,,,,,,,,,,,,,,,,,,,,,,,,,,,,,,,,,,,,,,,,,,,,,,,,,,,,,,,,,,,,,,,,,,
,,,,,,,6773ea482c488f0e35bd7b5c,6842bbd118fcc34cd77fab51,2025-06-06_10h58.52.797,shape_ratio,2024.1.5,Win32,59.52380952,6842b561977af9ba9b0f87ca,,,,,,,,,,,,,,,,,,,,,,,,,,,,60.4378,65.8545,space,2.387,,,,,,,,,,,,,,,,,,,,,,,,,,,,,,,,,,,,,,,,,,,,,,,,,,,,,,,,,,,,,,,,,,,,,,,,,,,,,,,,,,
,,,,,,,6773ea482c488f0e35bd7b5c,6842bbd118fcc34cd77fab51,2025-06-06_10h58.52.797,shape_ratio,2024.1.5,Win32,59.52380952,6842b561977af9ba9b0f87ca,,,,,,,,,,,65.8641,66.3542,,,66.6046,67.4876,right,,,,,,,,0.9,0.8664,,,,,,,66.3548,66.6045,67.4882,"[0.12806015173075805,0.017875229366425282]",100.0,"[-0.014220428292731803,-0.02333879014119763]",100.0,"[0.07286543477058378,0.03536859389237439]",100.0,"[0.07875622671659821,-0.04774554066353382]",100.0,"[-0.11491840397389423,0.1620802426753238]",100.0,"[-0.10296204000907971,-0.15194770405342128]",100.0,"[0.07117521921206266,0.15499179197909732]",100.0,"[0.15081558756348692,0.10129599445221918]",100.0,"[-0.01399391072706306,0.08317822751705932]",100.0,"[-0.1930873338494229,-0.026502278875622863]",100.0,"[-0.1477695402713607,0.12894043574125547]",100.0,"[0.021964754800931473,-0.10097705826412576]",100.0,"[-0.02800733626465657,-0.1896326660116648]",100.0,"[-0.050768164544254764,0.019629506132138937]",100.0,"[-0.18485821582155032,-0.07268401809637619]",100.0,"[-0.060572020799094246,-0.07858879011962358]",100.0,"[0.030473595973882505,0.10267088441690565]",4.0,"[-0.14047490501337778,0.005536450698010215]",100.0,"[-0.15931767331574873,0.04920678296420425]",100.0,"[-0.03734275942077805,0.12144569831087453]",100.0,"[0.06138655653769453,-0.17105103262049687]",4.0,"[0.1076655840169247,0.0901384533481698]",100.0,"[0.10172591107239833,-0.16275132029358566]",100.0,"[-0.055063541135860275,-0.15389416309344717]",100.0,"[0.13248570075706595,-0.06613760415680994]",4.0,"[-0.07568281418766686,0.06560457461118982]",100.0,"[-0.13112156551471543,-0.10203112428492722]",100.0,"[-0.10805767682458858,-0.053601939134749]",100.0,"[0.013283600516953478,0.032912540132738144]",100.0,"[-0.11255079085105817,0.10199058279876497]",100.0,"[-0.047894561971759016,0.19382028428110595]",100.0,"[0.19522757232959564,-0.042485656869491]",100.0,"[0.02,0.02]",68.5881,0.0,0.0,0.0,9.0,1.0,,,,,,,
,,,,,,,6773ea482c488f0e35bd7b5c,6842bbd118fcc34cd77fab51,2025-06-06_10h58.52.797,shape_ratio,2024.1.5,Win32,59.52380952,6842b561977af9ba9b0f87ca,,,,,,,,,,,68.5887,69.0874,,,69.3382,70.1043,left,,,,,,,,0.45,0.7493,,,,,,,69.0874,69.338,70.1044,"[-0.005396988159893245,-0.14396155325273294]",4.0,"[0.09215451718625549,-0.13195989752250648]",100.0,"[0.1342327512033091,-0.037121518366717]",100.0,"[0.08816014412404963,0.02079320966926663]",100.0,"[0.12730037200235683,0.12821807141618616]",100.0,"[-0.13121477960028285,-0.0049858516390957975]",100.0,"[0.18123786161153072,-0.06368901369842969]",4.0,"[-0.06566390127273683,-0.14825855322775341]",4.0,"[-0.19342800556238104,-0.003196603907407572]",4.0,"[-0.01169287046354447,-0.05700304734350775]",100.0,"[-0.06636096961586281,0.1495962397644982]",4.0,"[-0.12348857235085099,-0.1112222836820935]",4.0,"[0.0663162377144303,-0.16420308645038448]",100.0,"[0.1635035687424549,0.07980517327568477]",100.0,"[0.08488402858615572,0.06284063754416744]",4.0,"[0.143162893297976,0.02973558752855094]",4.0,"[0.0791982063792081,0.1598875595737236]",100.0,"[-0.18880331848183346,0.058175045174843544]",4.0,"[-0.1285286888181499,0.05171199148630759]",4.0,"[-0.014944625777848811,0.004041166907492806]",100.0,"[0.19712506954610878,-0.010595108363656859]",100.0,"[-0.04877735237704042,0.03273996392461742]",100.0,"[0.04909993454521921,-0.008792914725893235]",100.0,"[-0.03522522595451637,-0.11668125263581208]",4.0,"[0.02825175234888762,-0.1778409471179886]",4.0,"[-0.038203807708295325,-0.19258998013319428]",100.0,"[-0.07910802979913503,0.08689338020207603]",4.0,"[-0.005455621792658723,0.18956365644258558]",4.0,"[-0.01728818831710595,0.061837375773607824]",4.0,"[0.02566482920311679,-0.08493738360899092]",4.0,"[-0.13550700590029077,0.13809179751935405]",4.0,"[-0.1332668194012747,-0.05274583273030832]",4.0,"[0.02,0.02]",71.2041,0.0,1.0,1.0,138.0,1.0,,,,,,,
,,,,,,,6773ea482c488f0e35bd7b5c,6842bbd118fcc34cd77fab51,2025-06-06_10h58.52.797,shape_ratio,2024.1.5,Win32,59.52380952,6842b561977af9ba9b0f87ca,,,,,,,,,,,71.2048,71.7041,,,71.9549,72.8376,right,,,,,,,,0.5,0.8687,,,,,,,71.7043,71.9547,72.8377,"[0.08736367966018446,-0.08845118005693291]",100.0,"[0.0053626632175870735,-0.03003947352119762]",100.0,"[-0.00948033067289089,-0.0795530019648043]",4.0,"[-0.12902234667951365,0.037517354929702096]",100.0,"[-0.07469620223405948,-0.03520338293811402]",4.0,"[-0.17825149048546543,0.044685540506789835]",100.0,"[-0.16055562813686464,0.09570828194498028]",4.0,"[-0.04025725626480651,-0.1727286932615732]",4.0,"[0.16562438585580014,0.06342968435382361]",4.0,"[-0.1007620326617104,-0.12572648905777406]",4.0,"[0.16347974652204492,-0.08305273694125366]",100.0,"[-0.13924083734552115,-0.11356798144577769]",100.0,"[0.08891084467870132,0.0710393800839755]",100.0,"[-0.11252136408286456,-0.0009591128480454905]",4.0,"[0.12186082647774249,0.11411110599731339]",4.0,"[0.10435229008183011,0.004240858210268996]",100.0,"[0.03079410677684628,-0.09748384516131652]",100.0,"[0.05068996890080911,0.02755187685288224]",100.0,"[0.1367529271359528,-0.03948363222838843]",4.0,"[-0.057784270350217125,0.04738621448457378]",4.0,"[0.06561299522744407,-0.04941141233274116]",4.0,"[0.05607695942425245,-0.15064923421184748]",4.0,"[-0.027566250132314455,0.1435573729447384]",100.0,"[0.056358730996897394,0.12347954072068329]",100.0,"[0.00622391179665796,0.06929432406902994]",4.0,"[-0.000672230696834674,-0.13873306378387482]",4.0,"[0.1974488693539887,-0.0095144146841688]",4.0,"[-0.10567318187347986,0.08034872396637498]",100.0,"[-0.17435478731654852,-0.07337985051552225]",100.0,"[-0.11433845478430284,-0.07340243529719716]",100.0,"[-0.11454591635183789,0.12369906058742822]",4.0,"[-0.1619894916305972,-0.031371322799833186]",100.0,"[0.02,0.02]",73.9376,0.0,2.0,2.0,110.0,1.0,,,,,,,
,,,,,,,6773ea482c488f0e35bd7b5c,6842bbd118fcc34cd77fab51,2025-06-06_10h58.52.797,shape_ratio,2024.1.5,Win32,59.52380952,6842b561977af9ba9b0f87ca,,,,,,,,,,,73.9381,74.4376,,,74.6877,75.5211,right,,,,,,,,0.6,0.8248,,,,,,,74.4377,74.6877,75.5211,"[-0.07203127716654337,-0.13996806726998215]",100.0,"[0.04968356880191541,0.060898876356572026]",4.0,"[-0.18555206372322902,0.005954252337801994]",100.0,"[-0.05200934486842087,-0.0791176522365899]",4.0,"[-0.04777589849278104,-0.00707924672040015]",4.0,"[0.10125829454419745,0.09621146152486902]",4.0,"[0.12102726069366694,-0.12820035504935823]",4.0,"[-0.005415742658932136,0.10527903964179433]",100.0,"[0.07288569162227776,0.16845355979642088]",100.0,"[-0.00423874388192762,-0.013271534888484425]",100.0,"[-0.176971088326122,0.07359636255768384]",100.0,"[-0.118456647510192,-0.1553580269359089]",100.0,"[0.005525660064231066,0.17743951678333636]",100.0,"[-0.1490159904977244,-0.08546521136011728]",100.0,"[-0.014609443571213966,-0.05817020582193399]",100.0,"[-0.03932582087172696,0.1930818982860709]",100.0,"[-0.03175854591948149,0.06760383338300677]",4.0,"[0.053815015587447085,-0.1379154007940619]",100.0,"[-0.17662754289295624,-0.033679162122555485]",100.0,"[0.0423068171256854,-0.04712518922276911]",100.0,"[0.14285970192004838,0.11408560930787581]",100.0,"[-0.13402305391743596,-0.02754501528135422]",100.0,"[0.08747508608673595,0.02146450310189711]",4.0,"[-0.13704111629243054,0.12236210770574163]",100.0,"[-0.005946612504121293,-0.17556403244102994]",4.0,"[0.04192992385412764,0.011261482976341166]",4.0,"[-0.10555901473496788,-0.0846285537594779]",4.0,"[0.14538185117137897,-0.09128650351529924]",100.0,"[0.15138933540521335,0.05274562701097069]",4.0,"[-0.08284201620072626,0.11622040178339636]",4.0,"[0.1752681434082367,-0.013260272083087861]",4.0,"[0.12353765066563328,-0.0309680944998665]",100.0,"[0.02,0.02]",76.6208,0.0,3.0,3.0,40.0,1.0,,,,,,,
,,,,,,,6773ea482c488f0e35bd7b5c,6842bbd118fcc34cd77fab51,2025-06-06_10h58.52.797,shape_ratio,2024.1.5,Win32,59.52380952,6842b561977af9ba9b0f87ca,,,,,,,,,,,76.6213,77.1208,,,77.3714,77.9709,right,,,,,,,,0.6,0.5884,,,,,,,77.1209,77.3714,77.9711,"[0.0017406518895784692,-0.15385964964997964]",100.0,"[0.12523516855979389,0.058710575862102536]",4.0,"[-0.09637401749544983,0.018560826321611847]",100.0,"[0.06931003437460431,-0.15433179415489343]",4.0,"[0.12775120961572797,0.10151987943892885]",100.0,"[-0.040245627907986525,-0.15163870005984562]",100.0,"[-0.04097785904151982,-0.08658471184870736]",100.0,"[0.091451351740381,-0.00009943193100541201]",100.0,"[-0.029062271034382744,0.06678995700408379]",100.0,"[0.041274371397393844,0.11231837682393861]",100.0,"[-0.13025413795477317,-0.06831897548340972]",100.0,"[0.11012908417299862,-0.09413028158009064]",100.0,"[0.05450519570293996,0.03672642071868625]",4.0,"[-0.013776337485822706,0.12913788862211908]",100.0,"[0.09058160098212571,0.12560964602689695]",4.0,"[-0.14852878025413546,0.06387742690954544]",4.0,"[0.02238737802632034,-0.03610816668754595]",100.0,"[-0.031239765497958705,0.0036698116214061867]",4.0,"[0.10946081598795301,0.16644080857491741]",100.0,"[0.10348504348002188,-0.041643797367674026]",100.0,"[-0.07097642470313698,0.1727098338777452]",4.0,"[-0.19423613405080628,0.03068702029315168]",100.0,"[0.07243952148872193,0.08349936781834]",100.0,"[0.1855747464489432,0.0578184952850882]",100.0,"[-0.058391757455643074,0.10652504824083468]",4.0,"[-0.10863998068792843,0.12173179301161262]",4.0,"[0.019536492296828252,0.060725026000691684]",100.0,"[0.1806169642556795,-0.037385882600547295]",4.0,"[-0.09505912111590979,-0.17204757767257808]",4.0,"[-0.10571363941943464,-0.024954027952096072]",4.0,"[0.1535927755235852,0.0033699535200578117]",4.0,"[0.03534310011348743,0.1520931394579189]",100.0,"[0.02,0.02]",79.0708,0.0,4.0,4.0,47.0,1.0,,,,,,,
,,,,,,,6773ea482c488f0e35bd7b5c,6842bbd118fcc34cd77fab51,2025-06-06_10h58.52.797,shape_ratio,2024.1.5,Win32,59.52380952,6842b561977af9ba9b0f87ca,,,,,,,,,,,79.0711,79.5709,,,79.8215,80.738,left,,,,,,,,0.45,0.8996,,,,,,,79.571,79.8214,80.7382,"[0.02094438975530964,-0.043267735526106875]",100.0,"[-0.008284877937484043,-0.0044890950909588605]",4.0,"[0.12356686123591223,0.0751721974506445]",100.0,"[0.07482323415718325,0.031991160953437625]",4.0,"[0.09525531081661665,-0.14742710253120628]",4.0,"[-0.010311113853944974,-0.06950114867994707]",4.0,"[0.12170919120611232,0.1323687519387538]",100.0,"[0.02944639053500377,-0.18309969086614136]",4.0,"[-0.180101389937577,-0.04955530059898543]",4.0,"[0.0695102679849617,-0.04477607278724638]",100.0,"[-0.10308824886907797,0.1375739543519287]",4.0,"[-0.16183705956820477,0.004908533288975069]",100.0,"[0.007038215248907964,0.05771047499043309]",4.0,"[-0.055364325704119734,-0.11845392034600276]",4.0,"[0.14958807018455547,-0.10689915112330588]",4.0,"[0.03475713650657214,0.0038952393161401327]",4.0,"[-0.0568964325294353,-0.013558964083419105]",100.0,"[-0.06225060810173375,0.044973102304184075]",4.0,"[0.0525406721976643,-0.08298198763987077]",100.0,"[-0.18631045936253074,0.03960635480004197]",100.0,"[-0.09572053759950354,0.09662690511560264]",4.0,"[-0.1302116257452468,0.06412392692806734]",100.0,"[-0.16944724022210428,0.1009263817851055]",4.0,"[0.0418961090136558,0.09393211714492739]",4.0,"[0.15948414719477785,-0.019422383734447816]",100.0,"[0.002961113887849058,0.15501932603452406]",100.0,"[0.04262476068375189,0.14238636266541269]",100.0,"[-0.11106635425045136,-0.15929051348665657]",4.0,"[-0.10740985101378052,-0.11188079181545615]",4.0,"[-0.12266462245017917,-0.029307846877617862]",100.0,"[-0.06572385194090323,-0.05886594964905015]",100.0,"[-0.04527683789730515,0.11405163723766243]",4.0,"[0.02,0.02]",81.8376,0.0,5.0,5.0,149.0,1.0,,,,,,,
,,,,,,,6773ea482c488f0e35bd7b5c,6842bbd118fcc34cd77fab51,2025-06-06_10h58.52.797,shape_ratio,2024.1.5,Win32,59.52380952,6842b561977af9ba9b0f87ca,,,,,,,,,,,81.8378,82.3375,,,82.5878,83.4375,left,,,,,,,,0.6,0.8419,,,,,,,82.3375,82.5878,83.4376,"[0.04084393018775227,-0.14643866705065312]",4.0,"[0.07451154249750412,0.11116161379822374]",4.0,"[0.06182568658845453,-0.09274719212762098]",100.0,"[0.13937176858714187,-0.006925031294093493]",4.0,"[-0.15104642885352812,-0.12356437627030774]",100.0,"[-0.13000683809578778,-0.024171972248748914]",100.0,"[0.120019385499555,0.03795757186879312]",100.0,"[-0.062205776265796445,-0.17221792558139593]",4.0,"[-0.008526859251669225,0.17195734041361166]",100.0,"[-0.09129801073254061,0.03230248194570543]",100.0,"[0.07176915149276879,-0.17487385542545653]",4.0,"[-0.02161843567867765,-0.19851329452872424]",100.0,"[-0.018441226951878335,0.054293872105609556]",4.0,"[0.10948865001965465,-0.12005235392198345]",100.0,"[-0.08394356093743674,0.08011856000125664]",100.0,"[0.19483675505571804,0.033060669931957755]",4.0,"[-0.0462363287130355,-0.007052643328201677]",4.0,"[0.08096632718048798,0.0472318784620336]",4.0,"[-0.05688858465277915,0.18491986795885082]",100.0,"[0.09363010596362428,-0.03480425145451946]",100.0,"[0.009010154063758529,-0.08966194505273134]",4.0,"[0.1794913090921199,-0.005960374249471207]",100.0,"[0.05469459573429658,-0.016385218806681395]",100.0,"[-0.18537286629506924,-0.0539894598291284]",100.0,"[-0.14604205912999796,0.10622545304031975]",4.0,"[0.12653458678806176,0.09732521683297733]",100.0,"[0.013169026024595082,0.10796947995006517]",100.0,"[-0.09148450026961263,0.16084655318348665]",100.0,"[0.16398790629341894,0.0708529968377235]",4.0,"[-0.16267391215019428,0.04988629765493921]",4.0,"[-0.18374664926387557,-0.0003495186472029445]",100.0,"[0.034080464108981266,0.1639201147111687]",100.0,"[0.02,0.02]",84.5375,0.0,6.0,6.0,55.0,1.0,,,,,,,
,,,,,,,6773ea482c488f0e35bd7b5c,6842bbd118fcc34cd77fab51,2025-06-06_10h58.52.797,shape_ratio,2024.1.5,Win32,59.52380952,6842b561977af9ba9b0f87ca,,,,,,,,,,,84.5377,85.0375,,,85.2875,86.2041,left,,,,,,,,0.6,0.9018,,,,,,,85.0375,85.2874,86.2041,"[0.1480318087972259,-0.03842209623970411]",4.0,"[-0.03950372646096598,-0.1562258876074614]",4.0,"[-0.07638383014412799,0.16593006240587796]",4.0,"[0.10496221129714314,0.09341865017335774]",4.0,"[0.03940842228715876,0.11997163392612262]",100.0,"[-0.18947845605655822,0.03620115542275424]",100.0,"[0.033518269167378455,-0.12961757092805787]",100.0,"[-0.05835288284383711,-0.08621723086588318]",100.0,"[-0.16807291619717288,-0.044954674897300755]",100.0,"[-0.09338049838305777,-0.004972923389511941]",100.0,"[0.059942435741203726,0.042088247969784644]",100.0,"[0.1704790681009645,0.06567593188764101]",4.0,"[0.08925022083735017,-0.14573813143293338]",100.0,"[0.19402032940002012,0.03149765170922675]",4.0,"[-0.05296215222652803,0.04867563431791894]",4.0,"[0.09034451080046561,0.0018093181482272155]",100.0,"[0.10600997948589581,-0.10601914040953386]",4.0,"[0.028273020791883163,0.19592358228172582]",100.0,"[-0.11138683428256642,0.13011687313332543]",4.0,"[-0.008210525123359711,0.05310726886639137]",100.0,"[-0.14302084033590612,0.03343355858411022]",4.0,"[-0.16015068369253077,-0.08819267943323217]",100.0,"[0.107641141197185,0.15163761379299326]",100.0,"[0.008564239272474758,0.09059192448156883]",4.0,"[0.06392136981763688,-0.10214022564939718]",4.0,"[0.09996172731044742,0.043445215597678]",100.0,"[0.008050042859347838,0.00925976351571059]",100.0,"[-0.12017091805395744,-0.12098015418815898]",100.0,"[-0.03168004807762936,0.15978614312196013]",100.0,"[-0.15936773674277194,-0.005727193269167303]",100.0,"[-0.11692958911027049,-0.04662014917619439]",4.0,"[0.021599221579475976,-0.18872011183861467]",100.0,"[0.02,0.02]",87.3047,0.0,7.0,7.0,58.0,1.0,,,,,,,
,,,,,,,6773ea482c488f0e35bd7b5c,6842bbd118fcc34cd77fab51,2025-06-06_10h58.52.797,shape_ratio,2024.1.5,Win32,59.52380952,6842b561977af9ba9b0f87ca,,,,,,,,,,,87.305,87.8042,,,88.0544,89.121,right,,,,,,,,0.55,1.0604,,,,,,,87.8042,88.0544,89.1211,"[0.006589838507140424,-0.0754286084941666]",4.0,"[-0.0890635152339483,-0.17104999015665107]",100.0,"[0.09097451146873571,-0.13981500395620003]",100.0,"[-0.041931327237297776,-0.12704744530217066]",4.0,"[-0.13979291510433348,0.09356038615277905]",4.0,"[0.07369841605766944,-0.08525487167484869]",100.0,"[-0.11299988922666311,0.0009153897223548121]",100.0,"[0.16814365454301225,0.0024112143448556046]",4.0,"[0.05358740100059616,0.12047480123193238]",4.0,"[-0.02026263692738364,0.016119578756000646]",100.0,"[-0.07211354378721817,0.09053055677805345]",100.0,"[-0.18297064232679455,-0.017314606900949724]",4.0,"[-0.02039292322099567,-0.18280890786924897]",100.0,"[-0.07995774503704246,0.03168824829212396]",100.0,"[-0.029058636501466523,-0.05044462220775887]",4.0,"[0.16420091020077585,-0.07295078857665721]",100.0,"[-0.1553579703594807,0.040966284819082856]",4.0,"[-0.022617895226302406,0.10359645371393847]",4.0,"[-0.09256787461979332,0.16696956281712208]",4.0,"[0.1263623376408016,-0.04293734202204505]",100.0,"[0.05324083635534213,-0.18410024496464383]",4.0,"[0.03227405468360629,-0.14793070186984733]",100.0,"[-0.07039480258943367,-0.05611790062049641]",100.0,"[0.11393571259369707,0.15045705422909952]",100.0,"[-0.18711550559906134,0.06651294852784487]",100.0,"[0.10049501539803382,0.026856783929397738]",4.0,"[0.07017647336674984,0.07868242126568334]",100.0,"[-0.10293027009500533,-0.08369855449299189]",100.0,"[0.12414182505424,0.08927023046291652]",4.0,"[0.035592196919873136,-0.007251383673128728]",100.0,"[-0.1444824247726317,0.13793862955539965]",4.0,"[-0.1686470693902737,-0.060615542728910864]",100.0,"[0.02,0.02]",90.221,0.0,8.0,8.0,81.0,1.0,,,,,,,
,,,,,,,6773ea482c488f0e35bd7b5c,6842bbd118fcc34cd77fab51,2025-06-06_10h58.52.797,shape_ratio,2024.1.5,Win32,59.52380952,6842b561977af9ba9b0f87ca,,,,,,,,,,,90.2214,90.721,,,90.9715,91.5544,right,,,,,,,,0.1,0.5752,,,,,,,90.721,90.9714,91.5545,"[-0.042505225897794534,0.18760808563867948]",100.0,"[0.08056255220116006,-0.024574547401105363]",100.0,"[0.013208306602661047,-0.125020768402334]",4.0,"[-0.04832279025862871,-0.12213430960424974]",4.0,"[0.19641134542760555,-0.025712679935242375]",4.0,"[-0.05424431250512584,0.0412184332197497]",4.0,"[-0.13864147717016587,-0.05510897172375972]",4.0,"[0.049116669347677215,-0.10049937178507858]",4.0,"[-0.014301066077204917,-0.17446665853476453]",4.0,"[0.16806920522629765,0.1068434612614316]",4.0,"[0.12566125898020217,0.09104636594645121]",4.0,"[-0.09624234436965881,-0.06462018139696342]",4.0,"[-0.15560961224317554,-0.10314352887148996]",4.0,"[0.0651940358930612,0.16488389374458143]",4.0,"[-0.1744657079817982,-0.015903670394327392]",4.0,"[0.0882460767311118,-0.13191745585930567]",4.0,"[0.015111324810471949,0.012051754886375672]",100.0,"[0.05977821135086284,0.016665388099051957]",4.0,"[-0.04470129984346502,-0.040982279532746496]",4.0,"[-0.10880413749860177,-0.15842078600925]",4.0,"[0.008065155766282611,0.10259597479647488]",4.0,"[0.1323326174790473,0.014723973812177823]",4.0,"[-0.11356163298215576,0.048831718005426336]",4.0,"[-0.14217906305600764,0.13819628673296644]",4.0,"[0.08458368708497316,0.09560626308777222]",4.0,"[0.007012442845091942,0.1661660115004637]",4.0,"[-0.1683138172812866,0.058742719491945206]",4.0,"[-0.1313552495514351,0.010092280207142796]",4.0,"[0.12882561041336127,-0.055704581636113644]",4.0,"[-0.06195711988410588,0.08415150681763298]",4.0,"[-0.10065821646096369,0.11435802066550886]",4.0,"[0.1762262803822349,-0.07568376387183456]",4.0,"[0.02,0.02]",92.6541,0.0,9.0,9.0,204.0,1.0,,,,,,,
,,,,,,,6773ea482c488f0e35bd7b5c,6842bbd118fcc34cd77fab51,2025-06-06_10h58.52.797,shape_ratio,2024.1.5,Win32,59.52380952,6842b561977af9ba9b0f87ca,,,,,,,,,,,92.6542,93.154,,,93.4046,94.5709,right,,,,,,,,0.1,1.1581,,,,,,,93.154,93.4045,94.571,"[-0.06831757537623685,0.1712611914230557]",4.0,"[0.004752833997133058,0.18011286271641302]",4.0,"[-0.01609369842295392,0.07594954252704646]",100.0,"[-0.05353814846360322,-0.062443043548313724]",4.0,"[-0.061035899723048403,-0.020527861828815]",4.0,"[-0.04262272330427071,-0.14213581576646098]",4.0,"[0.0759835186173479,-0.12231918100553962]",4.0,"[0.05676754363302294,0.06409337967594944]",4.0,"[0.002911009142800176,-0.16567248050730346]",4.0,"[-0.09367932830555699,-0.09659390403668079]",100.0,"[-0.11080024653401695,0.1631132248825595]",4.0,"[-0.10746531641822714,-0.1681989740562423]",4.0,"[0.02127080244176851,0.13040114069183492]",4.0,"[0.1447655878093322,-0.055582646205103635]",4.0,"[-0.17061738772695798,0.08948352024573684]",4.0,"[-0.14455769090457538,-0.011717328395634767]",4.0,"[-0.11217417187923735,-0.05472374441810826]",4.0,"[0.026496476213647566,-0.037848421211724895]",4.0,"[-0.1751061899631891,-0.06026762260009865]",4.0,"[-0.0206602948463704,-0.10827761157013487]",4.0,"[0.12522093515192215,-0.12177293653228223]",4.0,"[0.06304030653141951,-0.1678392618325979]",4.0,"[0.1561362473012634,0.05480786209077798]",4.0,"[-0.06517672886968563,-0.18392785133798922]",4.0,"[-0.11751047953979483,0.03545420646709273]",4.0,"[0.19017791940464115,0.01200753238890076]",4.0,"[0.14704522314666205,-0.0057575380750003215]",4.0,"[-0.04208916606293008,0.1327137218293427]",4.0,"[0.06484833990544525,-0.022670540824073847]",4.0,"[0.11505109930104289,0.10287406580628175]",4.0,"[0.08537180889581847,-0.0806117027257093]",100.0,"[-0.12667653649322738,0.10871394876155183]",4.0,"[0.02,0.02]",95.6708,0.0,10.0,10.0,195.0,1.0,,,,,,,
,,,,,,,6773ea482c488f0e35bd7b5c,6842bbd118fcc34cd77fab51,2025-06-06_10h58.52.797,shape_ratio,2024.1.5,Win32,59.52380952,6842b561977af9ba9b0f87ca,,,,,,,,,,,95.6713,96.1709,,,96.4213,97.6209,left,,,,,,,,0.1,1.1854,,,,,,,96.1709,96.4213,97.6209,"[0.14950134819358357,0.005513003059101185]",4.0,"[-0.012071465067281092,0.1598254015882875]",4.0,"[0.024588901727073894,-0.027266752333079156]",4.0,"[-0.022781352853096903,0.08270313680840308]",4.0,"[-0.04293846246534196,-0.10873517733969164]",4.0,"[0.03499540908126263,-0.18372941206874308]",4.0,"[0.07344429015138572,0.10932666924187084]",4.0,"[-0.18259874269280843,-0.0719367152784382]",4.0,"[0.10929016765813983,0.1498729642280122]",4.0,"[-0.16383890551991148,0.035340820746303195]",4.0,"[0.06526391668954641,-0.05677383808831754]",4.0,"[-0.08910890765279114,0.03425027119818782]",4.0,"[-0.0781118788901498,0.10489358835623765]",4.0,"[-0.12329896413395763,-0.023610181387436462]",4.0,"[0.15527848352624424,-0.11752823154483032]",4.0,"[-0.05709797930709701,-0.010573548708176594]",4.0,"[-0.056652366327785114,-0.16297343624137678]",4.0,"[-0.16712842854984555,0.0825892893841656]",4.0,"[0.10946183816791144,0.07995305275565182]",4.0,"[-0.07565446638208692,0.16096542399156102]",100.0,"[0.07172188927909708,0.05094781737122506]",4.0,"[-0.09871250744418728,-0.09305208320462925]",4.0,"[0.11255311034580706,-0.13503653130685828]",4.0,"[0.14918252284794578,0.05599980328293228]",4.0,"[-0.1440028385902175,-0.13323923625199321]",100.0,"[0.04128104462979346,-0.11702878804858435]",4.0,"[-0.1817090953954234,-0.029620194575149993]",100.0,"[0.07830806853575847,-0.005018734919802025]",4.0,"[0.11291960927930589,-0.06554234933469245]",4.0,"[0.19419905971132082,0.0017075366407194779]",4.0,"[-0.023225215652999443,0.011985606030739669]",4.0,"[0.15541221438182537,-0.06447353300470977]",4.0,"[0.02,0.02]",98.7207,0.0,11.0,11.0,201.0,1.0,,,,,,,
,,,,,,,6773ea482c488f0e35bd7b5c,6842bbd118fcc34cd77fab51,2025-06-06_10h58.52.797,shape_ratio,2024.1.5,Win32,59.52380952,6842b561977af9ba9b0f87ca,,,,,,,,,,,98.7209,99.2209,,,99.4714,100.9709,,,,,,,,,0.4,,,,,,,,99.2209,99.4714,100.9709,"[-0.026335732403008603,0.08046227609877807]",100.0,"[0.07048649432328412,-0.021084549060910576]",4.0,"[-0.09066806694042627,-0.0889525231279471]",100.0,"[0.02327747141763714,-0.06304528465781023]",100.0,"[-0.0724621786678585,0.09747184317738282]",4.0,"[0.1027710402091999,0.08262948699364663]",4.0,"[0.09118223752343657,0.018535924983484883]",4.0,"[-0.08066454566035577,-0.15616393979669174]",100.0,"[-0.1372518311372002,0.08657762624584828]",4.0,"[-0.05206132470229956,-0.051032874771662136]",100.0,"[0.018496395046980058,0.013242901918755726]",100.0,"[0.04096227532203543,0.09250636275268076]",4.0,"[0.014495229948946756,-0.12756488375370212]",4.0,"[0.1381886031384528,0.052615326382792274]",4.0,"[-0.05999278354927955,0.1398273811137663]",4.0,"[0.17745927130479366,-0.06265930803914248]",100.0,"[-0.09853212433225321,0.1529116708636674]",4.0,"[-0.13256558356234288,-0.10428908049050106]",4.0,"[-0.07286057951619533,0.007072053883467156]",4.0,"[0.0793787997678626,-0.16681380872084894]",4.0,"[0.10265219828272974,-0.04963924055779841]",100.0,"[-0.07308502168926195,0.05284374035357322]",4.0,"[0.08924661107995444,0.16821057399697886]",4.0,"[0.08646818152306657,-0.12409731658763494]",100.0,"[-0.02572575121576985,-0.12323498775243803]",100.0,"[-0.1293168001981742,0.01706104986600553]",100.0,"[-0.027093342945270753,-0.08271257290080135]",100.0,"[0.06501753515141251,0.12963722573219377]",100.0,"[-0.025251403996373104,0.1938535344241467]",4.0,"[-0.10886876754387802,-0.0336207959893579]",4.0,"[0.1930242883234341,0.03348104228691496]",4.0,"[-0.1848876783692338,0.03920185602097338]",4.0,"[0.02,0.02]",102.0709,0.0,12.0,12.0,179.0,1.0,,,,,,,
,,,,,,,6773ea482c488f0e35bd7b5c,6842bbd118fcc34cd77fab51,2025-06-06_10h58.52.797,shape_ratio,2024.1.5,Win32,59.52380952,6842b561977af9ba9b0f87ca,,,,,,,,,,,102.0714,102.5709,,,102.8211,103.2047,right,,,,,,,,0.45,0.3722,,,,,,,102.571,102.821,103.2049,"[0.012699427135424463,-0.02030552707615903]",100.0,"[0.0559753214367909,-0.1312528700385417]",4.0,"[0.037901874408067096,0.11078139122844687]",4.0,"[0.026782674525078258,0.06819067919432663]",4.0,"[-0.10659635053517534,-0.11628400213990917]",4.0,"[0.0052657859958017555,-0.1073235294053869]",4.0,"[0.11962866918106412,0.055116758296350814]",4.0,"[-0.07619389707620909,0.037128043537911964]",4.0,"[-0.10013957678430797,-0.05628778324631039]",4.0,"[-0.16723066406656692,-0.04491583955796005]",4.0,"[0.12491537031027004,-0.09004708981909071]",100.0,"[0.10617628269909604,-0.021821885286261552]",100.0,"[-0.07328906526461677,0.14827360289544778]",100.0,"[-0.05702401372726181,0.1892046629717011]",4.0,"[0.15236400102996447,0.09101545222773484]",100.0,"[-0.11678740524198611,0.08465727421072637]",100.0,"[0.041954609694011685,-0.1691910480801653]",4.0,"[-0.036474470477207956,-0.014506906406880429]",4.0,"[-0.13132095746028144,0.12647809714686642]",100.0,"[0.08244665391152589,0.11606112463911926]",100.0,"[-0.1817542076912589,0.06562057540044622]",4.0,"[-0.0043692756715925495,0.11805812724113862]",100.0,"[0.07046304876277622,0.009582413244865607]",100.0,"[0.18691272578061513,-0.0660005853776546]",100.0,"[0.1646666774729717,-0.024424756968724332]",4.0,"[-0.036983154121276715,-0.19555698003048513]",4.0,"[0.051291409867374356,0.17326458064789474]",4.0,"[-0.07195703692004056,0.08176033384517031]",100.0,"[0.08778852886383683,-0.06833788359057338]",4.0,"[-0.16682633679038827,0.019215353283852685]",100.0,"[0.12477385500700422,0.12339140289832769]",4.0,"[-0.08653332236679201,-0.018082639402890007]",100.0,"[0.02,0.02]",104.3042,0.0,13.0,13.0,121.0,1.0,,,,,,,
,,,,,,,6773ea482c488f0e35bd7b5c,6842bbd118fcc34cd77fab51,2025-06-06_10h58.52.797,shape_ratio,2024.1.5,Win32,59.52380952,6842b561977af9ba9b0f87ca,,,,,,,,,,,104.3046,104.8042,,,105.0543,105.8709,right,,,,,,,,0.9,0.8036,,,,,,,104.8042,105.0542,105.8709,"[-0.12373987240389027,-0.0012934854019980588]",100.0,"[-0.07566268545625815,0.04744297214040975]",100.0,"[-0.11789260981900068,0.1219439787617588]",100.0,"[-0.02464440353609768,-0.020110201075970044]",100.0,"[0.06897907459085273,-0.05583607111437554]",100.0,"[0.002821317181633192,0.07304258791994361]",100.0,"[-0.13649424727153442,-0.14471254606837347]",100.0,"[0.058582366744519186,0.07200816372412581]",100.0,"[-0.041236115878452405,-0.08393882190549223]",100.0,"[0.09345333475368169,0.09540337914887398]",4.0,"[-0.014856660535936858,0.13301013761800895]",100.0,"[-0.1884197667397022,0.0038546524902714563]",100.0,"[-0.13064746744490163,0.0771048038724719]",100.0,"[0.17740295193380015,-0.06823159598738314]",100.0,"[-0.08410512162750731,-0.08432047094106142]",4.0,"[0.11072689672239502,-0.08446993859110234]",100.0,"[0.14720612629608132,0.0025375899707854293]",4.0,"[-0.19291746068661053,-0.04046320536727672]",100.0,"[0.03212666343962019,-0.12112039468030487]",100.0,"[0.17465705439290963,0.09189473867269235]",100.0,"[0.19352320896700917,-0.020757111152472103]",100.0,"[-0.16177640030907148,-0.06666395330586528]",100.0,"[-0.08513690420780401,-0.1472298878898617]",100.0,"[0.01671802918977278,-0.17697642857297954]",100.0,"[0.07585933982031182,0.0013678672917609434]",100.0,"[0.021265684606632303,0.03678021984701864]",100.0,"[0.029911260922418057,0.10346521255257322]",100.0,"[0.11252293458774945,-0.04190886665614453]",100.0,"[-0.13147625653874018,-0.09524910923585969]",100.0,"[0.01071536409482158,-0.06021288646154435]",100.0,"[0.0972287574152396,-0.13369984793866038]",100.0,"[0.12955804908516771,0.07561671813504059]",100.0,"[0.02,0.02]",106.9707,0.0,14.0,14.0,14.0,1.0,,,,,,,
,,,,,,,6773ea482c488f0e35bd7b5c,6842bbd118fcc34cd77fab51,2025-06-06_10h58.52.797,shape_ratio,2024.1.5,Win32,59.52380952,6842b561977af9ba9b0f87ca,,,,,,,,,,,106.9711,107.4711,,,107.7211,108.388,right,,,,,,,,0.5,0.6635,,,,,,,107.4711,107.7211,108.3881,"[-0.003282166142518964,-0.10256839243384128]",100.0,"[-0.040493748802298654,-0.13415838703723781]",100.0,"[0.08548008366917008,0.008779908069016101]",4.0,"[0.15419622169578373,-0.015752279002931635]",100.0,"[0.10798976214906938,-0.05024074134594623]",100.0,"[-0.18968186655856237,-0.027518020905620496]",100.0,"[-0.0842884522947625,0.05262057418815184]",4.0,"[0.15568463864996424,-0.0637991867871462]",4.0,"[0.012451743234915396,0.17135186072005612]",100.0,"[0.18034869266756265,0.06778230218828779]",4.0,"[-0.05386008226629412,-0.06619956508399537]",100.0,"[-0.08838247978816371,-0.08728828771076882]",4.0,"[0.06658340422750329,-0.05640311698629155]",100.0,"[0.046268848648716075,0.091850776096557]",100.0,"[0.00950396115158568,-0.04740813992336114]",4.0,"[0.02673690075942396,-0.19431830449726167]",4.0,"[0.1500084708704496,-0.11323828284873438]",4.0,"[0.036339835896259866,-0.09320573650975911]",100.0,"[-0.05223562113195869,0.10411492899019119]",4.0,"[-0.10841363371272897,0.0013375850905529556]",4.0,"[-0.17037776150639428,0.023178062158302756]",100.0,"[-0.13020560549735935,0.14620560109039574]",4.0,"[0.10420626991253995,0.05345574264870163]",100.0,"[-0.014183480692489363,-0.18109583315900318]",4.0,"[0.06897541931009545,-0.16611196214892418]",100.0,"[-0.015694698865153633,0.07900804175004542]",100.0,"[-0.03999750875363623,0.019190367688503518]",100.0,"[-0.12089068778975814,-0.038148526279193934]",100.0,"[0.10704726390140987,0.10474967211988061]",4.0,"[-0.049787228787943345,0.193065224883434]",4.0,"[-0.10256528142823344,-0.1331012579605111]",4.0,"[-0.16830101516711776,-0.07072177489139139]",4.0,"[0.02,0.02]",109.4877,0.0,15.0,15.0,98.0,1.0,,,,,,,
,,,,,,,6773ea482c488f0e35bd7b5c,6842bbd118fcc34cd77fab51,2025-06-06_10h58.52.797,shape_ratio,2024.1.5,Win32,59.52380952,6842b561977af9ba9b0f87ca,,,,,,,,,,,109.4881,109.9875,,,110.2377,111.5208,left,,,,,,,,0.45,1.2767,,,,,,,109.9875,110.2377,111.5208,"[-0.04374499239994354,-0.11323346703780775]",4.0,"[0.04129436649656894,0.038888361077088096]",4.0,"[-0.06926943762086364,-0.05184108235733979]",4.0,"[0.11739011730320695,-0.1394154512163145]",4.0,"[-0.07903613415695197,0.09324040065366244]",4.0,"[-0.09387158675413178,0.007259430290533135]",4.0,"[0.10312663377661004,0.13039825339551453]",100.0,"[0.04216980228687242,-0.07760657881125962]",100.0,"[-0.11979955316850546,-0.07434168596995934]",100.0,"[0.03964473195966596,-0.17148495211609627]",4.0,"[0.08635028102822863,-0.08376683604293177]",4.0,"[0.17363395447194283,-0.025093029998891816]",100.0,"[0.1923855192670022,0.053276400230328466]",4.0,"[0.13062962728193722,0.08646931190167308]",100.0,"[-0.1747594632612968,-0.053841049003826004]",4.0,"[0.04110952977701742,0.13832680439114417]",4.0,"[-0.014040812781268905,0.049015677401280475]",4.0,"[0.11259796440672437,0.027719874799410595]",100.0,"[-0.08414118968166562,0.14216504754505713]",4.0,"[-0.03182151734804585,-0.07107555026822168]",4.0,"[-0.03670688211789642,-0.16216226326383865]",100.0,"[-0.00018047498315687402,0.10798457549267525]",100.0,"[-0.09918094931038358,-0.11784377172140467]",4.0,"[0.041884369666667205,-0.022992682772565536]",100.0,"[0.0950868416843151,-0.031455451013014495]",4.0,"[-0.04394576522707786,0.13938336769243398]",100.0,"[-0.17758843446507713,0.05441749716088599]",100.0,"[0.0182805931837973,-0.13407222724111345]",100.0,"[0.05648333609503327,-0.12091413144210622]",100.0,"[-0.05648320573585309,0.185201291706062]",4.0,"[0.03863432063880034,0.18961937547532243]",4.0,"[0.1460093206144399,-0.10431490219450311]",100.0,"[0.02,0.02]",112.6208,0.0,16.0,16.0,131.0,1.0,,,,,,,
,,,,,,,6773ea482c488f0e35bd7b5c,6842bbd118fcc34cd77fab51,2025-06-06_10h58.52.797,shape_ratio,2024.1.5,Win32,59.52380952,6842b561977af9ba9b0f87ca,,,,,,,,,,,112.6211,113.1208,,,113.3711,114.271,right,,,,,,,,0.9,0.8902,,,,,,,113.1209,113.371,114.271,"[-0.07529159578228073,0.16168679611438164]",100.0,"[0.12201964286634003,0.003540976085831816]",100.0,"[0.10476104913493842,-0.038349673209059104]",100.0,"[0.06461456882412879,0.1134764144023155]",100.0,"[0.008144549695940147,0.14565055048982023]",100.0,"[0.006491141949386963,-0.12845180100925319]",100.0,"[0.11940629441665124,-0.07772666221676613]",4.0,"[-0.07624765975636004,-0.1627668568945317]",100.0,"[-0.03277284196641455,-0.18448749236681325]",100.0,"[0.0014528591129194478,0.023161078385797194]",100.0,"[-0.1611884798315134,0.07591136191135478]",100.0,"[-0.029995982477414564,-0.015868389873812085]",100.0,"[0.03162640378254637,0.08652866816900776]",4.0,"[-0.07578587728082165,0.01108894492612326]",100.0,"[-0.1469022135618992,0.018147808533314852]",100.0,"[-0.04635944518126807,0.06611852273020612]",100.0,"[-0.10419022010415376,0.09823903763931727]",100.0,"[-0.15082388675431227,-0.12435131102039164]",100.0,"[0.158754813553737,0.024070192554861987]",100.0,"[0.13013770098696387,0.060906544904773444]",100.0,"[0.06596864474734168,0.0636043161874841]",100.0,"[-0.1184694395507182,-0.15970470331538256]",100.0,"[0.1991737192899444,-0.012517359286957793]",100.0,"[0.07804880591958469,-0.09689220675239678]",100.0,"[0.04201220928122272,-0.010598564809467446]",100.0,"[-0.09583491998122615,-0.11632911063888159]",100.0,"[0.016738619949137272,-0.04441550972777323]",100.0,"[-0.16130453590882154,-0.042283771016234796]",100.0,"[0.02963056854159472,-0.09105315022950329]",100.0,"[0.10824759654932693,0.15809902074492885]",100.0,"[0.0866841887703212,-0.16868530723549205]",100.0,"[0.07735430384543353,0.015591752255610209]",4.0,"[0.02,0.02]",115.371,0.0,17.0,17.0,0.0,1.0,,,,,,,
,,,,,,,6773ea482c488f0e35bd7b5c,6842bbd118fcc34cd77fab51,2025-06-06_10h58.52.797,shape_ratio,2024.1.5,Win32,59.52380952,6842b561977af9ba9b0f87ca,,,,,,,,,,,115.3715,115.8707,,,116.1212,116.8208,right,,,,,,,,0.45,0.6931,,,,,,,115.8708,116.1211,116.8209,"[-0.07103223233281518,0.08844429745809729]",4.0,"[0.12025880933327764,-0.04857567340529431]",4.0,"[-0.15734774609493038,0.044880170512092456]",100.0,"[0.027662307397090212,-0.19250910980790736]",4.0,"[0.07558300145063884,-0.03042961510171399]",4.0,"[0.050681717502987736,-0.1477115129448575]",100.0,"[0.12470143829753995,0.05787682745017559]",4.0,"[0.1642058689100729,-0.019204276396652852]",100.0,"[0.0025567738583089053,0.08293268508206951]",4.0,"[0.005074179519993578,0.17528200912039663]",100.0,"[0.12643132843230886,0.009325311967049674]",4.0,"[-0.17723451608431215,-0.06620305784500083]",100.0,"[-0.005946061740030697,0.030929977102968857]",4.0,"[0.12210055186541545,-0.09902551837723325]",4.0,"[0.04749568530061104,0.17576640722603046]",4.0,"[-0.1254671505140814,0.10504495619370563]",100.0,"[-0.1308028588308232,-0.07629299319009283]",100.0,"[0.018181005259328243,-0.0993197238608815]",100.0,"[0.06274225897132167,0.09595907659821645]",4.0,"[-0.05230601742686644,-0.19159616948408398]",4.0,"[-0.0594629444524758,-0.11606110177194015]",100.0,"[0.02445977403003025,-0.057555041940184945]",4.0,"[0.036513383861234476,0.009185253879497455]",4.0,"[-0.05645892227560417,-0.019707842425798407]",100.0,"[-0.10669146453437368,-0.04426742763964518]",4.0,"[-0.06798052488274157,0.17951416700400646]",100.0,"[0.09376962062060033,-0.1430425691811366]",4.0,"[0.17303968574268164,0.06696354519335107]",4.0,"[0.09996896702405166,0.11605928895475574]",4.0,"[-0.02225523104739694,-0.08849962120023636]",100.0,"[-0.17812667972308657,0.08228172335098662]",100.0,"[-0.10613517317320319,-0.11758042959211125]",100.0,"[0.02,0.02]",117.921,0.0,18.0,18.0,139.0,1.0,,,,,,,
,,,,,,,6773ea482c488f0e35bd7b5c,6842bbd118fcc34cd77fab51,2025-06-06_10h58.52.797,shape_ratio,2024.1.5,Win32,59.52380952,6842b561977af9ba9b0f87ca,,,,,,,,,,,117.9216,118.421,,,118.6712,119.3877,right,,,,,,,,0.45,0.7118,,,,,,,118.421,118.6711,119.3877,"[-0.008994568002254663,-0.08271303640689506]",4.0,"[0.07951384194679094,0.11583533509869151]",100.0,"[0.09733660498134414,-0.0774474544206793]",100.0,"[-0.13765749046300824,-0.11302603250247793]",4.0,"[0.06518048296699598,0.1682135705930757]",4.0,"[-0.07675219360137349,0.1708116115182408]",4.0,"[-0.018264679825873858,0.15693920721043594]",100.0,"[-0.06783966465662147,0.08874635055474192]",4.0,"[-0.007608317002782259,0.011632659771085815]",4.0,"[-0.004349967738429795,0.08025693377403423]",4.0,"[-0.03906561294812585,-0.04312532263448609]",4.0,"[0.12841966065114946,-0.11941040153832473]",100.0,"[-0.09463119798521878,0.032399375738395034]",100.0,"[-0.11547763240481959,0.11421681217474712]",100.0,"[-0.006498611648826802,-0.18218880482053415]",100.0,"[0.18179431127701662,0.0744919410436185]",4.0,"[0.08245435364963939,-0.0262473301695383]",100.0,"[-0.16714925201122252,-0.046412553037978234]",100.0,"[-0.1899140835679158,0.029699408544333363]",4.0,"[0.13183038559277993,-0.055346505510673695]",100.0,"[0.0466244312559047,-0.12787792895759378]",4.0,"[-0.06557977224193952,-0.13480577906580238]",100.0,"[0.05935861202094804,0.0407764906618175]",4.0,"[0.15436227278834097,0.020219329750955545]",4.0,"[-0.11372461533217598,-0.05199244745251866]",4.0,"[-0.15148506880168774,0.007620724569437802]",4.0,"[0.11981391349546094,0.0512494960491386]",4.0,"[-0.14293793535087837,0.05663417151119711]",4.0,"[-0.16245641965479715,0.11400077836713927]",100.0,"[-0.10946492061095289,-0.1559564599407303]",4.0,"[0.14146633846421924,0.1319025685251751]",100.0,"[-0.005810998558347765,-0.12651893080996868]",100.0,"[0.02,0.02]",120.4875,0.0,19.0,19.0,146.0,1.0,,,,,,,
,,,,,,,6773ea482c488f0e35bd7b5c,6842bbd118fcc34cd77fab51,2025-06-06_10h58.52.797,shape_ratio,2024.1.5,Win32,59.52380952,6842b561977af9ba9b0f87ca,,,,,,,,,,,120.4881,120.9876,,,121.2377,122.0542,right,,,,,,,,0.5,0.8064,,,,,,,120.9877,121.2376,122.0542,"[-0.05198887300394612,-0.0817293939576427]",4.0,"[-0.015108876572295519,-0.02041916846896275]",4.0,"[0.06311184641397503,-0.18945088076637004]",4.0,"[-0.09673558957232728,0.0020882589227928824]",4.0,"[-0.09455638287667634,0.05085553735714743]",100.0,"[0.15162119402140992,0.08670056077767023]",4.0,"[-0.0960419214510074,-0.12681412981354812]",4.0,"[0.0436688954726438,-0.054653091560757844]",100.0,"[0.03438937246928617,0.07946904946453005]",4.0,"[0.11767115866498477,0.015020116746310907]",100.0,"[-0.18000085303667615,0.05918771056219845]",100.0,"[0.1705758615210731,0.01037424654224873]",100.0,"[0.10359288005911575,-0.10351736361096475]",4.0,"[-0.06208519845019322,0.11794153948124352]",100.0,"[0.0838275248536844,0.07359032780600638]",4.0,"[0.13021024646934642,-0.14323648200355196]",4.0,"[0.1137002376631538,0.13862061290071073]",4.0,"[-0.13750735736138758,0.1037458057386513]",4.0,"[-0.18630514283456237,-0.03159509923116338]",100.0,"[-0.09439315125430593,0.1645794412168596]",100.0,"[0.006564127880866386,-0.15098949670841158]",100.0,"[-0.019595900399420198,-0.19752073966599537]",4.0,"[-0.03120735385575329,0.18816819255446357]",100.0,"[0.05668244848629881,0.1495806250661593]",100.0,"[-0.09155854861035295,-0.04289604253751717]",100.0,"[-0.058214494232240954,-0.1626095446204889]",100.0,"[0.09898718604490578,-0.05094592142033625]",4.0,"[0.011058956718942914,0.11515162058182599]",4.0,"[-0.15017182943576285,-0.009432099666047218]",4.0,"[-0.13570916899569338,-0.09359437863627226]",100.0,"[-0.03764125688774453,0.027569683624326397]",100.0,"[0.009362096410385209,0.17689063928046225]",100.0,"[0.02,0.02]",123.1541,0.0,20.0,20.0,100.0,1.0,,,,,,,
,,,,,,,6773ea482c488f0e35bd7b5c,6842bbd118fcc34cd77fab51,2025-06-06_10h58.52.797,shape_ratio,2024.1.5,Win32,59.52380952,6842b561977af9ba9b0f87ca,,,,,,,,,,,123.1546,123.6543,,,123.9049,124.5042,right,,,,,,,,0.45,0.5886,,,,,,,123.6543,123.9049,124.5043,"[0.06994925508017558,0.1713488848011704]",4.0,"[0.09890397494394633,0.037096418598596456]",4.0,"[0.09161870236768155,-0.0525680944583749]",4.0,"[-0.04849615258907454,-0.1038975683728157]",4.0,"[0.10515062288022878,-0.10291560655889138]",4.0,"[-0.02963742234635396,-0.16082108800542227]",100.0,"[-0.0006022795416605314,-0.03715644082508263]",4.0,"[0.02157118832797976,0.16637842569229452]",100.0,"[0.1727809404371776,-0.09392397874045204]",100.0,"[0.17076365720876813,0.046340498507389465]",100.0,"[0.09210696636717423,0.11173577539439498]",100.0,"[-0.05354248599883228,-0.010569826059027496]",4.0,"[-0.14126594628794903,-0.023158045380430113]",4.0,"[0.05215225993827278,0.10074247490526188]",100.0,"[-0.043541276322918133,0.14301331713830046]",100.0,"[0.08683578993194513,-0.15101445953931142]",4.0,"[-0.1639169170478874,-0.10633999800686525]",100.0,"[0.1536993362157196,-0.0555567886199007]",4.0,"[0.09780532345352802,-0.011361553096381632]",100.0,"[-0.11326053721176171,-0.06757663309983576]",100.0,"[-0.09806496867328734,-0.013371351043000412]",100.0,"[-0.16541417149226956,0.03331629584817421]",4.0,"[0.00879449948695862,-0.1368936116048914]",4.0,"[-0.19174679185141727,-0.006711356465058422]",100.0,"[0.027472787097497942,0.029960174846462188]",4.0,"[-0.11134784796252484,0.09790838185461605]",100.0,"[-0.013591034675068493,-0.08309410621576147]",4.0,"[-0.0033727174696253815,0.08676396054804765]",4.0,"[-0.12810469105981476,-0.14515976496875624]",4.0,"[-0.0739442622988664,0.03351085587314149]",4.0,"[-0.032655234897602456,0.1867729255157925]",100.0,"[-0.0748132315022522,-0.14163848303476742]",4.0,"[0.02,0.02]",125.6045,0.0,21.0,21.0,128.0,1.0,,,,,,,
,,,,,,,6773ea482c488f0e35bd7b5c,6842bbd118fcc34cd77fab51,2025-06-06_10h58.52.797,shape_ratio,2024.1.5,Win32,59.52380952,6842b561977af9ba9b0f87ca,,,,,,,,,,,125.6049,126.104,,,126.3545,127.0542,right,,,,,,,,0.1,0.6934,,,,,,,126.104,126.3545,127.0543,"[-0.18391064566495466,0.04108777054578223]",4.0,"[-0.05525100444874969,-0.0644047853736447]",4.0,"[0.11149911015578857,-0.07184958000301]",4.0,"[0.17146707331666283,-0.03173908713742613]",4.0,"[0.15696230770621292,0.036566457057281364]",4.0,"[-0.11340331045418137,0.14063561025881843]",100.0,"[0.0434525994030529,-0.15216670689815318]",4.0,"[0.11875661700159884,-0.1415359276914439]",100.0,"[-0.007614195993229272,-0.1671945768430829]",100.0,"[0.06161559559646513,-0.0125638900714444]",4.0,"[-0.048788305578281066,0.05453657716256283]",4.0,"[-0.0024007019314031632,0.10899617747806777]",4.0,"[-0.11099983505063787,-0.04463760420765411]",4.0,"[-0.15942858352133482,-0.07643642165484359]",4.0,"[0.07977085217812835,0.11839534966704943]",4.0,"[0.03602562249624835,0.127359865648943]",4.0,"[-0.01385035353120116,-0.10806247450369859]",4.0,"[-0.1157998050200765,0.014389803940452374]",4.0,"[-0.0499759279484518,0.1735626178281226]",4.0,"[0.15881514213312822,-0.07508663435093836]",4.0,"[0.038048349871462356,-0.10398298695274862]",4.0,"[-0.07124028904501252,0.10369757471454723]",4.0,"[0.11109052927090526,0.056199535291443774]",4.0,"[-0.11373711150807529,-0.13223672826361713]",4.0,"[0.16350023152101678,0.0973326001262013]",4.0,"[-0.1462280349530447,0.06078264457450609]",4.0,"[-0.08740194727929589,-0.17953666292720272]",4.0,"[0.12169209770892318,-0.002227722741661969]",4.0,"[0.028854675763962816,-0.04837196886861475]",4.0,"[0.04548323034284529,0.05168698864187802]",4.0,"[-0.02040132570494737,0.014847481403188562]",4.0,"[0.15360111653386543,-0.12120031345913755]",4.0,"[0.02,0.02]",128.1542,0.0,22.0,22.0,191.0,1.0,,,,,,,
,,,,,,,6773ea482c488f0e35bd7b5c,6842bbd118fcc34cd77fab51,2025-06-06_10h58.52.797,shape_ratio,2024.1.5,Win32,59.52380952,6842b561977af9ba9b0f87ca,,,,,,,,,,,128.1545,128.6544,,,128.9044,129.8043,left,,,,,,,,0.45,0.8852,,,,,,,128.6545,128.9044,129.8044,"[-0.037460143386300715,0.18163815025007626]",4.0,"[-0.006487543200292285,-0.07672115640476201]",100.0,"[-0.15585535169707299,0.03360363072515286]",4.0,"[-0.02247745235067806,0.11250079243090555]",100.0,"[0.126329586871918,0.0700899534290072]",4.0,"[-0.04424562457830375,-0.1029987716189324]",100.0,"[-0.07293153140553799,-0.03207855991801686]",4.0,"[-0.18603628404786068,-0.04078205831748439]",100.0,"[0.03810265484704235,-0.08582908325207848]",4.0,"[0.04901546167358205,0.16361343312700408]",4.0,"[0.041427328633884604,0.07607166691320512]",4.0,"[0.048449770806572486,-0.1518232544065623]",100.0,"[-0.012891483307315368,-0.0012642305781610853]",100.0,"[-0.10829010552367095,-0.09879666063203642]",100.0,"[0.11400119224831941,-0.09741490803175053]",100.0,"[0.012039229387127391,0.14296101492858196]",4.0,"[-0.1548554415611977,-0.08418496028657128]",4.0,"[-0.09131734826899014,0.1152197084720227]",100.0,"[0.11616266061205271,0.14392495443616968]",4.0,"[0.14644094105710886,-0.12201015123130621]",100.0,"[-0.12612459483071428,-0.0558626640523083]",4.0,"[0.08929757088290884,0.040708605311529804]",100.0,"[0.15946829307101884,0.10689986841887396]",4.0,"[0.09319168354165702,-0.05439034162416835]",4.0,"[-0.03724307174800682,0.0671471945635654]",4.0,"[0.19603990932017,0.037289987742026194]",4.0,"[-0.01000608174943926,-0.1457009233209066]",100.0,"[0.030489346430810232,0.00497937780762533]",100.0,"[-0.10021623532171804,-0.1679865001022472]",4.0,"[-0.14179055447078948,-0.01058918123015149]",4.0,"[-0.13314029285940296,0.13065429419644992]",4.0,"[-0.13025057264506168,0.08041822930367616]",100.0,"[0.02,0.02]",130.9043,0.0,23.0,23.0,127.0,1.0,,,,,,,
,,,,,,,6773ea482c488f0e35bd7b5c,6842bbd118fcc34cd77fab51,2025-06-06_10h58.52.797,shape_ratio,2024.1.5,Win32,59.52380952,6842b561977af9ba9b0f87ca,,,,,,,,,,,130.9048,131.4041,,,131.6544,132.4711,right,,,,,,,,0.4,0.8075,,,,,,,131.4041,131.6544,132.4712,"[-0.11442847666448473,0.06914889233196705]",100.0,"[0.1250776782175616,0.0996908625626885]",100.0,"[-0.020035929802000817,-0.09779230697718563]",4.0,"[0.09681788397377404,-0.11129394188989043]",100.0,"[-0.0033913904378075786,0.15477721975580488]",4.0,"[0.09432904888614553,-0.00714608654067884]",4.0,"[-0.05301810639471319,0.07331874808717462]",4.0,"[0.09224699054706141,-0.15258895519778432]",4.0,"[0.08282427139998476,0.1092787291003011]",100.0,"[0.002572769769048609,-0.19254762425329328]",4.0,"[0.1526369645664162,-0.002199960657688876]",100.0,"[-0.012097690303497565,0.19646390270032815]",100.0,"[0.0403427790190094,-0.09503399278161632]",4.0,"[-0.07282653272071783,0.1766015632325921]",4.0,"[0.053982442431803175,0.03170591204737693]",4.0,"[-0.09471772699483541,-0.07440202568302602]",100.0,"[-0.06733787227665701,-0.16035231662971056]",4.0,"[0.06939655108972348,0.16654644828855247]",4.0,"[-0.13206569295257342,0.011958969033574404]",4.0,"[-0.15404463216779882,-0.07654505002042884]",4.0,"[-0.1723261773409331,-0.006123773741656073]",100.0,"[-0.03329033485634996,-0.04839548838382431]",4.0,"[0.1873871729155971,-0.06213407706946073]",4.0,"[-0.0077821759628523,-0.0019386913413135768]",100.0,"[0.11198217140468446,0.05117424613615139]",100.0,"[0.03658760672507884,0.12488865833888262]",100.0,"[-0.09833185118548675,-0.13008965493031455]",100.0,"[-0.12534340998152146,-0.047895991886131875]",4.0,"[0.01948563524913233,0.07897502881376744]",4.0,"[0.13816433682582943,0.14133777474666911]",4.0,"[0.0849285600432404,-0.049443854783756264]",100.0,"[-0.14919605904315336,0.09144225677801567]",4.0,"[0.02,0.02]",133.571,0.0,24.0,24.0,157.0,1.0,,,,,,,
,,,,,,,6773ea482c488f0e35bd7b5c,6842bbd118fcc34cd77fab51,2025-06-06_10h58.52.797,shape_ratio,2024.1.5,Win32,59.52380952,6842b561977af9ba9b0f87ca,,,,,,,,,,,133.5714,134.0708,,,134.3211,135.4377,left,,,,,,,,0.5,1.1098,,,,,,,134.0708,134.3211,135.4377,"[-0.03141874945921811,0.1924954244765684]",4.0,"[0.05366689424753017,-0.08965611608755825]",100.0,"[0.013948478837164787,-0.04764946366083795]",4.0,"[-0.050186460555181917,-0.11997645634350673]",4.0,"[-0.17199203456678738,-0.010209783458927856]",100.0,"[0.1343093758863373,0.07541754499354492]",4.0,"[0.013711704156681425,0.14203132671581636]",100.0,"[0.02537428282739931,0.0979014921778982]",100.0,"[-0.11453062235045887,-0.06536357502122705]",4.0,"[-0.08120580811096959,-0.15371505633754518]",4.0,"[0.06772030573138389,0.13041140543774152]",100.0,"[0.14670481713713404,-0.08421426546066343]",100.0,"[-0.1295424994202514,0.009642557355380088]",4.0,"[-0.10367119043525819,0.09473816622171216]",100.0,"[0.03191395213370137,0.0548140460915398]",100.0,"[0.10573909387013061,0.11028662305006427]",4.0,"[0.10214271264061986,-0.016141992423149138]",100.0,"[0.08079119334333748,-0.05866825962877852]",4.0,"[-0.06028467535813033,0.13791229978063554]",100.0,"[0.016123952034941064,0.005680713731218154]",4.0,"[0.06719733714416937,0.07429687984184634]",100.0,"[-0.06203393242063457,-0.0712721205921083]",4.0,"[0.05315444879572945,-0.13624735236662397]",100.0,"[0.1443403527165577,-0.03659201497389405]",100.0,"[-0.16176235970543648,0.08003337263978912]",100.0,"[0.071235545351193,-0.1791122056505386]",4.0,"[-0.15868247659555598,-0.06096452725832854]",4.0,"[-0.027738459876949003,-0.0330098439896484]",4.0,"[-0.06659992742339463,0.02446312460930651]",100.0,"[0.07555950815361458,0.021735238976109454]",4.0,"[0.10926325974658208,-0.13420026243780997]",100.0,"[0.18907736432599917,-0.0010145738184142285]",4.0,"[0.02,0.02]",136.5376,0.0,25.0,25.0,99.0,1.0,,,,,,,
,,,,,,,6773ea482c488f0e35bd7b5c,6842bbd118fcc34cd77fab51,2025-06-06_10h58.52.797,shape_ratio,2024.1.5,Win32,59.52380952,6842b561977af9ba9b0f87ca,,,,,,,,,,,136.5381,137.0376,,,137.2877,137.9376,left,,,,,,,,0.1,0.6354,,,,,,,137.0376,137.2877,137.9376,"[-0.07040184661200956,-0.13325844227566055]",4.0,"[-0.1807389505220123,0.04545953487698841]",4.0,"[-0.05473256007230273,-0.04322978184533463]",4.0,"[0.0968272143671119,0.14147487903110118]",4.0,"[0.016395880322121536,0.03342233684765459]",4.0,"[-0.051870800311062726,0.024612968918043984]",4.0,"[0.08106484937901502,-0.0794063522129104]",4.0,"[0.12142725101759251,-0.08658845093969858]",4.0,"[0.01489409490251779,-0.17167206124530413]",100.0,"[0.16867314667899397,0.06572291112809012]",4.0,"[-0.029824207766846286,0.0699273234710895]",4.0,"[-0.030991322652137124,-0.09659320604936084]",100.0,"[-0.012560505307695513,0.18628670335141673]",4.0,"[-0.13219116860057,-0.0869526478484454]",4.0,"[0.0650811104307923,0.05358293046672941]",4.0,"[0.17708582446775972,0.01409541830096667]",4.0,"[0.1008209685120654,-0.1705817228860483]",4.0,"[-0.08983711804509274,0.12615017895710312]",4.0,"[0.10716830205525535,-0.021578169735467667]",4.0,"[0.07038604963847679,0.10937255903220312]",4.0,"[-0.09282956247513215,0.02597490599412694]",4.0,"[-0.10074221150650145,0.16696092402236912]",4.0,"[-0.08154267474602414,-0.17860326223569184]",4.0,"[-0.1565032355355235,0.09674151692658013]",4.0,"[0.0893136634274555,-0.12741799276427707]",4.0,"[0.14909219069370727,-0.03155231551834934]",4.0,"[-0.1744977589630111,-0.06119011416436669]",4.0,"[0.15365796554330668,-0.11484587894678405]",4.0,"[0.01870542809008616,-0.05825629673196047]",100.0,"[0.03429104389543742,0.1958464596915063]",4.0,"[-0.13861428480747945,0.054051568994113085]",4.0,"[0.024524320814850314,0.09345272442700815]",4.0,"[0.02,0.02]",139.0376,0.0,26.0,26.0,189.0,1.0,,,,,,,
,,,,,,,6773ea482c488f0e35bd7b5c,6842bbd118fcc34cd77fab51,2025-06-06_10h58.52.797,shape_ratio,2024.1.5,Win32,59.52380952,6842b561977af9ba9b0f87ca,,,,,,,,,,,139.0379,139.5376,,,139.788,140.5045,right,,,,,,,,0.5,0.704,,,,,,,139.5376,139.788,140.5045,"[-0.08060467950162734,0.051633910303532905]",100.0,"[-0.05683312095671079,0.09843959539635132]",4.0,"[0.040151653938806015,0.049983338526085615]",100.0,"[0.0916039854477528,-0.13330086185770448]",100.0,"[-0.05140227363290464,-0.14132233965546293]",4.0,"[-0.19983509767625382,0.0036377296066812]",100.0,"[0.15309265791515314,0.015226399551485099]",4.0,"[-0.1397648433915923,0.06858994221105665]",4.0,"[-0.08270245964096079,-0.16726080839648222]",100.0,"[-0.01949184109712931,-0.1692812758453635]",100.0,"[0.15337600168364215,-0.09842340127345801]",4.0,"[0.06260214406424056,-0.07308180257167217]",100.0,"[-0.008349956505822608,0.07651340837858916]",4.0,"[0.13191476107751993,-0.021260053357158196]",4.0,"[-0.12615443806999746,-0.022667758551704328]",100.0,"[0.1389630571450907,0.11295196600253475]",100.0,"[-0.09028347489364948,0.17382110715076157]",4.0,"[0.0057507385387969776,-0.07672876561577326]",4.0,"[-0.04969250701306084,-0.05436377632312169]",100.0,"[0.05291119092982119,-0.015841943936561284]",100.0,"[-0.08273752954181328,-0.02141001853657712]",4.0,"[0.06948294992440042,-0.16781009702746233]",4.0,"[0.183994251650053,-0.0479277243206317]",100.0,"[-0.0062971646070354974,-0.0035118009823441013]",4.0,"[-0.04712331385235643,0.1649733071810477]",4.0,"[0.11246718893891135,-0.06695651428381254]",100.0,"[0.07672789142839415,0.025748194818259747]",4.0,"[-0.15721683056613983,0.029492036741203684]",100.0,"[0.05031358961402229,0.14372170267705864]",4.0,"[-0.03950077214899703,-0.1008645769819976]",100.0,"[-0.12859316859318343,-0.08366894449152328]",4.0,"[-0.11304616995331492,-0.1341290173090278]",100.0,"[0.02,0.02]",141.6043,0.0,27.0,27.0,112.0,1.0,,,,,,,
,,,,,,,6773ea482c488f0e35bd7b5c,6842bbd118fcc34cd77fab51,2025-06-06_10h58.52.797,shape_ratio,2024.1.5,Win32,59.52380952,6842b561977af9ba9b0f87ca,,,,,,,,,,,141.6049,142.1044,,,142.3544,142.9876,left,,,,,,,,0.45,0.6174,,,,,,,142.1045,142.3544,142.9877,"[0.1602894223230524,-0.03261371115335461]",4.0,"[0.09109792733115187,0.018937699257449238]",4.0,"[0.15732283939410413,-0.07528631900347117]",4.0,"[0.16334434591929126,0.060667524072394195]",4.0,"[0.11202562022365502,-0.022816363166086488]",4.0,"[-0.09694012751796162,0.15015991325000042]",4.0,"[0.00019557407225867458,-0.14449248085353128]",100.0,"[-0.08812707493624078,-0.1630412171288814]",100.0,"[0.02970400247729522,0.18862406508738924]",100.0,"[0.11788777432259563,0.13745759936819138]",4.0,"[0.07193873071500775,-0.06772440470202237]",4.0,"[-0.15598747560602771,0.07324937879500508]",4.0,"[-0.14326326789180951,0.0027195977956112963]",100.0,"[-0.05207314497806316,-0.011422773691336228]",4.0,"[-0.14163184334830198,-0.07078472260154034]",4.0,"[-0.030100487554172984,0.14253317625976794]",100.0,"[-0.05155089718553711,0.04898066221908061]",4.0,"[0.05328121259770212,-0.1446289169269264]",4.0,"[0.07022120102911149,0.1525523816064403]",100.0,"[-0.05419143182292491,0.19160764091341762]",100.0,"[-0.09511296636984025,-0.000511100841876065]",100.0,"[-0.007493130753020781,-0.023686507447360398]",100.0,"[-0.036263917150494505,-0.0684328937940152]",4.0,"[-0.10682106843931692,-0.10328102149731229]",100.0,"[0.12610978345766966,-0.10047121607541527]",100.0,"[-0.04862645057079474,-0.1540129105973003]",4.0,"[-0.1005938977590846,0.04335173349634116]",100.0,"[0.05754228635752735,0.09651314286567471]",100.0,"[0.003016610182098037,0.04795260489516271]",4.0,"[-0.05458699043215909,-0.1059074245833497]",4.0,"[-0.0040483761565090265,-0.18883957128061277]",100.0,"[0.10290804594882266,-0.1431381217306263]",4.0,"[0.02,0.02]",144.0875,0.0,28.0,28.0,134.0,1.0,,,,,,,
,,,,,,,6773ea482c488f0e35bd7b5c,6842bbd118fcc34cd77fab51,2025-06-06_10h58.52.797,shape_ratio,2024.1.5,Win32,59.52380952,6842b561977af9ba9b0f87ca,,,,,,,,,,,144.0878,144.5877,,,144.8378,145.4379,left,,,,,,,,0.45,0.596,,,,,,,144.5877,144.8377,145.4379,"[-0.17856003115349828,-0.041925798497606664]",100.0,"[0.09680660930330101,0.07721000826005217]",4.0,"[0.1413737556354737,0.0971799368363173]",4.0,"[0.024206927446374843,-0.023746910288601236]",4.0,"[0.10469768178145078,-0.12868596524255096]",100.0,"[0.011314185101199428,-0.12089949062118271]",4.0,"[-0.07108995253315789,0.16328038228534977]",4.0,"[-0.10323337777862499,-0.06922160472814264]",4.0,"[-0.0014995256640157558,0.1928815948549412]",100.0,"[-0.07963514331180176,-0.17558833578902808]",4.0,"[0.07006597011193864,0.10837463403135565]",4.0,"[0.14702876666087494,-0.039526857991553394]",100.0,"[-0.12353092947846389,0.001741469636935873]",4.0,"[-0.023367184475986853,0.12177949947655664]",100.0,"[0.16635727289272415,0.05178053002639275]",100.0,"[-0.1416982779757051,-0.1392160004912491]",4.0,"[0.02099924182405128,-0.07839829966116033]",100.0,"[-0.1124589338432895,0.0743406871213206]",100.0,"[0.11113679949672609,-0.06771879476783838]",100.0,"[0.13289323247852533,0.14526772285625159]",4.0,"[0.03345360582679281,-0.18998566669087538]",4.0,"[-0.03434945599418357,-0.17999641397952848]",100.0,"[-0.05178314496199508,-0.01273252030776928]",4.0,"[0.089252150843569,0.030676779080527215]",100.0,"[0.03768889175624556,0.16710301037436012]",4.0,"[-0.17186578103285322,0.05004781717592288]",4.0,"[-0.19645885028641447,-0.005502953421787881]",100.0,"[-0.11377762383888586,0.1572183941707114]",4.0,"[0.016888634115684246,0.10286043846252241]",100.0,"[0.1875980235533006,0.006198178018761403]",4.0,"[-0.032605052062953575,-0.11756052228570409]",4.0,"[-0.028280803788407426,-0.06080864963054355]",100.0,"[0.02,0.02]",146.5376,0.0,29.0,29.0,136.0,1.0,,,,,,,
,,,,,,,6773ea482c488f0e35bd7b5c,6842bbd118fcc34cd77fab51,2025-06-06_10h58.52.797,shape_ratio,2024.1.5,Win32,59.52380952,6842b561977af9ba9b0f87ca,,,,,,,,,,,146.5379,147.0375,,,147.2879,148.1379,left,,,,,,,,0.5,0.8453,,,,,,,147.0376,147.2879,148.1379,"[0.1337404249560585,0.06035673889143727]",4.0,"[-0.059796222967493276,-0.01412969700408693]",100.0,"[-0.05693345322407317,-0.17350419450793333]",4.0,"[0.029193962602181534,-0.006701968949528093]",4.0,"[0.14449680569979548,0.12486444550855755]",100.0,"[0.08807287807512257,-0.06012878558477394]",4.0,"[-0.07731350104571041,0.029617678117077717]",100.0,"[-0.02010183739497666,-0.19606855499033266]",4.0,"[0.14715329772700106,-0.0391642589103506]",100.0,"[-0.06308190734273085,-0.09214023265425811]",100.0,"[-0.1478049351629518,0.007246057820908319]",4.0,"[-0.18805423811242336,0.009993370254427574]",100.0,"[0.03468324341152516,-0.11223865983966481]",4.0,"[0.15650832866062098,0.01130330842321392]",100.0,"[-0.019930042946970993,0.14358397872084536]",100.0,"[-0.037470571175288556,-0.1356770712771409]",100.0,"[0.08300850378561406,0.09979275584770039]",4.0,"[-0.11925862681039656,0.04433648808174612]",100.0,"[-0.04022786167720969,0.044930361440032096]",100.0,"[-0.07558807629141974,0.1680032777268517]",4.0,"[-0.10760621161714945,-0.1404545882665124]",100.0,"[0.029112059053435165,-0.19589301474204007]",100.0,"[0.026485436577380995,-0.050108922720373705]",4.0,"[0.04454544674129462,0.12157735049727383]",100.0,"[0.1895732132055874,-0.02777620620530891]",4.0,"[-0.00587798895141846,-0.09702634226505837]",4.0,"[0.07937115678149056,0.04688081792587871]",4.0,"[-0.04272413655262593,0.10138274719166816]",4.0,"[-0.12115867714556969,-0.09383035000617093]",4.0,"[0.12125566645153953,0.1575637519056165]",100.0,"[0.16836749850891528,-0.09929757229109676]",100.0,"[0.01150893287971565,0.09860653995831586]",4.0,"[0.02,0.02]",149.2376,0.0,30.0,30.0,106.0,1.0,,,,,,,
,,,,,,,6773ea482c488f0e35bd7b5c,6842bbd118fcc34cd77fab51,2025-06-06_10h58.52.797,shape_ratio,2024.1.5,Win32,59.52380952,6842b561977af9ba9b0f87ca,,,,,,,,,,,149.2379,149.7376,,,149.9882,151.0377,left,,,,,,,,0.5,1.0418,,,,,,,149.7376,149.9881,151.0377,"[-0.022705824921979572,-0.026010103752597092]",4.0,"[-0.0050709781852015055,-0.07747180939216332]",100.0,"[0.02459738329745341,-0.02123673873874862]",100.0,"[-0.12922130489370573,-0.15243196182663138]",4.0,"[-0.15492355203186003,-0.058068530665451604]",100.0,"[0.13588715981953986,-0.1457335993709203]",4.0,"[0.026136779104722486,0.024457593832593827]",100.0,"[0.10404783680225248,0.06414716845474218]",100.0,"[-0.1260775518027063,-0.024627229805217817]",100.0,"[-0.062003190238909545,0.0675321564347404]",4.0,"[0.040327387185518454,0.09043071308459015]",100.0,"[0.03421028610761284,-0.15478706363964703]",100.0,"[0.18214277770388637,0.07644678465605399]",4.0,"[0.16612886093981766,-0.06522259086300254]",100.0,"[-0.04622712458680262,0.12095151433386506]",4.0,"[-0.09862304292558302,-0.09983544395032057]",100.0,"[-0.11753104951262514,0.12529846483590829]",4.0,"[-0.04977554854549854,0.1879141442613033]",4.0,"[-0.06939762342877655,-0.050713025792552366]",4.0,"[0.1245585698750699,0.025445262563212546]",100.0,"[-0.023056632166714892,-0.125414289394905]",100.0,"[0.022558562789894723,0.19499109362630793]",4.0,"[0.03388304535694336,-0.09079673942355468]",4.0,"[0.06799231555982338,-0.03304476747117357]",100.0,"[0.08373548941548785,-0.17037956022964248]",4.0,"[-0.11474448144304097,0.06801643653462763]",100.0,"[-0.184781842688744,0.066926025371648]",100.0,"[0.07077788445611587,-0.0745289611319445]",4.0,"[0.09789171059226551,-0.1214524897482524]",100.0,"[-0.09163397323749244,0.1571187800113358]",4.0,"[0.0787475442346636,0.14501977305315858]",4.0,"[0.06504578007817303,0.009650136592652661]",4.0,"[0.02,0.02]",152.1377,0.0,31.0,31.0,113.0,1.0,,,,,,,
,,,,,,,6773ea482c488f0e35bd7b5c,6842bbd118fcc34cd77fab51,2025-06-06_10h58.52.797,shape_ratio,2024.1.5,Win32,59.52380952,6842b561977af9ba9b0f87ca,,,,,,,,,,,152.1382,152.6377,,,152.8878,153.6544,right,,,,,,,,0.4,0.7513,,,,,,,152.6377,152.8878,153.6544,"[-0.05911572378881973,-0.14803939746733943]",4.0,"[0.12867138889491933,-0.00927045020760644]",100.0,"[0.04789226816475125,0.18702666168277707]",4.0,"[-0.006594071408228609,0.13314884237788893]",100.0,"[-0.06103925528987376,0.0928856113585201]",4.0,"[-0.034683964573916995,0.04309559347760172]",4.0,"[0.03217421457384672,-0.18010062106452276]",100.0,"[-0.10859219345617871,0.09276625364388917]",4.0,"[-0.17093039353727998,-0.05314237599376925]",100.0,"[-0.11515824006146216,-0.07003300053758814]",100.0,"[-0.050289581932002156,0.17543587305680525]",4.0,"[0.006271251720587308,0.1942957008171247]",4.0,"[-0.03327129579879924,-0.018640795033948963]",4.0,"[-0.09187451378795047,0.043304812045100505]",4.0,"[0.14479725387907924,-0.05455635698548187]",100.0,"[-0.1030636997237542,-0.010101030487030756]",100.0,"[-0.18531485424960395,0.06009148231934564]",4.0,"[-0.15401900948183767,0.034732588167566456]",4.0,"[0.040974537182513676,-0.11303684991569485]",100.0,"[0.17915213644513975,0.03730173801939718]",4.0,"[0.04788858695749838,0.023514928927583542]",4.0,"[0.006865418239287209,0.08197613888701916]",100.0,"[0.11024088162993155,-0.08135518478361166]",100.0,"[0.04100460548009294,0.11745580002281898]",4.0,"[-0.11045254687913866,-0.1645418287786613]",100.0,"[0.052867831600839695,-0.031249594585864276]",4.0,"[-0.06125833097512421,-0.07155838181007236]",100.0,"[0.08558955147273277,-0.13362466688308908]",100.0,"[-0.009697518831136977,-0.18187521496913336]",4.0,"[0.07817764966067224,0.09725323450739783]",4.0,"[0.12357652689585216,0.1493790362591104]",4.0,"[0.12374947079912779,0.03047284621369867]",4.0,"[0.02,0.02]",154.7544,0.0,32.0,32.0,169.0,1.0,,,,,,,
,,,,,,,6773ea482c488f0e35bd7b5c,6842bbd118fcc34cd77fab51,2025-06-06_10h58.52.797,shape_ratio,2024.1.5,Win32,59.52380952,6842b561977af9ba9b0f87ca,,,,,,,,,,,154.755,155.2542,,,155.505,156.171,right,,,,,,,,0.6,0.6509,,,,,,,155.2542,155.505,156.171,"[-0.07633317004515155,0.025569555709650638]",4.0,"[-0.13842723298183968,-0.10135708542542184]",4.0,"[0.0766804704806739,0.14149747385542083]",100.0,"[-0.049698330779110934,-0.14838720895652763]",100.0,"[0.006650576672271142,-0.1404628170571342]",4.0,"[0.08070839428682336,-0.051941337128475165]",100.0,"[0.02118508185253581,-0.009965397609049463]",100.0,"[-0.021042850519381325,-0.02275282733201885]",100.0,"[-0.07234742125470735,0.14138328992241286]",100.0,"[0.030396324694783938,0.04123058261870081]",100.0,"[0.06845844928360399,-0.010688217043906243]",100.0,"[-0.021181925128508423,0.15576229538834516]",4.0,"[0.18481408593469206,-0.0312698450634936]",4.0,"[0.14401630228798243,0.12390101703178359]",100.0,"[0.14180999402101974,0.04214385294623812]",100.0,"[-0.1383574369844298,0.11852894607405857]",100.0,"[-0.07494369839130165,-0.06500178998146955]",100.0,"[0.1435828642763207,-0.047606869977926576]",100.0,"[0.15707593234013542,0.08446694769805471]",100.0,"[-0.12582460843023516,-0.05361349580084564]",4.0,"[-0.04334624457046349,-0.09522952583213558]",4.0,"[-0.005548178527120023,0.06310096402975221]",4.0,"[0.03402827367733818,-0.08737668563900382]",100.0,"[-0.17427214987843304,-0.021801915727741313]",4.0,"[0.08049573184206034,0.05005373467494579]",100.0,"[-0.11321497795016458,-0.15594089079252949]",4.0,"[-0.0709272170715823,0.10027901773378244]",4.0,"[-0.011202044328234318,0.10962578876528123]",4.0,"[0.03935482508865396,0.08529855303023166]",100.0,"[0.19188099973145195,0.03571866015885262]",4.0,"[-0.04823857131480086,-0.1922980376714318]",100.0,"[0.06607717301876037,-0.11508788544857532]",100.0,"[0.02,0.02]",157.271,0.0,33.0,33.0,31.0,1.0,,,,,,,
,,,,,,,6773ea482c488f0e35bd7b5c,6842bbd118fcc34cd77fab51,2025-06-06_10h58.52.797,shape_ratio,2024.1.5,Win32,59.52380952,6842b561977af9ba9b0f87ca,,,,,,,,,,,157.2714,157.7712,,,158.021,158.5377,right,,,,,,,,0.5,0.502,,,,,,,157.7712,158.021,158.5377,"[-0.09070513175887725,-0.1762697892349875]",100.0,"[-0.1687970051505143,-0.08562836303815143]",100.0,"[-0.002164237433850384,-0.10720614790542796]",4.0,"[0.10139808075466125,-0.05261651202565712]",100.0,"[0.17098660889915268,-0.04253878212704757]",100.0,"[0.031794101802723254,0.07836311302985335]",4.0,"[-0.06950929884825903,0.09047245154894402]",4.0,"[0.13368696079566042,0.017413886903518024]",4.0,"[0.044748215545921476,0.1437412188434273]",4.0,"[-0.10193092776557516,0.13003510095830348]",4.0,"[0.06097585525463298,0.014133071583308825]",4.0,"[-0.16108502031939742,0.10936899209294945]",4.0,"[-0.11744565037142156,-0.12251622023034338]",4.0,"[-0.05198389505020171,-0.051804784463878546]",4.0,"[0.1246562315624765,0.10502798423703472]",100.0,"[-0.01468693090966536,0.1864695740623992]",4.0,"[-0.12286406265297706,-0.017846643949950572]",4.0,"[-0.18804835662994918,0.014706717004998447]",100.0,"[-0.07234586999590562,0.03818971634809479]",100.0,"[0.17485388775669714,0.06444416604656239]",100.0,"[0.07283405736564659,-0.125464742054234]",100.0,"[-0.12406251800905634,0.0502774071611956]",4.0,"[0.04107782122229835,-0.1784299743659244]",4.0,"[0.0037622066639306376,0.017041331374727617]",4.0,"[0.1196636894892349,0.1500694725002949]",100.0,"[0.033064004386469385,-0.06843046567689974]",100.0,"[-0.03556484917493277,0.1268461475732582]",100.0,"[-0.06278095834628801,0.16891063200047748]",4.0,"[-0.013977428574405558,-0.1968450455798601]",100.0,"[0.15628946030280622,-0.10953456203786381]",100.0,"[0.1854189801272188,-0.005087315639495643]",100.0,"[-0.03169668417169647,-0.15084290222842256]",100.0,"[0.02,0.02]",159.6377,0.0,34.0,34.0,92.0,1.0,,,,,,,
,,,,,,,6773ea482c488f0e35bd7b5c,6842bbd118fcc34cd77fab51,2025-06-06_10h58.52.797,shape_ratio,2024.1.5,Win32,59.52380952,6842b561977af9ba9b0f87ca,,,,,,,,,,,159.638,160.1376,,,160.3878,160.9376,right,,,,,,,,0.9,0.5406,,,,,,,160.1377,160.3878,160.9377,"[-0.08886842212994774,-0.023665437038302994]",100.0,"[-0.09100493395098525,-0.07867742856074235]",100.0,"[-0.15809979809851923,-0.09360582425234322]",100.0,"[0.017604624907378044,-0.02065559675618141]",100.0,"[0.05637745475363338,0.10391184426217001]",100.0,"[0.03007621416420422,-0.08690035496196606]",100.0,"[0.07991159960737282,-0.02532077842393023]",100.0,"[-0.0017372848985626158,-0.15910861037484744]",100.0,"[0.14617016842730457,-0.021035543176057086]",100.0,"[0.059564793225263354,-0.1619921702062392]",100.0,"[0.12142729786022864,-0.1445894397695486]",100.0,"[-0.18626856000762274,-0.02413988724180425]",100.0,"[-0.11061337560213219,0.10039313222945993]",4.0,"[-0.10799565403373748,0.0232109203997798]",100.0,"[-0.07163062854689456,-0.15942912083656474]",100.0,"[0.09080056987893761,-0.07020540544878853]",100.0,"[0.18164095751541642,0.007584838565616043]",100.0,"[-0.05484862596645897,0.1132288829751063]",4.0,"[0.1380190131514863,0.06812353903857284]",100.0,"[-0.038475256461669965,-0.07116596606234452]",100.0,"[-0.07433241557414856,0.1793837657677462]",100.0,"[-0.175019453143448,0.09496655867529809]",100.0,"[0.009322831204514291,0.0963456221715164]",4.0,"[0.1110624970659604,0.13640907306843444]",100.0,"[-0.07250511067622274,0.060852421953302295]",100.0,"[0.182948429377495,0.054479354313353996]",100.0,"[0.10033436584759604,0.014153888819759642]",100.0,"[0.12802850355664522,-0.0940089456336511]",100.0,"[0.021089075354003162,0.18882342074840316]",100.0,"[0.059732940593240455,0.16221077778594892]",100.0,"[0.04652481102770132,0.019545247939130726]",100.0,"[0.1721284741778127,-0.05173665372128572]",100.0,"[0.02,0.02]",162.0378,0.0,35.0,35.0,5.0,1.0,,,,,,,
,,,,,,,6773ea482c488f0e35bd7b5c,6842bbd118fcc34cd77fab51,2025-06-06_10h58.52.797,shape_ratio,2024.1.5,Win32,59.52380952,6842b561977af9ba9b0f87ca,,,,,,,,,,,162.0381,162.5377,,,162.7877,163.4045,right,,,,,,,,0.4,0.5997,,,,,,,162.5377,162.7877,163.4046,"[-0.028540051767039755,0.17258486397816142]",4.0,"[-0.08232296763478726,-0.09623370862278946]",100.0,"[0.10650288385053051,-0.06011309589378219]",4.0,"[0.018004038343773333,-0.12074988397112493]",4.0,"[-0.14314798247580215,-0.06270548530239607]",100.0,"[-0.034792647708767166,-0.16229203261521957]",4.0,"[-0.08490983901711678,0.040943605716864125]",4.0,"[0.0627364467985279,-0.07665134361889218]",4.0,"[-0.18378108527601203,-0.004640484540114033]",4.0,"[-0.14087769859540353,0.0662547674014988]",4.0,"[0.1374158510980201,0.014113390432188826]",4.0,"[-0.0024157015166617443,0.10006662594449513]",100.0,"[0.14685723210172336,0.130005249867729]",100.0,"[-0.11608441106353239,0.1502080094336888]",100.0,"[0.10674737991342227,0.06894875521415238]",100.0,"[0.1432762710857419,-0.10018415735935916]",100.0,"[0.05940934845578613,0.046303590668545135]",100.0,"[-0.08652150143846044,-0.022806374126343742]",4.0,"[0.002365306603711466,-0.07033915917798202]",100.0,"[-0.1242554186494365,0.014145158189360189]",4.0,"[0.08478637800457414,-0.14242241195811894]",4.0,"[-0.014482265722500344,0.012429377715898731]",100.0,"[-0.04605553960625447,-0.06831106869417017]",4.0,"[0.07605418490967367,-0.015949164822165927]",100.0,"[-0.04524267987804195,0.09037766509574938]",4.0,"[0.023438836780784796,0.1790651057059692]",4.0,"[-0.10081771092615252,-0.1594508900760062]",4.0,"[0.14685321232182744,-0.05894610604362042]",100.0,"[0.08630057939660882,0.10810618319203862]",4.0,"[-0.0017805288482666258,0.05904843802148621]",4.0,"[0.14633502247912294,0.08645829236142206]",100.0,"[0.053390527322043725,-0.18174736136506545]",4.0,"[0.02,0.02]",164.5042,0.0,36.0,36.0,152.0,1.0,,,,,,,
,,,,,,,6773ea482c488f0e35bd7b5c,6842bbd118fcc34cd77fab51,2025-06-06_10h58.52.797,shape_ratio,2024.1.5,Win32,59.52380952,6842b561977af9ba9b0f87ca,,,,,,,,,,,164.5048,165.0044,,,165.2549,165.9378,right,,,,,,,,0.55,0.6756,,,,,,,165.0044,165.2548,165.9378,"[0.14813778666392113,0.08361081843565532]",4.0,"[-0.14104021059830696,-0.12407515808726038]",4.0,"[-0.158854206527151,-0.0730952041235964]",100.0,"[0.12858880044615906,-0.004106040767354417]",100.0,"[0.1414741991705259,-0.07180603351055036]",100.0,"[-0.08554720760931356,0.048199543125714915]",4.0,"[-0.027521815589509495,-0.16863918304666345]",100.0,"[0.050519130313498174,-0.057335392514998786]",4.0,"[0.19440490466441976,-0.012228595003958015]",4.0,"[-0.06644584529622206,-0.13129912376477754]",100.0,"[0.04983792699123139,0.13162736240981102]",4.0,"[-0.04435306276959931,0.06542738771838709]",100.0,"[0.09298538407026684,0.0746614909781752]",100.0,"[-0.0571163159771117,0.13218814021924682]",4.0,"[0.11074910363327062,0.1505604659714764]",4.0,"[0.028863199636642387,-0.1564513235813015]",100.0,"[0.038448736007875454,0.17491065363518232]",100.0,"[0.004102525832236841,-0.064654567288397]",100.0,"[0.013086231965227098,0.10950739847086877]",100.0,"[-0.17908565145822633,0.023303555948206257]",100.0,"[-0.02777515589004007,0.023706099743365794]",4.0,"[0.0946497071259482,-0.12318135520016522]",4.0,"[0.13658058970325934,-0.1388308253276541]",100.0,"[-0.028195964729199424,0.160704835265809]",4.0,"[0.05059413074355897,0.018341294494362628]",4.0,"[-0.1489618629579431,0.06790104349025121]",100.0,"[-0.09893731173967094,-0.012893280566443927]",4.0,"[0.08735931476330046,-0.022808340329856982]",100.0,"[-0.09502523285203748,0.14589435378340984]",100.0,"[-0.038201148427340695,-0.049427902721736645]",100.0,"[0.06617407232870488,-0.17399742948700234]",100.0,"[0.010080168030769927,0.04362074443252539]",4.0,"[0.02,0.02]",167.0376,0.0,37.0,37.0,70.0,1.0,,,,,,,
,,,,,,,6773ea482c488f0e35bd7b5c,6842bbd118fcc34cd77fab51,2025-06-06_10h58.52.797,shape_ratio,2024.1.5,Win32,59.52380952,6842b561977af9ba9b0f87ca,,,,,,,,,,,167.0379,167.5375,,,167.7877,168.888,right,,,,,,,,0.55,1.0856,,,,,,,167.5375,167.7877,168.8881,"[0.04358469243650048,-0.07122281558141744]",4.0,"[-0.047842374410398986,-0.17822124529033315]",4.0,"[-0.04791602902868973,-0.10820708795539231]",100.0,"[-0.020674338531744295,0.13346759219803678]",100.0,"[-0.1822832301882322,-0.007739232910612374]",4.0,"[-0.10948125333554193,-0.022636178012487195]",4.0,"[0.09485290832763066,0.16845299671311295]",100.0,"[0.14640701084002658,-0.02448644394182988]",100.0,"[0.05009514234554812,0.007187265845446575]",100.0,"[0.09338340063940787,-0.11802861009265724]",100.0,"[0.1456709794970319,-0.06456252484078259]",4.0,"[0.09392303369002059,-0.06997563922920635]",100.0,"[-0.1640280592237632,0.10778310592229577]",4.0,"[-0.08924590438986311,0.018346182927331953]",100.0,"[0.0025199828880629344,0.05911888597990034]",4.0,"[-0.04912587191173441,-0.017435111608529744]",100.0,"[-0.12747856595516976,-0.12238646584015091]",4.0,"[-0.07645811693327625,-0.0714207026638966]",100.0,"[0.044847152635501986,0.10382236293675302]",100.0,"[0.08831654564944462,0.06919594821507069]",100.0,"[-0.1576243202177634,-0.07985230613355769]",100.0,"[0.025699574105539358,0.15692965518011465]",100.0,"[-0.12450519264442295,0.12823109293472135]",4.0,"[0.1607424882209156,-0.10872163902120016]",100.0,"[-0.030543817599765044,0.1972966526384328]",100.0,"[0.05276184268710782,-0.1747454261257187]",4.0,"[0.0038770496148920466,0.0003803631754605248]",4.0,"[-0.08139475440738346,0.10749181025339817]",100.0,"[-0.07414075952967704,0.16612738232975757]",4.0,"[0.1656265879672557,0.09467304525138444]",4.0,"[0.1889492814691994,-0.036451212294903695]",100.0,"[0.11264536810639182,0.009759689201154786]",4.0,"[0.02,0.02]",169.9877,0.0,38.0,38.0,83.0,1.0,,,,,,,
,,,,,,,6773ea482c488f0e35bd7b5c,6842bbd118fcc34cd77fab51,2025-06-06_10h58.52.797,shape_ratio,2024.1.5,Win32,59.52380952,6842b561977af9ba9b0f87ca,,,,,,,,,,,169.9883,170.4876,,,170.7378,171.4043,right,,,,,,,,0.5,0.6515,,,,,,,170.4876,170.7378,171.4044,"[0.0860904965504542,0.17903523603614738]",100.0,"[0.13234041601348204,0.046055906002947254]",100.0,"[0.005503018260905291,0.08660062429653084]",100.0,"[-0.0167463626941842,-0.09408652738531299]",100.0,"[0.04079241917780129,-0.17401759712746337]",100.0,"[-0.06968787570499099,0.14414756741573787]",4.0,"[-0.047202825696629716,-0.1840278747587037]",100.0,"[0.08771783398418431,0.09861764917896718]",100.0,"[0.11806732312023673,0.0014190321863931834]",4.0,"[-0.057202142681334,-0.12269104258790482]",4.0,"[-0.005004514611960092,0.02801517456448891]",100.0,"[0.1473800406050628,0.1192230184652291]",4.0,"[-0.12589901684493188,-0.0745917523913299]",4.0,"[0.10999691701523194,0.14667406525018933]",4.0,"[0.16612510549866724,-0.025786114216149302]",100.0,"[-0.11381383382110123,-0.13322870527987352]",4.0,"[0.041634636274801885,-0.1263748427449648]",100.0,"[-0.16684662306017783,-0.09835907621096997]",4.0,"[0.04694937948254652,0.022168054511410424]",100.0,"[-0.11157990734655945,0.023306232957665266]",100.0,"[-0.029817585402160986,0.13833495374780408]",4.0,"[0.029134820962513967,0.15536571244332384]",100.0,"[0.004649228277328262,-0.032505790981489716]",4.0,"[-0.06186542322849757,0.00020376378462861055]",4.0,"[0.09592270137017557,-0.06203334318704642]",4.0,"[0.18820204820058126,0.008062237976326018]",100.0,"[-0.17568711239922627,0.06074297120961691]",4.0,"[-0.022412826035838957,-0.15238237463660018]",100.0,"[-0.19229761299676365,0.012603865569110941]",4.0,"[-0.10912723135095595,-0.03617790528765442]",4.0,"[-0.14317145360551786,0.11627689579032272]",100.0,"[0.14627278219081505,-0.10118495801913571]",4.0,"[0.02,0.02]",172.5042,0.0,39.0,39.0,96.0,1.0,,,,,,,
,,,,,,,6773ea482c488f0e35bd7b5c,6842bbd118fcc34cd77fab51,2025-06-06_10h58.52.797,shape_ratio,2024.1.5,Win32,59.52380952,6842b561977af9ba9b0f87ca,,,,,,,,,,,172.5045,173.0045,,,173.2543,174.171,right,,,,,,,,0.9,0.9091,,,,,,,173.0046,173.2543,174.1711,"[0.09168768115204533,0.09344814158524208]",100.0,"[0.0781170966711852,-0.07618955657341356]",4.0,"[-0.08669915375487619,0.12675935315633066]",100.0,"[-0.02315752087081574,0.13182554940591018]",100.0,"[0.1778090034262516,0.05477886302304553]",100.0,"[0.01531598385354353,-0.050827282819223066]",100.0,"[-0.15795244961020657,0.09973967665899737]",100.0,"[-0.152640698676609,-0.042332240696200264]",100.0,"[0.05518196084855333,0.048933919441462095]",100.0,"[0.045613292926435935,0.1158619012582564]",100.0,"[0.12684917314373678,-0.02613837943621341]",100.0,"[0.16801205575419242,-0.05820087355559388]",100.0,"[0.020511577856584907,0.07150910882643882]",4.0,"[0.0005991391150454488,-0.14406265248431807]",100.0,"[-0.07732384306916658,0.055007139688257045]",100.0,"[0.03285973517782408,0.16735585160196326]",100.0,"[-0.03126676060060999,-0.09344127470958014]",100.0,"[0.11714582539335729,-0.0872174322375378]",100.0,"[-0.09536753208125648,-0.05020003847820465]",100.0,"[-0.06032074793691752,-0.005146042239422604]",100.0,"[0.08306703845164669,0.1467253289458482]",100.0,"[0.12195914763234876,-0.14014279959647316]",100.0,"[-0.0588033105506124,0.17161352146685124]",100.0,"[-0.04608794165884668,-0.14415508644616343]",100.0,"[0.19369579414284652,-0.0010568176823411166]",100.0,"[-0.12665186814504423,-0.09776983120393705]",100.0,"[0.011312833329335192,0.004093319451324774]",100.0,"[-0.12934005052509165,-0.0038009983625605366]",100.0,"[-0.1312114717729494,0.04541546956406115]",4.0,"[-0.03896129159413605,0.04067492419648169]",100.0,"[0.06517859346235089,-0.12935228620794928]",100.0,"[0.05190730664935484,-0.002256378272587241]",100.0,"[0.02,0.02]",175.2711,0.0,40.0,40.0,15.0,1.0,,,,,,,
,,,,,,,6773ea482c488f0e35bd7b5c,6842bbd118fcc34cd77fab51,2025-06-06_10h58.52.797,shape_ratio,2024.1.5,Win32,59.52380952,6842b561977af9ba9b0f87ca,,,,,,,,,,,175.2715,175.771,,,176.0214,176.6544,right,,,,,,,,0.55,0.625,,,,,,,175.7711,176.0214,176.6544,"[0.029943879190543986,-0.15557960311751798]",100.0,"[0.006817516216186744,0.02373389861243735]",4.0,"[-0.04040156657975584,-0.12462054923513893]",4.0,"[-0.18568841308685483,0.051572298879656225]",4.0,"[0.06529772031116274,0.14181483475601117]",4.0,"[-0.01694580085191419,-0.06912168145732642]",100.0,"[-0.160914452647453,-0.0450170303068684]",100.0,"[-0.1088295814717429,-0.13723774591272503]",100.0,"[-0.09182425883259868,0.1615854827840538]",4.0,"[0.14840514750496056,0.0838621217142521]",100.0,"[0.043397826773342855,-0.027036775926373293]",100.0,"[0.09857186555183198,-0.01003494588318914]",4.0,"[0.0716227360145175,0.06774108385595291]",100.0,"[-0.11739367646752931,-0.000044351866852456376]",100.0,"[0.02316759119142151,-0.10584427453903222]",100.0,"[0.02408515369242972,0.07032535071514001]",4.0,"[-0.028873319239707526,0.1291164910122294]",100.0,"[-0.0853390546394386,-0.07829780082632384]",4.0,"[-0.14211803626798625,-0.09700763383334297]",100.0,"[-0.06638606025533472,-0.03415339959921919]",4.0,"[0.135951282030214,-0.06404118202547952]",100.0,"[-0.1815206924255072,-0.08364055833280032]",4.0,"[0.15911603329384483,-0.026361823762965378]",100.0,"[0.01896057313572505,0.13244878006182054]",4.0,"[0.001912333853394634,0.19695716054254558]",100.0,"[0.05488233098418822,-0.0778696467011561]",100.0,"[0.12307164924115617,0.13789185834654014]",100.0,"[-0.09534829858523747,0.05570141320947148]",4.0,"[-0.13277403323405443,0.1304024302637475]",4.0,"[-0.0692692534822295,-0.17630347334677868]",4.0,"[-0.1842523874051851,0.005270227988622798]",100.0,"[-0.02659827514661737,0.08510679509609671]",100.0,"[0.02,0.02]",177.7541,0.0,41.0,41.0,78.0,1.0,,,,,,,
,,,,,,,6773ea482c488f0e35bd7b5c,6842bbd118fcc34cd77fab51,2025-06-06_10h58.52.797,shape_ratio,2024.1.5,Win32,59.52380952,6842b561977af9ba9b0f87ca,,,,,,,,,,,177.7548,178.2543,,,178.5047,179.2882,right,,,,,,,,0.4,0.7801,,,,,,,178.2543,178.5047,179.2884,"[0.12850397597058402,0.1344897275696836]",4.0,"[0.11319465674247821,-0.014044596464030577]",4.0,"[-0.19612782515115762,-0.005015544067565439]",4.0,"[0.12406795208107728,0.025236540518105272]",100.0,"[-0.14262643038290002,-0.12216502829901714]",100.0,"[-0.11356383206987153,-0.013054552405826004]",4.0,"[-0.07922746103966022,-0.13367808337809897]",100.0,"[-0.04871126365191258,0.19112406254095643]",100.0,"[-0.009572091243161615,-0.15361736321514657]",100.0,"[0.06014299279490966,0.023024172130770196]",4.0,"[-0.04889631611919322,0.006740962707455739]",4.0,"[0.11291621856654072,0.09193623999214787]",4.0,"[-0.09314556582396798,0.08576394834107699]",100.0,"[0.18564784238963522,-0.015493441447082755]",4.0,"[-0.045158605940956414,0.14319765797053932]",100.0,"[0.12268181022691163,-0.05496553136472587]",4.0,"[-0.13800979786610276,0.10164699195233082]",4.0,"[0.1017810351765819,-0.11558329211267224]",4.0,"[0.013229878748683121,0.050541377378885845]",4.0,"[0.012416707170399884,0.1819907794186205]",100.0,"[0.029271112251880737,-0.07841916711803262]",100.0,"[-0.060479012982798626,-0.04243254084989957]",100.0,"[-0.032428365435657615,-0.07441974404975676]",4.0,"[0.016686231836836297,-0.023515538619021472]",4.0,"[0.019243075233501276,0.10140502240204671]",100.0,"[0.11410205731898744,-0.1637939975327845]",4.0,"[-0.08968566630240014,-0.07250022320026699]",4.0,"[0.06573644844546447,0.10929101828540168]",4.0,"[0.059580499069577936,-0.1661874144338889]",4.0,"[0.085564194727898,0.17406106829578244]",4.0,"[-0.03219642519474425,0.09357216783496419]",100.0,"[0.17494706770333646,-0.09041740511188698]",100.0,"[0.02,0.02]",180.3875,0.0,42.0,42.0,163.0,1.0,,,,,,,
,,,,,,,6773ea482c488f0e35bd7b5c,6842bbd118fcc34cd77fab51,2025-06-06_10h58.52.797,shape_ratio,2024.1.5,Win32,59.52380952,6842b561977af9ba9b0f87ca,,,,,,,,,,,180.388,180.8876,,,181.1383,181.588,left,,,,,,,,0.55,0.4406,,,,,,,180.8877,181.1382,181.588,"[-0.13824168933587871,0.036222555243413036]",4.0,"[-0.11889044745116224,-0.12524058716488415]",4.0,"[-0.05144999779249074,-0.09899318573026013]",100.0,"[0.046971909341028656,-0.049113465265755406]",100.0,"[0.11778942647411947,-0.1545131483180491]",100.0,"[-0.029083224383951514,0.017337620516405444]",100.0,"[0.1806184882750825,-0.06457727748467895]",100.0,"[0.040999855171238546,0.14135938370578852]",100.0,"[-0.01887966330092995,-0.15826307685439325]",4.0,"[0.1103202815346826,-0.10085018536681198]",4.0,"[-0.0010637746799765492,-0.07826861897430537]",4.0,"[0.1417837156225716,0.1321481925929289]",100.0,"[-0.10954009196724306,-0.028765890879486188]",100.0,"[0.18923425213872333,0.057163211313981534]",4.0,"[0.022224132042060578,0.10444772755419891]",4.0,"[0.03561796915376001,-0.16723321376286462]",4.0,"[-0.1826373701438401,-0.06459551386319129]",4.0,"[-0.1251539184515464,0.14708896038276786]",100.0,"[0.09614461421074907,0.1121730848165133]",100.0,"[-0.07105087992936286,0.0759217512985346]",100.0,"[-0.07668774205819144,-0.1454350673066299]",100.0,"[0.10515810038127166,0.009047097112721638]",4.0,"[-0.11797063384243667,0.09701694476834266]",100.0,"[0.026408646834234197,0.016146648326775676]",4.0,"[0.1408280344785325,-0.029758250793222044]",4.0,"[-0.010001314755555088,0.15364914178902506]",4.0,"[0.1490815405053088,0.01696464122079205]",100.0,"[-0.15513306134837632,0.12004988997737039]",100.0,"[-0.04989413241908721,0.11478861219930396]",100.0,"[-0.11443017746138169,-0.07787632180351942]",100.0,"[-0.19319981496997884,0.027373841064923188]",100.0,"[0.09097740464436282,-0.04806060408463377]",4.0,"[0.02,0.02]",182.6876,0.0,43.0,43.0,84.0,1.0,,,,,,,
,,,,,,,6773ea482c488f0e35bd7b5c,6842bbd118fcc34cd77fab51,2025-06-06_10h58.52.797,shape_ratio,2024.1.5,Win32,59.52380952,6842b561977af9ba9b0f87ca,,,,,,,,,,,182.688,183.1876,,,183.438,183.9046,right,,,,,,,,0.55,0.4499,,,,,,,183.1876,183.4379,183.9046,"[0.035872253139301986,0.019213324070106987]",100.0,"[0.09109266673506565,-0.16675352558942586]",4.0,"[0.10163178881074933,0.13223337636809343]",4.0,"[0.06939143907959952,0.056157436235814755]",100.0,"[-0.0603721287959029,-0.05098289342566985]",100.0,"[0.044029480985613156,-0.03165891396451673]",4.0,"[-0.06721629865346816,0.065478681783403]",100.0,"[0.04580081173951744,-0.085604986563514]",4.0,"[-0.12499446699222894,0.08930140862859354]",4.0,"[0.02676625304763808,0.0736811745386564]",4.0,"[-0.06091906744249455,-0.11706262722509249]",100.0,"[-0.11890356074451705,-0.14303243447820624]",4.0,"[-0.04446942604474455,0.1287176298426696]",4.0,"[-0.11459754989597526,0.016492623477249717]",4.0,"[0.10938795874844356,-0.050531043425279816]",100.0,"[0.0006437761135754331,0.1563937824865756]",100.0,"[0.08536304020816343,-0.1016035366010184]",4.0,"[0.006435941997910346,-0.14050464791242084]",100.0,"[-0.1905375719512438,0.03173953167577903]",100.0,"[-0.05587980123777956,-0.1744704784529879]",100.0,"[0.0006217855268696312,-0.03818771083313296]",4.0,"[0.16752522936270006,0.0949958463033886]",100.0,"[-0.013666174371409627,0.05759591920485479]",4.0,"[0.18694015630828614,-0.00043564153800110136]",100.0,"[-0.024612407254552278,-0.08850247605206973]",4.0,"[0.044632060358785856,-0.15946341374430728]",100.0,"[0.15289762472990415,-0.11934771264497646]",100.0,"[-0.17151712566603708,-0.06570846026417199]",100.0,"[0.12437255165248493,0.0655892832872232]",100.0,"[0.1526843177646415,-0.0781132228303981]",100.0,"[0.10972120590213016,0.022206967575533493]",100.0,"[-0.011978593908229713,0.10218118127906756]",4.0,"[0.02,0.02]",185.0043,0.0,44.0,44.0,64.0,1.0,,,,,,,
,,,,,,,6773ea482c488f0e35bd7b5c,6842bbd118fcc34cd77fab51,2025-06-06_10h58.52.797,shape_ratio,2024.1.5,Win32,59.52380952,6842b561977af9ba9b0f87ca,,,,,,,,,,,185.0047,185.5043,,,185.7545,186.2712,left,,,,,,,,0.45,0.5107,,,,,,,185.5043,185.7545,186.2713,"[-0.12464713078042734,0.056368283875668265]",100.0,"[0.028977779253996406,-0.05465805128132504]",100.0,"[0.08618079144911592,0.11537122981446168]",4.0,"[-0.13183218801522775,0.0056218682819523785]",4.0,"[-0.0698582593253822,-0.0671323130435673]",100.0,"[0.12192367350631503,-0.011653376960487861]",4.0,"[0.04837901407333759,0.03183002281990234]",4.0,"[0.17796471629924632,-0.021618498311442396]",4.0,"[-0.04340493610653371,-0.16435084894887622]",4.0,"[0.165710144576311,0.07564217280598325]",4.0,"[-0.1701390161454779,0.08871433705137885]",4.0,"[-0.1746831808567514,0.02407259555197248]",4.0,"[-0.04939725323864184,0.14207424639710084]",4.0,"[-0.013944251424356882,-0.11708518554652235]",100.0,"[0.01958382616751542,-0.14882088661550485]",100.0,"[-0.05490632735481982,0.025054935184618075]",4.0,"[-0.00022860324402178842,0.06873284532562907]",100.0,"[0.045724635318905804,0.19368995479217221]",100.0,"[-0.11807560244931242,-0.07901649166135659]",4.0,"[-0.06525430310904297,0.09475326337669736]",4.0,"[-0.020413652960221546,-0.028455455283857668]",4.0,"[0.15358266549576224,-0.05444010773034938]",100.0,"[0.16770785438970626,-0.09620151061456148]",100.0,"[0.1501284653460537,0.11805837139240417]",4.0,"[-0.010791796788488291,0.12075089387265556]",4.0,"[0.11099353127346098,-0.13355867016036488]",4.0,"[-0.03128489058109894,0.17961531184072552]",4.0,"[0.05643634250126266,-0.015383703464317047]",100.0,"[-0.12109457041818433,-0.1288461407547225]",100.0,"[0.05840090634655368,-0.1324970306563955]",100.0,"[0.07079810111544337,-0.18577124496889968]",100.0,"[0.022974704974366832,-0.18902690609377504]",100.0,"[0.02,0.02]",187.3709,0.0,45.0,45.0,123.0,1.0,,,,,,,
,,,,,,,6773ea482c488f0e35bd7b5c,6842bbd118fcc34cd77fab51,2025-06-06_10h58.52.797,shape_ratio,2024.1.5,Win32,59.52380952,6842b561977af9ba9b0f87ca,,,,,,,,,,,187.3714,187.871,,,188.1216,188.6043,right,,,,,,,,0.9,0.4654,,,,,,,187.871,188.1216,188.6043,"[-0.05092427382229195,-0.19152838163245933]",100.0,"[0.014137159656858227,0.029586439684573498]",100.0,"[-0.15707389434337446,0.006897951251212481]",4.0,"[-0.030627337134903423,0.01137243823355313]",100.0,"[0.005594636495009178,-0.06904767655800477]",4.0,"[0.06705849107266063,-0.008558665319913322]",100.0,"[0.15327232094335735,-0.07636438014265136]",100.0,"[-0.0928439557631222,-0.05195280703948989]",100.0,"[0.058192329837989186,0.10712794978101815]",100.0,"[-0.10650941232142729,-0.09122364941594226]",100.0,"[-0.07151174708176247,-0.13350958787763223]",100.0,"[-0.029865737142524808,0.11773126935277979]",100.0,"[-0.15461794372947246,-0.06806227000003677]",4.0,"[0.12905547723519695,-0.10935119231872543]",100.0,"[-0.10636578467041985,0.16251839680630412]",100.0,"[0.06446713680026635,0.15573436715872346]",100.0,"[0.004682683118314008,0.07993998125997583]",100.0,"[-0.015576406890808256,-0.12342192021575825]",100.0,"[0.01893989432809963,0.16138565463366572]",100.0,"[-0.1372476145722144,0.07191483343295735]",100.0,"[0.08161633711528746,0.0725859031162301]",100.0,"[-0.06551127184874522,0.14204542687586585]",100.0,"[-0.052430086726604805,0.1904036038579438]",100.0,"[0.06775885523045229,-0.15535260202445422]",100.0,"[0.11004000889321451,-0.009526365415211471]",100.0,"[0.11604706069970179,-0.05086165640345134]",100.0,"[0.15582805105827363,-0.02548621612414729]",100.0,"[0.15980082257534536,0.07622749962345757]",100.0,"[-0.08998231231677285,-0.17090516429478633]",100.0,"[-0.11409823381909209,0.0026266232131277384]",100.0,"[0.05732564002069255,-0.06692364158847483]",100.0,"[-0.1340189798872253,-0.14420291531839358]",100.0,"[0.02,0.02]",189.7047,0.0,46.0,46.0,18.0,1.0,,,,,,,
,,,,,,,6773ea482c488f0e35bd7b5c,6842bbd118fcc34cd77fab51,2025-06-06_10h58.52.797,shape_ratio,2024.1.5,Win32,59.52380952,6842b561977af9ba9b0f87ca,,,,,,,,,,,189.7052,190.2043,,,190.4544,191.1543,left,,,,,,,,0.45,0.6888,,,,,,,190.2044,190.4544,191.1544,"[-0.12937433669043788,0.0418903338518253]",4.0,"[0.10298239257768028,-0.13301279079040979]",4.0,"[-0.09058858848204156,-0.15763649507567412]",100.0,"[-0.1465816956027016,-0.13284517041050453]",4.0,"[0.08538510057488231,0.0015886695513654655]",4.0,"[-0.02080895128911119,-0.02545794344814413]",100.0,"[-0.0026425814043114565,0.15554072918680273]",100.0,"[0.15964469407031331,0.10361355969828705]",4.0,"[0.04642172993282201,0.033439705840091274]",100.0,"[0.059088289065582215,-0.11392033410907607]",100.0,"[0.08439965150224418,-0.06113610667795204]",4.0,"[-0.08676032129001032,0.10796134592322494]",4.0,"[-0.06194341814212558,-0.06114463619093476]",4.0,"[-0.043175081995108375,0.14820597515652784]",100.0,"[0.17930982660089417,-0.07169392750156377]",100.0,"[-0.025773388301318936,-0.15020390951337664]",4.0,"[0.14506255604397872,0.028533946400017964]",100.0,"[-0.011520951463295123,0.09174184229369961]",4.0,"[-0.061013031885789874,0.00547559105111019]",100.0,"[-0.03344719547762183,-0.10755590654620074]",4.0,"[-0.01979272225636827,-0.06791981540100628]",100.0,"[0.07174436030838872,0.10508229325374589]",4.0,"[0.09990796325178745,0.05320305843911395]",4.0,"[-0.1849225587902263,-0.06739615026152813]",100.0,"[-0.18067498720510675,0.0582157687351917]",4.0,"[0.08750308674212572,-0.1734614301991033]",100.0,"[-0.09909727244016855,-0.022277060409193784]",100.0,"[0.18439482202004143,-0.03149224185441299]",4.0,"[-0.09688879556780067,-0.11730601177106016]",4.0,"[0.18129809196961527,0.058259212952766516]",4.0,"[0.11399206506911864,0.159077676940466]",100.0,"[0.01694249677978576,-0.1276317886988375]",4.0,"[0.02,0.02]",192.2543,0.0,47.0,47.0,130.0,1.0,,,,,,,
,,,,,,,6773ea482c488f0e35bd7b5c,6842bbd118fcc34cd77fab51,2025-06-06_10h58.52.797,shape_ratio,2024.1.5,Win32,59.52380952,6842b561977af9ba9b0f87ca,,,,,,,,,,,192.2547,192.7544,,,193.0048,193.4546,right,,,,,,,,0.5,0.4359,,,,,,,192.7545,193.0048,193.4546,"[-0.0725464650697723,-0.12617153780599313]",100.0,"[0.0698546636147594,-0.1636864570886126]",100.0,"[-0.030900210511914477,0.17807574876574914]",4.0,"[0.0736319983751373,-0.1008620690341646]",100.0,"[-0.05206275875739743,-0.0815457752088646]",4.0,"[0.020573346714643583,0.11669701620811285]",4.0,"[0.13527746577615946,0.09238617136301898]",100.0,"[0.09996107063980467,0.020824544564567966]",4.0,"[-0.15225222140841158,0.09086139274411105]",4.0,"[0.051443247374111,0.01279470811754204]",100.0,"[-0.1332116910849826,-0.04682145209638645]",4.0,"[0.048118978875247916,-0.035157385470941285]",100.0,"[-0.023114300314743985,0.01909076452748575]",100.0,"[-0.07074070515358469,0.0937295130029175]",100.0,"[0.17349702189377536,0.031134055233554687]",100.0,"[0.0979505188828504,0.1507195670729226]",4.0,"[-0.09625210830550904,0.13600778643156064]",4.0,"[0.02066355723561504,-0.16546729310359704]",4.0,"[-0.038026663848221176,-0.15979840705597043]",100.0,"[-0.1667651499772016,-0.0065593166513436725]",100.0,"[0.19095705521082756,-0.03832824064975476]",100.0,"[-0.09125133112705673,0.05911105130343338]",4.0,"[0.11601827596957523,-0.09597677075915106]",100.0,"[-0.13402110012506455,-0.1480536917381863]",4.0,"[0.007313425679620512,-0.0899378154462089]",100.0,"[0.026267497631709096,0.05128621274403672]",100.0,"[0.08537520714029152,0.06564889669915436]",100.0,"[0.12988891354919138,-0.028075611547760754]",4.0,"[-0.16638043240498543,-0.08710640183333004]",4.0,"[-0.1777580073481493,0.040387148093828824]",4.0,"[-0.08719775019873474,-0.173589032302366]",4.0,"[-0.03302919108245606,0.06620263992865191]",4.0,"[0.02,0.02]",194.5543,0.0,48.0,48.0,101.0,1.0,,,,,,,
,,,,,,,6773ea482c488f0e35bd7b5c,6842bbd118fcc34cd77fab51,2025-06-06_10h58.52.797,shape_ratio,2024.1.5,Win32,59.52380952,6842b561977af9ba9b0f87ca,,,,,,,,,,,194.5545,195.0546,,,195.3047,196.3546,right,,,,,,,,0.5,1.0418,,,,,,,195.0546,195.3047,196.3547,"[0.1296782463558059,-0.07793460221805742]",100.0,"[0.06432461146791184,0.06607122029652135]",100.0,"[-0.0364417500127398,-0.06417948312807364]",100.0,"[-0.024630797259576846,0.15505250763188658]",100.0,"[0.13016176723380588,0.017701637131630883]",4.0,"[-0.15711930980217964,-0.049894087415905626]",4.0,"[-0.008357178853482288,0.10791579893796957]",100.0,"[-0.19351649862423353,-0.006563452574602306]",100.0,"[0.15918783702663133,-0.03761893514309208]",100.0,"[0.09951386130972142,0.12045609742949266]",4.0,"[0.09410362295465297,-0.09835328733942274]",100.0,"[-0.12656491533075315,0.04958880105218804]",4.0,"[-0.07032615561383201,0.09940349975983141]",100.0,"[0.02479378772077059,0.19469748904663645]",4.0,"[-0.049221603147526535,0.06352468855382003]",100.0,"[0.10709014865685709,-0.14117728255206718]",4.0,"[0.017650597318126373,-0.06816929839235096]",100.0,"[-0.10188465832710619,-0.12382757141897807]",4.0,"[-0.04254749464267779,-0.16318081592472825]",4.0,"[-0.003403378805335307,0.01164750577897224]",100.0,"[0.18951427331072715,0.026414765555421448]",4.0,"[-0.13716793927606466,0.09389970706694581]",100.0,"[0.031039580658353442,0.0332839216024351]",100.0,"[-0.1213653437039443,0.1534276841835924]",4.0,"[0.06914952022625395,0.17218202634629193]",4.0,"[-0.10864692895703656,-0.02157594041735559]",4.0,"[-0.1885471337023349,0.03385465330026851]",4.0,"[0.012627771067515229,-0.19242748941367077]",4.0,"[-0.15504726255187837,-0.12222887068652542]",4.0,"[-0.006752504651621762,-0.11132395354866016]",100.0,"[0.09974434842452926,-0.04302230675104584]",100.0,"[0.04144554666503559,-0.13595593811664156]",4.0,"[0.02,0.02]",197.4543,0.0,49.0,49.0,91.0,1.0,,,,,,,
