right,left,explain.started,explain.stopped,key_resp_3.keys,key_resp_3.rt,key_resp_3.duration,participant,session,date,expName,psychopyVersion,OS,frameRate,study_id,explain_2.started,explain_2.stopped,key_resp_4.keys,key_resp_4.rt,key_resp_4.duration,explain_3.started,explain_3.stopped,key_resp_5.keys,key_resp_5.rt,key_resp_5.duration,fixation.started,fixation.stopped,practice.started,practice.stopped,response.started,response.stopped,key_resp.keys,feedback.started,feedback.stopped,trials_2.thisRepN,trials_2.thisTrialN,trials_2.thisN,trials_2.thisIndex,trials_2.ran,dot_ratio,key_resp.rt,key_resp.duration,explain_4.started,explain_4.stopped,key_resp_6.keys,key_resp_6.rt,key_resp_6.duration,dotDisplay.started,dotDisplay.stopped,ITI.started,polygon_1.pos,polygon_1.edges,polygon_2.pos,polygon_2.edges,polygon_3.pos,polygon_3.edges,polygon_4.pos,polygon_4.edges,polygon_5.pos,polygon_5.edges,polygon_6.pos,polygon_6.edges,polygon_7.pos,polygon_7.edges,polygon_8.pos,polygon_8.edges,polygon_9.pos,polygon_9.edges,polygon_10.pos,polygon_10.edges,polygon_11.pos,polygon_11.edges,polygon_12.pos,polygon_12.edges,polygon_13.pos,polygon_13.edges,polygon_14.pos,polygon_14.edges,polygon_15.pos,polygon_15.edges,polygon_16.pos,polygon_16.edges,polygon_17.pos,polygon_17.edges,polygon_18.pos,polygon_18.edges,polygon_19.pos,polygon_19.edges,polygon_20.pos,polygon_20.edges,polygon_21.pos,polygon_21.edges,polygon_22.pos,polygon_22.edges,polygon_23.pos,polygon_23.edges,polygon_24.pos,polygon_24.edges,polygon_25.pos,polygon_25.edges,polygon_26.pos,polygon_26.edges,polygon_27.pos,polygon_27.edges,polygon_28.pos,polygon_28.edges,polygon_29.pos,polygon_29.edges,polygon_30.pos,polygon_30.edges,polygon_31.pos,polygon_31.edges,polygon_32.pos,polygon_32.edges,dot_size,ITI.stopped,trials.thisRepN,trials.thisTrialN,trials.thisN,trials.thisIndex,trials.ran,break_2.started,break_2.stopped,trials_3.thisRepN,trials_3.thisTrialN,trials_3.thisN,trials_3.thisIndex,trials_3.ran
subject chose diamond,subject chose dot,0.0003,41.0202,space,25.9957,,677948fa843635fdb42a4351,684429505a86090779a67644,2025-06-07_12h58.21.636,shape_ratio,2024.1.5,Win32,60.24096386,684250e4f00cb30b92d1fa88,,,,,,,,,,,,,,,,,,,,,,,,,,,,,,,,,,,,,,,,,,,,,,,,,,,,,,,,,,,,,,,,,,,,,,,,,,,,,,,,,,,,,,,,,,,,,,,,,,,,,,,,,,,,,,,,,
,,,,,,,677948fa843635fdb42a4351,684429505a86090779a67644,2025-06-07_12h58.21.636,shape_ratio,2024.1.5,Win32,60.24096386,684250e4f00cb30b92d1fa88,41.0212,94.0514,space,23.0245,,,,,,,,,,,,,,,,,,,,,,,,,,,,,,,,,,,,,,,,,,,,,,,,,,,,,,,,,,,,,,,,,,,,,,,,,,,,,,,,,,,,,,,,,,,,,,,,,,,,,,,,,,,,,
,,,,,,,677948fa843635fdb42a4351,684429505a86090779a67644,2025-06-07_12h58.21.636,shape_ratio,2024.1.5,Win32,60.24096386,684250e4f00cb30b92d1fa88,,,,,,94.0521,107.0036,space,9.9336,,,,,,,,,,,,,,,,,,,,,,,,,,,,,,,,,,,,,,,,,,,,,,,,,,,,,,,,,,,,,,,,,,,,,,,,,,,,,,,,,,,,,,,,,,,,,,,,,,,,,,,,
,,,,,,,677948fa843635fdb42a4351,684429505a86090779a67644,2025-06-07_12h58.21.636,shape_ratio,2024.1.5,Win32,60.24096386,684250e4f00cb30b92d1fa88,,,,,,,,,,,107.0499,107.5196,107.5203,107.7695,107.7697,109.268,,109.2685,110.3668,0.0,0.0,0.0,0.0,1.0,0.2,,,,,,,,,,,,,,,,,,,,,,,,,,,,,,,,,,,,,,,,,,,,,,,,,,,,,,,,,,,,,,,,,,,,,,,,,,,,,,,,,,,,,,,,
,,,,,,,677948fa843635fdb42a4351,684429505a86090779a67644,2025-06-07_12h58.21.636,shape_ratio,2024.1.5,Win32,60.24096386,684250e4f00cb30b92d1fa88,,,,,,,,,,,110.3679,110.8659,110.866,111.1219,111.1221,111.5654,left,111.5656,112.6643,0.0,1.0,1.0,1.0,1.0,0.8,0.417,,,,,,,,,,,,,,,,,,,,,,,,,,,,,,,,,,,,,,,,,,,,,,,,,,,,,,,,,,,,,,,,,,,,,,,,,,,,,,,,,,,,,,,
,,,,,,,677948fa843635fdb42a4351,684429505a86090779a67644,2025-06-07_12h58.21.636,shape_ratio,2024.1.5,Win32,60.24096386,684250e4f00cb30b92d1fa88,,,,,,,,,,,,,,,,,,,,,,,,,,,,112.6656,117.3601,space,1.6738,,,,,,,,,,,,,,,,,,,,,,,,,,,,,,,,,,,,,,,,,,,,,,,,,,,,,,,,,,,,,,,,,,,,,,,,,,,,,,,,,,
,,,,,,,677948fa843635fdb42a4351,684429505a86090779a67644,2025-06-07_12h58.21.636,shape_ratio,2024.1.5,Win32,60.24096386,684250e4f00cb30b92d1fa88,,,,,,,,,,,117.3796,117.8755,,,118.1266,118.7917,right,,,,,,,,0.45,0.6486,,,,,,,117.8765,118.1264,118.7928,"[-0.14534715663540382,-0.014592397782937248]",100.0,"[-0.06921341201914442,-0.11673516139505319]",4.0,"[0.1436990755291744,-0.008250713171570357]",4.0,"[-0.007380827868529101,-0.0873026859187041]",100.0,"[0.022260273925936977,0.047604470904287675]",4.0,"[-0.11463687597874421,-0.12971485973223254]",4.0,"[-0.0773485359368957,0.1069760855384736]",100.0,"[-0.125700102202613,-0.05721768727421427]",100.0,"[-0.1463699127706612,0.05010242739946748]",4.0,"[0.08589783981790136,-0.07574206445839905]",100.0,"[-0.1909226180305053,-0.0007296217619520136]",4.0,"[0.07458963577951885,-0.15370251892425507]",100.0,"[0.09776545436399862,0.11197391816777735]",4.0,"[0.00792919453599877,-0.0458919473797055]",100.0,"[-0.15481991327110226,0.10648347869358132]",4.0,"[0.03487045531560212,0.17887571979067382]",4.0,"[0.056786805528708593,0.018677216143798248]",4.0,"[0.0024911489099564872,0.12532065346950924]",100.0,"[0.17514917693046603,0.08808194182089657]",4.0,"[0.1827566035855596,0.014605624862386063]",100.0,"[0.1108307183761521,-0.12640836890799048]",100.0,"[0.13490853369314693,0.08068128643094333]",100.0,"[0.14721872346145673,-0.06601454845801545]",100.0,"[0.1663590102403863,-0.11020502446501816]",4.0,"[-0.12267028256524137,0.15044328769532522]",4.0,"[-0.01281412644695756,0.17805617678294036]",4.0,"[0.032306635985264634,-0.1937557645462198]",4.0,"[-0.18767052619348001,0.05595045803894069]",4.0,"[0.011696805292358583,-0.15088022304738058]",100.0,"[-0.10015011923843456,0.029724896732557026]",4.0,"[-0.056507669070109026,0.190959712682663]",4.0,"[-0.18000690775848022,-0.04475940852320556]",100.0,"[0.02,0.02]",119.8907,0.0,0.0,0.0,138.0,1.0,,,,,,,
,,,,,,,677948fa843635fdb42a4351,684429505a86090779a67644,2025-06-07_12h58.21.636,shape_ratio,2024.1.5,Win32,60.24096386,684250e4f00cb30b92d1fa88,,,,,,,,,,,119.8914,120.3899,,,120.6404,121.1224,left,,,,,,,,0.5,0.4743,,,,,,,120.39,120.6403,121.1225,"[-0.030229893587985723,0.058323798899948966]",100.0,"[0.07439055505728448,-0.014233044204053639]",4.0,"[0.039633114889611853,-0.1412347095841088]",100.0,"[0.09482269894272144,0.04618217576408956]",4.0,"[0.12707770065306206,0.15037973368374716]",4.0,"[-0.08616369388552779,0.16959443063551413]",100.0,"[0.06160605238195642,0.06951342482991221]",4.0,"[0.15395253676690127,0.06129986867337835]",100.0,"[-0.030593175641897785,-0.12855571758378398]",100.0,"[-0.17403667546337612,-0.008157899461857052]",4.0,"[-0.11523227620512176,0.03375954988682712]",4.0,"[-0.1430671212558492,0.0791615985415473]",100.0,"[0.008130572207398289,-0.19350683374601874]",4.0,"[0.09041990928936668,-0.15010264087488573]",100.0,"[0.08620824371028123,0.10619389626868832]",4.0,"[-0.0905798696147814,-0.021902275479190714]",4.0,"[-0.09517184619966618,-0.11603282989851657]",100.0,"[-0.02907352280654036,0.1319452372367468]",100.0,"[0.07473216873523718,-0.07358372316887467]",100.0,"[-0.15745400248479657,-0.11510736881802126]",4.0,"[-0.08005755875868688,0.10896238767955908]",100.0,"[0.048782870175834186,-0.192387175587146]",4.0,"[-0.12545528270609924,-0.15544300695023852]",4.0,"[-0.022875659272463295,-0.07122029546191026]",100.0,"[0.1405192789606184,-0.07110521453090393]",100.0,"[0.06125709425406533,0.14038258069821433]",100.0,"[-0.12483544953490196,0.14137316337932432]",100.0,"[0.17515866731094581,-0.026228076542859247]",4.0,"[0.020445910406863225,0.008171505922986076]",100.0,"[0.03902385822232859,-0.048200030569069116]",4.0,"[-0.06802840261653012,0.0330752486813575]",4.0,"[-0.12019849819709602,-0.06557639130555006]",4.0,"[0.02,0.02]",122.2215,0.0,1.0,1.0,109.0,1.0,,,,,,,
,,,,,,,677948fa843635fdb42a4351,684429505a86090779a67644,2025-06-07_12h58.21.636,shape_ratio,2024.1.5,Win32,60.24096386,684250e4f00cb30b92d1fa88,,,,,,,,,,,122.2222,122.7208,,,122.9707,123.4537,left,,,,,,,,0.9,0.4702,,,,,,,122.7209,122.9706,123.4538,"[0.07672190359571575,-0.053273780113470365]",100.0,"[0.0035288572616790055,0.16126338094102896]",100.0,"[-0.09639671797127951,0.13898460550376776]",100.0,"[0.14223282236555881,-0.054927283979134836]",100.0,"[-0.07400357317223143,0.09036944588596113]",100.0,"[0.1703624280128134,0.01081730259811586]",4.0,"[0.12653635838535765,0.07878463877397489]",100.0,"[-0.004414295702822584,-0.0022378794714177164]",100.0,"[0.13664644901066972,-0.13260092387970748]",4.0,"[0.06006856869940867,0.04173167193394954]",100.0,"[0.026701456287796885,-0.17099006112833862]",100.0,"[-0.052172172752815105,-0.03388925917347119]",100.0,"[0.026266685569116103,-0.03139362687301685]",100.0,"[-0.1220981574823279,-0.05869091121060488]",100.0,"[-0.15906185683272003,0.09900398280145026]",100.0,"[-0.09560960889969432,0.050412484192532324]",100.0,"[-0.08114875114797772,-0.13049511628191146]",100.0,"[-0.12905837370380357,-0.15274780581407943]",100.0,"[0.030323339363501116,-0.08829702171512739]",100.0,"[0.09510178131021152,-0.11292412847384636]",100.0,"[-0.14649330406007458,0.0036176646400081416]",100.0,"[0.1739054472817133,0.08160387938485344]",100.0,"[0.050338099598732436,0.10456555206216096]",100.0,"[0.011691852506449758,0.07160495204354102]",100.0,"[-0.05536138662883429,0.1712883145444576]",100.0,"[-0.021807999050547408,-0.06595667299696449]",100.0,"[-0.04769300694079236,0.12059992913110731]",100.0,"[-0.0608037712768167,0.01615835385229924]",100.0,"[-0.0219926908120374,-0.17047643250643255]",4.0,"[-0.18126149496289992,0.039076350318309146]",100.0,"[0.09066515756937449,0.11493428347199644]",100.0,"[-0.09323501547350484,-0.08935355338032587]",100.0,"[0.02,0.02]",124.5524,0.0,2.0,2.0,21.0,1.0,,,,,,,
,,,,,,,677948fa843635fdb42a4351,684429505a86090779a67644,2025-06-07_12h58.21.636,shape_ratio,2024.1.5,Win32,60.24096386,684250e4f00cb30b92d1fa88,,,,,,,,,,,124.5531,125.052,,,125.3023,125.7013,right,,,,,,,,0.55,0.3726,,,,,,,125.0521,125.3021,125.7014,"[0.08877021327557544,0.019345079459314917]",100.0,"[0.13566976187674434,0.07331783370065828]",100.0,"[-0.11240715765117106,0.16443650243171845]",4.0,"[-0.016767506540240083,0.09304343519138102]",100.0,"[0.17530083553061593,0.03268665025992232]",100.0,"[-0.11681993682104211,-0.02837046357189233]",4.0,"[-0.029133205916051716,-0.0337431241786946]",100.0,"[-0.01100695629749877,-0.1478254608925532]",4.0,"[0.037452191895504416,0.047821540351357925]",100.0,"[-0.11424054775979486,0.08067005126644515]",4.0,"[0.004472749778052646,-0.18642570854892707]",4.0,"[-0.061757014561896036,-0.1871446937078966]",4.0,"[-0.07083526641044087,-0.04684101532971196]",4.0,"[0.01763217142084318,0.17368992069378233]",4.0,"[0.016703273996660887,-0.03248274508768977]",4.0,"[-0.10068333778144327,0.12003381502919411]",100.0,"[0.056523137508203654,-0.13236637509548838]",4.0,"[-0.03386822591848565,-0.10328962273313667]",100.0,"[0.14329228271549166,-0.03730073985916995]",4.0,"[0.07663368025850671,-0.020874862355779063]",100.0,"[-0.06785079142730588,0.06320336755432093]",100.0,"[0.12416950758084576,0.14172845514716453]",100.0,"[-0.07895065025201267,-0.1157573890883122]",100.0,"[0.15343936990045984,-0.10322680482361932]",100.0,"[0.11476781328343816,-0.117432551247238]",100.0,"[0.07840270915273852,0.058124238657018004]",100.0,"[-0.11275210806473226,-0.0755812521643449]",4.0,"[-0.02231768449529855,0.01844995118141717]",4.0,"[-0.16363115060314432,0.026767340934952383]",100.0,"[-0.15148475306675704,-0.10308313934311765]",100.0,"[-0.09983521063313151,-0.16319116754686042]",4.0,"[-0.048961536652060184,0.15117373883117252]",100.0,"[0.02,0.02]",126.8,0.0,3.0,3.0,86.0,1.0,,,,,,,
,,,,,,,677948fa843635fdb42a4351,684429505a86090779a67644,2025-06-07_12h58.21.636,shape_ratio,2024.1.5,Win32,60.24096386,684250e4f00cb30b92d1fa88,,,,,,,,,,,126.8007,127.2995,,,127.5504,128.1657,left,,,,,,,,0.45,0.5934,,,,,,,127.2995,127.5503,128.1659,"[0.13384831074097572,0.08063237022049302]",100.0,"[0.07722991285512891,0.1546326727655064]",4.0,"[-0.07242594149021553,-0.1163567214629051]",100.0,"[-0.1500505550579811,0.12788677822772082]",4.0,"[-0.0718485480262526,0.18299982256518604]",100.0,"[0.02503618956978716,0.14250142566601143]",4.0,"[-0.12177558488056142,0.0890868911269513]",100.0,"[-0.11608343860824867,-0.04340755927711484]",4.0,"[0.08416881312394942,0.030755579468718496]",4.0,"[-0.05057879123738916,0.0026136349399708734]",4.0,"[0.13194585164331638,-0.08905835210948579]",4.0,"[-0.052469690085816666,0.07085588334020554]",100.0,"[-0.12596573993661556,-0.15424303735790235]",4.0,"[-0.08016990504711217,-0.1572466113607758]",4.0,"[-0.03701161740000339,-0.06701474281890461]",4.0,"[0.06814436298349535,-0.10960962518037225]",100.0,"[0.030071267320686327,-0.0159810333912637]",100.0,"[-0.15721073051997939,-0.07856744892163803]",4.0,"[0.018965128311497718,-0.12447081660175019]",4.0,"[0.1131071423977425,-0.14292301225641782]",4.0,"[-0.09407073456555208,0.0399925616091389]",100.0,"[0.04532992730137876,-0.1617621669783102]",4.0,"[0.05141823982885876,0.09369881177198544]",100.0,"[0.1938951422194976,0.04210464702515424]",100.0,"[-0.18499302402499895,0.02101945415524282]",4.0,"[-0.008140117826237718,0.012586600322641387]",100.0,"[-0.029857691639660365,0.1476994608441672]",100.0,"[-0.10763351071872665,-0.0020527983280660416]",100.0,"[0.07204410906070799,-0.05600860332557984]",4.0,"[0.08780251580654684,-0.01169297127593139]",4.0,"[-0.026844450897930878,-0.1152815303367332]",4.0,"[-0.002971772682276987,-0.1836682741558968]",100.0,"[0.02,0.02]",129.2644,0.0,4.0,4.0,147.0,1.0,,,,,,,
,,,,,,,677948fa843635fdb42a4351,684429505a86090779a67644,2025-06-07_12h58.21.636,shape_ratio,2024.1.5,Win32,60.24096386,684250e4f00cb30b92d1fa88,,,,,,,,,,,129.2654,129.764,,,130.0149,130.5298,right,,,,,,,,0.1,0.4839,,,,,,,129.7642,130.0147,130.5301,"[-0.03189518782991194,-0.08840477448655755]",4.0,"[-0.17385436894412704,0.0024508826956194632]",4.0,"[-0.02100457256957386,-0.020016916904925977]",4.0,"[-0.10368161565388681,0.03846746096293164]",4.0,"[-0.11818204487548004,0.11478461958267559]",4.0,"[-0.07996589793465451,-0.08203936872450174]",4.0,"[0.02510332236632342,-0.08368212197259246]",4.0,"[-0.024821515550157068,0.15941652088568736]",4.0,"[0.07645627185657833,-0.0652212422096919]",4.0,"[0.008652218746973271,0.19222184422115968]",4.0,"[0.02313296466485145,0.05442494272928478]",4.0,"[-0.020915654350568923,0.044046175405543]",4.0,"[0.13584685475214855,-0.08948306427358621]",4.0,"[0.11482250699787949,-0.14813456557987847]",4.0,"[0.07168731114544101,-0.13596606108001563]",4.0,"[0.02128894310521294,-0.17787334136720317]",4.0,"[0.15863010350174778,-0.03519740109308199]",4.0,"[0.053670097371711606,0.19193469940814303]",4.0,"[0.02962067174021565,-0.03876829954017304]",100.0,"[-0.15397446043850188,-0.07182579461241333]",4.0,"[-0.10371796243054951,-0.14891208331340414]",4.0,"[-0.04629073018111127,-0.16788484276402438]",4.0,"[0.14277926620400422,0.0485525583208195]",4.0,"[0.07256874102441774,0.10263796905984687]",4.0,"[0.0852343473301888,0.15718756899910422]",4.0,"[-0.07240110701440802,-0.0034574721576288887]",4.0,"[0.06145655260712239,0.02909628533614328]",100.0,"[0.18705680265200497,0.04608780892206865]",4.0,"[0.19762496380772404,-0.0018113752458310101]",4.0,"[-0.0735606444140581,0.07688009477036235]",100.0,"[0.10447760760282566,-0.024501437601617864]",4.0,"[-0.1710489537725133,0.10173422604471241]",4.0,"[0.02,0.02]",131.6286,0.0,5.0,5.0,199.0,1.0,,,,,,,
,,,,,,,677948fa843635fdb42a4351,684429505a86090779a67644,2025-06-07_12h58.21.636,shape_ratio,2024.1.5,Win32,60.24096386,684250e4f00cb30b92d1fa88,,,,,,,,,,,131.6292,132.1282,,,132.3785,132.9779,left,,,,,,,,0.5,0.5679,,,,,,,132.1282,132.3784,132.9782,"[-0.10763938810493442,-0.06127810490704749]",4.0,"[-0.1906208824334668,0.0054771729903973]",100.0,"[0.14735998943033593,-0.13222928308224274]",4.0,"[0.026478815010360847,0.1904103409427577]",4.0,"[-0.1396701282161068,-0.008109610940975702]",4.0,"[0.12654894347888143,0.1240604532369545]",100.0,"[0.037844595905711806,-0.0858365664409445]",100.0,"[-0.040841554911710036,-0.16903679628024115]",4.0,"[0.07301136324330691,-0.13014344593975094]",100.0,"[0.05066874987399261,0.10587936161279109]",100.0,"[0.09962177044589443,0.017404377360146286]",100.0,"[-0.010269876086366864,0.12993301555714992]",4.0,"[0.05076951222996884,0.02006153012942825]",100.0,"[-0.16255217050922674,0.07016903808873938]",100.0,"[0.06818708043998599,0.06575574424740775]",4.0,"[0.0033936275359822974,-0.00809481222553161]",4.0,"[-0.09434241507229457,-0.16771354387406864]",4.0,"[-0.05828410377450628,0.18434033593516444]",100.0,"[-0.06588835684440711,0.06020907691325343]",100.0,"[0.17802071902287203,-0.045984582201148295]",4.0,"[0.1811387523121276,0.07970329669637592]",4.0,"[-0.040148887947479416,0.09510229193464939]",100.0,"[0.14413790367724513,-0.013603009622269452]",4.0,"[0.029891210186961573,0.1419421650622239]",100.0,"[-0.03309518270532671,-0.1264448332923174]",4.0,"[0.11538022046850727,0.061431508288359596]",100.0,"[0.14352140479865658,-0.08908083600792398]",100.0,"[-0.11955222832819648,-0.12911585276883955]",100.0,"[-0.06518402485396063,-0.0595055673442436]",4.0,"[-0.11494006416636561,0.09903676508862147]",4.0,"[0.007724693376055112,-0.16518906258963406]",100.0,"[-0.005589917176953954,0.06469775033168462]",4.0,"[0.02,0.02]",134.076,0.0,6.0,6.0,102.0,1.0,,,,,,,
,,,,,,,677948fa843635fdb42a4351,684429505a86090779a67644,2025-06-07_12h58.21.636,shape_ratio,2024.1.5,Win32,60.24096386,684250e4f00cb30b92d1fa88,,,,,,,,,,,134.0765,134.5758,,,134.8262,135.5251,left,,,,,,,,0.55,0.6805,,,,,,,134.5758,134.8261,135.5253,"[0.1161584098918209,0.12351193827006135]",100.0,"[-0.01641800445875342,0.10341107313502897]",100.0,"[0.06490985609777018,-0.1864267294205198]",4.0,"[0.02661791432590132,-0.06860704526691012]",100.0,"[0.19363765846653755,0.024759842937499808]",4.0,"[0.06137094868522545,0.11295180594703744]",4.0,"[-0.0034869441369603468,0.14868360386345145]",4.0,"[0.04882903236265861,0.050737420880007]",100.0,"[-0.04813976961440462,0.03872955373497284]",100.0,"[0.004292407303192269,-0.13778040764444638]",100.0,"[-0.11096659739528601,0.0017885569101202927]",4.0,"[0.0605674472290767,-0.03506563110895429]",100.0,"[0.14400375171264254,0.014008729063320582]",4.0,"[-0.07605751794788858,-0.1271613727169996]",100.0,"[-0.14267680027829552,-0.07952759647263226]",4.0,"[-0.1077315979202305,0.05974533152243118]",100.0,"[0.025247406079730646,-0.1768006374310157]",100.0,"[0.15414261513604283,-0.05400574175312953]",100.0,"[0.14516634278926385,-0.0959321483017856]",100.0,"[-0.059664564973061565,-0.033295129731568215]",100.0,"[-0.05003568770902004,0.15065349281586127]",4.0,"[-0.11844639220421888,0.11064782894221226]",4.0,"[-0.007403931037292241,0.05763302437335472]",100.0,"[0.09618599171615311,0.022267646487537263]",4.0,"[-0.011914300460011766,-0.02083514396859772]",100.0,"[-0.054592280513908735,-0.08028091728143118]",100.0,"[0.04799006448834261,0.1871954253877162]",100.0,"[-0.06276879210312844,0.18971397644383903]",4.0,"[-0.15278743955775265,0.01394727485927967]",100.0,"[0.12056546886320195,-0.018528266947467804]",4.0,"[-0.17864530454885577,-0.050135660376914144]",4.0,"[0.15536835603164623,0.07746749686942932]",4.0,"[0.02,0.02]",136.6239,0.0,7.0,7.0,84.0,1.0,,,,,,,
,,,,,,,677948fa843635fdb42a4351,684429505a86090779a67644,2025-06-07_12h58.21.636,shape_ratio,2024.1.5,Win32,60.24096386,684250e4f00cb30b92d1fa88,,,,,,,,,,,136.6245,137.1234,,,137.3739,138.1561,right,,,,,,,,0.45,0.7504,,,,,,,137.1234,137.3738,138.1562,"[-0.027967088483344112,-0.05556175201641061]",4.0,"[0.12130867124949281,0.13026335071501421]",4.0,"[-0.1854452682757172,0.04027176865064302]",100.0,"[-0.1580472643081049,-0.12214172723794475]",4.0,"[-0.08081340509720061,-0.08546235555466966]",4.0,"[-0.0923602544924559,-0.17320870140838324]",100.0,"[-0.16674325481205335,0.09515067083504204]",4.0,"[0.16724872092573195,0.07385894353396891]",100.0,"[-0.1149731275406875,0.10330163540169975]",100.0,"[0.017444931208543436,-0.05874525401911759]",4.0,"[-0.01449461821047912,-0.008683734205134904]",4.0,"[0.0350362045828725,0.05648355327164282]",4.0,"[-0.12484783829772789,-0.08079603052773493]",4.0,"[0.07600860986215316,0.12800741849705854]",100.0,"[-0.042274501154242076,0.12514692701386945]",100.0,"[0.04820314704523025,0.006567632643701744]",100.0,"[0.06346547779969833,-0.07382409800288614]",100.0,"[0.13276932252317272,-0.04073632129966268]",100.0,"[0.11508657605061288,0.0729062138656665]",100.0,"[-0.18296714735457903,-0.011031652299096651]",4.0,"[-0.03796162326430297,-0.10018769088026218]",4.0,"[0.04018586198124592,-0.15108089084892046]",4.0,"[0.01119641410596149,-0.12138553105485142]",4.0,"[-0.006317248484448949,0.05424052587973505]",100.0,"[-0.17955350779797016,-0.07575093236791666]",100.0,"[-0.10595754495683819,-0.038678500303626726]",4.0,"[0.12662646790537216,-0.11403385718726078]",100.0,"[0.007196568700973023,0.12719090844750877]",100.0,"[0.0030179017732191496,0.18495671841155334]",4.0,"[0.18848722892827074,-0.012384045375766269]",4.0,"[0.17052317104813508,0.024825214467086784]",4.0,"[-0.13233574384503435,0.029485155951387745]",4.0,"[0.02,0.02]",139.2546,0.0,8.0,8.0,142.0,1.0,,,,,,,
,,,,,,,677948fa843635fdb42a4351,684429505a86090779a67644,2025-06-07_12h58.21.636,shape_ratio,2024.1.5,Win32,60.24096386,684250e4f00cb30b92d1fa88,,,,,,,,,,,139.2555,139.7541,,,140.0048,140.7703,left,,,,,,,,0.55,0.7345,,,,,,,139.7541,140.0047,140.7705,"[-0.04369797654799817,0.1736639775286759]",100.0,"[0.0175655535585665,0.07121508962665349]",100.0,"[-0.014491364386739418,0.13033259908432251]",4.0,"[0.14405198371991831,0.11332514643035423]",4.0,"[0.12801985501465676,0.07003387838034084]",4.0,"[-0.09129904910599931,0.06211407102806826]",100.0,"[-0.14183909028215824,-0.04702037249183602]",4.0,"[-0.021320653363682992,-0.17969943501624533]",100.0,"[0.19709282553626284,0.003232914379717415]",100.0,"[0.10047993828643491,0.17269145420304025]",100.0,"[-0.07206086024675072,-0.1093005210901065]",4.0,"[0.06797189145397305,-0.10271704427032312]",4.0,"[0.06159735909121374,-0.17829263812944648]",4.0,"[-0.15846373653373047,0.057371174138323586]",100.0,"[0.1525806959471944,-0.0029247032733021477]",100.0,"[0.03675234518212668,0.13240964181670536]",4.0,"[-0.019282143312316497,-0.07600312868669547]",4.0,"[-0.08883747162809644,-0.0005402951189125389]",4.0,"[0.06486012436311435,0.05391545866682388]",100.0,"[-0.1636424099609268,-0.08489890662246098]",4.0,"[-0.01033556328551545,0.19732557498231457]",100.0,"[-0.02212607560028679,0.026453283904672917]",100.0,"[-0.11856353104272375,0.1539810119478306]",100.0,"[0.13455466251552534,-0.07292570047355422]",100.0,"[-0.05690091504038986,0.11466944377702015]",100.0,"[-0.15885557280448895,0.00022933794943151234]",4.0,"[0.11462039428579301,-0.13149477454269948]",100.0,"[0.04482379022861495,-0.030745849874402154]",100.0,"[-0.02557419665285625,-0.022654647046434266]",4.0,"[-0.11779707181796424,-0.13672785105260588]",4.0,"[0.1832268152368889,0.06646725957028167]",100.0,"[-0.0269087235401688,-0.13002144155118447]",100.0,"[0.02,0.02]",141.8683,0.0,9.0,9.0,76.0,1.0,,,,,,,
,,,,,,,677948fa843635fdb42a4351,684429505a86090779a67644,2025-06-07_12h58.21.636,shape_ratio,2024.1.5,Win32,60.24096386,684250e4f00cb30b92d1fa88,,,,,,,,,,,141.869,142.3679,,,142.6183,142.9674,right,,,,,,,,0.4,0.3172,,,,,,,142.368,142.6182,142.9675,"[0.1327760494758115,0.04876114085082128]",4.0,"[0.03875414500582709,-0.023891543195032214]",100.0,"[-0.042987177223488326,-0.14252591348809898]",4.0,"[0.08239860484650845,-0.14208814775810238]",4.0,"[0.15929615717106055,0.011627848627993643]",4.0,"[0.023610898660387198,-0.13572968065407465]",4.0,"[-0.026042846164387273,-0.10522638467276485]",100.0,"[0.18852988786636654,0.0559314837311755]",4.0,"[-0.06516192602667677,0.14125169931600068]",4.0,"[0.15358065034593202,-0.08603923642210799]",100.0,"[0.06884362323850293,0.07115347010430498]",4.0,"[0.07029938192317053,0.02632212388147483]",100.0,"[-0.001329485516617875,0.0023798000261728218]",4.0,"[-0.0003238251354107917,0.15769731915082977]",4.0,"[0.1652057484727021,0.10141853797831246]",4.0,"[-0.02248208516157538,0.050818579378877696]",4.0,"[-0.029499844547862617,-0.057315340653459494]",4.0,"[0.057783897492111325,0.1654305931443542]",4.0,"[0.09111125932829392,-0.04849480799198562]",100.0,"[0.013994719001756932,-0.17677686917717164]",100.0,"[-0.15610465600236234,0.022767352820614376]",100.0,"[-0.03412534707457781,0.0894295466329586]",4.0,"[0.16388511647995466,-0.03654058546178667]",100.0,"[-0.10468348693050014,-0.025156697652254603]",100.0,"[0.12084636710340863,-0.12303041056211951]",4.0,"[-0.1670196185713721,0.061675979448544596]",4.0,"[0.11244998635830983,0.1530293605775239]",4.0,"[0.05791730736002724,0.11667188977835707]",4.0,"[-0.11907864094637509,-0.10224813198719589]",100.0,"[-0.11841086533727248,0.09142199881574882]",100.0,"[0.01192776397011994,-0.08414748495231782]",100.0,"[-0.058869196017381505,-0.1810326262724519]",100.0,"[0.02,0.02]",144.0665,0.0,10.0,10.0,179.0,1.0,,,,,,,
,,,,,,,677948fa843635fdb42a4351,684429505a86090779a67644,2025-06-07_12h58.21.636,shape_ratio,2024.1.5,Win32,60.24096386,684250e4f00cb30b92d1fa88,,,,,,,,,,,144.0676,144.5659,,,144.8166,145.3656,right,,,,,,,,0.5,0.5176,,,,,,,144.5661,144.8165,145.3658,"[0.06546395458579773,0.11490991272728929]",100.0,"[0.15301539526613955,-0.04108809240404541]",4.0,"[-0.04386806833693778,-0.04580431107050042]",4.0,"[-0.020177860095866723,0.02105472173008398]",4.0,"[0.013426943896815757,-0.03127839255787777]",100.0,"[0.06275452734560799,0.1640444820780242]",100.0,"[0.022647552883930177,-0.19098335386372794]",100.0,"[0.036443515171411874,-0.128090464802743]",100.0,"[0.028318755322567717,0.04933337108822489]",100.0,"[0.14519244083556004,0.0906993146563536]",100.0,"[0.02013875128699531,0.14823160587523243]",100.0,"[-0.12415372017795809,0.061514835810664574]",4.0,"[0.19021685623587584,0.020524495113784746]",4.0,"[0.06642833149077772,-0.17112774921237925]",4.0,"[-0.08328403069587917,0.14271708195603405]",100.0,"[-0.19059738959255482,-0.05454079282323014]",4.0,"[0.03397491865076368,0.005634621209749812]",4.0,"[-0.172954836867834,0.0397321154875009]",100.0,"[-0.027849794655122388,-0.10420790743533592]",4.0,"[-0.06524782781607542,0.016055942490753948]",100.0,"[-0.1251418091266717,-0.06873820030946143]",100.0,"[0.1445626263694555,-0.1080726415950075]",100.0,"[-0.12727484033232925,0.014419270060314524]",100.0,"[-0.12716616224083582,0.10731206105960259]",4.0,"[0.09901277962189164,-0.08454072689053557]",4.0,"[-0.06966067877515385,0.08760369075362216]",100.0,"[-0.024517829009566644,-0.15032445140934173]",4.0,"[0.09004305612982291,-0.13507184735695768]",100.0,"[-0.01811204759307603,0.19588075703052638]",4.0,"[-0.042014529650436755,0.13510647058675057]",4.0,"[0.0958387108573026,0.04286481806173228]",4.0,"[-0.024411845268357848,0.06673078767288691]",4.0,"[0.02,0.02]",146.464,0.0,11.0,11.0,104.0,1.0,,,,,,,
,,,,,,,677948fa843635fdb42a4351,684429505a86090779a67644,2025-06-07_12h58.21.636,shape_ratio,2024.1.5,Win32,60.24096386,684250e4f00cb30b92d1fa88,,,,,,,,,,,146.4651,146.9636,,,147.2136,147.5965,left,,,,,,,,0.45,0.3715,,,,,,,146.9637,147.2136,147.5966,"[-0.03608184805028433,-0.1712100641604031]",4.0,"[0.021136847864344457,0.1947499689136252]",100.0,"[0.1453923386989469,-0.05381226942231107]",100.0,"[0.06390066481879814,-0.10441323859082519]",4.0,"[0.04358868341991039,0.08610223165034225]",100.0,"[0.07868036651716015,-0.04015755030810047]",4.0,"[-0.0735852800681108,0.018428653766666164]",4.0,"[0.11800394277506714,0.08584865532951769]",4.0,"[0.02579916557480239,-0.06620088655689899]",100.0,"[-0.12752990796356747,0.1029306826045971]",4.0,"[-0.07734821345819995,-0.061322882159397706]",4.0,"[-0.146271294453157,0.06644918144897759]",100.0,"[0.09629470748542225,-0.14972903918367914]",100.0,"[-0.08489063461102837,-0.1288931208011652]",100.0,"[0.15790452825727452,0.08151623244883847]",4.0,"[-0.10472281044603646,-0.022910107781721104]",100.0,"[-0.0860045864103801,0.10481884665861092]",4.0,"[-0.019535712223879575,0.1462090957384202]",4.0,"[-0.1433438963266038,-0.10024772850444358]",4.0,"[-0.17909842964074432,-0.00431604389561464]",100.0,"[-0.04626840039111735,0.05389969229348694]",4.0,"[0.03389025864564344,0.010031422248450978]",100.0,"[-0.03568223144368872,0.18820781871847728]",4.0,"[0.03402223563943888,-0.18023340431832696]",4.0,"[-0.019442110293642727,0.011594113115739414]",4.0,"[0.1592923392369643,-0.11036019349555111]",4.0,"[0.16397727655510197,-0.005373119435471026]",4.0,"[-0.036976028690252946,0.09682438989069989]",100.0,"[0.1108922539830434,0.027650952507454318]",100.0,"[-0.18069641870955566,-0.0635197413864688]",100.0,"[-0.12987240065384986,0.011979505909739252]",4.0,"[0.08600281692725527,0.150204112922485]",100.0,"[0.02,0.02]",148.6953,0.0,12.0,12.0,122.0,1.0,,,,,,,
,,,,,,,677948fa843635fdb42a4351,684429505a86090779a67644,2025-06-07_12h58.21.636,shape_ratio,2024.1.5,Win32,60.24096386,684250e4f00cb30b92d1fa88,,,,,,,,,,,148.6959,149.1948,,,149.4486,149.8947,left,,,,,,,,0.9,0.4185,,,,,,,149.1949,149.4485,149.8948,"[0.023159615107121646,0.018246576600785918]",100.0,"[0.019409773055437802,-0.19833599614249955]",100.0,"[0.10354048091403088,-0.014155972560839057]",100.0,"[0.13321361040163618,0.11981068006319058]",100.0,"[0.04036852164979566,-0.13805426400615722]",100.0,"[-0.11413607719894213,-0.056169876477623316]",100.0,"[-0.07897826206874328,0.1588328922049662]",100.0,"[-0.08540183683630947,-0.12085425372053397]",100.0,"[-0.10334282536675103,-0.16851322780278766]",100.0,"[-0.16248864296110338,-0.07142203331234491]",4.0,"[-0.1954082050547241,0.00421833004168385]",4.0,"[-0.06226709599909525,0.10822824062109944]",100.0,"[-0.03690136682308454,0.16268304101418884]",100.0,"[0.10514881418333316,-0.0611381988588445]",100.0,"[-0.0360487191831795,-0.05160130956752889]",100.0,"[0.11690290344023588,0.05599193034799532]",100.0,"[0.025362735725959092,-0.03163069931158121]",100.0,"[-0.14310039451561213,0.07666039633118138]",100.0,"[0.05872778162678826,0.07907042388689718]",100.0,"[-0.18623948031018422,0.046811483047404776]",100.0,"[-0.02356096741342996,0.02864015212100985]",4.0,"[0.01246193175496003,0.07240872607796615]",100.0,"[-0.10325102578781892,-0.015239819772606095]",100.0,"[0.16767928218171765,-0.027652796595326018]",100.0,"[0.07487228636324493,-0.10537976349081428]",100.0,"[-0.045219403664714136,-0.12233024863686663]",100.0,"[0.09476019161408761,-0.17485859696403483]",100.0,"[-0.15129375252942096,0.007705850839439431]",100.0,"[-0.06179304801862808,0.060807951410683646]",100.0,"[0.17398916645959267,-0.09642385640338134]",100.0,"[0.03134552039998834,0.11039637609299364]",100.0,"[0.14119760809747975,0.009002843006610497]",100.0,"[0.02,0.02]",150.9929,0.0,13.0,13.0,10.0,1.0,,,,,,,
,,,,,,,677948fa843635fdb42a4351,684429505a86090779a67644,2025-06-07_12h58.21.636,shape_ratio,2024.1.5,Win32,60.24096386,684250e4f00cb30b92d1fa88,,,,,,,,,,,150.994,151.4925,,,151.743,152.2703,left,,,,,,,,0.9,0.5054,,,,,,,151.4925,151.7428,152.2704,"[-0.1549614271493744,0.07307017659456998]",4.0,"[-0.14208944939461263,0.13305845318274093]",100.0,"[-0.08046755937628437,-0.08808442091490634]",100.0,"[-0.03140996695024557,0.0945176062360343]",100.0,"[0.0921195978703175,0.1283349058950449]",100.0,"[-0.1515365602965187,0.005690104089702362]",100.0,"[-0.04672992010991223,0.18993479202552416]",4.0,"[0.1654251682086758,0.012348134367829982]",100.0,"[-0.10598132109184875,-0.14157490470654452]",100.0,"[-0.18066868644961037,-0.027185754427427697]",100.0,"[0.05546112205437247,0.021032368329331246]",4.0,"[0.09633856302779019,-0.15859352594683096]",100.0,"[-0.023318838066015063,0.1346622684719506]",100.0,"[0.0388020490622683,-0.04096399244185447]",100.0,"[-0.06471830861183957,0.1463236949190274]",100.0,"[-0.046330787501073376,-0.04254425987246118]",100.0,"[-0.10984536436014554,-0.04729479204950478]",100.0,"[0.06079585628684996,-0.09391456564378386]",100.0,"[0.1333913489333285,-0.10495625970070202]",100.0,"[0.01895157658982167,0.13767937090531965]",100.0,"[0.13647331481487623,0.09939516157157106]",100.0,"[-0.010259938486955496,-0.10687759279384713]",100.0,"[-0.003052479184672024,-0.014333305757356377]",100.0,"[-0.06383778192569456,0.06954099307412999]",100.0,"[0.0281443121746469,0.08854814196605203]",100.0,"[-0.034102963637727905,-0.14646536756614714]",100.0,"[0.0313894751241305,-0.19350109139696786]",100.0,"[0.17860959508518442,-0.06305569363084616]",100.0,"[-0.14922571860667652,-0.08388306705656708]",100.0,"[0.09782265604774612,-0.030912463979286278]",100.0,"[-0.05918645853310716,0.026446619018776634]",100.0,"[-0.09309594056748087,0.105321122205536]",100.0,"[0.02,0.02]",153.374,0.0,14.0,14.0,8.0,1.0,,,,,,,
,,,,,,,677948fa843635fdb42a4351,684429505a86090779a67644,2025-06-07_12h58.21.636,shape_ratio,2024.1.5,Win32,60.24096386,684250e4f00cb30b92d1fa88,,,,,,,,,,,153.3752,153.8735,,,154.124,154.4734,right,,,,,,,,0.55,0.3261,,,,,,,153.8735,154.1239,154.4736,"[0.06655600376332968,0.10500902289261743]",100.0,"[0.12943730585263824,0.006710726974082916]",4.0,"[-0.0567236063620302,0.037231094131565674]",100.0,"[0.14606372416643523,-0.08630093848503385]",4.0,"[0.03491741785568765,-0.0772284450643877]",100.0,"[0.02144167633516957,-0.1546858729228056]",100.0,"[-0.055849893388669004,-0.011108249020381739]",4.0,"[-0.009598932594167778,0.09935976644813743]",4.0,"[0.02579344809796107,0.15037516685211674]",100.0,"[-0.07478296327170157,-0.12812804495180072]",100.0,"[0.018187425424139134,0.04713246691220011]",4.0,"[0.14702739095336614,0.1257405515057397]",100.0,"[0.08859284402493488,-0.013361273552534267]",100.0,"[0.023446303621328123,-0.015855275127125597]",4.0,"[-0.1991583743199255,-0.015712530424399844]",100.0,"[0.12780481950504174,0.0520155943954819]",100.0,"[-0.13226037391392867,0.12916676858471665]",4.0,"[-0.002278737781978474,-0.19293584941140923]",100.0,"[0.10284546166560113,-0.1507217244728103]",4.0,"[-0.046150344524574546,0.1606895526038826]",100.0,"[-0.0841595268917902,0.1289855210323461]",4.0,"[-0.1596498599370812,-0.0573012616654911]",100.0,"[0.08161405369101016,-0.10584921711133796]",100.0,"[-0.003404326968192902,0.19579228040514007]",4.0,"[-0.025978567783093952,-0.04225221916766671]",100.0,"[-0.13609392293930125,0.013488904639368193]",4.0,"[0.19081402957353294,0.05540886597418689]",100.0,"[-0.04920491442521813,-0.08619070941967315]",4.0,"[0.19774195206830678,0.0013334230807400646]",100.0,"[-0.015438454580148765,0.014099933172281217]",100.0,"[0.06325109374079169,0.1682604717604405]",4.0,"[0.09480303164857368,-0.06593314225451938]",4.0,"[0.02,0.02]",155.5717,0.0,15.0,15.0,66.0,1.0,,,,,,,
,,,,,,,677948fa843635fdb42a4351,684429505a86090779a67644,2025-06-07_12h58.21.636,shape_ratio,2024.1.5,Win32,60.24096386,684250e4f00cb30b92d1fa88,,,,,,,,,,,155.5727,156.0712,,,156.3212,156.7873,right,,,,,,,,0.1,0.4418,,,,,,,156.0713,156.3211,156.7874,"[0.07455198958610137,0.03768510400089666]",100.0,"[0.12319504228721037,0.11303760701125612]",4.0,"[0.14482685630014724,-0.008652076343298221]",4.0,"[-0.13762858360570274,-0.09746631190306464]",4.0,"[-0.11154588117501579,0.07176752546875591]",4.0,"[0.1645455223327362,0.06051445128691309]",100.0,"[-0.10337779261029584,0.17008921951986944]",4.0,"[-0.0011357920892647582,-0.09469802761119002]",4.0,"[0.010005319158466261,-0.154233080555592]",4.0,"[-0.07056991731340641,-0.08903927664632123]",4.0,"[0.08114580341647451,-0.1764658251479526]",4.0,"[0.1678867844997579,-0.1033117098891859]",4.0,"[-0.08120550287103605,-0.0001772243533426759]",4.0,"[-0.16198883972522712,-0.046128635670480436]",4.0,"[0.1183185499778535,0.06396669431769661]",4.0,"[0.10786285650915904,-0.07050926498393761]",4.0,"[-0.1446806388341397,0.04491854586686504]",4.0,"[-0.11671084152073145,0.12156458522110526]",4.0,"[0.019338275132602705,0.023954957314973484]",4.0,"[-0.014378781004307962,0.11144896415045555]",4.0,"[-0.06191651487419322,0.18330943447659773]",4.0,"[0.036547064919337846,0.07962879221836683]",4.0,"[-0.017642631526183995,0.005839492176974989]",4.0,"[-0.06335632045163168,0.06077270655838153]",4.0,"[-0.18363226633364735,0.05916115063998032]",4.0,"[-0.028025197328555143,-0.19755891593531377]",4.0,"[0.06432237101836079,0.1634553538742452]",100.0,"[-0.02557725432964427,0.15373863522503436]",4.0,"[-0.11190484243275509,-0.03184027345620221]",4.0,"[0.07198399079148358,-0.013803977509762515]",4.0,"[0.1037573610740298,-0.14332787635144215]",4.0,"[-0.005205898973492498,-0.050585865220707564]",4.0,"[0.02,0.02]",157.8858,0.0,16.0,16.0,205.0,1.0,,,,,,,
,,,,,,,677948fa843635fdb42a4351,684429505a86090779a67644,2025-06-07_12h58.21.636,shape_ratio,2024.1.5,Win32,60.24096386,684250e4f00cb30b92d1fa88,,,,,,,,,,,157.8863,158.3854,,,158.6356,158.9852,left,,,,,,,,0.4,0.32,,,,,,,158.3854,158.6355,158.9853,"[0.1650186070372772,0.06074944996849609]",4.0,"[-0.15938086335837146,-0.11157642761029699]",4.0,"[-0.18179827382246716,-0.05409767404928165]",100.0,"[0.15908656630258977,0.0007539106132793113]",4.0,"[0.12830714913434546,0.02961439194372115]",4.0,"[-0.1397314305124958,0.11467782079649383]",4.0,"[-0.06416169131961055,-0.007153394531731756]",4.0,"[-0.032435854381769706,0.14384291489720374]",100.0,"[0.01598285435901274,0.0968946106777862]",4.0,"[0.06217918638480354,0.021671506122680123]",100.0,"[0.008673091196569649,0.18183542827537588]",100.0,"[0.08570697862178117,-0.17123677384267189]",100.0,"[-0.028644641309820997,-0.16149745527495182]",100.0,"[-0.1342979514347153,0.06439383384366087]",100.0,"[-0.07380078582712174,0.13782646103539406]",100.0,"[-0.11936875165224281,-0.022400767492004106]",100.0,"[-0.0801356559226214,-0.08947325968966746]",4.0,"[0.007381132703311605,-0.12769519731973192]",4.0,"[0.07006373716407423,-0.025639286638216234]",4.0,"[-0.07617462564129959,0.180126698399841]",4.0,"[0.004218996612346149,0.05433320625689536]",4.0,"[0.10690120692167689,0.161282188409595]",4.0,"[-0.06044878776006936,0.08017038648646665]",100.0,"[-0.127524275912624,-0.14089307252606265]",4.0,"[-0.07004356550797922,-0.18454344461606714]",4.0,"[0.005748881517215373,-0.06466614858589265]",100.0,"[0.09401494539987991,-0.08419562213594085]",100.0,"[-0.016785952248328417,-0.012058559630296919]",4.0,"[0.10879812050098853,-0.1349578003352357]",100.0,"[0.174477329988612,-0.04442621148520236]",4.0,"[-0.11348849842130353,0.1637354379305728]",4.0,"[-0.18874780944899672,0.012768131757916521]",4.0,"[0.02,0.02]",160.0837,0.0,17.0,17.0,164.0,1.0,,,,,,,
,,,,,,,677948fa843635fdb42a4351,684429505a86090779a67644,2025-06-07_12h58.21.636,shape_ratio,2024.1.5,Win32,60.24096386,684250e4f00cb30b92d1fa88,,,,,,,,,,,160.0845,160.5833,,,160.834,161.3331,right,,,,,,,,0.1,0.4675,,,,,,,160.5833,160.8338,161.3333,"[-0.07011255830287162,0.058392065350104654]",4.0,"[0.036975273269107975,-0.07329073868998354]",4.0,"[0.02685795539177937,0.12205518652388168]",4.0,"[-0.0793305938673288,0.15079828218142163]",4.0,"[0.12176340500453103,-0.053513464033890054]",4.0,"[-0.004122364787243201,0.14858202190769013]",4.0,"[0.01797880052591858,-0.021786718164101913]",4.0,"[-0.1303639820848514,0.053469874314656725]",4.0,"[-0.1105743829565046,-0.05903026724122708]",100.0,"[-0.03514816249467997,0.003688467350825104]",100.0,"[0.10665981196432019,-0.14969595237571273]",4.0,"[0.09092448904725448,-0.09943003596707771]",4.0,"[-0.05722286522036325,-0.10984966328980675]",4.0,"[0.02542593032548556,0.05049493192410321]",4.0,"[-0.1613532818726516,-0.002866524627694864]",4.0,"[0.039131454457422346,-0.11616802088481715]",4.0,"[-0.11740042880936181,-0.13148613597843736]",4.0,"[0.1793246374904803,-0.07848475509387683]",4.0,"[0.09077791003154241,0.15739240983825273]",4.0,"[-0.10448370226654835,0.11870033321300794]",4.0,"[0.07977272444147189,-0.013927241980353756]",4.0,"[0.0491161549378693,-0.17104179055380084]",4.0,"[0.18521726255217247,0.025720776647740758]",4.0,"[0.005770223254854772,0.08696687302134774]",4.0,"[-0.04573025726818736,-0.06991671306871952]",4.0,"[0.071287497221386,0.11570635353354623]",4.0,"[-0.16466816646971125,-0.08531332172829237]",100.0,"[0.13847922749220015,0.11903919037922597]",4.0,"[-0.0007808848355419797,-0.1384526984828694]",4.0,"[-0.04202734699354908,0.08930761251082217]",4.0,"[-0.07688793595730098,-0.1780265332541901]",4.0,"[0.08819574897610241,0.04215974874731188]",4.0,"[0.02,0.02]",162.4316,0.0,18.0,18.0,183.0,1.0,,,,,,,
,,,,,,,677948fa843635fdb42a4351,684429505a86090779a67644,2025-06-07_12h58.21.636,shape_ratio,2024.1.5,Win32,60.24096386,684250e4f00cb30b92d1fa88,,,,,,,,,,,162.4329,162.9315,,,163.1816,163.6141,left,,,,,,,,0.5,0.4233,,,,,,,162.9316,163.1815,163.6141,"[0.009921131362850864,0.13208993933697152]",4.0,"[-0.06979154285097855,-0.06629979130860572]",100.0,"[-0.10872030259830631,-0.037854831886859626]",4.0,"[0.008212472560067524,-0.07633458082233853]",100.0,"[0.05059801169089768,-0.05309701302428374]",4.0,"[0.10280291611233743,-0.036177078879242694]",100.0,"[-0.05717533716499466,0.0891597783922152]",4.0,"[0.07423025090608396,-0.14164382879262594]",100.0,"[-0.04037615020937427,-0.17541264925205172]",100.0,"[-0.1494896553503981,0.046920447342689124]",100.0,"[0.015561847800875583,0.0901015559969215]",4.0,"[-0.06182505469556512,-0.02324801758374147]",4.0,"[0.14502646395961613,-0.1075216284095634]",100.0,"[-0.11016679415617892,-0.15587585913723315]",4.0,"[0.0038505939689700637,-0.13339505559641965]",100.0,"[0.11018361081744141,0.07947410647857829]",4.0,"[0.08818264416365701,0.02746966973040401]",100.0,"[-0.115304395641022,0.012181830118298015]",100.0,"[-0.16292533241220736,-0.11101145525644682]",100.0,"[0.1356801410179419,0.13501276440577595]",4.0,"[0.04404434812096437,0.04497149536627362]",100.0,"[-0.047672339504284365,0.05002297272524828]",4.0,"[-0.05517028471836221,0.14842208893228515]",4.0,"[0.16894700031187487,0.1025705429579099]",4.0,"[-0.1258919551945595,0.10450378517294018]",4.0,"[0.045413415478886936,-0.007155436247313426]",100.0,"[-0.06888220794593528,-0.14458826186105214]",4.0,"[-0.1835493671010758,0.022257711232311846]",100.0,"[0.11937469614617488,-0.14559002625135245]",100.0,"[-0.15531492784189047,-0.03361457684758152]",4.0,"[0.1434405127892246,-0.015997948646000522]",4.0,"[0.14380758750896444,0.028901502104486252]",100.0,"[0.02,0.02]",164.7125,0.0,19.0,19.0,100.0,1.0,,,,,,,
,,,,,,,677948fa843635fdb42a4351,684429505a86090779a67644,2025-06-07_12h58.21.636,shape_ratio,2024.1.5,Win32,60.24096386,684250e4f00cb30b92d1fa88,,,,,,,,,,,164.7128,165.2122,,,165.4627,166.0117,right,,,,,,,,0.1,0.5262,,,,,,,165.2122,165.4625,166.0118,"[-0.020706150036888513,0.1202678612930702]",4.0,"[0.037366242312645674,0.15054908352412766]",4.0,"[0.13788132745166462,-0.009577421086561514]",4.0,"[-0.128034795662629,0.10611049353742995]",4.0,"[0.19369967657282788,-0.042008174629733365]",4.0,"[0.045689434502248084,0.08756644843295205]",4.0,"[-0.09409322164574999,-0.12814238993531718]",4.0,"[-0.03628379809841733,-0.023764307737215634]",4.0,"[0.19820713106982213,0.015819565485223508]",4.0,"[-0.09661392147448615,-0.07927385713123147]",4.0,"[0.08317089764908549,-0.032447840782612876]",4.0,"[0.00041023114641573066,0.05654307135710614]",4.0,"[0.03452800572885109,-0.1963605778246173]",100.0,"[0.1186881501179081,0.05641270188417843]",4.0,"[0.021167330314106853,-0.07078149440608272]",4.0,"[0.13348765145998584,-0.09508953466635794]",4.0,"[-0.030500001276695422,0.17182430533079937]",4.0,"[-0.0779864808611473,0.02294212965463019]",4.0,"[0.1413215438305096,0.0969855416069157]",4.0,"[0.059343965392820636,-0.08546108261483572]",100.0,"[-0.16691790675917811,-0.0962929256801742]",4.0,"[-0.044983916752576916,-0.1779691705435836]",4.0,"[-0.16932967336721735,0.05702266176970887]",4.0,"[0.0782422336623136,0.0442743616429216]",4.0,"[-0.0911632544173075,0.1377630248749694]",4.0,"[-0.03999011570946948,-0.13097770533827152]",4.0,"[-0.11917429072093036,-0.004724341069995059]",4.0,"[-0.005613966952654047,-0.19108464287541663]",4.0,"[-0.16700681985336988,-0.016216814693311463]",4.0,"[0.111885181637785,-0.1514478406136177]",4.0,"[0.05692515938988313,-0.1445145792772055]",100.0,"[0.026023050176871582,-0.025642219263700926]",4.0,"[0.02,0.02]",167.1102,0.0,20.0,20.0,209.0,1.0,,,,,,,
,,,,,,,677948fa843635fdb42a4351,684429505a86090779a67644,2025-06-07_12h58.21.636,shape_ratio,2024.1.5,Win32,60.24096386,684250e4f00cb30b92d1fa88,,,,,,,,,,,167.1112,167.6097,,,167.8603,168.3759,left,,,,,,,,0.45,0.5076,,,,,,,167.6097,167.8602,168.376,"[0.16726567967896,-0.07494369471215383]",4.0,"[0.00941483731549566,0.10929783909870847]",100.0,"[0.08656548709277037,0.08602647666079652]",4.0,"[0.195564109141689,-0.024674646628015395]",4.0,"[-0.08246394939753075,0.1390895646015935]",4.0,"[0.011420941994573648,-0.13755670125889194]",4.0,"[-0.09861101297784208,-0.0030165006300165785]",4.0,"[0.07045382829902926,-0.14010100337113798]",100.0,"[0.1511772628541111,0.05485106006657399]",4.0,"[0.03094406658801025,-0.05028059635584635]",100.0,"[0.030886228012402837,0.1742493102388315]",100.0,"[-0.04893050674191268,-0.0836476087071782]",100.0,"[-0.06584547096603713,0.07193337322060346]",4.0,"[0.04292229568832963,-0.10107314110621832]",4.0,"[0.1257786639994523,0.011386764253436196]",100.0,"[-0.12029204630507066,0.05331101583896477]",4.0,"[-0.15813948523650145,-0.08757875974257973]",4.0,"[-0.17053591716665353,0.02974185104133416]",100.0,"[-0.03553925259064633,-0.12771638702013727]",4.0,"[0.1261885689664518,-0.15493290590416564]",4.0,"[0.11846960374522568,-0.10730466477955458]",4.0,"[-0.018073350929865378,-0.1820070826407634]",4.0,"[0.19484164246324323,0.0347538744684275]",100.0,"[-0.07721986643219646,-0.14964656340400256]",100.0,"[0.10256069828383119,-0.04241273950854341]",4.0,"[0.0014836729162966892,-0.09720002973465144]",100.0,"[0.031806358205629,-0.1837909115748667]",100.0,"[-0.03018751469329381,-0.027583465712721102]",100.0,"[-0.15039299099133566,0.08398578188460575]",4.0,"[-0.03568437458212865,0.13690829759427667]",100.0,"[0.06436471474137216,-0.008381932060457694]",4.0,"[0.005306523300522135,0.031548546355726556]",100.0,"[0.02,0.02]",169.4746,0.0,21.0,21.0,134.0,1.0,,,,,,,
,,,,,,,677948fa843635fdb42a4351,684429505a86090779a67644,2025-06-07_12h58.21.636,shape_ratio,2024.1.5,Win32,60.24096386,684250e4f00cb30b92d1fa88,,,,,,,,,,,169.4752,169.9742,,,170.2247,170.69,right,,,,,,,,0.45,0.4335,,,,,,,169.9743,170.2246,170.6901,"[-0.028570737106149425,0.05099968948097243]",4.0,"[-0.037636955951931846,-0.1395976317188949]",4.0,"[-0.13952513107214734,0.08926352810296115]",100.0,"[0.16141769270030792,-0.012205370681270346]",100.0,"[-0.19164728200904357,-0.05083624618001157]",4.0,"[0.08904279843930253,0.10630926656059171]",4.0,"[-0.14876553906564913,-0.04454108648872783]",4.0,"[-0.1599267633269415,-0.09490715791674466]",100.0,"[0.10438276550738819,-0.14806518042674646]",100.0,"[0.12718236249814488,0.13316339005007136]",4.0,"[0.05355020749887571,0.048228167371825115]",100.0,"[-0.08462251303781154,0.16265803865118264]",100.0,"[-0.033685482834018655,-0.18132907932811626]",4.0,"[-0.09984135804113647,-0.07931980297858628]",4.0,"[-0.11375914956616032,-0.15691376769884818]",100.0,"[0.06857115233574597,-0.07300616138716261]",100.0,"[0.016084269331836522,0.11935854704596564]",4.0,"[-0.011429370745849947,-0.023091643691662677]",4.0,"[0.013869395414326446,-0.15745410629618753]",100.0,"[0.13118936986991905,0.01807868899661752]",100.0,"[-0.07648472124098991,-0.046529318718979765]",4.0,"[-0.06682583374731174,0.08939880285407328]",4.0,"[0.05416163541145568,0.1716736513076829]",4.0,"[0.12564138741088302,-0.08023645159703004]",100.0,"[0.05881109556458171,-0.13168521656494184]",4.0,"[-0.01615163679664204,-0.06372075103486322]",4.0,"[0.187652373692947,-0.06751643693301788]",100.0,"[-0.0720616260469509,0.015478706734599411]",4.0,"[-0.03652712412901978,0.17819076557399058]",100.0,"[0.1838173486513135,0.044771745936833994]",100.0,"[-0.024379361131974107,0.13163376000481422]",4.0,"[-0.17485081273550188,0.06486105489031249]",4.0,"[0.02,0.02]",171.7891,0.0,22.0,22.0,141.0,1.0,,,,,,,
,,,,,,,677948fa843635fdb42a4351,684429505a86090779a67644,2025-06-07_12h58.21.636,shape_ratio,2024.1.5,Win32,60.24096386,684250e4f00cb30b92d1fa88,,,,,,,,,,,171.79,172.2886,,,172.5391,173.0377,right,,,,,,,,0.1,0.4666,,,,,,,172.2887,172.5389,173.0378,"[-0.05361783301933447,0.034843790182527555]",4.0,"[0.09717094344134623,-0.09237369601516407]",4.0,"[-0.15521180314717742,-0.11229525476793488]",4.0,"[0.17515923888382737,0.01098561396135241]",4.0,"[0.02287791844376637,0.18529380277750088]",4.0,"[0.044940803283389126,0.1437488015472305]",4.0,"[-0.07782641063917252,0.14269452126796522]",4.0,"[0.12922784314696947,-0.06832614476939924]",4.0,"[-0.1738912416560928,0.018240563966857446]",4.0,"[-0.005921319222494443,0.0904203868026069]",4.0,"[-0.016726837222869367,-0.13792788857185828]",100.0,"[0.00790892619543346,-0.067280654094409]",100.0,"[-0.14213598548856451,0.0496343564512494]",4.0,"[-0.09517274530925864,0.006692738334219708]",4.0,"[-0.026042136435879465,-0.03431550586536958]",4.0,"[0.012029271152004757,-0.0006980428914986152]",4.0,"[-0.03538701041658607,0.15511295100703723]",4.0,"[-0.11535058685042802,-0.09468862440587487]",4.0,"[-0.09243747839349474,0.08256608140919264]",100.0,"[-0.08219123415418536,-0.05601753317027053]",4.0,"[0.08397704646208248,-0.045172762275897636]",4.0,"[-0.1829287952864777,-0.028324985700586336]",4.0,"[0.15707087639516518,0.05087234255135633]",4.0,"[-0.06540429483961593,-0.10149622379046604]",4.0,"[0.1339298196995944,-0.14825408161429096]",4.0,"[0.14294680665432696,0.10263901126393866]",4.0,"[0.016251549105075463,-0.1625683711228672]",4.0,"[-0.17300276523744854,0.08734328352602186]",4.0,"[-0.02286100000711339,-0.19667236160038015]",4.0,"[0.11416808779247056,0.07072272789000192]",4.0,"[-0.11947352284251118,-0.15833784285720265]",4.0,"[-0.13596885155887387,0.12580861364629692]",4.0,"[0.02,0.02]",174.1367,0.0,23.0,23.0,194.0,1.0,,,,,,,
,,,,,,,677948fa843635fdb42a4351,684429505a86090779a67644,2025-06-07_12h58.21.636,shape_ratio,2024.1.5,Win32,60.24096386,684250e4f00cb30b92d1fa88,,,,,,,,,,,174.1376,174.636,,,174.8865,175.3022,left,,,,,,,,0.5,0.3863,,,,,,,174.636,174.8863,175.3023,"[-0.11372744348200282,0.03263276877863312]",100.0,"[0.016795908464166412,-0.11199237538786083]",100.0,"[-0.12989420268070262,0.08533478747328423]",4.0,"[-0.0798840906169374,-0.059250791184581084]",100.0,"[0.01346700973956238,-0.0015634454156777593]",4.0,"[0.022964091937216526,-0.19691397626613502]",100.0,"[0.036256873701115466,0.13261421103589832]",4.0,"[0.07494078501852061,-0.1644448846056372]",4.0,"[-0.003844188134165201,0.16784120307426356]",4.0,"[0.14998452412841415,-0.0525815176500789]",100.0,"[0.047695154343580216,0.06493217311144929]",4.0,"[0.19798017513575772,-0.02642540571581315]",4.0,"[0.1175329844090721,-0.13954197438596955]",100.0,"[0.18290145762351576,0.04872896430191004]",4.0,"[-0.019529148381174016,0.10396107248068343]",100.0,"[-0.08012272144794888,0.054512526473226346]",100.0,"[-0.08808251726879829,-0.16031687458879826]",4.0,"[0.12819333391708773,0.08208322103141703]",100.0,"[-0.030338431164144145,-0.06811502363139998]",100.0,"[0.09171402960195216,-0.038504813433983744]",100.0,"[-0.020054811246741282,-0.18562285862747047]",100.0,"[0.02626758071522952,0.19817451810849862]",4.0,"[-0.16922709403418326,0.01871625245678458]",4.0,"[-0.05148914464952844,0.15903783712115996]",4.0,"[-0.029438152120525116,0.03332392698679257]",100.0,"[-0.15365253332563414,-0.018304322103069297]",4.0,"[-0.1330584066777576,-0.060825722041676834]",4.0,"[0.11879959550436642,0.022552456482477803]",100.0,"[-0.061524338001445134,0.11697429537014778]",4.0,"[0.11395979847755096,0.1319180453038833]",100.0,"[0.07755498645262038,0.03183953023466276]",4.0,"[-0.12606443991703675,0.15102586484114106]",100.0,"[0.02,0.02]",176.4012,0.0,24.0,24.0,92.0,1.0,,,,,,,
,,,,,,,677948fa843635fdb42a4351,684429505a86090779a67644,2025-06-07_12h58.21.636,shape_ratio,2024.1.5,Win32,60.24096386,684250e4f00cb30b92d1fa88,,,,,,,,,,,176.4022,176.9007,,,177.1513,177.5673,left,,,,,,,,0.5,0.3843,,,,,,,176.9008,177.1511,177.5674,"[0.12791032073339717,-0.005463974525914522]",100.0,"[-0.09086579624688404,0.03429491116624277]",100.0,"[0.0356922017467572,-0.016529614860256156]",100.0,"[-0.03840153765969094,-0.04342171441467638]",4.0,"[-0.1401076301628088,0.09444946243837916]",4.0,"[0.09953733050282033,0.1156759436485317]",4.0,"[0.0728265528748327,0.15966070434082444]",4.0,"[0.13047945715596462,0.06442487524905371]",100.0,"[-0.17247789403788027,0.06597764560851341]",100.0,"[0.12418449523181908,-0.1127443116614268]",4.0,"[-0.1062801372985931,-0.00818475633008688]",4.0,"[-0.01569461251746544,0.14494270171403684]",100.0,"[-0.02036443690586988,-0.10299297129418926]",100.0,"[-0.09518271040189939,-0.0798841457563161]",100.0,"[0.02598577611450085,0.16306903756082147]",100.0,"[-0.10262871135078988,0.13540471136209073]",100.0,"[-0.1705135963082412,-0.05008905271091993]",100.0,"[0.08121301526138562,0.01741248645546372]",4.0,"[0.06799427646163665,-0.14530353215768196]",4.0,"[-0.04268275893834616,0.10630383367230956]",4.0,"[-0.013619811756205026,0.044550416101972516]",100.0,"[0.06377870054722794,-0.0904910667177704]",4.0,"[0.04670209955882181,-0.18466842822453383]",100.0,"[-0.18974192838930445,-0.008448213208780803]",4.0,"[0.17680253181318623,0.06336994217995433]",4.0,"[0.05918881850693818,0.07289397450569288]",4.0,"[0.03021853714849452,0.03387000744561634]",4.0,"[-0.0036006446123179694,0.09281101131259707]",100.0,"[0.16066645318911182,-0.046921355339428227]",4.0,"[0.16356183885822903,-0.08705198042783756]",100.0,"[-0.0689971343517376,0.07307976416794558]",100.0,"[0.1739447413068098,0.02197091153863802]",4.0,"[0.02,0.02]",178.6654,0.0,25.0,25.0,115.0,1.0,,,,,,,
,,,,,,,677948fa843635fdb42a4351,684429505a86090779a67644,2025-06-07_12h58.21.636,shape_ratio,2024.1.5,Win32,60.24096386,684250e4f00cb30b92d1fa88,,,,,,,,,,,178.6663,179.1649,,,179.4186,179.9482,left,,,,,,,,0.9,0.5073,,,,,,,179.165,179.4185,179.9484,"[0.076709777497203,-0.13894083321393733]",100.0,"[0.048131063690642406,-0.04069720036810603]",100.0,"[-0.10944274147633759,0.08724718115804614]",4.0,"[0.1460414655921341,0.005048356991546153]",100.0,"[0.012239472493404025,0.04473616695452752]",100.0,"[0.098082101067966,0.1459896936534672]",100.0,"[-0.06006940849437271,-0.1412307409363689]",100.0,"[-0.15313288997368657,0.10992301119088659]",100.0,"[0.16676853607062392,-0.10304131672629427]",100.0,"[0.12712861361024505,0.054333971966055716]",100.0,"[0.16736747972395438,0.09203227531132187]",100.0,"[0.12852301862836318,-0.1162217630127988]",100.0,"[0.004942130513732815,-0.0815646915399736]",100.0,"[-0.018465461321956256,0.12161634837984757]",100.0,"[-0.02170968072639384,-0.1134165100991996]",100.0,"[-0.08424314604396586,0.021288665616110286]",4.0,"[0.008219439694866252,-0.02447970364604389]",100.0,"[-0.005766550631781316,0.19937364173124916]",100.0,"[0.036932747347783484,0.11025748596713295]",100.0,"[-0.029924379243059775,0.03510648496987738]",4.0,"[0.09673796514450968,-0.06804087615260591]",100.0,"[0.06195567177485572,0.17281613105191057]",100.0,"[0.11333864572393279,-0.024826721495547314]",100.0,"[-0.10561044591549669,-0.025731209731239393]",100.0,"[0.15152897701935483,-0.06276673271939001]",100.0,"[-0.0628234493463941,-0.04688946436476636]",100.0,"[-0.009384250060456926,-0.16646921689292754]",100.0,"[0.08619392119705424,0.07976509919396481]",100.0,"[0.136648310665202,0.13156914244072757]",100.0,"[-0.16719628720289514,-0.05290819853660917]",100.0,"[-0.06445504394551466,0.06211935568990486]",100.0,"[-0.05398822048723056,0.1899109127396578]",100.0,"[0.02,0.02]",181.0466,0.0,26.0,26.0,18.0,1.0,,,,,,,
,,,,,,,677948fa843635fdb42a4351,684429505a86090779a67644,2025-06-07_12h58.21.636,shape_ratio,2024.1.5,Win32,60.24096386,684250e4f00cb30b92d1fa88,,,,,,,,,,,181.0478,181.5461,,,181.7966,182.2625,right,,,,,,,,0.4,0.4338,,,,,,,181.5461,181.7965,182.2625,"[-0.15920979455846332,-0.05755717361917876]",100.0,"[0.18532354215257082,-0.03400029996284776]",4.0,"[0.10897952151112597,-0.007564482893801013]",100.0,"[0.05395095505020742,-0.152221378504684]",100.0,"[0.14353939837308308,-0.06791391263955829]",4.0,"[0.17438943974808555,0.079144971664732]",100.0,"[-0.051264532896536555,-0.023567694198610024]",4.0,"[-0.061085772736763896,0.1612430371678003]",4.0,"[0.01304305235374488,-0.15048122113101256]",4.0,"[-0.1091462305358288,-0.15292297673714467]",4.0,"[-0.17693314780517225,-0.008790466170505244]",4.0,"[-0.1349864999503153,0.11908945211964185]",100.0,"[0.036385194034952814,-0.003109240095803347]",100.0,"[0.002799542596045668,0.11519990046962213]",4.0,"[-0.09785512898844492,-0.07059367729135113]",4.0,"[-0.035607847666866504,-0.15482779488657672]",100.0,"[-0.04478993294369867,0.08243525341373324]",4.0,"[0.1372620017664885,0.11941486016236524]",100.0,"[-0.138560269525512,0.038926333530942714]",4.0,"[0.07604031772485126,0.05961314078502972]",4.0,"[-0.1418262533115042,0.07958508404684117]",100.0,"[0.027321729504404986,-0.04255365517829432]",4.0,"[0.10176214286187749,-0.10566609902755461]",100.0,"[0.038381169967701544,0.09660519926834986]",4.0,"[-0.09052695895695932,0.08767477232840168]",4.0,"[-0.05641893932866654,-0.0711137433804187]",100.0,"[0.11824088865717773,0.03176256480250688]",100.0,"[0.17330115087757475,0.02662403675129428]",4.0,"[-0.004220081355137292,0.02894350238417726]",4.0,"[0.04295655557929566,-0.10458616527820332]",4.0,"[-0.014738521822659187,0.1741955316161798]",4.0,"[-0.1115312834627916,-0.007529920939914094]",100.0,"[0.02,0.02]",183.3606,0.0,27.0,27.0,175.0,1.0,,,,,,,
,,,,,,,677948fa843635fdb42a4351,684429505a86090779a67644,2025-06-07_12h58.21.636,shape_ratio,2024.1.5,Win32,60.24096386,684250e4f00cb30b92d1fa88,,,,,,,,,,,183.3612,183.8601,,,184.1124,184.593,left,,,,,,,,0.55,0.4597,,,,,,,183.8601,184.1122,184.5932,"[0.004174265414995955,-0.03111396434005856]",100.0,"[0.057244626443488385,0.15522977430053933]",100.0,"[-0.00861695590481182,0.18118176378923087]",4.0,"[-0.1113143824497102,0.01899601355004215]",4.0,"[-0.055833644137763226,-0.07559217560913117]",100.0,"[0.11935909312569393,-0.03978739384988617]",4.0,"[0.04292454527691081,-0.0627417263737257]",100.0,"[-0.02487441580175442,-0.11094775555404847]",4.0,"[0.08627510032347716,0.06217371805931512]",4.0,"[0.1256616131943165,0.10733420910624428]",100.0,"[-0.10803586753704347,0.1332147399321707]",100.0,"[0.11899456817974177,0.027649559432263923]",100.0,"[-0.09881510703899479,-0.12569130710144133]",4.0,"[0.1685359351144354,0.06030242584611212]",4.0,"[0.08000785469841698,0.10744863487475481]",4.0,"[0.1842088317429388,-0.06800771172296308]",100.0,"[-0.18557933110874594,0.04065596181685026]",4.0,"[0.02820354139702125,0.04306194724119812]",100.0,"[-0.12772889210724073,-0.0920627596997849]",100.0,"[0.14911341074599002,-0.09067100931427176]",100.0,"[-0.1649452714480063,0.07819557515133438]",100.0,"[0.19677197304827976,0.0039015380095037086]",100.0,"[0.0377580318368138,0.08955318742641302]",4.0,"[0.11283165619421913,-0.1357908358399561]",100.0,"[0.057145568376194694,-0.15581083544661248]",4.0,"[-0.09879206796651024,-0.029512760346442214]",100.0,"[-0.08298287890401759,-0.17196642256707403]",4.0,"[0.14929143379789436,-0.0013717669384677026]",100.0,"[-0.17855529697434672,-0.03538600059641708]",4.0,"[0.06770733763563241,-0.005764937006262215]",4.0,"[-0.013276021833402228,-0.06873245982212002]",100.0,"[-0.029734566688050756,0.0947533175478453]",100.0,"[0.02,0.02]",185.6917,0.0,28.0,28.0,81.0,1.0,,,,,,,
,,,,,,,677948fa843635fdb42a4351,684429505a86090779a67644,2025-06-07_12h58.21.636,shape_ratio,2024.1.5,Win32,60.24096386,684250e4f00cb30b92d1fa88,,,,,,,,,,,185.6927,186.1912,,,186.4411,186.7582,right,,,,,,,,0.1,0.3028,,,,,,,186.1913,186.441,186.7584,"[-0.050491949983323285,0.10962931476173718]",4.0,"[-0.07148843849515474,-0.10886500750251941]",4.0,"[0.014512459438201602,-0.021353173150706447]",4.0,"[-0.14460485008636828,-0.05644457085724598]",4.0,"[-0.009955738048127367,0.1090163332117825]",4.0,"[-0.0523927461703829,0.01857753521251753]",4.0,"[0.06224251813077161,-0.1112361242079925]",4.0,"[-0.1807821463615371,0.04078072635398128]",100.0,"[0.09240469361304526,0.08167702394503465]",4.0,"[0.129694575056259,-0.13719368083857028]",4.0,"[0.016957858523460784,-0.16132166651850538]",4.0,"[0.1386167437059841,0.12485565764336873]",4.0,"[-0.036657335208385426,-0.14650127471402943]",4.0,"[0.04087148518513196,0.06209026794883441]",4.0,"[-0.003471480610910102,0.05212301139083971]",4.0,"[0.15406011871852404,-0.039444670794748345]",4.0,"[-0.1715210570531223,-0.09585705817450545]",4.0,"[-0.05996125822967731,0.1812176310701131]",4.0,"[-0.11664471672876729,-0.1232631603283644]",4.0,"[0.18985534285049,0.061498236158728944]",4.0,"[0.08374581726970502,-0.04101017075929601]",4.0,"[-0.11323254974182824,-0.015810143644563845]",4.0,"[-0.06746691053199139,-0.17691742964387136]",4.0,"[0.08740487360881133,0.12336128138674438]",100.0,"[0.14670565879088462,0.044749174981340095]",4.0,"[-0.187404969089022,-0.03569358691757376]",4.0,"[-0.07720784930672721,-0.06634526593992111]",4.0,"[-0.016739855549174655,0.17099008997619242]",4.0,"[-0.1018458531004754,0.09974918303198886]",4.0,"[0.10530099559982693,0.16898882880970392]",100.0,"[0.1440128179119474,-0.08161153316063155]",4.0,"[-0.11983387142169952,0.054565653503228485]",4.0,"[0.02,0.02]",187.8564,0.0,29.0,29.0,189.0,1.0,,,,,,,
,,,,,,,677948fa843635fdb42a4351,684429505a86090779a67644,2025-06-07_12h58.21.636,shape_ratio,2024.1.5,Win32,60.24096386,684250e4f00cb30b92d1fa88,,,,,,,,,,,187.8573,188.356,,,188.6065,189.0057,right,,,,,,,,0.1,0.3765,,,,,,,188.356,188.6063,189.0058,"[-0.05061505161487162,-0.06633674099763828]",4.0,"[-0.05303612925977115,-0.024341906500004267]",4.0,"[-0.0996232036400375,0.159637617949128]",4.0,"[0.09572161101851728,-0.17117966735874204]",4.0,"[-0.031342886167518944,0.08131056611893578]",100.0,"[0.04360305263327738,0.14786320254709803]",4.0,"[-0.16274694034590115,-0.0007362942861631864]",4.0,"[-0.13269389285582067,0.09809607165372657]",4.0,"[0.1113385002447732,-0.022480154413966977]",4.0,"[0.03752148258700858,0.0042718577564590755]",4.0,"[-0.033640660905129204,-0.16581916628948265]",4.0,"[-0.1568074394115064,0.055731617565328004]",4.0,"[0.019763283784816874,-0.08250401989750954]",4.0,"[0.037159031010585986,-0.1946674403817896]",4.0,"[-0.1021349320854628,-0.017336677435013968]",4.0,"[0.14058683975292854,-0.05104757244875884]",4.0,"[-0.0886955714979474,-0.08184026984997382]",4.0,"[-0.047040209615325235,0.12155362936968091]",100.0,"[0.0907345387587108,0.0712435988437568]",4.0,"[0.13766609698165563,0.07024298599306325]",4.0,"[-0.14301610005009147,-0.12191578005794597]",4.0,"[-0.1576124732263842,-0.04373419178259296]",4.0,"[-0.025332374732112282,0.1723087665225393]",4.0,"[-0.08308848930538253,-0.129647303483427]",4.0,"[0.15509843344836136,0.03200150642448517]",4.0,"[0.002917679585917555,-0.018922876319004887]",4.0,"[0.11919968547266512,0.14420964420583487]",4.0,"[-0.004932149033253861,0.025983557952617836]",4.0,"[0.028783257788278872,0.07128704800552108]",4.0,"[0.02262032575064543,-0.14752239108349993]",100.0,"[-0.09432768215212363,0.03512205041544101]",4.0,"[0.07820890352558009,-0.11238207366371913]",4.0,"[0.02,0.02]",190.1042,0.0,30.0,30.0,198.0,1.0,,,,,,,
,,,,,,,677948fa843635fdb42a4351,684429505a86090779a67644,2025-06-07_12h58.21.636,shape_ratio,2024.1.5,Win32,60.24096386,684250e4f00cb30b92d1fa88,,,,,,,,,,,190.1052,190.6037,,,190.86,191.3702,left,,,,,,,,0.6,0.487,,,,,,,190.6038,190.8599,191.3703,"[-0.0764243069158484,-0.13025511507438167]",100.0,"[-0.08216211682096429,-0.00735761108852361]",100.0,"[-0.1510631355047535,0.0317594922784039]",4.0,"[-0.0020668956714764877,-0.045242253441246195]",100.0,"[0.13869841978501204,-0.07714302893888098]",100.0,"[-0.07680097166631074,-0.17324782795257657]",100.0,"[0.09353640325146186,0.10711495545708594]",4.0,"[-0.12291189175151775,-0.03085415037533425]",4.0,"[-0.07203748214195767,0.06120940055973003]",4.0,"[-0.0953486606042279,-0.07906189792950194]",100.0,"[0.017063085781392328,-0.11068405065955567]",100.0,"[0.19190725697323174,0.03041593180800278]",100.0,"[0.09740893694137444,-0.13670899065841188]",4.0,"[-0.10985591625622312,0.08331496048318514]",100.0,"[-0.04623295094444996,-0.08681113001304089]",4.0,"[-0.006171628994249618,-0.19129086505988616]",100.0,"[0.07794266810594223,-0.029570269857312988]",100.0,"[0.03654207822181655,0.1908476051272265]",100.0,"[0.13267762126322738,0.03852433652174737]",4.0,"[0.0349288270091295,0.017175473245663608]",100.0,"[0.04098149733337138,-0.07589299878324762]",100.0,"[-0.02008698749536672,-0.1517346164602038]",100.0,"[-0.04513506690397152,0.18920761592693158]",4.0,"[0.05064272160422831,0.123240792979192]",4.0,"[0.04525136270197782,-0.15879184268593055]",100.0,"[-0.1625183649717459,0.11655352206719202]",100.0,"[-0.15138377786193394,-0.12664263712992535]",4.0,"[-0.02363899271416957,0.11422926134221002]",100.0,"[-0.021502713739493598,-0.003455291033775875]",4.0,"[0.17704536174947666,-0.052362000325885]",4.0,"[0.1396411360012762,0.13046914055511197]",4.0,"[-0.1988927875077958,-0.004769017015122365]",100.0,"[0.02,0.02]",192.4686,0.0,31.0,31.0,42.0,1.0,,,,,,,
,,,,,,,677948fa843635fdb42a4351,684429505a86090779a67644,2025-06-07_12h58.21.636,shape_ratio,2024.1.5,Win32,60.24096386,684250e4f00cb30b92d1fa88,,,,,,,,,,,192.4695,192.9681,,,193.2185,193.5843,left,,,,,,,,0.45,0.3533,,,,,,,192.9682,193.2184,193.5845,"[0.10399957650755202,-0.08625080823969541]",100.0,"[-0.01214451279676371,-0.08350043401575813]",4.0,"[-0.10600729212702838,-0.013874693002493872]",100.0,"[-0.12226711380637435,-0.06758921414895927]",4.0,"[-0.08743768903209279,0.06802792344798278]",4.0,"[0.07716874845064768,0.05310791635856523]",4.0,"[0.06450711634007726,-0.09989597842767435]",4.0,"[-0.019816940879580847,0.10978278872878476]",4.0,"[-0.045959345494379286,-0.04765513693542814]",4.0,"[0.01883331077120276,-0.18468957654419435]",100.0,"[0.0220337856485347,-0.11315717513934953]",100.0,"[-0.12688181626263656,0.04325749499357017]",4.0,"[-0.17007096270938796,0.09650931764343358]",100.0,"[0.06964603611822565,0.14684256110781896]",4.0,"[-0.08863988884396136,0.13297377829097828]",100.0,"[-0.04611547392126662,0.17356002442577206]",4.0,"[0.1404074537430434,-0.03835550732366191]",4.0,"[0.004823561504664644,0.16422039575100503]",4.0,"[0.1670719448783564,-0.09740474989254479]",4.0,"[-0.1691525610679033,0.05486452205897209]",4.0,"[0.14838322664594827,0.07462535036119554]",100.0,"[0.049693542412028904,-0.15012492891275772]",100.0,"[-0.000659923661217515,-0.025958136858460077]",100.0,"[-0.18217404721619299,-0.0395005044594818]",4.0,"[-0.05867755372969475,-0.0007571352930107624]",4.0,"[0.08625629818973356,-0.017788407777407773]",4.0,"[-0.08590274086596421,-0.1615824794529455]",100.0,"[-0.04191994564430697,0.038280076398508056]",100.0,"[-0.15744945614321887,-0.0005392039277435694]",4.0,"[0.12585111148175165,-0.12131081181681153]",100.0,"[-0.03215220221043578,-0.18195890664336162]",100.0,"[0.170971880603741,-0.010361834836814826]",100.0,"[0.02,0.02]",194.6831,0.0,32.0,32.0,133.0,1.0,,,,,,,
,,,,,,,677948fa843635fdb42a4351,684429505a86090779a67644,2025-06-07_12h58.21.636,shape_ratio,2024.1.5,Win32,60.24096386,684250e4f00cb30b92d1fa88,,,,,,,,,,,194.6837,195.1826,,,195.4329,195.7988,left,,,,,,,,0.6,0.3516,,,,,,,195.1827,195.4328,195.7989,"[0.11003047160537054,-0.0046007357809041355]",100.0,"[0.16397761693866775,-0.07336981132537815]",4.0,"[-0.0660886836563831,-0.15030454099196516]",100.0,"[0.08158443187421717,-0.06571985587986813]",4.0,"[0.18693003412429926,0.03219333323682411]",100.0,"[-0.042537611514686574,0.14916957251937388]",100.0,"[-0.01631920341930576,0.11882452303738882]",4.0,"[-0.02269021599934574,-0.16594488294297602]",100.0,"[-0.19233364657539945,-0.03859008459170277]",100.0,"[0.138311404588167,-0.13495154654984848]",100.0,"[-0.12710355074715254,-0.05091492224017329]",100.0,"[0.08350516617782155,0.055569105570393094]",100.0,"[-0.10246745120772527,0.13311151252082987]",4.0,"[0.06799311385916,0.0112303085308517]",4.0,"[0.0387090537318784,-0.08864946937768207]",100.0,"[-0.027252572491813835,0.05474666552986272]",4.0,"[0.005574843817782939,-0.05817590386569273]",4.0,"[-0.13967125329616845,0.07791951071998747]",4.0,"[0.011405987782685485,0.1957598029829605]",4.0,"[-0.15702170112604452,-0.08609546169309437]",100.0,"[0.09167893239175426,-0.1448610892398944]",4.0,"[0.11220354759336078,0.16318519467419756]",100.0,"[0.15737933971608437,0.09253408050573782]",4.0,"[-0.08721532585052441,-0.07069797209497375]",100.0,"[0.02684791959573689,0.022214716751582538]",4.0,"[-0.08598169823734154,0.04210080903045355]",100.0,"[-0.14277206453332308,0.0061612926399074695]",100.0,"[0.037332462562071345,0.06231735680516901]",100.0,"[-0.0446817410843034,-0.08498451651073113]",100.0,"[0.013877306379357059,-0.14412474412515705]",4.0,"[-0.18596490735280619,0.023796764874360922]",100.0,"[0.05012743092004926,0.12534139360311777]",100.0,"[0.02,0.02]",196.8976,0.0,33.0,33.0,36.0,1.0,,,,,,,
,,,,,,,677948fa843635fdb42a4351,684429505a86090779a67644,2025-06-07_12h58.21.636,shape_ratio,2024.1.5,Win32,60.24096386,684250e4f00cb30b92d1fa88,,,,,,,,,,,196.8981,197.3972,,,197.6473,198.0963,left,,,,,,,,0.4,0.4325,,,,,,,197.3972,197.6473,198.0963,"[0.08890493759851814,0.13916132787404414]",100.0,"[0.022741899478265475,-0.15856110475187327]",4.0,"[-0.1628603301130966,-0.060929487428343476]",100.0,"[-0.14697496715278732,-0.022698847545227066]",4.0,"[0.006400575048692071,0.02759947546180039]",4.0,"[0.14954922925506123,0.06677617069229835]",4.0,"[0.06432047961491053,0.016325310602354263]",4.0,"[-0.09542184393851183,0.09006952789892993]",100.0,"[0.039805490856221766,0.1673720688940417]",4.0,"[-0.03853978111994178,-0.02604168762120194]",4.0,"[0.05667966466893853,-0.02748082704383469]",100.0,"[-0.08002803882594571,-0.05259803308636633]",100.0,"[0.058455912000600976,-0.07922805496305606]",4.0,"[-0.06341324636438019,0.01577562216721254]",4.0,"[0.15798543031190362,-0.05397372733564206]",4.0,"[-0.14668124973495836,0.08605391129784755]",4.0,"[-0.13802600511396979,-0.10910015911554333]",100.0,"[-0.07169396584652822,-0.11306162352180868]",4.0,"[0.04762048201053879,0.07857462178048448]",100.0,"[-0.049357546233545546,-0.1592986032708637]",100.0,"[-0.10643862099956873,0.04596459097994934]",4.0,"[-0.034392822436835106,0.09851883879309287]",100.0,"[0.0019601863625675685,-0.09011799071666235]",4.0,"[0.10739327436378635,-0.030934412821353417]",100.0,"[0.1703450859455963,-0.09965697062911431]",100.0,"[-0.10769072024059945,-0.15596856730342684]",4.0,"[0.1498214290514475,0.01015894267868928]",100.0,"[-0.15916729329092547,0.035264027877233116]",4.0,"[-0.002406408922156819,0.15683806413042525]",4.0,"[0.0027725013586319593,-0.04858479998355367]",4.0,"[-0.10759473494543698,0.00273160922114794]",100.0,"[-0.12233488100900801,0.15644210949685095]",4.0,"[0.02,0.02]",199.1952,0.0,34.0,34.0,155.0,1.0,,,,,,,
,,,,,,,677948fa843635fdb42a4351,684429505a86090779a67644,2025-06-07_12h58.21.636,shape_ratio,2024.1.5,Win32,60.24096386,684250e4f00cb30b92d1fa88,,,,,,,,,,,199.1959,199.6949,,,199.945,200.361,right,,,,,,,,0.6,0.4009,,,,,,,199.6949,199.945,200.3612,"[0.02448411610209523,0.1696261462493805]",100.0,"[0.04958974213777621,-0.1834290348790622]",4.0,"[0.014593216602325994,-0.0469461929387628]",100.0,"[-0.08767709298019527,-0.13562777046374655]",4.0,"[-0.11800261862783372,-0.10411167376598475]",100.0,"[-0.12479303895585747,0.1065557712758882]",4.0,"[-0.0763771165400539,0.024968398553943817]",100.0,"[-0.052644073169658356,-0.021647940303209223]",4.0,"[-0.1809967124451835,0.001021777260469576]",4.0,"[-0.038641873028185066,-0.1790215655470858]",100.0,"[0.06672476870818625,-0.13536690451278952]",100.0,"[-0.1411474792669006,0.06863242551966618]",4.0,"[0.19841489731639847,-0.010506437687559265]",4.0,"[-0.07188644049689069,0.0649637722903025]",100.0,"[0.18160775500184553,0.06366333868223654]",4.0,"[-0.08968883922249912,-0.06415100669608452]",100.0,"[0.09543326751939896,0.04753861884538018]",100.0,"[0.025565315274854436,0.012424328056005787]",4.0,"[0.02000394251953961,-0.12423247812297496]",4.0,"[-0.03028454557865664,0.1906893290799915]",100.0,"[0.06450925412388914,-0.06602971013337776]",100.0,"[0.17783181646776755,-0.07846338078312438]",100.0,"[0.10679733942313868,-0.07321460881111609]",4.0,"[0.14986653635264277,0.010806254982153471]",100.0,"[0.05342702682015089,0.08015581490085427]",100.0,"[-0.017738545422477436,0.08634272691885901]",4.0,"[-0.044894723291944494,-0.0742225816781485]",100.0,"[0.03455475205194639,0.11580888974190931]",100.0,"[-0.11338374036775163,-0.02935708856400744]",4.0,"[0.1369642028394697,-0.11401386995446638]",100.0,"[-0.16999294163571996,-0.08510611165052204]",100.0,"[0.10918453275930806,0.14898686485130622]",100.0,"[0.02,0.02]",201.4597,0.0,35.0,35.0,56.0,1.0,,,,,,,
,,,,,,,677948fa843635fdb42a4351,684429505a86090779a67644,2025-06-07_12h58.21.636,shape_ratio,2024.1.5,Win32,60.24096386,684250e4f00cb30b92d1fa88,,,,,,,,,,,201.4603,201.9592,,,202.2094,202.5754,left,,,,,,,,0.6,0.3477,,,,,,,201.9593,202.2093,202.5755,"[-0.006657953911118435,0.1855341013089872]",4.0,"[0.1156685292953176,-0.04724749107291122]",4.0,"[-0.08174630374137229,0.06527105093054497]",4.0,"[-0.1261604326248337,-0.007056221573912583]",100.0,"[-0.14274483173760175,-0.09630379876023283]",4.0,"[0.04516214096788037,-0.05820281845844775]",4.0,"[0.13435212441579975,0.10862912396406121]",100.0,"[-0.04812889615475669,0.1147057868998172]",100.0,"[0.01801875961737387,-0.11777152172020922]",100.0,"[0.018919537804711294,0.033973376790247374]",100.0,"[-0.19123510250710438,-0.03442328629693268]",4.0,"[-0.03306690232632053,0.06388247408402832]",4.0,"[-0.1738000397318493,0.09012719664872643]",100.0,"[0.0643033293644703,-0.1790195330077452]",100.0,"[0.05384563964590613,-0.13849095999920774]",100.0,"[-0.03480294702343894,-0.16611221144630373]",4.0,"[-0.06996971580098328,-0.07596695224989788]",100.0,"[0.08277439620757754,0.1337636601776498]",100.0,"[-0.1707428914662133,0.006005073470728383]",100.0,"[0.017482593238389358,-0.1645077452695415]",100.0,"[0.05318134147061795,0.17451212667018914]",4.0,"[-0.07310967863606305,0.18006941763928888]",100.0,"[0.08414086049412743,0.04062342171279326]",4.0,"[-0.08316528311513532,-0.018364743899349313]",4.0,"[0.007083218595754103,-0.012202113852689045]",100.0,"[0.08277483947576196,-0.08960720185102773]",100.0,"[-0.046632531843185804,0.0033942708395856137]",4.0,"[-0.022795395684004627,-0.05691376741604658]",100.0,"[-0.14063503818626144,0.13551162417448037]",100.0,"[0.09591842527625566,0.09328419617860921]",100.0,"[-0.1052540593832729,-0.05250373502393183]",4.0,"[0.14258643973226232,-0.10133801061532642]",100.0,"[0.02,0.02]",203.6742,0.0,36.0,36.0,49.0,1.0,,,,,,,
,,,,,,,677948fa843635fdb42a4351,684429505a86090779a67644,2025-06-07_12h58.21.636,shape_ratio,2024.1.5,Win32,60.24096386,684250e4f00cb30b92d1fa88,,,,,,,,,,,203.6746,204.1737,,,204.4238,204.7233,right,,,,,,,,0.1,0.2886,,,,,,,204.1738,204.4238,204.7233,"[0.07707683965039931,-0.00943947008032582]",4.0,"[0.18252513222518654,0.015449338889750907]",4.0,"[-0.07555153579838494,-0.1333005783222599]",4.0,"[-0.16171290841855543,0.044125325004407606]",4.0,"[-0.09403591885295189,0.10803247410276685]",4.0,"[0.004503313443739956,-0.11019214208562686]",4.0,"[0.03751123036266872,0.12986619081720147]",100.0,"[-0.007135918172821351,0.1918011071981571]",4.0,"[0.0358742999008199,-0.056235990136821776]",4.0,"[0.09215208912937108,0.08168834719154672]",4.0,"[-0.1032780542412921,-0.007709630120819617]",4.0,"[-0.04803368143839909,0.09715264172259705]",4.0,"[-0.08976686247646608,-0.05965296101803123]",4.0,"[-0.1610247022214378,-0.10235326083909221]",4.0,"[-0.009204687472020636,-0.15674793243911128]",4.0,"[0.04834215853795695,0.05996685247037966]",100.0,"[-0.05216642038365014,0.049361450892583196]",4.0,"[-0.10991671041294,-0.10413429178275499]",4.0,"[0.08408027908172616,-0.1588171980841143]",4.0,"[-0.03342879555052784,-0.12475122206814827]",4.0,"[0.03835879564996153,0.18301970841624476]",100.0,"[0.07212252570721117,-0.10681640023311842]",4.0,"[-0.18115366937337057,-0.01723966952652043]",4.0,"[-0.13216901840653372,-0.06873656262424495]",4.0,"[-0.06574173062968279,0.1654959599357044]",4.0,"[-0.04298550867258701,-0.013266678612487393]",4.0,"[-0.03735993324511439,-0.062339656924541326]",4.0,"[0.16032538488416687,0.06981711321196335]",4.0,"[0.017333618670809087,0.08958711647725418]",4.0,"[0.11180479327620552,-0.07760457934778252]",4.0,"[0.12362632658520184,0.024771045113418898]",4.0,"[0.0018756768693282957,-0.19665472156881098]",4.0,"[0.02,0.02]",205.822,0.0,37.0,37.0,192.0,1.0,,,,,,,
,,,,,,,677948fa843635fdb42a4351,684429505a86090779a67644,2025-06-07_12h58.21.636,shape_ratio,2024.1.5,Win32,60.24096386,684250e4f00cb30b92d1fa88,,,,,,,,,,,205.8225,206.3216,,,206.5717,206.9711,left,,,,,,,,0.55,0.3838,,,,,,,206.3216,206.5716,206.9711,"[-0.01290104761894954,-0.14027429851854067]",4.0,"[-0.07143215616576487,0.012595759364154966]",100.0,"[0.027246920416988056,0.03184296699671576]",100.0,"[-0.11829530398695469,0.10583192556464308]",100.0,"[-0.1291505320460978,0.046706983065434526]",4.0,"[0.10527193957880077,-0.04729671247715968]",100.0,"[0.126148338298616,0.04720730867081897]",100.0,"[-0.17218511296818098,0.016880650714129346]",100.0,"[0.1322199395241899,-0.1007416553223036]",4.0,"[-0.06295964264596082,0.073753386892685]",100.0,"[0.10237203756412214,0.007550077452244894]",100.0,"[-0.023400424128570955,-0.041699755346880786]",4.0,"[-0.1044531936547149,-0.13902100469864279]",4.0,"[-0.1630779830087462,0.07272297828196027]",4.0,"[-0.06607289100370006,-0.1020582258073829]",100.0,"[-0.0820520896336991,-0.056816786136986513]",100.0,"[0.1768951489656841,-0.0837912696773439]",4.0,"[0.18785050016981816,-0.017590160036824697]",100.0,"[0.04762192626626464,0.16725882586566282]",100.0,"[-0.1349224516181261,-0.032964991574796]",4.0,"[0.06541834402565022,-0.18150924539466878]",100.0,"[-0.060212077023204476,0.17872979745781878]",4.0,"[0.03339637639549407,-0.15284502440309164]",4.0,"[-0.18376658881884642,-0.07783325706106595]",4.0,"[0.04754658625293526,0.11288237855244596]",4.0,"[-0.04654636147654568,0.11241256552201143]",100.0,"[0.026130817332819575,-0.060259585669282065]",100.0,"[0.11962622536804568,0.12994372102171237]",100.0,"[-0.01069869542043386,0.07003039622780592]",4.0,"[-0.0016113268964278343,0.1709495630573493]",4.0,"[0.16447110150417088,0.06735559897226388]",100.0,"[-0.0002597989528111233,0.11793448498216244]",100.0,"[0.02,0.02]",208.0698,0.0,38.0,38.0,78.0,1.0,,,,,,,
,,,,,,,677948fa843635fdb42a4351,684429505a86090779a67644,2025-06-07_12h58.21.636,shape_ratio,2024.1.5,Win32,60.24096386,684250e4f00cb30b92d1fa88,,,,,,,,,,,208.0704,208.5693,,,208.8196,209.2356,left,,,,,,,,0.45,0.4085,,,,,,,208.5694,208.8195,209.2357,"[0.15048736051760653,0.005942632736576348]",100.0,"[0.09997238617851455,-0.10462367002583108]",4.0,"[-0.1547027982677216,0.010609115224663984]",100.0,"[0.042063765512451626,-0.13724330243191454]",4.0,"[-0.00879850013681535,0.15753219949226738]",4.0,"[0.0360406743763644,-0.09426730046133575]",4.0,"[0.12299028603380975,0.07676249944159483]",4.0,"[0.03301823189120802,-0.17741149384807903]",4.0,"[0.07507920251164092,0.056148155998728855]",4.0,"[-0.15726474645196023,-0.040072756422305185]",4.0,"[-0.0958248509382369,-0.08543814135960998]",4.0,"[-0.10950334503374878,0.14023493493668943]",4.0,"[-0.10056206957728267,0.09962482392152151]",100.0,"[-0.044005733015892105,-0.12540544535469333]",100.0,"[-0.15908208292819084,0.10290876206707018]",100.0,"[-0.038835060604494945,-0.04230117253433363]",4.0,"[0.17474700640579005,0.09330209752485015]",4.0,"[0.03668908278289883,0.1694586656031801]",100.0,"[0.00047594120891326165,-0.0621163386592035]",100.0,"[-0.04449757268858294,0.17839306770944513]",100.0,"[-0.025895157239575944,0.08862764827245322]",4.0,"[0.0011637066915391736,-0.1300355872377536]",4.0,"[-0.14247997012277472,0.06235938610482433]",100.0,"[0.11449086225236405,-0.020626719805877925]",100.0,"[0.059461203459818375,0.13334871021914124]",4.0,"[0.026025884113049864,0.07124325041819105]",100.0,"[-0.05353364427703254,0.012105348216811643]",4.0,"[0.03901716862480353,-0.03145029494192639]",100.0,"[0.1431818804379368,-0.0816067187090367]",100.0,"[-0.054883084515611934,-0.17824148082115396]",100.0,"[-0.10951474480357956,0.012602402491304805]",4.0,"[0.17370846005315532,-0.04509142510768604]",4.0,"[0.02,0.02]",210.3343,0.0,39.0,39.0,129.0,1.0,,,,,,,
,,,,,,,677948fa843635fdb42a4351,684429505a86090779a67644,2025-06-07_12h58.21.636,shape_ratio,2024.1.5,Win32,60.24096386,684250e4f00cb30b92d1fa88,,,,,,,,,,,210.3348,210.8338,,,211.0842,211.5332,right,,,,,,,,0.55,0.4371,,,,,,,210.8338,211.0841,211.5333,"[0.0727607677739334,0.05559290355545386]",100.0,"[0.019776620780790958,0.037649520309248716]",4.0,"[-0.12193101293604244,-0.06080693209122765]",100.0,"[-0.1591115899924875,-0.11691690074179564]",100.0,"[-0.00863828326171893,0.08524479934913697]",100.0,"[-0.126842791182685,0.1530092087867562]",4.0,"[-0.15720438415642501,0.0934514036368898]",100.0,"[-0.03064264492643646,-0.10742902847237688]",4.0,"[-0.024370010798154602,-0.0544958018478212]",100.0,"[0.06508363105550222,-0.09128715939841782]",4.0,"[-0.0884398072978731,-0.03834180639913794]",4.0,"[0.19240770776041305,-0.023479820156466175]",100.0,"[-0.07072672192858104,-0.13998516245372064]",4.0,"[-0.11339634698195962,0.11163472284293781]",4.0,"[-0.12022652180965591,0.03464126069885686]",100.0,"[0.1437365196588673,0.1362172013637295]",100.0,"[-0.04551633193953799,0.14690010979616241]",4.0,"[-0.1646862359549466,-0.07449739455335397]",4.0,"[-0.16190096593111813,-0.031320896230585676]",4.0,"[-0.0056014179875736834,0.17524142816846905]",100.0,"[-0.06107566178111507,0.1020692358344422]",4.0,"[0.10385266042779671,-0.11762136418215538]",100.0,"[0.18733237412595422,0.02821512063625135]",100.0,"[0.136691667449832,0.07169178040940008]",100.0,"[0.09789327541260576,0.1593616416004591]",100.0,"[0.15224597388902383,-0.09969496682686967]",100.0,"[0.0582465657225099,0.0018519995903858355]",4.0,"[-0.08159894688081022,-0.1817246596522747]",4.0,"[0.0007241638130078889,-0.14161013516118362]",100.0,"[-0.03966191184441313,-0.174674341410589]",4.0,"[0.04648550931590847,-0.0366835608333786]",100.0,"[0.14549365953117416,0.00566509162506279]",100.0,"[0.02,0.02]",212.6318,0.0,40.0,40.0,71.0,1.0,,,,,,,
,,,,,,,677948fa843635fdb42a4351,684429505a86090779a67644,2025-06-07_12h58.21.636,shape_ratio,2024.1.5,Win32,60.24096386,684250e4f00cb30b92d1fa88,,,,,,,,,,,212.6324,213.1313,,,213.3813,213.764,left,,,,,,,,0.45,0.3581,,,,,,,213.1313,213.3812,213.7641,"[-0.07228887112998994,-0.15384150211962608]",4.0,"[0.022302078701957048,0.11398757223332848]",4.0,"[0.019299805764368374,0.02309835376093588]",4.0,"[0.020112151078592034,-0.02929904552144929]",4.0,"[0.1315705790296345,-0.09880819576822074]",100.0,"[0.10468414947402513,0.02205554408093396]",100.0,"[0.13852781854395899,0.05297571346147736]",4.0,"[0.05633773379791908,0.18583726065144537]",100.0,"[-0.14206803693491868,0.13928279134403607]",4.0,"[0.06785486760244923,-0.1300414815135555]",100.0,"[-0.09631768646308264,-0.03514338896089388]",100.0,"[-0.09520028200178332,0.07051765436063544]",100.0,"[-0.16763158210601478,-0.034636415543491124]",100.0,"[0.09572214657817368,-0.07452799767426391]",100.0,"[-0.046075002649720406,0.019352076222732453]",4.0,"[0.007817158408259615,0.15977865967002264]",4.0,"[0.11358045266401265,0.15368614119224272]",100.0,"[-0.16862752165462694,0.06789209175402079]",100.0,"[-0.045673714135497194,-0.07827543486562559]",4.0,"[-0.1772082308719259,0.026220271948457476]",4.0,"[0.11654466954424225,-0.15522220576289564]",4.0,"[-0.14898537436686618,-0.11993908513484863]",4.0,"[0.011860923156806338,-0.0880523829645496]",4.0,"[-0.03147012399804414,0.09125472140778589]",4.0,"[0.05880902449500196,-0.18848816522703238]",100.0,"[-0.008553886800344844,0.05725633788968339]",4.0,"[-0.056025822035945895,0.1364285101825708]",4.0,"[-0.02837728556380332,-0.19244870526896027]",4.0,"[0.18151950424209926,0.036371341345591154]",100.0,"[-0.08896591260870779,-0.08327512803262041]",100.0,"[0.1507433732890061,-0.009310544245564444]",100.0,"[0.07559877771111645,0.1356836906369913]",4.0,"[0.02,0.02]",214.8629,0.0,41.0,41.0,132.0,1.0,,,,,,,
,,,,,,,677948fa843635fdb42a4351,684429505a86090779a67644,2025-06-07_12h58.21.636,shape_ratio,2024.1.5,Win32,60.24096386,684250e4f00cb30b92d1fa88,,,,,,,,,,,214.8634,215.3624,,,215.6124,216.0618,left,,,,,,,,0.5,0.4334,,,,,,,215.3625,215.6124,216.0618,"[0.07784127283981077,-0.07185153231498805]",4.0,"[-0.15706858450834246,0.07064725500101328]",4.0,"[-0.015050402901981716,-0.07699968348672893]",4.0,"[0.17943961791597607,0.05031914652474847]",4.0,"[0.09739285091982437,-0.14040519851709685]",4.0,"[-0.01731940318803839,0.17742117147910805]",4.0,"[-0.08304215396567621,0.14195492794259615]",100.0,"[0.05359860441309103,-0.12216928764755015]",100.0,"[-0.1541861037152105,0.026799963084319988]",100.0,"[-0.028831226067676453,0.00043899180304307595]",100.0,"[0.04315616194397086,-0.1778860031742656]",100.0,"[0.05204410931118196,-0.038429606178258614]",4.0,"[0.10100176188720258,-0.031087171865299558]",100.0,"[-0.12168431120412626,-0.008800703288324288]",4.0,"[0.09984159364143674,0.012114570822679475]",100.0,"[-0.08028422231010872,0.10032933459724909]",100.0,"[0.05707452400089125,0.09407638940538728]",4.0,"[-0.06971111969257925,0.029533616397484336]",100.0,"[0.14078026212018716,0.12237514205001697]",4.0,"[0.16662248770366364,-0.026386347351132097]",4.0,"[-0.0013165194369902774,-0.029066789286701273]",4.0,"[-0.009185452895469709,0.07377780371007549]",4.0,"[-0.09343275781127129,-0.13320196466253728]",4.0,"[-0.1451383326760875,0.13584598345263588]",100.0,"[-0.021826611628833186,0.13638126542331755]",100.0,"[0.05591121826352084,0.007667870928573449]",100.0,"[0.037522703976581424,0.1377896529148716]",4.0,"[-0.08767879624922652,-0.07270170792836571]",100.0,"[-0.13920897527818096,-0.08349690720853249]",100.0,"[0.0029013895138309473,-0.19325752356421666]",100.0,"[-0.021363255586521458,-0.13381684088499357]",4.0,"[0.1291802970953566,-0.10445004819277039]",100.0,"[0.02,0.02]",217.1608,0.0,42.0,42.0,94.0,1.0,,,,,,,
,,,,,,,677948fa843635fdb42a4351,684429505a86090779a67644,2025-06-07_12h58.21.636,shape_ratio,2024.1.5,Win32,60.24096386,684250e4f00cb30b92d1fa88,,,,,,,,,,,217.1617,217.6604,,,217.9112,218.4098,left,,,,,,,,0.55,0.476,,,,,,,217.6605,217.9109,218.4101,"[0.16101349248097857,0.09065967790877383]",100.0,"[0.11231774397887043,0.0010439914901851047]",100.0,"[-0.005853739745159177,-0.10789345056087055]",4.0,"[-0.184386237520842,-0.02050759358031865]",4.0,"[0.06645300732513061,0.06055557912846424]",4.0,"[-0.04525804596339146,-0.11848584147846346]",100.0,"[0.0482014296578637,-0.02657121618177925]",100.0,"[0.04025000786605851,-0.1934708448660643]",4.0,"[-0.04415477135114878,-0.1827376628826305]",100.0,"[-0.10724963221105163,-0.037033123039068715]",100.0,"[0.10817003005720821,-0.1464340048042705]",100.0,"[-0.0014349290463780066,-0.16194670244191148]",100.0,"[0.01926932353657073,0.05434974454556363]",100.0,"[-0.0874640702257331,0.06416512731033108]",4.0,"[0.11016247915783481,0.15843806323787643]",100.0,"[-0.01962480678743029,0.0004556507135206671]",4.0,"[-0.0004818684179997721,-0.06790053757127677]",4.0,"[-0.10464087805220235,0.027402361803170086]",100.0,"[-0.045118118392136995,-0.07208868525915899]",4.0,"[-0.09925131668436314,0.12844028432734053]",100.0,"[-0.09438829710418081,-0.09521933080405949]",100.0,"[0.13059210506337324,0.11796657911611069]",4.0,"[-0.02025919913164706,0.11175959013958935]",4.0,"[0.06621225111267294,-0.12480132162476253]",4.0,"[-0.17116281603541406,0.048694537702037334]",100.0,"[0.05024059046821653,0.16760676472048056]",4.0,"[-0.11332677576613423,-0.13423564447002004]",100.0,"[0.18910515619468174,-0.0595468672716568]",100.0,"[-0.1485688757892627,-0.03973832869294929]",100.0,"[0.15591168099752886,-0.10006962874841353]",100.0,"[-0.13385295518274612,0.09343385017565195]",4.0,"[0.07519920808085548,0.12612140754395054]",4.0,"[0.02,0.02]",219.5087,0.0,43.0,43.0,83.0,1.0,,,,,,,
,,,,,,,677948fa843635fdb42a4351,684429505a86090779a67644,2025-06-07_12h58.21.636,shape_ratio,2024.1.5,Win32,60.24096386,684250e4f00cb30b92d1fa88,,,,,,,,,,,219.5098,220.0081,,,220.2584,220.6573,right,,,,,,,,0.55,0.3659,,,,,,,220.0082,220.2583,220.6574,"[0.13543857982728286,0.05436174618477644]",100.0,"[0.0966970598975334,0.005339132761406532]",100.0,"[0.10064586193392451,-0.12092869952277056]",4.0,"[-0.02108510000939821,-0.06248833352087296]",4.0,"[-0.1332662225493648,-0.07286366813693783]",4.0,"[-0.03416209108089136,-0.13587583130409744]",100.0,"[-0.10457610453457739,-0.1395394487817243]",4.0,"[-0.07005879158747205,0.020220010137004696]",4.0,"[-0.18649523118577938,-0.021447859317342433]",100.0,"[0.04275584710465936,0.036443904473962827]",100.0,"[-0.09267538236881674,0.17591956181967427]",100.0,"[0.02228978607939564,-0.1193435592452086]",4.0,"[-0.19093438657014697,0.03174014498676242]",100.0,"[0.0045443927166563865,-0.1824585359317481]",4.0,"[-0.12035327612015098,0.04443302858683367]",100.0,"[-0.10805035108270551,0.12846658756935708]",100.0,"[0.051287347312951245,-0.04303230814006]",100.0,"[0.1434624051857982,-0.12136269519257331]",100.0,"[-0.07582326892469712,-0.10429718535890443]",4.0,"[0.05581016337836208,0.1109381591137069]",100.0,"[0.10673946190620305,0.09724733257380319]",100.0,"[0.13191907994999932,0.1375348006966368]",100.0,"[0.02105199203689123,0.16946286435849928]",100.0,"[-0.07020332506708919,0.08591059554506007]",4.0,"[0.1734479131718529,0.004537335167707868]",4.0,"[-0.07116324873164276,-0.04038732553635273]",4.0,"[0.10348345127245902,-0.055161332018017345]",100.0,"[-0.023338665359643743,0.05923727888302417]",4.0,"[0.09806913712099055,0.16129794583781668]",4.0,"[-0.007995542183757032,0.01364754161652638]",4.0,"[-0.040718731886828216,0.1705691998027805]",100.0,"[-0.013108684436630972,0.12908333534823016]",100.0,"[0.02,0.02]",221.7561,0.0,44.0,44.0,82.0,1.0,,,,,,,
,,,,,,,677948fa843635fdb42a4351,684429505a86090779a67644,2025-06-07_12h58.21.636,shape_ratio,2024.1.5,Win32,60.24096386,684250e4f00cb30b92d1fa88,,,,,,,,,,,221.7567,222.2557,,,222.5058,223.1716,left,,,,,,,,0.4,0.6338,,,,,,,222.2557,222.5057,223.1718,"[-0.05875051811937855,-0.05279030430352034]",4.0,"[0.1455487903573111,0.029651255746386156]",100.0,"[-0.06368439049415002,0.001435816909020709]",100.0,"[0.1523245880716393,0.12677090175434194]",4.0,"[-0.1193838193279982,0.04324823573663772]",4.0,"[0.15897729991038206,-0.0542060107782304]",4.0,"[-0.11392472882644482,-0.12081092798095812]",4.0,"[-0.12060474620836513,-0.07904023621041527]",100.0,"[0.08515931162672988,0.17238679567919699]",4.0,"[-0.015300248631060625,0.07485642267615587]",100.0,"[-0.025396243239540976,0.1620677321517903]",4.0,"[0.0850414046021051,-0.04974591597226221]",4.0,"[-0.0810827565280705,-0.14817562033437098]",100.0,"[0.05901776302755568,0.0907997836743482]",100.0,"[0.005640218294546879,-0.06377621442872326]",4.0,"[-0.05647790367254207,0.0484327333517215]",100.0,"[-0.09796991652280672,0.16209098447643866]",4.0,"[-0.19515498949181964,0.04371960024466366]",4.0,"[0.08020195525524561,-0.1542622839496959]",4.0,"[-0.14262993316707398,0.0015400104173940818]",4.0,"[0.03272100009873049,-0.14678093260522862]",4.0,"[-0.02541722422265799,0.017579609983130323]",4.0,"[0.033011411307447676,-0.031180693817676495]",4.0,"[-0.02179325352624789,-0.1006859454531236]",100.0,"[0.10523290701248647,0.11416743860000698]",100.0,"[-0.18179856582442774,-0.023323108500361414]",100.0,"[0.17935648514943273,-0.016577734666733145]",100.0,"[-0.00959669512827746,-0.16458351550486575]",100.0,"[-0.027689583351891436,-0.02593602301005846]",4.0,"[-0.15841171558552578,0.08247210995425694]",4.0,"[-0.042336406520819415,-0.18829122892306785]",4.0,"[0.06694211049531641,0.028614617708902678]",100.0,"[0.02,0.02]",224.2705,0.0,45.0,45.0,167.0,1.0,,,,,,,
,,,,,,,677948fa843635fdb42a4351,684429505a86090779a67644,2025-06-07_12h58.21.636,shape_ratio,2024.1.5,Win32,60.24096386,684250e4f00cb30b92d1fa88,,,,,,,,,,,224.2715,224.77,,,225.0202,225.353,right,,,,,,,,0.4,0.321,,,,,,,224.77,225.0202,225.353,"[-0.046447010153620454,0.04495543506297837]",100.0,"[-0.018281236741457284,-0.14791605663897908]",4.0,"[0.05134226246203275,0.012114473040421564]",4.0,"[-0.1467503100845049,-0.014043446468416862]",4.0,"[0.0578032920232091,-0.04575491946365451]",100.0,"[-0.04280137761693008,-0.04555375951751537]",4.0,"[0.0007668525867112691,0.06331866278918936]",4.0,"[-0.13692232127402582,0.10963604111285911]",100.0,"[0.056170727880688096,-0.14861176471542478]",4.0,"[0.0065117263712550924,-0.08154097488137359]",4.0,"[0.15143953926651912,-0.008655560894192818]",100.0,"[0.016345953288003687,0.14471567747839742]",100.0,"[0.13851722871403566,0.07635800263505256]",100.0,"[0.09129628731909267,0.07244314001579213]",100.0,"[0.17435875794880468,0.0572002175730532]",4.0,"[0.1155458085097435,-0.11561342438575425]",4.0,"[-0.12519168421707771,0.021779160236698375]",4.0,"[0.07432781897241623,-0.09868907853106286]",100.0,"[-0.07139086566749178,0.12557339145476898]",100.0,"[-0.030333688967833335,0.091910333116884]",4.0,"[0.121486578869076,0.029521522414140272]",4.0,"[0.07990994915857505,0.11470360138138937]",100.0,"[-0.11771838004179545,-0.1408120438624096]",100.0,"[-0.17620415980719786,-0.044468985496533386]",4.0,"[0.022869509203278442,0.10444202320803099]",100.0,"[0.006911809440571999,0.18517779570027892]",4.0,"[-0.06625724859798117,0.17496666553544254]",4.0,"[-0.0055778933891041296,-0.009025997935066934]",4.0,"[-0.07015062286022275,-0.09056632498612453]",4.0,"[-0.17505806211156189,0.017964331907385285]",100.0,"[-0.1324166845083041,-0.09265907944792402]",4.0,"[0.10198410160812944,-0.05610682613922217]",4.0,"[0.02,0.02]",226.4518,0.0,46.0,46.0,168.0,1.0,,,,,,,
,,,,,,,677948fa843635fdb42a4351,684429505a86090779a67644,2025-06-07_12h58.21.636,shape_ratio,2024.1.5,Win32,60.24096386,684250e4f00cb30b92d1fa88,,,,,,,,,,,226.4523,226.9511,,,227.2018,227.6342,left,,,,,,,,0.5,0.4029,,,,,,,226.9512,227.2017,227.6343,"[0.002388361103951408,0.09204843696241902]",4.0,"[0.0903710318547257,-0.044162187780143226]",4.0,"[-0.07111313985512184,0.045327242762065456]",4.0,"[-0.0428968274254706,-0.1684618948613164]",100.0,"[0.005970547177037647,-0.04723654136626976]",4.0,"[0.1198998424658798,-0.12420378910457151]",100.0,"[0.0414568821730644,0.02008914568010164]",100.0,"[-0.1187294656965388,-0.0999163562433011]",4.0,"[0.0067812980985128765,-0.11601908467811492]",4.0,"[-0.07473767215852248,0.17868909616852974]",100.0,"[-0.09601069573049438,-0.0011359906493715888]",100.0,"[0.16825256201833033,0.03908984833935086]",4.0,"[-0.07787525618967939,0.11522722276975408]",100.0,"[-0.04854492681213032,-0.05327920815756465]",100.0,"[0.04912342316930539,0.11423058059320795]",100.0,"[-0.015896720058564642,0.01056185461026174]",100.0,"[-0.09115528724375312,-0.13850121738501098]",4.0,"[-0.023504509192486662,0.13285334165895332]",4.0,"[-0.04342158975051386,0.09353800529951045]",100.0,"[-0.1302184490215558,0.1029135040057231]",4.0,"[0.0879023216862497,0.17806093277026938]",100.0,"[0.1770884399404615,-0.08108928475497208]",4.0,"[-0.004312960583436971,0.19684827552942177]",100.0,"[0.09672079944901711,0.10010304038919597]",100.0,"[0.11768982682590474,0.047097219813757175]",100.0,"[0.08897991759924413,0.012008046267411322]",100.0,"[-0.1645106464920521,0.018100126979506508]",4.0,"[0.02694111368660863,-0.1890001081181431]",4.0,"[0.19234099587739326,-0.03198908783510308]",4.0,"[-0.1428611960092152,-0.05093194945302337]",4.0,"[0.05685525123565253,0.0654332921189275]",4.0,"[-0.007411672823416231,0.050789487546293706]",100.0,"[0.02,0.02]",228.7328,0.0,47.0,47.0,111.0,1.0,,,,,,,
,,,,,,,677948fa843635fdb42a4351,684429505a86090779a67644,2025-06-07_12h58.21.636,shape_ratio,2024.1.5,Win32,60.24096386,684250e4f00cb30b92d1fa88,,,,,,,,,,,228.7339,229.2323,,,229.4821,229.9481,left,,,,,,,,0.6,0.454,,,,,,,229.2324,229.4821,229.9482,"[-0.015446385478886712,-0.18384698865173404]",100.0,"[0.02543942194153413,0.18720601669656695]",4.0,"[0.09020055100549945,0.06284661400004514]",4.0,"[0.1568303033077145,-0.10331558935930937]",4.0,"[-0.11563710034807612,0.0630561326540279]",100.0,"[-0.16055464828899102,0.0764916650614729]",100.0,"[0.08656936108885299,-0.13554001449043018]",100.0,"[0.024722197505609056,-0.13024738829046506]",4.0,"[-0.05430683477786588,-0.10588594977937374]",100.0,"[0.12879561987900257,0.13743368092332212]",100.0,"[0.035834968905557624,-0.18046448780112406]",4.0,"[-0.19581635203991615,0.038648753808700934]",4.0,"[0.013302209474064295,0.13013559297491017]",4.0,"[-0.047258695872203375,0.02446894465397718]",4.0,"[-0.1543872221750127,-0.002352084283972808]",100.0,"[-0.09650841938794959,-0.026738397456102396]",100.0,"[0.06128948085768798,-0.08806834882895581]",100.0,"[0.04382962626635234,-0.023766423733709716]",100.0,"[0.0664333048376572,0.10928358677537119]",4.0,"[-0.17512440513870944,-0.06852983704489332]",4.0,"[-0.1331916437923799,-0.04900725367751514]",100.0,"[-0.1010289662814844,-0.07645969408199849]",4.0,"[-0.008594495068980553,0.051001028831725]",4.0,"[0.06158625331986658,0.012528765013420583]",100.0,"[-0.03472651929294242,0.12410727032397069]",100.0,"[0.14267289563907226,0.08027231548237845]",4.0,"[0.08406334257290098,-0.17778130821416022]",100.0,"[0.013578494762246292,0.007191604741529536]",100.0,"[-0.02816684814911993,-0.02219968165140276]",100.0,"[0.1225389421633051,0.026188754122943417]",100.0,"[0.10811275563661067,-0.07162453873611076]",100.0,"[-0.1476190982585116,0.12955317734362753]",100.0,"[0.02,0.02]",231.0469,0.0,48.0,48.0,40.0,1.0,,,,,,,
,,,,,,,677948fa843635fdb42a4351,684429505a86090779a67644,2025-06-07_12h58.21.636,shape_ratio,2024.1.5,Win32,60.24096386,684250e4f00cb30b92d1fa88,,,,,,,,,,,231.0473,231.5464,,,231.7964,232.1796,left,,,,,,,,0.4,0.3746,,,,,,,231.5464,231.7963,232.1796,"[-0.14830089674800584,0.011907860753225504]",100.0,"[-0.036677178994752965,-0.0771589980090519]",4.0,"[-0.0911114134465578,-0.09640745315693956]",100.0,"[0.10784296857001503,0.04280194178973112]",4.0,"[0.16245584434622665,-0.11443487082048677]",100.0,"[-0.09115201547667437,0.08250464775550441]",4.0,"[0.022904464423267226,-0.0939895770831742]",4.0,"[-0.03609521438285613,0.1137347630894876]",4.0,"[0.07991605037388287,-0.038224549382484874]",100.0,"[0.016323613087013362,0.024150923906558458]",4.0,"[0.10024933781236678,0.14667565449797526]",100.0,"[0.11581609832340231,-0.10998899107531515]",4.0,"[-0.06277486799720246,-0.038238457593683634]",100.0,"[0.001667804342052233,0.07453415369506561]",4.0,"[0.15619484516189705,0.10038648640075369]",100.0,"[0.018789387546992855,0.17721125047227276]",4.0,"[-0.03645446557215462,0.029374537394640778]",100.0,"[0.05088474005404621,-0.16389686637826847]",100.0,"[-0.10598086494613285,0.13994290323633357]",4.0,"[0.003720889319501414,-0.18482749692728231]",4.0,"[-0.07049004529446798,-0.14026743712881093]",4.0,"[-0.1792488664870471,0.04827799479875104]",100.0,"[0.10038304655633844,0.09698801957896581]",4.0,"[-0.1356175542894901,-0.09508412138947589]",100.0,"[0.1704276380683975,0.0034894785656159875]",100.0,"[0.11841356329906352,-0.0029658756443308363]",4.0,"[0.06736138386382652,0.014828739268442514]",4.0,"[0.1401518847998588,-0.03767165581516743]",4.0,"[-0.02123542496684502,0.19000334840706698]",4.0,"[-0.06600113283998811,0.16635630835772636]",4.0,"[0.1906369252661987,-0.032270769034895445]",100.0,"[-0.16172028956273543,-0.02864312757325592]",4.0,"[0.02,0.02]",233.2782,0.0,49.0,49.0,158.0,1.0,,,,,,,
