right,left,explain.started,explain.stopped,key_resp_3.keys,key_resp_3.rt,key_resp_3.duration,participant,session,date,expName,psychopyVersion,OS,frameRate,study_id,explain_2.started,explain_2.stopped,key_resp_4.keys,key_resp_4.rt,key_resp_4.duration,explain_3.started,explain_3.stopped,key_resp_5.keys,key_resp_5.rt,key_resp_5.duration,fixation.started,fixation.stopped,practice.started,practice.stopped,response.started,response.stopped,key_resp.keys,feedback.started,feedback.stopped,trials_2.thisRepN,trials_2.thisTrialN,trials_2.thisN,trials_2.thisIndex,trials_2.ran,dot_ratio,key_resp.rt,key_resp.duration,explain_4.started,explain_4.stopped,key_resp_6.keys,key_resp_6.rt,key_resp_6.duration,dotDisplay.started,dotDisplay.stopped,ITI.started,polygon_1.pos,polygon_1.edges,polygon_2.pos,polygon_2.edges,polygon_3.pos,polygon_3.edges,polygon_4.pos,polygon_4.edges,polygon_5.pos,polygon_5.edges,polygon_6.pos,polygon_6.edges,polygon_7.pos,polygon_7.edges,polygon_8.pos,polygon_8.edges,polygon_9.pos,polygon_9.edges,polygon_10.pos,polygon_10.edges,polygon_11.pos,polygon_11.edges,polygon_12.pos,polygon_12.edges,polygon_13.pos,polygon_13.edges,polygon_14.pos,polygon_14.edges,polygon_15.pos,polygon_15.edges,polygon_16.pos,polygon_16.edges,polygon_17.pos,polygon_17.edges,polygon_18.pos,polygon_18.edges,polygon_19.pos,polygon_19.edges,polygon_20.pos,polygon_20.edges,polygon_21.pos,polygon_21.edges,polygon_22.pos,polygon_22.edges,polygon_23.pos,polygon_23.edges,polygon_24.pos,polygon_24.edges,polygon_25.pos,polygon_25.edges,polygon_26.pos,polygon_26.edges,polygon_27.pos,polygon_27.edges,polygon_28.pos,polygon_28.edges,polygon_29.pos,polygon_29.edges,polygon_30.pos,polygon_30.edges,polygon_31.pos,polygon_31.edges,polygon_32.pos,polygon_32.edges,dot_size,ITI.stopped,trials.thisRepN,trials.thisTrialN,trials.thisN,trials.thisIndex,trials.ran,break_2.started,break_2.stopped,trials_3.thisRepN,trials_3.thisTrialN,trials_3.thisN,trials_3.thisIndex,trials_3.ran
subject chose dot,subject chose diamond,0.0009,103.5538,space,88.4099,0.0428,678cbebf7d5530210477f254,6842bbf17e14c96824c5a452,2025-06-06_12h01.10.688,shape_ratio,2024.1.5,Win32,59.88023952,6842b561977af9ba9b0f87ca,,,,,,,,,,,,,,,,,,,,,,,,,,,,,,,,,,,,,,,,,,,,,,,,,,,,,,,,,,,,,,,,,,,,,,,,,,,,,,,,,,,,,,,,,,,,,,,,,,,,,,,,,,,,,,,,,
,,,,,,,678cbebf7d5530210477f254,6842bbf17e14c96824c5a452,2025-06-06_12h01.10.688,shape_ratio,2024.1.5,Win32,59.88023952,6842b561977af9ba9b0f87ca,103.5591,315.459,space,181.7994,,,,,,,,,,,,,,,,,,,,,,,,,,,,,,,,,,,,,,,,,,,,,,,,,,,,,,,,,,,,,,,,,,,,,,,,,,,,,,,,,,,,,,,,,,,,,,,,,,,,,,,,,,,,,
,,,,,,,678cbebf7d5530210477f254,6842bbf17e14c96824c5a452,2025-06-06_12h01.10.688,shape_ratio,2024.1.5,Win32,59.88023952,6842b561977af9ba9b0f87ca,,,,,,315.4651,323.798,space,5.3175,,,,,,,,,,,,,,,,,,,,,,,,,,,,,,,,,,,,,,,,,,,,,,,,,,,,,,,,,,,,,,,,,,,,,,,,,,,,,,,,,,,,,,,,,,,,,,,,,,,,,,,,
,,,,,,,678cbebf7d5530210477f254,6842bbf17e14c96824c5a452,2025-06-06_12h01.10.688,shape_ratio,2024.1.5,Win32,59.88023952,6842b561977af9ba9b0f87ca,,,,,,,,,,,323.9042,324.3021,324.303,324.5847,324.5853,326.053,,326.0539,327.157,0.0,0.0,0.0,1.0,1.0,0.8,,,,,,,,,,,,,,,,,,,,,,,,,,,,,,,,,,,,,,,,,,,,,,,,,,,,,,,,,,,,,,,,,,,,,,,,,,,,,,,,,,,,,,,,
,,,,,,,678cbebf7d5530210477f254,6842bbf17e14c96824c5a452,2025-06-06_12h01.10.688,shape_ratio,2024.1.5,Win32,59.88023952,6842b561977af9ba9b0f87ca,,,,,,,,,,,327.1618,327.6485,327.6486,328.0034,328.0036,328.5725,left,328.5727,329.6714,0.0,1.0,1.0,0.0,1.0,0.2,0.5506,,,,,,,,,,,,,,,,,,,,,,,,,,,,,,,,,,,,,,,,,,,,,,,,,,,,,,,,,,,,,,,,,,,,,,,,,,,,,,,,,,,,,,,
,,,,,,,678cbebf7d5530210477f254,6842bbf17e14c96824c5a452,2025-06-06_12h01.10.688,shape_ratio,2024.1.5,Win32,59.88023952,6842b561977af9ba9b0f87ca,,,,,,,,,,,,,,,,,,,,,,,,,,,,329.6722,333.5536,space,0.8757,,,,,,,,,,,,,,,,,,,,,,,,,,,,,,,,,,,,,,,,,,,,,,,,,,,,,,,,,,,,,,,,,,,,,,,,,,,,,,,,,,
,,,,,,,678cbebf7d5530210477f254,6842bbf17e14c96824c5a452,2025-06-06_12h01.10.688,shape_ratio,2024.1.5,Win32,59.88023952,6842b561977af9ba9b0f87ca,,,,,,,,,,,333.6256,334.0681,,,334.6424,335.4776,left,,,,,,,,0.55,0.8213,,,,,,,334.069,334.6424,335.4783,"[0.046667419050522546,-0.058396108628849745]",100.0,"[0.08655062680197395,0.07904846111550455]",100.0,"[-0.006604507342890825,-0.19394585396119787]",100.0,"[-0.0780000523128259,0.11549064901778791]",4.0,"[0.13121804546996954,-0.05480188821829032]",4.0,"[0.10371623053772917,-0.12986833980328197]",4.0,"[0.19101394537421132,-0.022849694453442506]",100.0,"[0.14030795930078568,-0.09872412746564202]",100.0,"[0.052092139627053224,-0.18605408968242468]",100.0,"[-0.16710920205951554,0.05341060923847886]",4.0,"[-0.07501819213477627,-0.1435762054664573]",4.0,"[0.05713148457550929,0.13645644388561748]",4.0,"[-0.07856573437256978,0.04513558412050395]",100.0,"[0.09907769404935333,0.12461633755451086]",100.0,"[-0.04791107150221782,0.0010016781788398522]",4.0,"[-0.15643531085423448,-0.10904407825698295]",100.0,"[-0.004366745504884378,-0.016570766544221002]",4.0,"[0.17054363553481314,-0.06931682411784933]",100.0,"[0.006477166239839346,0.05534826415592777]",4.0,"[-0.019067309053125463,-0.08814219359533865]",4.0,"[-0.14399130192965612,-0.004430178915987108]",100.0,"[-0.07969480271227318,-0.08927755727801605]",100.0,"[-0.055553576972714444,-0.05498621668864437]",100.0,"[-0.14989215806238312,-0.0635903512217443]",100.0,"[-0.08519568409114033,0.1663861717117648]",4.0,"[0.18798143731828784,0.066050349824327]",4.0,"[-0.011899142746816117,0.17508277743987052]",100.0,"[0.16607759270052977,0.1023303473475116]",100.0,"[0.09981484703685232,-0.01376795243871188]",4.0,"[0.14939857188110112,0.014431901792335063]",100.0,"[-0.10521743269925149,-0.041049458442511365]",4.0,"[0.13464275685012658,0.06987672749024651]",100.0,"[0.02,0.02]",336.5745,0.0,0.0,0.0,76.0,1.0,,,,,,,
,,,,,,,678cbebf7d5530210477f254,6842bbf17e14c96824c5a452,2025-06-06_12h01.10.688,shape_ratio,2024.1.5,Win32,59.88023952,6842b561977af9ba9b0f87ca,,,,,,,,,,,336.5771,337.1792,,,337.5991,338.3342,right,,,,,,,,0.55,0.6897,,,,,,,337.1806,337.5989,338.3385,"[-0.051138738601536705,0.16416123550585143]",4.0,"[-0.038463161039807035,-0.18265383656228043]",4.0,"[0.155755883221503,0.06368605342357736]",100.0,"[-0.0336508303074289,-0.13736024640929909]",100.0,"[-0.05419896423813279,-0.06339060022354798]",100.0,"[0.022811990282741706,0.15687327080120314]",100.0,"[0.006787000616120776,-0.01828825542805038]",4.0,"[0.12946170000316792,-0.04656716260600085]",100.0,"[-0.1266525633588542,-0.06383109354897236]",4.0,"[-0.09399601274564844,-0.037502861798413424]",100.0,"[-0.1089050765163866,-0.12747627357991895]",100.0,"[-0.15805301358044013,0.10789336998986257]",4.0,"[-0.014438924028588984,0.07661336666318908]",4.0,"[0.1909949291247361,0.01234368052745912]",4.0,"[0.060198429768022685,-0.012848258963266766]",100.0,"[0.17099319060069634,-0.03369595720010608]",4.0,"[0.021937315678778373,-0.09810896863996961]",100.0,"[0.02060657049835195,-0.16535183968958814]",100.0,"[-0.07091625947083956,0.10771500051594277]",4.0,"[-0.15165955962829464,0.023248581322250394]",4.0,"[-0.04296917306223013,-0.003240458702941245]",4.0,"[0.0762052562498204,0.09541833017962978]",100.0,"[-0.09597555169954039,0.020453947644008326]",100.0,"[0.08197908004669743,-0.09362864261001184]",100.0,"[0.1327879807298998,0.10171033428196659]",4.0,"[-0.15702553548234785,-0.11742276962583034]",4.0,"[0.16071200654825782,-0.11866912567452384]",100.0,"[-0.1887352173208341,-0.015355938718045907]",100.0,"[0.059460078288098,-0.05978718475818182]",100.0,"[-0.024046835696032127,0.1311447799994321]",100.0,"[-0.1050746006104429,0.16581952393408347]",4.0,"[-0.055846739747252995,0.047176750180301374]",100.0,"[0.02,0.02]",339.3993,0.0,1.0,1.0,65.0,1.0,,,,,,,
,,,,,,,678cbebf7d5530210477f254,6842bbf17e14c96824c5a452,2025-06-06_12h01.10.688,shape_ratio,2024.1.5,Win32,59.88023952,6842b561977af9ba9b0f87ca,,,,,,,,,,,339.4005,339.8959,,,340.1212,341.0125,left,,,,,,,,0.5,0.8804,,,,,,,339.8959,340.1211,341.0125,"[-0.11848622830020308,-0.09759892617981776]",100.0,"[-0.17806823040759662,-0.00814636814769358]",4.0,"[-0.037847204440730635,0.043010346860871726]",100.0,"[-0.1471315799550293,-0.06950977336410542]",4.0,"[0.009511816785870554,-0.15994985840254825]",4.0,"[0.09742905967125817,-0.0038529359562553714]",4.0,"[0.10329498869687048,0.09748707401979782]",4.0,"[0.15932128238377602,0.01597746338285873]",100.0,"[0.10553536692266037,0.13959997980045835]",100.0,"[0.14280872623332128,0.11248668718288016]",100.0,"[-0.0948689187824712,0.013277247961364121]",4.0,"[-0.1339180416193107,0.05737495759647187]",100.0,"[-0.055996098594551506,0.1748749288017825]",100.0,"[-0.07382347825176806,-0.1489322977643099]",4.0,"[0.06409461434544826,-0.07332201903738518]",4.0,"[0.007674473523734809,0.13316932405924525]",4.0,"[0.14555905496543184,-0.037908217899238025]",100.0,"[0.02264493648915671,-0.09194813944095986]",100.0,"[-0.11964543431583817,0.10249371350752745]",4.0,"[0.03753254889256644,-0.007680660903463274]",100.0,"[0.07336694165904054,-0.14639325976841702]",4.0,"[-0.034469265973021614,-0.17970281364727544]",4.0,"[-0.039520561157058924,-0.018735863126569923]",4.0,"[0.12401739181571038,-0.11991738919446973]",4.0,"[-0.019246521094259558,-0.07780972741693451]",100.0,"[-0.09640099414454863,0.14899910195455374]",100.0,"[0.13072621002373466,0.05856877792136319]",100.0,"[0.03261504876700904,0.058885294174448086]",100.0,"[-0.06324265704735352,-0.09573804165904178]",4.0,"[0.044776988797273716,0.1550713577948098]",100.0,"[-0.03925341194442871,0.0883574602446029]",100.0,"[-0.19637018311950175,0.033174603557550045]",4.0,"[0.02,0.02]",342.1103,0.0,2.0,2.0,102.0,1.0,,,,,,,
,,,,,,,678cbebf7d5530210477f254,6842bbf17e14c96824c5a452,2025-06-06_12h01.10.688,shape_ratio,2024.1.5,Win32,59.88023952,6842b561977af9ba9b0f87ca,,,,,,,,,,,342.1115,342.6118,,,342.7696,343.399,right,,,,,,,,0.9,0.6163,,,,,,,342.6119,342.7695,343.399,"[-0.10413652842547995,0.04642547925596596]",100.0,"[0.015941432419179672,-0.19655396459932226]",100.0,"[0.19935533291438198,-0.006726313982549938]",100.0,"[0.1618530777435848,0.10883095168973381]",100.0,"[-0.0959823989836924,-0.08316758263947074]",4.0,"[-0.025669386020740932,0.04396071382771059]",100.0,"[-0.13215759781300568,0.08009901236019532]",100.0,"[-0.1207835228683934,-0.11614760036693832]",100.0,"[0.12933875631310726,-0.11679760549025635]",100.0,"[0.10197140009547537,-0.04132110896948761]",100.0,"[0.0955105350631921,0.08160527477875289]",100.0,"[-0.04179972568053752,-0.12461152009369084]",100.0,"[0.009909984480143286,0.0009656518619706861]",100.0,"[0.007823074079973038,-0.14307920917716296]",100.0,"[-0.03194961810492665,0.16629118960236627]",100.0,"[-0.12946801721306514,-0.028453153884546133]",4.0,"[0.04067597120091169,0.13149515500430803]",100.0,"[-0.19694886070459464,-0.015324940887629698]",100.0,"[0.1036416293890202,-0.15337790756967798]",100.0,"[-0.01830760110920515,-0.03796248732027827]",100.0,"[0.07647674597877917,0.03812058835113076]",100.0,"[0.08059838474190227,0.14558740617925828]",100.0,"[0.15894213415546274,-0.021871121928914942]",100.0,"[-0.06329910908009613,0.0915951835206092]",100.0,"[-0.07253905089945098,0.1682815525058625]",4.0,"[0.15345631722614206,0.047500514769271036]",100.0,"[-0.0308309385122061,0.12138374693136661]",100.0,"[-0.1097199783513594,0.14908657090697025]",100.0,"[0.047659684815870546,0.1795986835107352]",100.0,"[-0.01440675206356934,-0.08085387743607858]",100.0,"[-0.15821499734680292,0.02482022599379428]",100.0,"[0.005786561944264271,0.1937002395277666]",100.0,"[0.02,0.02]",344.5041,0.0,3.0,3.0,13.0,1.0,,,,,,,
,,,,,,,678cbebf7d5530210477f254,6842bbf17e14c96824c5a452,2025-06-06_12h01.10.688,shape_ratio,2024.1.5,Win32,59.88023952,6842b561977af9ba9b0f87ca,,,,,,,,,,,344.5063,345.0407,,,345.2604,346.4148,left,,,,,,,,0.4,1.1366,,,,,,,345.0408,345.2603,346.415,"[0.046389995066045,-0.14023228529178328]",4.0,"[-0.11260563409927578,0.008979678785221672]",4.0,"[0.09032297851620347,-0.08873020944017138]",100.0,"[0.027126880109336685,0.18935253248460068]",100.0,"[-0.0233207418249205,0.1304313208706177]",100.0,"[-0.10792520028795197,-0.1586922758422285]",4.0,"[-0.16281641042619877,0.08900366310639929]",100.0,"[-0.11926487131304145,0.12313489054146946]",100.0,"[0.17888362478827693,-0.08430788428993782]",4.0,"[0.0729820363338822,-0.026007919004147145]",100.0,"[0.01075864473122579,-0.19483995792504744]",4.0,"[0.11644091381980985,0.12705346634323353]",4.0,"[0.16258303823045203,0.04812521588649238]",4.0,"[-0.02319917717281437,0.05115944084464437]",100.0,"[-0.10707342702823004,0.049420156955022616]",4.0,"[-0.033782593751179466,-0.03176367130278692]",100.0,"[0.19614772023265328,-0.0005342530270977523]",100.0,"[-0.11385842569789961,-0.08104394749783021]",4.0,"[-0.16326811136208955,-0.09852104429916483]",4.0,"[-0.142607369864239,-0.03733467324097515]",4.0,"[0.12106940882899607,-0.1371034208146343]",4.0,"[-0.0825273285841817,-0.11125101316488056]",4.0,"[0.034319007377406986,0.0009744695150285639]",4.0,"[0.1329738021316755,0.003361652006814113]",100.0,"[0.15607920710639867,0.1076330738655075]",4.0,"[-0.029196528044513018,0.1740158832853839]",4.0,"[-0.1559842089419012,0.040032928924253676]",100.0,"[-0.08651508344552747,0.09430787689287957]",4.0,"[0.17972317271421717,-0.03922605102121467]",100.0,"[0.08304033573900531,0.09989367224306264]",100.0,"[0.07947709410208394,-0.16691711942378343]",4.0,"[-0.07597591078427264,-0.024635469411031084]",4.0,"[0.02,0.02]",347.6219,0.0,4.0,4.0,163.0,1.0,,,,,,,
,,,,,,,678cbebf7d5530210477f254,6842bbf17e14c96824c5a452,2025-06-06_12h01.10.688,shape_ratio,2024.1.5,Win32,59.88023952,6842b561977af9ba9b0f87ca,,,,,,,,,,,347.7501,348.0425,,,348.2726,348.8263,right,,,,,,,,0.45,0.5415,,,,,,,348.0426,348.2724,348.8265,"[0.17920020794966884,-0.05591555010202231]",100.0,"[-0.07516331587631599,0.17932027457970562]",100.0,"[0.16807408016718378,0.10794173317163766]",100.0,"[0.10248830669289784,-0.1457068967329094]",4.0,"[-0.0992011056673433,0.020711854918146456]",4.0,"[-0.08403835997633038,-0.08209798854174816]",4.0,"[-0.15478015735045644,0.12425807524052147]",4.0,"[-0.18798237609495821,0.009683020050590867]",4.0,"[-0.025306259080608712,-0.1811715351612149]",100.0,"[0.023495328382957696,-0.15792897724608762]",4.0,"[0.1101744575707911,0.11845297525706705]",100.0,"[0.00621409237313991,0.10062024494712686]",4.0,"[0.12251521014584299,-0.006430440013356486]",4.0,"[-0.12028945120636189,-0.10072059861240647]",4.0,"[-0.03202061529263565,0.07790667817119112]",100.0,"[0.03167004429469482,0.18620770378275714]",100.0,"[0.05439521440231921,-0.07119450618855382]",100.0,"[0.06255745630915685,0.03669878043146953]",100.0,"[0.010662426742513258,0.030718425441805315]",100.0,"[-0.06786848137270284,0.12331718001113787]",100.0,"[0.08291522146772834,0.17614956137539442]",100.0,"[-0.10027779163368639,-0.1504079121303428]",4.0,"[-0.05620201851993122,-0.1153937149741047]",4.0,"[-0.06803347789850155,-0.03670678348440285]",4.0,"[-0.023162008770671642,0.1795626352455865]",4.0,"[-0.156365584791882,0.05485823937054402]",4.0,"[0.028556034060067396,-0.009424257403342086]",4.0,"[0.10517272746221294,0.07630407992670009]",4.0,"[-0.04001897920940285,0.03867289496223152]",100.0,"[0.1240160085566338,-0.06268426325398081]",100.0,"[-0.11855452193072233,0.15994668275893853]",4.0,"[0.018314674755538878,0.14518631705477916]",4.0,"[0.02,0.02]",349.923,0.0,5.0,5.0,142.0,1.0,,,,,,,
,,,,,,,678cbebf7d5530210477f254,6842bbf17e14c96824c5a452,2025-06-06_12h01.10.688,shape_ratio,2024.1.5,Win32,59.88023952,6842b561977af9ba9b0f87ca,,,,,,,,,,,349.9236,350.4169,,,350.6692,351.8889,left,,,,,,,,0.45,1.1939,,,,,,,350.417,350.6691,351.889,"[0.08449289003023351,-0.010872312555310543]",100.0,"[-0.021564837921450655,-0.11985559507057016]",100.0,"[0.041633447238263004,0.022995749271853876]",100.0,"[0.010029493660205557,-0.07517550632554422]",4.0,"[0.0515524059956464,-0.14057641293479262]",100.0,"[-0.005313729420569352,0.11375967322485821]",4.0,"[-0.12387357348125845,0.09788604917020621]",100.0,"[-0.06255234516975867,-0.024617330870580535]",100.0,"[-0.11982571078890157,0.14035311676210657]",4.0,"[0.18009603490832576,0.01271755254684505]",100.0,"[-0.15408087211304392,-0.09252563017967816]",100.0,"[-0.09271258991645356,-0.1487587707032458]",4.0,"[0.14357317198188851,0.05789132088003087]",100.0,"[0.11288925976572875,0.15478856229093277]",4.0,"[-0.12858144137084962,0.020617382372447517]",4.0,"[0.11679018233690618,0.019078011550248117]",4.0,"[0.07342594976685088,0.14627352493728124]",100.0,"[-0.006102920993607972,-0.0026979882331922026]",100.0,"[0.08245696868947394,-0.05636079366194116]",4.0,"[-0.17301185679307013,0.07796353300004602]",100.0,"[0.04674538809276655,-0.033254883156157086]",4.0,"[0.08627649708606683,-0.10234251980487404]",4.0,"[-0.06872638856436565,0.17549350415540355]",4.0,"[0.01420370674748723,-0.16855778281293857]",4.0,"[-0.18571347168928176,-0.011426119758047434]",4.0,"[-0.019702915006736734,0.0730589831236247]",4.0,"[-0.04402508827333662,-0.06550596629549749]",4.0,"[0.1522772601604315,0.1077388342234711]",4.0,"[-0.037096739219459954,-0.18505834440852162]",100.0,"[0.043454948801378304,0.07303501880419182]",100.0,"[-0.06406023306313408,0.04608256956318608]",4.0,"[0.14307042410282728,-0.08730847354868639]",4.0,"[0.02,0.02]",352.977,0.0,6.0,6.0,133.0,1.0,,,,,,,
,,,,,,,678cbebf7d5530210477f254,6842bbf17e14c96824c5a452,2025-06-06_12h01.10.688,shape_ratio,2024.1.5,Win32,59.88023952,6842b561977af9ba9b0f87ca,,,,,,,,,,,352.9784,353.4686,,,353.7173,354.752,right,,,,,,,,0.9,1.0204,,,,,,,353.4687,353.7172,354.752,"[0.0106757123074294,0.1488995959149388]",100.0,"[0.010680436720950096,0.013084866391595562]",100.0,"[0.1264981524675871,0.08154760799541298]",100.0,"[-0.006021303283881211,-0.17182410821473684]",4.0,"[0.09875931639919286,0.11913273686738202]",100.0,"[0.1784954592267776,-0.035566806873814326]",100.0,"[-0.16686913451882412,-0.06990883474625306]",100.0,"[-0.1414224031143506,0.03538621281390467]",100.0,"[0.10383178355963098,-0.1125373031396006]",100.0,"[-0.07380264076172215,0.13331398965853675]",100.0,"[-0.10706663043030447,0.16227863534656084]",100.0,"[-0.09173870338124082,-0.12048834673989445]",100.0,"[-0.1962023483618644,0.007702855961910448]",100.0,"[0.14150265464903483,-0.056057977221044886]",100.0,"[-0.11248805416131576,-0.06988949933269964]",100.0,"[0.04673453881071795,-0.12788271819160302]",100.0,"[-0.03011510933680078,0.054663058991303415]",100.0,"[0.1248570962403481,-0.003525902013011285]",100.0,"[-0.05855363376435094,-0.1555462133114367]",100.0,"[-0.008060615984656763,-0.07336424502666326]",100.0,"[-0.11470183182889854,-0.007716410833570103]",100.0,"[0.07368470594032046,0.07077718316972596]",100.0,"[0.06013226270778756,0.023316220758783545]",100.0,"[-0.03504005748151424,0.14635263499142973]",100.0,"[0.030860174332166892,0.05958796152582945]",100.0,"[0.005737243531019058,-0.027548095315321763]",100.0,"[-0.07226054410994764,-0.0662317811159412]",100.0,"[-0.007263987502647226,-0.12267552646048742]",4.0,"[0.030452651996877293,0.09985888467368584]",4.0,"[-0.13277509408685625,0.11822307369644242]",100.0,"[0.14945462729822473,0.11865830201047246]",100.0,"[0.17720240944605042,0.05442198672266889]",100.0,"[0.02,0.02]",355.8591,0.0,7.0,7.0,19.0,1.0,,,,,,,
,,,,,,,678cbebf7d5530210477f254,6842bbf17e14c96824c5a452,2025-06-06_12h01.10.688,shape_ratio,2024.1.5,Win32,59.88023952,6842b561977af9ba9b0f87ca,,,,,,,,,,,355.8608,356.3544,,,356.6019,357.1181,right,,,,,,,,0.9,0.502,,,,,,,356.3544,356.6019,357.1183,"[-0.02663687932108465,0.09030744869774084]",100.0,"[-0.03564629907308499,0.019102351805602436]",100.0,"[0.0954449836005402,-0.031716425570172076]",100.0,"[-0.06268305203763688,-0.021104376070061028]",100.0,"[-0.11084377619969427,-0.020010473350395314]",100.0,"[0.10920601082290345,0.03839188375622826]",100.0,"[0.09626763897677723,0.11968207849481192]",100.0,"[0.010076216992444856,-0.10164393809399253]",100.0,"[0.17613187764289678,0.06764440340997968]",100.0,"[0.10935821981403471,-0.0929437214168443]",4.0,"[-0.02109319660374687,-0.17218522973706446]",100.0,"[0.14774593693948435,-0.11118610078657505]",4.0,"[-0.17847848722625737,0.07169083673726628]",100.0,"[-0.04333685469946843,0.18025932191203797]",4.0,"[-0.0354359100305646,-0.09758297254684478]",100.0,"[0.019014460476373014,-0.046134930891135253]",100.0,"[-0.0038971010605256804,0.16426942631952096]",100.0,"[0.18170666873078603,-0.01330962856289264]",100.0,"[0.08212050180982831,-0.1368882535416314]",100.0,"[0.028379425655090055,-0.16225156050273562]",100.0,"[-0.049941968745489375,0.1362747461774626]",100.0,"[0.03222638717897133,0.1439993259147002]",100.0,"[-0.088394830098759,0.023381834386788498]",100.0,"[-0.15677062559240548,0.10775527654025373]",100.0,"[-0.10953907452581044,-0.1566915824951546]",100.0,"[-0.16576442908349945,-0.10471701650962899]",100.0,"[0.0059789601440579715,-0.0012211653816816136]",100.0,"[0.05688213074103111,0.024168323850505043]",100.0,"[-0.19702869765291162,0.027627476664334513]",100.0,"[0.03664806855349763,0.06087439197704629]",100.0,"[0.06863250410719184,-0.07779157056523782]",100.0,"[-0.13606793471327688,-0.06363732781323189]",100.0,"[0.02,0.02]",358.2276,0.0,8.0,8.0,10.0,1.0,,,,,,,
,,,,,,,678cbebf7d5530210477f254,6842bbf17e14c96824c5a452,2025-06-06_12h01.10.688,shape_ratio,2024.1.5,Win32,59.88023952,6842b561977af9ba9b0f87ca,,,,,,,,,,,358.2289,358.7249,,,358.9696,359.58,left,,,,,,,,0.4,0.5878,,,,,,,358.7249,358.9695,359.58,"[0.08156415024480416,-0.03382488057744043]",100.0,"[-0.17400094414589617,-0.01883282511792023]",4.0,"[-0.051456730862409754,-0.11319889090698106]",4.0,"[0.017324302344157928,-0.1498437582680938]",100.0,"[0.1345638504904508,-0.09327232026130478]",4.0,"[-0.12105736953297501,-0.0880947190474828]",4.0,"[-0.08734337505469053,0.16015337331499002]",4.0,"[0.06208456476799082,-0.08494126272318733]",100.0,"[0.06988925651686043,0.13258235620100958]",100.0,"[0.09655146125933686,0.06862650632977213]",100.0,"[0.00854403939588184,-0.04251381205992493]",100.0,"[-0.017806902139707956,0.05565392894043968]",4.0,"[0.04842386693823022,0.005498312265086284]",4.0,"[0.019687297654061006,0.1161300241575492]",4.0,"[-0.1844705615823121,0.07253805608334331]",4.0,"[-0.07710370424574042,0.00218097558809149]",4.0,"[0.18738698173131926,0.022573402529673485]",100.0,"[0.110905121612412,0.019997220100427333]",4.0,"[0.18947998548607928,-0.023311378684062408]",100.0,"[-0.0034696630338366223,-0.11265971727797207]",100.0,"[0.14800701885268158,0.04294205365133679]",4.0,"[-0.04359158091296801,-0.024696460649731654]",4.0,"[0.005223120595506037,-0.001970722834899456]",4.0,"[-0.08692605324848311,-0.17113504817005698]",4.0,"[0.1370469790501581,0.10919848675700973]",100.0,"[0.035069576921946025,0.06167760066329379]",4.0,"[-0.04177919644401162,0.08967115625962863]",4.0,"[0.0719632883036612,-0.14492915563061057]",100.0,"[-0.038620901550787394,0.17746186957438576]",100.0,"[-0.021405039334377332,0.13732301607428893]",100.0,"[-0.1819586082949712,-0.06706781588700186]",4.0,"[-0.11047138162881602,0.10930855568555896]",4.0,"[0.02,0.02]",360.6711,0.0,9.0,9.0,159.0,1.0,,,,,,,
,,,,,,,678cbebf7d5530210477f254,6842bbf17e14c96824c5a452,2025-06-06_12h01.10.688,shape_ratio,2024.1.5,Win32,59.88023952,6842b561977af9ba9b0f87ca,,,,,,,,,,,360.674,361.1708,,,361.3346,362.0742,right,,,,,,,,0.6,0.7218,,,,,,,361.1709,361.3345,362.0744,"[-0.018119810117752277,0.12228365239878292]",100.0,"[0.15141219807154327,0.12865442432272928]",4.0,"[-0.07176610414842868,0.11010173569550534]",100.0,"[-0.06169013455724636,-0.0006540727375022439]",100.0,"[-0.05989551572084309,-0.05105279578774598]",4.0,"[-0.14193715199711388,-0.07093391150647557]",100.0,"[-0.13867444062198098,0.05059548048956024]",4.0,"[0.002411594126735335,0.006915449789631598]",100.0,"[0.17358445374599396,-0.0387370658471498]",100.0,"[0.05933177998142838,-0.09950923548903969]",100.0,"[-0.016306397281083195,-0.13582667937634726]",4.0,"[0.17286371705978057,0.025589718888782302]",4.0,"[-0.11241748654396465,0.15604100628519774]",4.0,"[-0.056977249228263416,0.05002868250058147]",4.0,"[-0.1394940239849498,-0.007754195329411765]",100.0,"[0.1368061237345717,0.04520237229157779]",100.0,"[0.09613440057692829,-0.11571996437324511]",4.0,"[0.10254634433649559,0.15224304655272283]",100.0,"[0.09190135017250403,0.08564121138027565]",100.0,"[0.11699596787469366,-0.041327958334858625]",100.0,"[0.0027253572423100443,0.17583551847975054]",100.0,"[-0.01720388578829325,-0.05401674084538502]",100.0,"[0.055035310286944694,-0.03115750478183555]",4.0,"[-0.12224795161288977,-0.1343419913847942]",100.0,"[0.15164866256185314,-0.08799083449226834]",100.0,"[-0.17734659383574067,0.03791065747602254]",4.0,"[-0.07270573740968829,-0.09346766325457098]",100.0,"[-0.1181495430566731,0.10689172968852591]",4.0,"[-0.164114444453683,0.08640421511943365]",100.0,"[0.09137504313029196,0.007525418780984968]",4.0,"[0.020378870378044048,0.05692390925951072]",4.0,"[0.020125166930888904,-0.07467494017821379]",100.0,"[0.02,0.02]",363.1708,0.0,10.0,10.0,34.0,1.0,,,,,,,
,,,,,,,678cbebf7d5530210477f254,6842bbf17e14c96824c5a452,2025-06-06_12h01.10.688,shape_ratio,2024.1.5,Win32,59.88023952,6842b561977af9ba9b0f87ca,,,,,,,,,,,363.1733,363.6788,,,363.9223,364.4889,left,,,,,,,,0.45,0.5566,,,,,,,363.6791,363.9222,364.4891,"[0.17615193214309197,-0.03280131077596245]",4.0,"[0.004507515768903365,-0.00841297826367222]",4.0,"[0.13106599984051895,-0.03056030656632238]",4.0,"[0.023994946980833445,0.05802883257345575]",4.0,"[-0.16555748260402392,0.014532082615940403]",4.0,"[-0.061428527322836296,-0.06749803417268997]",100.0,"[-0.03185756303536103,-0.1576523192561155]",4.0,"[0.0687083391658082,-0.050543605172128823]",4.0,"[-0.014696621439767263,0.09720250650727419]",4.0,"[0.004417818678396545,0.17341564636219384]",4.0,"[-0.1105795792065462,0.12653591290733399]",4.0,"[-0.16611320283067849,0.06967719955889691]",4.0,"[0.05779099535709555,-0.15898830005218992]",100.0,"[0.05047028057398845,0.13794706784538358]",4.0,"[-0.15048161108795713,0.11796606864261376]",100.0,"[-0.012645591407042312,-0.07512891910412718]",100.0,"[0.11219191527332635,-0.13444087521275985]",100.0,"[-0.17681116167923622,-0.08201827057676178]",100.0,"[-0.10177795856070308,0.04857562751495715]",100.0,"[0.08831589519354047,0.059402912824873234]",4.0,"[-0.1286983839147846,-0.1290480810723566]",100.0,"[-0.05193414990547309,-0.022789254242045864]",100.0,"[-0.06114326139819216,0.0774979730927941]",4.0,"[0.10700240478846572,0.14132218064429752]",100.0,"[0.15231891228100108,0.030160955608209906]",100.0,"[-0.06773204147155783,0.16148599341824857]",100.0,"[0.10422402407919396,-0.07004012449146228]",4.0,"[-0.1887680828581695,-0.019467066570879186]",4.0,"[-0.05735100769866406,0.01687358099183697]",100.0,"[-0.12128482120070956,0.08391478522490778]",4.0,"[0.0872293709982022,0.004175375470847561]",100.0,"[-0.0075879995062259975,-0.1957987424452406]",4.0,"[0.02,0.02]",365.5806,0.0,11.0,11.0,145.0,1.0,,,,,,,
,,,,,,,678cbebf7d5530210477f254,6842bbf17e14c96824c5a452,2025-06-06_12h01.10.688,shape_ratio,2024.1.5,Win32,59.88023952,6842b561977af9ba9b0f87ca,,,,,,,,,,,365.5822,366.0814,,,366.3271,367.343,right,,,,,,,,0.45,1.0028,,,,,,,366.0814,366.327,367.3431,"[0.16672300104370616,0.021196183112243073]",4.0,"[0.12165662001180787,0.14667953331392122]",4.0,"[0.0945489273064844,-0.06324724358006707]",4.0,"[0.08362621640662732,0.09118867148208983]",100.0,"[0.0027187344987497464,-0.11430600368621843]",100.0,"[-0.05039356207181528,0.1820276269826332]",100.0,"[0.10403981983391895,-0.13807008912609103]",100.0,"[0.045180572498232124,-0.19260570574918628]",100.0,"[0.015430148065935843,0.18753093258050924]",100.0,"[-0.046287758421953935,-0.06263231731839342]",4.0,"[-0.11973860852024887,-0.1492190282970866]",4.0,"[-0.10286739320439686,0.11001083549454345]",100.0,"[0.03440419214596556,0.1464684570004916]",4.0,"[0.14699183131395874,0.06749251163236951]",100.0,"[0.0743921238910888,0.17692552631057892]",4.0,"[0.0356547411170641,-0.0035854154602462085]",4.0,"[-0.03225307205985744,-0.1722560161140403]",4.0,"[-0.1026739361253605,-0.011236594694504703]",100.0,"[-0.09014850248425407,0.1562797195336134]",100.0,"[0.19073583474933112,-0.050594949929684975]",100.0,"[0.034174532683059124,0.09273190097434536]",4.0,"[0.15060123114546167,-0.03521733960051019]",4.0,"[-0.024164375967782047,0.056523193215797296]",100.0,"[0.11468705176164092,0.029436347018287023]",4.0,"[-0.07870784941509423,0.043129898542004684]",4.0,"[-0.15910063697436636,-0.02631775632900432]",4.0,"[-0.1500037355822548,0.10853767037164126]",100.0,"[-0.05006248886534696,0.09883499849978793]",4.0,"[0.1517275681945843,-0.10795074291782486]",4.0,"[-0.007012427428714806,-0.00016737713990429658]",4.0,"[0.0839019825325048,-0.009301012437725591]",100.0,"[0.06029026878637886,-0.12836431864866898]",4.0,"[0.02,0.02]",368.441,0.0,12.0,12.0,137.0,1.0,,,,,,,
,,,,,,,678cbebf7d5530210477f254,6842bbf17e14c96824c5a452,2025-06-06_12h01.10.688,shape_ratio,2024.1.5,Win32,59.88023952,6842b561977af9ba9b0f87ca,,,,,,,,,,,368.4419,368.9409,,,369.1439,369.6413,right,,,,,,,,0.9,0.484,,,,,,,368.941,369.1438,369.6415,"[0.15174993618279198,-0.01717077551435827]",100.0,"[-0.0842707631170783,0.15887804883347206]",100.0,"[-0.043886241012424033,0.05566157951663989]",100.0,"[-0.12959277743762804,-0.08440820742948885]",100.0,"[-0.09146668928325628,-0.1565243554046924]",4.0,"[-0.15097923239749125,0.008425885524204969]",4.0,"[0.11956687615996481,-0.14861822499225308]",100.0,"[0.0395961704438652,-0.06583576702134164]",100.0,"[-0.004618846813246704,-0.08243980276685789]",100.0,"[-0.0758711301589333,-0.035475148244623354]",100.0,"[-0.010742696953673843,0.14730539638744578]",100.0,"[0.10141193365666859,-0.028526800385084178]",100.0,"[-0.18298965630380634,0.048800232289691804]",100.0,"[0.06785119680985899,0.14662350971596042]",100.0,"[0.14555187167008707,0.13125968339547078]",100.0,"[0.01859386643703423,0.01820182870569497]",100.0,"[-0.061978925780952446,-0.08326259377837626]",100.0,"[-0.09554821508717863,0.09314383702758665]",100.0,"[0.024046618157840517,-0.15308478907350437]",100.0,"[0.16534855853449468,-0.07326636077094546]",100.0,"[0.06284072323965893,0.09649859060667286]",100.0,"[0.15178969244328364,0.07572475737091802]",100.0,"[0.029051016750862437,0.0697866050243365]",4.0,"[-0.05105093027258779,-0.13277836475573757]",100.0,"[-0.12170429034275443,0.13676551889273786]",100.0,"[0.0460270855783483,-0.11645499856532171]",100.0,"[-0.19249268740325065,0.0013098402244841817]",100.0,"[-0.038361236711198704,-0.050793498312643875]",100.0,"[-0.017249809410985376,0.19357369979649985]",100.0,"[0.12375883263501235,-0.0774433198393657]",100.0,"[0.06824200141099657,0.05659861937891905]",100.0,"[0.09060770052776508,-0.17656600383797336]",100.0,"[0.02,0.02]",370.7408,0.0,13.0,13.0,26.0,1.0,,,,,,,
,,,,,,,678cbebf7d5530210477f254,6842bbf17e14c96824c5a452,2025-06-06_12h01.10.688,shape_ratio,2024.1.5,Win32,59.88023952,6842b561977af9ba9b0f87ca,,,,,,,,,,,370.7426,371.241,,,371.4926,371.9428,right,,,,,,,,0.6,0.4376,,,,,,,371.2412,371.4926,371.9428,"[-0.0036940765213838707,-0.13100907983391322]",4.0,"[-0.0815133262722494,-0.14656309797215264]",4.0,"[-0.19759722287236797,-0.027413822742755743]",100.0,"[-0.042596554218041545,-0.00802573824741856]",100.0,"[-0.0893121949522716,-0.09409703979772872]",4.0,"[-0.016229090261050717,-0.0444880371961245]",100.0,"[0.10513633325211448,-0.04317018250881989]",100.0,"[-0.060222096508565796,0.11907844051517998]",100.0,"[0.10251032716298206,-0.09807608265546332]",100.0,"[0.15680161764342718,0.043066082884180075]",100.0,"[-0.13515322637435281,0.033723113919377726]",100.0,"[-0.12414586398287791,0.0932772579220941]",100.0,"[-0.019967040445396093,0.04158718231204104]",4.0,"[0.09292303735320126,0.0617609247815882]",100.0,"[-0.1644805499918864,-0.08319437025712267]",4.0,"[0.0622037766759937,-0.029780052313556807]",4.0,"[0.18914863410006516,-0.05272010738546701]",4.0,"[0.1424120969947463,-0.002015367478713306]",100.0,"[0.08591529785841918,-0.16478999562613444]",100.0,"[0.14289541171297385,-0.10528626458674008]",4.0,"[-0.05162079706863801,-0.1902615489566695]",100.0,"[-0.05791929477748135,0.17504309718095817]",4.0,"[0.026522624306023,0.026743511452729143]",4.0,"[0.06277103349640546,0.18867074329312558]",4.0,"[-0.09827004183855303,-0.009360492200604992]",100.0,"[-0.11081549881430576,0.16052307508591782]",4.0,"[0.001902264187421971,0.08970877232347492]",100.0,"[-0.01790793494455153,0.18461035506468335]",4.0,"[-0.0028106421735872274,0.13379797314672237]",100.0,"[-0.034539494786014924,-0.09679941216756308]",100.0,"[0.12833775327046015,0.1387811163955682]",100.0,"[0.12779135224123256,0.0869265125610712]",100.0,"[0.02,0.02]",373.0445,0.0,14.0,14.0,49.0,1.0,,,,,,,
,,,,,,,678cbebf7d5530210477f254,6842bbf17e14c96824c5a452,2025-06-06_12h01.10.688,shape_ratio,2024.1.5,Win32,59.88023952,6842b561977af9ba9b0f87ca,,,,,,,,,,,373.0454,373.542,,,373.7934,374.2166,left,,,,,,,,0.6,0.4132,,,,,,,373.5421,373.7931,374.2167,"[-0.04753310461132368,0.07072789975744115]",100.0,"[-0.06798934819907916,0.13056762420333556]",100.0,"[-0.12710608525630454,-0.14010177763012926]",100.0,"[-0.15893631033953412,0.04433182469598303]",100.0,"[0.1082060333684242,-0.08001100782387782]",4.0,"[0.12959745200999376,0.03449625658645995]",4.0,"[0.08339231482881794,0.05592342028916626]",100.0,"[0.16014089213361127,0.08187529347571026]",100.0,"[-0.09621022071926479,0.06334742642932244]",100.0,"[0.06248661223687777,0.1818755008587397]",100.0,"[0.04099583432403075,0.015341344830826423]",4.0,"[-0.0669699254895699,-0.05247868943935266]",100.0,"[0.02243381259484895,-0.06968079776853134]",4.0,"[0.14454727679951893,-0.010068793315673577]",4.0,"[-0.011025882076287973,0.01394355171786316]",100.0,"[-0.11009196578451474,0.02067493025670885]",4.0,"[-0.1783989424908681,-0.0484085824169779]",4.0,"[0.08784121671185818,0.09680394955924702]",100.0,"[-0.05054725294025831,-0.18326905633749854]",100.0,"[0.08656044691700254,-0.04224197148935218]",4.0,"[0.025551724910777503,-0.1548197972643923]",4.0,"[0.18339803391119555,0.013797914064978387]",100.0,"[-0.011926726551154038,0.18446363347041544]",100.0,"[-0.07119956088743136,-0.11607818429388886]",4.0,"[-0.17273658323974034,0.0009817306008449908]",100.0,"[-0.11991369881927116,0.12599674577257092]",100.0,"[-0.002890887628188392,-0.03269618253876979]",4.0,"[0.16671648043166917,-0.08219420894378118]",100.0,"[0.07549777603526069,-0.16142659351851552]",100.0,"[0.006109406853225844,0.11688233282486561]",4.0,"[-0.09443515769573609,-0.16955632771682436]",4.0,"[0.09107457674191158,-0.12218102762026518]",100.0,"[0.02,0.02]",375.3198,0.0,15.0,15.0,57.0,1.0,,,,,,,
,,,,,,,678cbebf7d5530210477f254,6842bbf17e14c96824c5a452,2025-06-06_12h01.10.688,shape_ratio,2024.1.5,Win32,59.88023952,6842b561977af9ba9b0f87ca,,,,,,,,,,,375.3219,375.819,,,376.0617,376.5483,left,,,,,,,,0.55,0.4672,,,,,,,375.8194,376.0615,376.5484,"[-0.03039854943782246,-0.11574206785998614]",100.0,"[-0.05825358151763409,-0.003925549163071585]",4.0,"[0.062098836504930935,-0.03881753771967137]",4.0,"[0.16612056024264885,-0.05533228029870628]",100.0,"[0.029123013452962112,0.15170036335349957]",100.0,"[-0.017067964108240425,-0.17480691243631255]",100.0,"[-0.08194694845995971,-0.13165666883025146]",4.0,"[-0.026662269147825834,0.024846232749310537]",100.0,"[0.017823547712797542,-0.010830762816568732]",100.0,"[0.038091330777849354,0.05997045370674914]",100.0,"[-0.10734449179675806,0.14308995559334192]",4.0,"[-0.14747704068485518,-0.07131620967445876]",4.0,"[0.1807521822589808,0.08296794523665986]",100.0,"[-0.041777166604652645,-0.07534755677614081]",4.0,"[0.01906892508898744,0.19236588943054722]",100.0,"[-0.05077131884761877,0.167938876569552]",4.0,"[-0.1590195871175583,0.01591675074662718]",4.0,"[0.10315773038047076,0.12807720207880377]",100.0,"[-0.0215109534828422,0.11293993262986989]",100.0,"[0.11314615743195348,-0.07203178089593598]",100.0,"[0.08069363577539487,0.04723731526520216]",100.0,"[-0.0024559881898426747,-0.0631884366857768]",100.0,"[0.12400993081163476,0.021546639808281157]",100.0,"[0.10671552880624585,-0.16249576090989215]",100.0,"[-0.17264469761530757,0.08195277883000733]",4.0,"[0.16631504666776326,-0.005235222073442198]",4.0,"[0.04825580454917748,-0.12747328546868203]",4.0,"[-0.06238540176120526,-0.16899011237815575]",4.0,"[0.13544502533663366,0.06039844377070211]",100.0,"[-0.11728999765341352,-0.021316408186574314]",4.0,"[0.05856934601079602,-0.18533303177799912]",100.0,"[-0.11244287222825733,0.07257967707723985]",4.0,"[0.02,0.02]",377.6442,0.0,16.0,16.0,71.0,1.0,,,,,,,
,,,,,,,678cbebf7d5530210477f254,6842bbf17e14c96824c5a452,2025-06-06_12h01.10.688,shape_ratio,2024.1.5,Win32,59.88023952,6842b561977af9ba9b0f87ca,,,,,,,,,,,377.6458,378.152,,,378.3996,379.1803,right,,,,,,,,0.55,0.7646,,,,,,,378.1523,378.3995,379.1806,"[0.028951501416976798,0.12056090638310872]",4.0,"[-0.10002155163080843,0.08075906778590917]",4.0,"[-0.030398801444605505,0.02499665241896108]",100.0,"[0.18473850639204803,0.052703394502262496]",100.0,"[0.101996968995427,0.09253563134420811]",100.0,"[0.11827178088803844,-0.006474143833218746]",100.0,"[-0.1264567419339785,0.1338735801136844]",100.0,"[-0.07368144072976424,-0.07294576865767317]",100.0,"[0.04486904281715534,-0.14501538514041507]",100.0,"[-0.08515472422690916,0.16347724538549105]",4.0,"[-0.10605741300296942,-0.004239632636990777]",4.0,"[0.01710479372002023,0.024049243290992593]",100.0,"[-0.02960797020733938,-0.022113280171504757]",4.0,"[0.1595593145627185,-0.05270639089898396]",100.0,"[0.07600381664464335,0.040486716557582215]",100.0,"[0.08293052174697196,0.14651985826200828]",100.0,"[0.019406753305689552,-0.051650635824742254]",4.0,"[0.10117056625643452,-0.04769300922719412]",100.0,"[-0.05310254227698643,-0.11204928278277702]",100.0,"[-0.01821543032411964,0.08643632774800497]",4.0,"[0.15197911517470752,0.1031386906472629]",4.0,"[-0.011156675076522985,0.1359562342423533]",100.0,"[-0.16578420394993745,0.005020424464140237]",4.0,"[-0.006078167906326714,-0.1595277792152636]",100.0,"[-0.0852200112377637,-0.17220844845515895]",4.0,"[0.132765889019545,0.05107725797103828]",4.0,"[0.024949440427914395,0.19178020422511918]",100.0,"[-0.1503035197047342,-0.044822152549806704]",100.0,"[-0.12904088849503115,-0.10505837608227767]",100.0,"[-0.1737639076601062,-0.09246615413334525]",4.0,"[-0.09726934850781972,0.0361574316116245]",4.0,"[-0.1690046724104993,0.04898791232315564]",4.0,"[0.02,0.02]",380.2787,0.0,17.0,17.0,66.0,1.0,,,,,,,
,,,,,,,678cbebf7d5530210477f254,6842bbf17e14c96824c5a452,2025-06-06_12h01.10.688,shape_ratio,2024.1.5,Win32,59.88023952,6842b561977af9ba9b0f87ca,,,,,,,,,,,380.2801,380.7792,,,381.0302,381.8679,left,,,,,,,,0.4,0.8182,,,,,,,380.7793,381.03,381.868,"[-0.005190866317418154,-0.03900476323638641]",4.0,"[-0.06078681917145395,-0.058013776542185425]",4.0,"[0.15318852852894435,0.09793506092060991]",100.0,"[-0.15508717532165256,0.06785780564469794]",100.0,"[0.07690600774353132,0.053251281988628295]",100.0,"[-0.09951012086493957,-0.17009333038863064]",4.0,"[0.004297248645872838,0.07440011665054305]",4.0,"[-0.03167280313188298,-0.19631959146774208]",100.0,"[-0.09556615811559302,-0.005003166127945124]",4.0,"[0.1884851445138466,0.040307011561003483]",4.0,"[-0.11859127104109532,0.04380960348277436]",100.0,"[-0.15389279334646622,-0.11804430292524422]",100.0,"[0.032648907529204255,0.03893297121195843]",4.0,"[-0.06395465387316343,0.04508167966139652]",4.0,"[0.10947750153702959,0.16648841376314313]",100.0,"[-0.17013526675358323,-0.06738248276806452]",4.0,"[0.02911835160780852,-0.11287631352093355]",4.0,"[0.07116813195730298,-0.1495864524475616]",4.0,"[0.15244083077959394,-0.027459137437761894]",100.0,"[0.06600678014383711,-0.02241344177814655]",4.0,"[0.0780105846327408,0.1230347120907245]",100.0,"[0.11764102535942196,-0.08940141636109758]",4.0,"[-0.021983698323011346,0.19749989452927225]",4.0,"[-0.04321197699818355,-0.11278565391537795]",4.0,"[-0.06956060864516476,0.1580626944391779]",4.0,"[-0.025536089902015346,0.016047761142820683]",4.0,"[0.10869181513558548,-0.008660394774638713]",100.0,"[-0.09593988795796093,0.10115394804996743]",4.0,"[0.17540847787915428,-0.06617356267469283]",4.0,"[0.026989825617659016,0.11687081804304113]",100.0,"[-0.16215448688055262,0.013876811002013194]",100.0,"[-0.09978675143803607,-0.1222936433928504]",100.0,"[0.02,0.02]",382.9634,0.0,18.0,18.0,173.0,1.0,,,,,,,
,,,,,,,678cbebf7d5530210477f254,6842bbf17e14c96824c5a452,2025-06-06_12h01.10.688,shape_ratio,2024.1.5,Win32,59.88023952,6842b561977af9ba9b0f87ca,,,,,,,,,,,382.9647,383.4638,,,383.7155,384.2856,right,,,,,,,,0.9,0.5592,,,,,,,383.4638,383.7152,384.2858,"[-0.07747962524381229,-0.09252216514039174]",100.0,"[-0.1772623848685686,-0.058145172094801655]",100.0,"[-0.13222804675944574,0.126875505891661]",100.0,"[0.1271538243244622,0.09752370856227112]",100.0,"[-0.13588683301026713,-0.02968646214082698]",100.0,"[-0.0785601913878691,0.021566532351045862]",100.0,"[0.1191487347762531,-0.0696739834170084]",100.0,"[-0.11527329334362466,-0.06769506778582515]",100.0,"[0.06650405459302475,-0.09272787655664935]",100.0,"[0.05194303199622935,0.16988883111227904]",100.0,"[0.1254723469398143,-0.1356112319889859]",100.0,"[-0.011928123049570988,-0.08568914052257205]",100.0,"[0.028723660616718046,-0.016617360181497183]",100.0,"[0.033344751757187104,-0.19684686024583864]",100.0,"[-0.05149280046852876,0.06336850178495095]",4.0,"[-0.14443893084108822,0.07982642971412683]",100.0,"[-0.0027160361929040033,0.019776222972824595]",100.0,"[0.1475394429767718,-0.0238766999038302]",100.0,"[0.02665380790125517,-0.14277712659403796]",100.0,"[0.1806547756838349,0.041353721061692474]",100.0,"[0.17821474205330515,-0.06815038629716048]",100.0,"[-0.04548351452743195,0.18417735620005887]",100.0,"[0.04007369074814841,0.04396564120138116]",100.0,"[0.16824569581640056,0.09224018240727855]",100.0,"[0.10905021041642227,0.15841624103029778]",100.0,"[-0.12151295394044934,0.04478255808092123]",100.0,"[-0.05322824863633534,-0.15184523408784348]",100.0,"[0.0905706954391023,-0.014845786330110048]",100.0,"[0.1923590196600552,-0.020864155402133537]",100.0,"[0.1584460277712673,-0.10630776636775857]",4.0,"[0.017515779602646234,0.13894456393349508]",4.0,"[-0.03915427939198382,-0.02258248769012507]",100.0,"[0.02,0.02]",385.3739,0.0,19.0,19.0,28.0,1.0,,,,,,,
,,,,,,,678cbebf7d5530210477f254,6842bbf17e14c96824c5a452,2025-06-06_12h01.10.688,shape_ratio,2024.1.5,Win32,59.88023952,6842b561977af9ba9b0f87ca,,,,,,,,,,,385.3755,385.8671,,,386.109,387.1892,right,,,,,,,,0.6,1.0649,,,,,,,385.8673,386.1089,387.1892,"[-0.04186307253577723,0.004912214817462199]",4.0,"[-0.028240651435486402,-0.1947194981919465]",100.0,"[0.14698340380891778,0.05938501258473898]",100.0,"[0.13686228746827409,-0.050391184261951716]",100.0,"[-0.09833591222848546,-0.11406673275007564]",100.0,"[0.05584495232852969,0.07212569909294522]",4.0,"[-0.17122524272229553,-0.03467457955602734]",4.0,"[-0.1495368904737144,-0.10473499103803668]",100.0,"[-0.13870832192490726,0.09930766148760352]",100.0,"[0.0020897701121850147,0.0641354372017302]",4.0,"[0.050655848263315525,-0.018933230102333876]",4.0,"[0.023188828794353026,0.12374056723105571]",100.0,"[0.036759072197094476,0.17013861883212275]",100.0,"[-0.11124054238125837,-0.1611229137638681]",100.0,"[-0.06922916572074793,0.17529714964555432]",100.0,"[0.027318806999013744,-0.10806940749235916]",4.0,"[0.09186210682768871,-0.08999081408228643]",100.0,"[0.1872568267582421,-0.06478984836292813]",100.0,"[-0.0720096710062073,-0.06369899512134887]",100.0,"[0.017199912426886732,-0.06852992852536181]",100.0,"[-0.06253832334114759,0.12280584391932077]",4.0,"[-0.1187111392290785,0.03061066543631674]",4.0,"[0.18141233785496966,-0.022016451010490243]",100.0,"[-0.02524712894086201,-0.09761029908664742]",4.0,"[0.13511871467875428,-0.0005028102868056815]",4.0,"[-0.12800793540068522,-0.013190061134476941]",100.0,"[0.09116096989268976,0.040944581904822454]",4.0,"[0.061976095314240615,-0.13112243645976265]",100.0,"[-0.06553104815273512,-0.15458141008482607]",100.0,"[-0.030841315106850214,-0.057733541226978116]",4.0,"[0.08845893904566592,0.15521366397447867]",4.0,"[0.1424594432797093,-0.10670994503125962]",100.0,"[0.02,0.02]",388.284,0.0,20.0,20.0,38.0,1.0,,,,,,,
,,,,,,,678cbebf7d5530210477f254,6842bbf17e14c96824c5a452,2025-06-06_12h01.10.688,shape_ratio,2024.1.5,Win32,59.88023952,6842b561977af9ba9b0f87ca,,,,,,,,,,,388.2854,388.7843,,,389.0341,389.6518,left,,,,,,,,0.4,0.6076,,,,,,,388.7844,389.034,389.6519,"[-0.010725107027090213,0.08075514282275523]",4.0,"[0.02920219937841933,-0.04826955787323415]",100.0,"[0.07377460952828549,0.1134609772459256]",4.0,"[-0.06996470052198743,-0.04936381040321431]",4.0,"[-0.03873044280781268,-0.1772878778517104]",100.0,"[0.008802259190318391,0.1787296002836198]",100.0,"[-0.14724107388001212,0.04565984517878423]",100.0,"[-0.13736853048856693,-0.08833469891585775]",4.0,"[0.11871891164024305,0.13403509216840725]",100.0,"[-0.1842880599288193,0.02259069056631967]",4.0,"[0.008182309728007483,-0.16917365672870402]",4.0,"[0.07370433471671158,-0.0636937143114275]",4.0,"[-0.06574253008654682,-0.14137135010005328]",100.0,"[-0.11178307455451805,0.06537873942087179]",4.0,"[0.16335474390362142,-0.10892325059824312]",4.0,"[-0.01653321350853699,-0.11689372004630186]",4.0,"[0.1407794661555557,0.008832020475416891]",4.0,"[0.10727757107199423,-0.10747732863897645]",100.0,"[0.16478625563816468,0.06253569675801193]",100.0,"[0.07263223411352872,-0.17963374223575374]",4.0,"[-0.022300159767175448,-0.044235501442710636]",4.0,"[0.13020022373337276,-0.031968302323608644]",100.0,"[-0.06730926238138658,0.09006499284548591]",4.0,"[0.1925013539792694,-0.022249390320486673]",4.0,"[-0.12315731918211155,0.007235095020211932]",4.0,"[-0.07380678286953966,0.02846742391120497]",100.0,"[-0.07214492963562245,-0.09476388020247109]",100.0,"[0.16311323543734563,-0.06648727131733725]",4.0,"[-0.15486999843322646,-0.02152361788153351]",4.0,"[0.06711497632021425,-0.11152493252009577]",4.0,"[-0.059753225174786984,0.16491065046487471]",100.0,"[0.008278350207808588,0.13702899608219882]",100.0,"[0.02,0.02]",390.7504,0.0,21.0,21.0,175.0,1.0,,,,,,,
,,,,,,,678cbebf7d5530210477f254,6842bbf17e14c96824c5a452,2025-06-06_12h01.10.688,shape_ratio,2024.1.5,Win32,59.88023952,6842b561977af9ba9b0f87ca,,,,,,,,,,,390.7536,391.2541,,,391.4945,392.5569,left,,,,,,,,0.6,1.0467,,,,,,,391.2542,391.4944,392.5571,"[0.012508343026406596,0.18526684636939553]",100.0,"[-0.08092385706056135,0.0005723132399647597]",100.0,"[-0.13311352448718838,-0.0644905896890122]",100.0,"[0.049478708616476644,-0.0996353319383375]",100.0,"[-0.03486377868528801,-0.09502511613561278]",100.0,"[-0.030202675968915915,-0.1747029463769617]",4.0,"[-0.08250376294008342,0.1806270582965743]",4.0,"[-0.07424160055565282,0.13426995353053248]",4.0,"[-0.051408880735334395,0.07658835182781433]",4.0,"[0.014450381761632144,0.07474966590797298]",100.0,"[-0.020479685326964293,-0.03920454440568947]",100.0,"[-0.10006956829152952,0.0367281529402403]",4.0,"[-0.11490637761211467,0.1143910113860106]",4.0,"[0.009418862641099843,-0.08366584045202646]",100.0,"[0.1929872540764228,0.03788007657699658]",100.0,"[0.01509962613375282,0.01733256135753992]",100.0,"[0.15886562761843606,-0.01861221577637619]",100.0,"[0.09848443734386964,-0.12330191450498021]",4.0,"[0.1578814193468413,-0.10600459948950806]",4.0,"[0.051253753171954936,-0.02059345679609655]",100.0,"[0.12226644267789821,0.09251511727610917]",100.0,"[-0.1438035566924479,0.005294167309737513]",4.0,"[-0.14752747885716588,-0.12634719491173593]",100.0,"[0.13419415076601496,0.03691027582108124]",100.0,"[-0.0907623338174403,-0.04591489345450383]",100.0,"[0.1311061937440219,-0.07381391655900447]",4.0,"[0.15707920027070696,0.11653466534841637]",100.0,"[-0.03630390494442623,0.005714937201877378]",4.0,"[0.08633005269399113,0.16283969640244675]",100.0,"[0.11158410973162482,-0.036180859334221334]",4.0,"[0.13924729734450342,-0.14259309514209012]",100.0,"[-0.17165658206190365,-0.0774798296166513]",4.0,"[0.02,0.02]",393.6626,0.0,22.0,22.0,51.0,1.0,,,,,,,
,,,,,,,678cbebf7d5530210477f254,6842bbf17e14c96824c5a452,2025-06-06_12h01.10.688,shape_ratio,2024.1.5,Win32,59.88023952,6842b561977af9ba9b0f87ca,,,,,,,,,,,393.6641,394.1622,,,394.3883,395.4049,right,,,,,,,,0.5,0.9931,,,,,,,394.1623,394.3882,395.4053,"[-0.07322348641117415,0.004933885269942052]",100.0,"[0.0390165528670234,-0.1370959714787008]",100.0,"[0.19685693109863991,0.0044978472238130195]",4.0,"[-0.1361562913046731,0.02521780462533295]",4.0,"[-0.009042019618366088,-0.06919574823315001]",100.0,"[-0.06469916568703495,-0.08594850989650812]",100.0,"[-0.05919723447749971,0.18811239662190996]",4.0,"[0.1541977238182741,-0.06080102721012931]",4.0,"[0.057265908249578536,-0.10025105269978994]",100.0,"[-0.09517203466308022,0.13906425645854392]",4.0,"[0.025644476144476458,0.15195713459689283]",4.0,"[0.0444814942156062,-0.035495967139696605]",4.0,"[-0.01729910888298793,0.09685670267446977]",100.0,"[-0.12159111796106958,-0.14623176820088055]",4.0,"[-0.03272075009160724,-0.11373369169328551]",100.0,"[-0.042611988916878535,0.14361828921471542]",100.0,"[0.06488138320686485,-0.1757841833870449]",4.0,"[-0.13153854504859552,0.08030099657037568]",4.0,"[-0.1906187746737361,-0.005842850913936496]",4.0,"[-0.18063562911990447,0.08406822076899591]",4.0,"[-0.10274286037913884,0.048549092970738034]",100.0,"[-0.03696258622755208,-0.19533231267006637]",4.0,"[0.04085211955848143,0.06714116107233797]",100.0,"[0.11301099483409545,-0.1119371355798551]",4.0,"[-0.195107257478022,0.04259322902891857]",100.0,"[0.10038490503212262,0.09211652806573487]",4.0,"[0.08988504412148218,0.13545819771589074]",100.0,"[-0.13299528358122123,-0.06595730864634403]",100.0,"[-0.04991751138060777,-0.031099887227439837]",100.0,"[0.11469701076172809,0.05320547295815344]",4.0,"[0.12581208810985997,0.010656163159778258]",100.0,"[-0.1242817902512458,-0.02010049696571945]",100.0,"[0.02,0.02]",396.497,0.0,23.0,23.0,108.0,1.0,,,,,,,
,,,,,,,678cbebf7d5530210477f254,6842bbf17e14c96824c5a452,2025-06-06_12h01.10.688,shape_ratio,2024.1.5,Win32,59.88023952,6842b561977af9ba9b0f87ca,,,,,,,,,,,396.5007,397.0119,,,397.2547,397.4712,right,,,,,,,,0.55,0.2038,,,,,,,397.012,397.2546,397.4713,"[0.0927579510138432,0.1513853067278963]",100.0,"[0.03527135985768467,-0.1844958780646605]",100.0,"[-0.12399182258908244,-0.05672414737120958]",100.0,"[-0.0755881996240736,0.07619637787467537]",100.0,"[0.1328789746876238,-0.08779021947603127]",100.0,"[-0.010095642099473426,-0.11375709318061747]",4.0,"[0.032891202624291016,0.12164204351005387]",100.0,"[-0.0369702727296137,0.1581544251894146]",4.0,"[-0.019743489875625228,0.030550162144694925]",4.0,"[0.062350541369903256,0.07435420465563335]",100.0,"[0.11191714584631089,0.029683930416006934]",100.0,"[0.14308140727812346,0.0018369446962723693]",4.0,"[-0.17678261802354298,-0.07127181095567438]",4.0,"[-0.0761802550824902,0.03379502763433398]",4.0,"[-0.10510085417962772,-0.13579476544298438]",4.0,"[-0.14244935932535868,0.1285271076512825]",4.0,"[0.049098340998112035,-0.07225661125260038]",4.0,"[0.1903616914235031,0.008803703250972185]",4.0,"[0.1445625748659332,-0.04785697889394283]",100.0,"[-0.015890660252368446,-0.15876266626816274]",100.0,"[-0.03375711724410271,-0.047001049590122745]",4.0,"[0.10793398284293589,-0.1450299811451134]",4.0,"[0.013670738021154708,0.0758119372760543]",100.0,"[-0.14334177851481994,-0.005538722128660003]",100.0,"[0.062225984833049294,-0.15233875480590883]",4.0,"[0.14838869328408727,0.089719704725328]",100.0,"[0.018139331848691525,-0.03200355394545236]",100.0,"[-0.05444951475915542,-0.11111190098315532]",4.0,"[0.10283648526018029,0.07132966285926379]",100.0,"[-0.007564141915602359,0.1990540394144372]",100.0,"[0.0959551138458395,-0.014991219845150637]",100.0,"[-0.131701251058944,-0.10063822863345308]",100.0,"[0.02,0.02]",398.5708,0.0,24.0,24.0,81.0,1.0,,,,,,,
,,,,,,,678cbebf7d5530210477f254,6842bbf17e14c96824c5a452,2025-06-06_12h01.10.688,shape_ratio,2024.1.5,Win32,59.88023952,6842b561977af9ba9b0f87ca,,,,,,,,,,,398.5722,399.0714,,,399.3225,399.7731,right,,,,,,,,0.5,0.4357,,,,,,,399.0714,399.3224,399.7732,"[-0.14392497028165235,0.02169278876845957]",4.0,"[-0.1233270677753229,0.1463369697319574]",4.0,"[0.16205315449678265,-0.08735651516867575]",100.0,"[0.013901047531680198,0.024789221484636876]",100.0,"[0.016367214817311442,-0.020199323402299074]",100.0,"[-0.1041118471848896,0.10018615721797616]",4.0,"[0.07645051859412054,-0.14737431039131232]",100.0,"[0.0856580999390998,-0.09614156345035939]",100.0,"[-0.09249381108329757,-0.11271624813145012]",100.0,"[0.04167470243809739,-0.19102894878307775]",4.0,"[-0.03983479187239227,0.08517776939728756]",4.0,"[-0.026457426592016692,-0.15501500587684752]",4.0,"[0.03205161401418867,0.18875898308355124]",100.0,"[0.16218329021723113,0.059308728620729514]",4.0,"[0.046907234884245474,-0.11398408545860386]",4.0,"[0.1807132646435648,0.016799236059246388]",100.0,"[0.1202151404170953,0.14065459582044726]",4.0,"[-0.10766945446665177,-0.03759682381959257]",100.0,"[0.013498121201055676,-0.08956489826661425]",100.0,"[0.10622664059732567,0.07289041412523395]",4.0,"[-0.16889622737792576,-0.06389510640502481]",4.0,"[0.11837776672045172,-0.1220768861096694]",4.0,"[-0.028640275478584113,-0.11084125330006293]",100.0,"[-0.02595666584450832,0.17330718386144622]",4.0,"[-0.03615884409543493,0.01983842279112253]",100.0,"[0.057666187676691384,0.0944373816323926]",4.0,"[-0.0671869600797739,0.14290082295777254]",4.0,"[0.19753283633883403,-0.02291946739236601]",100.0,"[0.002800394018422656,0.13173228675053916]",100.0,"[0.0958664845440585,-0.05677815095195799]",100.0,"[0.07575279264739619,0.024926978556263246]",100.0,"[-0.13928447792216736,-0.11695455068542332]",4.0,"[0.02,0.02]",400.872,0.0,25.0,25.0,103.0,1.0,,,,,,,
,,,,,,,678cbebf7d5530210477f254,6842bbf17e14c96824c5a452,2025-06-06_12h01.10.688,shape_ratio,2024.1.5,Win32,59.88023952,6842b561977af9ba9b0f87ca,,,,,,,,,,,400.8734,401.3762,,,401.5792,402.1405,left,,,,,,,,0.4,0.5484,,,,,,,401.3763,401.5791,402.1406,"[0.0244607867753999,-0.10117616800609962]",4.0,"[-0.0639276116648099,-0.04288228504526109]",4.0,"[0.09283956613744389,0.04330082314336032]",100.0,"[-0.04594399957542844,0.12353212001582674]",4.0,"[-0.16289560894937993,-0.0939961888583251]",4.0,"[-0.10607170843016941,-0.07792538760422099]",4.0,"[-0.08158404855147518,0.15941529424262388]",4.0,"[0.09984609316828538,-0.023284741547293413]",100.0,"[-0.11374592411712345,0.07718629097962808]",100.0,"[-0.046611752741503996,-0.1385142409793431]",4.0,"[0.19214859566226028,-0.02785160076756314]",100.0,"[0.17758595206964847,-0.07018413364151482]",4.0,"[0.058327411243173505,0.12222416260000385]",4.0,"[0.08252718738034986,0.08197823619979627]",100.0,"[0.1342830306712032,0.14355175526178277]",4.0,"[-0.0036409897583893776,-0.16261597446470943]",100.0,"[0.15201403092249385,-0.11728324880920257]",4.0,"[-0.004072701876958501,0.12871486201435337]",100.0,"[0.048968890632435015,-0.1914192013141589]",4.0,"[-0.09541728744604619,-0.016850149669836004]",100.0,"[0.009821016585672387,-0.029027630448718447]",100.0,"[0.06484352117086693,-0.0653161443392479]",4.0,"[0.12339784575737175,0.09045916391836929]",100.0,"[0.12079080070911448,-0.07312381446795478]",100.0,"[-0.016764926860839,0.05128931010274959]",4.0,"[-0.16714305538354987,-0.005569504558539907]",100.0,"[-0.04970606541502667,-0.09109458549197066]",4.0,"[0.03534692738847746,0.027967901581431077]",4.0,"[0.14899529970965145,0.007323742301656075]",100.0,"[0.0897754536934553,-0.15789483092446843]",4.0,"[0.15059097863032872,0.05777938113920556]",4.0,"[0.021541086015660113,0.19574919249375194]",4.0,"[0.02,0.02]",403.2314,0.0,26.0,26.0,151.0,1.0,,,,,,,
,,,,,,,678cbebf7d5530210477f254,6842bbf17e14c96824c5a452,2025-06-06_12h01.10.688,shape_ratio,2024.1.5,Win32,59.88023952,6842b561977af9ba9b0f87ca,,,,,,,,,,,403.2329,403.7322,,,403.9838,404.5183,left,,,,,,,,0.6,0.5196,,,,,,,403.7323,403.9838,404.5183,"[-0.00796131366278135,0.17161856403924636]",100.0,"[-0.17380724520414564,-0.0007518221516121165]",100.0,"[-0.07016235033209806,0.11393570985917907]",4.0,"[-0.14802016861924067,0.10967686407422508]",4.0,"[-0.03168033897832565,0.08500697973344835]",100.0,"[0.05836497140797609,0.09024900345582992]",100.0,"[-0.0005920590821436854,0.008942846847532873]",4.0,"[0.05765044112051798,0.015456695068156365]",100.0,"[0.03382550528174549,0.16872364379574975]",100.0,"[-0.08367003359045458,0.018445503372790842]",4.0,"[-0.05739134887713889,-0.09613969028053664]",100.0,"[-0.178035351172291,-0.043379124268574404]",100.0,"[0.16621050706319218,-0.06888660933065277]",100.0,"[0.056879553281651785,-0.1601505409169329]",4.0,"[0.18708338007553174,0.014008943517673652]",4.0,"[0.12951493920978116,0.026556152242236786]",4.0,"[-0.07938111871495586,0.16878789456540036]",4.0,"[-0.14833766790148414,0.03413965862518289]",100.0,"[0.04482324680643242,-0.09346912072110788]",4.0,"[0.14171233943613337,0.10110253425739982]",4.0,"[-0.0411801070200332,0.04155744580920979]",100.0,"[0.05635221568624107,-0.051134618354905306]",100.0,"[-0.1307473453730033,-0.0984374444585837]",100.0,"[-0.1075177891646228,-0.1502752607184243]",100.0,"[-0.0052374367388948306,-0.11088994159412793]",100.0,"[-0.019799169669671293,0.12876272024145954]",4.0,"[-0.1053549488935481,0.08087908887956431]",100.0,"[0.12519835609268826,-0.029822649860147345]",100.0,"[-0.050032017356988624,-0.18377448700634552]",100.0,"[-0.16509719990574426,0.07327412350710376]",4.0,"[0.025085052758162904,-0.1954906413725733]",4.0,"[0.012123305131510033,0.06404216304256355]",100.0,"[0.02,0.02]",405.6117,0.0,27.0,27.0,53.0,1.0,,,,,,,
,,,,,,,678cbebf7d5530210477f254,6842bbf17e14c96824c5a452,2025-06-06_12h01.10.688,shape_ratio,2024.1.5,Win32,59.88023952,6842b561977af9ba9b0f87ca,,,,,,,,,,,405.6129,406.1098,,,406.3594,406.9757,right,,,,,,,,0.5,0.6026,,,,,,,406.1099,406.3592,406.9758,"[0.17654138967327246,-0.05693156503681546]",4.0,"[0.009235158368081363,-0.1482546258063527]",4.0,"[0.05568195187759303,0.024501076384869012]",4.0,"[-0.042780233043704,0.0469727729679543]",100.0,"[-0.11852817721908486,-0.06925757343011583]",100.0,"[0.08696784826269735,-0.14012935687116299]",100.0,"[0.07282434858349715,-0.04324531810930604]",4.0,"[-0.047391318975235804,0.16194473611659124]",4.0,"[-0.06037820608050321,-0.043518258383440554]",100.0,"[0.14571324601244004,0.10381282279827753]",100.0,"[0.08193532869031117,0.08216030736359578]",4.0,"[-0.19739921335706065,-0.004213412446781635]",100.0,"[-0.1102284004004545,-0.11329064169022743]",100.0,"[-0.1428121603770153,0.03880931282813403]",100.0,"[0.021066697803999168,-0.08017163453278058]",4.0,"[-0.17263379498794573,-0.058155397111189416]",4.0,"[0.050291665316087586,-0.11946944256217344]",100.0,"[0.1272799950537689,-0.1212390301616814]",100.0,"[0.08458348920020546,0.1519414111570255]",4.0,"[-0.08475509012183742,0.08017634510640509]",4.0,"[0.11783608264546838,-0.06897064187123199]",4.0,"[0.15877714823050465,0.06092507701438783]",100.0,"[0.048553203616605985,0.11619668541419076]",100.0,"[-0.09306216080604922,0.1526665225662278]",100.0,"[0.02794842956935151,0.057686245089772596]",4.0,"[-0.03344077198660921,-0.11856579223351751]",100.0,"[-0.13222898293942845,0.11161161344625584]",4.0,"[-0.021814890577223415,-0.1941682173660768]",4.0,"[-0.05105107781505862,-0.0009745300639277355]",100.0,"[0.0014646809748378017,0.014877838331598732]",4.0,"[0.03236320477759566,0.18653917656486727]",100.0,"[0.015349648851081678,0.14602933742766236]",4.0,"[0.02,0.02]",408.0696,0.0,28.0,28.0,100.0,1.0,,,,,,,
,,,,,,,678cbebf7d5530210477f254,6842bbf17e14c96824c5a452,2025-06-06_12h01.10.688,shape_ratio,2024.1.5,Win32,59.88023952,6842b561977af9ba9b0f87ca,,,,,,,,,,,408.0705,408.5608,,,408.8112,409.1282,right,,,,,,,,0.9,0.3039,,,,,,,408.5609,408.8111,409.1286,"[-0.15017699087426797,-0.11438467461428427]",100.0,"[0.12657818468604182,-0.13412100261564883]",100.0,"[-0.18022052676838538,0.08373692000682786]",100.0,"[-0.02869598942779203,-0.1573783440021446]",100.0,"[0.16952307795613214,0.09867691713341165]",100.0,"[-0.018404546335223666,-0.0801480470852399]",100.0,"[-0.004770872344297142,0.03875121360019525]",100.0,"[-0.0179142349063465,0.16772115112118804]",100.0,"[-0.059170994177188595,-0.05863054816062009]",100.0,"[-0.12114392958464809,0.1541228364895191]",100.0,"[0.11651726646602205,0.15503011165747024]",100.0,"[-0.09574135366764211,0.041841271893745]",100.0,"[0.0945614815337059,-0.023152795192787314]",100.0,"[0.04225878152139296,-0.0961061342540575]",100.0,"[0.093329083253865,-0.0735283547327827]",4.0,"[0.025635525956525983,0.15889304244703903]",100.0,"[0.17495322217096082,0.03925565248720021]",100.0,"[0.17813246549732634,-0.030387690306425373]",100.0,"[0.03746656312057386,-0.17675802366265375]",100.0,"[0.07054419788771828,0.15393167884679385]",100.0,"[-0.11483051107679591,-0.025595759444677554]",100.0,"[-0.021279863176275726,0.1069575609261916]",4.0,"[-0.1784666576007154,-0.08268287244607647]",100.0,"[0.08374030511731462,-0.11332033973741557]",100.0,"[0.13441159453862772,0.07133422809272565]",100.0,"[-0.13706346914718945,-0.06848388268781123]",100.0,"[-0.16860097337891353,-0.030621894107036297]",100.0,"[-0.07235296631995407,0.17476097257692133]",100.0,"[-0.05907075150798673,0.00866581463391732]",100.0,"[-0.0979117547798097,0.11735355178317529]",100.0,"[-0.17676848293266148,0.03257081021453116]",100.0,"[0.07807862753364736,0.08383926730044393]",4.0,"[0.02,0.02]",410.2265,0.0,29.0,29.0,14.0,1.0,,,,,,,
,,,,,,,678cbebf7d5530210477f254,6842bbf17e14c96824c5a452,2025-06-06_12h01.10.688,shape_ratio,2024.1.5,Win32,59.88023952,6842b561977af9ba9b0f87ca,,,,,,,,,,,410.2301,410.7271,,,410.9783,411.4485,right,,,,,,,,0.5,0.4513,,,,,,,410.7271,410.9782,411.4486,"[-0.011549013158069528,-0.18889917707784365]",4.0,"[0.09046917132370608,-0.16057405784577983]",4.0,"[-0.07647544782190731,-0.013806544921387612]",100.0,"[0.07617171117392511,-0.06586148237927232]",4.0,"[0.11667090805311536,-0.11089222140659158]",100.0,"[0.11565747119380927,0.0950549245680906]",100.0,"[0.020517330745615108,0.13223788537103007]",4.0,"[0.06931610543147267,-0.10982509740292684]",4.0,"[-0.09300821111486324,0.1392225392342659]",4.0,"[0.03535695935128082,0.1712479699652081]",100.0,"[0.00026690570351044966,-0.1472799287995997]",100.0,"[0.1294357052893924,0.02127216653281104]",4.0,"[-0.15680844300423027,-0.026549801822444374]",100.0,"[-0.12112110073225163,0.10060595062143166]",4.0,"[-0.10816379305535447,-0.16706589467087132]",4.0,"[-0.03555516651671371,-0.09536367322647507]",100.0,"[0.1064373485501868,0.1374700237869476]",100.0,"[-0.07693194560464778,0.03535171695334626]",100.0,"[0.010280264493675856,0.08940366835684253]",100.0,"[0.012885819007926506,-0.04191555258756674]",100.0,"[-0.02139979308636397,-0.0004551456228267407]",4.0,"[-0.07186583045369378,-0.06638712146051712]",4.0,"[0.16850468311996095,-0.07566497180441183]",100.0,"[0.07076495450955932,0.09027326866093836]",100.0,"[0.02185402563562533,0.020105434084273097]",4.0,"[0.1987380001174141,-0.006696769992293687]",100.0,"[-0.14772202381458585,-0.08987759371954823]",4.0,"[-0.12302538670029164,0.05417595485806403]",100.0,"[-0.05976465307656783,0.10474580165315112]",4.0,"[-0.03773687220230299,0.051056053368399086]",4.0,"[0.07454671755604249,-0.008701609750071476]",4.0,"[-0.09583150102384705,-0.11240665588105367]",100.0,"[0.02,0.02]",412.5478,0.0,30.0,30.0,115.0,1.0,,,,,,,
,,,,,,,678cbebf7d5530210477f254,6842bbf17e14c96824c5a452,2025-06-06_12h01.10.688,shape_ratio,2024.1.5,Win32,59.88023952,6842b561977af9ba9b0f87ca,,,,,,,,,,,412.5492,413.0462,,,413.2969,413.5498,left,,,,,,,,0.4,0.2436,,,,,,,413.0463,413.2968,413.5498,"[0.017612220119908775,-0.13996602756080437]",4.0,"[-0.12949378132646408,0.13947901456114534]",4.0,"[0.00023247168350516785,-0.06632510670873398]",4.0,"[0.15890942532052568,-0.01848828858302543]",100.0,"[-0.09435340170901477,-0.09865261031924745]",100.0,"[0.06314391328666262,0.18488878189022326]",4.0,"[-0.09356112776125171,-0.15550824094554666]",100.0,"[-0.12204822566047156,0.08371501336795216]",4.0,"[0.06064335667306577,-0.10015605697013812]",4.0,"[0.1257802523154226,-0.1395629452271818]",4.0,"[0.10951854225691485,-0.021609962535132983]",100.0,"[-0.02902767970416542,-0.024778184923194467]",4.0,"[0.04614835617101731,-0.1723089121041911]",4.0,"[-0.1382892235896474,0.01982590425075229]",100.0,"[0.13138216728706556,0.021177333991330795]",4.0,"[-0.0827693891639484,0.07564068069182353]",4.0,"[0.09832817295080352,0.10172814691372387]",4.0,"[-0.10336261004107787,-0.04184250266607592]",100.0,"[-0.17790568922543148,0.007169016818894137]",100.0,"[0.09108121353031391,-0.060477777000570575]",100.0,"[0.009842208178489454,0.18951801482787478]",4.0,"[0.016731984949739293,0.009545898618979004]",4.0,"[0.1751073305984158,0.08700072778123355]",4.0,"[0.0645146193050226,0.02527785725406688]",4.0,"[0.1184421689309301,0.06440023495008508]",4.0,"[-0.05834236711178429,0.18961775332809566]",100.0,"[0.0392263195064374,-0.03083891959586154]",100.0,"[0.004995979779700206,0.0760233838678422]",100.0,"[0.16821798566862417,-0.09996972769906776]",100.0,"[0.17197263020118417,0.02263898066994314]",4.0,"[-0.15215810122303985,-0.0868597633672212]",4.0,"[0.0533775366275344,0.07636638324154124]",100.0,"[0.02,0.02]",414.6469,0.0,31.0,31.0,153.0,1.0,,,,,,,
,,,,,,,678cbebf7d5530210477f254,6842bbf17e14c96824c5a452,2025-06-06_12h01.10.688,shape_ratio,2024.1.5,Win32,59.88023952,6842b561977af9ba9b0f87ca,,,,,,,,,,,414.6481,415.147,,,415.391,416.1719,right,,,,,,,,0.5,0.7654,,,,,,,415.147,415.3909,416.172,"[0.05955611107673313,-0.03221521502975854]",4.0,"[0.15636537379802085,-0.01632517522141022]",4.0,"[0.08915132331933003,0.12250935213018686]",100.0,"[-0.012689783004985513,0.08863632143294009]",4.0,"[0.008538651702510749,-0.0837489397288438]",4.0,"[-0.19145443370162168,0.03576132086300397]",100.0,"[-0.006969515265279776,0.023405719900240925]",100.0,"[0.10454952670990776,-0.16132905510362908]",4.0,"[-0.06465285449546518,0.03715113311973525]",100.0,"[0.16796019120375003,0.054639278110269064]",4.0,"[0.03606277038964778,0.1892363907259274]",100.0,"[-0.08753041616522464,0.17621972565465538]",100.0,"[0.038635187512820565,0.04716496076804133]",4.0,"[-0.016763205462137963,0.16717600425005477]",4.0,"[0.07713315314230337,-0.07484369687539214]",100.0,"[-0.10761837799869933,0.13291377686011502]",100.0,"[0.04947485994448143,0.13072854436903375]",4.0,"[0.13521700719751792,0.08277565180033877]",4.0,"[-0.14225710532961738,0.05970444129244936]",100.0,"[-0.09159184562682353,-0.1434147830855219]",4.0,"[-0.02735510760048951,-0.04333572810895943]",100.0,"[0.1562761664645183,-0.09287405546601568]",4.0,"[0.11333946771885961,-0.05363753503470397]",100.0,"[-0.10129581252138639,-0.027362013542426292]",100.0,"[0.012529496927873234,-0.025656890902595028]",100.0,"[-0.06038035556492792,-0.09190106642178543]",100.0,"[0.0639666660622405,-0.15677990265239852]",4.0,"[0.07777694619601373,0.037865004410773596]",4.0,"[-0.05490049841221512,-0.17663110682457558]",100.0,"[-0.15432435374384126,0.10803033882726515]",4.0,"[0.1400566493173404,0.12860965399328972]",100.0,"[0.03872583639611635,-0.12539502329140148]",4.0,"[0.02,0.02]",417.2717,0.0,32.0,32.0,117.0,1.0,,,,,,,
,,,,,,,678cbebf7d5530210477f254,6842bbf17e14c96824c5a452,2025-06-06_12h01.10.688,shape_ratio,2024.1.5,Win32,59.88023952,6842b561977af9ba9b0f87ca,,,,,,,,,,,417.2741,417.7667,,,418.012,418.5455,left,,,,,,,,0.6,0.5228,,,,,,,417.767,418.0119,418.5455,"[0.011257647560701805,-0.06315152309672575]",100.0,"[0.08370941835205739,-0.019647797324229145]",100.0,"[-0.08029812590591952,0.13772599318243445]",100.0,"[0.042656246717202966,0.02888137029674231]",100.0,"[-0.1586363773105398,0.045070134532570943]",100.0,"[-0.04041337813367734,-0.07642446937616984]",100.0,"[-0.18936094171758447,-0.035208862297951456]",4.0,"[0.09861026156616655,0.1737100387786441]",100.0,"[0.16836495241581936,-0.10247373571497916]",4.0,"[0.06054666902226594,-0.1676204801390091]",100.0,"[-0.11258933941635692,-0.0974750833566213]",4.0,"[-0.04650813278195899,-0.12388250666203242]",100.0,"[0.19468550164466783,-0.02449339191141327]",4.0,"[0.042005359375983146,0.18540072831146306]",100.0,"[0.11381204034779333,-0.0750230692781806]",4.0,"[0.0606713252943317,0.1104381723572995]",100.0,"[0.02497817475673466,-0.11092784713568368]",100.0,"[-0.1463290803325076,0.0870535326602812]",4.0,"[0.13660394279513274,0.14575030776538836]",4.0,"[-0.06653966012410321,-0.17722951635223022]",100.0,"[-0.08641573523425668,-0.13095278794346293]",100.0,"[-0.10700511211465613,-0.02123576841768203]",100.0,"[0.13260023138344537,-0.14873475375663972]",4.0,"[0.1229248121309056,0.018841804354155566]",100.0,"[0.15463807364967633,0.07708568390516408]",4.0,"[-0.04939762092370288,-0.0248993518301248]",4.0,"[0.007195450115678406,-0.16869780565952175]",4.0,"[-0.0582693228218767,0.17459702829468357]",4.0,"[-0.014401296159835413,0.10893234686793905]",4.0,"[0.08939999897705485,0.0582849159147211]",100.0,"[-0.0650703200353377,0.07703263805543074]",100.0,"[-0.1516912457366207,-0.08211598367739131]",100.0,"[0.02,0.02]",419.6493,0.0,33.0,33.0,37.0,1.0,,,,,,,
,,,,,,,678cbebf7d5530210477f254,6842bbf17e14c96824c5a452,2025-06-06_12h01.10.688,shape_ratio,2024.1.5,Win32,59.88023952,6842b561977af9ba9b0f87ca,,,,,,,,,,,419.6502,420.1494,,,420.3993,421.1323,right,,,,,,,,0.4,0.7182,,,,,,,420.1494,420.3992,421.1325,"[0.0936181230971383,0.13488521924826383]",100.0,"[0.010066456853602258,-0.05207383503735507]",100.0,"[0.10042397195798868,-0.15049565834410303]",100.0,"[0.11428151243065997,0.05811144032943722]",4.0,"[-0.12876082809711997,-0.00808195746120315]",100.0,"[0.0495096830029974,0.02335059326583286]",100.0,"[-0.025210462120107646,-0.09210959750872634]",100.0,"[-0.1169417000815828,-0.1522278687123025]",4.0,"[0.13464763772176294,0.1379682703853203]",4.0,"[-0.12600137154539853,0.11960421298736686]",100.0,"[0.012597448573259241,-0.16445335917964754]",4.0,"[-0.18251237895724515,0.015024652088268827]",4.0,"[-0.15148070213017858,-0.07711250506872136]",100.0,"[-0.0852960452168475,0.014215394703731666]",4.0,"[-0.03430068214675062,0.0032555341549082716]",4.0,"[0.019654274317740424,0.05117361838868653]",4.0,"[-0.0429250948740146,0.13850080231368228]",4.0,"[0.08800936462356301,-0.10524223641599754]",4.0,"[-0.1120638044928412,-0.049585731476954074]",100.0,"[0.058380316000928606,-0.03955807778429106]",4.0,"[0.14482817533344894,-0.08593450266955244]",4.0,"[-0.11107130871496068,-0.09996517161673805]",4.0,"[0.15871669715194645,0.09604015473606597]",4.0,"[0.14277991564747985,-0.020332893747315072]",4.0,"[0.18248388023405027,-0.006343037440234569]",4.0,"[0.11694396143907014,-0.053644144674427637]",4.0,"[-0.11794259003353103,0.07890934510321031]",100.0,"[-0.04806681851665122,0.05275542963288159]",4.0,"[-0.06850182673341328,-0.025863111481674066]",100.0,"[-0.04733120933800753,-0.13228975953628241]",4.0,"[0.04819298972542836,-0.18858734877160388]",100.0,"[0.05063304821306958,0.09185443547449065]",100.0,"[0.02,0.02]",422.2331,0.0,34.0,34.0,165.0,1.0,,,,,,,
,,,,,,,678cbebf7d5530210477f254,6842bbf17e14c96824c5a452,2025-06-06_12h01.10.688,shape_ratio,2024.1.5,Win32,59.88023952,6842b561977af9ba9b0f87ca,,,,,,,,,,,422.2351,422.7334,,,422.9841,423.3669,right,,,,,,,,0.9,0.3683,,,,,,,422.7334,422.984,423.3671,"[0.15471755356404696,0.09396864446208811]",100.0,"[0.18608745806515817,-0.01683607283816206]",4.0,"[0.04993075718875221,-0.15225149090984166]",100.0,"[-0.06007042340763881,-0.10632793025575457]",100.0,"[-0.05969341084893041,-0.03927821540153399]",100.0,"[0.12481343171938698,0.1293249873285518]",100.0,"[-0.015803241060749217,-0.13877246555312236]",4.0,"[-0.03676745889798582,-0.17961594728926014]",100.0,"[-0.18803247174128826,-0.05628253494045493]",100.0,"[-0.07405337007797831,0.01976300753703597]",100.0,"[-0.07001870086839453,0.1206876599764188]",100.0,"[0.1614525702477107,0.03729961098434629]",100.0,"[0.12860949192716717,-0.023609618321877135]",100.0,"[-0.12967166612354233,-0.017984691590782514]",100.0,"[-0.18012955888314117,0.011326206651369913]",100.0,"[-0.14407217851369478,-0.10884357013695466]",100.0,"[-0.11436357848557961,0.08112575788622013]",4.0,"[0.005495902100336629,-0.017801516368602825]",100.0,"[0.03935962380195945,0.1842054851759777]",100.0,"[-0.11748160294165715,0.1495529199987387]",100.0,"[0.06972084281852206,0.1444203043335945]",100.0,"[0.05696554301458582,0.028813180120014714]",100.0,"[0.09335510201527362,0.07748329292184516]",100.0,"[0.1399866120941588,-0.12181677680773036]",100.0,"[-0.10826467698205691,-0.07742840344403866]",100.0,"[0.004175354347860524,0.0717188806730394]",100.0,"[0.006452659607695749,-0.06958171322395794]",100.0,"[0.06256696754811818,-0.09013861047747208]",100.0,"[-0.027013145776854847,0.032459657556655655]",100.0,"[0.11572400240774723,0.024232274497976325]",100.0,"[-0.13402924139299588,0.024844495234813482]",100.0,"[-0.08806396128599261,-0.16527388973407878]",100.0,"[0.02,0.02]",424.4671,0.0,35.0,35.0,12.0,1.0,,,,,,,
,,,,,,,678cbebf7d5530210477f254,6842bbf17e14c96824c5a452,2025-06-06_12h01.10.688,shape_ratio,2024.1.5,Win32,59.88023952,6842b561977af9ba9b0f87ca,,,,,,,,,,,424.4689,424.967,,,425.2111,425.7115,left,,,,,,,,0.1,0.4855,,,,,,,424.9671,425.211,425.7116,"[0.14539031210442513,-0.1310123915579744]",4.0,"[0.16764135356792667,-0.011822383773019831]",4.0,"[0.07875581356078289,0.1122022767620778]",4.0,"[-0.030731074427339515,-0.05190893465435595]",4.0,"[-0.0818505474905047,-0.17996829116057422]",4.0,"[0.15748653894276188,0.08713567724231996]",4.0,"[-0.08852691462239257,-0.11212919929871323]",4.0,"[-0.08220865782009201,-0.014384914334828316]",100.0,"[0.05154600675450101,0.03173815172079356]",4.0,"[-0.18438750839598814,-0.02711553181801658]",4.0,"[-0.1682551557467255,0.052997066189663815]",100.0,"[0.014462154979906869,-0.0780909649709903]",4.0,"[0.008500604325123274,0.04931002042302865]",4.0,"[-0.02324681267137337,-0.1741652306822027]",4.0,"[-0.1538051229198062,0.10126817884395083]",4.0,"[-0.012922058525153362,-0.1195198109379464]",4.0,"[0.02347057661195592,0.10773554344712877]",100.0,"[-0.1361142273911088,-0.04956317303558334]",4.0,"[0.1430643122798512,-0.04932584492069675]",4.0,"[0.15753585438075682,0.03008432879898758]",4.0,"[0.04087966320071233,0.18153083088731198]",4.0,"[-0.005895887312875317,0.006184060149080007]",4.0,"[0.10281379095661616,0.05447466993648618]",4.0,"[-0.125585316956248,0.041445320154024266]",4.0,"[-0.0005034981400700094,0.1915948779318602]",4.0,"[0.08506589145002855,-0.004186952992756344]",4.0,"[0.17641350223612157,-0.09220748050506587]",4.0,"[-0.038065373670822654,0.14789293937812384]",4.0,"[0.05268113663883229,-0.18722155431062693]",4.0,"[0.11031352238568613,-0.07561262075251467]",4.0,"[0.0874223394516506,0.1673153160122024]",4.0,"[0.030603005444581555,-0.1320441280753796]",4.0,"[0.02,0.02]",426.8127,0.0,36.0,36.0,199.0,1.0,,,,,,,
,,,,,,,678cbebf7d5530210477f254,6842bbf17e14c96824c5a452,2025-06-06_12h01.10.688,shape_ratio,2024.1.5,Win32,59.88023952,6842b561977af9ba9b0f87ca,,,,,,,,,,,426.8138,427.3114,,,427.5529,428.071,left,,,,,,,,0.1,0.5009,,,,,,,427.3116,427.5529,428.0712,"[0.08977475597435401,0.047498633952644274]",4.0,"[0.06710190835592801,-0.1747060511012803]",100.0,"[0.09752530289072273,0.10559759030408697]",4.0,"[-0.13347398651029893,-0.07949116721755352]",4.0,"[0.05597411425856453,0.0011390818136393485]",4.0,"[0.06938860526333375,-0.11629018866401655]",4.0,"[-0.0956086923534919,-0.027952329941973632]",4.0,"[-0.18572980163269867,-0.06775324405625285]",4.0,"[0.003359518304287878,-0.19399843154992993]",4.0,"[-0.0376118133098575,-0.01971785133239937]",4.0,"[-0.02427674993228796,0.07023639744684554]",4.0,"[-0.0041959435288916646,-0.11280562982340937]",4.0,"[-0.13266708158581572,0.11592628500334322]",4.0,"[0.1468243562467734,0.13060372542004936]",4.0,"[0.12518709599666,-0.10146603666326867]",4.0,"[-0.06300032249817047,-0.1687093248112404]",4.0,"[0.019092488732618453,0.14808126224991183]",4.0,"[0.15679499767410437,-0.05586409192621089]",4.0,"[-0.06301444129666799,-0.09777811049297044]",4.0,"[-0.06282899956952535,0.15092067240007914]",4.0,"[0.1622868626306155,0.06276613697126969]",4.0,"[0.002274759402705732,-0.008896540142550006]",4.0,"[-0.1492617372138463,0.019495582329392226]",4.0,"[0.13399922324372562,0.0037480932284154624]",4.0,"[0.09645335382214529,-0.05250478633880104]",4.0,"[0.07778433005804677,0.18295688095061854]",100.0,"[-0.023633669789769128,0.19071513251810315]",4.0,"[-0.14252912427652945,-0.13034076142905454]",4.0,"[-0.10783313118609046,0.06200097994429761]",100.0,"[0.018768017198029844,0.03437316536743291]",4.0,"[-0.17784536182242955,-0.028020858648990635]",4.0,"[-0.062490265755627716,0.020137479847391518]",4.0,"[0.02,0.02]",429.1692,0.0,37.0,37.0,201.0,1.0,,,,,,,
,,,,,,,678cbebf7d5530210477f254,6842bbf17e14c96824c5a452,2025-06-06_12h01.10.688,shape_ratio,2024.1.5,Win32,59.88023952,6842b561977af9ba9b0f87ca,,,,,,,,,,,429.1711,429.6695,,,429.915,430.4251,left,,,,,,,,0.5,0.4969,,,,,,,429.6697,429.915,430.4252,"[-0.026643936506768908,0.016058421209226136]",100.0,"[-0.06072922854721538,0.15999698744147203]",100.0,"[-0.19702543730885688,0.03328838422238045]",100.0,"[0.09508422765662432,0.10238394340963443]",4.0,"[0.1877966442748335,0.004470495445398894]",4.0,"[0.15907609378351142,0.05685822900456685]",4.0,"[-0.18036877864178857,-0.00487234666313301]",4.0,"[-0.1225219564247811,0.06171107044523259]",4.0,"[0.08750840216982615,-0.03034633664192685]",4.0,"[0.09636080983185111,0.15088679645033326]",100.0,"[0.03176028568671236,0.08647966303807364]",100.0,"[0.06936507731077649,0.014938780295671876]",100.0,"[-0.16481704835646743,-0.11128136115702503]",4.0,"[0.14788831197815008,-0.011390601903823907]",100.0,"[0.1720887679950404,-0.09345176278941428]",4.0,"[0.10287344708451245,0.04999786217875865]",100.0,"[-0.09076211906448427,-0.1763196683391473]",4.0,"[-0.11359256821087019,-0.09544744182720478]",100.0,"[-0.05321995477137664,-0.1431531011827657]",100.0,"[0.018128941423434127,0.1296885956969186]",4.0,"[-0.1606050513377549,-0.0445464364362803]",100.0,"[0.0861128137160404,-0.17799953097337032]",4.0,"[0.06362171852828832,-0.0929740289594972]",4.0,"[-0.07629962097930944,-0.06181767405904496]",100.0,"[0.005057857617464239,-0.18828689970508805]",100.0,"[0.11275375852035445,-0.08279786935254742]",4.0,"[-0.11338197787114952,0.1492478964256892]",4.0,"[-0.09950454825327104,-0.1366197596092995]",4.0,"[0.13620788413258209,-0.11984123312592282]",100.0,"[-0.07495450496993675,-0.008005667189765631]",100.0,"[0.1709783806047214,0.10083221428300727]",100.0,"[0.04584139492364153,-0.020726951390313803]",4.0,"[0.02,0.02]",431.5215,0.0,38.0,38.0,95.0,1.0,,,,,,,
,,,,,,,678cbebf7d5530210477f254,6842bbf17e14c96824c5a452,2025-06-06_12h01.10.688,shape_ratio,2024.1.5,Win32,59.88023952,6842b561977af9ba9b0f87ca,,,,,,,,,,,431.5224,432.022,,,432.2719,432.6049,right,,,,,,,,0.55,0.3188,,,,,,,432.0221,432.2718,432.605,"[0.17025520145393516,-0.036749326381829234]",100.0,"[0.08368395140085128,-0.07310987894060629]",4.0,"[0.10252715359450669,0.012413692526344139]",4.0,"[-0.01071588625692467,0.12873011765807307]",100.0,"[-0.057582076895458,0.10283990653036541]",100.0,"[-0.07656581405490548,0.1768715839375608]",100.0,"[0.12432964733245382,0.12279874534418553]",100.0,"[-0.12654121899171025,0.02128282358706524]",100.0,"[-0.15997395286762178,-0.05831784792978355]",100.0,"[-0.08113969287631222,-0.05319108484675801]",100.0,"[0.0022909863742300203,-0.1570318172058783]",100.0,"[0.04243916397195836,0.11778270510927806]",4.0,"[0.06801322601450661,0.18062666164273689]",4.0,"[0.04727019752238901,-0.04654230224967369]",100.0,"[0.16340305789039733,-0.08446466851522079]",4.0,"[-0.08910292320093657,-0.14607586573121167]",100.0,"[-0.01881499389894609,0.025257955934054357]",100.0,"[-0.10575339587350396,0.13909205103120084]",100.0,"[0.16964518375962476,0.06053231060614184]",4.0,"[-0.12488030288753543,-0.09426930020840345]",4.0,"[-0.17381535535096412,0.02752471751587327]",100.0,"[0.0007177497563322301,-0.03276725094351347]",4.0,"[0.11772214770216732,-0.12666317654759035]",4.0,"[-0.03221676229398647,-0.19274160185541594]",4.0,"[0.048802704632085504,0.06008839901394841]",100.0,"[-0.1647144512955652,-0.10344694819582105]",100.0,"[-0.16344289094561829,-0.018238442519170013]",4.0,"[-0.10860627630515395,0.07143776816334177]",100.0,"[0.04689138998038034,-0.12838920504974774]",4.0,"[0.11244013642596205,0.07876894382371855]",4.0,"[-0.06329513229979017,-0.0026003201577794424]",100.0,"[-0.1133756176758189,-0.02095057346675476]",4.0,"[0.02,0.02]",433.7047,0.0,39.0,39.0,60.0,1.0,,,,,,,
,,,,,,,678cbebf7d5530210477f254,6842bbf17e14c96824c5a452,2025-06-06_12h01.10.688,shape_ratio,2024.1.5,Win32,59.88023952,6842b561977af9ba9b0f87ca,,,,,,,,,,,433.7067,434.2051,,,434.4571,434.7575,left,,,,,,,,0.6,0.2838,,,,,,,434.2052,434.4569,434.758,"[0.012586058257077306,0.027199551572440958]",4.0,"[-0.017477430230100132,-0.1327040038347003]",4.0,"[-0.09715632886187149,-0.039813035946404916]",4.0,"[-0.1865096559229276,0.03663035844646687]",4.0,"[0.15862264557799402,0.04840696802568582]",100.0,"[-0.03889704183849949,-0.024330209196467924]",100.0,"[0.05402341013569222,0.06923021648147573]",100.0,"[0.004603437983989246,-0.030245061335063494]",100.0,"[0.15920292988971135,-0.045522245815255144]",100.0,"[-0.1261804478410998,-0.007851024291532355]",100.0,"[0.16179416544094294,0.10068204140815606]",100.0,"[-0.15964800811395383,-0.061225455713726055]",4.0,"[0.1310421422088518,0.0067396677825122065]",4.0,"[0.11531571706261065,-0.03409855835507529]",4.0,"[0.04113374473437949,-0.0044590205339209935]",100.0,"[0.035881326736348404,0.15869629495838322]",100.0,"[-0.07220865794868409,0.003030619160669317]",100.0,"[0.04533239647912367,-0.08691625377040642]",4.0,"[-0.060444422109911695,-0.10180158118552994]",100.0,"[-0.060025381522835534,-0.18367329291063883]",100.0,"[-0.034865435159690386,0.08517855919673199]",4.0,"[0.05481176076241265,-0.17434780117505735]",4.0,"[-0.10891523737635825,0.06801628274188345]",100.0,"[-0.13842889376151055,-0.12843584418894605]",100.0,"[0.1983617637989281,-0.006495153862190938]",4.0,"[-0.10835447010684532,0.15733625807843077]",100.0,"[-0.09871684559589106,-0.1686931426016893]",4.0,"[0.07234854505747232,0.10694660163521205]",4.0,"[0.023178531984653118,0.19751334988670863]",100.0,"[-0.10437901413317745,-0.08289126393758811]",100.0,"[-0.15169817160391877,0.11737665222596232]",100.0,"[0.11102884200428272,0.15310345759674313]",100.0,"[0.02,0.02]",435.8571,0.0,40.0,40.0,32.0,1.0,,,,,,,
,,,,,,,678cbebf7d5530210477f254,6842bbf17e14c96824c5a452,2025-06-06_12h01.10.688,shape_ratio,2024.1.5,Win32,59.88023952,6842b561977af9ba9b0f87ca,,,,,,,,,,,435.8581,436.3572,,,436.6075,436.8744,right,,,,,,,,0.4,0.2512,,,,,,,436.3573,436.6074,436.8747,"[0.15704642125279097,-0.030947125680977988]",100.0,"[-0.04277776080124856,0.19365312012623612]",4.0,"[0.008676707677554314,-0.1377456644394738]",100.0,"[0.08173968772491402,0.08250608673445124]",100.0,"[0.04797869841424744,-0.011639424323289646]",100.0,"[0.020943590380095283,0.19495488316713125]",4.0,"[0.13421098391520522,-0.11178626352242449]",4.0,"[-0.025938122725769827,-0.10170017958982035]",4.0,"[0.0075195908588530265,0.02862509221805323]",4.0,"[0.18353512774404623,0.0027736605295114298]",4.0,"[0.168925322228707,0.10157490883249357]",4.0,"[-0.021867896435482023,-0.028879519608885643]",100.0,"[0.12559857992799547,0.010393864071888281]",4.0,"[-0.07593994624353761,-0.17068913368623032]",100.0,"[0.004514408582278452,0.08302218378220312]",100.0,"[0.051749724383770825,-0.05804287766824493]",4.0,"[-0.11113057813930685,-0.06374943578794538]",4.0,"[-0.12209941152026133,0.04263223483301478]",100.0,"[0.05083612634387076,0.14631530036701132]",4.0,"[-0.007426006152909683,0.14048764584373669]",4.0,"[-0.08859123124760081,0.17336386578260937]",100.0,"[-0.17852069032235202,0.020503861869737204]",100.0,"[0.013756759716571157,-0.07602830091752767]",100.0,"[0.07703153081137978,-0.11630454853348739]",4.0,"[-0.09764108456186449,-0.013796780348435641]",100.0,"[0.16124582105377439,0.055080149111720135]",100.0,"[0.11817353636251388,0.1448811494444906]",4.0,"[-0.1883288613556711,-0.04898425491522417]",4.0,"[-0.1298782195505666,0.13556715999346608]",4.0,"[-0.10905768314837423,-0.12601714934275385]",4.0,"[0.10416052689817494,-0.06064186403433695]",4.0,"[0.08047216280654623,0.02641011014156862]",4.0,"[0.02,0.02]",437.9734,0.0,41.0,41.0,156.0,1.0,,,,,,,
,,,,,,,678cbebf7d5530210477f254,6842bbf17e14c96824c5a452,2025-06-06_12h01.10.688,shape_ratio,2024.1.5,Win32,59.88023952,6842b561977af9ba9b0f87ca,,,,,,,,,,,437.9747,438.466,,,438.7097,439.0117,right,,,,,,,,0.4,0.2931,,,,,,,438.466,438.7096,439.0118,"[0.09789586947813247,0.024217443123059002]",4.0,"[0.1513126480197486,0.020647409548638765]",4.0,"[-0.0446990035175351,-0.05222173775631908]",100.0,"[0.023309190112967094,0.05111092214825348]",4.0,"[0.04914152149175571,0.19176396532494377]",4.0,"[0.1878541176124727,-0.05551578356855809]",4.0,"[-0.09487260378681577,0.1143479353913611]",100.0,"[0.01393823932853183,0.16293826291195937]",100.0,"[-0.0028471125258405115,-0.012116387968346612]",100.0,"[-0.1337311655824095,-0.040841975002720465]",100.0,"[0.1396953891986177,0.13545033574499984]",100.0,"[0.0784909510149113,0.07841718043695131]",4.0,"[-0.09221168626335545,-0.13794280734956912]",4.0,"[-0.1926114342837094,-0.0009696768765897847]",4.0,"[-0.028973936553500213,0.10255711673399007]",100.0,"[0.03130972392213358,-0.160687329483088]",100.0,"[-0.11173317826346539,0.1609927136278022]",4.0,"[-0.0514489559086158,-0.15648366932593966]",4.0,"[-0.13425304272104835,0.10020567098309402]",4.0,"[0.11838079164613514,-0.11399925642302383]",4.0,"[0.1463183066639975,-0.03332478868900561]",4.0,"[-0.12046828927334091,0.007666069207627523]",100.0,"[0.11862854544005264,-0.15908664868317504]",4.0,"[-0.1486168528539829,-0.12330844115881237]",4.0,"[0.19107738768336763,0.05815087738315218]",100.0,"[-0.011470096851826294,0.19886627304287544]",100.0,"[0.06659960802639785,-0.023371511818310275]",100.0,"[-0.012590782809646482,-0.12712484312131536]",100.0,"[-0.06592263216891027,0.06822744637021037]",4.0,"[-0.15737179613528973,0.054984618739260006]",4.0,"[-0.09355675462816428,-0.06765004030166788]",4.0,"[0.015056294157734315,-0.06522147566759617]",4.0,"[0.02,0.02]",440.1089,0.0,42.0,42.0,166.0,1.0,,,,,,,
,,,,,,,678cbebf7d5530210477f254,6842bbf17e14c96824c5a452,2025-06-06_12h01.10.688,shape_ratio,2024.1.5,Win32,59.88023952,6842b561977af9ba9b0f87ca,,,,,,,,,,,440.11,440.6097,,,440.8515,441.2685,left,,,,,,,,0.1,0.4021,,,,,,,440.6098,440.8513,441.2686,"[-0.1353652714966101,0.12261445287835629]",4.0,"[0.14716878246727227,0.12426482728810867]",4.0,"[-0.0016091646199199907,-0.003931744485374187]",4.0,"[0.06062773623226001,-0.04856043468619079]",4.0,"[-0.1972654206544703,-0.02237118532193969]",4.0,"[-0.039834013838858685,0.015889955907496433]",4.0,"[0.04494295111508766,0.007065328762616791]",100.0,"[0.13218400165801716,-0.025538323861067767]",4.0,"[0.01827196941922822,-0.12866630883302632]",4.0,"[-0.10027804605985784,0.09486377019511037]",4.0,"[-0.09267535765305795,-0.12708207994330206]",4.0,"[0.09338097691108728,0.16710813320622347]",4.0,"[-0.10674742706172693,-0.021603535631691248]",4.0,"[0.19562492993396866,0.02972085016600042]",4.0,"[0.0750249372295802,-0.09501782608771958]",4.0,"[-0.13972709248879303,0.07839488287452968]",4.0,"[-0.09693963740887458,0.17120168377437336]",4.0,"[-0.032627614332705765,0.1429762817532235]",100.0,"[0.11663583449419339,0.028857649258270657]",4.0,"[-0.05730868381844592,-0.0225024016845688]",100.0,"[-0.14742165012032335,-0.05108265187011112]",4.0,"[0.09371829629917852,-0.13979161748745542]",4.0,"[0.03218018197498868,0.09044696703533417]",4.0,"[-0.032763250411500765,0.06289266066075572]",4.0,"[0.024480181288876482,0.1541347480707844]",4.0,"[-0.0104775863414485,-0.057385625348133115]",4.0,"[0.17156467512648124,-0.07151990076123568]",4.0,"[-0.05325502808826682,-0.1056627443292224]",4.0,"[0.1162846601458129,0.08097722537276379]",4.0,"[-0.16304408402637152,-0.11401317378444431]",4.0,"[-0.18362754094260514,0.07301039570275501]",4.0,"[0.0772889173468267,0.04507982605160869]",4.0,"[0.02,0.02]",442.3603,0.0,43.0,43.0,193.0,1.0,,,,,,,
,,,,,,,678cbebf7d5530210477f254,6842bbf17e14c96824c5a452,2025-06-06_12h01.10.688,shape_ratio,2024.1.5,Win32,59.88023952,6842b561977af9ba9b0f87ca,,,,,,,,,,,442.3613,442.8604,,,443.1104,443.46,left,,,,,,,,0.1,0.3348,,,,,,,442.8605,443.1102,443.4602,"[-0.04429320214867833,0.17578050220865463]",4.0,"[-0.1121142228099827,-0.08182891386933029]",4.0,"[-0.02195652569822528,-0.028839406929063297]",100.0,"[0.026568444277396977,-0.14666341441819897]",4.0,"[0.18192401196277255,-0.05578808635049881]",100.0,"[-0.11376214624463211,0.05267587674209334]",4.0,"[-0.10191939828384262,0.14549732151259176]",4.0,"[0.05368745385125669,-0.06560526530791277]",4.0,"[-0.11340454249118977,0.10431168982671395]",4.0,"[0.15400584507555182,0.02843869885955536]",4.0,"[0.10468858735528246,-0.12856242211068164]",4.0,"[-0.08458333405297869,-0.014198061523656711]",4.0,"[0.06161926937981579,0.16235989215498034]",4.0,"[0.0022945329399643205,0.1839990440112377]",4.0,"[-0.16758255989270932,0.050881737346940716]",4.0,"[-0.04147873266817248,-0.19153887889062593]",4.0,"[0.10057491901720529,-0.01700661474563928]",4.0,"[0.08145709745163665,0.12277491146390111]",4.0,"[-0.08348260463726485,-0.13587806296827387]",4.0,"[0.02747833395480142,-0.014943513686862997]",4.0,"[-0.18755389939914682,-0.057233737332587006]",4.0,"[0.05215353180681537,-0.18517778048128222]",100.0,"[0.14339266610346374,0.12459142612947866]",4.0,"[0.06984902746071363,0.05876257051311242]",4.0,"[-0.027299772247999333,0.11766400816312107]",4.0,"[-0.16121353773878866,-0.007163144314712412]",4.0,"[-0.043069568085454916,-0.07954240820833432]",4.0,"[-0.12624394521523474,-0.13808394838850707]",4.0,"[0.026042083389080293,-0.09770142562035666]",4.0,"[-0.04631449673664595,0.07024466530034966]",4.0,"[0.14152464443687354,-0.01986876457441177]",4.0,"[0.04424788449363699,0.09003995797749467]",4.0,"[0.02,0.02]",444.5599,0.0,44.0,44.0,200.0,1.0,,,,,,,
,,,,,,,678cbebf7d5530210477f254,6842bbf17e14c96824c5a452,2025-06-06_12h01.10.688,shape_ratio,2024.1.5,Win32,59.88023952,6842b561977af9ba9b0f87ca,,,,,,,,,,,444.5612,445.0601,,,445.2949,445.6952,left,,,,,,,,0.6,0.3888,,,,,,,445.0602,445.2948,445.6953,"[-0.129066000121657,0.022327747625955262]",100.0,"[-0.08770772126800515,0.11010377241272185]",100.0,"[-0.1245814230900041,-0.13992004890081797]",4.0,"[0.08710626620104889,-0.019450028833268896]",100.0,"[0.00021268527484118906,-0.021643129556226173]",4.0,"[-0.00821924798565711,-0.18665036775048213]",100.0,"[0.08441414037349393,0.04210927183258161]",100.0,"[-0.0866358459945075,-0.041280305815473095]",4.0,"[0.014229539995988034,0.16421456584735403]",4.0,"[-0.17809660306917488,0.05232127587414444]",4.0,"[-0.0513574665909096,-0.0930310156143519]",100.0,"[-0.0012352463399946303,-0.06459693296780593]",100.0,"[-0.13093259199105436,0.13056337274755186]",4.0,"[-0.024033693531253807,-0.13057317017315567]",4.0,"[-0.03815626672024947,0.1219647810149927]",4.0,"[-0.06115447806361674,0.1799213369390595]",4.0,"[0.03918928148744093,0.11039613469658743]",100.0,"[0.14443232375001447,-0.04825797717634127]",100.0,"[0.05817197702435112,0.17287187715323468]",100.0,"[0.14559939709638,0.07474893592088236]",4.0,"[-0.12580881764192633,0.06659374717027035]",4.0,"[0.021865946372515536,0.05641775937736388]",100.0,"[0.17897302572122678,-0.025631381057035694]",4.0,"[-0.06288115680256436,-0.14919772923615895]",100.0,"[0.01977671052671572,-0.10153218562195522]",100.0,"[-0.14999108238633954,-0.04138772038452571]",100.0,"[0.11639059944480462,-0.15340960451015304]",100.0,"[0.10276364781114435,0.16129168188027854]",4.0,"[-0.06931359888901122,0.06892128131695209]",100.0,"[0.07264511276459518,-0.06174957885009202]",100.0,"[-0.12357558166354805,-0.09919283929825354]",100.0,"[0.10106229751272808,0.08454662326739712]",100.0,"[0.02,0.02]",446.7946,0.0,45.0,45.0,47.0,1.0,,,,,,,
,,,,,,,678cbebf7d5530210477f254,6842bbf17e14c96824c5a452,2025-06-06_12h01.10.688,shape_ratio,2024.1.5,Win32,59.88023952,6842b561977af9ba9b0f87ca,,,,,,,,,,,446.7966,447.2945,,,447.5457,447.813,left,,,,,,,,0.45,0.2521,,,,,,,447.2946,447.5457,447.8131,"[0.03248249766495685,-0.14954473198508272]",100.0,"[0.03409311831659835,-0.09074982208627537]",4.0,"[-0.06120608986435157,0.18674436250338955]",4.0,"[-0.012638671611557949,0.10157644088928622]",100.0,"[-0.00781717668441066,-0.07480120712406522]",4.0,"[-0.13941374450464672,-0.11756517445624289]",4.0,"[-0.10401836950658501,-0.1441163336707564]",100.0,"[-0.12701393653910897,0.056953322455413645]",100.0,"[-0.011322101853633094,-0.1428892851497017]",4.0,"[0.09041522278601372,-0.1719323966612296]",100.0,"[0.16133432702518113,0.06251673953803336]",4.0,"[0.1479992249790436,-0.06780830710914869]",100.0,"[0.07804014742966646,-0.017983919114749454]",100.0,"[0.12495262025695676,-0.0005538376483963597]",4.0,"[0.08203253066687688,0.04720058955583192]",100.0,"[-0.1264574295528524,0.003234592322639144]",4.0,"[-0.16507475488434842,0.018039554596176243]",4.0,"[-0.048402233687584485,0.06854365942661025]",100.0,"[-0.1129989981970969,-0.053680779499495034]",4.0,"[-0.18662783000707464,-0.040070004844473976]",100.0,"[0.03650540826195491,-0.025142983836118196]",4.0,"[0.1338682709593913,0.14815032854296778]",4.0,"[0.06547783946982969,0.12168834227627404]",4.0,"[0.18020765182397264,-0.02475458551284409]",4.0,"[0.05846768144895512,0.185214860345924]",100.0,"[-0.010285369573141794,0.178850846448893]",100.0,"[0.18712570052722777,0.024219991815663342]",4.0,"[-0.05297642437500178,-0.16252188656242347]",100.0,"[0.10536887932780004,-0.07506565232439097]",100.0,"[0.0084250670054607,-0.19343781915356686]",4.0,"[-0.022949521258707393,0.02376733725748305]",4.0,"[-0.05794414294143974,-0.07502837030211063]",4.0,"[0.02,0.02]",448.9121,0.0,46.0,46.0,121.0,1.0,,,,,,,
,,,,,,,678cbebf7d5530210477f254,6842bbf17e14c96824c5a452,2025-06-06_12h01.10.688,shape_ratio,2024.1.5,Win32,59.88023952,6842b561977af9ba9b0f87ca,,,,,,,,,,,448.9135,449.4124,,,449.6644,450.0319,right,,,,,,,,0.1,0.3513,,,,,,,449.4125,449.6644,450.0319,"[-0.132399614317672,-0.06056233391223603]",4.0,"[0.08927201251500619,-0.08770590926107948]",4.0,"[-0.11860894401009384,0.04505448868259864]",100.0,"[0.16461163725823014,-0.04281125542291549]",4.0,"[-0.03298142072046451,0.007852841028448212]",4.0,"[-0.06388856862375991,-0.04779648166675685]",4.0,"[0.05697545444957944,0.14265639839512054]",4.0,"[0.06732354430261192,0.022299969625398413]",4.0,"[0.007998933931313248,0.08308413304459464]",4.0,"[-0.04233329860272438,0.09349401908911532]",4.0,"[-0.05929413455230655,-0.15995868885635114]",4.0,"[0.11242126383715122,0.004099277733197335]",4.0,"[0.12108068352342384,0.08257784429423631]",4.0,"[-0.09707116189223663,-0.022725102531937994]",4.0,"[0.15010221158873283,-0.09549285078667201]",100.0,"[0.15977278214450866,0.0462215405906911]",4.0,"[-0.0655790140513326,-0.09436087449176865]",100.0,"[0.021236422421446192,-0.013828097563241716]",4.0,"[-0.1479428464874322,-0.10698757504970428]",4.0,"[0.05994079545116764,-0.1535294831644206]",4.0,"[0.1077108593190326,-0.12804717195629736]",4.0,"[-0.10532922067438955,0.11795652329813452]",4.0,"[-0.16232547240213718,0.042649306145488945]",4.0,"[-0.17075302457012104,0.08954631364410715]",4.0,"[0.018163061811639254,-0.18942767024665327]",4.0,"[0.10264448104928518,0.13339526571584542]",4.0,"[-0.06117707839247608,0.13197899992881576]",4.0,"[0.006481275027075018,-0.1094127135001697]",4.0,"[-0.16662643343769298,-0.033953146022492046]",4.0,"[0.05702851111505961,0.061222089161037885]",4.0,"[0.01617399544435015,0.13993550814741684]",4.0,"[-0.1051713163327988,-0.1376622333966821]",4.0,"[0.02,0.02]",451.1314,0.0,47.0,47.0,190.0,1.0,,,,,,,
,,,,,,,678cbebf7d5530210477f254,6842bbf17e14c96824c5a452,2025-06-06_12h01.10.688,shape_ratio,2024.1.5,Win32,59.88023952,6842b561977af9ba9b0f87ca,,,,,,,,,,,451.1326,451.6315,,,451.8815,452.6717,right,,,,,,,,0.4,0.7806,,,,,,,451.6315,451.8814,452.6718,"[0.09219725772917266,-0.027709667614603164]",4.0,"[-0.11579496000486061,-0.08149985299042217]",100.0,"[-0.1766501867122221,-0.025729643436200416]",4.0,"[-0.043233536146325593,-0.05671880745030376]",4.0,"[0.002125843397162663,-0.13511456150885073]",4.0,"[-0.021257297046434056,-0.1985573921591907]",4.0,"[-0.08895139688255177,0.021905841119409686]",4.0,"[0.005148173555735343,0.07213387217050442]",100.0,"[-0.11257294319695575,0.09642483800279608]",100.0,"[0.06365734673322257,0.13268430407523962]",4.0,"[-0.1433491827761188,0.1381547801613939]",4.0,"[0.11115058630832692,-0.14425214751094012]",100.0,"[-0.14496695898778664,-0.05291611246167895]",100.0,"[0.14846839084170088,-0.11793203222956698]",100.0,"[0.03228794532223474,0.0007562130285158737]",100.0,"[-0.166044707465985,-0.10326195796512712]",4.0,"[-0.06031941954169977,0.17541837385646533]",4.0,"[-0.042860619684735125,0.10820121673967849]",100.0,"[-0.1601903260835359,0.03316700964104689]",100.0,"[-0.06265914632540937,-0.1647892591481822]",4.0,"[0.1343080950184056,0.08123273830682638]",100.0,"[0.12651733900987033,0.141683255882624]",4.0,"[0.0811775318387759,0.1727751406115884]",4.0,"[0.029557854765242378,-0.10515199156679425]",4.0,"[0.19641722733062944,0.0368265508000721]",4.0,"[0.1323220678240742,-0.0680243628291]",100.0,"[0.10326502317160063,0.05354059354928244]",100.0,"[0.18145010499306843,-0.0710094143882544]",4.0,"[0.09172547424330736,-0.10749037195768935]",4.0,"[-0.11021501646171462,0.16411155895384838]",4.0,"[-0.0641349865820858,-0.01964092759700164]",100.0,"[0.15927064213900044,-0.03473967350490755]",4.0,"[0.02,0.02]",453.7645,0.0,48.0,48.0,164.0,1.0,,,,,,,
,,,,,,,678cbebf7d5530210477f254,6842bbf17e14c96824c5a452,2025-06-06_12h01.10.688,shape_ratio,2024.1.5,Win32,59.88023952,6842b561977af9ba9b0f87ca,,,,,,,,,,,453.7666,454.2648,,,454.5158,454.9159,right,,,,,,,,0.45,0.3855,,,,,,,454.2649,454.5156,454.916,"[0.11308829632262704,-0.00439045668054807]",4.0,"[0.10298086434478677,0.04521590096941886]",4.0,"[-0.022760523742245516,-0.17240343655749887]",100.0,"[-0.15000671048195435,-0.011214476846692693]",4.0,"[-0.08014996099129232,-0.1771256778210344]",100.0,"[0.14906992252286227,-0.09675900278956981]",100.0,"[-0.18940008662547747,0.025425978224917475]",4.0,"[0.056605980583393826,-0.0027346528330910893]",100.0,"[0.003234141586276499,0.18367374950463955]",100.0,"[0.06051626018073798,-0.0930405007558595]",4.0,"[-0.09504734736573814,0.12203480486597533]",100.0,"[-0.08453950329758136,-0.08886864386392981]",100.0,"[-0.14079401228453572,-0.12436059047088666]",100.0,"[-0.04741713818797859,0.06468228062483591]",4.0,"[0.09249146139870351,-0.15377691150499415]",4.0,"[-0.05660283906006362,-0.05375156575881093]",4.0,"[0.05497861891912177,0.08167787264822567]",4.0,"[-0.10788614187911703,0.00867106232526634]",4.0,"[0.01348168326023417,0.0749132655452232]",100.0,"[0.16427073527324823,0.06867770798740394]",100.0,"[-0.13166265100855631,0.1408620399398826]",4.0,"[0.08395331522135652,0.17549378557371867]",4.0,"[-0.022576948223627248,-0.08233656577555434]",100.0,"[-0.18764429576930816,0.06803511078138894]",4.0,"[0.016501161724342465,-0.12842052874408982]",4.0,"[0.12693169526545134,0.1095481615658576]",100.0,"[0.10676415498578708,-0.07149809621228517]",100.0,"[-0.0024939061183799687,0.14341660293446665]",100.0,"[0.005444351164407667,0.023252196457280664]",4.0,"[-0.047458728854875364,0.0011682022648134205]",4.0,"[-0.009859167100760687,-0.014042957441648126]",4.0,"[-0.17269625129677924,-0.07438360335262527]",4.0,"[0.02,0.02]",456.0084,0.0,49.0,49.0,140.0,1.0,,,,,,,
