right,left,explain.started,explain.stopped,key_resp_3.keys,key_resp_3.rt,key_resp_3.duration,participant,session,date,expName,psychopyVersion,OS,frameRate,study_id,explain_2.started,explain_2.stopped,key_resp_4.keys,key_resp_4.rt,key_resp_4.duration,explain_3.started,explain_3.stopped,key_resp_5.keys,key_resp_5.rt,key_resp_5.duration,fixation.started,fixation.stopped,practice.started,practice.stopped,response.started,response.stopped,key_resp.keys,feedback.started,feedback.stopped,trials_2.thisRepN,trials_2.thisTrialN,trials_2.thisN,trials_2.thisIndex,trials_2.ran,dot_ratio,key_resp.rt,key_resp.duration,explain_4.started,explain_4.stopped,key_resp_6.keys,key_resp_6.rt,key_resp_6.duration,dotDisplay.started,dotDisplay.stopped,ITI.started,polygon_1.pos,polygon_1.edges,polygon_2.pos,polygon_2.edges,polygon_3.pos,polygon_3.edges,polygon_4.pos,polygon_4.edges,polygon_5.pos,polygon_5.edges,polygon_6.pos,polygon_6.edges,polygon_7.pos,polygon_7.edges,polygon_8.pos,polygon_8.edges,polygon_9.pos,polygon_9.edges,polygon_10.pos,polygon_10.edges,polygon_11.pos,polygon_11.edges,polygon_12.pos,polygon_12.edges,polygon_13.pos,polygon_13.edges,polygon_14.pos,polygon_14.edges,polygon_15.pos,polygon_15.edges,polygon_16.pos,polygon_16.edges,polygon_17.pos,polygon_17.edges,polygon_18.pos,polygon_18.edges,polygon_19.pos,polygon_19.edges,polygon_20.pos,polygon_20.edges,polygon_21.pos,polygon_21.edges,polygon_22.pos,polygon_22.edges,polygon_23.pos,polygon_23.edges,polygon_24.pos,polygon_24.edges,polygon_25.pos,polygon_25.edges,polygon_26.pos,polygon_26.edges,polygon_27.pos,polygon_27.edges,polygon_28.pos,polygon_28.edges,polygon_29.pos,polygon_29.edges,polygon_30.pos,polygon_30.edges,polygon_31.pos,polygon_31.edges,polygon_32.pos,polygon_32.edges,dot_size,ITI.stopped,trials.thisRepN,trials.thisTrialN,trials.thisN,trials.thisIndex,trials.ran,break_2.started,break_2.stopped,trials_3.thisRepN,trials_3.thisTrialN,trials_3.thisN,trials_3.thisIndex,trials_3.ran
subject chose diamond,subject chose dot,0.0003,53.2964,space,38.2702,,678e394d5908a64d41ba0bd1,6844293f136f67aece87c25e,2025-06-07_14h00.04.330,shape_ratio,2024.1.5,Win32,60.60606061,684250e4f00cb30b92d1fa88,,,,,,,,,,,,,,,,,,,,,,,,,,,,,,,,,,,,,,,,,,,,,,,,,,,,,,,,,,,,,,,,,,,,,,,,,,,,,,,,,,,,,,,,,,,,,,,,,,,,,,,,,,,,,,,,,
,,,,,,,678e394d5908a64d41ba0bd1,6844293f136f67aece87c25e,2025-06-07_14h00.04.330,shape_ratio,2024.1.5,Win32,60.60606061,684250e4f00cb30b92d1fa88,53.297,94.4228,space,11.1166,,,,,,,,,,,,,,,,,,,,,,,,,,,,,,,,,,,,,,,,,,,,,,,,,,,,,,,,,,,,,,,,,,,,,,,,,,,,,,,,,,,,,,,,,,,,,,,,,,,,,,,,,,,,,
,,,,,,,678e394d5908a64d41ba0bd1,6844293f136f67aece87c25e,2025-06-07_14h00.04.330,shape_ratio,2024.1.5,Win32,60.60606061,684250e4f00cb30b92d1fa88,,,,,,94.4233,100.2509,space,2.8082,,,,,,,,,,,,,,,,,,,,,,,,,,,,,,,,,,,,,,,,,,,,,,,,,,,,,,,,,,,,,,,,,,,,,,,,,,,,,,,,,,,,,,,,,,,,,,,,,,,,,,,,
,,,,,,,678e394d5908a64d41ba0bd1,6844293f136f67aece87c25e,2025-06-07_14h00.04.330,shape_ratio,2024.1.5,Win32,60.60606061,684250e4f00cb30b92d1fa88,,,,,,,,,,,100.2931,100.765,100.7662,101.0024,101.0027,102.4976,,102.4986,103.5962,0.0,0.0,0.0,0.0,1.0,0.2,,,,,,,,,,,,,,,,,,,,,,,,,,,,,,,,,,,,,,,,,,,,,,,,,,,,,,,,,,,,,,,,,,,,,,,,,,,,,,,,,,,,,,,,
,,,,,,,678e394d5908a64d41ba0bd1,6844293f136f67aece87c25e,2025-06-07_14h00.04.330,shape_ratio,2024.1.5,Win32,60.60606061,684250e4f00cb30b92d1fa88,,,,,,,,,,,103.5993,104.0949,104.095,104.4035,104.4037,105.8587,left,105.8589,106.9591,0.0,1.0,1.0,1.0,1.0,0.8,1.4342,,,,,,,,,,,,,,,,,,,,,,,,,,,,,,,,,,,,,,,,,,,,,,,,,,,,,,,,,,,,,,,,,,,,,,,,,,,,,,,,,,,,,,,
,,,,,,,678e394d5908a64d41ba0bd1,6844293f136f67aece87c25e,2025-06-07_14h00.04.330,shape_ratio,2024.1.5,Win32,60.60606061,684250e4f00cb30b92d1fa88,,,,,,,,,,,,,,,,,,,,,,,,,,,,106.9616,113.0882,space,3.1103,,,,,,,,,,,,,,,,,,,,,,,,,,,,,,,,,,,,,,,,,,,,,,,,,,,,,,,,,,,,,,,,,,,,,,,,,,,,,,,,,,
,,,,,,,678e394d5908a64d41ba0bd1,6844293f136f67aece87c25e,2025-06-07_14h00.04.330,shape_ratio,2024.1.5,Win32,60.60606061,684250e4f00cb30b92d1fa88,,,,,,,,,,,113.1327,113.6022,,,113.8225,114.2686,left,,,,,,,,0.4,0.4329,,,,,,,113.6051,113.8224,114.271,"[0.012262522111540034,-0.05283063570975438]",4.0,"[-0.06353403063105767,0.152771939496203]",4.0,"[0.15450671584317072,-0.12476295025630606]",100.0,"[-0.004406037274425536,0.1503101368953416]",100.0,"[0.030421466785764094,0.129715795470593]",4.0,"[-0.013934635450414352,-0.18903738291495378]",4.0,"[-0.17405230783003484,0.052702948507258006]",100.0,"[-0.045236335975857925,0.054387041759921165]",4.0,"[-0.08798750655486892,0.031115960613175436]",4.0,"[0.15414413793909798,-0.06571172890461248]",100.0,"[0.09942370073245878,0.09208009042292087]",4.0,"[-0.17610590390123843,-0.02660398055900714]",4.0,"[-0.04391901130352246,-0.11845234108498323]",4.0,"[-0.029914721585949336,-0.0675002092388859]",4.0,"[-0.03009858340142369,0.19012085827143194]",100.0,"[-0.11517297150298186,-0.03027820361465873]",4.0,"[-0.10628464898791452,-0.13685192011295894]",100.0,"[0.057625579626343,-0.1667514712576705]",4.0,"[-0.12306436829677989,0.15106658160381112]",100.0,"[0.1166218670443622,-0.15313104362568797]",4.0,"[0.13507310454178698,-0.01578337854694408]",4.0,"[0.16013161647451263,0.11494439470023833]",100.0,"[0.10000054694269032,0.16868841095856218]",4.0,"[0.15332337266392398,0.04260201163682968]",100.0,"[-0.1308945832473709,-0.09228462263974793]",100.0,"[0.04266992255327772,-0.011401802192803907]",100.0,"[-0.10456068718663049,0.08348982330519701]",4.0,"[0.05776976187565462,0.08095644288827425]",4.0,"[0.1889929377500757,0.014366852348583198]",100.0,"[0.10581901711881833,-0.11017396975228518]",4.0,"[-0.06418179926763946,-0.1553088035834777]",100.0,"[0.1019911092074475,-0.04956963393941349]",4.0,"[0.02,0.02]",115.3676,0.0,0.0,0.0,164.0,1.0,,,,,,,
,,,,,,,678e394d5908a64d41ba0bd1,6844293f136f67aece87c25e,2025-06-07_14h00.04.330,shape_ratio,2024.1.5,Win32,60.60606061,684250e4f00cb30b92d1fa88,,,,,,,,,,,115.3701,115.8673,,,116.1119,116.5673,right,,,,,,,,0.9,0.4446,,,,,,,115.8677,116.1117,116.5685,"[-0.005489285395548826,-0.035335489686456036]",100.0,"[0.16619910230730064,0.07951193395867023]",100.0,"[-0.1153089758390218,0.025103425332473048]",100.0,"[0.08894017936520345,0.1768181670694761]",100.0,"[-0.02780081590278257,0.04315775960851751]",4.0,"[-0.029906606388627573,-0.18800820817328653]",100.0,"[-0.10952642581429045,-0.07014569983094773]",100.0,"[0.09628079742080911,-0.12458356501231625]",100.0,"[-0.05950650003511716,-0.14178011647658506]",100.0,"[0.07841494130029811,0.11928054955446085]",100.0,"[0.12577360225178577,0.08598871937851046]",100.0,"[-0.10317978648320908,-0.14891281353626445]",100.0,"[0.133592579905291,-0.14009064587888403]",100.0,"[0.12071513837945239,-0.028121277969941662]",100.0,"[0.02141742457979491,0.12384058764718707]",100.0,"[0.047078700632222706,0.16900647739669994]",100.0,"[0.03743755011758553,-0.17756024069957319]",100.0,"[0.16719431607877874,-0.07465581823971025]",100.0,"[-0.18005163885041836,0.04774078665825588]",100.0,"[0.08592789629126378,-0.0028915514355943956]",100.0,"[0.03240127947421631,-0.05900204037084368]",100.0,"[-0.08117431744993109,0.17463310624462938]",100.0,"[0.08011212092033669,0.06832304587035297]",100.0,"[0.007577918161126125,-0.11578784887288787]",100.0,"[0.15470467961567502,-0.0056334063477268045]",100.0,"[-0.07781182274170692,0.11808085828165192]",4.0,"[-0.0704764841870815,-0.005932862368099724]",100.0,"[-0.019307944925376845,0.1300791615251679]",4.0,"[-0.028088312062373874,0.0022244250848286575]",100.0,"[0.029144304300956807,0.04203641151428613]",100.0,"[0.11787565433122418,-0.0873344017783606]",100.0,"[0.12554240577747727,0.12986567604168342]",100.0,"[0.02,0.02]",117.6654,0.0,1.0,1.0,7.0,1.0,,,,,,,
,,,,,,,678e394d5908a64d41ba0bd1,6844293f136f67aece87c25e,2025-06-07_14h00.04.330,shape_ratio,2024.1.5,Win32,60.60606061,684250e4f00cb30b92d1fa88,,,,,,,,,,,117.668,118.1648,,,118.4222,118.6149,left,,,,,,,,0.4,0.1756,,,,,,,118.1649,118.4221,118.615,"[0.1944178343470415,-0.03488381479213187]",100.0,"[-0.07046666743857084,0.08476817697398899]",4.0,"[0.08808924174386555,-0.1274131810441074]",4.0,"[0.025706769925395424,0.06994054475652992]",4.0,"[-0.020267070889137078,-0.01624791301318765]",4.0,"[0.02232582883937315,0.0022403717373651287]",100.0,"[0.14080001821326454,-0.13416457515949867]",4.0,"[-0.12144337978250594,0.09432962783333508]",4.0,"[-0.005467353591262186,-0.15147873571651174]",4.0,"[-0.0862110565138214,0.1795361442324633]",100.0,"[0.041423503148732485,0.11653869275851991]",100.0,"[0.18722560110022615,0.049169266522246693]",4.0,"[0.16858920825062057,0.09674566477241545]",4.0,"[0.11129689445106375,0.1448338871927522]",100.0,"[-0.030302755307720457,-0.07851275294170851]",4.0,"[-0.14544292712497725,-0.1281303249738743]",4.0,"[-0.07212518526682814,-0.027426974807420006]",100.0,"[-0.14566628784260185,-0.0845819558487008]",4.0,"[-0.1332094956863025,-0.0009415871253233883]",4.0,"[-0.040334072378705024,0.03746427462745947]",100.0,"[0.03501222302463712,-0.08940542230249394]",100.0,"[-0.11412753070795557,-0.15740639399100012]",100.0,"[0.10766036131749852,0.06379323183686499]",100.0,"[-0.03592727023559877,0.17919426691361903]",4.0,"[0.098156613242471,-0.17228684583687862]",4.0,"[-0.06029167790566464,-0.11750038345170517]",4.0,"[0.14400378532816338,-0.08327591782121246]",4.0,"[-0.11259635619610439,-0.04750898258569891]",100.0,"[0.1460246003920024,-0.01265665986439165]",100.0,"[0.027273418177734907,-0.17599587231585812]",4.0,"[0.02296356203625682,0.19030637955647567]",100.0,"[0.10077043950556083,-0.04649912386897299]",4.0,"[0.02,0.02]",119.7137,0.0,2.0,2.0,172.0,1.0,,,,,,,
,,,,,,,678e394d5908a64d41ba0bd1,6844293f136f67aece87c25e,2025-06-07_14h00.04.330,shape_ratio,2024.1.5,Win32,60.60606061,684250e4f00cb30b92d1fa88,,,,,,,,,,,119.7152,120.2118,,,120.453,120.7472,right,,,,,,,,0.5,0.2773,,,,,,,120.2119,120.4527,120.7473,"[-0.05703831349749772,0.15512084213714758]",4.0,"[0.13266688121652948,0.08159370551135739]",4.0,"[-0.03158074868489589,0.006141375983539167]",100.0,"[-0.10328025226369303,0.08521901882978489]",4.0,"[0.1506083171753998,-0.09714353321212293]",100.0,"[0.07746119570628827,-0.040493162379004445]",4.0,"[-0.03552264837881637,0.11204235667941854]",100.0,"[-0.13566132316104282,0.14146272947232372]",4.0,"[-0.06606993911494402,-0.11311469643329941]",100.0,"[-0.15311148136752176,0.017595972183354926]",100.0,"[-0.06921219633523257,-0.02295785401153093]",100.0,"[0.1682334723169917,0.029236215128232188]",4.0,"[0.013692348750815625,0.040579144683321945]",100.0,"[-0.025253265890914974,-0.1740707228258493]",100.0,"[-0.06684702243070603,-0.17663747075566846]",4.0,"[-0.1280709466631824,-0.07711128331163229]",4.0,"[0.09225147293983459,0.04715254515581089]",4.0,"[0.15649764658216353,0.1216070583900028]",4.0,"[0.009597036684766557,-0.018694763694143492]",100.0,"[-0.16887739387431808,-0.026627685787377477]",100.0,"[0.033213124257885716,-0.13709400384096557]",100.0,"[0.006314410878710245,0.1826105366155398]",4.0,"[0.03522186011492592,0.13505940917489326]",4.0,"[0.006011896324223389,0.08303596588803909]",100.0,"[0.08206257150699099,-0.16279367036962653]",4.0,"[0.027539575867747648,-0.05633195180102895]",4.0,"[-0.09853580995316014,0.1601327313905851]",100.0,"[-0.032993203910637994,0.06392412779575955]",100.0,"[-0.17582261741571803,-0.0933503783120701]",4.0,"[0.11329023562483946,-0.00662321903025423]",100.0,"[-0.039222187689189544,-0.06697174493374265]",100.0,"[0.06805757341839065,-0.08251038856652534]",4.0,"[0.02,0.02]",121.8476,0.0,3.0,3.0,100.0,1.0,,,,,,,
,,,,,,,678e394d5908a64d41ba0bd1,6844293f136f67aece87c25e,2025-06-07_14h00.04.330,shape_ratio,2024.1.5,Win32,60.60606061,684250e4f00cb30b92d1fa88,,,,,,,,,,,121.8498,122.3436,,,122.6011,123.0452,left,,,,,,,,0.4,0.4324,,,,,,,122.3444,122.6008,123.0452,"[-0.19731552475036318,-0.007706295533341645]",100.0,"[-0.047792029747938294,0.08228880235490474]",4.0,"[-0.06925207249266363,0.028837853984110973]",4.0,"[0.15475338913928566,0.00345058587998213]",4.0,"[0.11982267154202259,-0.04165412590859436]",100.0,"[-0.06219008094286151,-0.05070339112632761]",4.0,"[-0.1384455667428273,-0.10117604910417816]",4.0,"[0.024487968829227758,-0.14823613635852462]",4.0,"[0.06417187805024899,-0.1799545860804794]",100.0,"[0.17553579073971526,-0.04846013695172121]",100.0,"[0.029679361433981,0.09263822492115241]",4.0,"[0.03254089351478603,0.15150733994344567]",4.0,"[0.03221817816200843,0.0511903704277266]",4.0,"[0.08859137210715869,0.023557202116058013]",4.0,"[0.000342257768253535,-0.19592434958109672]",100.0,"[-0.07294689661063629,0.17818020145224792]",100.0,"[-0.08823075474902393,-0.13075159921502374]",100.0,"[0.0707815933084492,-0.042928129044168664]",100.0,"[-0.15028849184596596,0.052683515155649924]",4.0,"[-0.023754236047131002,0.002781185921135183]",4.0,"[0.12651625053823284,-0.09357705298538203]",100.0,"[-0.009434281519209069,0.10764864774426089]",100.0,"[-0.06752409345469035,-0.17888332374378246]",4.0,"[-0.1106631842161969,0.09846252319337521]",100.0,"[-0.11540521390135387,0.15818702297167994]",4.0,"[-0.007299201618676572,0.16521551126229558]",4.0,"[0.07387924007369295,0.06254812029562687]",4.0,"[0.12033037798906633,0.12450621075484164]",4.0,"[-0.07685943309460211,0.12337585430661836]",100.0,"[-0.05342120289256056,-0.10239657267024346]",100.0,"[0.06869083371890282,-0.10087125596708578]",4.0,"[0.0724772774718747,0.10531857464503157]",4.0,"[0.02,0.02]",124.1433,0.0,4.0,4.0,169.0,1.0,,,,,,,
,,,,,,,678e394d5908a64d41ba0bd1,6844293f136f67aece87c25e,2025-06-07_14h00.04.330,shape_ratio,2024.1.5,Win32,60.60606061,684250e4f00cb30b92d1fa88,,,,,,,,,,,124.1455,124.6402,,,124.8941,125.2581,right,,,,,,,,0.9,0.3358,,,,,,,124.6403,124.8941,125.2583,"[-0.022426894295124806,-0.057999277348894526]",100.0,"[0.05605350543403648,-0.01981490034407223]",4.0,"[0.07710368492673775,-0.06627854046694537]",100.0,"[0.03816410929641841,-0.18858930498493343]",100.0,"[-0.15972603332339527,-0.06346632026489879]",100.0,"[-0.07489298407363915,0.06285631039007865]",100.0,"[0.09858598443932987,0.04197503121000195]",100.0,"[-0.13986497952713503,0.05100272488487963]",100.0,"[-0.09201918957377397,0.13851197886349478]",100.0,"[-0.08426095436589238,-0.10438565745955082]",100.0,"[0.1119225488337948,-0.13971561529659043]",100.0,"[0.028277090135363718,-0.09371399612359198]",100.0,"[0.16814314029996547,0.0035103949611241412]",100.0,"[-0.17825097311660915,0.07520221641352563]",100.0,"[0.1306634927278955,-0.09779353681644275]",100.0,"[0.07177749235936928,-0.12502954739858288]",100.0,"[0.16222994214660252,-0.06901159788704671]",100.0,"[-0.1374632510586906,-0.11769681999976847]",100.0,"[-0.03243674096040989,0.05765090682914314]",100.0,"[-0.05585059177841511,-0.15124660670411988]",100.0,"[0.0012973937746210424,0.09738604439776433]",100.0,"[-0.032400339173740474,0.183933657718357]",100.0,"[-0.09577318950269822,-0.058301448147570996]",100.0,"[-0.1758181926039161,0.029489552391765365]",100.0,"[0.13223446353997304,0.11763377900613538]",100.0,"[-0.058734283813828427,0.022872409086121037]",4.0,"[-0.024956280043857873,-0.10710574630785749]",100.0,"[0.05362337910084283,0.1418629275322247]",100.0,"[-0.10861020464921754,0.09185154652366273]",100.0,"[0.18102902120260533,0.08251314360233639]",100.0,"[0.1400886613536451,0.05163738292142882]",4.0,"[-0.12473187794095125,0.004328318300833292]",100.0,"[0.02,0.02]",126.3565,0.0,5.0,5.0,9.0,1.0,,,,,,,
,,,,,,,678e394d5908a64d41ba0bd1,6844293f136f67aece87c25e,2025-06-07_14h00.04.330,shape_ratio,2024.1.5,Win32,60.60606061,684250e4f00cb30b92d1fa88,,,,,,,,,,,126.3585,126.8561,,,127.1085,127.791,left,,,,,,,,0.5,0.6692,,,,,,,126.8562,127.1084,127.7913,"[0.13948515875047074,0.05080855338186117]",100.0,"[-0.003353846781786024,-0.12538781317972209]",100.0,"[-0.08755607370679289,0.042132211460064996]",4.0,"[0.1172943468547704,-0.059300172113150106]",4.0,"[0.11837876608618597,-0.1516867643209793]",4.0,"[0.10379781194879495,0.10281592014125979]",4.0,"[-0.02959303983083187,0.011208772142730953]",4.0,"[0.050354479753742055,-0.1332356366924119]",100.0,"[-0.05018005768460922,-0.10752871554171115]",4.0,"[-0.10350361985873038,-0.16086202272204844]",100.0,"[-0.041767232239287494,0.1252388133060456]",4.0,"[0.02900906871227341,0.1559481750764337]",4.0,"[-0.1076311755900041,-0.06970445318753235]",100.0,"[0.01775866890931955,0.01773684258983882]",100.0,"[0.027090877081856434,-0.1699293448221317]",4.0,"[0.022857437065215622,0.07018251179962287]",100.0,"[-0.16211700322336245,-0.015098559130349227]",4.0,"[0.16426173975531028,-0.05883212978555223]",4.0,"[0.19267897862394603,0.023072674616345608]",100.0,"[-0.14920473833780418,0.13123739167242746]",4.0,"[-0.07299807685469364,0.18118130923429712]",100.0,"[0.039429217523116,-0.0382689885210313]",100.0,"[-0.03899556034256048,-0.04775176847056254]",4.0,"[0.09627157650684336,0.17492397278087649]",100.0,"[-0.046436097909884205,-0.17718780353991007]",100.0,"[0.14342238436690535,-0.001683950664439181]",4.0,"[-0.12329187062888307,0.003676340112430271]",100.0,"[-0.14814328892709114,-0.06836014516232375]",4.0,"[-0.12458502512902864,0.0605799672975837]",100.0,"[0.07783891600712917,0.01020456451194102]",4.0,"[0.08089742762085768,-0.03983845346609273]",100.0,"[0.07401510399743327,-0.08968804427058578]",100.0,"[0.02,0.02]",128.8877,0.0,6.0,6.0,116.0,1.0,,,,,,,
,,,,,,,678e394d5908a64d41ba0bd1,6844293f136f67aece87c25e,2025-06-07_14h00.04.330,shape_ratio,2024.1.5,Win32,60.60606061,684250e4f00cb30b92d1fa88,,,,,,,,,,,128.8906,129.3873,,,129.6387,130.6022,right,,,,,,,,0.1,0.9468,,,,,,,129.3875,129.6386,130.6025,"[0.01933535291027042,0.13053114896090176]",4.0,"[-0.05713708298176883,0.14496189378559388]",4.0,"[0.03685179719407004,-0.035696398652387724]",100.0,"[-0.1354413235431542,0.06739865885028615]",4.0,"[0.08904242638906926,0.02055456042792333]",4.0,"[-0.17329894592437486,-0.0672720785814807]",4.0,"[0.0831567820686872,-0.08937752870039571]",4.0,"[-0.09721604359964933,0.108305101290643]",4.0,"[-0.014051593941128298,-0.10778681952622807]",4.0,"[-0.07635499787615115,-0.16312807418213326]",4.0,"[0.17309516219410287,-0.05045306297450613]",4.0,"[0.03568615111827034,0.17977167364330424]",4.0,"[0.008675616378781356,0.04117472895518108]",4.0,"[0.033637282599972104,-0.18661942108212004]",4.0,"[0.10079159282892412,0.14736618410324334]",4.0,"[-0.005750921026358236,-0.16927926739707483]",4.0,"[0.03532181146651459,-0.0946058305270291]",4.0,"[-0.058624701321176004,0.042708253122354545]",4.0,"[0.04020029438308212,0.0710426335157387]",100.0,"[0.1360167797388153,0.08687609158911273]",4.0,"[0.1117249278333361,-0.16432521273313355]",4.0,"[0.1591306590744723,0.018352539377193073]",4.0,"[-0.15907673460428057,0.10588756211034074]",4.0,"[-0.1607984677449221,0.015894798920110698]",4.0,"[-0.08575392335588514,-0.043524004257011806]",4.0,"[-0.1126420372326824,0.026315741421122425]",100.0,"[-0.03305247574654157,0.0069292340370813044]",4.0,"[0.03729215820030461,0.009496332331908993]",4.0,"[-0.01055695014547161,0.18440215653936565]",4.0,"[0.1430308689385366,-0.10866659303510273]",4.0,"[0.10017702262514354,-0.043860990183230385]",4.0,"[-0.11845102693722077,-0.08369477948596746]",4.0,"[0.02,0.02]",131.7015,0.0,7.0,7.0,209.0,1.0,,,,,,,
,,,,,,,678e394d5908a64d41ba0bd1,6844293f136f67aece87c25e,2025-06-07_14h00.04.330,shape_ratio,2024.1.5,Win32,60.60606061,684250e4f00cb30b92d1fa88,,,,,,,,,,,131.7034,132.201,,,132.4501,133.0167,left,,,,,,,,0.6,0.5513,,,,,,,132.2012,132.45,133.0186,"[-0.015142925501613697,0.08149870608841941]",100.0,"[0.07988464474381336,0.1626664608204051]",100.0,"[0.13509759975264934,0.03793675626836544]",100.0,"[-0.11144490786358789,-0.10552249074540498]",100.0,"[0.10211156402487204,-0.0833675262727372]",4.0,"[0.05655850021927843,-0.18100923836894245]",100.0,"[-0.16417750174777643,0.10200167042234823]",4.0,"[-0.18049672112234497,0.017550150887915845]",4.0,"[0.1618388546344404,-0.013725712256996182]",4.0,"[0.0322888922486179,0.12668697518671865]",4.0,"[0.17318542891028582,0.06571107796184589]",4.0,"[-0.004611991784136765,-0.05863374829700335]",4.0,"[-0.0577322249371891,-0.060864515949610176]",4.0,"[-0.1179740928150094,0.10486148999003639]",100.0,"[-0.12581758101596904,-0.04830010215622967]",4.0,"[-0.042749023864989875,0.03694488196774364]",100.0,"[0.133955536137882,-0.12860487098387827]",4.0,"[-0.15178559636070482,-0.08246556302905778]",4.0,"[-0.07445462881350243,-0.019260474036595355]",4.0,"[0.19261670057172217,0.024447440542007093]",100.0,"[-0.02854033455117414,0.15852808091331996]",100.0,"[-0.1575893278306566,-0.02033399512170557]",100.0,"[0.07123465121155316,0.006641991089608203]",100.0,"[0.14434432117687,0.13057069600657656]",100.0,"[0.18200566952406208,-0.06415718060112584]",100.0,"[0.08719432940830295,0.08457868005306671]",100.0,"[0.03248171358885512,-0.010077490053250324]",4.0,"[-0.053637977033264096,0.19027523313625216]",100.0,"[0.0406067386820991,-0.08693465556084988]",100.0,"[-0.07435149255386428,0.08310461275791063]",100.0,"[0.06905377250187794,-0.12834717950298694]",100.0,"[-0.0515076869475145,-0.12714443598738845]",100.0,"[0.02,0.02]",134.1147,0.0,8.0,8.0,32.0,1.0,,,,,,,
,,,,,,,678e394d5908a64d41ba0bd1,6844293f136f67aece87c25e,2025-06-07_14h00.04.330,shape_ratio,2024.1.5,Win32,60.60606061,684250e4f00cb30b92d1fa88,,,,,,,,,,,134.1152,134.6136,,,134.8638,135.663,right,,,,,,,,0.45,0.7923,,,,,,,134.6137,134.8638,135.663,"[-0.05681982244945835,0.06309030050809275]",100.0,"[0.06413579506902022,0.11983435553016672]",4.0,"[-0.05729123122644016,-0.10881275397407664]",4.0,"[-0.12940563036892566,-0.09970487920792633]",100.0,"[-0.0029352038540396584,0.08490122605055893]",4.0,"[0.1467984375849175,-0.11470130862116669]",4.0,"[-0.05365771114664133,0.12012341625502589]",4.0,"[-0.02316471753518365,-0.17390269447033394]",4.0,"[-0.11106664127875808,0.13527575655724025]",100.0,"[-0.1828424574857551,-0.025643275815375816]",100.0,"[-0.16592728482375999,0.04732030033072374]",100.0,"[-0.07156431440632839,-0.044587786228732246]",100.0,"[-0.03782591859537943,-0.06739307480914565]",4.0,"[0.11785808653624855,-0.03657063167489904]",4.0,"[0.08004243915325016,0.17238479694474038]",100.0,"[0.08696943747002898,-0.08392602424916941]",4.0,"[0.16244198392946926,-0.07400014266411806]",4.0,"[0.08518322811098472,0.061913334124147894]",4.0,"[0.04455379935784016,-0.014648883775846055]",4.0,"[0.039478627264460255,-0.08034316731656158]",4.0,"[-0.0010041499805629455,0.040162690335373855]",4.0,"[-0.07317364342122719,-0.16780468832329137]",100.0,"[0.08549634376135994,-0.14541850801088596]",100.0,"[0.02894159548948344,0.14526832820832136]",100.0,"[0.13184174682398483,0.11011290627588172]",100.0,"[0.037518343704866904,0.05975881113527226]",4.0,"[-0.0073096174611527445,0.000010668943485187768]",4.0,"[-0.010926417468072777,-0.10681606485801948]",4.0,"[0.06520223217266541,0.01972194976848952]",100.0,"[-0.10438348975314998,0.07599164875573852]",4.0,"[-0.0630436420073693,0.171957017248751]",100.0,"[-0.08962767492167222,0.02526945634831386]",100.0,"[0.02,0.02]",136.7616,0.0,9.0,9.0,140.0,1.0,,,,,,,
,,,,,,,678e394d5908a64d41ba0bd1,6844293f136f67aece87c25e,2025-06-07_14h00.04.330,shape_ratio,2024.1.5,Win32,60.60606061,684250e4f00cb30b92d1fa88,,,,,,,,,,,136.762,137.2611,,,137.5113,138.1437,left,,,,,,,,0.9,0.6257,,,,,,,137.2612,137.5113,138.1438,"[0.10133411411281727,-0.015305852240609843]",100.0,"[0.15356881463315897,-0.08063973197902577]",100.0,"[-0.10509606017970081,-0.06625077952026977]",100.0,"[-0.11899778933320336,-0.0004635993594305441]",100.0,"[-0.1315890581094025,0.08246510646806697]",100.0,"[0.04554375373961931,-0.15890861051388144]",4.0,"[0.08516026237519846,0.04968150203850009]",100.0,"[0.15773074952518648,0.01966292438509345]",100.0,"[-0.037010454233822335,0.16642425511105602]",100.0,"[0.05929872281833044,-0.07087366300707344]",100.0,"[0.11229114322932483,0.13568557646187834]",100.0,"[0.01651714573450257,-0.19809062306606837]",100.0,"[0.0869866683434389,-0.16240017661629458]",100.0,"[0.05626877994500734,0.009240716201954482]",100.0,"[0.03587479264935947,-0.03293713070895095]",100.0,"[-0.04590279775370402,-0.01065369566334007]",100.0,"[-0.007925338523922408,0.019828162712932484]",100.0,"[0.17844634212973673,-0.028531092847524652]",100.0,"[-0.075258881673052,-0.11083077969023819]",4.0,"[-0.005263341135288613,-0.038592411412367314]",100.0,"[-0.04809397774107531,0.06254385837036797]",100.0,"[0.010070120014487573,0.10714943613293537]",4.0,"[-0.08370767187520214,-0.15691765031174784]",100.0,"[-0.06301349662711477,0.11190074425436401]",100.0,"[-0.020093543327856386,-0.1237329152237062]",100.0,"[0.1459795461877127,0.10935702086066579]",100.0,"[-0.18689184787757213,0.01443174641109894]",100.0,"[-0.14668840648194828,-0.13540376821933447]",100.0,"[0.04114439564419675,-0.1155410731240636]",100.0,"[-0.15434142489908237,0.04458339331117368]",100.0,"[0.06209149401215999,0.1162984973949301]",100.0,"[0.020059383689002123,0.1650210902674655]",100.0,"[0.02,0.02]",139.2424,0.0,10.0,10.0,25.0,1.0,,,,,,,
,,,,,,,678e394d5908a64d41ba0bd1,6844293f136f67aece87c25e,2025-06-07_14h00.04.330,shape_ratio,2024.1.5,Win32,60.60606061,684250e4f00cb30b92d1fa88,,,,,,,,,,,139.2429,139.742,,,139.9921,140.5913,left,,,,,,,,0.9,0.5816,,,,,,,139.742,139.992,140.5913,"[-0.030438512742302852,0.18252671759896805]",100.0,"[0.048984576620636155,0.058113693523836434]",100.0,"[0.035398009765132264,0.14363915515612133]",100.0,"[0.17782354091888358,-0.019109300286313805]",100.0,"[0.10979434949985195,-0.15536497390742132]",100.0,"[0.09191595864862076,-0.053513096154813526]",100.0,"[-0.094630739264134,0.06681726018107888]",100.0,"[-0.04691929659178221,-0.03159076565646432]",4.0,"[-0.07519303362345119,0.03102669247964778]",100.0,"[-0.005098936291584728,0.08734730611030248]",100.0,"[-0.07828249632314384,0.12954975943231348]",100.0,"[0.059521734920248225,-0.11400492460644258]",4.0,"[0.0867286393249663,0.16015463792037007]",100.0,"[0.13435793419835346,-0.06270117097717808]",100.0,"[-0.009922103152675952,-0.19297281568273347]",100.0,"[-0.05720857894282968,-0.1692811054756038]",100.0,"[-0.10815948805710182,-0.16248438225607703]",100.0,"[-0.143157078443397,-0.1062885069553606]",4.0,"[-0.18118804658497692,0.0242626674020029]",100.0,"[0.002986992222815495,-0.14278861815682722]",100.0,"[0.10621647452542314,0.08827913422408017]",100.0,"[0.14053490149245004,-0.10755729614451318]",100.0,"[-0.10702268695441003,-0.08095434912061403]",100.0,"[-0.1620137360880954,0.0795892050043313]",100.0,"[-0.000877381206563307,-0.006595736065597126]",100.0,"[0.15137298694846565,0.0356343333859626]",100.0,"[0.17935384612266597,0.08837031016007545]",100.0,"[0.0769162308391618,0.02071593569812326]",100.0,"[-0.169822603505308,-0.02968336166001056]",100.0,"[-0.11632448749518287,0.10406499351847684]",100.0,"[-0.04624824295757904,0.06304925484218506]",100.0,"[0.007708053195194452,-0.07666803204345614]",100.0,"[0.02,0.02]",141.69,0.0,11.0,11.0,20.0,1.0,,,,,,,
,,,,,,,678e394d5908a64d41ba0bd1,6844293f136f67aece87c25e,2025-06-07_14h00.04.330,shape_ratio,2024.1.5,Win32,60.60606061,684250e4f00cb30b92d1fa88,,,,,,,,,,,141.6904,142.1896,,,142.4397,143.1223,right,,,,,,,,0.6,0.6653,,,,,,,142.1896,142.4396,143.1224,"[0.0691865558437279,-0.09543191712103442]",4.0,"[-0.13205202328631419,0.03154406348188038]",100.0,"[-0.1304695378854472,-0.08561957014242697]",100.0,"[-0.18250071614503935,-0.0005742273464926591]",100.0,"[0.06441357108541076,0.08527292854044914]",100.0,"[0.09690315939907203,-0.1383013781415761]",100.0,"[0.09467695303416568,-0.024810151453476835]",4.0,"[0.0569167713187868,0.1690235906487886]",100.0,"[-0.11009268024593816,-0.15245509633761034]",100.0,"[-0.11017542669565289,-0.02334229423826671]",100.0,"[-0.02963699176316684,-0.09992343822078598]",100.0,"[-0.07504496273295547,0.17828486747736938]",100.0,"[-0.051453401452959686,0.068537106027142]",100.0,"[0.016543425058081877,-0.17943680026269]",4.0,"[0.056965578770961,-0.004156761024357957]",100.0,"[-0.17254013128879633,-0.06421774183400218]",100.0,"[0.0965858938016104,0.13893928654454774]",100.0,"[-0.07957277621196997,0.027733638508982333]",4.0,"[-0.007245808980070145,0.1777680440375668]",4.0,"[-0.04161795025989336,-0.04968364600473871]",4.0,"[0.005668438481181478,0.10624555937101492]",4.0,"[0.19218988290213823,-0.013594316372975907]",4.0,"[-0.08427424783599581,-0.0856685227745736]",4.0,"[-0.06543344352813042,-0.014023960129738909]",100.0,"[-0.012653939287572653,-0.018195345324915266]",100.0,"[0.14224269487527397,0.11229662267064386]",4.0,"[-0.028969814582254963,-0.1649430503320983]",100.0,"[0.14917965854854995,-0.08843335397721269]",100.0,"[-0.027795107190219877,0.03072837288166156]",4.0,"[0.11115995392490478,0.03064992233748874]",100.0,"[-0.11771747218016695,0.13909546935435033]",4.0,"[0.14194954648661154,-0.030073012053833986]",4.0,"[0.02,0.02]",144.221,0.0,12.0,12.0,45.0,1.0,,,,,,,
,,,,,,,678e394d5908a64d41ba0bd1,6844293f136f67aece87c25e,2025-06-07_14h00.04.330,shape_ratio,2024.1.5,Win32,60.60606061,684250e4f00cb30b92d1fa88,,,,,,,,,,,144.2216,144.7204,,,144.9705,146.0196,right,,,,,,,,0.4,1.0325,,,,,,,144.7204,144.9705,146.0196,"[-0.03697139221083831,-0.03122554437514262]",4.0,"[0.17426746962314063,0.005888091681731163]",4.0,"[-0.14067309701081965,0.013307930596127587]",100.0,"[-0.12045953048508554,-0.10352666931610696]",100.0,"[-0.007254985792484064,-0.1132084720069259]",4.0,"[0.07587332469803156,-0.1726802851406669]",4.0,"[-0.09643944171447735,0.0327061264383223]",4.0,"[-0.1503147851828792,0.09435379452850531]",4.0,"[0.03877739719784491,0.11561456738990644]",4.0,"[-0.057146436791138754,0.137458201060774]",100.0,"[0.04381685437027314,-0.11928206272782972]",100.0,"[-0.1314097960485512,-0.06406700178343573]",100.0,"[0.16767100307111124,0.081452771191113]",100.0,"[-0.0353835245924047,0.06615942672473754]",100.0,"[-0.005615288209281044,0.03892518042604072]",100.0,"[0.13804979782282062,0.05242642942283577]",4.0,"[-0.07280691840881111,-0.010744270695435485]",4.0,"[0.13236982581795403,-0.14121055961315507]",4.0,"[0.03264428684692334,0.05503132357301615]",100.0,"[0.1627068872390242,-0.06732586056046792]",100.0,"[0.005228133866365039,-0.04845860882776744]",4.0,"[0.1290874447968235,0.12777148560941046]",4.0,"[0.08176518429623988,0.12723851684134835]",4.0,"[0.0232720747646099,0.1838562242136457]",4.0,"[-0.01610582011331641,0.1427472338039225]",4.0,"[-0.08637485604128108,0.10351174788657568]",4.0,"[0.04875535943442615,-0.06184444674033518]",4.0,"[0.0913954498805841,0.0229279950302257]",4.0,"[0.1331731150349754,0.004352636668934936]",4.0,"[-0.04826845744551676,0.1783860414465486]",100.0,"[0.07809879859157277,-0.022219903765529743]",100.0,"[-0.07158023677492475,-0.08473131572173873]",100.0,"[0.02,0.02]",147.1181,0.0,13.0,13.0,150.0,1.0,,,,,,,
,,,,,,,678e394d5908a64d41ba0bd1,6844293f136f67aece87c25e,2025-06-07_14h00.04.330,shape_ratio,2024.1.5,Win32,60.60606061,684250e4f00cb30b92d1fa88,,,,,,,,,,,147.1186,147.6175,,,147.8677,148.467,left,,,,,,,,0.4,0.5867,,,,,,,147.6175,147.8677,148.467,"[-0.12007681645504911,0.10817301758284996]",100.0,"[0.04654610806021789,-0.0553280867448558]",100.0,"[-0.03833142582937652,-0.1674315635634681]",4.0,"[0.04659137246903267,0.18037050292485324]",100.0,"[0.0733653717387471,-0.15201955822643792]",4.0,"[-0.09390485977670039,0.03021810004169377]",100.0,"[0.17208652576218703,-0.07557475455104674]",100.0,"[0.11778608226181808,-0.15570593661480941]",100.0,"[0.035398743468489424,-0.11752809483670092]",4.0,"[0.09748001548188398,0.14951130391021042]",100.0,"[0.17065209900123524,0.08330901918398995]",4.0,"[-0.06627194340555682,0.1785653772463378]",4.0,"[0.1309647240841226,0.09402214289767404]",4.0,"[-0.08384989904653038,-0.015502539131865951]",100.0,"[-0.007210801102767329,0.19300688702321858]",4.0,"[0.1257358270566238,0.013276595280439693]",100.0,"[0.0016624095124558246,-0.08911772895041878]",4.0,"[-0.010445361266918505,0.14469884047519138]",4.0,"[-0.026538894350115697,-0.057288844594850695]",4.0,"[0.08755897760588661,-0.06075254024192349]",100.0,"[-0.09946853842402337,0.1467688511891124]",100.0,"[-0.17002530856221357,0.038101865805533396]",4.0,"[-0.1508754008721448,-0.09703771472208908]",4.0,"[0.07639156246000528,0.06209254822476729]",100.0,"[0.181493533288902,-0.03462696428015853]",4.0,"[-0.12608620349175995,-0.15463522730720863]",4.0,"[-0.15456915930825707,-0.028622957672648355]",100.0,"[-0.03671299367473901,0.09152070533281678]",4.0,"[-0.13702781583737964,0.06296938201344562]",4.0,"[-0.008670798636773887,0.014930011480282095]",4.0,"[-0.10183765116800203,-0.05196119869538966]",4.0,"[0.008578941248187939,0.06076267101457878]",4.0,"[0.02,0.02]",149.5657,0.0,14.0,14.0,176.0,1.0,,,,,,,
,,,,,,,678e394d5908a64d41ba0bd1,6844293f136f67aece87c25e,2025-06-07_14h00.04.330,shape_ratio,2024.1.5,Win32,60.60606061,684250e4f00cb30b92d1fa88,,,,,,,,,,,149.5661,150.0652,,,150.3154,150.9313,left,,,,,,,,0.9,0.6062,,,,,,,150.0652,150.3153,150.9315,"[0.08604171489295666,-0.16930281217778875]",100.0,"[0.15035548079034355,-0.024206757823891045]",100.0,"[0.07743352662618563,-0.07357953132844323]",4.0,"[-0.15705746099616946,0.12193834341893647]",100.0,"[0.07623610717187256,0.054957074030443614]",100.0,"[0.08832792300478565,-0.022419813852339817]",100.0,"[-0.11247418770772805,0.13199309069757792]",100.0,"[-0.000329047265648987,-0.1258225323682165]",100.0,"[-0.08301928741430951,-0.10172965580919124]",100.0,"[0.15095827967544118,0.07938159084715626]",100.0,"[-0.006436666420186204,0.04615443487003857]",100.0,"[-0.01868227869920028,0.0074678120899717175]",100.0,"[-0.18492717756877988,-0.07413141626014191]",100.0,"[0.0378173541132639,0.17630199934900362]",4.0,"[0.035938230625408005,-0.1496891963839022]",4.0,"[-0.17347221407913768,-0.013766532899574658]",100.0,"[0.12094637289343811,-0.1215690838970594]",100.0,"[-0.043038259048182315,0.07151573874174959]",100.0,"[-0.05438718051039981,0.12523923387836292]",100.0,"[0.04202418196431625,-0.1904454633826444]",100.0,"[-0.14125094522816167,-0.06477857035167892]",100.0,"[-0.13201893190041616,0.053730538605317936]",100.0,"[-0.048229059987738944,0.17551861264154975]",100.0,"[-0.04176765463853717,-0.05628807414137957]",100.0,"[-0.11485327130378985,-0.013362551971131342]",100.0,"[-0.0028656409095779807,0.11878641313319324]",100.0,"[-0.126767619379131,-0.1510802953810823]",100.0,"[-0.18644598828780598,0.051247301607727266]",100.0,"[-0.050623455303989894,-0.16885691507808112]",100.0,"[0.08802726975953723,0.13598987218774503]",100.0,"[0.025761720919686978,-0.01258278254715929]",100.0,"[0.11952712493203475,-0.06348537316406676]",100.0,"[0.02,0.02]",152.03,0.0,15.0,15.0,21.0,1.0,,,,,,,
,,,,,,,678e394d5908a64d41ba0bd1,6844293f136f67aece87c25e,2025-06-07_14h00.04.330,shape_ratio,2024.1.5,Win32,60.60606061,684250e4f00cb30b92d1fa88,,,,,,,,,,,152.0303,152.5295,,,152.7795,153.3789,right,,,,,,,,0.5,0.59,,,,,,,152.5295,152.7795,153.379,"[-0.05665944203186665,0.1865422787273169]",100.0,"[0.18397680632562854,0.0413817950279147]",100.0,"[0.1107454152053262,0.11648795081992598]",4.0,"[-0.018093425719430414,-0.022442312258437378]",100.0,"[-0.033182920681408976,-0.18093517946152243]",100.0,"[-0.07294716806538258,-0.07159634785578424]",100.0,"[0.012063967924797206,-0.10516463846378778]",100.0,"[-0.1034331151374841,0.1357014159508719]",100.0,"[-0.059911671301386506,-0.030287255293703078]",100.0,"[0.05766735257322298,0.1877899839189707]",4.0,"[0.00579352551343618,0.09564276640968977]",4.0,"[-0.042670170125038535,0.09281546389239272]",4.0,"[-0.11731438396043384,-0.011188636159575141]",4.0,"[-0.15935471141717988,-0.05619137654613811]",100.0,"[-0.02753812986233524,0.13082511900547042]",100.0,"[0.1343639477384139,-0.017854169464618375]",4.0,"[0.1760760301662091,0.08449992947441268]",4.0,"[0.06520693630742486,-0.03421735979976799]",4.0,"[-0.1733887921753859,0.0779978186596631]",4.0,"[-0.14803730781370825,-0.10362564548382909]",4.0,"[-0.06476919215349597,-0.11766518140075376]",4.0,"[0.12402259206271465,-0.11101402628715075]",4.0,"[0.13256574271266278,0.06881225994018568]",100.0,"[-0.03451885493059616,0.0533361748831115]",100.0,"[-0.062076353291641816,0.01913957254319788]",4.0,"[0.07751347378266356,0.03055545742981163]",4.0,"[0.006450890690647956,-0.16422164909416595]",100.0,"[0.02187033726897141,0.05406192147477711]",100.0,"[-0.10239466175821683,-0.16505911728794312]",100.0,"[0.16061688584239453,-0.054464283173775704]",100.0,"[0.0675568086944313,-0.16240906125828267]",4.0,"[-0.17890335672728572,0.031557054213238574]",4.0,"[0.02,0.02]",154.4777,0.0,16.0,16.0,91.0,1.0,,,,,,,
,,,,,,,678e394d5908a64d41ba0bd1,6844293f136f67aece87c25e,2025-06-07_14h00.04.330,shape_ratio,2024.1.5,Win32,60.60606061,684250e4f00cb30b92d1fa88,,,,,,,,,,,154.478,154.9771,,,155.2271,155.843,left,,,,,,,,0.5,0.606,,,,,,,154.9771,155.2271,155.8431,"[0.04646544935008224,0.13460417973020603]",100.0,"[-0.08251839715002411,-0.04910807375879745]",4.0,"[0.08406009417086098,0.06096286600846553]",100.0,"[-0.1332871888914635,-0.12709182321615586]",4.0,"[-0.053407058248714966,0.11115455518183917]",100.0,"[-0.07271379587091621,0.010080858933051051]",100.0,"[-0.1751370983139826,0.0328855878715253]",4.0,"[-0.07432412827574873,0.1500804572602778]",100.0,"[0.02585896791704634,0.010096793157541856]",4.0,"[0.07850766917157424,-0.058191006869622565]",4.0,"[-0.0028293434207699373,0.18306721272570223]",100.0,"[0.010337752948686245,0.07337184568373806]",4.0,"[0.06282860088841544,-0.15559805931864304]",4.0,"[-0.010879216725419829,-0.13107456762682684]",4.0,"[0.15241502468562454,-0.09891403525780393]",4.0,"[-0.12785497872263965,-0.07628641253218985]",4.0,"[-0.1128850688149148,0.09174392150310456]",100.0,"[0.13079861039277269,-0.02489632556683171]",100.0,"[-0.14488380438078835,-0.026221478173396158]",100.0,"[0.1840639455082754,-0.06893387580784056]",100.0,"[-0.08877066627567153,0.04913290755430072]",100.0,"[0.116958870219819,0.08698016216075924]",4.0,"[-0.034229218421787194,0.052555393292394864]",4.0,"[0.07674468820115705,0.16150040776289035]",4.0,"[0.07871475526895104,-0.11325991343071169]",4.0,"[-0.16589666479607862,0.08495279718830423]",100.0,"[-0.0633428417971816,-0.11726699387614074]",100.0,"[-0.03553344661899783,-0.04740813348641228]",100.0,"[0.15976422123602266,0.06137670389941711]",4.0,"[-0.1347156112048353,0.1352443061531925]",100.0,"[0.019520006540231317,-0.03747989248213164]",4.0,"[-0.19110898616525854,-0.057126601962737854]",100.0,"[0.02,0.02]",156.9419,0.0,17.0,17.0,104.0,1.0,,,,,,,
,,,,,,,678e394d5908a64d41ba0bd1,6844293f136f67aece87c25e,2025-06-07_14h00.04.330,shape_ratio,2024.1.5,Win32,60.60606061,684250e4f00cb30b92d1fa88,,,,,,,,,,,156.9422,157.4413,,,157.6913,158.4072,right,,,,,,,,0.5,0.7009,,,,,,,157.4413,157.6913,158.4073,"[0.11171195244563015,-0.07321137860645013]",4.0,"[0.07185616142464418,-0.17861102950569127]",100.0,"[-0.027676756608112085,-0.16639318479381066]",100.0,"[-0.07471163128465078,0.018208638596922268]",4.0,"[-0.1492563057818785,-0.02499847016938185]",100.0,"[-0.1951627986727193,-0.011182964844816476]",100.0,"[-0.05389541607773455,-0.057657818296982875]",4.0,"[-0.033027757031531615,0.01709213631327451]",4.0,"[0.07915916248072072,0.14236057462789875]",4.0,"[-0.11396976552251398,0.10742417991356214]",4.0,"[-0.049609997887105135,0.05895772708125473]",100.0,"[0.17604669488955837,0.033903052440649784]",4.0,"[0.026292740032003506,-0.12789733940579456]",100.0,"[-0.14424182573427932,0.061102524329060104]",4.0,"[0.11944979236635896,0.0045692560400629354]",100.0,"[0.17717047841137526,0.09260327919521265]",100.0,"[0.17490452756793956,-0.03309612906793027]",4.0,"[-0.12473318242580526,0.1561272455824124]",4.0,"[0.06895341649680091,0.1817346469096175]",4.0,"[-0.19217805020460366,0.03716561289132168]",100.0,"[-0.1156722831852439,-0.11944257402268445]",4.0,"[0.14964259272633673,-0.10777934633441252]",4.0,"[0.07899688815198447,0.060961187515127004]",100.0,"[-0.04926763502356674,0.13925108786822812]",100.0,"[0.03326984116170885,-0.042449988263809045]",4.0,"[0.05027141691369925,-0.003630385288323817]",4.0,"[-0.0903284865258377,-0.1691881702284364]",4.0,"[0.033225214613300136,0.10915488426579817]",100.0,"[0.11867589898151364,0.1581165094809912]",100.0,"[0.08363295465330678,-0.04143727419377027]",100.0,"[0.00028516590191506725,0.17938920929267516]",100.0,"[-0.014005868556793121,-0.09449389355283695]",100.0,"[0.02,0.02]",159.506,0.0,18.0,18.0,107.0,1.0,,,,,,,
,,,,,,,678e394d5908a64d41ba0bd1,6844293f136f67aece87c25e,2025-06-07_14h00.04.330,shape_ratio,2024.1.5,Win32,60.60606061,684250e4f00cb30b92d1fa88,,,,,,,,,,,159.5063,160.0055,,,160.2555,160.755,left,,,,,,,,0.9,0.4833,,,,,,,160.0055,160.2554,160.7551,"[-0.07488549437891841,0.13552008048906686]",100.0,"[-0.1689594590619422,-0.09883926372541992]",100.0,"[-0.03740352208122635,0.170067415190613]",100.0,"[0.0012474366467264762,-0.07652401166513395]",100.0,"[0.07952587169032425,-0.1393837796282049]",100.0,"[0.007187300499703022,0.0892374546759079]",100.0,"[0.08903792968847443,-0.09265813430029755]",100.0,"[-0.18379492530161232,0.009468497328524686]",100.0,"[-0.08292063923206743,0.08535855762165345]",100.0,"[0.07665960898324733,0.14653510292816485]",100.0,"[0.0402170516497189,0.03114789568208534]",4.0,"[0.10851016527241343,0.07862183582164102]",100.0,"[0.16163804637915394,0.02361873470127827]",100.0,"[-0.033220165464173015,-0.018912599250879947]",100.0,"[-0.035519004308107144,-0.10917152506248556]",4.0,"[0.10455004781796585,-0.01308744240080539]",100.0,"[-0.11085716995798978,-0.11639011038853339]",100.0,"[0.18013190103258575,0.07484746895980181]",4.0,"[-0.10600224606944854,0.16395958753427942]",100.0,"[-0.14711358073179934,-0.06156057435669839]",100.0,"[-0.09276882562441252,-0.061693845230397566]",100.0,"[0.022970484135434097,-0.18694384543507356]",100.0,"[0.10985541091389249,0.1201827542762099]",100.0,"[0.0683410966977733,0.07270259587715815]",100.0,"[0.1348982992913052,-0.1105855820332628]",100.0,"[0.02922670385168685,0.17519054025576047]",100.0,"[-0.13646691881577852,0.13214700631431336]",100.0,"[0.17084207331288603,-0.04401126876455697]",100.0,"[-0.01271131323275896,0.03315403117092973]",100.0,"[-0.14053698130666628,0.00012333696270883131]",100.0,"[-0.06966014988868571,0.02207779241605006]",100.0,"[0.19772655747794493,0.0030385071273994107]",100.0,"[0.02,0.02]",161.8537,0.0,19.0,19.0,19.0,1.0,,,,,,,
,,,,,,,678e394d5908a64d41ba0bd1,6844293f136f67aece87c25e,2025-06-07_14h00.04.330,shape_ratio,2024.1.5,Win32,60.60606061,684250e4f00cb30b92d1fa88,,,,,,,,,,,161.854,162.3532,,,162.6033,163.2026,left,,,,,,,,0.6,0.59,,,,,,,162.3533,162.6032,163.2028,"[-0.16934664087026163,-0.0018204359319714068]",4.0,"[-0.07857759347589488,0.15972186637212119]",100.0,"[0.00007392185063611013,0.19566071597339632]",4.0,"[-0.1549221989886084,-0.11124989029699481]",100.0,"[-0.04488401628318574,-0.11992869377778727]",4.0,"[0.01608618691478973,0.15778245446664646]",100.0,"[0.05058120710626481,-0.13957521791215788]",4.0,"[0.0910028601348428,-0.09999660148343467]",4.0,"[0.14917151966765613,-0.122857108994109]",4.0,"[0.003365203743621637,-0.1889821956671488]",100.0,"[0.09618606036056329,0.15389968179570676]",100.0,"[0.02422979755254818,0.061861001093940486]",100.0,"[0.001088062772994434,0.10031310527577719]",100.0,"[0.14050272667794736,0.14153002822175728]",100.0,"[0.007626223858890417,-0.10846015333905179]",100.0,"[0.16787062669792274,0.08445324304762078]",100.0,"[-0.10206031033561953,-0.024652141722485903]",4.0,"[0.05412037722050715,0.13724889407199808]",100.0,"[-0.10385722842118539,0.036219122980178285]",4.0,"[0.15906593333195276,0.03612708577777105]",100.0,"[-0.043259134526899924,-0.035206404761733236]",100.0,"[-0.09420273707469334,-0.11779788508296148]",100.0,"[0.07639677087238714,-0.18125579017640814]",100.0,"[0.06308763132072694,-0.015744065796713714]",4.0,"[-0.11960506599573445,0.10375101153021292]",100.0,"[-0.18997861488281667,0.054936246516227576]",4.0,"[0.0013832354913342472,0.02490218050654219]",4.0,"[-0.02192693348823801,0.14306073444962367]",100.0,"[0.10681562280758633,-0.019395014587801043]",4.0,"[0.024130891207492736,-0.030539622122111268]",100.0,"[0.12158891693206884,0.06137820190879239]",4.0,"[0.1132557162885951,0.022000943262930554]",100.0,"[0.02,0.02]",164.3013,0.0,20.0,20.0,59.0,1.0,,,,,,,
,,,,,,,678e394d5908a64d41ba0bd1,6844293f136f67aece87c25e,2025-06-07_14h00.04.330,shape_ratio,2024.1.5,Win32,60.60606061,684250e4f00cb30b92d1fa88,,,,,,,,,,,164.3017,164.8008,,,165.0508,165.6337,left,,,,,,,,0.6,0.5777,,,,,,,164.8008,165.0508,165.6337,"[-0.0920329913529611,0.16579541403037568]",100.0,"[0.08284641833784236,-0.06021375331950394]",100.0,"[-0.16933877477410098,0.10626354884417726]",100.0,"[0.011759071189931117,-0.058776082389268174]",100.0,"[-0.005766749605618575,0.052819197067788856]",4.0,"[-0.055603377908098404,0.09173691545142962]",100.0,"[0.19866276041074546,-0.009706589653862863]",4.0,"[0.03310748145844888,-0.1658862914650838]",4.0,"[-0.18393223562296596,-0.013893571994559336]",100.0,"[0.1214416997848508,-0.0325630772533508]",4.0,"[0.052088272609218014,-0.0028142176385850177]",4.0,"[-0.1011273569559388,0.024774040565220652]",100.0,"[-0.035850438260183554,-0.11757269567351997]",4.0,"[-0.0780292133812367,-0.09597050518430857]",100.0,"[-0.1380450547211849,-0.10520006497425526]",100.0,"[-0.03784389007249172,-0.0036458624661873267]",4.0,"[0.12892763553145054,0.15045710047403296]",4.0,"[0.14351417654917709,-0.10158812695108398]",100.0,"[-0.18363282471586695,0.06749416120966065]",4.0,"[-0.11846803713974505,0.1298421691184993]",100.0,"[0.126058668055313,0.07275509809449186]",4.0,"[0.012280197851674434,0.11802547578761952]",4.0,"[-0.05033695910067282,0.1416866931755]",100.0,"[-0.09151395030407146,-0.04300704646409755]",100.0,"[0.16927905916815061,0.06900207090196889]",100.0,"[-0.09933807008431766,-0.1649045713336305]",4.0,"[0.09388662926366632,0.006577388512863855]",100.0,"[0.04612888131174984,0.04206843769740239]",100.0,"[0.004367151613376827,-0.1300053580992092]",100.0,"[-0.030102935634688653,-0.1841735716000299]",100.0,"[0.10330338653251547,-0.1561687930538575]",4.0,"[0.07723043296565091,0.16307422213561443]",100.0,"[0.02,0.02]",166.7322,0.0,21.0,21.0,33.0,1.0,,,,,,,
,,,,,,,678e394d5908a64d41ba0bd1,6844293f136f67aece87c25e,2025-06-07_14h00.04.330,shape_ratio,2024.1.5,Win32,60.60606061,684250e4f00cb30b92d1fa88,,,,,,,,,,,166.7326,167.2318,,,167.4818,168.2143,left,,,,,,,,0.45,0.7245,,,,,,,167.2318,167.4818,168.2143,"[-0.0010323687720575605,0.1338878400225886]",100.0,"[-0.11179991960970644,-0.1505306708477926]",4.0,"[-0.14675092962863864,-0.02698554914178392]",4.0,"[0.11650393799752116,-0.16228250669712052]",4.0,"[0.08690860842442488,0.0707047867970435]",100.0,"[0.15487652443242175,0.058809952646702454]",100.0,"[0.012452505058710988,-0.15375645136165642]",4.0,"[0.05190907798601867,-0.16329392799634448]",4.0,"[-0.018334939047940816,0.020167788398954323]",4.0,"[0.13394542135983353,-0.01607935387240723]",4.0,"[0.06880616370925781,-0.006934412118491956]",4.0,"[-0.045938969988808094,-0.07434178454384623]",100.0,"[-0.06778816429608586,0.1338811157638093]",4.0,"[0.06574759249082475,0.13878854595888232]",100.0,"[0.05204862062228758,-0.0988735441620719]",4.0,"[0.11804309729688325,-0.09446689439917139]",4.0,"[-0.05936261767795714,0.04156146481675464]",4.0,"[-0.17028435001484518,-0.08430549271711561]",100.0,"[0.013541586772227181,0.18438776489049563]",100.0,"[-0.11136339691646878,0.1552587366915665]",4.0,"[0.14470251418837232,-0.061027392659795066]",4.0,"[-0.057339330645435886,-0.15297340663328082]",100.0,"[-0.09560015717235704,0.0007335743876441197]",4.0,"[0.04872679828354671,0.03220604507362018]",100.0,"[-0.13166033418880976,0.11730087576125708]",100.0,"[-0.1078491750193411,-0.07916525971181781]",4.0,"[-0.04808923006939851,0.18224546646535694]",100.0,"[-0.1673766081735349,0.09173325218247241]",4.0,"[0.14128629022141945,0.13746016744561684]",100.0,"[0.007653959532024547,-0.07383386628907522]",4.0,"[0.02678893793434223,-0.002915677832427351]",100.0,"[0.18728511742155118,-0.0011250592915752577]",100.0,"[0.02,0.02]",169.3131,0.0,22.0,22.0,141.0,1.0,,,,,,,
,,,,,,,678e394d5908a64d41ba0bd1,6844293f136f67aece87c25e,2025-06-07_14h00.04.330,shape_ratio,2024.1.5,Win32,60.60606061,684250e4f00cb30b92d1fa88,,,,,,,,,,,169.3136,169.8135,,,170.0636,170.9953,left,,,,,,,,0.55,0.914,,,,,,,169.8136,170.0635,170.9954,"[-0.16774785532191322,-0.03317800376518668]",100.0,"[-0.06416933069171264,-0.06248940005275816]",100.0,"[0.06373578391178701,-0.015227192024691204]",100.0,"[0.0389160541595496,-0.18645687993899926]",4.0,"[0.12210095985390015,0.008049235251606439]",4.0,"[-0.09779137087259579,-0.0042258172708054455]",100.0,"[0.0196540183214846,0.1828648509314533]",100.0,"[0.07781857571258165,-0.16954977449650216]",4.0,"[0.02356520803260748,0.13494866037288733]",4.0,"[0.11814909536202538,0.08506623231151625]",4.0,"[0.17864551692313885,0.022959643092046365]",100.0,"[-0.08715249147731503,0.13731711095959537]",100.0,"[0.03277246882549847,0.04741150660677596]",100.0,"[-0.023032697851175635,0.12500036880510512]",100.0,"[-0.04484906492787696,0.03353113149163821]",4.0,"[-0.026365890374669135,0.16774461749486802]",4.0,"[-0.1747188635663672,0.08169638433179564]",4.0,"[-0.0821092193045704,0.07935857490110902]",100.0,"[0.006798459294031412,-0.040744159906474946]",4.0,"[-0.09419659475839105,-0.13740713306888586]",100.0,"[-0.1425846464566007,-0.13656636109464376]",100.0,"[0.019667439531875074,0.0018147653665483204]",100.0,"[0.111734212609371,-0.038250416034165784]",4.0,"[-0.16260534765491677,-0.08188952443330784]",4.0,"[0.02883952737589009,-0.12606472876675795]",100.0,"[0.1411466537477234,-0.12985506980334405]",100.0,"[0.174839147572059,0.07359249292877806]",4.0,"[-0.04886479176805154,-0.18038361026753902]",100.0,"[-0.04207825928214875,-0.02691676599105459]",4.0,"[0.0326825105453119,-0.077030205943418]",100.0,"[-0.10504748394206832,-0.06424585891976266]",100.0,"[0.09570078656984941,0.17080531269831603]",4.0,"[0.02,0.02]",172.0949,0.0,23.0,23.0,81.0,1.0,,,,,,,
,,,,,,,678e394d5908a64d41ba0bd1,6844293f136f67aece87c25e,2025-06-07_14h00.04.330,shape_ratio,2024.1.5,Win32,60.60606061,684250e4f00cb30b92d1fa88,,,,,,,,,,,172.0966,172.5932,,,172.8333,173.7101,left,,,,,,,,0.5,0.8584,,,,,,,172.5933,172.8332,173.7101,"[-0.19232258976993374,-0.03656978252766939]",100.0,"[0.08648213824337678,-0.1736696895188245]",100.0,"[0.009831617182771726,-0.020877197088869454]",100.0,"[-0.08053414272061422,-0.08366882801887357]",4.0,"[0.09267589841001754,-0.07832743867268772]",4.0,"[0.16211729958067217,0.09402645121685375]",100.0,"[-0.004061548520539451,0.1781563814281295]",100.0,"[-0.11425410286537563,-0.008294776398721171]",100.0,"[-0.008141856669376763,-0.1570069921966618]",100.0,"[-0.003830512748647147,0.09897269624150214]",4.0,"[0.1491005703259361,-0.10414697517611793]",100.0,"[0.03754549974832148,0.13182268481012743]",100.0,"[-0.06768081463427204,0.023451080857134012]",4.0,"[-0.0899145009178596,0.061703100956680426]",4.0,"[-0.06703589216989143,0.1767683442927362]",100.0,"[0.0013546239339119399,0.019196599633645457]",100.0,"[-0.1217363315119209,-0.1031382727791043]",100.0,"[-0.1191534565407053,0.14123103886689306]",4.0,"[-0.15356849119440813,-0.023677944429042166]",4.0,"[-0.15659355527784705,0.0666572282344054]",4.0,"[0.14875775672635008,-0.023198842248843495]",4.0,"[0.19943298253144695,0.004229261056284803]",4.0,"[0.09898508170171927,0.1365047857448356]",100.0,"[-0.05022540595994692,0.1240844791451482]",4.0,"[0.036417903046157114,0.08514337457333312]",4.0,"[0.02576952454470826,-0.08395015770147385]",100.0,"[0.0588803318319213,0.00347446338202784]",100.0,"[0.06039409954231705,0.18173438702596673]",4.0,"[0.07022460281437366,-0.04103378747608666]",4.0,"[0.1354195929840064,0.017593776441570765]",4.0,"[-0.13488458641288628,-0.06134043237389959]",4.0,"[-0.1732672444288335,-0.08064979051293271]",100.0,"[0.02,0.02]",174.808,0.0,24.0,24.0,106.0,1.0,,,,,,,
,,,,,,,678e394d5908a64d41ba0bd1,6844293f136f67aece87c25e,2025-06-07_14h00.04.330,shape_ratio,2024.1.5,Win32,60.60606061,684250e4f00cb30b92d1fa88,,,,,,,,,,,174.809,175.3085,,,175.5595,176.3734,right,,,,,,,,0.5,0.8014,,,,,,,175.3086,175.5595,176.3735,"[0.05897711651852796,0.059422615315387374]",4.0,"[0.000049316919643104386,-0.16407347313894055]",100.0,"[0.16868840457327658,-0.10014229333715256]",4.0,"[-0.09230623838850217,-0.17676263804929596]",4.0,"[0.07097992885197654,0.11563725705829371]",100.0,"[0.08554888319677685,0.1656078871178487]",4.0,"[0.016325485362988074,-0.09555091941471941]",100.0,"[0.09866793201323688,0.07415770752115937]",4.0,"[-0.13419174718388152,0.12482550722731496]",100.0,"[0.0430192873520396,-0.19447127650636]",4.0,"[0.03285599612137208,0.09076227885699409]",100.0,"[0.1524691267907959,-0.03826225008228658]",100.0,"[-0.09123503278016798,0.13449835920913714]",4.0,"[-0.1236526729604863,-0.023127625503407776]",100.0,"[-0.11018289779818313,-0.11096216226009584]",4.0,"[0.030108667487368897,-0.13476608901594647]",4.0,"[0.009449830949176815,0.01936640222371791]",100.0,"[-0.18202337145902067,0.07053422921090267]",4.0,"[-0.04547901824995463,0.19306575056876832]",4.0,"[0.1467504559945485,0.0021270273534204015]",100.0,"[-0.06723352771262812,-0.1138778314828923]",4.0,"[-0.0941087060543698,0.02723647446159501]",100.0,"[0.08389775213611038,-0.0279742346196794]",4.0,"[0.0790872967774885,-0.16984859567014918]",4.0,"[0.05110217653283953,0.01066177457564261]",100.0,"[-0.05549216248453801,0.10464607535981298]",100.0,"[0.16660974714772916,0.06419758833370952]",100.0,"[0.0926544533292066,-0.07436765127400882]",4.0,"[0.19490578760790767,-0.008473350708315475]",100.0,"[-0.03912692051075455,0.06187904151006198]",100.0,"[-0.03697731159768474,-0.021634966705730285]",100.0,"[0.04362273565776685,0.1685849828345925]",4.0,"[0.02,0.02]",177.4718,0.0,25.0,25.0,113.0,1.0,,,,,,,
,,,,,,,678e394d5908a64d41ba0bd1,6844293f136f67aece87c25e,2025-06-07_14h00.04.330,shape_ratio,2024.1.5,Win32,60.60606061,684250e4f00cb30b92d1fa88,,,,,,,,,,,177.4722,177.9711,,,178.2213,179.2202,right,,,,,,,,0.55,0.9829,,,,,,,177.9712,178.2213,179.2203,"[0.13077147689486354,0.030885228337278244]",100.0,"[-0.12092486810900736,-0.07700201727835816]",100.0,"[-0.010406774651011568,0.1488117884460197]",4.0,"[-0.009573285329255148,0.0869205100525041]",100.0,"[-0.09844891916401753,0.019589112133205976]",100.0,"[0.0003893713114213027,0.19475147666372264]",4.0,"[-0.1720798706022728,-0.08588833295415356]",4.0,"[0.19346255987717884,0.04545758933766119]",100.0,"[-0.0551446417587922,0.03594555105319199]",100.0,"[0.11568120541359099,-0.11283883663004642]",4.0,"[0.025968653967392927,-0.1880310267820515]",100.0,"[0.03522891755029828,-0.008672360289673858]",4.0,"[-0.016738325745698678,-0.18347840601498747]",4.0,"[0.17767410374469408,-0.07318832092164895]",4.0,"[-0.01607315713785612,-0.11515510083608729]",100.0,"[0.02929284305810068,-0.08538948719369732]",100.0,"[0.11988720830009297,-0.02498274160848841]",100.0,"[-0.009666001025407302,0.008000834490865645]",4.0,"[0.07792305715637107,0.019485420612038496]",100.0,"[0.12921836981242726,0.12252737278148428]",4.0,"[0.026649339111950242,0.046991367083830594]",4.0,"[-0.10493035813541222,0.11650392833824544]",100.0,"[-0.018990113885430055,-0.07288256340537755]",4.0,"[-0.1184659378375034,-0.1188966590421288]",100.0,"[-0.1769495153223687,-0.01693565692174519]",100.0,"[-0.1310870495990094,-0.029647007725976213]",100.0,"[-0.06620192444387765,0.12871642026050611]",100.0,"[-0.16423064748609045,0.03912692116512559]",4.0,"[-0.026913210934518966,-0.02950849704555724]",100.0,"[0.020640334878394746,0.11681583737140243]",4.0,"[0.07236659365456669,0.15746992157103454]",4.0,"[-0.1684231453444238,0.09774029866283687]",100.0,"[0.02,0.02]",180.3188,0.0,26.0,26.0,70.0,1.0,,,,,,,
,,,,,,,678e394d5908a64d41ba0bd1,6844293f136f67aece87c25e,2025-06-07_14h00.04.330,shape_ratio,2024.1.5,Win32,60.60606061,684250e4f00cb30b92d1fa88,,,,,,,,,,,180.3192,180.8188,,,181.0723,181.8708,right,,,,,,,,0.1,0.7822,,,,,,,180.8189,181.0722,181.8708,"[-0.17394334910489642,0.01017862832760344]",4.0,"[0.058852226989337536,0.17025600648169137]",4.0,"[-0.12237227388920055,0.08796174636503962]",4.0,"[-0.012214353031254226,-0.13478071510344178]",4.0,"[0.15558124964039582,0.10615754534453416]",4.0,"[0.02343894074405988,0.13972717741156002]",4.0,"[-0.028918386408656818,0.15146194670881408]",4.0,"[-0.13155281671533073,-0.11377348676772654]",4.0,"[0.0838140911885239,0.10822036414794439]",4.0,"[-0.07561361684565467,-0.08982881803942017]",4.0,"[0.11691099263039385,0.1494955317551844]",4.0,"[-0.012845126856041509,-0.17515872687599796]",100.0,"[0.054904963880767266,0.023389682581969214]",100.0,"[-0.17133560141313622,0.07791711499460893]",4.0,"[0.1835636475863454,0.06672106661958684]",4.0,"[0.07874431021944683,-0.04429494400217938]",4.0,"[0.13916705630454312,-0.06006151324878572]",4.0,"[-0.0703530827889015,0.027275581500017985]",4.0,"[-0.005104938674800179,0.04551821878426401]",4.0,"[-0.10051077191840267,-0.16885649119826796]",4.0,"[-0.020143178821983587,0.0930275092786866]",4.0,"[-0.09758749822478689,0.16303870788187896]",4.0,"[-0.03010393835181289,-0.07077529873695691]",4.0,"[0.1620654169419119,-0.10012064171340943]",4.0,"[-0.16543209228644792,-0.07246698941642274]",4.0,"[-0.06657375009111434,-0.025343319388907045]",4.0,"[-0.12595934234048492,-0.041404626351347194]",4.0,"[0.044133701300160894,-0.09438686678263097]",4.0,"[-0.05302954887477405,-0.1723574898865769]",4.0,"[0.05705378083991141,-0.15372442169970968]",100.0,"[-0.057670062604484415,0.06574930720200596]",4.0,"[0.11229263960154721,0.026779974519212848]",4.0,"[0.02,0.02]",182.9664,0.0,27.0,27.0,193.0,1.0,,,,,,,
,,,,,,,678e394d5908a64d41ba0bd1,6844293f136f67aece87c25e,2025-06-07_14h00.04.330,shape_ratio,2024.1.5,Win32,60.60606061,684250e4f00cb30b92d1fa88,,,,,,,,,,,182.967,183.4659,,,183.7189,184.9147,right,,,,,,,,0.45,1.1669,,,,,,,183.4659,183.7188,184.9147,"[0.0525500331662429,-0.07883369052371551]",100.0,"[-0.052966918384161496,0.11660082019835552]",100.0,"[0.0821749327738905,0.017621608221974852]",4.0,"[-0.09560489171237539,0.01212103687232928]",4.0,"[-0.1571642927946309,-0.050355199712152736]",4.0,"[0.029426912004294443,0.02159536370406346]",100.0,"[0.01635230416879972,-0.0994442258331574]",100.0,"[-0.08106431498107818,-0.042380695795075994]",4.0,"[0.13681801198126203,-0.1292479292340518]",100.0,"[-0.12474211272265054,0.14304518474035896]",4.0,"[0.16096416902980196,0.09666900853765117]",100.0,"[0.0020873297260821924,-0.030184489207221943]",100.0,"[0.039525980630089746,-0.18447639686520637]",4.0,"[0.14395714158354767,0.040801993772780515]",100.0,"[0.04354195048122922,0.06246406579123677]",4.0,"[-0.053588941980794974,0.17498819312235836]",4.0,"[0.15216800350818685,-0.08668326726399592]",4.0,"[0.18113778325000746,-0.04807064207963878]",4.0,"[-0.19903206086888142,-0.01272102541213769]",4.0,"[-0.021434956345647346,-0.0844470277146718]",100.0,"[-0.10570445879005297,-0.1251977365152015]",100.0,"[0.12862348043339727,0.1410129142592328]",4.0,"[-0.1402573343789704,0.00004190300522210389]",4.0,"[0.10653715123087695,0.06711847689909047]",4.0,"[0.018369839224565674,0.16975691838790646]",100.0,"[0.0005532509484392644,-0.1645923828405238]",4.0,"[-0.011323513964054656,0.02352576507739079]",100.0,"[0.12533538472751568,-0.026890364258602584]",4.0,"[0.0856770358239001,-0.04731529686169764]",100.0,"[-0.04355259767749715,-0.1216840551870053]",100.0,"[0.06262628413845918,-0.13212901398898072]",4.0,"[-0.051005438142978685,0.0695148818092121]",4.0,"[0.02,0.02]",186.0134,0.0,28.0,28.0,137.0,1.0,,,,,,,
,,,,,,,678e394d5908a64d41ba0bd1,6844293f136f67aece87c25e,2025-06-07_14h00.04.330,shape_ratio,2024.1.5,Win32,60.60606061,684250e4f00cb30b92d1fa88,,,,,,,,,,,186.0139,186.513,,,186.7633,187.329,left,,,,,,,,0.55,0.5342,,,,,,,186.513,186.7632,187.329,"[0.12070575319560656,0.13395150576287138]",4.0,"[-0.10882536395711996,0.011903662670391252]",4.0,"[-0.0897055530287053,0.10334612985479635]",100.0,"[0.07002662859369638,0.08473071125269165]",100.0,"[-0.14306684405835965,-0.030043282609648253]",4.0,"[-0.016105792098110198,0.17770089699160038]",100.0,"[0.0345755148027276,-0.006270561554355492]",4.0,"[-0.08834229132179566,0.15360508932428626]",4.0,"[-0.022182521658450246,-0.1759300581891696]",100.0,"[0.11750059174152917,0.06928586632169219]",100.0,"[-0.1401393815771611,0.11832901859749174]",100.0,"[-0.039913199328479795,-0.07227380643617286]",4.0,"[-0.05351830587493809,-0.13293286132515875]",100.0,"[0.14319440190151947,-0.0147916668302193]",100.0,"[0.1898029587780442,0.057385623697056104]",4.0,"[-0.0418775100201265,0.0694465549850649]",100.0,"[-0.03990389928986702,0.1390240394794145]",4.0,"[-0.18606424766467022,-0.027282784330402533]",4.0,"[-0.016622514935030815,0.030081643252994172]",100.0,"[0.08886929576408403,-0.07237713715865977]",100.0,"[0.011046242337723482,0.10423093576426735]",100.0,"[0.13908096390569336,-0.1315788794346293]",100.0,"[0.0641836077529106,0.022327204048844786]",4.0,"[0.05867421639804248,0.18082998379409315]",4.0,"[0.08548226206362212,-0.13224839254650245]",4.0,"[-0.1427726969853215,-0.1035353029687762]",100.0,"[0.002448511441035694,-0.11453387091129019]",4.0,"[-0.0834521740575609,-0.03688032740979178]",4.0,"[0.19000418171723485,-0.013388087827553236]",100.0,"[-0.07506374580563381,-0.17469353300087884]",100.0,"[0.018877316916082264,-0.16659499839066597]",100.0,"[0.030751366999625,0.05660053097624238]",100.0,"[0.02,0.02]",188.4277,0.0,29.0,29.0,65.0,1.0,,,,,,,
,,,,,,,678e394d5908a64d41ba0bd1,6844293f136f67aece87c25e,2025-06-07_14h00.04.330,shape_ratio,2024.1.5,Win32,60.60606061,684250e4f00cb30b92d1fa88,,,,,,,,,,,188.4286,188.9272,,,189.1803,189.81,right,,,,,,,,0.45,0.6052,,,,,,,188.9273,189.1802,189.8101,"[-0.07888675922106693,0.012000162764759575]",100.0,"[0.010379355634124916,0.07884409172924124]",100.0,"[-0.12162168290537176,-0.08203259416842519]",100.0,"[-0.033774270702762295,0.05335645709094686]",4.0,"[0.03202780006903574,0.19562832192868246]",4.0,"[0.05061488310631355,0.11954388202303025]",100.0,"[0.16843910955200322,0.07085136856224894]",100.0,"[-0.0065733977313998234,-0.10056682984972623]",4.0,"[-0.16665760309921776,-0.06388698925090208]",4.0,"[-0.0450701246776394,-0.1393866189133558]",4.0,"[-0.015814669307641013,0.18618912969294957]",4.0,"[-0.16641501546809495,0.05634691749580986]",100.0,"[-0.02683315486989535,-0.1760544985908951]",100.0,"[0.07189181732536837,-0.06242476032908673]",4.0,"[-0.004029183090021913,-0.04582832339951795]",4.0,"[-0.052498631398024104,0.09297811483448916]",4.0,"[0.0395749695458252,0.013459340106124483]",100.0,"[-0.05978096121459519,-0.06468242119945793]",100.0,"[0.09169068547320461,0.15545397262484476]",100.0,"[-0.07980589238787401,0.1453264945248188]",100.0,"[0.1737132559953813,-0.0050026683388312366]",4.0,"[0.08061842537002593,0.062404016272407374]",4.0,"[0.008594684567956038,0.13647222155551172]",4.0,"[0.042728938768928075,-0.1409942746827006]",100.0,"[-0.08076952119645302,-0.11520408873653755]",4.0,"[0.11841415790937436,-0.12869987759209858]",100.0,"[-0.002617397433635378,0.023757964992528597]",4.0,"[-0.11687329073259797,-0.016678252171046164]",4.0,"[0.18580240374681536,-0.05156177075804009]",4.0,"[0.10941696348384376,-0.022106090607153746]",4.0,"[-0.1812543794862502,-0.0191895084731337]",4.0,"[0.12822497908249444,0.016238814747284388]",100.0,"[0.02,0.02]",190.9089,0.0,30.0,30.0,136.0,1.0,,,,,,,
,,,,,,,678e394d5908a64d41ba0bd1,6844293f136f67aece87c25e,2025-06-07_14h00.04.330,shape_ratio,2024.1.5,Win32,60.60606061,684250e4f00cb30b92d1fa88,,,,,,,,,,,190.9093,191.4086,,,191.6638,192.3603,right,,,,,,,,0.5,0.6802,,,,,,,191.4086,191.6637,192.3603,"[0.10906372948049146,0.08631083026437444]",4.0,"[-0.050413849975271124,0.1546675205944818]",4.0,"[0.03212850970549655,-0.10294780027939614]",4.0,"[0.1230191635233455,0.024989307358711348]",100.0,"[-0.12443998373241345,-0.02083722666199442]",4.0,"[-0.018105606371784974,0.19531208151032312]",100.0,"[0.023760478151125555,0.11829350776874632]",4.0,"[-0.07123846000534681,0.05886869408699983]",4.0,"[-0.06296157799510423,0.10349011060574921]",4.0,"[-0.005461126389449443,-0.16312228141147672]",4.0,"[-0.07827337182572668,-0.12713721255960575]",100.0,"[0.1071431895603245,-0.11080632387855426]",100.0,"[-0.011125745304639242,0.03640669000787924]",100.0,"[-0.06256742782765655,-0.17926550506266115]",100.0,"[-0.1623193366427025,0.0636147569687666]",4.0,"[-0.12806427435816395,-0.11703605005905364]",100.0,"[0.03484572504501351,-0.18920314824401935]",100.0,"[0.18311049954650735,0.014573476125908378]",100.0,"[-0.175399619410465,0.009322083824268568]",4.0,"[0.17334250476640847,0.07455569871108693]",4.0,"[-0.11663354869662736,0.031049732749853166]",100.0,"[0.16489471264081465,-0.08511533059853008]",4.0,"[0.14749528101366027,-0.02039581135600746]",4.0,"[0.03857123199664554,-0.024188934118738074]",100.0,"[0.03446052379618281,0.035400782093956425]",4.0,"[-0.1875354182875732,-0.055348362364543664]",100.0,"[0.06591668400020889,-0.07510292658481385]",4.0,"[-0.1371070225913574,0.1367010487473497]",100.0,"[0.060026323767469456,0.1477013857010532]",100.0,"[0.10794054910201198,-0.06963026589318345]",4.0,"[-0.022881724522494425,-0.06851741328946977]",100.0,"[-0.081870018849512,-0.06952584109461409]",100.0,"[0.02,0.02]",193.459,0.0,31.0,31.0,105.0,1.0,,,,,,,
,,,,,,,678e394d5908a64d41ba0bd1,6844293f136f67aece87c25e,2025-06-07_14h00.04.330,shape_ratio,2024.1.5,Win32,60.60606061,684250e4f00cb30b92d1fa88,,,,,,,,,,,193.4594,193.9572,,,194.21,194.928,right,,,,,,,,0.55,0.7085,,,,,,,193.9574,194.2099,194.9281,"[0.042039251174977754,-0.05787547816964513]",4.0,"[-0.13059684535099692,0.077600696417708]",100.0,"[-0.17699099499595017,-0.02705458960695732]",100.0,"[0.11201281311387373,-0.07369181015936081]",4.0,"[-0.06619122646647835,0.14024541396796417]",4.0,"[-0.055776531848842875,-0.14941462959490856]",100.0,"[0.0886820416433567,0.012766102231390125]",4.0,"[-0.19578047679097127,0.014126438385548983]",4.0,"[0.030948200994529433,0.009664809254688786]",100.0,"[0.14590890942400792,0.096306515796654]",4.0,"[0.0588926852732361,-0.15534646321942291]",100.0,"[-0.11466235811533966,-0.06343086834761935]",100.0,"[0.00024092222089324865,-0.049652382393302136]",100.0,"[-0.07603977051676576,-0.09979041521620052]",100.0,"[0.019993759724366462,0.15452199405605097]",100.0,"[0.009003537638868813,-0.1652049480869728]",4.0,"[-0.0014380025839740409,0.04153641057717154]",100.0,"[-0.05200655583712964,-0.04394639893469962]",4.0,"[0.17758388184604362,0.01031866396444486]",4.0,"[0.008553709169439353,0.10660412184961175]",100.0,"[0.13194712804236414,0.04954367127390294]",100.0,"[-0.1297152049260824,-0.003762004006663583]",4.0,"[-0.1427279457908753,0.03630542864358796]",100.0,"[-0.04823821074891243,0.011209618475123993]",100.0,"[-0.026961815251747883,-0.10468268721602823]",100.0,"[0.11001274595112924,-0.0288920414913115]",4.0,"[0.06919580708149718,-0.11492686326931051]",4.0,"[-0.09821880688293917,-0.13549635569510193]",100.0,"[0.07644682941006099,0.16054738813182803]",100.0,"[-0.026119957715623494,0.1885976203560323]",100.0,"[-0.17754232767971187,-0.08636857203618764]",4.0,"[0.11994816207544615,0.12850774671438725]",4.0,"[0.02,0.02]",196.0266,0.0,32.0,32.0,68.0,1.0,,,,,,,
,,,,,,,678e394d5908a64d41ba0bd1,6844293f136f67aece87c25e,2025-06-07_14h00.04.330,shape_ratio,2024.1.5,Win32,60.60606061,684250e4f00cb30b92d1fa88,,,,,,,,,,,196.0286,196.5251,,,196.7731,197.571,right,,,,,,,,0.45,0.7743,,,,,,,196.5252,196.7729,197.5714,"[-0.03259939070553628,0.007287146358865999]",100.0,"[-0.032832985606482894,0.047836282570073156]",100.0,"[0.11980958226294974,0.12778198271374064]",4.0,"[0.05672762914637667,0.1757581462672017]",100.0,"[0.05349842835923893,0.03621973334680025]",4.0,"[-0.08760920905711929,-0.17912711286915023]",100.0,"[0.11953512047440006,0.07346957326347218]",4.0,"[0.12627599564527545,0.02289197065337263]",100.0,"[-0.11347454419858237,-0.0039452807688179865]",4.0,"[-0.1556391253305869,-0.018018746755278016]",4.0,"[-0.028505145905962325,-0.19530329798979326]",4.0,"[0.106133484305337,-0.10354158878796613]",100.0,"[0.1711212573804003,-0.08694158887065513]",4.0,"[-0.09758962218077069,0.10063003162059583]",4.0,"[-0.05765320811916119,0.10433545021619876]",4.0,"[-0.1582314095779978,-0.09146170895274373]",100.0,"[0.09007164955299767,-0.0031803168937617047]",100.0,"[0.16609501872835863,-0.045797443389830515]",4.0,"[-0.09065562651665458,0.15384308498956603]",4.0,"[0.045129096487306834,-0.16125460017553112]",4.0,"[-0.14435883758524715,-0.13700735957477728]",4.0,"[-0.01435239922204496,0.19414458153866465]",100.0,"[-0.16383251956118244,0.10095371967182164]",4.0,"[-0.1694864839242777,0.027869170480877205]",4.0,"[0.014721180631603582,0.1039437146735227]",100.0,"[0.07340036909723355,-0.05017216225220413]",4.0,"[0.06529179076863373,-0.12348377981360736]",4.0,"[0.09625346403751274,-0.1628425029118091]",100.0,"[-0.06503214686629813,-0.10198734321675332]",100.0,"[0.1329174543736171,-0.14472151798775781]",100.0,"[-0.19744726339720695,-0.0025118173101521092]",4.0,"[-0.07240249284362384,0.015741243504042882]",100.0,"[0.02,0.02]",198.6701,0.0,33.0,33.0,122.0,1.0,,,,,,,
,,,,,,,678e394d5908a64d41ba0bd1,6844293f136f67aece87c25e,2025-06-07_14h00.04.330,shape_ratio,2024.1.5,Win32,60.60606061,684250e4f00cb30b92d1fa88,,,,,,,,,,,198.6721,199.1691,,,199.409,200.1251,right,,,,,,,,0.6,0.7031,,,,,,,199.1693,199.4088,200.1252,"[0.12615166409460257,0.11613235222252048]",4.0,"[-0.07748811455994045,-0.14115908484118989]",100.0,"[0.10982128155334128,0.15755367182942134]",100.0,"[-0.15847450177040134,0.08649607778963378]",100.0,"[-0.05658535606775577,0.17014787521535832]",100.0,"[-0.008328570649572655,0.016734389066391287]",4.0,"[0.05562725666162291,0.036647798086843104]",100.0,"[-0.12671019609876982,-0.04253667245293092]",100.0,"[-0.059864533179317746,0.06562448193772359]",4.0,"[-0.14492729173311006,-0.08939947192980803]",100.0,"[0.024160259018249225,0.15972116268855432]",4.0,"[-0.12469547122229568,-0.1374159797341637]",4.0,"[-0.0528948980247193,-0.08371861757924894]",4.0,"[0.17021106615851214,-0.0717504842471371]",4.0,"[0.1668439188292947,0.08570303252509767]",100.0,"[-0.09574379233198486,0.005326527517358907]",100.0,"[0.17028278877542016,0.04435398725825892]",100.0,"[-0.07092251470230802,-0.027950150908433297]",4.0,"[-0.010912937931499124,-0.12736179216074608]",4.0,"[-0.03210504398599633,0.09678999609447739]",100.0,"[0.16688193934709297,-0.015864594856912818]",4.0,"[0.09437530219092874,-0.06355160948138618]",100.0,"[-0.19389878088891027,0.027087429038413036]",100.0,"[0.11809159091913837,0.02268869301950668]",100.0,"[0.006159439806694395,-0.06046227115848467]",4.0,"[-0.018203394890842654,-0.18546735450800547]",4.0,"[0.04151169809458499,-0.18694495485009432]",100.0,"[0.1348880207298549,-0.1255124332546486]",100.0,"[-0.10976943707823325,0.15181145958044323]",100.0,"[0.10664768169910586,-0.02212591281601048]",100.0,"[0.04978613018670047,-0.11421673317641452]",4.0,"[0.0631173281609543,0.0785707166803937]",100.0,"[0.02,0.02]",201.2175,0.0,34.0,34.0,54.0,1.0,,,,,,,
,,,,,,,678e394d5908a64d41ba0bd1,6844293f136f67aece87c25e,2025-06-07_14h00.04.330,shape_ratio,2024.1.5,Win32,60.60606061,684250e4f00cb30b92d1fa88,,,,,,,,,,,201.2185,201.7179,,,201.9663,202.5662,left,,,,,,,,0.9,0.5897,,,,,,,201.7179,201.9662,202.5666,"[-0.01739073976215078,0.17921705478612854]",100.0,"[-0.03407554723237944,-0.13110470052591486]",100.0,"[-0.06512752017438647,-0.07607270793845426]",100.0,"[-0.12238280254322818,0.02903508980586367]",100.0,"[0.132819269977824,0.11360747994448604]",100.0,"[0.084718448543813,0.15000961902877882]",100.0,"[-0.14380645668663833,-0.1378190468559763]",100.0,"[-0.14554737861107175,-0.03906231004330914]",100.0,"[-0.1226102453384176,0.12445694542692602]",100.0,"[0.08142013696799866,0.06670932429717621]",100.0,"[0.17677957769765354,0.05774386821023699]",100.0,"[-0.0843008644445515,0.10325376595550682]",100.0,"[0.09677419581784957,0.00753817164645844]",100.0,"[0.0442362030362608,-0.05573442290654634]",100.0,"[-0.08106764971865466,0.17420064020903966]",100.0,"[-0.023555186003903675,-0.0615986117823248]",100.0,"[0.0032897659696971295,-0.1664952204813191]",100.0,"[0.05422404585120495,-0.13020231554124026]",100.0,"[0.14159793748042443,-0.10292526511149785]",4.0,"[0.11456865808362893,-0.1344687989009505]",100.0,"[-0.02226368688750334,0.07846692547464028]",100.0,"[0.12916394937753653,0.049801509140636226]",100.0,"[-0.10462601700620554,-0.15068887330082142]",100.0,"[0.048233879108830646,-0.010370022906395243]",100.0,"[-0.025793063798715717,0.013666156401725528]",100.0,"[0.058553893549075434,0.1113018555017094]",100.0,"[0.1562802404780163,-0.06517151726265209]",100.0,"[-0.12154863933541318,-0.09502073563090868]",4.0,"[-0.07272603004384774,0.06463692034600624]",100.0,"[0.10053287666189147,-0.08162836425486114]",4.0,"[0.046398685615742806,-0.1851489889356467]",100.0,"[-0.17440569190025604,0.06763687518985964]",100.0,"[0.02,0.02]",203.664,0.0,35.0,35.0,29.0,1.0,,,,,,,
,,,,,,,678e394d5908a64d41ba0bd1,6844293f136f67aece87c25e,2025-06-07_14h00.04.330,shape_ratio,2024.1.5,Win32,60.60606061,684250e4f00cb30b92d1fa88,,,,,,,,,,,203.6659,204.164,,,204.4152,205.2455,right,,,,,,,,0.4,0.8159,,,,,,,204.1641,204.4151,205.2457,"[0.17852945866443742,0.062288556335248754]",4.0,"[0.08263182266711189,0.16405779236640347]",4.0,"[-0.03682476647365138,0.16951215251901755]",4.0,"[0.1328662689824416,0.04497481809477057]",4.0,"[-0.13894995928752418,-0.10794550607549325]",4.0,"[0.023076128052438263,-0.12426738193925801]",100.0,"[-0.022522574553976004,-0.0895670502921383]",4.0,"[0.14149253866670058,-0.08514885350850428]",4.0,"[-0.0062322538016153246,0.06147925027302519]",100.0,"[0.03023801229440813,-0.010568984378462733]",100.0,"[-0.07961952497042722,-0.07921826084414062]",100.0,"[-0.06268462330734156,0.0643000241962001]",100.0,"[-0.03207271429590125,-0.17246764540472673]",100.0,"[0.0459513189432463,-0.16280663483687777]",4.0,"[-0.09995815290350744,0.08270919272226095]",100.0,"[0.04164421054117457,0.08218763664613624]",100.0,"[-0.09836605338123953,-0.024017993419811437]",4.0,"[0.12041712458444426,-0.03707154446017306]",4.0,"[0.0771223673677259,0.10157424714954158]",4.0,"[0.005333440298222301,0.11662393077054978]",100.0,"[0.19189733794619176,-0.005006065721585946]",4.0,"[0.06619396357360578,0.019569586949885778]",4.0,"[-0.18861786898711233,-0.02441026195770516]",4.0,"[0.07516689591076782,-0.020268005297277104]",4.0,"[-0.01615767257815378,-0.040332876765347477]",4.0,"[-0.12857736751939006,0.05105558247065141]",4.0,"[-0.12447301978491944,-0.15130995623327287]",4.0,"[0.13129332935194585,-0.1267133127137048]",100.0,"[0.0794754415875999,-0.06403582928525958]",100.0,"[0.0011847837671111405,0.1923770950984676]",4.0,"[0.009962872043328326,-0.18902703337698964]",100.0,"[0.12415894009510421,0.14640343290557922]",100.0,"[0.02,0.02]",206.3448,0.0,36.0,36.0,171.0,1.0,,,,,,,
,,,,,,,678e394d5908a64d41ba0bd1,6844293f136f67aece87c25e,2025-06-07_14h00.04.330,shape_ratio,2024.1.5,Win32,60.60606061,684250e4f00cb30b92d1fa88,,,,,,,,,,,206.3455,206.8443,,,207.0973,207.744,right,,,,,,,,0.4,0.6307,,,,,,,206.8443,207.0971,207.7441,"[-0.041636080227249087,-0.19529791769559696]",100.0,"[0.11449701244261183,0.023886377226028026]",4.0,"[-0.11600854923069373,-0.11332603395648039]",4.0,"[0.08377049988147968,0.10302545919512446]",4.0,"[-0.004725726010732267,0.10887703230214942]",100.0,"[0.061141079745374534,-0.0651417057253808]",4.0,"[-0.026675725693858728,0.19232087462742606]",4.0,"[0.07673361983547598,0.0547484269464789]",100.0,"[-0.14922031327706864,0.12909785057991383]",4.0,"[-0.18380472798682448,0.026906095367282588]",100.0,"[-0.090911136101249,0.06703718465923506]",4.0,"[0.053868736423357544,0.19191569729730923]",4.0,"[-0.07131188418479625,-0.043491310855400256]",100.0,"[-0.01019537385161256,-0.06686550153823895]",4.0,"[-0.04647084134849821,0.04998586219891726]",4.0,"[0.05767048167506501,-0.0185456655914774]",4.0,"[-0.15559995323675402,0.06434309993350894]",100.0,"[0.1489787060576174,-0.1275419766475563]",4.0,"[-0.017563233066449385,-0.008200462316907029]",100.0,"[0.1475618754042976,-0.015674667229613224]",100.0,"[0.0424856925209826,0.14512916461907474]",100.0,"[-0.08198651837306281,0.10815626899000574]",4.0,"[0.025101931147988966,0.02580344899628961]",100.0,"[-0.18074020921533612,-0.08004542096262982]",4.0,"[0.036768818190242816,-0.0983203384366406]",100.0,"[0.11356783876581758,-0.08152531241310863]",4.0,"[0.160350276286442,0.0725884191936694]",100.0,"[-0.12971924922097056,-0.048131433735137466]",4.0,"[-0.0013615335434402354,0.14928380877698316]",4.0,"[0.07685080754087889,-0.12121130685587672]",100.0,"[0.19434468416789924,-0.001075618061758512]",4.0,"[-0.12271407455175529,0.02016688733843573]",4.0,"[0.02,0.02]",208.8423,0.0,37.0,37.0,174.0,1.0,,,,,,,
,,,,,,,678e394d5908a64d41ba0bd1,6844293f136f67aece87c25e,2025-06-07_14h00.04.330,shape_ratio,2024.1.5,Win32,60.60606061,684250e4f00cb30b92d1fa88,,,,,,,,,,,208.8443,209.3408,,,209.581,210.3935,right,,,,,,,,0.4,0.7917,,,,,,,209.3409,209.5808,210.3937,"[-0.13419182545859448,-0.12789277691444956]",4.0,"[0.03959916909514208,-0.1707497583418966]",4.0,"[0.013288073010352062,-0.13403964149920514]",100.0,"[0.12911133782378212,-0.11230068988430632]",100.0,"[-0.10081435963887991,0.03664668797526358]",4.0,"[-0.0795892165732299,-0.09214881051954751]",4.0,"[-0.003775584085407331,-0.015166529331622358]",4.0,"[0.006763779505493094,0.13821420888029362]",4.0,"[0.0940486236532839,0.1535322648797092]",100.0,"[-0.08011696286867445,0.16437322968166018]",4.0,"[0.08739649078187474,-0.022504655535480474]",4.0,"[-0.053457053993579355,0.09104775334534929]",4.0,"[0.06017374298454934,0.18758322433650226]",100.0,"[0.08336968019854521,0.046508725046614574]",100.0,"[0.02113054510775797,0.04703613001965643]",100.0,"[-0.11731819894589467,0.07367029389857634]",4.0,"[-0.10209480260876545,0.1195242870460001]",4.0,"[0.16643473543052767,0.09899566226136573]",100.0,"[-0.06577400749112296,0.0098160003027413]",4.0,"[0.1134096099931279,0.08473034121241686]",4.0,"[0.14994461270776752,-0.04539808164688711]",100.0,"[0.05076856970818735,0.004405905568404226]",100.0,"[0.17697864807058356,0.003306247139116706]",100.0,"[0.16897849247048724,0.05291181524549186]",100.0,"[0.07927084792447195,-0.10064090081706563]",100.0,"[-0.16370156483520268,0.043506533821078865]",4.0,"[0.0147914381131891,0.18987054961407995]",4.0,"[-0.14806673463057782,-0.049126314192453245]",4.0,"[-0.14313845546234033,0.1385307761818136]",4.0,"[-0.024727471850309813,-0.06998485655188083]",100.0,"[0.1692557387269434,-0.10330913109294246]",4.0,"[-0.15869849588264842,0.001342433665560431]",4.0,"[0.02,0.02]",211.4908,0.0,38.0,38.0,177.0,1.0,,,,,,,
,,,,,,,678e394d5908a64d41ba0bd1,6844293f136f67aece87c25e,2025-06-07_14h00.04.330,shape_ratio,2024.1.5,Win32,60.60606061,684250e4f00cb30b92d1fa88,,,,,,,,,,,211.4929,211.99,,,212.2406,213.3397,left,,,,,,,,0.55,1.0834,,,,,,,211.9902,212.2404,213.3399,"[-0.04767239602052903,-0.04389245726845631]",4.0,"[0.13601782187156422,0.0665324038731762]",100.0,"[-0.11501964489297643,0.12420978737078794]",4.0,"[-0.10593491789159715,0.030686547421321278]",4.0,"[0.16463411035707998,-0.06788020259476295]",100.0,"[-0.02848216576378589,0.17903751881247804]",100.0,"[-0.07688519021736236,-0.10848856979584791]",100.0,"[0.07229538001213213,-0.18145305267256104]",100.0,"[-0.017781295835446756,-0.07920366009821203]",100.0,"[0.0827829567975941,-0.09350107762975515]",100.0,"[0.09732598636353441,0.15739736997826592]",100.0,"[-0.08732365446255733,-0.027217194585120622]",4.0,"[0.16236875983269886,0.002125508179044909]",4.0,"[-0.017180564325746286,0.06901190101313424]",4.0,"[0.12904622542765956,-0.14931880736140624]",4.0,"[-0.1214906461763748,-0.15691929134604313]",100.0,"[0.031180014444600238,-0.007452861584746717]",100.0,"[0.03178924176150809,0.11918809563983193]",100.0,"[-0.1457527285146062,0.09722617669828766]",4.0,"[-0.15353844187787188,-0.07935859803149195]",4.0,"[0.025631320744949896,0.1810919908881884]",100.0,"[-0.08631154700899561,0.1795189136677989]",100.0,"[-0.16873970359540094,0.013603141000330398]",100.0,"[-0.02661164405631575,0.13817417747616348]",100.0,"[0.04055175884204108,0.0790943843215305]",4.0,"[-0.05209542227382253,0.022659620884149995]",4.0,"[0.12415264681187496,0.014402049144808183]",4.0,"[-0.00550091903048815,-0.1534858898883937]",4.0,"[-0.06580256480552539,0.09775955558568766]",100.0,"[0.07226184783849246,-0.04095264301256914]",100.0,"[-0.12900596911978385,-0.026039717708881815]",4.0,"[-0.15191975777228672,-0.1300030826347108]",100.0,"[0.02,0.02]",214.4378,0.0,39.0,39.0,64.0,1.0,,,,,,,
,,,,,,,678e394d5908a64d41ba0bd1,6844293f136f67aece87c25e,2025-06-07_14h00.04.330,shape_ratio,2024.1.5,Win32,60.60606061,684250e4f00cb30b92d1fa88,,,,,,,,,,,214.4396,214.9367,,,215.1901,215.7736,right,,,,,,,,0.5,0.5667,,,,,,,214.9368,215.19,215.7737,"[-0.03335293103277876,0.1750136287462531]",4.0,"[-0.08744679554920318,0.036041290891811135]",100.0,"[0.03403856858230588,-0.02782981883321158]",100.0,"[-0.011556901067725327,-0.09870631417956939]",4.0,"[0.03789467091478557,-0.13077438364637275]",4.0,"[0.1886357001209067,0.04861416614767685]",100.0,"[-0.1236092584252156,0.122640980880883]",4.0,"[0.002472490197354462,-0.16098766838088074]",100.0,"[0.09452131789526012,0.018799544447280648]",100.0,"[-0.04038515238997433,-0.18040829986866874]",100.0,"[0.05219078224153331,0.16750807061968348]",4.0,"[0.1341151811123537,-0.12252605844923292]",4.0,"[0.04529977331612108,-0.1881057847344822]",4.0,"[-0.04049525504442519,-0.03222997078042589]",100.0,"[0.10595064085200077,0.13518323452294742]",4.0,"[-0.04162525855834827,0.042667733779752345]",100.0,"[-0.10175926229408087,-0.0319012417726941]",4.0,"[0.04813677292706787,-0.08274194503223634]",100.0,"[-0.10143472727038469,-0.12597664588901045]",100.0,"[-0.1865384189748083,0.014542452436966174]",100.0,"[0.18536069493374993,-0.0298812398989573]",100.0,"[0.11275276753946596,-0.030227791631460162]",4.0,"[0.005280259031094744,0.011321102284527023]",100.0,"[0.046600759250978174,0.02850000922766573]",4.0,"[-0.002779054068094771,0.11524412916063935]",100.0,"[0.006039515660933585,0.059938009817787505]",4.0,"[0.0661014730290816,0.08826517964011973]",4.0,"[-0.10185454497977457,0.1649227226400219]",4.0,"[0.013519331158906883,0.15604766646580706]",100.0,"[0.16210710704308917,-0.0928670433999646]",4.0,"[0.1542981661976059,0.10713070749194885]",4.0,"[-0.055810554832972106,-0.0988374232937534]",100.0,"[0.02,0.02]",216.8682,0.0,40.0,40.0,101.0,1.0,,,,,,,
,,,,,,,678e394d5908a64d41ba0bd1,6844293f136f67aece87c25e,2025-06-07_14h00.04.330,shape_ratio,2024.1.5,Win32,60.60606061,684250e4f00cb30b92d1fa88,,,,,,,,,,,216.8697,217.3685,,,217.62,218.3681,right,,,,,,,,0.55,0.724,,,,,,,217.3687,217.62,218.3685,"[-0.07005401568186256,-0.11565789129848715]",4.0,"[-0.08979404081688512,0.17413868583760642]",100.0,"[0.08272995214734874,0.04320031450993414]",100.0,"[0.07358217485361801,0.10389956371132697]",4.0,"[-0.06269247991491916,0.13197670930968314]",100.0,"[0.023829304042654414,0.08356722497901882]",4.0,"[0.1849525559084336,0.037695728175872446]",100.0,"[-0.03374974073807097,-0.1488249488155964]",4.0,"[0.040894022587879886,-0.06451730483155313]",4.0,"[0.11870486775640522,-0.0764495341489608]",100.0,"[-0.11114269067955533,-0.08543667459749829]",100.0,"[-0.04231634407712893,0.021678100405323513]",4.0,"[0.024884932549402973,0.17364471785990201]",4.0,"[-0.03468365531514845,-0.08861963371978389]",100.0,"[-0.013928470969562746,0.06031601089907139]",100.0,"[-0.1585357900254522,0.11685933056615158]",4.0,"[0.10689954632824021,-0.019273774070329867]",100.0,"[0.045931705432770954,0.013512615386283565]",100.0,"[-0.057514785514606474,-0.18461758968275113]",4.0,"[-0.12227900586428041,0.01934616749740841]",100.0,"[-0.17091062083085484,-0.08228142246230816]",4.0,"[0.01475121778459013,-0.15327708253660455]",100.0,"[0.07277806603839905,-0.10354634304889428]",100.0,"[0.18500344822426154,-0.06993558290612457]",100.0,"[0.15012715006785765,0.1185620746694012]",100.0,"[-0.10608077215019478,0.09522722005606771]",100.0,"[0.08842781273698487,-0.15631692095490385]",100.0,"[0.007832872926573257,-0.019198365603466508]",100.0,"[-0.031159172361183683,0.1630024734871229]",4.0,"[-0.19375040084489728,-0.019073244896950118]",4.0,"[0.06596577664575849,0.14825824682530483]",4.0,"[-0.15109169153730756,-0.029618309720801008]",4.0,"[0.02,0.02]",219.4661,0.0,41.0,41.0,82.0,1.0,,,,,,,
,,,,,,,678e394d5908a64d41ba0bd1,6844293f136f67aece87c25e,2025-06-07_14h00.04.330,shape_ratio,2024.1.5,Win32,60.60606061,684250e4f00cb30b92d1fa88,,,,,,,,,,,219.468,219.9688,,,220.2192,220.7981,left,,,,,,,,0.55,0.5689,,,,,,,219.9691,220.2189,220.7989,"[-0.11150083780824906,0.11342508473825119]",4.0,"[-0.09512087363756305,-0.07676556406551198]",100.0,"[-0.0547592779609665,-0.11169254360866603]",4.0,"[0.014744248549636093,-0.19708663983444316]",4.0,"[0.10166564531008897,0.08726489566899356]",100.0,"[-0.09697914204341877,-0.13319750386988563]",4.0,"[-0.1467210391608669,0.09305778279691333]",100.0,"[0.10058506621133956,-0.08137240417867478]",4.0,"[0.055201500767229156,-0.03522509998254446]",100.0,"[0.12150935327250963,-0.1327128740292975]",4.0,"[0.030467118659113772,-0.1281661054152896]",4.0,"[-0.06193022506308404,-0.04942133711460819]",4.0,"[-0.1441621413900499,-0.05213710854297474]",100.0,"[-0.15003166810092786,0.039970818419109044]",100.0,"[-0.017869347994027066,-0.05070998021951943]",100.0,"[-0.032216477318303516,0.18194944388032214]",100.0,"[0.1389932032941827,-0.04997376472356724]",100.0,"[0.026481293417684112,0.0936880702193382]",100.0,"[-0.08228936695403598,-0.01056433351809341]",100.0,"[0.07495877011153627,0.1377244745112935]",4.0,"[0.05917133583742653,0.04055241118308198]",4.0,"[0.07665414307324558,-0.15322481678641342]",100.0,"[-0.09843820066083575,0.07294139415566465]",4.0,"[0.0025449605602665404,0.050669911786156395]",100.0,"[-0.04379212795822069,0.0626688926493369]",100.0,"[-0.0881563988505868,0.032422818861774054]",100.0,"[-0.0391922466784147,0.022793352202924815]",100.0,"[-0.12634928938284024,-0.001050835316178092]",4.0,"[-0.03125408410718015,-0.17557466757584186]",4.0,"[0.11425252134181577,0.15333216689486534]",100.0,"[0.13785383240166763,0.021474261088690313]",4.0,"[0.16150204878254973,0.10902080126181413]",100.0,"[0.02,0.02]",221.8972,0.0,42.0,42.0,80.0,1.0,,,,,,,
,,,,,,,678e394d5908a64d41ba0bd1,6844293f136f67aece87c25e,2025-06-07_14h00.04.330,shape_ratio,2024.1.5,Win32,60.60606061,684250e4f00cb30b92d1fa88,,,,,,,,,,,221.8988,222.4004,,,222.6452,223.2455,left,,,,,,,,0.4,0.5701,,,,,,,222.4007,222.645,223.2457,"[-0.08248394136704669,-0.14174596821798263]",100.0,"[-0.16802554877788778,-0.028721026702639558]",4.0,"[0.0786554606528372,0.03964217782541285]",4.0,"[0.003946157152980706,-0.04439373330836268]",4.0,"[0.17700662823405192,0.051052437585352745]",4.0,"[-0.011875352667794293,-0.14338678194693685]",4.0,"[-0.03939115350037318,-0.11308182785537207]",4.0,"[0.043374477430039624,-0.14021587063869104]",4.0,"[0.14367841645130272,-0.059673427823216926]",100.0,"[-0.03146114547499746,0.1603789776414406]",100.0,"[-0.13069842728170666,-0.008247634849128134]",4.0,"[0.027502176154082757,-0.0073830701207580835]",4.0,"[0.04437549379751659,-0.1849807803949367]",4.0,"[0.14134291486553124,-0.12998635085118815]",100.0,"[-0.10022534280398648,-0.07978292029799378]",100.0,"[-0.0756135635825265,0.03944898230067062]",4.0,"[0.0796801872309251,0.09417454392098838]",4.0,"[-0.007959823601203021,0.096667879034777]",100.0,"[0.007951885785631264,0.05962634218060097]",100.0,"[-0.11101121990899676,0.12665135080996606]",4.0,"[0.18896094291851215,-0.017628132991144373]",4.0,"[0.14229635095365128,0.03047016068346681]",100.0,"[-0.041948068762178846,0.0007171657046985535]",100.0,"[0.15860745109588395,0.09826218858897338]",100.0,"[-0.04438674432120555,0.11986240112309636]",4.0,"[-0.07597334873324428,0.08078538264754116]",100.0,"[-0.1859749305183352,-0.07143401082960968]",4.0,"[0.03472163401263678,0.18263240445433016]",4.0,"[0.05193477513226586,-0.06990442090393922]",4.0,"[0.0346241396067721,0.08957190216344518]",4.0,"[-0.12151910718104086,0.054390300213560575]",100.0,"[-0.08192079850581914,-0.03469768832042497]",100.0,"[0.02,0.02]",224.3443,0.0,43.0,43.0,162.0,1.0,,,,,,,
,,,,,,,678e394d5908a64d41ba0bd1,6844293f136f67aece87c25e,2025-06-07_14h00.04.330,shape_ratio,2024.1.5,Win32,60.60606061,684250e4f00cb30b92d1fa88,,,,,,,,,,,224.3454,224.844,,,225.0953,225.6338,right,,,,,,,,0.5,0.5192,,,,,,,224.8442,225.095,225.6339,"[-0.08210160494330701,0.14531522471975702]",100.0,"[-0.01063273621738092,-0.02747670304379561]",100.0,"[0.14019858731030788,0.14251513624209342]",4.0,"[-0.15953218094699673,0.08310021432933593]",100.0,"[-0.026752324420214347,0.18954677981316256]",100.0,"[-0.12904030063160313,-0.08253795421906887]",100.0,"[-0.06688264522608009,-0.03390273040875001]",4.0,"[-0.08330131842782826,0.1041106769754514]",100.0,"[-0.17441045099882518,-0.03227809306300607]",100.0,"[-0.1418506536685192,0.007729593637984968]",4.0,"[-0.047441418520107914,-0.15070111917471918]",4.0,"[0.034064817423646615,0.17866533221403832]",4.0,"[-0.03135706502425337,0.08925001505408693]",4.0,"[-0.00596935476260085,-0.10671398543845337]",4.0,"[-0.1186550301938757,-0.13101537722566423]",100.0,"[0.12963638222444868,0.036984593969980634]",100.0,"[0.14702827314855027,-0.0762039933113176]",100.0,"[0.0881346245122272,0.16498679175630707]",100.0,"[0.1708782101965295,0.10024350312591747]",4.0,"[0.03536416363561632,0.11116991757964435]",4.0,"[-0.15221129564864494,0.12542298182111214]",100.0,"[-0.1725580552212655,-0.0813682470328533]",4.0,"[0.15169063612148015,-0.12863080368874374]",100.0,"[0.10040093705178371,-0.03277972208838138]",100.0,"[0.009704114269214924,-0.19076973826512064]",4.0,"[0.05415114079207343,-0.17947862542549475]",100.0,"[0.0855535960386918,0.08016532269756944]",4.0,"[0.017025166853500445,0.047427253588427865]",4.0,"[0.0833753650430614,-0.14135296059459324]",100.0,"[0.08532687260612333,0.02621647259122428]",4.0,"[0.18798520712138003,-0.00944583836202074]",4.0,"[-0.07155485208890536,-0.08888363716645958]",4.0,"[0.02,0.02]",226.7249,0.0,44.0,44.0,93.0,1.0,,,,,,,
,,,,,,,678e394d5908a64d41ba0bd1,6844293f136f67aece87c25e,2025-06-07_14h00.04.330,shape_ratio,2024.1.5,Win32,60.60606061,684250e4f00cb30b92d1fa88,,,,,,,,,,,226.7264,227.2253,,,227.4768,228.0786,right,,,,,,,,0.1,0.582,,,,,,,227.2253,227.4765,228.0787,"[-0.052191782952195176,-0.08654641920633999]",4.0,"[0.031166176428040843,0.005604461361809942]",4.0,"[0.19548787371248294,-0.039996281307600925]",4.0,"[0.15460409767845187,0.044293079867335286]",4.0,"[0.016478609658510012,0.10469578692196034]",4.0,"[-0.0789585352352104,0.08345048485355248]",4.0,"[-0.038606800319275866,-0.15859933316590163]",4.0,"[-0.13886394908553382,0.07275413976092705]",4.0,"[-0.14203182287235291,-0.01933367975438963]",4.0,"[0.10533108682334716,-0.03821699347396595]",4.0,"[-0.03773427694506498,0.0015383428793430151]",100.0,"[-0.11957850699692511,-0.07879456157041241]",4.0,"[0.01862867365370757,-0.18128695734247288]",4.0,"[0.011590690787246078,0.18099762400571837]",4.0,"[0.11522080709026689,-0.12817761446736986]",4.0,"[0.06725505516968282,-0.1641144545965071]",100.0,"[0.01512994909772181,-0.04920078873446019]",4.0,"[0.057833141337240185,-0.06684833383396095]",4.0,"[-0.18661384499835956,0.025972505822793156]",4.0,"[-0.0487808791906828,-0.045257660589033334]",4.0,"[0.0444676800219045,-0.1277973173680229]",4.0,"[-0.17219301376172283,-0.050626254925867815]",4.0,"[0.06953293619464847,0.054409882279738496]",4.0,"[-0.1088205557892805,0.03745822255834253]",4.0,"[-0.0745723275745237,-0.13382724177241218]",4.0,"[-0.05425823348654375,0.1504137141719511]",4.0,"[0.12296474329891385,0.12153135392562645]",4.0,"[0.07763554070591963,0.0009931593458101164]",4.0,"[-0.003614402354265855,0.03823704258147796]",4.0,"[0.14499541048965306,0.08492391425222975]",100.0,"[0.06933137448281021,0.15035292161268057]",4.0,"[0.06609764242666759,0.10147212666598071]",4.0,"[0.02,0.02]",229.1732,0.0,45.0,45.0,200.0,1.0,,,,,,,
,,,,,,,678e394d5908a64d41ba0bd1,6844293f136f67aece87c25e,2025-06-07_14h00.04.330,shape_ratio,2024.1.5,Win32,60.60606061,684250e4f00cb30b92d1fa88,,,,,,,,,,,229.1748,229.6724,,,229.9275,230.4931,left,,,,,,,,0.9,0.5518,,,,,,,229.6726,229.9274,230.4931,"[0.1582420358852295,-0.11647434587276347]",4.0,"[0.11539959626279889,-0.00013697502421794366]",100.0,"[-0.1412110840546899,-0.05101403734039773]",100.0,"[0.028752559831573554,-0.024221949377288]",100.0,"[-0.12218970803793532,-0.1409833988929748]",100.0,"[0.06381072938622315,0.10538249320710211]",100.0,"[0.020130897516697922,-0.11727215266773519]",100.0,"[0.16277323851435127,-0.04102162704996744]",100.0,"[-0.006657719699198491,0.1578051875748827]",100.0,"[0.08604892160695758,0.141648017332091]",100.0,"[0.07926177674342018,-0.11075324737057654]",100.0,"[0.12305347998473759,0.09566112148565295]",100.0,"[-0.08292453365021048,0.1302364831989233]",100.0,"[-0.034686377684584,0.07033294708107671]",100.0,"[-0.12136920089928854,0.02608161671359185]",100.0,"[-0.02207344181397664,-0.0813604704729135]",100.0,"[-0.08945326116629565,-0.031304891137937794]",100.0,"[0.04271474719923705,0.16793437464705413]",100.0,"[-0.013949782454194972,-0.1496464236996555]",100.0,"[-0.08218395591203463,0.08531784144445924]",100.0,"[0.0748360083871058,0.051374922164285686]",100.0,"[-0.0767449821454192,-0.17671925551803]",100.0,"[-0.1042111962532071,-0.09659328860114559]",100.0,"[-0.0185326474253796,-0.1951887710388597]",100.0,"[0.19522520992721548,0.02836704464061949]",100.0,"[-0.01298244491199323,0.19783224259346502]",100.0,"[-0.13568309912380883,0.1289710311789084]",100.0,"[0.1375616160745285,0.052638659744018663]",100.0,"[0.025494295528778965,-0.17427233386064112]",100.0,"[0.017017307303876433,0.04455500752209493]",100.0,"[-0.03689521767738717,0.02686714631620453]",4.0,"[0.009904155187569203,0.08951822485604578]",4.0,"[0.02,0.02]",231.5863,0.0,46.0,46.0,15.0,1.0,,,,,,,
,,,,,,,678e394d5908a64d41ba0bd1,6844293f136f67aece87c25e,2025-06-07_14h00.04.330,shape_ratio,2024.1.5,Win32,60.60606061,684250e4f00cb30b92d1fa88,,,,,,,,,,,231.5881,232.0855,,,232.3272,232.819,right,,,,,,,,0.1,0.4699,,,,,,,232.0856,232.3271,232.8191,"[0.029977757300687503,-0.14843536488444206]",4.0,"[0.12231763539273763,0.112495171241401]",4.0,"[0.0011866493771479395,0.01645129271788256]",4.0,"[0.07172407501658153,-0.10271653724444606]",4.0,"[-0.06213602066087309,-0.023785897825697632]",4.0,"[-0.1466486823127283,-0.13319316723703722]",4.0,"[0.006045225860636677,0.19377849238763267]",4.0,"[0.18239191568260257,0.04095315683671016]",4.0,"[-0.12461714737927178,-0.0808891533805664]",100.0,"[0.07853873181570332,0.13413980324545885]",4.0,"[-0.17310770599861092,0.000172084261059726]",4.0,"[0.14455826236128694,-0.12778908060562574]",4.0,"[-0.18515711924366818,0.05474045749145844]",4.0,"[0.12174462131033872,0.023090616488724854]",4.0,"[0.0592186747219286,0.17789996178132653]",4.0,"[0.04521609829407956,0.09255225943074609]",4.0,"[0.16508672561066093,0.08377152608079465]",4.0,"[-0.01009082718669013,0.11139790568510194]",4.0,"[-0.15365458974859253,0.0832745011567337]",100.0,"[0.060625965368815794,0.015552944580500879]",4.0,"[-0.0927654630056406,-0.053214379883855245]",4.0,"[0.12888908981723596,-0.018675569450024968]",4.0,"[0.02617900339076339,-0.07699426580368107]",4.0,"[0.044084707142072715,-0.028351978343365114]",4.0,"[-0.10513185064928836,0.16188652823769803]",4.0,"[-0.036222002952606316,-0.10724986546258097]",4.0,"[-0.03051521590069561,-0.16956308290149294]",4.0,"[-0.07477049011792823,-0.17840958984307853]",4.0,"[-0.06046512636327125,0.11643472116457164]",4.0,"[-0.013818207262073374,-0.061226631720909946]",4.0,"[-0.10440262359536012,-0.13431662126435645]",4.0,"[-0.05471478157464404,-0.06756599601815061]",100.0,"[0.02,0.02]",233.918,0.0,47.0,47.0,192.0,1.0,,,,,,,
,,,,,,,678e394d5908a64d41ba0bd1,6844293f136f67aece87c25e,2025-06-07_14h00.04.330,shape_ratio,2024.1.5,Win32,60.60606061,684250e4f00cb30b92d1fa88,,,,,,,,,,,233.9204,234.418,,,234.6714,235.3011,left,,,,,,,,0.4,0.6086,,,,,,,234.4182,234.6713,235.3012,"[-0.06999328048952107,-0.04765417457323389]",4.0,"[0.057598914177243866,-0.17110460395659688]",4.0,"[0.1296151934618645,0.1419959981778796]",4.0,"[-0.010187994153008554,-0.013346498333486886]",100.0,"[0.15993653992877532,-0.08453780761066362]",4.0,"[0.057273038320336554,0.06222021700750704]",100.0,"[0.10485658258331815,-0.10485981075609295]",4.0,"[0.037236020794003656,0.12709555855827342]",4.0,"[0.022034939590860943,-0.04488868017138468]",4.0,"[-0.007100538267312699,-0.07355803140912252]",100.0,"[-0.09327746493739439,0.08870652555818044]",4.0,"[-0.04407744177952305,0.0485589043781738]",4.0,"[-0.19171199080370904,0.005134489737880264]",100.0,"[-0.042301729772928925,0.1751882620925932]",4.0,"[-0.17790300082029226,0.05612579199790139]",100.0,"[-0.017515261633202883,-0.17649652833387136]",100.0,"[0.07781913844971296,-0.0075372861379799155]",4.0,"[-0.11302904801265454,-0.16082887339176372]",4.0,"[-0.15074854721120165,-0.11453150597494942]",100.0,"[-0.0961297975880071,0.03961777777865803]",100.0,"[-0.14774407679949797,-0.04351146205205443]",100.0,"[0.12209179205537334,0.05950377967852459]",100.0,"[0.03022739557063872,-0.09468556654737467]",100.0,"[-0.0010268046096403884,0.179475241391638]",4.0,"[0.15142353399181166,-0.027837561177421026]",4.0,"[-0.018022469487505705,-0.12094409558620837]",4.0,"[0.12335741570373172,0.013800739930632872]",4.0,"[0.04649397675172735,0.17554589540951113]",4.0,"[-0.10623128702196821,-0.11096454318522535]",100.0,"[-0.13253808511521278,0.005251925686827451]",4.0,"[-0.008710577785317553,0.07887857679702692]",4.0,"[-0.0484424259591135,-0.09411505047371838]",100.0,"[0.02,0.02]",236.3987,0.0,48.0,48.0,159.0,1.0,,,,,,,
,,,,,,,678e394d5908a64d41ba0bd1,6844293f136f67aece87c25e,2025-06-07_14h00.04.330,shape_ratio,2024.1.5,Win32,60.60606061,684250e4f00cb30b92d1fa88,,,,,,,,,,,236.4007,236.8989,,,237.1504,237.6835,left,,,,,,,,0.9,0.5209,,,,,,,236.899,237.1503,237.6843,"[0.1396054271116869,0.03479364162782706]",100.0,"[0.00017945641001455078,-0.06486219902311247]",100.0,"[-0.08768654138173458,-0.011002813583396914]",100.0,"[-0.175160696602025,0.0033373885101918373]",100.0,"[-0.17813092772104808,-0.08864314263302486]",100.0,"[-0.015111088903578755,-0.14605215337233515]",100.0,"[0.13662298463703784,-0.07386928922695922]",100.0,"[0.08459869336802564,-0.14556154451301975]",100.0,"[0.07669345315434797,0.049446257606240246]",100.0,"[-0.11383858911753429,-0.14863959255738957]",100.0,"[-0.13493701179634843,0.14535692386333815]",100.0,"[-0.06301311719621926,0.08044602186863495]",100.0,"[0.01775075648826333,0.09229257324919997]",100.0,"[0.09945643215935308,0.1479014903249981]",100.0,"[0.16373577004063292,0.06766770504483745]",100.0,"[-0.042331824210391,-0.04265677757899436]",100.0,"[0.005278437143116096,-0.19474051166670212]",100.0,"[0.032677147105197535,-0.0009061527172552166]",100.0,"[-0.1674401826707498,0.10144402203508435]",100.0,"[-0.12823385029554968,-0.007981049040977878]",100.0,"[-0.11618341635957997,-0.07698778377188589]",100.0,"[-0.08393864382476844,0.17036163631368897]",100.0,"[-0.08860774753625718,0.04786852762978293]",100.0,"[-0.03265954185331756,0.045293891558786714]",100.0,"[-0.10340710237058975,0.12030771704381148]",100.0,"[-0.18708517161763424,0.06120215153235297]",100.0,"[0.04658077062365145,0.14594074410584784]",4.0,"[0.0168844376822618,0.18608079530510802]",4.0,"[-0.14105922249644398,0.05053199863397251]",100.0,"[0.17162790122262614,-0.01612137682194277]",100.0,"[-0.0330299660036062,-0.10855481575242278]",100.0,"[0.08000397470893879,0.10859499996350723]",4.0,"[0.02,0.02]",238.7801,0.0,49.0,49.0,26.0,1.0,,,,,,,
