right,left,explain.started,explain.stopped,key_resp_3.keys,key_resp_3.rt,key_resp_3.duration,participant,session,date,expName,psychopyVersion,OS,frameRate,study_id,explain_2.started,explain_2.stopped,key_resp_4.keys,key_resp_4.rt,key_resp_4.duration,explain_3.started,explain_3.stopped,key_resp_5.keys,key_resp_5.rt,key_resp_5.duration,fixation.started,fixation.stopped,practice.started,practice.stopped,response.started,response.stopped,key_resp.keys,key_resp.rt,key_resp.duration,feedback.started,feedback.stopped,trials_2.thisRepN,trials_2.thisTrialN,trials_2.thisN,trials_2.thisIndex,trials_2.ran,dot_ratio,explain_4.started,explain_4.stopped,key_resp_6.keys,key_resp_6.rt,key_resp_6.duration,dotDisplay.started,dotDisplay.stopped,ITI.started,polygon_1.pos,polygon_1.edges,polygon_2.pos,polygon_2.edges,polygon_3.pos,polygon_3.edges,polygon_4.pos,polygon_4.edges,polygon_5.pos,polygon_5.edges,polygon_6.pos,polygon_6.edges,polygon_7.pos,polygon_7.edges,polygon_8.pos,polygon_8.edges,polygon_9.pos,polygon_9.edges,polygon_10.pos,polygon_10.edges,polygon_11.pos,polygon_11.edges,polygon_12.pos,polygon_12.edges,polygon_13.pos,polygon_13.edges,polygon_14.pos,polygon_14.edges,polygon_15.pos,polygon_15.edges,polygon_16.pos,polygon_16.edges,polygon_17.pos,polygon_17.edges,polygon_18.pos,polygon_18.edges,polygon_19.pos,polygon_19.edges,polygon_20.pos,polygon_20.edges,polygon_21.pos,polygon_21.edges,polygon_22.pos,polygon_22.edges,polygon_23.pos,polygon_23.edges,polygon_24.pos,polygon_24.edges,polygon_25.pos,polygon_25.edges,polygon_26.pos,polygon_26.edges,polygon_27.pos,polygon_27.edges,polygon_28.pos,polygon_28.edges,polygon_29.pos,polygon_29.edges,polygon_30.pos,polygon_30.edges,polygon_31.pos,polygon_31.edges,polygon_32.pos,polygon_32.edges,dot_size,ITI.stopped,trials.thisRepN,trials.thisTrialN,trials.thisN,trials.thisIndex,trials.ran,break_2.started,break_2.stopped,trials_3.thisRepN,trials_3.thisTrialN,trials_3.thisN,trials_3.thisIndex,trials_3.ran
subject chose dot,subject chose diamond,0.0005,59.2547,space,44.2187,,67ab0c530956db6bcc65f096,6842bbf2af60556d55078113,2025-06-06_12h02.41.785,shape_ratio,2024.1.5,Win32,29.76190476,6842b561977af9ba9b0f87ca,,,,,,,,,,,,,,,,,,,,,,,,,,,,,,,,,,,,,,,,,,,,,,,,,,,,,,,,,,,,,,,,,,,,,,,,,,,,,,,,,,,,,,,,,,,,,,,,,,,,,,,,,,,,,,,,,
,,,,,,,67ab0c530956db6bcc65f096,6842bbf2af60556d55078113,2025-06-06_12h02.41.785,shape_ratio,2024.1.5,Win32,29.76190476,6842b561977af9ba9b0f87ca,59.2555,100.7201,space,11.4139,,,,,,,,,,,,,,,,,,,,,,,,,,,,,,,,,,,,,,,,,,,,,,,,,,,,,,,,,,,,,,,,,,,,,,,,,,,,,,,,,,,,,,,,,,,,,,,,,,,,,,,,,,,,,
,,,,,,,67ab0c530956db6bcc65f096,6842bbf2af60556d55078113,2025-06-06_12h02.41.785,shape_ratio,2024.1.5,Win32,29.76190476,6842b561977af9ba9b0f87ca,,,,,,100.7203,106.0877,space,2.3113,,,,,,,,,,,,,,,,,,,,,,,,,,,,,,,,,,,,,,,,,,,,,,,,,,,,,,,,,,,,,,,,,,,,,,,,,,,,,,,,,,,,,,,,,,,,,,,,,,,,,,,,
,,,,,,,67ab0c530956db6bcc65f096,6842bbf2af60556d55078113,2025-06-06_12h02.41.785,shape_ratio,2024.1.5,Win32,29.76190476,6842b561977af9ba9b0f87ca,,,,,,,,,,,106.1264,106.6195,106.6199,106.8536,106.8538,107.6537,left,0.7573,,107.6541,108.7539,0.0,0.0,0.0,1.0,1.0,0.8,,,,,,,,,,,,,,,,,,,,,,,,,,,,,,,,,,,,,,,,,,,,,,,,,,,,,,,,,,,,,,,,,,,,,,,,,,,,,,,,,,,,,,
,,,,,,,67ab0c530956db6bcc65f096,6842bbf2af60556d55078113,2025-06-06_12h02.41.785,shape_ratio,2024.1.5,Win32,29.76190476,6842b561977af9ba9b0f87ca,,,,,,,,,,,108.7554,109.2524,109.2525,109.4882,109.4883,109.9199,right,0.4157,,109.9203,111.0206,0.0,1.0,1.0,0.0,1.0,0.2,,,,,,,,,,,,,,,,,,,,,,,,,,,,,,,,,,,,,,,,,,,,,,,,,,,,,,,,,,,,,,,,,,,,,,,,,,,,,,,,,,,,,,
,,,,,,,67ab0c530956db6bcc65f096,6842bbf2af60556d55078113,2025-06-06_12h02.41.785,shape_ratio,2024.1.5,Win32,29.76190476,6842b561977af9ba9b0f87ca,,,,,,,,,,,,,,,,,,,,,,,,,,,,111.0217,120.1881,space,6.1099,,,,,,,,,,,,,,,,,,,,,,,,,,,,,,,,,,,,,,,,,,,,,,,,,,,,,,,,,,,,,,,,,,,,,,,,,,,,,,,,,,
,,,,,,,67ab0c530956db6bcc65f096,6842bbf2af60556d55078113,2025-06-06_12h02.41.785,shape_ratio,2024.1.5,Win32,29.76190476,6842b561977af9ba9b0f87ca,,,,,,,,,,,120.2168,120.7199,,,120.9553,121.3539,left,0.3677,,,,,,,,,0.45,,,,,,120.721,120.9552,121.3551,"[-0.003485171479471228,0.0554123805555008]",4.0,"[0.000876340341623258,-0.18496747904407676]",100.0,"[0.1717612684086354,0.06897438566995073]",4.0,"[-0.015334341096521532,0.015195981156108951]",4.0,"[0.12898470763245395,-0.049554452453229814]",4.0,"[-0.19642715711666792,0.03692066156057522]",4.0,"[-0.12163234000394128,0.14278733657943643]",4.0,"[0.03190669618087941,-0.1462881874881466]",100.0,"[0.02932024684630233,0.030708891755478394]",4.0,"[-0.016358784663965894,-0.06140673406843564]",4.0,"[-0.08478539166307335,0.027119860263292425]",100.0,"[0.0010484016277567685,0.14160084695368777]",4.0,"[-0.15689006684463191,-0.02585262331288642]",100.0,"[-0.13961770227878367,0.04460264214734316]",100.0,"[-0.06987875118279484,0.12791141869205486]",4.0,"[0.14254382185681017,0.016443620569538218]",4.0,"[0.1392716753989493,0.1289814608216818]",100.0,"[0.10401511088956293,0.060390651388891624]",100.0,"[-0.025363855056275645,-0.1462363793729956]",100.0,"[0.19785363060026517,0.017886184705722754]",100.0,"[0.09039961361783294,-0.13074578463219838]",4.0,"[-0.04326015099891615,-0.1906554442241547]",100.0,"[0.045108100672046535,0.14441361460192517]",100.0,"[-0.10838398587167823,-0.04987725392259286]",100.0,"[0.04685708400692946,0.07010267487792887]",100.0,"[-0.01268652030534645,-0.10674413475297063]",100.0,"[-0.1870280240951492,-0.07047145362132957]",4.0,"[-0.03778102751543882,0.16229738676336197]",4.0,"[-0.1738786987079589,0.07366714516974233]",4.0,"[-0.07087715671605405,-0.01634186745480811]",4.0,"[0.18331619066765018,-0.061535159958890064]",4.0,"[-0.11307559063298965,-0.1561749168049828]",4.0,"[0.02,0.02]",122.4536,0.0,0.0,0.0,126.0,1.0,,,,,,,
,,,,,,,67ab0c530956db6bcc65f096,6842bbf2af60556d55078113,2025-06-06_12h02.41.785,shape_ratio,2024.1.5,Win32,29.76190476,6842b561977af9ba9b0f87ca,,,,,,,,,,,122.4547,122.9535,,,123.1879,123.5207,right,0.3097,,,,,,,,,0.45,,,,,,122.9536,123.1878,123.5208,"[0.14766968507997705,-0.06935439946518268]",100.0,"[0.12061767575342723,-0.021159720620032307]",4.0,"[-0.07200599769114778,-0.10322281863400423]",4.0,"[-0.17899549435504855,0.037705407375624306]",4.0,"[0.04189437751211211,0.015326024132668528]",100.0,"[0.10357621425184076,-0.1644867784584379]",4.0,"[0.057421002299206464,0.18577957372905068]",4.0,"[0.008662127944279214,0.14540702167290986]",100.0,"[-0.12690063290889547,0.05921184012975607]",4.0,"[-0.14395683112083094,-0.08028461249684098]",100.0,"[-0.04216548216913365,0.1523641429660373]",100.0,"[0.12956383379398048,0.027207322632274652]",100.0,"[0.14558321947841638,0.10650436801749581]",4.0,"[-0.020766448583550506,-0.030672772758437397]",4.0,"[0.017334617489583978,-0.07321941184963701]",4.0,"[-0.06072171948543434,0.03393412978848396]",100.0,"[-0.021906432183411748,-0.13171785088836163]",100.0,"[-0.1305197447506173,0.014304990155917114]",100.0,"[0.056262367731263994,0.05929091364162674]",100.0,"[-0.02979644438809045,-0.1967353219372632]",4.0,"[-0.10181767393043512,-0.14543040252666925]",4.0,"[-0.17752395545137092,-0.044744929092244486]",100.0,"[0.1098333054392555,0.1650031971611768]",4.0,"[-0.0363128408636003,0.06701928982453462]",4.0,"[0.044302503856234486,-0.17788915575530598]",4.0,"[-0.06996509927685031,-0.061566921778936454]",100.0,"[0.0008959305118945664,0.01395402671785725]",4.0,"[-0.061095403777131393,-0.011528971652538755]",4.0,"[0.11430389947085196,0.07478798311095078]",100.0,"[0.07580627766551279,-0.0738440608524515]",100.0,"[0.19720275467199477,0.006048727155389622]",4.0,"[-0.1432128461825312,-0.13049640988402345]",4.0,"[0.02,0.02]",124.6205,0.0,1.0,1.0,125.0,1.0,,,,,,,
,,,,,,,67ab0c530956db6bcc65f096,6842bbf2af60556d55078113,2025-06-06_12h02.41.785,shape_ratio,2024.1.5,Win32,29.76190476,6842b561977af9ba9b0f87ca,,,,,,,,,,,124.6214,125.122,,,125.3571,125.9025,left,0.5192,,,,,,,,,0.6,,,,,,125.122,125.3571,125.9029,"[-0.09972771624333573,-0.08186487412861893]",4.0,"[-0.013454198888779394,-0.017854177982985095]",4.0,"[0.13395771861003203,-0.13043750387768724]",100.0,"[0.05616400686953204,-0.026784924900113936]",100.0,"[-0.0065429476618015835,-0.096874676223801]",4.0,"[-0.012689130480678478,0.12723192461537094]",4.0,"[-0.052053599881613476,0.030517657929801455]",100.0,"[0.09000510893625698,0.059673052556326205]",100.0,"[-0.17965932491371361,0.08379671475348337]",100.0,"[-0.10192151130036696,0.10871592219548486]",100.0,"[0.07476537570621962,0.16004775211362238]",100.0,"[-0.10019847488744105,-0.16309397801552009]",4.0,"[0.19195750653369317,-0.022266502008539187]",100.0,"[0.1299983363532232,0.11858478758639174]",100.0,"[-0.016040106881439118,-0.1771953758551441]",100.0,"[0.041749591076284225,-0.165113831133573]",100.0,"[0.1354051000221972,-0.06638549220114853]",4.0,"[0.05225362461493031,0.02818423256141465]",100.0,"[-0.14305902468981802,-0.013112775605369675]",100.0,"[-0.12150375604582554,0.15567100622853852]",4.0,"[0.17567579937586664,-0.08414256772862018]",4.0,"[-0.17439183108491768,0.026394190396495088]",100.0,"[0.03836686522532157,-0.0782946682074885]",4.0,"[-0.053055049476313794,-0.1595461662516807]",4.0,"[0.08261361136856223,0.11706059341959102]",4.0,"[-0.05781471754848088,0.1527385785054794]",100.0,"[0.09895228981207813,-0.16303424799600205]",100.0,"[-0.09564612466161128,0.017581446267825495]",100.0,"[0.021958039697595137,0.15295984390222295]",4.0,"[0.17226816378875492,0.093612459451863]",100.0,"[0.087802722363458,-0.12101822876970914]",100.0,"[-0.17164391944755267,-0.06899494892391968]",4.0,"[0.02,0.02]",126.9865,0.0,2.0,2.0,34.0,1.0,,,,,,,
,,,,,,,67ab0c530956db6bcc65f096,6842bbf2af60556d55078113,2025-06-06_12h02.41.785,shape_ratio,2024.1.5,Win32,29.76190476,6842b561977af9ba9b0f87ca,,,,,,,,,,,126.9873,127.4864,,,127.7211,129.2205,,,,,,,,,,,0.45,,,,,,127.4864,127.721,129.2207,"[0.17918444699742753,-0.071160600045206]",100.0,"[0.0911242821644664,0.05831917719877573]",100.0,"[0.055528590420118984,-0.1897243510491045]",4.0,"[0.06046649025765159,0.1347608439799003]",4.0,"[0.008161825147351792,0.007812923333996255]",100.0,"[0.1410950226561729,-0.03971694168037741]",4.0,"[-0.1128657750136264,0.14786815695462424]",4.0,"[-0.01463000691586648,0.1283832848278817]",4.0,"[-0.005766730510049293,0.18809146016252457]",4.0,"[-0.11123698962888372,-0.10829819657573643]",100.0,"[0.08309623476920973,-0.10699335892955837]",4.0,"[-0.1472801193437368,0.009597134961178904]",4.0,"[-0.15213686390672207,-0.09414504666212012]",100.0,"[0.0777686565807103,-0.017988042528755077]",4.0,"[-0.0021483706413183506,-0.04947166267093661]",100.0,"[-0.15898254104975365,0.06763981464169118]",4.0,"[0.10930595681586895,-0.06856257756825392]",4.0,"[-0.1005270066326368,0.0246157947010534]",100.0,"[-0.19128028527859675,-0.01626162347275806]",4.0,"[0.021451918964535178,-0.14008519139023326]",100.0,"[-0.060122730286836235,-0.13160775382823983]",100.0,"[0.0968419467665242,0.17149089028615397]",4.0,"[-0.05305611068716127,0.0940334767824583]",4.0,"[-0.055758908553293934,-0.17940275398997194]",4.0,"[0.04548388344501086,0.06115373455306376]",100.0,"[0.1826234954130062,0.019645864447160162]",100.0,"[-0.09287870432432857,-0.040721665779277334]",4.0,"[-0.03264463301402829,0.027073122385052426]",100.0,"[-0.13517612565239576,-0.14734524804698093]",100.0,"[-0.16340856169237,0.11128170530384367]",4.0,"[0.10804286275060997,0.021082108962262577]",4.0,"[-0.07828575880790871,0.17033064133813955]",100.0,"[0.02,0.02]",130.3195,0.0,3.0,3.0,131.0,1.0,,,,,,,
,,,,,,,67ab0c530956db6bcc65f096,6842bbf2af60556d55078113,2025-06-06_12h02.41.785,shape_ratio,2024.1.5,Win32,29.76190476,6842b561977af9ba9b0f87ca,,,,,,,,,,,130.3202,130.8199,,,131.0546,132.5574,,,,,,,,,,,0.5,,,,,,130.8201,131.0544,132.5575,"[0.02646719347218536,0.13373298914309428]",100.0,"[-0.1415363149551335,-0.03419503531463553]",4.0,"[0.11440251289995593,-0.041679684012475814]",4.0,"[-0.017376037533102344,0.058133942407947566]",100.0,"[0.16947020974258428,0.08646856199039721]",100.0,"[-0.030030396263837956,-0.15800815908875257]",100.0,"[0.03094135891158528,-0.07644158032507431]",100.0,"[0.04373276428569187,0.0012902500291444902]",100.0,"[0.05368370461420662,-0.11040082842977483]",100.0,"[-0.0012507086690640632,0.17252498291598115]",100.0,"[-0.04636653436388981,-0.026989769508753366]",4.0,"[-0.10552224535000314,-0.08576773446279677]",100.0,"[0.09377721327641406,0.0006752078251020184]",4.0,"[-0.09999037195408035,0.14095483606491058]",4.0,"[0.06566967046048836,0.12370876259736348]",4.0,"[-0.1759859958313582,0.047487576354942086]",4.0,"[-0.06472765155979213,-0.11626616517141139]",100.0,"[0.18009119542458016,-0.05693438920089147]",100.0,"[-0.12816566118527298,0.06967180307180529]",4.0,"[-0.18704203631144442,-0.0019472775291850695]",4.0,"[-0.06634348676761062,0.11682096971631092]",100.0,"[-0.034230900332341684,-0.06901507016226295]",100.0,"[0.10633105153077235,0.15225198055480724]",4.0,"[0.09735584456856662,-0.12415987075372707]",4.0,"[0.07202029733033122,-0.06840106987490553]",100.0,"[-0.11402509076159502,0.002555529647468239]",4.0,"[0.19110248515059605,0.006136104118529435]",4.0,"[0.06343541529692497,0.07234136341137719]",4.0,"[-0.1194003913277252,-0.14902528669213647]",100.0,"[0.040016482719119104,-0.1696131204532444]",100.0,"[0.08181875916817623,-0.17456979568351785]",4.0,"[-0.16993327109960482,-0.10473680686429095]",4.0,"[0.02,0.02]",133.6524,0.0,4.0,4.0,94.0,1.0,,,,,,,
,,,,,,,67ab0c530956db6bcc65f096,6842bbf2af60556d55078113,2025-06-06_12h02.41.785,shape_ratio,2024.1.5,Win32,29.76190476,6842b561977af9ba9b0f87ca,,,,,,,,,,,133.6527,134.1414,,,134.3859,134.5857,right,0.1735,,,,,,,,,0.45,,,,,,134.1415,134.3859,134.5857,"[-0.07407945731139434,0.004101725198178662]",100.0,"[0.08727469535853921,-0.03235986020587441]",100.0,"[-0.05939110016252027,-0.1320121479687251]",100.0,"[0.07874281085595825,-0.15269196221211487]",100.0,"[0.004490472330958981,-0.07286300067504634]",4.0,"[-0.16920567316383398,-0.10064324717058253]",4.0,"[-0.02973380182062369,-0.0016052735056003241]",4.0,"[0.042871726856559315,0.189471878790926]",100.0,"[0.12443609305634998,0.13965563131278905]",100.0,"[-0.17308678335790245,0.09822022393625589]",100.0,"[0.11351142345354007,-0.07575690746175086]",100.0,"[-0.11964892890521346,0.04884503067774455]",4.0,"[-0.05263124413459422,0.1703483708689286]",4.0,"[0.0767047749298301,0.03982958959287448]",4.0,"[0.03911171304620568,-0.10150533659067204]",4.0,"[0.10580420386806311,0.08114655440015336]",100.0,"[0.0169564718515735,-0.17739306499666896]",100.0,"[-0.07822254035228911,0.13527683011404815]",4.0,"[-0.015634501996789386,0.11872618069550617]",100.0,"[0.18887724186669758,-0.0037453413163230343]",100.0,"[-0.07233175832873187,-0.1734292591532799]",4.0,"[0.15352326356252963,0.018410079448806238]",4.0,"[0.04306707985953713,0.13505590653472188]",100.0,"[0.07983352721566858,0.16774731464347584]",4.0,"[-0.09684294611977164,-0.07746443642834279]",4.0,"[0.13299006683995218,-0.13733606533568762]",4.0,"[-0.19812516924311566,0.00381663587834535]",4.0,"[-0.15229415432064822,-0.04188144421426436]",4.0,"[0.003296328188794002,-0.025068222624185527]",4.0,"[-0.11461999493502634,0.16055493261906564]",4.0,"[-0.014098592686803201,0.05877539057451668]",4.0,"[-0.07420585476961475,-0.044121496053308715]",100.0,"[0.02,0.02]",135.6857,0.0,5.0,5.0,136.0,1.0,,,,,,,
,,,,,,,67ab0c530956db6bcc65f096,6842bbf2af60556d55078113,2025-06-06_12h02.41.785,shape_ratio,2024.1.5,Win32,29.76190476,6842b561977af9ba9b0f87ca,,,,,,,,,,,135.6862,136.1855,,,136.4407,136.6692,right,0.2096,,,,,,,,,0.6,,,,,,136.1855,136.4407,136.6693,"[0.05852989489560324,0.15127097771500847]",100.0,"[-0.12397348987722097,0.1394603051937207]",4.0,"[0.18844513042739924,0.03438734343907107]",100.0,"[0.08642370381586582,-0.17263475264693778]",4.0,"[0.12094515659974675,-0.05444823269985623]",4.0,"[0.11626534740191588,-0.1147142059399656]",4.0,"[-0.00906673819638601,0.10803617882908896]",4.0,"[0.1100688525800007,0.15837042824855477]",100.0,"[0.0984182348998632,0.06839159070215553]",100.0,"[0.06907185830004861,-0.02220983180542079]",4.0,"[0.04852216271891349,-0.09062073909088919]",100.0,"[-0.11632771702836918,-0.07506072293131208]",4.0,"[-0.11516899828263684,-0.1622856194365093]",100.0,"[-0.04395920974144596,-0.12327137678698734]",100.0,"[0.1496335729039177,0.014147817551230452]",100.0,"[-0.03614913429028659,0.13949884560136241]",100.0,"[-0.07728846078049557,0.067492701183549]",4.0,"[0.163328753055797,0.10849381090741025]",100.0,"[0.19118029565428868,-0.04487781482028906]",100.0,"[-0.17584546813726964,0.06781347131831486]",100.0,"[-0.17400441383189008,0.02553135587446295]",100.0,"[0.01979311117043343,0.05367143601342032]",4.0,"[-0.08740449844241033,0.16821227710897663]",100.0,"[-0.15359752889710912,-0.09404100196005012]",4.0,"[0.15949931121521846,-0.0826498766123587]",100.0,"[-0.02804740756254414,-0.1791733288655751]",100.0,"[-0.12026844399364908,-0.11947399791905293]",4.0,"[-0.07325978450242183,-0.04714079382949245]",100.0,"[-0.03008798655743683,-0.023883780506130433]",100.0,"[0.05119213876937192,-0.1344720345198597]",100.0,"[-0.09582571703769308,0.011963761714575688]",4.0,"[-0.15779628727365663,-0.04338504627712046]",4.0,"[0.02,0.02]",137.7693,0.0,6.0,6.0,44.0,1.0,,,,,,,
,,,,,,,67ab0c530956db6bcc65f096,6842bbf2af60556d55078113,2025-06-06_12h02.41.785,shape_ratio,2024.1.5,Win32,29.76190476,6842b561977af9ba9b0f87ca,,,,,,,,,,,137.7699,138.269,,,138.5075,138.6026,left,0.0662,,,,,,,,,0.9,,,,,,138.269,138.5073,138.6027,"[0.15572741053014338,-0.1176677721901497]",100.0,"[0.10884274209144011,-0.09691652441238897]",100.0,"[-0.020039514855290153,0.1219318463484643]",100.0,"[0.06069432124415466,-0.07618618160555908]",100.0,"[-0.08146193253317408,0.1060719912017885]",100.0,"[0.06130396335152486,0.17143216562675861]",100.0,"[-0.12969737621949637,-0.11628940334222983]",100.0,"[0.028432301168540404,0.06624703090264823]",100.0,"[0.09002374391997275,-0.007764343529319493]",100.0,"[0.12121391215113483,-0.04943917148407842]",100.0,"[0.05329169800808163,-0.17586605537596173]",100.0,"[-0.02061444823617284,0.008422601690945757]",100.0,"[-0.013304862787036091,0.07488717904996377]",4.0,"[-0.08307726026051059,-0.12638991318523393]",100.0,"[-0.08346102159599503,-0.08168114898765302]",100.0,"[-0.05492916647049909,-0.04288668179481206]",100.0,"[-0.026839026329893635,0.1952693877933207]",100.0,"[0.12877218156208398,0.0550812281161628]",100.0,"[-0.16877852196529086,0.08263480107422688]",4.0,"[0.18352648566993507,-0.06827764989696332]",100.0,"[0.09855482520661143,-0.16462563233033328]",100.0,"[0.0780737098766896,0.12592003445703048]",100.0,"[-0.11021304907114934,0.03849636547656432]",100.0,"[-0.08676588867590332,-0.17442800263943922]",100.0,"[0.02190133664197461,0.01763007320424584]",100.0,"[0.009885476791876638,-0.129514031884232]",100.0,"[-0.1233693367620266,-0.041718872412623204]",100.0,"[-0.04650438737569716,-0.18651048977109927]",100.0,"[-0.08432454319349407,0.1619124074231002]",100.0,"[0.14701480642170997,0.09248288396579096]",4.0,"[-0.0016044989949996538,-0.04520909093821347]",100.0,"[-0.18895358586812525,0.003846953480931011]",100.0,"[0.02,0.02]",139.7022,0.0,7.0,7.0,10.0,1.0,,,,,,,
,,,,,,,67ab0c530956db6bcc65f096,6842bbf2af60556d55078113,2025-06-06_12h02.41.785,shape_ratio,2024.1.5,Win32,29.76190476,6842b561977af9ba9b0f87ca,,,,,,,,,,,139.7026,140.2025,,,140.4574,140.5359,left,0.0593,,,,,,,,,0.1,,,,,,140.2025,140.4574,140.5362,"[0.12887027654972227,0.10306809717614969]",4.0,"[0.030976142374275185,0.1315910546759074]",4.0,"[0.038372831471376795,-0.09839013305505676]",4.0,"[0.13058028914666217,-0.11971783874866197]",4.0,"[0.12745815110948652,0.023796199378849615]",4.0,"[-0.0562234948133348,0.06059782651588763]",4.0,"[-0.08738885067898139,-0.06836512383928614]",4.0,"[-0.0810382824738891,0.16108784176087942]",4.0,"[0.18017840617368,0.08030048317495946]",4.0,"[0.1768867735371099,-0.056485794710085684]",100.0,"[-0.08270776989063922,-0.12074197296872749]",4.0,"[-0.04393288107609989,-0.0633404165375981]",4.0,"[-0.03083362179591574,0.12205320961173029]",4.0,"[-0.04334887182064652,-0.14060200208099183]",4.0,"[-0.007455946616513257,-0.19248196371139134]",4.0,"[0.0353609586548352,-0.16421705779244603]",4.0,"[0.08745119673075014,-0.04432259084002128]",100.0,"[-0.17365126289658775,-0.0485767530725091]",4.0,"[0.03325917908445396,0.06295512526982408]",4.0,"[-0.010471904696552944,0.07844403680134159]",4.0,"[-0.0019414338457977257,0.19837012325662692]",4.0,"[-0.17032525509322624,0.098589358877159]",4.0,"[-0.0939065004618548,0.042747279928024004]",4.0,"[0.02796270344132895,-0.02295588129637867]",100.0,"[0.16714678700053545,-0.09779706633515926]",4.0,"[-0.08576346286671749,0.11995006282359498]",4.0,"[-0.12159203177877442,-0.09197096204447018]",4.0,"[-0.16285179820464926,-0.10456711593183138]",4.0,"[-0.07279139781675435,0.0014576709350149352]",4.0,"[-0.08088785933861845,-0.16620618087700625]",4.0,"[0.07342186928240714,0.15990251354519003]",4.0,"[-0.1127554899233627,-0.02386313477241373]",4.0,"[0.02,0.02]",141.6357,0.0,8.0,8.0,183.0,1.0,,,,,,,
,,,,,,,67ab0c530956db6bcc65f096,6842bbf2af60556d55078113,2025-06-06_12h02.41.785,shape_ratio,2024.1.5,Win32,29.76190476,6842b561977af9ba9b0f87ca,,,,,,,,,,,141.6362,142.1242,,,142.3699,142.4698,right,0.0735,,,,,,,,,0.45,,,,,,142.1242,142.3699,142.47,"[0.0009618418832991358,-0.01529825896055393]",4.0,"[-0.17293188398032142,-0.03609283197310222]",100.0,"[0.12641009168463532,-0.0781311446578512]",4.0,"[0.13421603151021744,0.02144454179031324]",4.0,"[-0.10746601185030119,-0.1045685496073019]",100.0,"[-0.042679377369521564,0.18281859780533252]",100.0,"[-0.015097866664771344,0.0389675351864322]",4.0,"[0.030853248606732143,-0.17680143986676172]",4.0,"[0.06685875559730493,-0.073033084863088]",4.0,"[-0.027900114774699402,-0.12182829057796342]",100.0,"[0.060829999346414185,0.13799680759097024]",4.0,"[-0.11765315438602861,0.09294727944323994]",4.0,"[-0.045578929215265636,-0.0026649684022384624]",4.0,"[-0.1393375764196909,0.050156992142117]",4.0,"[0.010128917477236512,0.1690023946135836]",100.0,"[0.13447575965985795,-0.1339597875551862]",4.0,"[-0.09629845115544537,-0.15792367202699717]",100.0,"[0.05677840241820299,0.021824059898588512]",4.0,"[-0.005088307061430332,-0.0877692154109896]",4.0,"[-0.0227045500779714,-0.1814389527503949]",100.0,"[-0.0600904923344403,0.1400517927533784]",100.0,"[0.09342313566580095,-0.12737173286164752]",4.0,"[-0.03672295216686462,0.084292578098788]",100.0,"[0.07628136629723832,0.0928385590876887]",100.0,"[-0.1359910083167171,-0.07058380479905073]",4.0,"[-0.19169942301362006,0.04943767837900698]",4.0,"[0.02493316518383066,0.10010996189458302]",100.0,"[-0.0563837350466791,0.043271571155582576]",4.0,"[0.06374464721845952,-0.026617520561896382]",4.0,"[0.1436054028213851,0.11345826555181562]",100.0,"[-0.10229286633307497,0.010897591154359423]",100.0,"[0.1772628479017523,0.019873668096917544]",100.0,"[0.02,0.02]",143.5694,0.0,9.0,9.0,148.0,1.0,,,,,,,
,,,,,,,67ab0c530956db6bcc65f096,6842bbf2af60556d55078113,2025-06-06_12h02.41.785,shape_ratio,2024.1.5,Win32,29.76190476,6842b561977af9ba9b0f87ca,,,,,,,,,,,143.5698,144.0693,,,144.3198,144.5689,right,0.2268,,,,,,,,,0.9,,,,,,144.0695,144.3198,144.5689,"[-0.16163614523230102,-0.07001622156815422]",100.0,"[0.05200342633072927,0.08062837319769939]",100.0,"[-0.10590333612789078,0.13351381576973687]",4.0,"[-0.01799216023747936,-0.16040815265085226]",100.0,"[0.061371886570599166,-0.1753305539303622]",100.0,"[0.02116381326746004,-0.1456158939661298]",100.0,"[0.14288584888848982,-0.03149149361410362]",4.0,"[-0.011440186430190968,-0.04433804336741203]",100.0,"[0.06276010756153559,0.17926293165368484]",100.0,"[0.047555602056400414,-0.0032407508928811455]",100.0,"[0.10574981817064293,0.04613172752961596]",100.0,"[0.11233249157729373,0.11502799546730255]",100.0,"[0.000030570041849633114,0.06322963127498396]",100.0,"[-0.11703280393400776,0.05889120858479882]",100.0,"[-0.09138156031479099,-0.1383597247806494]",100.0,"[0.0707247623294956,-0.05322224385256864]",100.0,"[-0.056452778190692506,0.07376739661590195]",100.0,"[-0.13337816026354152,-0.10192501932641906]",100.0,"[0.15242854944874523,0.06170536429747719]",100.0,"[0.1051119594487863,-0.11410884797937196]",100.0,"[-0.09968990378106958,-0.07489950013525226]",100.0,"[-0.016149850693857343,0.11214716660994682]",100.0,"[0.1139964884052707,-0.06420671093828648]",4.0,"[0.02113973166737541,-0.19437335737483538]",100.0,"[-0.19711818501629674,0.02438304590915032]",100.0,"[-0.0413589642208341,0.02692464329420854]",100.0,"[-0.05772893182222054,-0.17533359098306436]",100.0,"[0.1306981714193116,0.009153689579479082]",100.0,"[-0.15827321895468704,-0.02875828764524459]",100.0,"[0.06000837503614154,-0.11669920732406895]",100.0,"[-0.06589850509317563,0.1481503782061596]",100.0,"[-0.005989949578533646,0.1516813058952584]",100.0,"[0.02,0.02]",145.669,0.0,10.0,10.0,21.0,1.0,,,,,,,
,,,,,,,67ab0c530956db6bcc65f096,6842bbf2af60556d55078113,2025-06-06_12h02.41.785,shape_ratio,2024.1.5,Win32,29.76190476,6842b561977af9ba9b0f87ca,,,,,,,,,,,145.6701,146.1695,,,146.4193,146.7026,right,0.2721,,,,,,,,,0.9,,,,,,146.1695,146.4193,146.7027,"[-0.027885683648485975,-0.09738316350908333]",4.0,"[-0.1317808159597757,-0.08392351010338388]",100.0,"[0.08965644006972917,0.17646581684479343]",100.0,"[0.10686436161393385,0.05894380602478311]",100.0,"[0.01704217035787076,-0.12935449334898855]",100.0,"[-0.09121462878970506,0.11154222657089012]",100.0,"[-0.004470330474981979,-0.1662599522150141]",100.0,"[-0.05178943848298962,0.13280086300076013]",100.0,"[0.043420637628192156,-0.16869253147976748]",100.0,"[0.14898873507606944,-0.12424695717940912]",100.0,"[0.08856497781260202,0.10306875105336695]",100.0,"[-0.10527941133186636,-0.035588389600325974]",100.0,"[0.0803007573054724,-0.12773972944479842]",100.0,"[-0.1707454943700479,0.07363869430908374]",100.0,"[0.1710952595066094,0.018088791859544696]",100.0,"[-0.1294486490673937,0.020919068218421467]",100.0,"[0.006372050065334627,0.08971545996527172]",100.0,"[0.027184084084411538,0.03579832761047636]",100.0,"[0.017209317322620536,-0.08741540198821382]",100.0,"[0.15388169251042316,0.055952322488412774]",100.0,"[0.10164481748537439,-0.0701146468227547]",100.0,"[-0.047571306594746954,-0.058505712321969244]",100.0,"[0.016398424880394193,0.14471642855486788]",100.0,"[0.06405911431509598,0.05240764217514298]",100.0,"[-0.06952685827477313,-0.1708603471525186]",4.0,"[0.16158470748199982,-0.03633351127545551]",100.0,"[-0.06270299978893844,0.07524975664201491]",100.0,"[0.13852868973740745,0.11931149135780235]",4.0,"[0.024924654681306085,0.1899424775880091]",100.0,"[-0.13591097924795617,0.1116569224409037]",100.0,"[0.07387675410448054,-0.011471428097595564]",100.0,"[-0.18130162290295204,0.0012173266218315746]",100.0,"[0.02,0.02]",147.8025,0.0,11.0,11.0,13.0,1.0,,,,,,,
,,,,,,,67ab0c530956db6bcc65f096,6842bbf2af60556d55078113,2025-06-06_12h02.41.785,shape_ratio,2024.1.5,Win32,29.76190476,6842b561977af9ba9b0f87ca,,,,,,,,,,,147.803,148.3024,,,148.5588,148.7026,left,0.1286,,,,,,,,,0.55,,,,,,148.3024,148.5587,148.7027,"[-0.09679402887127121,0.015375697166534402]",100.0,"[0.007868839741261622,-0.03000431515228425]",100.0,"[-0.024401021748180974,-0.18800655180975992]",100.0,"[-0.174508769687792,-0.03989675700524543]",100.0,"[0.05893598742481032,-0.02980707954887495]",100.0,"[-0.12901893873531242,-0.029547277892848715]",4.0,"[0.02970131622275145,-0.18342669830747563]",4.0,"[-0.18149165417082702,0.01413379553562049]",4.0,"[0.05494161464782361,-0.10638371360693315]",100.0,"[-0.10977479541631498,-0.1268007691807457]",4.0,"[-0.12204775851502381,0.10257347898682445]",100.0,"[0.05751081094399187,0.044746223789767996]",100.0,"[0.19387704842429077,0.029203163253486833]",100.0,"[0.0547226908095024,0.18780589984758625]",4.0,"[-0.05082004165253205,0.18699906691274656]",4.0,"[-0.006255797855890362,0.010027856823310364]",100.0,"[-0.016991545672103522,0.15612798906249525]",100.0,"[0.07264701719358743,-0.17177472567824564]",100.0,"[-0.07328431254035098,0.14580934169365808]",4.0,"[-0.0553295076668663,-0.018553052809432074]",4.0,"[0.09345670775135748,-0.13360885909775505]",100.0,"[0.029876093521452957,0.1076079912689022]",4.0,"[-0.05964311902890357,0.07772113419607671]",100.0,"[0.0986019833216212,0.06250117491934566]",4.0,"[0.14683722593255025,-0.11277800934022478]",100.0,"[0.14497186356238115,0.13463738498219915]",100.0,"[0.017510659118076054,0.04287373845303169]",4.0,"[-0.07042700256407328,-0.10219426319888888]",100.0,"[-0.035932898341934555,-0.1443948935074391]",100.0,"[0.012877332327665435,-0.10404024189061394]",4.0,"[0.151230772408469,-0.028525107587678625]",4.0,"[0.07423377003810692,0.12623406308835022]",4.0,"[0.02,0.02]",149.8029,0.0,12.0,12.0,84.0,1.0,,,,,,,
,,,,,,,67ab0c530956db6bcc65f096,6842bbf2af60556d55078113,2025-06-06_12h02.41.785,shape_ratio,2024.1.5,Win32,29.76190476,6842b561977af9ba9b0f87ca,,,,,,,,,,,149.8032,150.3029,,,150.5529,151.0358,right,0.4516,,,,,,,,,0.45,,,,,,150.303,150.5528,151.0359,"[0.11532102383731868,-0.07521427280612913]",4.0,"[-0.07848850734012994,0.07257813301516093]",4.0,"[-0.054971805774142346,-0.16703021319352457]",100.0,"[0.03962138534126453,0.0732708300465427]",100.0,"[0.04583940685724667,0.1544405005424297]",4.0,"[0.1396151741926805,0.012691373760863359]",100.0,"[0.026824844000429393,-0.08762603694394551]",100.0,"[-0.09374849936916024,-0.06854539166980424]",100.0,"[0.10932407824284993,-0.13758752884526704]",4.0,"[0.07576851482393591,-0.052175400869137994]",4.0,"[-0.1609762872315021,-0.07955663331407305]",4.0,"[-0.1350430156758831,-0.04317661411049179]",4.0,"[-0.039215925736044856,0.06391075669657385]",100.0,"[-0.10234173457771743,0.10733589170832064]",100.0,"[-0.03164253119121633,0.01067819488181509]",4.0,"[0.03328805734503055,-0.19019475806778383]",100.0,"[0.16326039297808986,-0.05231891503544503]",4.0,"[-0.060537611269896895,-0.10995706514651714]",100.0,"[-0.0911529236919391,0.14636230513684584]",4.0,"[0.1819192907183413,0.05332762131860293]",100.0,"[-0.158261380677681,0.08359729671685254]",4.0,"[0.04017022032054341,0.11416321921865376]",4.0,"[-0.12980315214032764,0.01960254170553941]",4.0,"[0.0776612846499178,-0.09828953673988022]",100.0,"[0.032298150935433874,-0.04543034588778929]",4.0,"[-0.026457950358371594,0.14122633163645115]",4.0,"[0.13896074535921416,0.09598399958796165]",4.0,"[-0.008431328583699963,0.19660787877396418]",100.0,"[0.09610181484389817,0.15465272039620737]",4.0,"[0.05942839770841208,-0.15691944335190938]",4.0,"[-0.1260434058824534,-0.10282918593917616]",100.0,"[0.07357250795960439,0.003231000319991147]",100.0,"[0.02,0.02]",152.1422,0.0,13.0,13.0,141.0,1.0,,,,,,,
,,,,,,,67ab0c530956db6bcc65f096,6842bbf2af60556d55078113,2025-06-06_12h02.41.785,shape_ratio,2024.1.5,Win32,29.76190476,6842b561977af9ba9b0f87ca,,,,,,,,,,,152.1429,152.6359,,,152.8867,153.0195,left,0.1216,,,,,,,,,0.55,,,,,,152.636,152.8867,153.0196,"[0.07064098898590102,-0.01422984890213948]",4.0,"[0.007552255954742298,-0.032632196826122624]",100.0,"[-0.024020513340645838,0.1755700701975953]",4.0,"[0.17590234410606023,-0.06113340580696157]",100.0,"[0.10571871765448995,0.06911825613348022]",100.0,"[-0.07819774841564378,-0.06729289032490908]",4.0,"[0.16584073477060066,0.10214221820068042]",100.0,"[-0.02888863840705932,-0.06432168930000257]",100.0,"[0.02551646222265377,0.05368087500507517]",4.0,"[0.005764225921649959,-0.10984540655511887]",100.0,"[-0.09202429882243383,-0.016703574413703574]",100.0,"[0.10840142309115637,-0.03084323422444739]",100.0,"[0.12388494979965961,0.021462585554574875]",4.0,"[0.05252941638811916,-0.09610296084302537]",100.0,"[-0.09477419869527946,0.07694797126822216]",100.0,"[0.03522495055418765,0.10871106708268052]",4.0,"[-0.05237557117771568,-0.16093404330136668]",100.0,"[-0.15766578216518853,0.07683322823639178]",4.0,"[-0.13311811928410186,-0.13056202688672539]",100.0,"[0.1024263995636897,0.1363402091526789]",4.0,"[0.06387383591048397,-0.1481911651821183]",4.0,"[-0.0726410588972039,0.1377882360129754]",100.0,"[-0.03410082099580692,0.09947234374119322]",100.0,"[-0.08757773779753265,-0.11464461583515072]",4.0,"[0.10777511624647562,-0.16215899263532915]",4.0,"[0.04865058687505955,-0.1870729632392141]",100.0,"[-0.0185949313968535,0.06046411398989144]",4.0,"[-0.11540907181687483,-0.04998016931465245]",4.0,"[-0.13803646629178518,-0.09018225324590469]",100.0,"[0.14321441605956714,-0.0899693351180211]",100.0,"[-0.03512551023861098,-0.0033170283761228127]",100.0,"[-0.19021449952112351,-0.054880092988041806]",4.0,"[0.02,0.02]",154.1194,0.0,14.0,14.0,72.0,1.0,,,,,,,
,,,,,,,67ab0c530956db6bcc65f096,6842bbf2af60556d55078113,2025-06-06_12h02.41.785,shape_ratio,2024.1.5,Win32,29.76190476,6842b561977af9ba9b0f87ca,,,,,,,,,,,154.12,154.619,,,154.8576,155.0692,right,0.1876,,,,,,,,,0.9,,,,,,154.619,154.8576,155.0692,"[-0.11046722488213194,0.0005895267171116968]",100.0,"[-0.02652080583266395,-0.034905204178918826]",4.0,"[-0.08786840571534078,0.052750282700121554]",4.0,"[-0.05565682711914981,-0.006316464960645131]",100.0,"[-0.0883315902472077,0.11473933172370765]",100.0,"[-0.013817470341677199,-0.12269131864299526]",100.0,"[-0.15117958562707268,-0.02607699693843965]",100.0,"[0.02149539671084322,-0.080700199449217]",100.0,"[0.026369088443592134,0.0000640482435366452]",100.0,"[0.1428105142674918,0.11034788212859502]",100.0,"[0.06562238804198461,-0.1714122995350975]",100.0,"[0.04415898655817798,0.14108500560312975]",100.0,"[0.014599450357867172,0.19043074907400745]",100.0,"[-0.08899146463761753,-0.09158239510350384]",100.0,"[0.1563520201134202,0.07088517020908243]",4.0,"[0.038297859247753696,0.05600468651537299]",100.0,"[0.0980215218986438,-0.06461895939284609]",100.0,"[0.091274572694262,0.03922562631289682]",100.0,"[-0.08005054580658927,0.16692987961729183]",100.0,"[0.013066127532639074,-0.1744779072614128]",100.0,"[0.1290503962250011,0.011610585156317826]",100.0,"[-0.02629331575314636,-0.18405614090772998]",100.0,"[0.14360052129939344,-0.10102641085726304]",100.0,"[-0.012358587955770583,0.03876875366206541]",100.0,"[-0.02150693119561745,0.144365095661758]",100.0,"[0.15086369894840157,-0.0312958920147546]",100.0,"[0.09010654145477906,0.09660958036462716]",100.0,"[0.1739826512044201,0.002476535593884065]",100.0,"[0.05281139188433493,-0.126803622734226]",100.0,"[-0.14923946392270582,0.13140287227056652]",100.0,"[-0.1637042404430362,0.019269601715605787]",100.0,"[0.0804365948376368,-0.02719853898121196]",100.0,"[0.02,0.02]",156.1689,0.0,15.0,15.0,29.0,1.0,,,,,,,
,,,,,,,67ab0c530956db6bcc65f096,6842bbf2af60556d55078113,2025-06-06_12h02.41.785,shape_ratio,2024.1.5,Win32,29.76190476,6842b561977af9ba9b0f87ca,,,,,,,,,,,156.1693,156.669,,,156.907,157.2691,right,0.349,,,,,,,,,0.9,,,,,,156.669,156.907,157.2691,"[-0.031023301253111566,-0.1279257595675132]",100.0,"[0.0003938618735707627,0.0007794713646863198]",100.0,"[-0.12791815696825604,-0.10639957197620588]",100.0,"[-0.18300634266209465,-0.02119700581120294]",100.0,"[0.16762675645486788,-0.03149010787055795]",100.0,"[0.11592179330195139,0.10217436313121757]",100.0,"[-0.0206806394459578,-0.17776089895309724]",100.0,"[-0.15964842978152277,0.062182588062197064]",4.0,"[0.04081062634052616,-0.012226658476258579]",100.0,"[-0.1390760134787087,-0.061999980033040344]",100.0,"[0.017900295303125313,0.12595018350280723]",100.0,"[-0.11052358512420679,-0.02836294776771729]",100.0,"[-0.02542146391890251,0.09436323561802337]",4.0,"[0.02595037755212956,-0.17348039046328664]",100.0,"[0.1252628440829723,-0.06665074548810923]",4.0,"[0.16738137458531077,0.032604962695812034]",100.0,"[0.026076777683985107,0.05609850767548978]",100.0,"[0.008985792325088494,-0.11531426930538755]",100.0,"[-0.10847898470612743,0.014316113902766726]",100.0,"[0.09528487698435786,-0.007420324160424801]",100.0,"[0.1698669555637774,0.07263294124554688]",100.0,"[-0.034833036180162154,0.15379717521628186]",100.0,"[-0.04609313641927089,0.030800317709492056]",100.0,"[0.07547352273923015,-0.04801542888222944]",100.0,"[0.03252570209259039,0.19633523157177296]",100.0,"[-0.0735064894009487,-0.16302527524186694]",100.0,"[0.10458426951530346,0.06373660425481964]",100.0,"[0.03677765362461496,-0.06992976147743374]",100.0,"[0.0907672121113647,0.15900915548376618]",100.0,"[0.07636125263761115,0.03351740021195055]",100.0,"[-0.10047869683860892,0.16478300891969902]",100.0,"[0.05215854493403534,0.14828658872410477]",100.0,"[0.02,0.02]",158.3694,0.0,16.0,16.0,1.0,1.0,,,,,,,
,,,,,,,67ab0c530956db6bcc65f096,6842bbf2af60556d55078113,2025-06-06_12h02.41.785,shape_ratio,2024.1.5,Win32,29.76190476,6842b561977af9ba9b0f87ca,,,,,,,,,,,158.3697,158.8692,,,159.1221,159.327,right,0.1989,,,,,,,,,0.4,,,,,,158.8693,159.122,159.327,"[0.1084830803082199,0.16545647720834694]",4.0,"[-0.031585383871437944,0.004190863035071523]",100.0,"[-0.1810776887940724,-0.03167879171092428]",4.0,"[0.08158211122716176,-0.018387325312194155]",100.0,"[-0.07964929108537433,-0.07054669978390199]",4.0,"[0.09619589358862916,0.06430875212198774]",100.0,"[0.14533385185106665,-0.047109823827014015]",4.0,"[-0.14982162888255643,0.07697711087605845]",4.0,"[-0.14513855526694813,0.13399904485677658]",100.0,"[0.05418074108205134,0.14569767572276437]",4.0,"[0.05156489543502386,-0.15509049326712845]",4.0,"[-0.04814542799186687,0.09912447460600221]",100.0,"[0.013858053457313911,-0.04409806793212232]",100.0,"[-0.14087925653101216,-0.11192860860200354]",4.0,"[0.08053121938050414,-0.10588306885005569]",100.0,"[0.1543509633985772,0.007579960311964939]",4.0,"[-0.04062949577470582,-0.05954469339965737]",4.0,"[0.013028175284967015,0.1975826180132562]",4.0,"[0.01580906874017208,0.0807492043662202]",100.0,"[-0.18009448032590608,0.011840469892358412]",4.0,"[0.0548021565036191,0.18797119750340438]",100.0,"[-0.001651564104626192,-0.15506484503364956]",4.0,"[0.11517059130413584,0.1150460995377621]",4.0,"[-0.04550284766746084,0.164059295745382]",100.0,"[0.07376411656199847,0.10849439517107945]",100.0,"[-0.10798265392298824,0.08599943779670968]",100.0,"[-0.10518131121924296,0.033537185824059644]",4.0,"[0.10078256954804686,-0.1541008335263986]",4.0,"[-0.019177675777162135,-0.10202364645148083]",4.0,"[0.009320848790100277,0.128653435692329]",100.0,"[-0.08551744458899979,0.15701349589928174]",4.0,"[-0.1404645851450758,-0.00974877240717596]",4.0,"[0.02,0.02]",160.4232,0.0,17.0,17.0,159.0,1.0,,,,,,,
,,,,,,,67ab0c530956db6bcc65f096,6842bbf2af60556d55078113,2025-06-06_12h02.41.785,shape_ratio,2024.1.5,Win32,29.76190476,6842b561977af9ba9b0f87ca,,,,,,,,,,,160.4238,160.9196,,,161.175,161.2357,left,0.0356,,,,,,,,,0.9,,,,,,160.9196,161.1749,161.2357,"[-0.007506197498612271,0.03606954013848243]",100.0,"[-0.0006203494728766692,-0.04068567207288744]",100.0,"[-0.040986524407083225,0.18878652815002006]",100.0,"[-0.0027884445179256795,0.14527760719095162]",100.0,"[-0.004842772336598936,-0.12858072396013723]",100.0,"[0.1141919549571256,-0.14766708782931545]",4.0,"[0.12520203665829868,0.04058496451718243]",100.0,"[-0.1125966120204151,-0.11262310639128459]",100.0,"[0.07159395177210613,0.004744228448731035]",100.0,"[0.1598984864413182,-0.036135996877310755]",100.0,"[0.09502621845075655,0.11284350437556406]",100.0,"[-0.12495462758728085,0.1286592336137751]",100.0,"[-0.11446496028392383,-0.06516875080849592]",4.0,"[-0.15965060668070277,0.026255197669986133]",100.0,"[-0.06620908037389713,0.0984883517381985]",100.0,"[0.0705570917775837,-0.10099880223126365]",100.0,"[-0.1555504243947143,-0.10764684964537394]",100.0,"[-0.1835753094554353,0.06765916762802456]",100.0,"[-0.12738542285202756,0.08138245865057615]",100.0,"[-0.18709513918825216,-0.005802126489296541]",100.0,"[-0.08613893705017328,0.1585912766103017]",100.0,"[0.011688519645856528,-0.17745651763800965]",100.0,"[0.17389457308888862,0.03269451735448156]",100.0,"[-0.031115887372994817,-0.19445916960118204]",4.0,"[0.06664174054549403,-0.060718906073626885]",100.0,"[-0.04369752188721171,-0.0040420873872077335]",100.0,"[-0.08454471730259236,0.033797188976318504]",100.0,"[-0.11170562755465617,-0.012540994152342517]",100.0,"[0.015958156199125287,0.09493352744497546]",100.0,"[-0.0432899696699009,0.13691236983776106]",100.0,"[0.00596500978150014,0.1966598722939998]",100.0,"[0.06242609441110182,-0.18252975727100246]",100.0,"[0.02,0.02]",162.3358,0.0,18.0,18.0,7.0,1.0,,,,,,,
,,,,,,,67ab0c530956db6bcc65f096,6842bbf2af60556d55078113,2025-06-06_12h02.41.785,shape_ratio,2024.1.5,Win32,29.76190476,6842b561977af9ba9b0f87ca,,,,,,,,,,,162.3364,162.8358,,,163.0862,163.286,left,0.1777,,,,,,,,,0.5,,,,,,162.8358,163.0862,163.2861,"[-0.08454044630199373,-0.00973178105928814]",100.0,"[-0.1721007745017611,0.06617282068535565]",4.0,"[-0.17199104077754987,-0.03424545550732656]",4.0,"[-0.07690903084768926,-0.1731250630296382]",4.0,"[-0.031296786646814886,-0.05088282661434172]",100.0,"[0.007399231059782597,-0.1801534408912181]",4.0,"[0.14636255013753843,0.014974466428918174]",100.0,"[0.04615353659848154,-0.16431929475409265]",4.0,"[0.03151283952217523,0.0008538268282407725]",100.0,"[0.09828627919410335,0.05507851238112628]",100.0,"[0.16602681690901913,-0.08015041961854986]",4.0,"[-0.049509647958982814,0.12722658581967838]",100.0,"[-0.12170989334483402,-0.14688160748655638]",100.0,"[-0.033401334579176475,0.008720903819889166]",4.0,"[-0.026025300170079264,0.04863459008353974]",100.0,"[-0.04297873635100814,0.18115131464213083]",4.0,"[-0.14443470323127852,0.09906089670409447]",4.0,"[-0.12355478967419133,-0.0438357156838808]",100.0,"[-0.09562827600033325,0.13306501048383998]",100.0,"[0.04850176739591553,0.15172143572655372]",4.0,"[0.026334459441423118,-0.1273541123104984]",100.0,"[-0.15883268322946736,-0.07674123151018235]",100.0,"[-0.14809542901138395,-0.0015766726258069912]",4.0,"[-0.013534517147688078,0.14979642083598466]",4.0,"[0.024612834264261942,0.1011893092235445]",4.0,"[0.12370935549663252,0.1291091506325648]",4.0,"[0.08741785888603502,-0.09744169969297171]",100.0,"[-0.05651264657092302,-0.08282468526117155]",100.0,"[-0.013854099029311612,-0.08874403706762156]",4.0,"[0.1361333392371436,-0.05001217820169739]",4.0,"[0.0902917013179307,0.09537528495846793]",100.0,"[-0.09174688117331563,0.06852184785874878]",100.0,"[0.02,0.02]",164.3857,0.0,19.0,19.0,117.0,1.0,,,,,,,
,,,,,,,67ab0c530956db6bcc65f096,6842bbf2af60556d55078113,2025-06-06_12h02.41.785,shape_ratio,2024.1.5,Win32,29.76190476,6842b561977af9ba9b0f87ca,,,,,,,,,,,164.3863,164.8856,,,165.1239,165.3694,right,0.2276,,,,,,,,,0.45,,,,,,164.8856,165.1239,165.3695,"[-0.041781856206666794,-0.12901532765241078]",4.0,"[0.18305438398499074,0.0419270090503071]",4.0,"[0.042069982258410875,-0.1268527839624394]",100.0,"[-0.12617555653043577,-0.025789202142173968]",4.0,"[-0.11960029303447384,0.06007562521680576]",4.0,"[0.11963006528858047,0.11749049489212743]",100.0,"[-0.11829125187313183,-0.13429414447794685]",100.0,"[0.11232519638122633,-0.1019003978304441]",100.0,"[0.08429779736235189,-0.15967298930911683]",4.0,"[0.1695324310832223,-0.08266074890924834]",4.0,"[-0.10975809326754556,0.12988291268090402]",4.0,"[0.05888813396421508,0.14856007906918456]",100.0,"[-0.031728651402173895,0.14253109978935627]",4.0,"[0.044113824626124336,0.18742837438497154]",4.0,"[-0.16894322637651715,-0.003907012695142133]",100.0,"[0.02116467434099214,0.0736510574658721]",4.0,"[0.16012610288436283,0.07949659826721926]",4.0,"[0.015513081764046664,0.0014364344078846964]",100.0,"[0.02837804042574012,-0.19058414112074706]",100.0,"[-0.07523548455798182,0.10361442723739209]",4.0,"[0.16031950607356102,-0.027808667521190086]",100.0,"[-0.15668723163738996,0.09279095959819397]",4.0,"[-0.07432220042627032,-0.014628619643892017]",4.0,"[-0.1914779246787898,0.03251763129232696]",4.0,"[0.13949060897955792,0.04290240541274005]",4.0,"[-0.038610348676789544,0.004807367501213659]",4.0,"[0.0047072592402705145,-0.062271444111108985]",100.0,"[0.09283658249606938,0.005539188574529389]",100.0,"[-0.07140525745845769,0.1840073777939938]",100.0,"[0.06018665508882253,-0.0664632813426033]",100.0,"[-0.01707221232252502,0.18916996220165885]",4.0,"[-0.18535982909418108,-0.061387397598891454]",100.0,"[0.02,0.02]",166.4737,0.0,20.0,20.0,144.0,1.0,,,,,,,
,,,,,,,67ab0c530956db6bcc65f096,6842bbf2af60556d55078113,2025-06-06_12h02.41.785,shape_ratio,2024.1.5,Win32,29.76190476,6842b561977af9ba9b0f87ca,,,,,,,,,,,166.4742,166.9695,,,167.2082,167.3527,right,0.1192,,,,,,,,,0.55,,,,,,166.9695,167.2082,167.3527,"[-0.17337966439658647,0.009899867110135848]",100.0,"[0.07988305568191675,-0.04944461265663035]",100.0,"[-0.042771130948680874,0.12784866726244173]",4.0,"[-0.005940989903614502,0.1499377389776861]",4.0,"[0.04126195133301184,-0.1632485398865178]",100.0,"[0.10590823035306092,0.14124823015944712]",100.0,"[-0.12542059940708708,0.06184247334394662]",4.0,"[0.009761962753316526,0.056132087724632365]",100.0,"[0.11675152218745245,-0.15822398372572763]",4.0,"[0.02841803861224873,-0.07621162155063468]",4.0,"[0.0504497973830948,0.12667728835890404]",100.0,"[0.06119680056911822,-0.10807473330733083]",100.0,"[-0.09112945158785969,-0.08918683533129089]",4.0,"[0.054715447280226766,0.06346622914504536]",4.0,"[-0.047436163261943956,0.013348048886584326]",100.0,"[-0.17136878017775062,-0.08156089166882874]",100.0,"[0.13779187367855572,-0.12270582220933583]",100.0,"[-0.13787687049594657,0.12087673953921675]",100.0,"[0.02872071681536355,0.17717795832280275]",100.0,"[0.1641148045897992,-0.0018483698276540897]",4.0,"[-0.014888027522790968,-0.11733485497760858]",4.0,"[0.17379559853962187,-0.08355558618210027]",4.0,"[-0.11204225987252843,-0.038180927438981264]",4.0,"[-0.03880651784482043,-0.158793883193214]",100.0,"[-0.04690575292141225,0.19422160105211975]",4.0,"[0.04419614716764392,-0.023228994729025704]",4.0,"[-0.08150754865054032,0.10077825367354258]",100.0,"[0.081752085797864,0.018476992590163933]",100.0,"[-0.10363503588316532,0.15941935461828616]",100.0,"[-0.03325572059381376,-0.05753932544615315]",100.0,"[0.17015244942638288,0.09417396564478038]",100.0,"[-0.0984980222353254,-0.16516317918976386]",4.0,"[0.02,0.02]",168.4528,0.0,21.0,21.0,61.0,1.0,,,,,,,
,,,,,,,67ab0c530956db6bcc65f096,6842bbf2af60556d55078113,2025-06-06_12h02.41.785,shape_ratio,2024.1.5,Win32,29.76190476,6842b561977af9ba9b0f87ca,,,,,,,,,,,168.4533,168.9526,,,169.2032,169.5523,right,0.3202,,,,,,,,,0.1,,,,,,168.9527,169.2031,169.5523,"[0.004938492086479026,-0.11442181446594166]",4.0,"[0.00795566024057785,-0.1936508537679938]",4.0,"[0.15653070832157986,-0.1064349820475935]",4.0,"[-0.17435865533337602,-0.09336202103605068]",4.0,"[0.02854894802580914,0.005366933719899316]",100.0,"[0.09251430577773441,0.014749752988043924]",100.0,"[-0.08746934108043752,-0.13186681987583398]",4.0,"[0.07674029516053973,-0.056620252234442274]",4.0,"[-0.054277200607658435,0.12477225812622562]",4.0,"[0.11250604130725048,-0.16484663933911056]",4.0,"[-0.03913751018709102,0.019814804112729126]",4.0,"[-0.05732338797786566,0.16643068557618357]",4.0,"[-0.019278995802737574,-0.04676709995022492]",4.0,"[0.05835064863534266,0.1098311547067296]",4.0,"[-0.007792807500192386,0.04982000310343663]",100.0,"[-0.07905817450579564,0.09135547963053726]",4.0,"[0.09972537120782267,-0.09347428192077922]",4.0,"[0.16954432075224013,0.10481088583692937]",4.0,"[0.12079255440135273,0.14326252277830137]",4.0,"[0.04591502864382011,-0.14386142836533383]",4.0,"[-0.041023726803054994,0.0742258802808672]",4.0,"[0.10073581371109783,0.08006194628587435]",4.0,"[-0.07980029995501944,0.009460875644961987]",4.0,"[0.16597092837623162,0.05030970003418528]",4.0,"[-0.040288519081395774,-0.08805948929811809]",4.0,"[0.054006906606850244,0.06026414462478914]",4.0,"[0.16879066014954974,-0.036909387425529225]",4.0,"[-0.18032719733750505,0.056074760790996936]",4.0,"[-0.13800734424102135,0.13463454140720357]",4.0,"[-0.10694138182859936,0.16040738459938206]",4.0,"[0.03617597858224113,0.16491324260418116]",4.0,"[-0.009794880645670896,-0.15305111846544261]",4.0,"[0.02,0.02]",170.6531,0.0,22.0,22.0,185.0,1.0,,,,,,,
,,,,,,,67ab0c530956db6bcc65f096,6842bbf2af60556d55078113,2025-06-06_12h02.41.785,shape_ratio,2024.1.5,Win32,29.76190476,6842b561977af9ba9b0f87ca,,,,,,,,,,,170.6537,171.153,,,171.4044,171.5025,left,0.0687,,,,,,,,,0.4,,,,,,171.1531,171.4043,171.5025,"[0.07584683508615826,0.003944748723874948]",100.0,"[-0.019493068313134843,-0.04195428020079956]",4.0,"[0.14426830615877478,-0.0031640606615187315]",4.0,"[-0.1717751241381805,-0.016329715969628976]",4.0,"[0.0902583808752344,0.11214756446992229]",100.0,"[0.145901353556124,-0.08585380348225766]",4.0,"[-0.03598630843663253,0.15049877073298676]",100.0,"[-0.04021991870604957,-0.11456148863871311]",4.0,"[0.10483864374239969,-0.04807055597482057]",100.0,"[-0.10830795895268094,-0.04856696885936808]",4.0,"[0.03236621632080006,-0.181245557902263]",4.0,"[-0.15268438406467258,0.05359854572718579]",4.0,"[0.011134485615448391,0.14257112715406858]",100.0,"[0.0028842064401416088,-0.1022843619250994]",4.0,"[0.041216455676157455,-0.08562207009228559]",4.0,"[-0.041470191026857464,0.017012281153048425]",100.0,"[0.11988600802645806,-0.1356036473372964]",4.0,"[-0.11501841862608049,-0.0007834605179403349]",100.0,"[0.18486148186714316,0.013875741104336961]",100.0,"[-0.024304876180363588,-0.17816542205279773]",4.0,"[0.07546618782807503,0.15689871765201638]",100.0,"[-0.11934362686025908,-0.1367403609385996]",4.0,"[-0.14594041607128555,-0.10291966269556366]",4.0,"[-0.08952872666031245,0.03645384481004094]",4.0,"[-0.0847584909812255,0.11714069787385142]",4.0,"[0.02886153258616928,0.18101431274264876]",4.0,"[0.030591564892160698,0.08330711262340194]",100.0,"[0.1450115741862913,0.0660589724681674]",4.0,"[0.07336856467665971,-0.14078974426410412]",100.0,"[0.16624513864493526,-0.03695568172308669]",100.0,"[-0.1451110038279288,0.12316888359661152]",4.0,"[-0.014421171212202205,0.0691147153849807]",100.0,"[0.02,0.02]",172.6024,0.0,23.0,23.0,175.0,1.0,,,,,,,
,,,,,,,67ab0c530956db6bcc65f096,6842bbf2af60556d55078113,2025-06-06_12h02.41.785,shape_ratio,2024.1.5,Win32,29.76190476,6842b561977af9ba9b0f87ca,,,,,,,,,,,172.6028,173.1027,,,173.3527,173.4529,left,0.0714,,,,,,,,,0.55,,,,,,173.1027,173.3527,173.453,"[0.059866892904694526,-0.07131882173137538]",4.0,"[-0.03204426433385327,0.04034190813826802]",100.0,"[-0.11630719287004572,-0.06118658887788051]",100.0,"[-0.12415287973091421,-0.1555843212369319]",100.0,"[0.14611816013264925,-0.01790187734414251]",100.0,"[0.1729192247916614,0.07405116884674778]",4.0,"[-0.11948910692225606,0.1354019244518282]",100.0,"[-0.08635565566574177,-0.003980990453200373]",100.0,"[0.12449243436794687,0.07057190260950495]",4.0,"[-0.18033950397386492,0.07554362760305655]",4.0,"[0.001269976464420109,-0.10219843031806328]",100.0,"[0.07241218711263456,-0.016983833781268706]",100.0,"[0.012593456101211698,-0.16846769635276881]",100.0,"[0.08340364164402085,-0.11581814944236378]",100.0,"[0.127762471248551,0.11639370332084845]",4.0,"[0.17881890280234441,-0.07246758796353983]",100.0,"[-0.03605201088701398,0.08552269040759226]",100.0,"[0.1941297724735567,0.03243241160082472]",100.0,"[-0.021764281534683485,-0.04627567702734929]",4.0,"[-0.029785861222109994,-0.1935467869219687]",4.0,"[-0.08967433701792751,0.05655005421696109]",100.0,"[-0.05360753311289068,-0.14068473397426293]",4.0,"[-0.003872872269135794,0.13938216453499117]",4.0,"[-0.16930197284974524,0.024614896145057043]",4.0,"[0.08354889306415446,0.036111426344953027]",4.0,"[0.10944091290845946,-0.1495083350290465]",100.0,"[0.05685308916131908,0.17094996249128475]",4.0,"[-0.04216459432117965,-0.010158716453717749]",4.0,"[-0.056090008079496274,0.1286690338800552]",100.0,"[0.08720620813206958,0.10618904710633036]",4.0,"[-0.15249442480988054,-0.11677064522230565]",100.0,"[0.05331158729123778,-0.16161674316246372]",100.0,"[0.02,0.02]",174.5531,0.0,24.0,24.0,70.0,1.0,,,,,,,
,,,,,,,67ab0c530956db6bcc65f096,6842bbf2af60556d55078113,2025-06-06_12h02.41.785,shape_ratio,2024.1.5,Win32,29.76190476,6842b561977af9ba9b0f87ca,,,,,,,,,,,174.5539,175.0532,,,175.3036,175.5525,right,0.2353,,,,,,,,,0.55,,,,,,175.0532,175.3036,175.5526,"[0.08678164341390596,0.04175589236602476]",4.0,"[0.03533496100110186,-0.1077580412936077]",4.0,"[-0.06410985730696799,0.16787004199166833]",100.0,"[-0.16192652334976274,0.017678464327437242]",100.0,"[-0.13525522139344495,0.11697711651163911]",4.0,"[0.0850801318927592,-0.08951795645434961]",4.0,"[0.029113520901742525,0.06841137859930022]",4.0,"[0.15433117221603349,0.12675303679537742]",100.0,"[-0.03923190426196906,-0.09024368518789506]",4.0,"[-0.06092712855295752,-0.030364466798634478]",100.0,"[-0.1024271258232985,-0.1151711023561745]",4.0,"[-0.09903772703510495,-0.0040285312358969835]",100.0,"[0.047099490256761085,-0.06610067027445803]",4.0,"[0.14074658845650367,-0.044703293790663026]",4.0,"[0.14571034316804124,-0.12970746764131028]",100.0,"[0.15995958611143077,0.05590849380361967]",100.0,"[0.06342446857344669,0.09518769633977787]",4.0,"[-0.04711322311975847,0.05971976444089915]",100.0,"[0.0035657345671239685,-0.07619291267940757]",4.0,"[0.013675575481131788,0.026322822920509165]",100.0,"[-0.05624844415311365,0.016332105178460867]",100.0,"[-0.05616402453864293,-0.16454139923538053]",100.0,"[0.03454028217240288,0.14950924928578016]",4.0,"[0.16823192821809194,0.013116390496560609]",4.0,"[-0.019018894375169286,0.16328975413741054]",100.0,"[0.0629313948752548,-0.0055387866611121975]",100.0,"[-0.19776858693957242,-0.011695219023206289]",100.0,"[0.046800766626536365,-0.19154793985656818]",100.0,"[0.09404925163855705,-0.1391820787879082]",4.0,"[0.11259941453758524,0.11830622151729275]",100.0,"[-0.0926008755988274,0.08372595741755927]",100.0,"[-0.1266118159023556,0.046806712571703706]",100.0,"[0.02,0.02]",176.6532,0.0,25.0,25.0,65.0,1.0,,,,,,,
,,,,,,,67ab0c530956db6bcc65f096,6842bbf2af60556d55078113,2025-06-06_12h02.41.785,shape_ratio,2024.1.5,Win32,29.76190476,6842b561977af9ba9b0f87ca,,,,,,,,,,,176.6538,177.1531,,,177.392,177.5693,left,0.1582,,,,,,,,,0.4,,,,,,177.1531,177.392,177.5695,"[-0.04809415813111088,0.10278131734080755]",4.0,"[-0.08616410099907043,0.05323939414242304]",4.0,"[0.08000579939772998,0.1400746520052171]",100.0,"[-0.029467460974213926,-0.17191078569614862]",4.0,"[0.011929666113162872,-0.07816406196751696]",4.0,"[-0.03348151500687799,0.18918571283825322]",100.0,"[-0.016095177803483202,-0.12573512560500305]",4.0,"[0.02128360045108792,-0.021222841827236882]",4.0,"[-0.07044239487405028,0.16038969976214873]",100.0,"[0.1200735090868378,0.05949189787435676]",100.0,"[0.16116955780225486,-0.07428730211513597]",100.0,"[-0.018460296732077275,-0.03341149150576928]",4.0,"[-0.09338855886545636,-0.041846635089295765]",4.0,"[-0.1726700497666912,0.05539032111043931]",100.0,"[0.1713876504243739,-0.018883079214694516]",100.0,"[-0.140504867764429,-0.11920217862950667]",4.0,"[0.0920344031206005,-0.14759629781647607]",100.0,"[0.10541753123047289,0.10257655608824365]",4.0,"[-0.03542990548187812,0.019319726251913645]",100.0,"[-0.14013325273790297,0.11113258507203833]",4.0,"[-0.11836403827938641,-0.160302293090704]",4.0,"[0.1556951531264649,0.1122714356874711]",4.0,"[-0.1868434969780926,-0.04222400727760131]",4.0,"[0.059826732594684934,0.03874231964728023]",100.0,"[0.03099579453099772,-0.11829199108928853]",4.0,"[0.06837680486104986,-0.010971053381279235]",4.0,"[0.10129259028698162,-0.10457061343665097]",100.0,"[-0.15239549972574962,-0.02047693061142975]",100.0,"[0.005839013014685873,0.12549227998067397]",4.0,"[-0.004947375054228405,0.057353879104098233]",4.0,"[0.03902218852770212,-0.1667081411318899]",4.0,"[-0.08384723832035043,-0.09088032580253358]",100.0,"[0.02,0.02]",178.6695,0.0,26.0,26.0,174.0,1.0,,,,,,,
,,,,,,,67ab0c530956db6bcc65f096,6842bbf2af60556d55078113,2025-06-06_12h02.41.785,shape_ratio,2024.1.5,Win32,29.76190476,6842b561977af9ba9b0f87ca,,,,,,,,,,,178.6701,179.1699,,,179.4199,179.5693,right,0.1418,,,,,,,,,0.9,,,,,,179.1699,179.4197,179.5694,"[0.16883828023966746,-0.06670678881849172]",100.0,"[0.06573149963307996,-0.03147785397276642]",100.0,"[0.02330750531706926,0.03271237534047557]",100.0,"[-0.027621721837733343,0.17414639272993962]",4.0,"[0.007978861954601846,-0.013796613864265119]",100.0,"[-0.0511242338523288,0.1204617013035361]",100.0,"[-0.14580933790769232,-0.08024198608160209]",100.0,"[0.07139553077764732,-0.12268211497782945]",100.0,"[-0.14329851834511614,-0.12822587696005205]",100.0,"[-0.12723053440725637,0.0727335516957986]",100.0,"[0.10589953784143226,0.09175106228309496]",100.0,"[-0.001582274383921564,0.08518806154345565]",100.0,"[0.1719815915257934,-0.0006984464243502153]",4.0,"[-0.10516578089827368,-0.0647784341566388]",100.0,"[0.12824488254576208,-0.1432302223129259]",100.0,"[-0.07643923676038263,0.01732995497133932]",100.0,"[-0.035701955572546185,-0.19444323561610813]",100.0,"[0.14576758772422133,0.07337652300545987]",100.0,"[-0.031611623532645856,-0.11982570228056563]",100.0,"[-0.11013136037952852,0.13639132527401052]",100.0,"[-0.06807633527831411,-0.04761156668219197]",100.0,"[0.053085327994556855,0.15082970258293701]",100.0,"[-0.1594010469317517,0.04661826063092847]",4.0,"[0.0202989690998269,-0.13940840957208556]",100.0,"[-0.04824590584531599,0.06728661541166343]",100.0,"[0.11175464423221546,0.1457639472932865]",100.0,"[0.035018865993701596,0.1892522734519784]",100.0,"[-0.18014590382024365,-0.004862641492973136]",100.0,"[0.04303689687376601,0.07452665556685537]",100.0,"[0.14052887025926186,0.1154058671310477]",100.0,"[-0.02557652268014613,-0.04994774180423845]",100.0,"[-0.0830522639392604,-0.12654093937790664]",100.0,"[0.02,0.02]",180.6695,0.0,27.0,27.0,20.0,1.0,,,,,,,
,,,,,,,67ab0c530956db6bcc65f096,6842bbf2af60556d55078113,2025-06-06_12h02.41.785,shape_ratio,2024.1.5,Win32,29.76190476,6842b561977af9ba9b0f87ca,,,,,,,,,,,180.6701,181.1699,,,181.4249,181.5859,left,0.1372,,,,,,,,,0.6,,,,,,181.1699,181.4248,181.586,"[-0.11508422148785155,0.065633140056064]",4.0,"[0.16577127403414815,0.03186578956954073]",100.0,"[-0.04400387189722628,0.009533534224039533]",4.0,"[0.11280371444615066,0.12121332854948398]",100.0,"[-0.006934032252748847,0.15190478725826323]",100.0,"[-0.07245441163072941,-0.03316988412232336]",100.0,"[0.06871803329088781,0.05832924151745727]",4.0,"[-0.06634660210003726,0.08100799397719702]",4.0,"[0.020351284400706653,-0.0077645545184198955]",100.0,"[0.1454866181625723,0.09030779055852628]",100.0,"[0.053910332837423705,-0.10807955452433644]",100.0,"[-0.12575781046312318,0.01814410179013289]",100.0,"[-0.13354793365759826,-0.05952660667521389]",100.0,"[-0.17504061545954333,0.06429921568149578]",4.0,"[-0.1745932454148552,-0.018171625846597702]",100.0,"[0.07246522679830968,-0.053893160899787455]",4.0,"[-0.008259174475928631,0.030508556028429185]",100.0,"[0.0567028061789917,0.13911973141373035]",4.0,"[0.140478514218676,-0.010228636305298988]",4.0,"[-0.06705420550861489,-0.16302256993301165]",100.0,"[-0.018407625706066716,-0.06189741456152203]",4.0,"[-0.02471749905268864,-0.12874966934261015]",4.0,"[-0.14409198865711212,-0.1306033282373002]",100.0,"[0.09551099890170339,0.006016097390588475]",100.0,"[0.014418516551150413,-0.14207146885562108]",4.0,"[-0.05756825151457727,0.13948440747662322]",100.0,"[-0.0533010786891771,0.18556559914324977]",100.0,"[0.08503031230614075,-0.15271366299473843]",4.0,"[0.12008855534518785,-0.05720043237302226]",4.0,"[0.055140535309625746,0.09882257040254963]",100.0,"[-0.02086320825751014,0.07205035690301272]",100.0,"[-0.0844175036182031,-0.07349328004003348]",100.0,"[0.02,0.02]",182.6865,0.0,28.0,28.0,32.0,1.0,,,,,,,
,,,,,,,67ab0c530956db6bcc65f096,6842bbf2af60556d55078113,2025-06-06_12h02.41.785,shape_ratio,2024.1.5,Win32,29.76190476,6842b561977af9ba9b0f87ca,,,,,,,,,,,182.6875,183.1863,,,183.4255,183.7031,right,0.2599,,,,,,,,,0.1,,,,,,183.1863,183.4255,183.7033,"[0.006538007507921876,-0.19447807560633684]",4.0,"[0.11463756639815927,-0.00002555201997998992]",4.0,"[-0.11708818007128026,0.1520350473829752]",4.0,"[0.10440600903325047,-0.06179720901695043]",4.0,"[0.1867084387270087,0.06862864782163655]",4.0,"[0.024437878019194788,-0.0889219756150864]",4.0,"[0.008749976509035988,-0.007063643303299045]",100.0,"[0.06122166016352628,0.055729086490133105]",4.0,"[0.14467418709607213,-0.06962381511075276]",4.0,"[0.009405114796897693,0.04851848455063379]",4.0,"[0.03132092384359441,-0.044353920553194454]",4.0,"[0.013626686906294753,0.14317022332598917]",4.0,"[-0.1791095471084533,-0.0876551873504312]",4.0,"[0.1127279345390987,0.0829518214369012]",4.0,"[-0.08207687731169735,-0.03711578823029554]",4.0,"[-0.11945387701184203,0.052315289133062]",100.0,"[-0.02259291622698301,-0.09874658074101741]",4.0,"[0.19378190218076885,-0.008147343225513207]",4.0,"[-0.032689302864788425,0.15006041766722392]",4.0,"[-0.070192296209656,-0.09053039963689853]",4.0,"[0.064816839331613,-0.15378670508043418]",4.0,"[0.07500998814855446,-0.09703014103948152]",4.0,"[-0.1357926889428464,-0.12493409479300327]",100.0,"[-0.002909701010824307,0.10536836290307397]",4.0,"[-0.192726482853059,0.014259062519741073]",4.0,"[-0.03710778402045957,-0.05221065903662129]",4.0,"[-0.18350304223788141,-0.033979038636165346]",4.0,"[0.09107077292494205,0.17544961626383024]",4.0,"[0.054371700220687116,0.1362023677955699]",4.0,"[-0.108640440434344,0.09861506423874286]",4.0,"[0.1158037464219794,-0.12400288570793083]",4.0,"[-0.07579030501567546,0.051855482934666124]",4.0,"[0.02,0.02]",184.8026,0.0,29.0,29.0,201.0,1.0,,,,,,,
,,,,,,,67ab0c530956db6bcc65f096,6842bbf2af60556d55078113,2025-06-06_12h02.41.785,shape_ratio,2024.1.5,Win32,29.76190476,6842b561977af9ba9b0f87ca,,,,,,,,,,,184.803,185.303,,,185.542,185.7263,right,0.1677,,,,,,,,,0.1,,,,,,185.303,185.542,185.7263,"[0.004408793436402392,-0.19485237063388172]",4.0,"[0.0399199073587068,0.09450866193178352]",4.0,"[-0.052344979369355844,-0.07418476664081664]",4.0,"[-0.14883130700708924,0.045235108794716726]",4.0,"[0.10032817398161288,0.01706897013293861]",4.0,"[0.1099274368104854,-0.08895739300984916]",4.0,"[0.12068433236479642,0.07909895387369928]",4.0,"[-0.025736424817762418,0.13419896032092746]",4.0,"[0.15705318531928178,-0.08331306285022048]",4.0,"[0.05301471697506988,-0.16908205683273345]",4.0,"[0.0454833199864946,0.17243515538253204]",4.0,"[0.02640727725176802,0.01405428716409438]",4.0,"[-0.10306059389549697,-0.007309282562507502]",4.0,"[-0.010323656372090382,0.18788841268032255]",100.0,"[-0.10442170678770468,-0.15828551164723736]",4.0,"[0.07045123763032594,0.05674187035971713]",4.0,"[-0.15399828919457859,-0.03497147283380436]",4.0,"[-0.014940404919372919,0.051323970991922756]",4.0,"[-0.008677274058817205,-0.06889270651137856]",4.0,"[-0.04172798962378443,-0.19292902595257932]",4.0,"[0.13053009570972354,0.12279070110341737]",100.0,"[-0.03859822825828246,-0.13479237355085497]",4.0,"[-0.08016872252268872,0.16601204114036183]",4.0,"[0.17610583252738962,0.008767806186397166]",4.0,"[0.12595303087947204,-0.01649045087086845]",4.0,"[-0.08575742643854359,0.10247852462411805]",4.0,"[0.14786030362933542,0.044667797205398506]",4.0,"[0.17902106198595713,-0.04703764940978806]",100.0,"[-0.1708958566139336,-0.0842994134074709]",4.0,"[-0.029747748514998864,-0.004301273745220511]",4.0,"[-0.11246942385692842,-0.0721054636772846]",4.0,"[-0.12785105207276826,-0.12041916158409602]",4.0,"[0.02,0.02]",186.8202,0.0,30.0,30.0,206.0,1.0,,,,,,,
,,,,,,,67ab0c530956db6bcc65f096,6842bbf2af60556d55078113,2025-06-06_12h02.41.785,shape_ratio,2024.1.5,Win32,29.76190476,6842b561977af9ba9b0f87ca,,,,,,,,,,,186.821,187.3199,,,187.5587,187.7691,left,0.186,,,,,,,,,0.5,,,,,,187.32,187.5587,187.7692,"[-0.058468524001555985,-0.1571418872387184]",4.0,"[-0.12684516018303812,-0.09828816826813183]",4.0,"[0.16073066135226843,0.008997812711872413]",4.0,"[-0.11744018352138541,0.051672808202295695]",4.0,"[-0.01056170909240741,-0.16986004396360818]",100.0,"[0.11608691845433293,0.1355249141537754]",100.0,"[-0.046765028158433405,-0.09409250025866046]",100.0,"[0.11914565988507732,-0.012065603425662846]",4.0,"[0.00661915057149533,0.08594380210559152]",100.0,"[0.09774094700394446,0.05622162994231352]",100.0,"[-0.05985280817959288,0.04057632014380685]",4.0,"[-0.1536945322046983,0.09386575619882188]",4.0,"[0.05212818109246779,-0.03734369835130842]",4.0,"[0.04175825083711923,-0.1781064069979909]",4.0,"[0.10560652957183285,-0.10039513170160311]",4.0,"[0.19185757562143357,-0.031313772354821745]",100.0,"[-0.0014567387651480397,-0.08784216849635566]",100.0,"[-0.07925000673253707,-0.05748216267872287]",100.0,"[0.04092978553110653,0.11013085782966368]",4.0,"[-0.043171219167856295,0.18581454181689774]",100.0,"[-0.06609126696939574,0.1358433461723622]",4.0,"[0.11871410462348715,-0.1424615683172785]",100.0,"[-0.1419158208519304,-0.01581961400314539]",4.0,"[0.006453905322050806,0.13816620503868624]",100.0,"[0.17812478050017522,0.04661933528091376]",100.0,"[0.15187764597567116,-0.09812102323305057]",100.0,"[-0.0835626616461123,-0.12177854526814227]",100.0,"[0.004832237349176351,0.03538286178791897]",100.0,"[-0.131434949482061,0.14953217632729388]",4.0,"[0.07617514306888269,0.14259655818204156]",4.0,"[0.056377204389761154,0.06619294634795617]",4.0,"[-0.19276554864726564,-0.019517876589195533]",100.0,"[0.02,0.02]",188.8699,0.0,31.0,31.0,91.0,1.0,,,,,,,
,,,,,,,67ab0c530956db6bcc65f096,6842bbf2af60556d55078113,2025-06-06_12h02.41.785,shape_ratio,2024.1.5,Win32,29.76190476,6842b561977af9ba9b0f87ca,,,,,,,,,,,188.8704,189.3702,,,189.6244,189.7693,right,0.1192,,,,,,,,,0.55,,,,,,189.3702,189.6243,189.7693,"[-0.008677831236853726,-0.0022091462915839813]",100.0,"[-0.028257296876783827,0.05971554958784196]",4.0,"[-0.07335752268022531,-0.11586502128837668]",4.0,"[0.024225787621944387,-0.04079784145090317]",4.0,"[0.06543739379485893,-0.1770806165987494]",4.0,"[0.06448736107830035,0.1034188837179309]",100.0,"[-0.10842888013614392,0.0963312864567527]",4.0,"[0.10646575258503944,0.009163314215437184]",4.0,"[-0.18165936840938607,-0.07844887213458575]",4.0,"[0.01783031767635636,-0.1761426938652487]",100.0,"[0.1534909958608106,0.12818158667862328]",100.0,"[0.02025675494578815,0.19694650202444508]",100.0,"[0.15434418630639563,0.06295358681343015]",100.0,"[-0.11760256344063398,0.14421652781005104]",100.0,"[0.09767056398930193,0.14308060287703134]",100.0,"[0.012536138402772788,0.12281143732151206]",4.0,"[-0.1647694057528681,0.10176628470756767]",100.0,"[0.0322122456360116,0.039596991086289446]",100.0,"[0.06603524148360311,-0.05557382288533851]",100.0,"[-0.11877209806033312,0.05162678796949113]",4.0,"[0.19057154912559085,0.003313699781369971]",100.0,"[-0.05436468371677256,0.14035066909636584]",100.0,"[-0.02291655498330966,-0.09983102856312176]",4.0,"[-0.12763150874030307,0.010111201427197954]",4.0,"[0.12135873227490675,-0.04032476411252515]",100.0,"[-0.04421559553804143,0.1849941121619241]",100.0,"[-0.16525173494686354,-0.02741173875211214]",4.0,"[-0.023651101633507685,-0.043824084469195286]",100.0,"[0.05169547190274011,0.15135036498971058]",4.0,"[0.12037541040661873,-0.09666577520989633]",100.0,"[-0.08651717427743055,-0.03884384351647997]",4.0,"[0.07900638062890868,-0.13218063223775103]",100.0,"[0.02,0.02]",190.8693,0.0,32.0,32.0,63.0,1.0,,,,,,,
,,,,,,,67ab0c530956db6bcc65f096,6842bbf2af60556d55078113,2025-06-06_12h02.41.785,shape_ratio,2024.1.5,Win32,29.76190476,6842b561977af9ba9b0f87ca,,,,,,,,,,,190.87,191.3694,,,191.6074,192.0028,left,0.3872,,,,,,,,,0.4,,,,,,191.3694,191.6074,192.0028,"[-0.18924510580650838,-0.045976363210484913]",4.0,"[-0.06106616695245384,0.01377270083452673]",4.0,"[-0.15677359481410205,-0.08442288044868415]",4.0,"[-0.05773031681946943,-0.13815350349340003]",100.0,"[0.1370777610478821,0.12677531943613618]",4.0,"[-0.10052306854549155,0.08887100334583163]",100.0,"[0.006565818640338298,0.16137617599619605]",100.0,"[-0.16763899527956405,0.09109610854307723]",100.0,"[0.08569462788811921,-0.17150287395319017]",4.0,"[-0.1355864329769201,0.00559294712653214]",100.0,"[0.12545183024034143,-0.03736137632918673]",4.0,"[0.09235298541031824,0.0754454519038949]",4.0,"[0.12139787469263416,0.026052178640014318]",4.0,"[0.053422045848979374,0.05706001526332275]",4.0,"[-0.0225486929338255,-0.01745413246931422]",4.0,"[0.02378266238924163,-0.17653610251735702]",4.0,"[0.03473015117105609,-0.12704119893018256]",100.0,"[0.06323030025556654,0.01646160040113975]",100.0,"[-0.06222490514712373,0.13175702952940674]",4.0,"[-0.007137725126166704,0.0659772068017729]",100.0,"[0.07175411666892148,-0.08063004190755184]",4.0,"[0.17880322092562712,-0.06995292860445816]",100.0,"[0.1300415276247834,-0.15042596296583144]",4.0,"[-0.06735849444849183,0.18498409638829827]",4.0,"[0.16110098674332105,0.08420664897339242]",100.0,"[-0.08613295950168472,-0.06523683206281036]",4.0,"[-0.12638322308286185,0.13627487385662942]",4.0,"[0.051789898074335594,0.11464483732548407]",100.0,"[-0.03639323251498048,0.10078282909974394]",4.0,"[0.10896449770921963,0.163773468833775]",4.0,"[0.18037112235314393,-0.008686687979085901]",100.0,"[0.19311184946143078,0.04625305100309301]",100.0,"[0.02,0.02]",193.1031,0.0,33.0,33.0,166.0,1.0,,,,,,,
,,,,,,,67ab0c530956db6bcc65f096,6842bbf2af60556d55078113,2025-06-06_12h02.41.785,shape_ratio,2024.1.5,Win32,29.76190476,6842b561977af9ba9b0f87ca,,,,,,,,,,,193.1035,193.6038,,,193.8531,194.153,right,0.2728,,,,,,,,,0.5,,,,,,193.6039,193.8531,194.153,"[-0.04656217481566721,0.12042239126000095]",100.0,"[0.08012154916315685,-0.12859305184870878]",100.0,"[-0.012054292643607821,0.02016505910756274]",4.0,"[0.11193237058052509,-0.026272848878654703]",100.0,"[0.12255216145503635,0.07216066003999182]",100.0,"[0.025862543841810297,0.15410789922050158]",4.0,"[-0.08805955821940611,-0.01799341912098746]",4.0,"[0.05073763516729001,-0.019534328855525203]",4.0,"[-0.12134174539321077,-0.061589742167302085]",4.0,"[0.0006717671263658434,-0.05112148129331654]",100.0,"[-0.1277901949482725,0.11694819953800253]",4.0,"[0.16961683454287468,-0.06623366050607168]",4.0,"[0.07352255672716534,0.1616713523228954]",4.0,"[-0.023848370198064215,-0.1486304230702353]",100.0,"[-0.03946388208863621,-0.08948996176042102]",100.0,"[-0.05736544345697939,0.016587479084844117]",4.0,"[0.01729292081777587,-0.1787417574976689]",4.0,"[0.09123667578067642,0.009224447143150481]",4.0,"[-0.029654581455901923,-0.19247146881518942]",4.0,"[0.11886943944037967,0.15170738447202814]",4.0,"[-0.1602243898353436,-0.044665445258936495]",100.0,"[0.17528460637339185,0.04159745056722731]",100.0,"[-0.06600966734030178,0.08004345268463456]",4.0,"[-0.09111537907903718,-0.10876581676431685]",4.0,"[0.12966010929777563,-0.0909296320134332]",100.0,"[-0.13693651603649049,0.02684651815543485]",4.0,"[-0.009812636994441666,0.09904915047481641]",100.0,"[-0.15323856980821896,0.08328861080504606]",100.0,"[0.04206559065294537,0.10050275120491488]",100.0,"[-0.15315100809689455,-0.12027281724387114]",100.0,"[-0.06180974344053553,0.18453200301909325]",100.0,"[0.004615772546716794,-0.11542747954886921]",100.0,"[0.02,0.02]",195.2531,0.0,34.0,34.0,93.0,1.0,,,,,,,
,,,,,,,67ab0c530956db6bcc65f096,6842bbf2af60556d55078113,2025-06-06_12h02.41.785,shape_ratio,2024.1.5,Win32,29.76190476,6842b561977af9ba9b0f87ca,,,,,,,,,,,195.2541,195.7532,,,196.0036,196.1532,right,0.1384,,,,,,,,,0.45,,,,,,195.7532,196.0036,196.1533,"[-0.013338564066994322,-0.13816673090793616]",4.0,"[0.17202030192004422,-0.0865107605248068]",4.0,"[-0.012733087763915227,0.012185525508605289]",100.0,"[0.1738019580760466,0.012324760213658567]",4.0,"[-0.13799676631473698,0.07903834037661374]",4.0,"[0.08171121711777676,0.057850685658733865]",100.0,"[-0.07853695858627271,-0.13850913943575144]",100.0,"[0.11356633977863108,-0.014135328205647772]",100.0,"[0.041569806797570656,-0.17917793449539168]",4.0,"[0.008730692544437143,0.12370744673302989]",4.0,"[0.07423723206920738,0.14216772211145287]",100.0,"[0.014869579016098661,0.1673195593127398]",100.0,"[0.041747577102161634,0.01731249626482499]",4.0,"[0.09278326137364953,-0.17353549464232773]",4.0,"[-0.13575647872921,-0.02856463192383815]",4.0,"[-0.029234829038566883,0.08219368621185298]",100.0,"[0.09948433600107041,-0.12244130409187555]",4.0,"[0.025287675608828768,-0.05387897489873323]",4.0,"[-0.05157121517693672,-0.07732804793445389]",4.0,"[0.153902127227129,-0.12367175186863077]",4.0,"[0.05021637152081241,0.10584452809697388]",4.0,"[0.1805073819995075,0.05927441105980095]",100.0,"[-0.177667358521435,0.026622757280958816]",4.0,"[-0.16182967536985035,-0.10980498683569159]",4.0,"[-0.1150944246316717,0.15011748116200394]",4.0,"[-0.0690337979870869,0.1774004109876828]",100.0,"[-0.02197662662129528,-0.19433360997030646]",100.0,"[-0.05101289953521246,-0.030276524194126478]",100.0,"[0.09639859973319148,-0.06092280541807701]",100.0,"[-0.11361995670502377,0.016000537148527498]",4.0,"[0.13617569367900076,0.14599899504859762]",100.0,"[0.14277318608591977,0.10289756278371759]",100.0,"[0.02,0.02]",197.2531,0.0,35.0,35.0,142.0,1.0,,,,,,,
,,,,,,,67ab0c530956db6bcc65f096,6842bbf2af60556d55078113,2025-06-06_12h02.41.785,shape_ratio,2024.1.5,Win32,29.76190476,6842b561977af9ba9b0f87ca,,,,,,,,,,,197.2536,197.7533,,,198.0076,198.1857,left,0.1508,,,,,,,,,0.6,,,,,,197.7534,198.0075,198.1858,"[-0.042396085909101065,0.06236454698958401]",100.0,"[-0.05613483683753679,-0.15827281091040027]",100.0,"[0.13776930332638965,0.004606495741471888]",100.0,"[0.01313981730538463,0.08203401095326791]",4.0,"[0.055480045341719804,0.11872156011165154]",100.0,"[-0.18833668566812048,-0.026889289288663548]",100.0,"[-0.0661309750052733,-0.009122051324608459]",100.0,"[-0.0322381370913659,0.12054450609447666]",4.0,"[0.16835137104713693,-0.10350640628103122]",100.0,"[-0.0431619332555736,-0.06626870381012268]",4.0,"[0.05912052133511083,0.18255930649520405]",100.0,"[-0.014156903997860171,-0.028046022450609318]",100.0,"[-0.11352595920902943,0.07699534607680746]",4.0,"[0.07441706024862615,-0.16158645698977156]",100.0,"[0.03952409031600553,0.0053165233699798186]",4.0,"[-0.06637203090058051,-0.11531421742126476]",4.0,"[-0.16696693495059803,0.10310354473573485]",4.0,"[0.1678054339148188,-0.03226100826145404]",4.0,"[-0.06597101269838315,0.18145954940727752]",4.0,"[0.01984135898868635,-0.06405226886622406]",100.0,"[0.09814876780515407,-0.08714550742272353]",100.0,"[-0.14711986138352082,-0.04211844693544726]",100.0,"[0.13636516668154275,0.06415975318248489]",4.0,"[-0.12273319412964158,-0.13276253090216966]",100.0,"[0.17695661777229957,0.019435413915454423]",4.0,"[0.05445176868807143,-0.03918682907252452]",100.0,"[0.1758479759535522,0.07416384850097284]",100.0,"[0.002918599589990749,-0.15516064636896293]",4.0,"[-0.12793155096372663,0.13636085142276969]",100.0,"[-0.006868711076178339,0.1530181120651888]",100.0,"[-0.11343260370566029,0.01286787811295916]",100.0,"[0.043414692892902375,-0.11124965666288769]",4.0,"[0.02,0.02]",199.2866,0.0,36.0,36.0,46.0,1.0,,,,,,,
,,,,,,,67ab0c530956db6bcc65f096,6842bbf2af60556d55078113,2025-06-06_12h02.41.785,shape_ratio,2024.1.5,Win32,29.76190476,6842b561977af9ba9b0f87ca,,,,,,,,,,,199.2871,199.7861,,,200.0248,200.4433,right,0.4017,,,,,,,,,0.9,,,,,,199.7861,200.0246,200.4433,"[0.09198460268074328,-0.11032762232122764]",100.0,"[-0.09936790379483208,0.052541117182205666]",100.0,"[-0.042827473866052096,-0.1817611926136484]",100.0,"[0.013141715545551616,-0.012845346575698878]",100.0,"[-0.0694760082620894,0.16442539684770496]",100.0,"[0.09161718015062083,0.028491329448770097]",100.0,"[-0.10892449279658944,0.10496895805274699]",100.0,"[0.06754225505765767,-0.03141086622564837]",100.0,"[0.022165237212416374,-0.16122069084476856]",100.0,"[-0.13105514296172086,-0.07131249779034107]",100.0,"[0.17697210176847986,0.09138580983410971]",100.0,"[0.12510791239715807,-0.022414436741986413]",4.0,"[-0.013516860140805146,-0.06187436350056719]",100.0,"[0.09885178181471356,0.1640534394989265]",100.0,"[0.07044727487280292,0.0720888365694171]",100.0,"[-0.18656263893465588,-0.048970625306903985]",100.0,"[0.02938174028145122,0.10548824744328615]",100.0,"[0.06358547459751382,0.13874990271418167]",100.0,"[-0.017228039440335626,-0.14967692275478034]",100.0,"[-0.039062990935887505,0.04695956922189668]",100.0,"[0.17721326547069732,-0.02210375789163221]",4.0,"[-0.02597599798474645,0.09751374546119539]",100.0,"[0.015282204127782148,0.04455293313077104]",100.0,"[-0.06421845940145586,-0.006359290978342335]",4.0,"[-0.1493522262111794,-0.11017279891923279]",100.0,"[0.15752632715844347,0.02477201372447807]",100.0,"[0.1110505253840095,0.0726979786889279]",100.0,"[-0.0038060201445131118,0.16621586060047416]",100.0,"[-0.0952335779869305,-0.15128527572453893]",100.0,"[-0.06503337277005679,-0.08344957841929036]",100.0,"[0.030729179932395913,-0.11161803095164853]",100.0,"[-0.10364392527473025,-0.02238564833414653]",100.0,"[0.02,0.02]",201.5364,0.0,37.0,37.0,8.0,1.0,,,,,,,
,,,,,,,67ab0c530956db6bcc65f096,6842bbf2af60556d55078113,2025-06-06_12h02.41.785,shape_ratio,2024.1.5,Win32,29.76190476,6842b561977af9ba9b0f87ca,,,,,,,,,,,201.5371,202.0251,,,202.2705,202.5028,right,0.2012,,,,,,,,,0.6,,,,,,202.0252,202.2703,202.5029,"[0.004451491220057682,0.011301151086694472]",4.0,"[-0.04713808806680805,0.005311371323774868]",100.0,"[0.06884519523302604,0.08297869183568268]",4.0,"[-0.021543853165063433,-0.15627810802084088]",100.0,"[0.08787279626281574,0.0253450589472485]",4.0,"[0.16529307943730276,0.07692156990448744]",100.0,"[0.0800647537742978,-0.09117134961814506]",100.0,"[0.08749671818550797,-0.15338394817550358]",4.0,"[-0.10444426212412235,-0.08762423215787209]",100.0,"[-0.029753376859587666,0.06631156349310369]",100.0,"[-0.09332503246286962,0.14097506183276937]",100.0,"[-0.0958284429411753,-0.023052600821455865]",100.0,"[0.13357248435350597,-0.06362540587106752]",100.0,"[0.04718037779572363,0.17226862681994923]",4.0,"[-0.17975356157249087,0.05459735496501849]",100.0,"[0.041132565061105346,-0.07934968318967936]",4.0,"[0.008645403984512832,0.12788832210267786]",100.0,"[0.128875751121867,0.11213467320109705]",100.0,"[-0.09698449964478607,0.0648464633411699]",4.0,"[0.16470464674582244,-0.09315214754485548]",4.0,"[0.06589496759486556,0.13671091005945288]",100.0,"[-0.013203565250406798,-0.059085951274337654]",4.0,"[-0.06619520264915241,0.10085707678957335]",4.0,"[0.025816375452056995,-0.13206559836808907]",100.0,"[-0.07273513136441415,-0.13545001126583767]",100.0,"[-0.05753374092716907,-0.0686753829476258]",100.0,"[0.09204716832089753,-0.016405930488749828]",4.0,"[-0.03792663476415427,0.16775723491316458]",4.0,"[-0.19320953767897556,0.004085555854250246]",4.0,"[-0.11351474547715257,0.01731853056587842]",100.0,"[0.1969668310955905,-0.01820333103896504]",100.0,"[0.13450429257804147,0.03519668695194345]",100.0,"[0.02,0.02]",203.6029,0.0,38.0,38.0,47.0,1.0,,,,,,,
,,,,,,,67ab0c530956db6bcc65f096,6842bbf2af60556d55078113,2025-06-06_12h02.41.785,shape_ratio,2024.1.5,Win32,29.76190476,6842b561977af9ba9b0f87ca,,,,,,,,,,,203.6035,204.1034,,,204.3562,204.5365,left,0.1595,,,,,,,,,0.1,,,,,,204.1035,204.3562,204.5367,"[-0.00444462170796922,-0.017845029132711743]",4.0,"[-0.07718080736084047,0.15335042089469503]",4.0,"[-0.1788103025497737,0.07559486248876936]",4.0,"[0.19103313899331803,-0.007703159550224313]",4.0,"[0.06098694024386378,-0.018584686386036213]",4.0,"[-0.08059343016518335,-0.17700528232716622]",4.0,"[0.13712098165459516,0.09524310522627676]",4.0,"[-0.08516208900948447,0.10575590952783234]",4.0,"[-0.013693212281939099,0.048598118731272254]",4.0,"[-0.11909870347482554,-0.11931466684157321]",4.0,"[-0.08526499500828494,-0.005118644944849315]",4.0,"[-0.1322861896422473,0.13008350958588266]",4.0,"[0.1082494871813649,0.14891434926860259]",4.0,"[0.10622120853196466,-0.08512280620399063]",4.0,"[-0.0015681783465523998,-0.15053337320154478]",4.0,"[0.16071703736884313,-0.09422839957818317]",4.0,"[0.04007421696805134,-0.12533532062253425]",4.0,"[0.09938271876696804,0.022182306290375677]",4.0,"[-0.06789768499544656,-0.06633157719762803]",4.0,"[-0.13869791988637867,0.004676190139224282]",4.0,"[0.14101737087004323,0.01799519489795649]",4.0,"[-0.13870604480443893,0.06472393798572679]",4.0,"[0.07733855607887058,-0.14562589607012244]",100.0,"[0.07015389237369733,0.17673818520419926]",100.0,"[0.06052570770663671,-0.06467315482427642]",4.0,"[-0.0019982273813531374,0.11095668152322308]",4.0,"[0.04392121060105492,0.07093241029636861]",4.0,"[0.08589023818593293,0.11039936450109107]",4.0,"[-0.038224296635408876,-0.104979984989056]",4.0,"[0.1692358391486662,0.06729892911117423]",4.0,"[0.17061948369399293,-0.04753203717082585]",100.0,"[-0.08477309231972367,0.05449649085736442]",4.0,"[0.02,0.02]",205.6405,0.0,39.0,39.0,207.0,1.0,,,,,,,
,,,,,,,67ab0c530956db6bcc65f096,6842bbf2af60556d55078113,2025-06-06_12h02.41.785,shape_ratio,2024.1.5,Win32,29.76190476,6842b561977af9ba9b0f87ca,,,,,,,,,,,205.6408,206.1359,,,206.3869,206.6527,left,0.2347,,,,,,,,,0.4,,,,,,206.136,206.3868,206.6527,"[0.09169488743300251,-0.15839836785555125]",100.0,"[0.046800325904193335,-0.000012719628220868702]",100.0,"[-0.19132846430990005,-0.04510347321758474]",100.0,"[0.1499792242789917,-0.10770070353742665]",4.0,"[-0.11525368994736912,-0.12449488424899713]",100.0,"[0.13955829002868483,0.054404658516571766]",4.0,"[0.08711187439616835,0.08870686420958233]",4.0,"[0.17128404797099628,0.08477782911168795]",100.0,"[0.16522292727822477,-0.06671246242997761]",100.0,"[-0.04462676213507,0.06847775753816802]",4.0,"[-0.15561038679122807,-0.004424698632157215]",4.0,"[-0.09277072813783846,0.1564954821089078]",4.0,"[0.14705064473358265,-0.021762767181817997]",100.0,"[-0.17194073080878147,0.04510677244139244]",4.0,"[0.02362510134531582,0.05324039842177444]",100.0,"[-0.041551688058782135,0.013096855853470462]",4.0,"[0.021345030193006844,0.1743223951647174]",100.0,"[0.18766901254813154,0.01752847205932278]",4.0,"[0.07858899375586813,-0.06897742527787373]",4.0,"[0.08710330335047757,0.01752193892528828]",4.0,"[-0.17611273512007924,-0.09073395532744086]",4.0,"[-0.12763208250287045,0.1120596887472126]",100.0,"[-0.09631003736460104,-0.07708886651311656]",100.0,"[0.08732800761149438,0.16819569099856124]",4.0,"[0.0036008832979452154,0.11734230308507365]",100.0,"[0.049364689742783775,-0.14846205234997792]",4.0,"[-0.011439683115246731,-0.17583550767555503]",4.0,"[-0.025169381589230995,0.18470817368627915]",100.0,"[-0.004808767857244272,-0.11639436771029044]",4.0,"[0.013794913586871389,-0.07248684071527273]",4.0,"[0.10834732702148686,-0.10188193328103737]",4.0,"[-0.0998229701732898,0.020647017025734765]",4.0,"[0.02,0.02]",207.7527,0.0,40.0,40.0,150.0,1.0,,,,,,,
,,,,,,,67ab0c530956db6bcc65f096,6842bbf2af60556d55078113,2025-06-06_12h02.41.785,shape_ratio,2024.1.5,Win32,29.76190476,6842b561977af9ba9b0f87ca,,,,,,,,,,,207.7536,208.253,,,208.5032,208.7383,right,0.2282,,,,,,,,,0.5,,,,,,208.253,208.5032,208.7383,"[0.02250565363576873,-0.0773542881054288]",100.0,"[-0.0012526228471655954,-0.12697931039567065]",100.0,"[-0.10373051067084084,0.06190062247573769]",4.0,"[0.10725694826209496,-0.10910917119729491]",100.0,"[-0.06963391982974905,0.12822890993417033]",100.0,"[0.15342778774883967,0.07129493380623532]",100.0,"[0.043341911036835136,0.1297600516489999]",100.0,"[-0.130045481337337,-0.030013293511225374]",4.0,"[0.15820950308826817,0.11569576925301282]",100.0,"[-0.0783598346163783,0.17048140546521823]",4.0,"[0.19450311083302727,0.04651873091138669]",4.0,"[0.11436511131594843,0.15480894604627987]",4.0,"[0.018866135744239405,0.07432794547584555]",4.0,"[0.11195350548089342,0.09668261776226812]",100.0,"[0.11790549242237254,0.03688117706148325]",4.0,"[-0.07745621976726874,-0.04835553906352378]",100.0,"[-0.1508873843509546,0.04216973616518364]",4.0,"[-0.051211599565454555,-0.13979631796800115]",100.0,"[0.10585009169258176,-0.16274631566387157]",4.0,"[-0.03591438914909616,0.09730243073650911]",100.0,"[0.010970888367277977,0.1734580444686338]",4.0,"[-0.022984282440063113,0.03437776484384868]",4.0,"[-0.04954607699123238,-0.08551376525395152]",4.0,"[-0.07215027632225585,0.01611301322939547]",4.0,"[0.12127442261428689,-0.03697775019545815]",100.0,"[0.1627770531297997,0.013130303086258954]",100.0,"[0.06373029766170434,-0.1689395060130935]",4.0,"[0.04039544410088547,0.009242304176329054]",100.0,"[0.0009450663461993324,-0.17706061780363516]",4.0,"[-0.18320204973505722,-0.018463087499029158]",100.0,"[0.18663896398170002,-0.05437364383961976]",4.0,"[0.14702218671537126,-0.09927645002563064]",100.0,"[0.02,0.02]",209.8362,0.0,41.0,41.0,103.0,1.0,,,,,,,
,,,,,,,67ab0c530956db6bcc65f096,6842bbf2af60556d55078113,2025-06-06_12h02.41.785,shape_ratio,2024.1.5,Win32,29.76190476,6842b561977af9ba9b0f87ca,,,,,,,,,,,209.8369,210.3371,,,210.5915,210.8358,right,0.2213,,,,,,,,,0.6,,,,,,210.3371,210.5914,210.8358,"[-0.06300497842974888,0.018036215371941867]",100.0,"[0.020309276041285,-0.05013338202338381]",4.0,"[-0.13385364416201015,0.0070366053644385996]",100.0,"[0.03820403200597723,-0.1769992181543514]",100.0,"[0.14323683656728628,-0.11892929128339716]",4.0,"[-0.1548004463681961,0.09718363530069042]",4.0,"[-0.1596521614912201,-0.10090841860026793]",100.0,"[0.12425152942725137,-0.013490976352909733]",4.0,"[0.17316468722688771,0.007008321348147079]",100.0,"[-0.03741566481100399,0.14293733324311092]",100.0,"[-0.030210256295357837,-0.010954491982215207]",100.0,"[0.035103420180848076,-0.12348340890858993]",100.0,"[-0.13471220381968615,0.1458843896163417]",4.0,"[0.15629560660784902,-0.07195678076301248]",100.0,"[0.10559822003843089,0.1334957009554]",4.0,"[-0.018220318006304144,-0.1592835552826094]",100.0,"[0.08107931811832987,-0.06147051280526158]",4.0,"[0.048097064892793286,0.17525290235542937]",100.0,"[0.016160531941518043,0.03454783090069926]",100.0,"[-0.1103134989624821,-0.07748661246407548]",100.0,"[-0.18389791327367996,0.0683094426102877]",100.0,"[-0.02111888294520323,-0.08248141831079978]",100.0,"[-0.09824266021515704,0.12549006515394695]",100.0,"[0.16999382267417804,0.0623890260394185]",4.0,"[-0.0859199553209276,0.16416132315903004]",100.0,"[0.0901699313094368,0.05451182860110468]",4.0,"[-0.17758950319141537,-0.05066801767045131]",4.0,"[-0.07206080551620549,-0.05501447766084717]",100.0,"[0.004248222038244474,0.12436430437410874]",4.0,"[-0.07707789217681171,-0.1407992334384895]",100.0,"[0.053925857127418465,0.0821748159050454]",4.0,"[-0.19818911720734814,0.005482564660591333]",4.0,"[0.02,0.02]",211.9365,0.0,42.0,42.0,51.0,1.0,,,,,,,
,,,,,,,67ab0c530956db6bcc65f096,6842bbf2af60556d55078113,2025-06-06_12h02.41.785,shape_ratio,2024.1.5,Win32,29.76190476,6842b561977af9ba9b0f87ca,,,,,,,,,,,211.9375,212.4364,,,212.692,212.8693,left,0.1561,,,,,,,,,0.5,,,,,,212.4364,212.6919,212.8694,"[-0.004648318077629603,-0.049625350496113725]",4.0,"[-0.04063437268375325,0.18691057547049883]",100.0,"[-0.08026321268557682,-0.14332423463240568]",100.0,"[-0.09105358600222262,0.004492052255484822]",4.0,"[-0.19609223151327584,-0.03466952576756841]",100.0,"[0.05970792210990322,-0.018011047083345572]",100.0,"[-0.001195540255105911,-0.1303280035892625]",4.0,"[-0.04155791495610756,-0.0015456991137717177]",100.0,"[0.16710787482180264,0.07700644534883315]",100.0,"[-0.14786118335175918,0.08233504515182132]",4.0,"[0.053758545803911935,0.17962888299708357]",100.0,"[0.0637132318312825,-0.17278537372781427]",100.0,"[-0.0005272743898190273,0.045284541377491466]",100.0,"[0.1352061142033462,0.1247480013324421]",4.0,"[0.13839936706028225,-0.12708967441624935]",4.0,"[0.10444266528876173,0.06688081838034172]",100.0,"[-0.09855703014089114,-0.10364557938036342]",4.0,"[0.05482942649426084,0.05254154017735097]",4.0,"[0.10036638844597794,0.15540546949446477]",4.0,"[0.11199552769450345,-0.01670843505272715]",100.0,"[-0.068628519295721,-0.039516295960158786]",4.0,"[0.10560976008175073,0.026265624595902058]",4.0,"[-0.1362321236968271,-0.02164255854299273]",4.0,"[-0.1777710275958215,0.03867502846481402]",100.0,"[-0.05494370941273523,0.11717505255413689]",4.0,"[0.0813721674035707,-0.09410938458650013]",4.0,"[0.02164923804564795,0.10696107537573087]",100.0,"[0.06959228895467014,0.129669631064184]",100.0,"[-0.12016743848575986,0.04153565716415241]",4.0,"[-0.13925250788152427,-0.06280176253663296]",4.0,"[0.025439485222465558,-0.1891236101002655]",100.0,"[-0.08053546332752581,0.06574909874268349]",100.0,"[0.02,0.02]",213.9697,0.0,43.0,43.0,96.0,1.0,,,,,,,
,,,,,,,67ab0c530956db6bcc65f096,6842bbf2af60556d55078113,2025-06-06_12h02.41.785,shape_ratio,2024.1.5,Win32,29.76190476,6842b561977af9ba9b0f87ca,,,,,,,,,,,213.9702,214.4698,,,214.7203,214.8749,left,0.133,,,,,,,,,0.6,,,,,,214.4699,214.7202,214.8749,"[-0.012662688582358823,-0.008315994975109785]",100.0,"[-0.16604271069814763,-0.09526929784496095]",4.0,"[-0.10359216497485017,-0.10529333246528687]",100.0,"[-0.04747806481576783,-0.1689252709789585]",4.0,"[-0.05375740885367596,0.18589052853442284]",4.0,"[0.12657838198750565,-0.07584443125313353]",4.0,"[0.01705345741757433,0.06883386508844593]",100.0,"[-0.123605391472599,-0.02412928084834047]",4.0,"[-0.01896855450303693,-0.10780185997763078]",100.0,"[0.02467364595895907,0.17488022740879133]",100.0,"[0.15623916152610984,0.04399376774391539]",4.0,"[0.18587688135522595,-0.006966266723832532]",100.0,"[0.05843057567277446,-0.1808875881175951]",100.0,"[-0.11225538368122868,0.08051877123528972]",100.0,"[-0.1771033549487525,0.009068661218264634]",100.0,"[-0.10955051287590785,0.14222992043875085]",4.0,"[0.01839290644252959,-0.0500433773005791]",4.0,"[-0.06641301077474046,0.018098908311469247]",4.0,"[0.18526746245017853,-0.07182538117055287]",4.0,"[0.13166347206312984,0.12419854371513729]",4.0,"[-0.09967722633119253,-0.06292988749910818]",100.0,"[0.002230839911830796,-0.18429134235269304]",100.0,"[0.08347110533871195,0.11576196242609003]",100.0,"[0.07909677224371428,-0.04870780410220887]",100.0,"[-0.16433989112634387,0.07922780298627463]",100.0,"[-0.1323691573110436,-0.13370330432522484]",100.0,"[-0.06141996645875724,-0.08309051075078597]",4.0,"[-0.0678323260990503,-0.028022280509649708]",100.0,"[0.14183862120844679,-0.012494099178346518]",100.0,"[-0.03820152443236485,0.07828682178514935]",100.0,"[0.03388057066552363,-0.14012566098964285]",4.0,"[0.13704373197059652,-0.12504495709499092]",100.0,"[0.02,0.02]",215.9727,0.0,44.0,44.0,30.0,1.0,,,,,,,
,,,,,,,67ab0c530956db6bcc65f096,6842bbf2af60556d55078113,2025-06-06_12h02.41.785,shape_ratio,2024.1.5,Win32,29.76190476,6842b561977af9ba9b0f87ca,,,,,,,,,,,215.9732,216.4702,,,216.7198,216.8866,right,0.1411,,,,,,,,,0.1,,,,,,216.4704,216.7198,216.8867,"[-0.06615729726848654,0.10072398139746]",4.0,"[0.18129755926866012,-0.054607831055933524]",4.0,"[-0.16572611637641885,0.0380989026144214]",4.0,"[0.050961536891310624,-0.07961437929667221]",4.0,"[-0.036718166522812234,0.06015010379086274]",4.0,"[-0.05220797803441188,-0.1738320415541463]",4.0,"[0.14079558072479265,-0.01653357184590997]",4.0,"[0.06658396048649465,-0.020935372220262895]",4.0,"[0.05200546479672376,0.1494495656529533]",100.0,"[0.16690740107661783,0.040291560339650284]",4.0,"[-0.1539726262118258,0.09026282163317577]",4.0,"[0.11513070282059087,0.02349889453385611]",4.0,"[-0.11746657830125759,-0.052870494789529196]",4.0,"[0.12005708250212543,-0.12991648290904087]",4.0,"[-0.06715874439252432,0.15241850606605525]",4.0,"[-0.12521989068906642,-0.13718471104578214]",4.0,"[0.04681618381547438,0.06006731111534693]",4.0,"[0.00578135135777666,0.0288953656394557]",4.0,"[-0.10867920549605224,0.024597458478675987]",4.0,"[0.018657702097484404,-0.055144249234140054]",4.0,"[-0.08187844659613527,-0.07821740014884913]",4.0,"[0.13586004161929977,-0.08351573730799475]",4.0,"[-0.021132458947868093,0.11295956602986564]",100.0,"[-0.049207098577908726,-0.1136372366997694]",4.0,"[0.010694338472619745,-0.14687692189137092]",100.0,"[0.1469385712722343,0.13270162958404802]",4.0,"[0.1596522480566066,0.082659198996089]",4.0,"[0.016485329919331392,-0.011953298274434237]",4.0,"[0.0430634800352279,0.10962882052440612]",4.0,"[-0.04296735836748519,-0.03556787641426158]",4.0,"[0.05317275194703891,-0.12226199246601845]",4.0,"[-0.15151248071484916,-0.10506221085942694]",4.0,"[0.02,0.02]",217.9866,0.0,45.0,45.0,195.0,1.0,,,,,,,
,,,,,,,67ab0c530956db6bcc65f096,6842bbf2af60556d55078113,2025-06-06_12h02.41.785,shape_ratio,2024.1.5,Win32,29.76190476,6842b561977af9ba9b0f87ca,,,,,,,,,,,217.9871,218.4866,,,218.7369,218.8692,left,0.1045,,,,,,,,,0.4,,,,,,218.4866,218.7368,218.8692,"[0.08511191436177067,0.03887527128799775]",4.0,"[-0.09298409203321842,0.12449828373396205]",4.0,"[-0.047734577246467444,-0.07981712537263268]",100.0,"[0.14850490800910304,0.05315161936884824]",100.0,"[-0.12625328168941105,0.04115572711080661]",4.0,"[-0.04768800823287747,0.06214862504840516]",100.0,"[-0.07342064475301217,-0.16270262071974695]",4.0,"[-0.01059593913189784,-0.052515278686466514]",100.0,"[-0.09862291780392121,-0.0045248221177103184]",4.0,"[-0.14194710230164861,-0.1131067673968905]",4.0,"[0.14237263276055864,0.01097808480314708]",4.0,"[-0.18707710090834442,-0.01326571377765597]",4.0,"[0.03754334926896748,0.09677248873711247]",4.0,"[-0.0651785196395141,0.18313239450516758]",4.0,"[0.0919393810128273,0.14522358459189025]",100.0,"[-0.06206001101358919,-0.03938390338108215]",4.0,"[0.11237409129353346,-0.06739150331634763]",100.0,"[0.09566412464767042,0.1040307736057723]",4.0,"[-0.1361794342652197,-0.06086050543312133]",4.0,"[-0.031166164427232166,0.15548140314685477]",100.0,"[-0.13709792015251415,-0.02071018242989541]",4.0,"[-0.0054559952211265415,0.03437570758871141]",100.0,"[0.06284930935214744,-0.1531339429298763]",4.0,"[0.07304734625905172,0.18352999918264223]",100.0,"[0.12385689204941518,-0.026041960381615697]",100.0,"[0.16924045537223179,0.10379407724612362]",4.0,"[0.019386152704250995,-0.1669345150244603]",4.0,"[-0.0066904264049571106,0.19949658128759268]",100.0,"[0.14708933770446392,-0.10961620067631497]",100.0,"[0.0248817647477458,0.16830274503689913]",100.0,"[0.036031178276092174,-0.004000132185100867]",4.0,"[-0.04687731945051467,-0.13252508145554012]",4.0,"[0.02,0.02]",219.9703,0.0,46.0,46.0,157.0,1.0,,,,,,,
,,,,,,,67ab0c530956db6bcc65f096,6842bbf2af60556d55078113,2025-06-06_12h02.41.785,shape_ratio,2024.1.5,Win32,29.76190476,6842b561977af9ba9b0f87ca,,,,,,,,,,,219.9712,220.4751,,,220.7205,220.9863,left,0.2425,,,,,,,,,0.45,,,,,,220.4752,220.7205,220.9864,"[-0.14714172132530992,-0.08230469258697105]",4.0,"[0.008694672296130695,-0.05160836147528002]",4.0,"[0.17802841601452338,0.04106656905611718]",4.0,"[-0.05024110673935799,0.1660621135538299]",4.0,"[-0.09165962220950569,0.07427733452439693]",100.0,"[-0.16230682793044382,0.05079138105821433]",4.0,"[0.09511209347525698,-0.06303784017099064]",4.0,"[0.03244040164330447,0.10379508936223907]",4.0,"[-0.11915067711637707,0.13564399201455107]",100.0,"[-0.0973102311575065,-0.16050643593554603]",100.0,"[0.023667189878542782,-0.14160489265572815]",4.0,"[0.02067518603067547,0.14707239121600849]",100.0,"[0.008037627606173551,-0.009588328428502641]",4.0,"[0.17698048539088201,-0.016318131283016075]",100.0,"[-0.028382338089818715,0.09364064443375035]",100.0,"[0.1230061973961876,0.14660995648038042]",100.0,"[-0.06603467351156746,-0.12454990054545509]",4.0,"[-0.07759523156602395,0.11710550662909093]",100.0,"[0.15458607094893503,0.08827632382848691]",4.0,"[0.08265353264863716,0.1389407271533984]",100.0,"[0.08030941149106757,0.010170548283101809]",100.0,"[-0.022891620737689355,0.037430944228321106]",4.0,"[-0.16987934449282302,-0.04413772041167018]",4.0,"[-0.08282038891544682,0.0028305370070363495]",100.0,"[-0.11093512104311323,-0.03117669005405863]",100.0,"[0.037989153704539015,0.04444947439704433]",100.0,"[-0.13827157194233022,0.09392186450260621]",4.0,"[-0.033434816028867186,-0.08686901253466256]",4.0,"[0.03480436714863324,0.18485443558025708]",100.0,"[0.14761769586538243,-0.08322899167420322]",4.0,"[-0.009285943838872143,0.19885149978404276]",4.0,"[-0.06324604899537989,-0.045255356777834516]",4.0,"[0.02,0.02]",222.0865,0.0,47.0,47.0,135.0,1.0,,,,,,,
,,,,,,,67ab0c530956db6bcc65f096,6842bbf2af60556d55078113,2025-06-06_12h02.41.785,shape_ratio,2024.1.5,Win32,29.76190476,6842b561977af9ba9b0f87ca,,,,,,,,,,,222.0874,222.5864,,,222.8366,223.1031,right,0.2542,,,,,,,,,0.5,,,,,,222.5864,222.8366,223.1031,"[0.01259599667472791,-0.19490455920803942]",4.0,"[0.10908342534475204,0.007983269530644587]",100.0,"[-0.17475663319504273,0.06881247947070096]",4.0,"[-0.04291313959478043,-0.16506188234745292]",100.0,"[0.1820401386681692,0.021562600034309605]",4.0,"[0.08895364911250353,-0.033959994997406935]",4.0,"[0.14358179744157493,-0.1250497272958248]",4.0,"[-0.17457533014482735,0.00983153270178519]",100.0,"[0.0471622563768003,0.08573550028869394]",100.0,"[0.09657065238355758,0.13576392267486517]",4.0,"[0.05925424737954303,-0.18610391961602069]",4.0,"[0.1397980796253191,-0.07501837726063677]",100.0,"[-0.03226999099419831,0.03449643015455688]",100.0,"[-0.018123849916253237,0.18465148848973503]",4.0,"[-0.03533434388967194,0.11660894373296182]",100.0,"[-0.09209416265122616,0.12226394177165467]",100.0,"[-0.006311825199507706,-0.11487446552988474]",100.0,"[-0.09283101523398991,0.17351731067106854]",4.0,"[0.1459542214671471,0.061378126395961394]",100.0,"[-0.1122220841171476,-0.1044744351435839]",100.0,"[-0.11859835138383434,-0.04258237884257611]",4.0,"[-0.15179408364909866,-0.09411840550646519]",100.0,"[0.15124047458549603,-0.00988527018603015]",4.0,"[-0.11780872233057883,0.05322026435764725]",100.0,"[0.01094489432881433,0.05355677328453716]",4.0,"[0.0045688119649111725,-0.037878736855884054]",4.0,"[0.0990808324805214,-0.16366723865872526]",100.0,"[0.1829467897019363,-0.040026428743642935]",100.0,"[0.0337997858782127,-0.0007905494941483895]",4.0,"[-0.07129172708083054,0.01625575895368505]",4.0,"[-0.038792946961727054,-0.010635373715240396]",100.0,"[0.02585346074942246,-0.1531140379522159]",4.0,"[0.02,0.02]",224.2031,0.0,48.0,48.0,107.0,1.0,,,,,,,
,,,,,,,67ab0c530956db6bcc65f096,6842bbf2af60556d55078113,2025-06-06_12h02.41.785,shape_ratio,2024.1.5,Win32,29.76190476,6842b561977af9ba9b0f87ca,,,,,,,,,,,224.2037,224.7032,,,224.9416,225.2361,right,0.2824,,,,,,,,,0.55,,,,,,224.7032,224.9416,225.2362,"[0.12197229311138345,0.14619397026303713]",4.0,"[-0.02737321034046003,0.0016668855563362064]",100.0,"[-0.10150623382664876,0.1281897219770726]",4.0,"[0.16058758072297574,0.09879667792306353]",4.0,"[-0.0910566580993232,-0.13875357773148336]",100.0,"[-0.024905579983528842,-0.15619790589103327]",100.0,"[-0.0897776705350952,0.05129112905599183]",100.0,"[0.03784832455745866,0.07478654662684348]",100.0,"[0.14166181473880265,-0.02451154898585689]",100.0,"[0.016548307119138173,-0.004837051173247579]",4.0,"[0.031769485022267806,-0.17209812738471286]",100.0,"[-0.17997419694138436,-0.027809304201961847]",4.0,"[-0.055844881870031095,-0.09226623305487919]",4.0,"[-0.03873187063905985,0.09325325134603615]",4.0,"[0.05822088372463763,-0.027456040951973758]",100.0,"[0.10958831183120096,-0.12294819259096741]",100.0,"[0.0971789766439454,-0.0494993324342076]",100.0,"[0.03630949630146149,0.11828521486387042]",100.0,"[-0.1310802515890696,0.008146510875009685]",4.0,"[-0.12491115487729795,0.09185701157417567]",100.0,"[0.1457685889262268,-0.06495047251420162]",100.0,"[-0.15364221164601552,-0.11212275232826209]",4.0,"[0.011894129109357408,-0.11279138621393292]",100.0,"[0.10457628984507533,0.03811997664960482]",4.0,"[0.00874505539500546,-0.05683010778478656]",4.0,"[-0.012856020361415919,0.12919731543167914]",100.0,"[-0.14976449640740375,0.1264449687187838]",4.0,"[-0.048181122498945024,0.05013872709941585]",4.0,"[0.09800167739655503,0.09910576951369406]",100.0,"[0.07634275273762609,-0.1676121880386434]",100.0,"[0.18196914113011567,-0.039068096619723214]",4.0,"[0.19730671709104192,0.007882333746698458]",100.0,"[0.02,0.02]",226.3363,0.0,49.0,49.0,87.0,1.0,,,,,,,
