right,left,explain.started,explain.stopped,key_resp_3.keys,key_resp_3.rt,key_resp_3.duration,participant,session,date,expName,psychopyVersion,OS,frameRate,study_id,explain_2.started,explain_2.stopped,key_resp_4.keys,key_resp_4.rt,key_resp_4.duration,explain_3.started,explain_3.stopped,key_resp_5.keys,key_resp_5.rt,key_resp_5.duration,fixation.started,fixation.stopped,practice.started,practice.stopped,response.started,response.stopped,key_resp.keys,key_resp.rt,key_resp.duration,feedback.started,feedback.stopped,trials_2.thisRepN,trials_2.thisTrialN,trials_2.thisN,trials_2.thisIndex,trials_2.ran,dot_ratio,explain_4.started,explain_4.stopped,key_resp_6.keys,key_resp_6.rt,key_resp_6.duration,dotDisplay.started,dotDisplay.stopped,ITI.started,polygon_1.pos,polygon_1.edges,polygon_2.pos,polygon_2.edges,polygon_3.pos,polygon_3.edges,polygon_4.pos,polygon_4.edges,polygon_5.pos,polygon_5.edges,polygon_6.pos,polygon_6.edges,polygon_7.pos,polygon_7.edges,polygon_8.pos,polygon_8.edges,polygon_9.pos,polygon_9.edges,polygon_10.pos,polygon_10.edges,polygon_11.pos,polygon_11.edges,polygon_12.pos,polygon_12.edges,polygon_13.pos,polygon_13.edges,polygon_14.pos,polygon_14.edges,polygon_15.pos,polygon_15.edges,polygon_16.pos,polygon_16.edges,polygon_17.pos,polygon_17.edges,polygon_18.pos,polygon_18.edges,polygon_19.pos,polygon_19.edges,polygon_20.pos,polygon_20.edges,polygon_21.pos,polygon_21.edges,polygon_22.pos,polygon_22.edges,polygon_23.pos,polygon_23.edges,polygon_24.pos,polygon_24.edges,polygon_25.pos,polygon_25.edges,polygon_26.pos,polygon_26.edges,polygon_27.pos,polygon_27.edges,polygon_28.pos,polygon_28.edges,polygon_29.pos,polygon_29.edges,polygon_30.pos,polygon_30.edges,polygon_31.pos,polygon_31.edges,polygon_32.pos,polygon_32.edges,dot_size,ITI.stopped,trials.thisRepN,trials.thisTrialN,trials.thisN,trials.thisIndex,trials.ran,break_2.started,break_2.stopped,trials_3.thisRepN,trials_3.thisTrialN,trials_3.thisN,trials_3.thisIndex,trials_3.ran
subject chose diamond,subject chose dot,0.0011,18.3742,space,3.3422,,67c65eac81e48b55bcd1f70a,684429a65a83f276ecf558cc,2025-06-07_14h09.42.011,shape_ratio,2024.1.5,Win32,30.12048193,684250e4f00cb30b92d1fa88,,,,,,,,,,,,,,,,,,,,,,,,,,,,,,,,,,,,,,,,,,,,,,,,,,,,,,,,,,,,,,,,,,,,,,,,,,,,,,,,,,,,,,,,,,,,,,,,,,,,,,,,,,,,,,,,,
,,,,,,,67c65eac81e48b55bcd1f70a,684429a65a83f276ecf558cc,2025-06-07_14h09.42.011,shape_ratio,2024.1.5,Win32,30.12048193,684250e4f00cb30b92d1fa88,18.3753,52.5559,space,4.1635,,,,,,,,,,,,,,,,,,,,,,,,,,,,,,,,,,,,,,,,,,,,,,,,,,,,,,,,,,,,,,,,,,,,,,,,,,,,,,,,,,,,,,,,,,,,,,,,,,,,,,,,,,,,,
,,,,,,,67c65eac81e48b55bcd1f70a,684429a65a83f276ecf558cc,2025-06-07_14h09.42.011,shape_ratio,2024.1.5,Win32,30.12048193,684250e4f00cb30b92d1fa88,,,,,,52.5564,57.8629,space,2.2904,,,,,,,,,,,,,,,,,,,,,,,,,,,,,,,,,,,,,,,,,,,,,,,,,,,,,,,,,,,,,,,,,,,,,,,,,,,,,,,,,,,,,,,,,,,,,,,,,,,,,,,,
,,,,,,,67c65eac81e48b55bcd1f70a,684429a65a83f276ecf558cc,2025-06-07_14h09.42.011,shape_ratio,2024.1.5,Win32,30.12048193,684250e4f00cb30b92d1fa88,,,,,,,,,,,57.9914,58.3849,58.3861,58.5514,58.5519,59.3554,left,0.4889,,59.3559,60.4686,0.0,0.0,0.0,1.0,1.0,0.8,,,,,,,,,,,,,,,,,,,,,,,,,,,,,,,,,,,,,,,,,,,,,,,,,,,,,,,,,,,,,,,,,,,,,,,,,,,,,,,,,,,,,,
,,,,,,,67c65eac81e48b55bcd1f70a,684429a65a83f276ecf558cc,2025-06-07_14h09.42.011,shape_ratio,2024.1.5,Win32,30.12048193,684250e4f00cb30b92d1fa88,,,,,,,,,,,60.4709,60.968,60.9683,61.2201,61.2205,61.8875,right,0.6494,,61.8877,62.9941,0.0,1.0,1.0,0.0,1.0,0.2,,,,,,,,,,,,,,,,,,,,,,,,,,,,,,,,,,,,,,,,,,,,,,,,,,,,,,,,,,,,,,,,,,,,,,,,,,,,,,,,,,,,,,
,,,,,,,67c65eac81e48b55bcd1f70a,684429a65a83f276ecf558cc,2025-06-07_14h09.42.011,shape_ratio,2024.1.5,Win32,30.12048193,684250e4f00cb30b92d1fa88,,,,,,,,,,,,,,,,,,,,,,,,,,,,62.9953,70.8874,space,4.8794,,,,,,,,,,,,,,,,,,,,,,,,,,,,,,,,,,,,,,,,,,,,,,,,,,,,,,,,,,,,,,,,,,,,,,,,,,,,,,,,,,
,,,,,,,67c65eac81e48b55bcd1f70a,684429a65a83f276ecf558cc,2025-06-07_14h09.42.011,shape_ratio,2024.1.5,Win32,30.12048193,684250e4f00cb30b92d1fa88,,,,,,,,,,,70.9678,71.4024,,,71.6567,72.6775,left,1.0029,,,,,,,,,0.9,,,,,,71.4037,71.6565,72.6785,"[0.16354089987443873,-0.03896787681261481]",100.0,"[0.07450937684745695,0.11744189130416874]",100.0,"[-0.068171260400065,0.1570420159516706]",100.0,"[0.09012634596328646,-0.1081007301532979]",100.0,"[-0.09702019776631064,-0.05092100600822332]",100.0,"[0.14359814215670155,0.034939815742339564]",4.0,"[0.02387808011435151,0.07211475568398606]",100.0,"[-0.03225953481653857,0.11545926967367783]",100.0,"[-0.039877974525070296,-0.11296124949295001]",100.0,"[0.06759295292240973,-0.07388240146997871]",100.0,"[0.14695978983047403,0.1257299818000442]",100.0,"[-0.05592330895214725,-0.05254242331681534]",100.0,"[0.060940181771301095,-0.15726054905852566]",100.0,"[0.0404280618104804,-0.10930533064635585]",100.0,"[-0.08518287617731372,0.01999434876150417]",100.0,"[-0.0912657964538354,0.10489857119073094]",100.0,"[-0.13637154810078791,-0.09194814136028763]",100.0,"[-0.13015265313570687,-0.02382496809101083]",4.0,"[0.08767118277830215,-0.035023160186101805]",100.0,"[0.16747207368601982,-0.0997135814023542]",100.0,"[0.17834555897211055,0.07580004648872157]",100.0,"[0.04189767999506348,0.015199214713934713]",100.0,"[-0.1865632082145824,-0.0489654277290071]",100.0,"[-0.01647208088201398,0.05113014445719023]",100.0,"[0.14161005725939005,-0.13702353620758342]",100.0,"[-0.17501875908558032,0.055501699245320835]",4.0,"[-0.15569036145400986,0.1067583137780371]",100.0,"[0.07919221880287206,0.1745735460520763]",100.0,"[-0.12868904432919975,-0.1520323134446953]",100.0,"[0.08670814620477295,0.019748777725731373]",100.0,"[-0.0007067220489707688,-0.042666944619561616]",100.0,"[-0.07449877399928749,-0.16562208001809992]",100.0,"[0.02,0.02]",73.7558,0.0,0.0,0.0,28.0,1.0,,,,,,,
,,,,,,,67c65eac81e48b55bcd1f70a,684429a65a83f276ecf558cc,2025-06-07_14h09.42.011,shape_ratio,2024.1.5,Win32,30.12048193,684250e4f00cb30b92d1fa88,,,,,,,,,,,73.7569,74.2623,,,74.5212,76.0061,,,,,,,,,,,0.45,,,,,,74.2625,74.521,76.0061,"[-0.004339365439286652,-0.11087028581153094]",4.0,"[0.0031012391404795173,-0.06825962142679583]",4.0,"[-0.06577946674851647,0.06718399300100086]",4.0,"[0.13025568402925014,-0.1410076199528782]",100.0,"[0.15250921517243093,-0.08733239243052372]",100.0,"[-0.1694877777813171,0.013611114844336702]",4.0,"[-0.049177125362198024,-0.09469790263476568]",100.0,"[0.14925511909791872,-0.034319603582765985]",4.0,"[-0.14668545742427136,-0.07256762317363778]",4.0,"[-0.08914055856120451,0.13180613835588129]",100.0,"[-0.008691195824813659,-0.19181845154821767]",100.0,"[0.06211615949894224,-0.016678155336878765]",4.0,"[0.0573733268808101,-0.1740859819035894]",100.0,"[0.025837344940139503,-0.14319890527898807]",100.0,"[-0.029422727940670104,-0.026555955523148263]",100.0,"[0.10813795803908424,0.09372739370286673]",4.0,"[0.17235771734762637,0.0014705051695545876]",100.0,"[0.08710756382451865,-0.048595741588262575]",4.0,"[0.03192504248766164,0.03546269255187845]",4.0,"[0.12842799201932398,0.04160093795012089]",4.0,"[-0.011734035270302194,0.08790050839616313]",100.0,"[-0.1138299912923132,0.07585688266203608]",100.0,"[-0.03811596587171007,0.1789657548833862]",4.0,"[0.021101965509039426,0.18516318910075083]",4.0,"[-0.10364978674594238,0.0007285804407104067]",100.0,"[0.03236128350937832,0.10387385166683505]",4.0,"[-0.10406610269897487,-0.07143774782184409]",4.0,"[0.11695588887189384,0.13932662911570498]",100.0,"[-0.0077614284407807555,0.15121793005111253]",4.0,"[0.08321235854977883,-0.10902271426112535]",4.0,"[-0.02215923764951927,0.04706906832410367]",100.0,"[-0.18338763363700183,0.06379322723656546]",4.0,"[0.02,0.02]",77.0913,0.0,1.0,1.0,127.0,1.0,,,,,,,
,,,,,,,67c65eac81e48b55bcd1f70a,684429a65a83f276ecf558cc,2025-06-07_14h09.42.011,shape_ratio,2024.1.5,Win32,30.12048193,684250e4f00cb30b92d1fa88,,,,,,,,,,,77.0921,77.5918,,,77.8375,78.3399,right,0.4863,,,,,,,,,0.5,,,,,,77.5919,77.8375,78.3402,"[-0.09116768680477054,0.010462866492415868]",4.0,"[-0.0505254979390409,-0.015282652389746994]",100.0,"[-0.05339370580003891,-0.1536255062902466]",100.0,"[0.017019065649595596,-0.16643236618203783]",100.0,"[-0.15393241003572897,0.12542434558372226]",4.0,"[0.08657957844468268,0.07288643222724633]",4.0,"[0.1516240066742527,0.01669437551654582]",4.0,"[-0.09653894661112436,-0.12599255090359207]",100.0,"[-0.1585190529474793,-0.08304696312504142]",4.0,"[-0.1443835441495253,0.07497629532624146]",4.0,"[-0.13266351028302764,0.03232947134221822]",100.0,"[0.1969254446662786,0.005984963645775644]",4.0,"[-0.045271612598619684,0.09241804516365222]",4.0,"[0.02818412565852092,0.19011429437408825]",100.0,"[0.04093158672011213,0.11866819564552046]",4.0,"[0.015382960245682201,0.015387179465996239]",4.0,"[0.09140596459334975,-0.056718921182404444]",100.0,"[-0.04813529645407691,-0.1063605771393315]",4.0,"[0.03902108859466465,0.07395862602407356]",100.0,"[-0.18347149235492,0.015601906895102666]",100.0,"[-0.013389418110638705,0.16238478415169522]",4.0,"[-0.05695239655570209,0.04125423977299901]",4.0,"[-0.18021737883586916,-0.03732396367667582]",100.0,"[0.023020498051479286,-0.02785745262344497]",100.0,"[0.12320215949258446,0.04965344565632071]",4.0,"[0.14122095188520944,-0.04513308070655839]",100.0,"[0.06790906366910542,-0.14434119549696597]",4.0,"[0.05509490299763681,0.024283020950155543]",4.0,"[0.13414359435049855,-0.143128035707273]",100.0,"[-0.11341298627226669,-0.06542707896945418]",100.0,"[-0.02532336111143201,-0.07065957487591498]",100.0,"[0.136640090990247,0.0874104102554108]",100.0,"[0.02,0.02]",79.4436,0.0,2.0,2.0,110.0,1.0,,,,,,,
,,,,,,,67c65eac81e48b55bcd1f70a,684429a65a83f276ecf558cc,2025-06-07_14h09.42.011,shape_ratio,2024.1.5,Win32,30.12048193,684250e4f00cb30b92d1fa88,,,,,,,,,,,79.4453,79.9489,,,80.2027,81.7034,,,,,,,,,,,0.1,,,,,,79.949,80.2026,81.7037,"[-0.07649087224322366,-0.0465778936914837]",4.0,"[0.04967067029089223,0.18057982187040758]",100.0,"[0.07727873904411424,0.0026502831314940706]",4.0,"[0.059308870778822825,-0.14803874964316688]",4.0,"[-0.15397246393678668,-0.06648739956612405]",4.0,"[0.11550989643564924,-0.01824092326728591]",4.0,"[-0.04050845379250331,0.03333680631292828]",4.0,"[0.023192317157585057,0.05276895213064713]",4.0,"[-0.09520401283566986,-0.1703561472454776]",4.0,"[0.17899185769990397,-0.05831363294057427]",4.0,"[-0.09086599316937286,0.07913868000598628]",100.0,"[0.01847455803584516,-0.05644849772602891]",4.0,"[-0.14937343304471673,0.12743410089532414]",4.0,"[0.09270756065504032,-0.1767940104755346]",4.0,"[0.1710919734045882,0.020406542188747472]",4.0,"[-0.07901361005918157,0.12087473656488983]",4.0,"[0.0026573052117817124,0.007127557450424659]",4.0,"[-0.11049621177512224,0.030409002329856456]",4.0,"[0.060496589479025226,-0.10568885679233017]",4.0,"[-0.051844098704031574,-0.0053118850415451715]",4.0,"[-0.04607028776866156,0.18293815539671338]",4.0,"[0.0023041127230832574,0.11606064425134124]",4.0,"[-0.19521037916527387,0.027392681035957222]",4.0,"[-0.08799955599493223,-0.09242947503901273]",4.0,"[-0.03461945471846056,-0.08104398359488707]",4.0,"[0.1282090964695395,0.057883830680760924]",100.0,"[0.11258890724495105,0.12400863277690728]",4.0,"[0.0489472982183966,0.13705801893672007]",4.0,"[0.13557755916233372,-0.13257653475923695]",4.0,"[0.018658951217150714,-0.15577580886967152]",4.0,"[-0.024982151607525323,-0.1758920502071242]",4.0,"[-0.128255052743295,-0.104957236196351]",4.0,"[0.02,0.02]",82.7911,0.0,3.0,3.0,195.0,1.0,,,,,,,
,,,,,,,67c65eac81e48b55bcd1f70a,684429a65a83f276ecf558cc,2025-06-07_14h09.42.011,shape_ratio,2024.1.5,Win32,30.12048193,684250e4f00cb30b92d1fa88,,,,,,,,,,,82.7922,83.2857,,,83.5282,85.0278,,,,,,,,,,,0.5,,,,,,83.2859,83.528,85.0279,"[-0.06354354275537366,0.03723987931279055]",4.0,"[0.11529832814228717,-0.13011169267853198]",100.0,"[-0.0837810778222374,-0.1462128221764295]",100.0,"[0.07627277373718815,-0.09934301934697541]",4.0,"[-0.03185538889385461,-0.10375796521014133]",100.0,"[0.1646926750219105,0.028460129425066292]",4.0,"[-0.19002802797566515,-0.05280142499127579]",100.0,"[0.07813944687834802,0.06997647943265274]",4.0,"[-0.10804479813410937,-0.03910363194798821]",4.0,"[0.14176351286549263,0.06607061392121095]",4.0,"[0.16984493926209854,-0.060840210672677426]",100.0,"[-0.080704435299971,0.18089826649838917]",100.0,"[-0.024464715909137735,-0.05970573510231237]",100.0,"[0.11873221148845772,0.10282021435821422]",100.0,"[-0.002637311866511901,-0.1795353207062034]",4.0,"[0.05271810244049861,-0.0466519469488699]",4.0,"[-0.01719607268196204,0.10131312175885618]",100.0,"[-0.003836302855072717,0.0270484526806987]",100.0,"[-0.1200669499654577,-0.10680922976260931]",100.0,"[0.028830572554544246,0.10182178265732734]",4.0,"[-0.12889618954656876,0.07724207534612174]",100.0,"[-0.061950345240270224,-0.03980739080120859]",4.0,"[0.10694529309281588,0.03162692917921192]",4.0,"[0.12235792473779843,-0.05586601532901697]",4.0,"[-0.03387379929023871,0.14671478784461095]",4.0,"[-0.07186338171786062,-0.08265353913017191]",100.0,"[-0.18059140981216412,0.005567822004636543]",4.0,"[0.03760614495029283,-0.14129026666419897]",4.0,"[-0.15236258897220645,-0.024920790453125122]",100.0,"[0.09844008124086019,0.1518961466545761]",100.0,"[0.052684233511146254,0.19195677686654816]",100.0,"[-0.008480154060858506,0.1875279839090286]",4.0,"[0.02,0.02]",86.1356,0.0,4.0,4.0,108.0,1.0,,,,,,,
,,,,,,,67c65eac81e48b55bcd1f70a,684429a65a83f276ecf558cc,2025-06-07_14h09.42.011,shape_ratio,2024.1.5,Win32,30.12048193,684250e4f00cb30b92d1fa88,,,,,,,,,,,86.1366,86.6284,,,86.8585,88.3076,left,1.4307,,,,,,,,,0.9,,,,,,86.6285,86.8583,88.3078,"[0.17412584502811088,0.01075621767360062]",100.0,"[-0.08291162804441156,-0.13870263367690988]",100.0,"[-0.11114938102357497,-0.0006474112508020015]",4.0,"[0.046801117259064884,-0.08611289130177989]",100.0,"[-0.07724503373717419,0.033674304320934045]",100.0,"[0.006645923224126947,0.1727522544134748]",100.0,"[0.0763477912827446,-0.011536433405776016]",4.0,"[-0.05361074685397339,-0.07890452431818279]",100.0,"[-0.0980884582030948,-0.07615495771346649]",100.0,"[0.03005805302836611,-0.1940480332686149]",100.0,"[0.08994952586590173,0.05385156238527194]",100.0,"[-0.1346323360466663,0.10659986337250102]",100.0,"[-0.052012655411385174,-0.02759254636263006]",100.0,"[0.14624225404665173,-0.022940662430092237]",100.0,"[-0.007324686511147513,0.05028334242032861]",100.0,"[-0.04148806730658975,0.1339883661229096]",100.0,"[-0.1032219648133846,0.1451492145550283]",100.0,"[0.10639731337958712,0.14346931041740774]",100.0,"[-0.13246378202942058,-0.13077293631322603]",4.0,"[0.12340327896426434,0.026730487020235373]",100.0,"[-0.06247705922529654,0.1883936007796044]",100.0,"[-0.09060564004841237,0.10653084804506521]",100.0,"[0.16950373705453414,0.08840404444700647]",100.0,"[-0.05321151953836988,0.08215895701474683]",100.0,"[0.05157329239996494,0.14166962856061868]",100.0,"[0.07261468144875043,-0.13070786734338014]",100.0,"[0.11869308738894917,-0.08192285136175217]",100.0,"[0.010962758978905631,0.12414770260663632]",100.0,"[0.028215876730669637,-0.13489590115991487]",100.0,"[-0.0049048689321380115,0.004644958514170986]",100.0,"[0.03578772685560495,0.039942197701462914]",100.0,"[0.048398833590167806,0.07990180457690182]",100.0,"[0.02,0.02]",89.3983,0.0,5.0,5.0,10.0,1.0,,,,,,,
,,,,,,,67c65eac81e48b55bcd1f70a,684429a65a83f276ecf558cc,2025-06-07_14h09.42.011,shape_ratio,2024.1.5,Win32,30.12048193,684250e4f00cb30b92d1fa88,,,,,,,,,,,89.3999,89.8911,,,90.1453,91.4275,left,1.2594,,,,,,,,,0.55,,,,,,89.8913,90.1452,91.4276,"[-0.1344907021850047,-0.026263611919931734]",100.0,"[-0.14287110786517634,-0.11165582621044468]",100.0,"[0.051763755927790145,-0.010785228455727805]",4.0,"[-0.12916469447480114,0.0821313469026406]",4.0,"[0.11020191425003292,-0.08649197028658923]",4.0,"[0.11124048507198293,-0.16604239336239748]",4.0,"[0.19776481081934838,0.02223512521021287]",4.0,"[-0.10211771511826392,0.16408201797638494]",4.0,"[0.050149937530252695,0.12349283738616501]",100.0,"[0.009494108011702819,-0.059434600321002985]",4.0,"[-0.07601623900616723,-0.182765540933406]",100.0,"[-0.036703856486539344,-0.16394803672320982]",4.0,"[0.05502391059278358,0.034663577670151005]",100.0,"[-0.05481491120121975,-0.008898302973259527]",100.0,"[0.14207300993954344,0.1064050317478168]",100.0,"[0.1415038535574469,0.06631047922748808]",100.0,"[-0.18741823937815533,-0.03274193796934234]",4.0,"[-0.1329889320118319,0.1383579438618499]",4.0,"[-0.17098074421966514,0.09735468778742613]",100.0,"[-0.04903740237335942,0.10923806744393189]",100.0,"[-0.1004930913680305,-0.12376547430894316]",100.0,"[0.04771563870862491,-0.08403553437267063]",100.0,"[0.13176990330065108,0.011860739098212881]",4.0,"[0.008859298966070179,0.10075111220909364]",4.0,"[-0.114636858427518,0.012307745752393665]",100.0,"[0.011304895265803677,0.14375155788326271]",4.0,"[0.18228444111996034,-0.03981698580892188]",100.0,"[-0.02604565192567608,0.1852170298792819]",100.0,"[0.004409276392540249,0.009929258113931212]",100.0,"[0.09197791660593883,0.17437306698907162]",100.0,"[-0.12906910403432267,-0.07007202848739999]",100.0,"[-0.06646439406792252,-0.09573849155080319]",4.0,"[0.02,0.02]",92.5081,0.0,6.0,6.0,82.0,1.0,,,,,,,
,,,,,,,67c65eac81e48b55bcd1f70a,684429a65a83f276ecf558cc,2025-06-07_14h09.42.011,shape_ratio,2024.1.5,Win32,30.12048193,684250e4f00cb30b92d1fa88,,,,,,,,,,,92.5097,93.0023,,,93.244,93.3281,right,0.0659,,,,,,,,,0.9,,,,,,93.0023,93.244,93.3283,"[0.005312029738101715,0.1578954089291697]",100.0,"[0.08416926634765055,-0.04421577573247234]",100.0,"[-0.007381142423136779,-0.11621709140495752]",100.0,"[-0.027462516623376006,0.056991809217116024]",100.0,"[-0.07859444538526879,0.008382928586298457]",100.0,"[-0.09034126378253267,0.17748995646339819]",4.0,"[0.09753490439892461,0.08354548462800743]",100.0,"[-0.07189432689880496,-0.045120497478916236]",100.0,"[0.12948062748289974,0.1403917719679855]",100.0,"[0.0012425190437041986,0.018480013056384907]",100.0,"[0.04899414020874019,0.038571151922023206]",100.0,"[-0.16018965437010085,-0.053277618065776536]",100.0,"[-0.1872058364605926,0.01714425824017725]",100.0,"[0.05424225530540084,-0.13816247945517224]",100.0,"[-0.08395134564456651,-0.10359641124957378]",4.0,"[0.13183326877041834,-0.14277253103309157]",100.0,"[0.17108249325682037,-0.09035772253840287]",100.0,"[-0.03936273798058654,-0.18703451120074868]",100.0,"[-0.08775867306616898,0.1297160096229183]",100.0,"[0.07101443306682598,0.12598639050778154]",100.0,"[-0.09168312018249337,0.06733039334155004]",4.0,"[0.17175420614301726,-0.017178845548338418]",100.0,"[-0.10096602651052755,-0.17053811926213552]",100.0,"[0.18390562839664626,0.031062009027093624]",100.0,"[0.07236067295033281,0.18564267068363902]",100.0,"[0.030070081867959755,-0.18482056104037306]",100.0,"[-0.13120932262776946,0.014529857626520674]",100.0,"[0.021180769087205006,0.07116587558359991]",100.0,"[0.05261649216651319,-0.09780415124301654]",100.0,"[-0.1437128343327561,0.13656146839373404]",100.0,"[-0.16249637262895825,0.06326565887702172]",100.0,"[0.15070380464513058,0.07092130197407714]",100.0,"[0.02,0.02]",94.4186,0.0,7.0,7.0,6.0,1.0,,,,,,,
,,,,,,,67c65eac81e48b55bcd1f70a,684429a65a83f276ecf558cc,2025-06-07_14h09.42.011,shape_ratio,2024.1.5,Win32,30.12048193,684250e4f00cb30b92d1fa88,,,,,,,,,,,94.4203,94.9073,,,95.154,96.6469,,,,,,,,,,,0.6,,,,,,94.9074,95.154,96.6471,"[0.03943172512184366,0.039184891191581944]",100.0,"[-0.16243890604472888,-0.07391410561152215]",100.0,"[-0.05300655754124268,0.13332582019966602]",100.0,"[0.11425329524677036,-0.07016621020129417]",4.0,"[-0.025221410643966703,0.054742909903077105]",4.0,"[-0.04380208295781028,-0.0784847330895265]",100.0,"[-0.11689685575800457,-0.06957177917753828]",100.0,"[0.12370413968412707,0.06497718053063616]",100.0,"[-0.044827710250923344,-0.17517063948322115]",100.0,"[0.02404149611753197,-0.18966542753432072]",4.0,"[0.07997364037259441,0.11149835362542401]",100.0,"[-0.06636920539637858,0.1836772605429499]",100.0,"[-0.12099185872391777,0.11403582459638083]",100.0,"[-0.09183865539985972,0.07986799397128912]",4.0,"[0.174142145290448,0.0487725956112529]",100.0,"[-0.053438558411269745,0.005180205913990031]",100.0,"[0.016459637665068194,-0.0568006266319881]",100.0,"[-0.1637039761229399,0.03524793891939571]",100.0,"[-0.1377173441444271,-0.004686997791916658]",100.0,"[0.12650942393593143,0.008750055822140347]",4.0,"[-0.10866583652079834,-0.12497535037367123]",4.0,"[-0.08070934479668987,-0.025059068330695208]",4.0,"[-0.18032157836654628,-0.02147689319472966]",4.0,"[0.0695725008488634,-0.009652991258785082]",100.0,"[-0.009497342189347502,-0.10281479995896549]",4.0,"[0.017090974905492995,-0.14018598061649745]",4.0,"[0.07354508192883256,-0.0657463174086502]",4.0,"[0.12316401915085619,-0.14300628649932387]",100.0,"[-0.15133138896910917,0.08654963881358071]",100.0,"[-0.0987274302716413,-0.16886203457710067]",4.0,"[0.06989316866659376,-0.12179905274734656]",4.0,"[0.14114432826342138,-0.031725585718401776]",100.0,"[0.02,0.02]",97.7469,0.0,8.0,8.0,48.0,1.0,,,,,,,
,,,,,,,67c65eac81e48b55bcd1f70a,684429a65a83f276ecf558cc,2025-06-07_14h09.42.011,shape_ratio,2024.1.5,Win32,30.12048193,684250e4f00cb30b92d1fa88,,,,,,,,,,,97.7485,98.2401,,,98.4925,99.1047,left,0.5991,,,,,,,,,0.45,,,,,,98.2402,98.4924,99.1048,"[-0.07495654884586027,-0.06165292685388498]",4.0,"[0.017121958887035722,0.15217442880797952]",4.0,"[0.056760024454616684,0.03429411330081377]",100.0,"[0.0639501729287499,0.10987449992324529]",100.0,"[-0.1565559429521831,-0.10119191657476641]",100.0,"[-0.011525682972723047,0.08757906533094995]",100.0,"[0.10346235105720296,-0.12994603121729467]",4.0,"[0.14997423124631373,0.0783944618347867]",4.0,"[-0.07487390436799032,0.020660563940196566]",100.0,"[0.19295602894638333,0.0434303174875779]",100.0,"[-0.07663420755374,0.14765239830249238]",4.0,"[-0.07236086865963344,-0.15323207859808918]",100.0,"[0.08909982723889674,-0.0584666729208268]",100.0,"[-0.14265989404721424,-0.05814931107782217]",4.0,"[0.10354472306837437,0.16124040100919634]",4.0,"[-0.15889825935360347,0.11939819773274825]",100.0,"[-0.02129725296280844,-0.1857766377450727]",4.0,"[0.09806211500367747,0.025081061396398912]",100.0,"[0.00177114905235032,-0.05231156387601944]",4.0,"[0.1546653173849089,0.025862476740010458]",4.0,"[0.023733867597358002,-0.19792317171288443]",100.0,"[-0.030774974107524944,-0.024190715884237723]",100.0,"[-0.0026651665613593987,-0.09657819852971308]",4.0,"[0.013023543548383507,0.05175330873614092]",4.0,"[0.03961600672735093,-0.10117544557034758]",4.0,"[-0.15541146236290143,-0.0064194491903336905]",100.0,"[-0.04751694477367851,-0.10478745235193306]",4.0,"[-0.11094267465463117,-0.12418748461269881]",4.0,"[-0.19611840207920841,0.0010808668160694709]",4.0,"[-0.07481182713070772,0.07695850743494724]",4.0,"[0.023703877079339457,-0.1433356031504527]",100.0,"[-0.1356444516344659,0.06954967280710142]",4.0,"[0.02,0.02]",100.1986,0.0,9.0,9.0,137.0,1.0,,,,,,,
,,,,,,,67c65eac81e48b55bcd1f70a,684429a65a83f276ecf558cc,2025-06-07_14h09.42.011,shape_ratio,2024.1.5,Win32,30.12048193,684250e4f00cb30b92d1fa88,,,,,,,,,,,100.2004,100.6912,,,100.9396,101.3034,right,0.3456,,,,,,,,,0.5,,,,,,100.6913,100.9395,101.3035,"[0.18885829485903913,0.040829926184963526]",100.0,"[0.04831374128269969,-0.12810295955387693]",4.0,"[-0.1652266231131123,-0.09843469941152914]",100.0,"[-0.18336495608280606,-0.011954992196797451]",100.0,"[0.012010950416228653,-0.011210117928806718]",4.0,"[-0.10293929032102853,-0.1688047280417321]",4.0,"[-0.09485859305870645,0.09598220341199108]",4.0,"[-0.05748596739234884,-0.12159525310156961]",100.0,"[0.14421538836168263,-0.05172104748222403]",100.0,"[0.10081253478560798,0.008299215684526313]",4.0,"[0.06014459085266778,0.10576393378677933]",4.0,"[-0.09249190664800289,0.045072909929749036]",100.0,"[-0.03554560763282138,-0.1944227257865116]",100.0,"[0.18455129686197388,-0.06901519046375715]",100.0,"[-0.03267364193063336,0.0923760042792609]",4.0,"[-0.06249120091947152,-0.06358160276822868]",100.0,"[0.07909209727673173,-0.15377473460851004]",4.0,"[-0.10414020136142053,-0.07407873827160646]",100.0,"[-0.021550726040085823,-0.0567186572516183]",100.0,"[0.14908774350394124,0.095911303572855]",100.0,"[0.027073565344560804,-0.09104557681380263]",100.0,"[-0.06374947972847621,0.15076916313917937]",4.0,"[0.14954843780585889,0.011761748486319308]",100.0,"[0.06391956228136024,-0.030576298631402907]",4.0,"[-0.00932090230742347,0.026254709905036814]",100.0,"[-0.007159990487841171,0.12330757763117317]",4.0,"[0.0697687988852997,0.05682203046834778]",4.0,"[0.013785074214827237,-0.19221504237363224]",4.0,"[-0.17824960219106667,0.08924000505905144]",100.0,"[-0.12705214896723502,0.07148018075017955]",4.0,"[0.03696994940723997,0.17963580620500028]",4.0,"[-0.1235992556491309,-0.019047981068695034]",4.0,"[0.02,0.02]",102.4057,0.0,10.0,10.0,102.0,1.0,,,,,,,
,,,,,,,67c65eac81e48b55bcd1f70a,684429a65a83f276ecf558cc,2025-06-07_14h09.42.011,shape_ratio,2024.1.5,Win32,30.12048193,684250e4f00cb30b92d1fa88,,,,,,,,,,,102.4073,102.9059,,,103.1624,103.7154,left,0.5304,,,,,,,,,0.1,,,,,,102.9061,103.1623,103.7154,"[0.005397639066590433,0.12203166573009089]",4.0,"[0.183798321920763,0.012851896911295194]",4.0,"[-0.029311410267867107,-0.04407133282838019]",4.0,"[-0.04002527369793628,0.19116871107219446]",4.0,"[0.032709404722522345,0.05645292681042438]",4.0,"[0.15121416279470865,0.0855466035821341]",4.0,"[0.07800868760266534,0.014395020238929707]",100.0,"[-0.1286198988491036,-0.033809959222037396]",4.0,"[0.06341975873846643,-0.08191975357749111]",4.0,"[-0.09646434541515365,0.1371472195831434]",4.0,"[-0.18326154519708143,0.007062464070401275]",4.0,"[0.08441694335789422,-0.17336957986423454]",100.0,"[0.1443558111908791,-0.10398610982533085]",4.0,"[-0.05608724670401911,0.07099254647511637]",4.0,"[-0.17469309262620775,0.06564658338322231]",4.0,"[-0.09621791852076361,-0.117615641143778]",4.0,"[0.1252371559400382,-0.021378855696643294]",4.0,"[0.015345170434715658,-0.1165112411681281]",4.0,"[0.045506178402700395,0.15821012322074218]",4.0,"[0.18897485423138266,-0.04152297714160492]",100.0,"[-0.02872294894171423,0.04085691292154178]",4.0,"[-0.11051741485379445,0.022872652206309532]",4.0,"[0.11071690326161453,0.06895688146258255]",4.0,"[0.10663956468378095,0.12277968708647247]",4.0,"[-0.054409736820684035,-0.16994939549746071]",4.0,"[-0.1728221248035244,-0.055988476731685013]",4.0,"[0.02473890560967212,-0.18828212586599957]",4.0,"[-0.06780335591272083,-0.0013222012325617004]",4.0,"[0.09917368472332377,-0.10122278291853537]",4.0,"[-0.08218500407374507,-0.06579355139456786]",4.0,"[0.1301180288868886,0.029527845405340904]",4.0,"[0.1888000237533144,0.06040153813788469]",4.0,"[0.02,0.02]",104.8183,0.0,11.0,11.0,197.0,1.0,,,,,,,
,,,,,,,67c65eac81e48b55bcd1f70a,684429a65a83f276ecf558cc,2025-06-07_14h09.42.011,shape_ratio,2024.1.5,Win32,30.12048193,684250e4f00cb30b92d1fa88,,,,,,,,,,,104.8193,105.3051,,,105.5464,106.0059,left,0.4299,,,,,,,,,0.55,,,,,,105.3053,105.5462,106.006,"[0.02376600270030382,-0.03903489161960081]",100.0,"[0.1406305253931719,0.10920796665045931]",100.0,"[-0.13883826682216543,0.13470019643005082]",100.0,"[0.11995821605194705,-0.130958343579874]",100.0,"[-0.041537837209139686,-0.0875027045763503]",4.0,"[0.07936034771314154,-0.05920014052445045]",4.0,"[-0.02692350324128115,0.02605972493650396]",4.0,"[-0.06831072853363775,0.14973519264137455]",4.0,"[-0.12748185330543213,-0.14296054066881017]",4.0,"[0.03962104381376982,0.0012874035633436373]",4.0,"[-0.17639866660133915,0.02033611088166876]",100.0,"[-0.13731004959586315,-0.009774651232283521]",100.0,"[0.06337265593665661,-0.12042591469650334]",100.0,"[-0.059791728139319295,-0.15033237709428995]",100.0,"[0.14811831142502294,0.05915795941163076]",4.0,"[0.031489945169384796,0.09798870624053689]",100.0,"[0.09370790958899188,0.057237424432593935]",100.0,"[0.1952142104770483,0.04249162184218208]",100.0,"[0.05848702867856178,0.14219539568497108]",100.0,"[0.10040075172927088,0.10701295703072805]",4.0,"[0.011379379566867064,-0.11406021966251904]",4.0,"[0.1372696608535247,-0.062174801541929385]",4.0,"[-0.04023011750425993,0.08420500487555767]",4.0,"[0.10357333837879865,-0.09212338995797532]",4.0,"[-0.17925241977882933,0.07514509896796577]",4.0,"[-0.06737165258899844,0.04719803891561458]",100.0,"[-0.16970905209738207,-0.059081573923049954]",100.0,"[-0.024067389208503837,-0.016329501313924057]",100.0,"[-0.1507567170518986,-0.10208764297608507]",100.0,"[-0.024733903484481637,0.15618091274103077]",100.0,"[0.0857332683838953,-0.17434344561762535]",100.0,"[0.044738410459775176,-0.18553947742963514]",4.0,"[0.02,0.02]",107.094,0.0,12.0,12.0,83.0,1.0,,,,,,,
,,,,,,,67c65eac81e48b55bcd1f70a,684429a65a83f276ecf558cc,2025-06-07_14h09.42.011,shape_ratio,2024.1.5,Win32,30.12048193,684250e4f00cb30b92d1fa88,,,,,,,,,,,107.0956,107.5772,,,107.8061,108.4741,right,0.6497,,,,,,,,,0.45,,,,,,107.5773,107.8061,108.4742,"[-0.004217960133252683,0.11708935095027419]",4.0,"[-0.1177606808697353,-0.0458998523717872]",4.0,"[-0.06470148672844332,-0.17442572451208602]",4.0,"[0.017697356098489988,-0.1358187809089441]",100.0,"[-0.0593350167461273,0.10804454336734626]",100.0,"[0.13006478928760187,-0.08353569568698518]",4.0,"[0.011751296104166297,0.06990602233428785]",100.0,"[0.17106245632403713,-0.01671850040384604]",100.0,"[0.036810192919137306,-0.06523505625675625]",100.0,"[-0.1340427253173266,-0.12629582863768596]",100.0,"[0.058496558669921435,0.11605289287704641]",4.0,"[-0.1620926798889641,-0.08926285009631835]",4.0,"[-0.04289344368297376,-0.019042403365539622]",100.0,"[0.19798087975437195,0.013755475313328672]",4.0,"[-0.04448906749909799,0.04551297422431585]",100.0,"[-0.1505952580547335,0.09710257682806156]",4.0,"[-0.03321251460842295,0.14995060936436957]",100.0,"[-0.1840719760803468,0.055117426788622664]",100.0,"[0.11244613198941439,0.0097778224078787]",100.0,"[-0.0022602760967872513,-0.07924812432469111]",100.0,"[0.14264294615156428,0.08336150589666941]",4.0,"[-0.14027007199965333,-0.002129053531285503]",4.0,"[0.01347945446931989,-0.19075921437208465]",4.0,"[-0.030807476949746927,-0.1297293883276818]",4.0,"[-0.11915652666256177,0.0697196573799738]",100.0,"[-0.08937990783727395,-0.1417990280785399]",100.0,"[-0.0730538504723034,-0.09979309386081636]",4.0,"[0.09261435844348562,-0.16610162629561182]",4.0,"[0.06741135996881056,-0.03003392815307556]",4.0,"[0.10023998962738546,0.05478249291679189]",4.0,"[0.004849915720509066,0.005353624434878647]",4.0,"[0.06341029677969867,-0.13715523909195823]",4.0,"[0.02,0.02]",109.5694,0.0,13.0,13.0,126.0,1.0,,,,,,,
,,,,,,,67c65eac81e48b55bcd1f70a,684429a65a83f276ecf558cc,2025-06-07_14h09.42.011,shape_ratio,2024.1.5,Win32,30.12048193,684250e4f00cb30b92d1fa88,,,,,,,,,,,109.5704,110.0718,,,110.3254,110.688,left,0.3442,,,,,,,,,0.6,,,,,,110.0719,110.3252,110.6881,"[0.05379161613884054,0.056027543088713445]",4.0,"[-0.05420772268387569,-0.061001117135732745]",4.0,"[-0.05697486991485932,-0.17708394942222327]",4.0,"[0.16314124534212887,-0.04006572922466786]",100.0,"[-0.11454591412496919,-0.037584208042960865]",100.0,"[0.023502355383766556,0.10737905698041178]",100.0,"[0.11380642110897825,0.1431440965424656]",100.0,"[-0.19238581927623702,0.0023975515044432415]",4.0,"[0.0958586263747697,-0.14347418414529434]",100.0,"[-0.03164546728403502,0.028135265250678724]",100.0,"[-0.04856582963814163,-0.12713445778940488]",100.0,"[-0.032382196337610164,0.10172171940810953]",100.0,"[-0.08440310366027252,0.11455948022969797]",100.0,"[-0.09963935073447754,0.032467734136424224]",100.0,"[-0.17743284149123265,-0.03987517146334982]",4.0,"[0.10575780427007055,0.002549554748126821]",100.0,"[-0.10408897959595423,-0.1386150562483862]",4.0,"[-0.14106282468929376,0.09107869996305581]",4.0,"[-0.1811048999271828,0.04168482825648113]",100.0,"[0.05419908864471196,0.15382342694810056]",4.0,"[0.16810455016348697,-0.08736560143287694]",100.0,"[0.030965419629217304,-0.17728259464205165]",100.0,"[0.10276236964001928,0.06509401838063789]",4.0,"[-0.01578951094529218,-0.023195075550335318]",4.0,"[-0.16966620225357137,-0.09747160116459902]",100.0,"[0.10943337561004919,-0.041690771750993734]",100.0,"[0.01049302804564692,0.1743975349399945]",4.0,"[-0.08459519258664684,0.1705159704347966]",4.0,"[0.1771605775051202,0.021465439663816206]",4.0,"[-0.01612163370288424,-0.1824394987967862]",100.0,"[0.035175451991179184,-0.04766383195835041]",100.0,"[-0.033029699736363036,0.1684892750049723]",100.0,"[0.02,0.02]",111.7748,0.0,14.0,14.0,53.0,1.0,,,,,,,
,,,,,,,67c65eac81e48b55bcd1f70a,684429a65a83f276ecf558cc,2025-06-07_14h09.42.011,shape_ratio,2024.1.5,Win32,30.12048193,684250e4f00cb30b92d1fa88,,,,,,,,,,,111.7764,112.2907,,,112.5399,113.3053,left,0.747,,,,,,,,,0.5,,,,,,112.2907,112.5398,113.3054,"[-0.10754389274138579,-0.07408171140490595]",100.0,"[-0.02434280553689254,-0.16087866097024078]",4.0,"[-0.017750562218561434,0.15322038370899574]",100.0,"[-0.1092747409653588,0.1181915154154378]",4.0,"[0.16830812774793977,0.10775030342989436]",100.0,"[0.04932333466212771,-0.021636717355746557]",4.0,"[0.13937394735358838,-0.030980476906209715]",100.0,"[-0.06859731739727766,0.07993392358426815]",100.0,"[-0.025712966277488473,-0.05487887885173331]",100.0,"[-0.08051902957836084,-0.1477990702771085]",100.0,"[0.06829204744642857,-0.13268778663638042]",100.0,"[0.08409419327484612,0.16378983248223464]",4.0,"[0.0415475620179667,0.15814715886612457]",100.0,"[-0.1486994995197065,-0.11216280473793565]",4.0,"[-0.02566552852465279,0.1956377674360485]",4.0,"[-0.1766022619325374,0.09035164882291981]",4.0,"[0.18391357546053114,0.006820288625658249]",100.0,"[0.16511246690977235,0.05016589195780952]",4.0,"[0.12593027809678176,0.08671402778899095]",4.0,"[-0.18313915137576364,0.03935677183575602]",100.0,"[-0.02418759846685451,-0.0015834399512059851]",100.0,"[0.1402750074685523,-0.07431081859346564]",100.0,"[0.11858908450213643,-0.11436340693353723]",4.0,"[-0.003948401146043283,-0.0998877137193583]",100.0,"[-0.0007429740286606652,0.07231248255773604]",100.0,"[-0.1423422574105013,-0.0304017629548115]",4.0,"[0.05917762649143521,0.029489724902625164]",4.0,"[0.08005179610960535,0.08869228577261434]",4.0,"[0.1375704782351076,0.14305714275360198]",4.0,"[-0.06755146507298579,0.1849488213834762]",100.0,"[0.03901627691526183,0.09723808599269743]",4.0,"[0.06541095310558401,-0.07469824716113399]",4.0,"[0.02,0.02]",114.4024,0.0,15.0,15.0,91.0,1.0,,,,,,,
,,,,,,,67c65eac81e48b55bcd1f70a,684429a65a83f276ecf558cc,2025-06-07_14h09.42.011,shape_ratio,2024.1.5,Win32,30.12048193,684250e4f00cb30b92d1fa88,,,,,,,,,,,114.4034,114.9023,,,115.1562,115.7341,right,0.5598,,,,,,,,,0.55,,,,,,114.9024,115.1562,115.7342,"[-0.12870865923155947,0.012550431602135169]",100.0,"[-0.08594971813468757,-0.1627724839648672]",4.0,"[-0.03825708006824814,-0.07279929016722259]",100.0,"[0.0271734045654334,0.12926517614114522]",4.0,"[0.0565764646747964,-0.11137971696778763]",100.0,"[-0.09957994052588537,-0.0528832014666166]",100.0,"[-0.0875207793184117,0.14329432985029308]",4.0,"[-0.019363083340788338,0.17694475571898355]",100.0,"[0.004260846426570713,0.03174351185540722]",4.0,"[0.07455400177241224,0.12074479382832119]",100.0,"[0.10859395981405695,-0.03645655887816719]",100.0,"[-0.052969982146905674,0.11395101301605633]",4.0,"[0.12811259539609077,-0.12690474736286908]",4.0,"[-0.08844826981061676,0.015832813573084175]",100.0,"[0.09557378395816087,0.1688488786798934]",100.0,"[0.04232160849109916,0.17779188993927397]",100.0,"[0.018142082944006026,-0.07066262857737336]",100.0,"[0.18040169785771118,-0.017232793433143736]",4.0,"[-0.081154032246508,-0.09151034097568837]",4.0,"[-0.09585243263328079,0.07340148338226253]",4.0,"[-0.16034321977186947,-0.026154073366447237]",100.0,"[-0.14838486402496837,-0.0932876505163942]",4.0,"[0.18804088798756338,0.06041597538511272]",100.0,"[-0.18670180686512655,0.04303015654144408]",4.0,"[0.10964192855995761,0.05037792273649252]",4.0,"[-0.04176947935610196,-0.14222724826847172]",100.0,"[-0.041638280153832065,0.06991878647312359]",4.0,"[0.011296141877091628,-0.1842183937713519]",100.0,"[0.03777953051448655,-0.03219601414122113]",100.0,"[-0.04672175424533499,0.015070086795559353]",100.0,"[0.15745284773077348,0.0937812465323868]",100.0,"[-0.0674608551825551,-0.020217710023661344]",4.0,"[0.02,0.02]",116.837,0.0,16.0,16.0,74.0,1.0,,,,,,,
,,,,,,,67c65eac81e48b55bcd1f70a,684429a65a83f276ecf558cc,2025-06-07_14h09.42.011,shape_ratio,2024.1.5,Win32,30.12048193,684250e4f00cb30b92d1fa88,,,,,,,,,,,116.8387,117.3412,,,117.5971,118.2405,left,0.6217,,,,,,,,,0.55,,,,,,117.3413,117.5971,118.2407,"[-0.05043472426384293,-0.1520799592656142]",4.0,"[0.025596621855232687,0.1954790213994484]",100.0,"[-0.04344490854349565,0.14598388242357546]",100.0,"[-0.09159578381883259,-0.04472281116714477]",100.0,"[-0.13643944160102223,0.07708148933089105]",100.0,"[0.01750474971170811,-0.048013107857940766]",4.0,"[0.10163130501208753,0.15996456313431193]",4.0,"[0.05421621625304341,0.08596626765564817]",100.0,"[0.16103119679718475,-0.04158082075793314]",100.0,"[0.0856887352396845,-0.17953429515093675]",4.0,"[0.10458318311227419,0.08085847372326874]",100.0,"[0.14909202560451867,0.08483886036839249]",100.0,"[0.06179825242685822,-0.09032009611629925]",100.0,"[-0.04262930532733927,-0.09591219155899978]",100.0,"[-0.04069490572659991,0.19004168363195345]",4.0,"[0.01096410587062865,-0.005991653397027662]",100.0,"[-0.08106502855678227,0.16584031989300219]",100.0,"[-0.007622480375789768,0.08056376337238934]",4.0,"[0.16291135875286067,-0.10825872728747263]",100.0,"[0.028941630383864395,-0.17603116188786255]",4.0,"[-0.054004649695858234,-0.006969018852975271]",100.0,"[0.07013318495250598,-0.01967139473081415]",4.0,"[0.10154150848810017,0.04003160124490257]",4.0,"[0.056532407558519744,0.02318292712690931]",100.0,"[-0.09737669793733314,0.09556068245643698]",100.0,"[-0.0264735623195392,-0.05190667245674757]",100.0,"[0.13414442236182963,0.011972399295633757]",4.0,"[-0.08079723698715595,0.05329589756968046]",4.0,"[-0.026205961177489738,0.023784194221939347]",100.0,"[-0.15481586065041678,-0.07690212114684761]",4.0,"[0.08664758486330243,-0.13083448422513905]",4.0,"[-0.18596638228942444,0.01643305256627329]",4.0,"[0.02,0.02]",119.3386,0.0,17.0,17.0,66.0,1.0,,,,,,,
,,,,,,,67c65eac81e48b55bcd1f70a,684429a65a83f276ecf558cc,2025-06-07_14h09.42.011,shape_ratio,2024.1.5,Win32,30.12048193,684250e4f00cb30b92d1fa88,,,,,,,,,,,119.3402,119.8521,,,120.0949,120.6717,right,0.5582,,,,,,,,,0.6,,,,,,119.8522,120.0948,120.6717,"[-0.0017999676525288937,-0.17641553607657423]",100.0,"[0.08416405834528924,0.10695615109825722]",100.0,"[-0.172405034964329,-0.03688858398746224]",4.0,"[0.1667166026459942,-0.04014458414644825]",4.0,"[0.006312683793691703,-0.028869619438010394]",4.0,"[0.0681752050254214,-0.04662721939190089]",4.0,"[0.11865801339361969,-0.13774462777242977]",4.0,"[-0.030601861592435935,0.0816261514095125]",100.0,"[0.08667027467094998,-0.11268402884763336]",100.0,"[0.09054005491420042,0.005427947894920897]",100.0,"[0.011148555691186947,-0.08298263456199173]",100.0,"[-0.06238914263040479,0.03929722426346855]",100.0,"[-0.11203419826460327,0.16042336906715968]",4.0,"[0.04363778714003466,0.05784792447569732]",4.0,"[-0.030170272205978572,-0.1104180019646196]",100.0,"[-0.04744638010779888,0.14107750798989463]",4.0,"[0.1688047904028265,0.10354711881124243]",100.0,"[-0.12703026899882838,-0.0845387166965165]",100.0,"[0.016297712668348525,0.16414739073161827]",100.0,"[-0.11856436454928833,-0.003150842678813893]",100.0,"[-0.0304479253098344,0.18456913516822687]",100.0,"[0.06335186336015931,-0.16946007537245442]",100.0,"[-0.11300370304622752,-0.12727002192478473]",100.0,"[0.123056390678175,0.08023755347435954]",100.0,"[-0.04273265554698368,-0.02558862285874865]",4.0,"[0.1890189549837654,0.04187834797927612]",100.0,"[-0.05898582650965558,-0.16560889436206314]",4.0,"[0.13874795002790913,0.010116149405251821]",4.0,"[-0.10233236517061256,0.05652887311896234]",100.0,"[0.19364935023356014,-0.005814182783058581]",4.0,"[-0.005293707663579937,0.11917150708743296]",4.0,"[0.03613809465842191,0.12131873243436818]",100.0,"[0.02,0.02]",121.769,0.0,18.0,18.0,46.0,1.0,,,,,,,
,,,,,,,67c65eac81e48b55bcd1f70a,684429a65a83f276ecf558cc,2025-06-07_14h09.42.011,shape_ratio,2024.1.5,Win32,30.12048193,684250e4f00cb30b92d1fa88,,,,,,,,,,,121.7706,122.2774,,,122.5066,123.0449,right,0.52,,,,,,,,,0.1,,,,,,122.2775,122.5065,123.045,"[-0.04419845903919289,0.14715719315561981]",4.0,"[0.05200534053827727,0.11819669063868625]",4.0,"[-0.14741492405894804,0.0446582944695413]",4.0,"[-0.00824520277587458,-0.17440488965725273]",4.0,"[0.13935754939463238,0.1403488295635936]",4.0,"[0.14723481936002175,-0.03133600901371684]",4.0,"[-0.041379398570945636,0.04358913939818659]",100.0,"[-0.17105833671350557,-0.08542773784570655]",4.0,"[-0.1126338626274115,-0.0069730178046134225]",4.0,"[-0.0673379659695696,0.008986459410852327]",4.0,"[0.001046617892988332,-0.0020700808012858677]",4.0,"[-0.03479412067453058,-0.06740206668546425]",4.0,"[0.054269790843261057,-0.12814421050222652]",4.0,"[0.03020771947713699,0.19752667350074984]",100.0,"[0.06668224866731258,0.07733475262185714]",4.0,"[0.10429132654500534,-0.11103257245618467]",4.0,"[0.14636741890539792,0.03108206197709475]",4.0,"[-0.11150508088136507,0.12068351452631607]",4.0,"[-0.05782055225930202,0.08693170746125571]",100.0,"[-0.12658609884581717,-0.05103370480657383]",4.0,"[0.1386148560866844,0.09400799998233261]",4.0,"[0.0017438556233821574,-0.08370906276570018]",4.0,"[-0.005257122988996263,0.1126527050013601]",4.0,"[0.015376298267906778,0.050817554459384046]",4.0,"[0.070959951765059,-0.06712014786964156]",4.0,"[-0.05619953137295406,-0.18106823713022932]",4.0,"[0.17674829409439352,-0.0008795140592548415]",4.0,"[-0.08640408556465373,-0.09341443828006918]",4.0,"[0.17017036733675042,-0.06973326477555561]",4.0,"[-0.0923821800099698,-0.15202412395270173]",4.0,"[-0.09322120455539669,0.05627694108231972]",4.0,"[-0.12946329007135732,0.08081651708959733]",4.0,"[0.02,0.02]",124.1393,0.0,19.0,19.0,187.0,1.0,,,,,,,
,,,,,,,67c65eac81e48b55bcd1f70a,684429a65a83f276ecf558cc,2025-06-07_14h09.42.011,shape_ratio,2024.1.5,Win32,30.12048193,684250e4f00cb30b92d1fa88,,,,,,,,,,,124.1407,124.6468,,,124.9085,125.4047,left,0.4808,,,,,,,,,0.5,,,,,,124.6469,124.9084,125.4049,"[0.06824413972326632,-0.036619817537609886]",4.0,"[0.15143080929354583,0.09440384670576592]",4.0,"[-0.16461092353741777,0.07003503572897943]",4.0,"[0.039978439857173774,0.16535394051497973]",4.0,"[-0.01628111440930692,-0.1749214009712639]",4.0,"[0.08386514071975537,-0.1191897053901907]",100.0,"[-0.11472834648302786,0.0023812096908541283]",4.0,"[-0.03720557390997036,0.14562076933513907]",100.0,"[-0.06435263655690984,-0.14578671617464203]",100.0,"[-0.07358931555645619,-0.034308556679781554]",4.0,"[-0.12703991000720022,0.08608938821656446]",100.0,"[-0.05340415880099554,0.042354130237569704]",100.0,"[0.019569260649077977,-0.03596111790753942]",100.0,"[0.08552452819252584,0.1617901378130031]",100.0,"[-0.04448166476837083,0.10542122881234]",100.0,"[-0.14398840591504072,-0.08726613421598775]",100.0,"[-0.048763592805295755,0.1843948940747672]",4.0,"[0.17987039589597545,-0.06221428190894495]",100.0,"[0.0221027591807644,-0.1395194757306853]",4.0,"[0.043825085665485784,-0.18829913332666504]",100.0,"[0.10618468183496113,-0.0018455316612769974]",4.0,"[0.07058038061518801,0.11412939974396974]",4.0,"[-0.15488166602918804,0.02292502017470199]",4.0,"[0.10849328977886377,0.05026771102343005]",100.0,"[0.11473763138328281,-0.04831000764479542]",4.0,"[-0.03210773360964599,-0.06058813494359717]",100.0,"[-0.11594512330006572,0.1279610535452122]",100.0,"[0.02427988651173003,-0.0763143441841093]",100.0,"[-0.135196664497531,-0.13764889738974986]",4.0,"[-0.18270746790715403,-0.059756438314520606]",4.0,"[0.17733693137457926,0.044908839805202015]",4.0,"[0.010950018974333307,0.03601909951154026]",100.0,"[0.02,0.02]",126.5112,0.0,20.0,20.0,106.0,1.0,,,,,,,
,,,,,,,67c65eac81e48b55bcd1f70a,684429a65a83f276ecf558cc,2025-06-07_14h09.42.011,shape_ratio,2024.1.5,Win32,30.12048193,684250e4f00cb30b92d1fa88,,,,,,,,,,,126.5129,126.9913,,,127.2457,127.9839,left,0.7151,,,,,,,,,0.4,,,,,,126.9914,127.2456,127.984,"[-0.17094549068965956,0.09224866233723072]",4.0,"[-0.0692115004073882,-0.034587434006962986]",4.0,"[0.03823262289829448,0.14691482055970387]",100.0,"[-0.1761428629960051,-0.09174379615972988]",100.0,"[-0.1971781959385596,0.008907565937018892]",100.0,"[-0.09416146884188067,-0.09938177266102435]",4.0,"[-0.04862091488217207,0.08827798894288867]",100.0,"[0.16134226225830933,0.086021302005699]",4.0,"[-0.14539359875946373,-0.03193270309068816]",4.0,"[-0.02346586189461707,0.00013513049042534794]",100.0,"[0.164306935205545,0.03986426873075697]",4.0,"[0.11396613546604419,-0.023184481997519598]",4.0,"[-0.07956126173581203,0.17636423065463502]",4.0,"[0.06993957461721115,0.06718996132282502]",100.0,"[0.04770346701473548,0.02416870300551683]",4.0,"[-0.10426044324919771,-0.0027722229550007243]",4.0,"[0.007740424421220598,-0.19079538575309862]",4.0,"[-0.11849981704019207,-0.15429359422289396]",4.0,"[0.05822437142887402,-0.03926707412670463]",4.0,"[-0.13152640700220994,0.06842780562793416]",4.0,"[-0.06950650607569511,-0.1565864579257049]",100.0,"[0.16901532651669623,-0.037619108500827676]",4.0,"[0.003952443808593647,0.0945287557318155]",4.0,"[-0.036117760611231516,-0.10646939346481678]",100.0,"[-0.01366661998660584,-0.14003190735772655]",4.0,"[-0.030574683145010745,0.19192446032205074]",100.0,"[0.01326109064840444,-0.06312975733939274]",100.0,"[0.05648324598442721,-0.18312558904242585]",100.0,"[-0.09152695806641956,0.12295057489324074]",4.0,"[-0.007428866926671836,0.05307501688495697]",100.0,"[0.1215329969665562,0.0206160402382185]",4.0,"[-0.13486996069947635,0.11627908893640038]",100.0,"[0.02,0.02]",129.0853,0.0,21.0,21.0,173.0,1.0,,,,,,,
,,,,,,,67c65eac81e48b55bcd1f70a,684429a65a83f276ecf558cc,2025-06-07_14h09.42.011,shape_ratio,2024.1.5,Win32,30.12048193,684250e4f00cb30b92d1fa88,,,,,,,,,,,129.0867,129.5871,,,129.8288,130.4717,right,0.6239,,,,,,,,,0.1,,,,,,129.5872,129.8288,130.4718,"[-0.15237623998256566,0.02321120166239482]",4.0,"[-0.07691745082405209,-0.023249874950753566]",4.0,"[-0.00834754805103125,0.10447876146359535]",4.0,"[0.06481834624337726,-0.09736990115238578]",4.0,"[0.022701230056115455,0.184058062510594]",4.0,"[-0.008187572292291672,0.025915947640545615]",4.0,"[0.077515548943063,-0.17084744017959663]",4.0,"[-0.09403806348305929,-0.07395283174512968]",4.0,"[0.14486553983079484,0.1168087703534887]",4.0,"[-0.0508186589126722,0.1422103573403387]",4.0,"[-0.0964560173888156,-0.13175060337783112]",4.0,"[0.17415020747728374,0.007512872942692256]",4.0,"[-0.03573263895974593,0.1964831902463789]",4.0,"[0.1320503392199123,0.05344831154576784]",4.0,"[0.14921111551330282,-0.07050932027363903]",4.0,"[-0.15701160251968485,0.11220622619318198]",4.0,"[0.13446996338071573,-0.019575659327626886]",100.0,"[0.10251407849360253,0.11774317457917818]",100.0,"[-0.046882965043428246,-0.18266759368731908]",4.0,"[0.00964997881652092,-0.09860835408116325]",4.0,"[0.15477100113685355,-0.11894879953240775]",4.0,"[0.18281295081355872,-0.03821537628922759]",4.0,"[0.050844486524302145,0.11547105830614227]",4.0,"[-0.12829227469267088,0.05992162608451333]",4.0,"[-0.09229131928765895,0.14430751945461948]",4.0,"[-0.1475215080463794,-0.04636664138855713]",4.0,"[0.10071500537738794,-0.07557200802336005]",4.0,"[-0.04768405729464515,0.08577013687085429]",4.0,"[0.0398315911563544,-0.018905099754330613]",4.0,"[-0.08056025087320748,0.04313775282249239]",4.0,"[0.01142570753182493,-0.16211395360302142]",100.0,"[0.03427431125032537,0.06920142350569417]",4.0,"[0.02,0.02]",131.565,0.0,22.0,22.0,208.0,1.0,,,,,,,
,,,,,,,67c65eac81e48b55bcd1f70a,684429a65a83f276ecf558cc,2025-06-07_14h09.42.011,shape_ratio,2024.1.5,Win32,30.12048193,684250e4f00cb30b92d1fa88,,,,,,,,,,,131.5666,132.0648,,,132.3207,133.028,left,0.6891,,,,,,,,,0.4,,,,,,132.0649,132.3206,133.0282,"[0.08331523494996715,0.049831855793854164]",4.0,"[-0.08095996463375325,0.13958275934734168]",4.0,"[-0.1730039280759235,0.04760889872909856]",4.0,"[0.06447790035365268,0.14848858400672243]",100.0,"[-0.1347002698634628,0.11851680480778089]",100.0,"[0.024362010788028955,0.06227877416265303]",100.0,"[-0.08914881587168093,0.007554386670820865]",100.0,"[0.1065753925709998,-0.1137368908517854]",100.0,"[-0.03914215486496329,-0.016343829436403487]",4.0,"[0.1337521313503674,0.10843785050675424]",100.0,"[-0.17324568720821656,-0.05332295737908084]",4.0,"[0.16134428380405866,0.04420029501170152]",4.0,"[0.06912539477617084,-0.05622859957317937]",100.0,"[-0.050419016632096525,-0.15247901922913987]",4.0,"[-0.0872416609550479,0.09272273302961277]",4.0,"[-0.02968312466398633,-0.10597222347292626]",4.0,"[-0.10308108611043115,-0.03605141166682662]",100.0,"[0.026272402921168815,-0.16813958752337219]",4.0,"[-0.017905914863036047,0.16313861351992304]",4.0,"[0.029637222462927444,-0.04080597038175443]",4.0,"[-0.03772164534365177,0.1142569382113188]",4.0,"[-0.14848312349848355,-0.10989710570484679]",100.0,"[-0.04783740601338832,0.038735725591590775]",100.0,"[0.0951954302024007,0.09254485280139427]",4.0,"[-0.10299891924576826,-0.16647786142691218]",100.0,"[0.10540777118974164,0.15274601110273156]",4.0,"[0.01691874948114612,-0.11555527439510625]",100.0,"[-0.08757246456701749,-0.10198173592221524]",4.0,"[0.014326246401120771,0.010108712169347308]",4.0,"[0.19101240040731313,-0.005265005972108649]",4.0,"[0.17509837221480748,0.09055453876401363]",4.0,"[0.08612151264363167,0.00597988664182575]",100.0,"[0.02,0.02]",134.1202,0.0,23.0,23.0,170.0,1.0,,,,,,,
,,,,,,,67c65eac81e48b55bcd1f70a,684429a65a83f276ecf558cc,2025-06-07_14h09.42.011,shape_ratio,2024.1.5,Win32,30.12048193,684250e4f00cb30b92d1fa88,,,,,,,,,,,134.1218,134.6201,,,134.8759,135.4349,right,0.5419,,,,,,,,,0.9,,,,,,134.6203,134.8753,135.4356,"[0.036548289143545236,0.16644640511777709]",100.0,"[-0.08880832912074671,0.09048841097663043]",100.0,"[0.10442815142348436,0.027307638233092974]",100.0,"[-0.0776548104490683,-0.08842863497688802]",4.0,"[0.05203256848782218,0.053256708356651014]",100.0,"[0.0421468831795175,-0.1814619892590249]",100.0,"[-0.12438125255802132,-0.060014565747175494]",100.0,"[-0.15227220632636299,-0.02720860142776585]",100.0,"[0.027218415994619,-0.09331996889417342]",100.0,"[-0.004375306501148993,0.013579367735860852]",100.0,"[0.0073844751479489445,0.07908431036205218]",100.0,"[-0.0032135246960558216,-0.03327100322374018]",100.0,"[-0.038681755470290194,-0.10553271221902366]",100.0,"[0.18760648774402333,0.022366277315212544]",100.0,"[-0.03078031451325838,-0.19055963934695896]",100.0,"[-0.15850629194758847,0.09231999901361246]",100.0,"[0.0917860420574701,-0.045977942294295374]",100.0,"[-0.08571213912745639,0.04318283940662587]",100.0,"[-0.027557530680030896,0.18852559108811134]",100.0,"[0.13134296668001214,-0.03374229347266571]",100.0,"[0.052792226493040356,0.1076469271921044]",4.0,"[0.054568271192270305,-0.005703372642242605]",100.0,"[0.11622755332151766,0.08802276215128234]",100.0,"[-0.08328343491751616,0.1517265796694443]",100.0,"[-0.042382883474254576,0.13980874830045298]",100.0,"[-0.16048211039169025,0.04108590558324085]",100.0,"[0.12105744247620961,-0.13477814688591805]",100.0,"[0.08235921048509895,-0.08547075460112029]",4.0,"[0.187039248426557,-0.03824747147496337]",100.0,"[0.15511965727537866,0.0774205699116288]",100.0,"[0.11566972719069235,0.15901567845793058]",100.0,"[-0.05421040867689305,-0.00972646927984802]",100.0,"[0.02,0.02]",136.5367,0.0,24.0,24.0,7.0,1.0,,,,,,,
,,,,,,,67c65eac81e48b55bcd1f70a,684429a65a83f276ecf558cc,2025-06-07_14h09.42.011,shape_ratio,2024.1.5,Win32,30.12048193,684250e4f00cb30b92d1fa88,,,,,,,,,,,136.5385,137.0392,,,137.2874,137.8994,right,0.593,,,,,,,,,0.5,,,,,,137.0394,137.2872,137.8994,"[0.10065837336789128,0.0804619149601437]",4.0,"[0.0478749549677412,0.1507702159239044]",100.0,"[-0.023576610264204538,0.12422478406844577]",100.0,"[-0.11868924912229786,-0.025952280720472592]",100.0,"[0.002117321788776495,-0.11455751097779356]",4.0,"[0.016688060397608524,0.038601142215771315]",100.0,"[0.1890551767375,-0.01698565801390937]",4.0,"[0.1164280761730962,-0.15524713523030423]",4.0,"[0.18202189869427965,0.06699780348837954]",4.0,"[-0.03700523938078954,-0.12368038097216942]",4.0,"[0.0327573878738008,-0.14841658835015328]",4.0,"[0.14544555069487147,-0.08543948163496916]",100.0,"[-0.07655262339128514,0.13387150761548014]",100.0,"[0.1583772329984467,0.1138888375420271]",100.0,"[-0.06702312532915346,0.09350621704438769]",4.0,"[-0.060207606111748614,-0.158381311963748]",100.0,"[-0.05997589847659528,-0.06928055022796183]",4.0,"[-0.11177244489980716,-0.08119732789512839]",4.0,"[0.1462990385238314,0.04404372620966955]",100.0,"[-0.17591095292847178,0.06937660236268205]",100.0,"[-0.028046255064293663,0.031295608375229704]",4.0,"[0.06338266377592383,-0.1092524839129932]",100.0,"[0.17853617031782917,-0.058026107182178925]",4.0,"[-0.1345741151494602,0.07328565812845321]",100.0,"[0.11515480585290923,0.13351351826761543]",100.0,"[0.1372939845187232,-0.014475536837966424]",4.0,"[-0.1210187941921265,0.14489794520251886]",4.0,"[0.015832963427696495,-0.010691911028814729]",4.0,"[0.08283338261016267,-0.06164195250677954]",100.0,"[-0.05343969061538141,-0.017724341194312047]",4.0,"[-0.09611516647278005,0.011811204568817166]",100.0,"[0.09860666981691255,0.009508457740517017]",100.0,"[0.02,0.02]",139.0056,0.0,25.0,25.0,92.0,1.0,,,,,,,
,,,,,,,67c65eac81e48b55bcd1f70a,684429a65a83f276ecf558cc,2025-06-07_14h09.42.011,shape_ratio,2024.1.5,Win32,30.12048193,684250e4f00cb30b92d1fa88,,,,,,,,,,,139.0072,139.5111,,,139.7743,140.5753,left,0.7828,,,,,,,,,0.45,,,,,,139.5111,139.774,140.5754,"[-0.13076701860904388,-0.08020278216546946]",4.0,"[0.00022644637079275083,0.03540744684963437]",4.0,"[-0.06442810833202472,-0.01683025308692412]",100.0,"[0.06464567237578106,0.14979490264504358]",4.0,"[0.04509620184506827,0.04061423543940151]",4.0,"[0.1066561003002617,0.12899596798431748]",100.0,"[-0.10408793228570346,0.05066288567784927]",100.0,"[0.09942323095274438,-0.07025385071416093]",4.0,"[-0.16656873617747045,-0.009801117966076451]",100.0,"[0.1414084868212811,0.04774167660486628]",4.0,"[0.05302955018389357,-0.04155474514756999]",100.0,"[0.10180235630789038,-0.015590196617019353]",4.0,"[-0.015379527884797713,-0.14551476344319744]",4.0,"[0.18491242380694967,0.05159638014972111]",100.0,"[-0.07684506606750507,0.14311555248300498]",4.0,"[0.07701775146243807,-0.17942799418876196]",100.0,"[-0.04116075305917158,0.0862340855816292]",4.0,"[0.05209885872954094,0.10454157778817869]",4.0,"[0.15619627594428273,-0.1087832757791793]",100.0,"[0.0030982730015668967,-0.036615546539082965]",100.0,"[0.02655648277308079,-0.10275209329456172]",4.0,"[-0.05283419734025921,-0.16791784350246566]",100.0,"[-0.0020900884882206674,0.09709628344003966]",4.0,"[0.17789675949590836,-0.0027490469955334233]",100.0,"[-0.05744830325562374,-0.09285876060131508]",100.0,"[-0.11281953257097414,-0.034370899614290955]",4.0,"[0.05782975249280954,-0.133974008173523]",100.0,"[0.1552287989098496,-0.04172943796378862]",4.0,"[0.10032809329612477,-0.11129315940290406]",4.0,"[0.01270585297863429,0.1704552150623806]",4.0,"[-0.1312257161115985,-0.13790793350226088]",4.0,"[-0.17244742848907377,-0.05892304526682167]",100.0,"[0.02,0.02]",141.6586,0.0,26.0,26.0,123.0,1.0,,,,,,,
,,,,,,,67c65eac81e48b55bcd1f70a,684429a65a83f276ecf558cc,2025-06-07_14h09.42.011,shape_ratio,2024.1.5,Win32,30.12048193,684250e4f00cb30b92d1fa88,,,,,,,,,,,141.6602,142.1557,,,142.3938,142.9914,right,0.5792,,,,,,,,,0.5,,,,,,142.1558,142.3937,142.9914,"[0.029047128704096287,0.13064461420502632]",4.0,"[-0.036717677579920546,-0.14513383457764994]",100.0,"[-0.02694423108456809,0.11530052053057145]",100.0,"[-0.12624525396939135,0.06361381142893742]",4.0,"[0.08701009156712003,-0.13818283647193458]",100.0,"[-0.14512797050058868,0.12671277994475674]",4.0,"[-0.09205962970314766,-0.04887120300500519]",100.0,"[0.08176372008952658,0.1493783493748016]",100.0,"[0.10581842604135035,0.03350048308218508]",100.0,"[0.013846885474547935,-0.02771368832041824]",100.0,"[-0.13862695914392636,-0.13202269236080486]",100.0,"[-0.07101879526681915,0.04002085257018879]",100.0,"[0.05719833549002492,0.07936806598878926]",4.0,"[-0.15289213000670693,-0.004460402826710074]",4.0,"[0.18047028333987156,-0.01037979441300925]",4.0,"[-0.07947456597090634,-0.1167672679071641]",100.0,"[-0.06214403233386802,0.1460152533670364]",4.0,"[-0.1675596970755814,-0.08979940271707403]",100.0,"[-0.0142511776889189,0.17016622517892505]",4.0,"[-0.1886610101468133,-0.029854580395052347]",4.0,"[0.03247099310008121,-0.1231756255903374]",100.0,"[-0.01931122915476242,0.036335074157736895]",4.0,"[-0.03153263311780637,-0.09437619237527782]",100.0,"[0.1318822173866439,-0.0617143781963158]",4.0,"[0.13236193443410021,-0.13744717282420957]",4.0,"[0.0015272059118063602,-0.17354023729179385]",100.0,"[0.1697872522868733,0.055325680224904146]",4.0,"[0.013314128800447479,0.08716820767621371]",100.0,"[0.0692365802044598,-0.043100973497045426]",4.0,"[-0.10924613878310513,0.02020222801322805]",4.0,"[-0.10410600626071921,0.1386759869848913]",100.0,"[0.019372095437088725,0.1964847609270765]",4.0,"[0.02,0.02]",144.0813,0.0,27.0,27.0,98.0,1.0,,,,,,,
,,,,,,,67c65eac81e48b55bcd1f70a,684429a65a83f276ecf558cc,2025-06-07_14h09.42.011,shape_ratio,2024.1.5,Win32,30.12048193,684250e4f00cb30b92d1fa88,,,,,,,,,,,144.0829,144.5819,,,144.8378,145.412,right,0.5558,,,,,,,,,0.6,,,,,,144.5819,144.8377,145.4121,"[0.05783896152968067,0.06410298454244764]",100.0,"[-0.021354454926412983,0.09432854244900439]",4.0,"[-0.01379625748313983,0.03608877291836592]",4.0,"[0.03779307544083031,0.17500824021850253]",100.0,"[-0.03198797074320354,0.13888015864589298]",4.0,"[-0.044718058313723504,-0.16152548922998433]",100.0,"[-0.08473331545773655,-0.16764211281518396]",4.0,"[0.16997408109628132,-0.09750558205514388]",4.0,"[-0.11014279074010504,0.15882486510027113]",4.0,"[0.017335980758826128,-0.192796122816914]",100.0,"[-0.1558171898728746,-0.05084080897757975]",100.0,"[-0.07090218256608667,0.1863238251513016]",100.0,"[0.1417891648782726,0.13291369875113562]",100.0,"[-0.1368958188340216,-0.14245864131577865]",100.0,"[-0.07332001594259456,0.04058589951249161]",100.0,"[0.13565474803403782,0.01294689546733818]",4.0,"[-0.07849771242629153,-0.07933648514690414]",4.0,"[-0.016202784624726622,0.1803818882775209]",100.0,"[0.08021729443525245,0.17137954174104672]",100.0,"[0.08474298086338404,-0.17166580087685565]",4.0,"[0.1171696110930056,-0.099808793719533]",4.0,"[0.10751659445290673,0.06807122286338184]",100.0,"[0.00048208194139214196,-0.07007367385102212]",100.0,"[-0.027487013387884673,-0.1072783074209376]",100.0,"[0.04342614103309866,-0.15171001744969143]",100.0,"[-0.17109205579410589,-0.09873053186406207]",4.0,"[-0.04122009194353553,-0.053700807117981586]",100.0,"[0.059199451709937415,-0.11133683257789499]",100.0,"[0.03091715380205654,-0.0012335954332215772]",4.0,"[0.08875178609384096,-0.013894056385774832]",100.0,"[0.1713777621927575,-0.02866551238883688]",4.0,"[0.07790440022516015,-0.07022736252542507]",100.0,"[0.02,0.02]",146.5085,0.0,28.0,28.0,59.0,1.0,,,,,,,
,,,,,,,67c65eac81e48b55bcd1f70a,684429a65a83f276ecf558cc,2025-06-07_14h09.42.011,shape_ratio,2024.1.5,Win32,30.12048193,684250e4f00cb30b92d1fa88,,,,,,,,,,,146.5101,147.0069,,,147.2372,147.7874,right,0.5296,,,,,,,,,0.1,,,,,,147.0069,147.2371,147.7875,"[0.04977163432945942,0.096269465207377]",4.0,"[-0.05106908342605575,0.180913435440634]",4.0,"[0.00416885470429633,-0.09999261343596613]",4.0,"[-0.13983470025381795,-0.11226402736201459]",4.0,"[-0.14172837732722268,0.11035159352115921]",4.0,"[-0.022056048911265322,0.10406364925965693]",4.0,"[0.027916878601644247,-0.18585518564928422]",4.0,"[0.13914423003174906,0.12449136025780998]",4.0,"[-0.039494053831330346,-0.09460579629549566]",4.0,"[-0.0016277751019469645,0.14090568467872783]",4.0,"[-0.18093562160787516,-0.06620538094093334]",4.0,"[-0.016847789622929776,-0.15795427532760997]",4.0,"[0.008404288621097607,-0.04233431942266016]",4.0,"[-0.09965298254531701,0.07922433275647595]",4.0,"[0.060527242310856835,0.16333302311239775]",4.0,"[0.0569268531188235,-0.04943875011822227]",4.0,"[0.12716564020880008,0.038144813237476365]",4.0,"[0.13561288668785823,-0.018575133764561394]",4.0,"[-0.15071010623369616,0.04056464464909761]",4.0,"[0.1675404049525809,-0.07582855819686424]",4.0,"[-0.0993613075365919,-0.15902794839956938]",100.0,"[-0.1409175904654045,-0.04526208300337223]",4.0,"[0.08181736437138944,-0.12179216681510956]",4.0,"[0.08400989208644524,-0.017252781311485124]",4.0,"[-0.07274726889754067,0.0006724082213500773]",4.0,"[-0.08821854329550093,0.12995858728552828]",4.0,"[0.0008238797865911551,0.19404842231392522]",4.0,"[0.020291900319732294,0.06296556575597433]",100.0,"[0.18380594823347937,0.03879578631675332]",4.0,"[-0.08436142696388671,-0.06526241856372544]",100.0,"[0.05732243420016149,0.045850100559428925]",4.0,"[-0.001665428618584344,0.024832132843257432]",4.0,"[0.02,0.02]",148.8892,0.0,29.0,29.0,191.0,1.0,,,,,,,
,,,,,,,67c65eac81e48b55bcd1f70a,684429a65a83f276ecf558cc,2025-06-07_14h09.42.011,shape_ratio,2024.1.5,Win32,30.12048193,684250e4f00cb30b92d1fa88,,,,,,,,,,,148.8908,149.3695,,,149.6248,150.345,right,0.7023,,,,,,,,,0.55,,,,,,149.3697,149.6248,150.3452,"[0.09829962336894632,0.04319384726377652]",100.0,"[-0.012510296425462654,-0.15938828317048714]",100.0,"[0.10363896055370017,-0.02934836040527217]",100.0,"[-0.06551104889008008,-0.14240243507229647]",100.0,"[0.03462884563162079,-0.005610250113179533]",4.0,"[0.18170364414282378,0.0596899052577505]",100.0,"[-0.06497817773224017,-0.019006764338981623]",4.0,"[-0.009030723008782913,0.05644634327713412]",100.0,"[-0.13533647306414834,0.09302301391389914]",100.0,"[0.015229778077542283,0.16032938213822268]",100.0,"[0.042534717964164435,0.11526153276847709]",4.0,"[-0.0730341466404843,0.09495110642815262]",100.0,"[0.11423520908791572,-0.15118693913505749]",4.0,"[-0.11927828512362611,0.15245652623745906]",4.0,"[-0.01986905241994252,0.10910320190572333]",100.0,"[0.14046168462592562,0.024384721198426072]",100.0,"[0.09783509195613906,0.12934833164586138]",4.0,"[0.06792238066239722,-0.15986381447855919]",100.0,"[-0.0989166412770825,-0.11916826171301481]",4.0,"[0.039211542825194984,-0.05619541333216212]",4.0,"[-0.1793648488793468,-0.03224686918710452]",100.0,"[-0.1407100344813588,-0.071625102284199]",4.0,"[0.13384204510246625,0.1040976970305487]",4.0,"[-0.06746886231727549,0.18014741512021817]",4.0,"[0.17248112161854778,-0.04005617700209842]",100.0,"[0.003383671434544506,-0.10005166412591036]",100.0,"[0.03489864496686761,0.07167523070267796]",4.0,"[-0.022249537086645985,-0.032878874128468336]",4.0,"[-0.008895487057687298,0.0062856942803143885]",100.0,"[-0.14580799818088397,-0.11465977839486227]",100.0,"[-0.10141744570056467,0.05070924012461076]",100.0,"[0.04737574317894927,0.1890586688928461]",4.0,"[0.02,0.02]",151.4226,0.0,30.0,30.0,63.0,1.0,,,,,,,
,,,,,,,67c65eac81e48b55bcd1f70a,684429a65a83f276ecf558cc,2025-06-07_14h09.42.011,shape_ratio,2024.1.5,Win32,30.12048193,684250e4f00cb30b92d1fa88,,,,,,,,,,,151.424,151.9372,,,152.1781,152.756,left,0.5583,,,,,,,,,0.9,,,,,,151.9373,152.1778,152.7562,"[-0.16585627547218018,-0.08495220346292767]",100.0,"[-0.008814488886207708,-0.0017826439418601027]",100.0,"[0.11892046945987193,-0.07173758014694163]",100.0,"[-0.0463674865800859,0.18172484127601968]",100.0,"[-0.08166187128809271,-0.14058665089725905]",100.0,"[0.11965386715009212,0.058446302104982785]",100.0,"[-0.16921616784419113,0.05813599974251772]",100.0,"[-0.12626871364184764,0.038974639982896374]",100.0,"[-0.023915986102215875,0.1212058775233637]",100.0,"[-0.04114363655206534,0.08086891093213217]",4.0,"[0.024770183900799846,0.13504109573624665]",100.0,"[0.013897004637245082,-0.07209560781700179]",100.0,"[0.05181892739200448,-0.11664202086814957]",100.0,"[-0.09664743269210378,0.08355494413864878]",100.0,"[-0.029599535401827103,-0.10900966158736705]",100.0,"[-0.12659905449072686,0.1285163941862857]",100.0,"[0.16142281647974702,0.04026819553032781]",100.0,"[-0.12593172992940418,-0.0706589901048823]",100.0,"[0.05230087598547665,0.006887032847434264]",100.0,"[0.07090673462038907,0.13930293163530602]",100.0,"[0.09211210507456616,-0.041712012181342975]",100.0,"[0.16660612529508467,-0.09357194338949146]",100.0,"[0.16918014812236934,-0.04192738619049562]",100.0,"[0.12128055181946709,-0.14561453592210985]",4.0,"[-0.04547950573642613,-0.05855745285389773]",100.0,"[-0.036941552212124806,-0.18512973166522834]",100.0,"[0.035946465960938694,-0.17238709535748153]",100.0,"[0.021254997141168304,0.06413729922276766]",100.0,"[-0.08632824483038783,-0.03214678680539071]",100.0,"[-0.04204473077211042,0.020703787901919502]",4.0,"[0.11020597277474349,0.1553143579884666]",100.0,"[0.08401421842380473,0.03154367382208148]",100.0,"[0.02,0.02]",153.8446,0.0,31.0,31.0,16.0,1.0,,,,,,,
,,,,,,,67c65eac81e48b55bcd1f70a,684429a65a83f276ecf558cc,2025-06-07_14h09.42.011,shape_ratio,2024.1.5,Win32,30.12048193,684250e4f00cb30b92d1fa88,,,,,,,,,,,153.8456,154.3424,,,154.5964,155.1981,right,0.5786,,,,,,,,,0.1,,,,,,154.3426,154.5963,155.1982,"[0.09368861088727866,-0.13370348400775972]",4.0,"[0.0995155237146081,-0.009039795820069516]",4.0,"[-0.10957750374173583,-0.11524296139432512]",4.0,"[-0.0634970473302323,-0.040596330740131394]",4.0,"[0.014764675356367139,0.11811875491905134]",100.0,"[0.15025232106926695,-0.10195734736471868]",4.0,"[-0.01006938079135898,-0.10237849992719673]",4.0,"[-0.0676436392769349,0.17465280784408757]",4.0,"[0.180003867437818,-0.05930926351395737]",4.0,"[0.049577910819865546,0.1847893848181748]",4.0,"[0.029782840689051984,0.006515502414594092]",4.0,"[0.033565288416248514,0.061849465077363476]",4.0,"[-0.10312152310539,0.09341984657521481]",4.0,"[0.12827118787107203,0.07073985751746066]",4.0,"[-0.10135173668779131,-0.021771399498541327]",4.0,"[0.08824501365055863,0.1461336184569967]",4.0,"[-0.18823897551839314,0.06359216170155449]",4.0,"[-0.1911815161545677,-0.03460773397743633]",4.0,"[-0.04452183472918756,-0.15554465208084892]",4.0,"[0.045758696469611226,-0.11978042643334039]",4.0,"[-0.015203835148904275,0.15773330023541526]",4.0,"[-0.0037624226557930115,-0.1540033824531726]",100.0,"[0.17061966985389684,0.08857171159024231]",4.0,"[-0.1416232437445623,0.06257901487364455]",4.0,"[0.12121690137090256,-0.06692634161577156]",100.0,"[-0.03277307528041701,0.19466113522283018]",4.0,"[-0.024060573643465116,0.08779140415264568]",4.0,"[-0.07934856259835055,0.12790324577706383]",4.0,"[0.1493430048975375,-0.022499294126554548]",4.0,"[-0.16154719559965508,-0.08958120776199323]",4.0,"[-0.14785430683557935,0.11947100698013109]",4.0,"[-0.12059600081636018,-0.06767820837625486]",4.0,"[0.02,0.02]",156.3029,0.0,32.0,32.0,181.0,1.0,,,,,,,
,,,,,,,67c65eac81e48b55bcd1f70a,684429a65a83f276ecf558cc,2025-06-07_14h09.42.011,shape_ratio,2024.1.5,Win32,30.12048193,684250e4f00cb30b92d1fa88,,,,,,,,,,,156.3048,156.7914,,,157.0469,157.6918,right,0.6224,,,,,,,,,0.5,,,,,,156.7915,157.0468,157.6919,"[-0.16779753297202984,0.032128890493295266]",100.0,"[0.024069649322053598,-0.1371647937897423]",4.0,"[0.11267410895064155,0.08270700105345702]",4.0,"[0.06165708160769293,-0.03831131147232906]",100.0,"[0.19637349007834332,-0.03129626298870803]",100.0,"[-0.016570319476214346,0.1693765958023955]",4.0,"[0.1401852472611101,0.11849571493501171]",4.0,"[0.07414605466696256,0.009385110295995298]",4.0,"[-0.07447740183851687,0.015694008908766353]",4.0,"[0.031686605512853856,-0.06699524067153755]",100.0,"[-0.09634128119363317,-0.10480031970263445]",4.0,"[-0.014120945532237139,0.011299400147333265]",100.0,"[0.14532653103700163,-0.12829554998885878]",4.0,"[-0.157994428523448,-0.008801447358370063]",4.0,"[0.05851958823918556,0.1416272026195233]",100.0,"[0.010820702133784868,0.0613513766788024]",100.0,"[0.16625173270715793,0.06445286317644118]",4.0,"[-0.06477552331684398,-0.07929294051516769]",4.0,"[-0.03771086932117324,0.0636352470024582]",100.0,"[-0.15875155511816524,-0.08008047239936825]",100.0,"[-0.06821051877149575,0.10892138208547848]",100.0,"[0.1550215159428902,-0.07547669463208084]",4.0,"[-0.18803061839778792,-0.04129538441875015]",4.0,"[-0.14455054745426985,0.09548564886059473]",4.0,"[-0.12770068876633425,-0.1503974583260753]",100.0,"[-0.016919891209576987,-0.11634374772420919]",100.0,"[-0.023503999431479808,0.128581168503014]",100.0,"[-0.02068470845395286,-0.1900797770210683]",100.0,"[-0.07567968375712478,-0.17657947896193518]",100.0,"[-0.025581579453985863,-0.03732124166071571]",4.0,"[0.08990977152824876,-0.07348469524243614]",4.0,"[-0.10540528180948237,0.15467730387733597]",100.0,"[0.02,0.02]",158.8039,0.0,33.0,33.0,109.0,1.0,,,,,,,
,,,,,,,67c65eac81e48b55bcd1f70a,684429a65a83f276ecf558cc,2025-06-07_14h09.42.011,shape_ratio,2024.1.5,Win32,30.12048193,684250e4f00cb30b92d1fa88,,,,,,,,,,,158.8048,159.3066,,,159.5544,160.2515,left,0.678,,,,,,,,,0.5,,,,,,159.3067,159.5544,160.2515,"[0.14026861317148148,-0.08538750294567549]",100.0,"[0.034398823512916406,-0.042029798883739464]",100.0,"[0.02451883891252989,0.19403078012097147]",4.0,"[-0.04804450078759533,-0.09975341784697812]",4.0,"[-0.00976509232593025,-0.16215907326300907]",4.0,"[0.16401760626003534,-0.05271558638586248]",4.0,"[-0.08917952656983971,0.0736956873266028]",100.0,"[0.1034840816025628,0.05153811348738612]",4.0,"[-0.010169616309598646,-0.025771379710374638]",4.0,"[-0.06889880910036404,0.15435958678469675]",4.0,"[0.09650654417515404,-0.1738052572628363]",4.0,"[0.03499577243699856,0.13689017362807174]",4.0,"[-0.0865784825898105,-0.0815360042192567]",100.0,"[0.060435966247569736,-0.15630655105324057]",4.0,"[-0.04964073217201423,0.009630844623876067]",100.0,"[0.02078498900737787,-0.11288779416123915]",100.0,"[-0.15174211202087715,-0.08223225961854728]",100.0,"[0.09358711035140775,0.1629378409315817]",100.0,"[-0.17125368259451085,-0.02803185773688314]",4.0,"[-0.14062588843526683,0.03279541274945024]",100.0,"[-0.17707666170774472,0.07240952685328761]",4.0,"[0.15360903832001102,0.1225546814611691]",4.0,"[-0.06625084155800126,-0.17038574911968232]",100.0,"[-0.023402152506381595,0.1234129164579765]",4.0,"[0.15499898983844726,0.054087615215313065]",100.0,"[0.005812765679518271,0.023857522590566893]",4.0,"[-0.023662474473791092,0.17403847702450903]",100.0,"[-0.12187598820072722,-0.13330642703203113]",100.0,"[0.07784919491069402,-0.029364430507330862]",4.0,"[0.07249489851133176,-0.09245570105605265]",100.0,"[0.14862426198564999,0.010984936029476382]",100.0,"[-0.10227831315539497,-0.00869931803140506]",100.0,"[0.02,0.02]",161.3531,0.0,34.0,34.0,101.0,1.0,,,,,,,
,,,,,,,67c65eac81e48b55bcd1f70a,684429a65a83f276ecf558cc,2025-06-07_14h09.42.011,shape_ratio,2024.1.5,Win32,30.12048193,684250e4f00cb30b92d1fa88,,,,,,,,,,,161.3547,161.8593,,,162.1052,162.455,right,0.3312,,,,,,,,,0.55,,,,,,161.8595,162.105,162.4552,"[-0.1843449955637833,-0.07050218345021848]",100.0,"[0.1220807848315864,-0.1320189433899351]",4.0,"[0.04707043866422096,0.04513858127068048]",100.0,"[0.017222802689745995,-0.008697512637634035]",100.0,"[0.04809862218734528,-0.16504091072794275]",4.0,"[0.004324896462312605,-0.09857020122266195]",100.0,"[-0.06636214079949425,-0.065613496129476]",4.0,"[-0.10001110909675691,0.06316672315275326]",4.0,"[-0.08337362626092985,-0.13199036878691556]",4.0,"[0.0771965738622074,-0.022916579470656267]",100.0,"[-0.021122414748977896,-0.040927955029257446]",4.0,"[0.05217257642573475,0.1221522932875272]",100.0,"[0.044597730499762775,-0.052329792988306686]",4.0,"[0.05441115193441738,0.16627572902054685]",100.0,"[0.09772493239945278,0.16148167961457754]",4.0,"[-0.0007612228842414968,0.14239925128387385]",4.0,"[-0.14624734930654162,-0.1101354323326113]",100.0,"[-0.1317322771787808,-0.07159000816433947]",4.0,"[-0.0759743678435037,0.1403724358278894]",100.0,"[-0.09240772740949807,-0.010575748549374176]",4.0,"[0.13951743935485872,0.14184379127642577]",100.0,"[-0.058036088355538355,0.026599243926036947]",100.0,"[-0.05241277641845168,0.19202438249055723]",100.0,"[-0.15858446931172882,0.025340766320152766]",4.0,"[0.15963444104539132,-0.08820235558140165]",4.0,"[0.15026094760156705,0.10137979250026813]",100.0,"[0.18947640103317767,0.020162582207066234]",100.0,"[-0.027235642466618304,0.0913216293993824]",100.0,"[0.005296496179767562,-0.17175326617667544]",100.0,"[-0.15009948761272007,0.12432181105541285]",4.0,"[-0.07615544585616753,0.09912538206590998]",100.0,"[0.1386925357645986,-0.044914574887457925]",100.0,"[0.02,0.02]",163.5498,0.0,35.0,35.0,85.0,1.0,,,,,,,
,,,,,,,67c65eac81e48b55bcd1f70a,684429a65a83f276ecf558cc,2025-06-07_14h09.42.011,shape_ratio,2024.1.5,Win32,30.12048193,684250e4f00cb30b92d1fa88,,,,,,,,,,,163.5507,164.0531,,,164.3102,164.7425,right,0.4138,,,,,,,,,0.4,,,,,,164.0531,164.3102,164.7426,"[-0.019065516868004173,-0.020670813100413285]",4.0,"[-0.056304884750301966,0.0921743973100085]",4.0,"[0.16736729587507354,-0.09480705039445642]",4.0,"[-0.1283450382281404,-0.08200368289619954]",4.0,"[-0.025117388130284704,-0.18308617160244187]",4.0,"[-0.19696364304664,-0.030417550216964923]",100.0,"[-0.09354626533102327,-0.0018959267886234379]",100.0,"[0.1152860831519469,-0.06027388624616938]",4.0,"[0.00713671716946334,-0.12025895341561846]",4.0,"[0.040966987815339764,0.08806590203434853]",4.0,"[0.06211309303469526,-0.06203433237903529]",4.0,"[0.12162147587732218,0.14232823675429387]",4.0,"[0.15412740740146463,0.036521594532352555]",4.0,"[0.021836463059575355,0.15977118114970412]",4.0,"[-0.183580729547267,0.06582994971450123]",4.0,"[0.10202895670198801,0.07038751144066205]",100.0,"[-0.10280945833374272,0.06897299165944262]",100.0,"[-0.06948305907548184,-0.07906107254254162]",4.0,"[-0.08703401717256082,-0.12773371692477375]",100.0,"[-0.03378215852957664,0.16175724912076977]",100.0,"[0.10345930045626463,-0.12133382038671185]",4.0,"[0.04884386341352198,0.009549900743911339]",100.0,"[-0.16537281311301294,0.024025793019241484]",100.0,"[0.05106932810782103,-0.13585124062857687]",100.0,"[0.03323528223774029,-0.19023146092405907]",4.0,"[-0.08008105865445776,0.14773800615734237]",100.0,"[-0.06399131777795146,-0.1613162998212588]",100.0,"[0.13808709939096597,-0.014822690456443759]",100.0,"[-0.12650181043621653,-0.14642089219123844]",4.0,"[-0.0584638050897211,0.04908944779431155]",4.0,"[0.14270337411144873,0.07723621658224257]",4.0,"[-0.12385387614188557,0.03291184065991938]",100.0,"[0.02,0.02]",165.854,0.0,36.0,36.0,158.0,1.0,,,,,,,
,,,,,,,67c65eac81e48b55bcd1f70a,684429a65a83f276ecf558cc,2025-06-07_14h09.42.011,shape_ratio,2024.1.5,Win32,30.12048193,684250e4f00cb30b92d1fa88,,,,,,,,,,,165.8555,166.353,,,166.6107,167.0668,left,0.438,,,,,,,,,0.45,,,,,,166.3531,166.6106,167.0669,"[-0.05750837779196983,0.06847379860928819]",100.0,"[0.14415728730854954,-0.007884345032656451]",100.0,"[-0.026001375776610422,-0.14783842653568308]",4.0,"[0.051882515945552446,-0.13167769793917397]",4.0,"[-0.09780421754455312,-0.0035568223639874017]",4.0,"[-0.012868565273313431,0.1288872724006634]",100.0,"[-0.03439857768535953,-0.037746331933364435]",4.0,"[0.034426251837511426,-0.0525494152545242]",4.0,"[-0.07151912201665234,0.1536417809791089]",100.0,"[0.15838949204599082,-0.06792750849501189]",4.0,"[-0.14269110023147563,-0.026790320991724015]",4.0,"[-0.022096917962609274,-0.1909362027619696]",4.0,"[0.15865965681881974,0.03736286646774999]",100.0,"[0.08699161533581382,-0.016491646143192627]",4.0,"[0.10990830235255786,0.04729782506405584]",4.0,"[0.1689125641624847,0.09066108705688392]",100.0,"[0.02633998460017221,0.070023806141964]",4.0,"[0.07510996362651234,-0.056085742648708276]",4.0,"[0.12503894210564168,0.14252939329826236]",100.0,"[0.0641504094238033,0.1060474508394525]",100.0,"[-0.05788028275857994,-0.0889552339085563]",100.0,"[-0.06814637079621487,-0.15772013656525086]",4.0,"[-0.0685249273022223,0.026855718447510273]",100.0,"[-0.15695328383885015,0.0408483288783724]",4.0,"[0.1963176434144345,0.005539385889589899]",100.0,"[0.007048580077588855,0.024837573571920256]",4.0,"[0.08165571166780418,-0.17608273710919498]",100.0,"[-0.09720334837152779,-0.10743577871337368]",4.0,"[0.11293341349762666,-0.07599404805802497]",100.0,"[-0.18533571522385514,-0.06403192028645825]",100.0,"[-0.12137342991428555,0.06090267990435652]",4.0,"[0.019256788688516414,0.15386195803071204]",4.0,"[0.02,0.02]",168.1712,0.0,37.0,37.0,132.0,1.0,,,,,,,
,,,,,,,67c65eac81e48b55bcd1f70a,684429a65a83f276ecf558cc,2025-06-07_14h09.42.011,shape_ratio,2024.1.5,Win32,30.12048193,684250e4f00cb30b92d1fa88,,,,,,,,,,,168.1727,168.6639,,,168.9056,169.3132,right,0.3864,,,,,,,,,0.55,,,,,,168.664,168.9055,169.3133,"[0.013544591183823005,0.16770571150050892]",100.0,"[-0.12827077512555152,0.08237768561799977]",4.0,"[-0.04519338843123522,0.07247109117393839]",4.0,"[0.09839014046496225,0.10907254148846249]",100.0,"[0.126033562127612,-0.14905311072362218]",100.0,"[0.051324883100048416,0.05179083571835199]",100.0,"[-0.17894519364637404,0.012991254311909554]",100.0,"[0.05439148500328403,0.1277643156798053]",100.0,"[0.1608086471269728,-0.10851804432493604]",4.0,"[-0.13382243373330444,0.1333444883812988]",4.0,"[-0.17315261421822883,0.08651917747209498]",100.0,"[0.1416049124651713,0.05544442197107671]",4.0,"[0.0780106845687607,0.017409106306152403]",100.0,"[0.1544466725849082,-0.06648717837750241]",4.0,"[0.07878982843483753,-0.03421965564004253]",100.0,"[-0.15547792720354006,-0.061281192569946186]",4.0,"[0.029193391770987072,-0.0990549452034627]",100.0,"[-0.04811896478870747,-0.16103679023186113]",4.0,"[0.14137253365617777,0.10612470696372567]",4.0,"[-0.02501643981907801,-0.1944473081481351]",100.0,"[0.16591831657819392,-0.019907223990644617]",100.0,"[-0.11336079601309708,-0.09718637116728045]",100.0,"[-0.11957146575935854,-0.04196984019036023]",4.0,"[-0.12821649900889562,0.02729369985691701]",100.0,"[-0.07779635663418195,-0.036571517078440294]",100.0,"[-0.02830471647075451,-0.11076067062791953]",100.0,"[0.12442517565497374,-0.02858252312542779]",4.0,"[0.10082786852395391,-0.08160524916692245]",4.0,"[-0.008635811305555623,-0.007760010208538694]",100.0,"[-0.04751904510485028,-0.07039891946505417]",4.0,"[-0.04362099435192585,0.19252009216743607]",4.0,"[0.07600205604141798,-0.13716859849723492]",100.0,"[0.02,0.02]",170.4199,0.0,38.0,38.0,80.0,1.0,,,,,,,
,,,,,,,67c65eac81e48b55bcd1f70a,684429a65a83f276ecf558cc,2025-06-07_14h09.42.011,shape_ratio,2024.1.5,Win32,30.12048193,684250e4f00cb30b92d1fa88,,,,,,,,,,,170.421,170.9252,,,171.165,171.6249,right,0.438,,,,,,,,,0.5,,,,,,170.9253,171.1648,171.6251,"[0.07001937113885251,0.04426927629218029]",4.0,"[-0.14481519021813377,0.06684008653535504]",4.0,"[0.14078433785859412,-0.0895139273535776]",4.0,"[0.07463268195860354,-0.012660654632401826]",100.0,"[-0.0554681429933427,-0.14100520015804555]",100.0,"[-0.016510332059836465,-0.02618795899317188]",4.0,"[0.06315002254371765,-0.1407508228696132]",100.0,"[0.19412733716113748,-0.04321152096752618]",100.0,"[0.06437435774312249,-0.18128430337474027]",4.0,"[0.027625057728829224,-0.05557719061051985]",100.0,"[0.0837971125739162,0.08286492900395007]",100.0,"[0.11067689432963901,0.164070181898344]",4.0,"[-0.11263680435927198,-0.10696612102354211]",4.0,"[-0.1966248696141607,-0.02625494402404043]",4.0,"[-0.06494380184743058,0.07942659603896145]",4.0,"[0.1161575214719979,0.02332250051195108]",100.0,"[-0.11237612921094776,-0.027617712092321417]",100.0,"[0.0012296364672518363,-0.13405323333402058]",4.0,"[0.06203031501419857,0.1427798899369215]",4.0,"[0.14882140498748872,0.07849277436912216]",100.0,"[-0.0075150570186457155,-0.19844946374125785]",4.0,"[-0.14911969440080713,0.12347450576302972]",4.0,"[-0.04704925172575375,-0.08258873774332112]",4.0,"[-0.17920589136624393,-0.07825669384303906]",100.0,"[0.12494796727073804,-0.12904462860298918]",4.0,"[0.011286678914861233,0.11347751045931706]",100.0,"[-0.06327033793715911,0.014137219493937321]",100.0,"[0.015589193533212945,0.04819243834580286]",100.0,"[-0.06939249815642684,0.17169895415217967]",100.0,"[-0.10615456171640034,0.10168846245176638]",100.0,"[-0.1562594579267106,-0.11776434724969576]",100.0,"[0.12292872204619298,0.11240132886496264]",4.0,"[0.02,0.02]",172.7232,0.0,39.0,39.0,90.0,1.0,,,,,,,
,,,,,,,67c65eac81e48b55bcd1f70a,684429a65a83f276ecf558cc,2025-06-07_14h09.42.011,shape_ratio,2024.1.5,Win32,30.12048193,684250e4f00cb30b92d1fa88,,,,,,,,,,,172.7248,173.237,,,173.4793,174.0291,right,0.5319,,,,,,,,,0.4,,,,,,173.237,173.4793,174.0292,"[0.15569758548678275,0.019716511475446175]",4.0,"[0.059305304031565476,-0.17444872434967726]",100.0,"[0.15126123939844677,-0.11255364826399979]",100.0,"[0.02744474936110333,-0.06978585136033194]",100.0,"[-0.08369510857406591,-0.033255638893653836]",4.0,"[-0.058830325934385995,0.16170896309105387]",4.0,"[0.15879598222517857,-0.0391505645121117]",100.0,"[-0.09929492082131396,0.10786980912136922]",4.0,"[-0.06115073380345335,-0.08716440955547715]",100.0,"[0.06837998959679033,-0.0591771778638787]",4.0,"[0.03734523213419069,0.04106808367940094]",100.0,"[0.03831323739293801,-0.010573607409758937]",100.0,"[-0.16318758503683467,-0.05117779565646701]",4.0,"[-0.12134383145393633,0.0022563286498583418]",100.0,"[-0.08814767830128593,-0.12568634143806817]",100.0,"[-0.044829864475230276,0.10827474108010195]",4.0,"[-0.08682010979052346,0.05473608757168301]",4.0,"[0.1631138988578275,0.08449287174950139]",100.0,"[0.09211356580339027,-0.004319873623970256]",4.0,"[0.09135163772596687,0.1277577150465404]",4.0,"[0.004183035517616378,0.14699092093798427]",100.0,"[-0.023976091255995775,-0.14133877067685638]",4.0,"[-0.1335197433325397,-0.14738085813154575]",4.0,"[-0.043910601768421174,-0.019678625511307318]",4.0,"[-0.016740214284682642,-0.08385362552430964]",4.0,"[0.0006883269474560562,0.09057519010595463]",4.0,"[-0.1123845190744828,-0.06938176593890458]",4.0,"[0.05413941091745182,0.0884051274821726]",100.0,"[0.18260780438973329,-0.07520686784892935]",4.0,"[-0.14092664400066338,0.051408661801740724]",4.0,"[0.04894120422837144,0.17662157437205306]",4.0,"[0.04590529104684887,-0.11213301348574954]",100.0,"[0.02,0.02]",175.1098,0.0,40.0,40.0,171.0,1.0,,,,,,,
,,,,,,,67c65eac81e48b55bcd1f70a,684429a65a83f276ecf558cc,2025-06-07_14h09.42.011,shape_ratio,2024.1.5,Win32,30.12048193,684250e4f00cb30b92d1fa88,,,,,,,,,,,175.1106,175.6043,,,175.8581,176.3663,right,0.4915,,,,,,,,,0.1,,,,,,175.6044,175.8581,176.3663,"[-0.054494784140439616,-0.10949676748816677]",4.0,"[-0.10730595262395565,-0.12735912847851383]",4.0,"[0.1249005078765616,0.12451780799233293]",4.0,"[0.09057260439843758,-0.1158825320847341]",4.0,"[-0.18157657477159417,0.013524838101442347]",4.0,"[0.009811700728742793,0.04366290871353696]",4.0,"[-0.0038803714129306004,0.1991877635754413]",100.0,"[0.03038659334321181,-0.13188867527938622]",4.0,"[-0.14420369917882359,-0.0780028939297946]",4.0,"[0.11287337692577203,-0.038698931676987236]",4.0,"[-0.11088737790907222,0.008347739855511457]",4.0,"[0.15963827275430353,-0.09005445734474381]",4.0,"[-0.028059891312648612,0.09858178747489559]",4.0,"[0.028592893802181666,-0.0016379493204990525]",4.0,"[0.1710949466921801,-0.03841594703521602]",4.0,"[-0.15990907137570998,0.12004650606085013]",4.0,"[0.0602272121012274,-0.03838276559748303]",4.0,"[-0.1039465616572249,0.09246935619148981]",4.0,"[0.02015846634839939,-0.17792562201085163]",4.0,"[-0.030781311161842462,-0.16619562653075298]",100.0,"[-0.014355927657167944,-0.03957514298947484]",100.0,"[0.05536326062029347,0.11869884688731223]",4.0,"[-0.06201864270815514,-0.03730230831358171]",4.0,"[-0.0643270360487651,0.03229723020955274]",4.0,"[0.04060446536460935,0.170358607492885]",4.0,"[-0.1471089990322895,-0.016451803384425395]",4.0,"[0.13343934699637358,-0.12492630830768757]",4.0,"[-0.004856432693251682,-0.08597747161192783]",4.0,"[0.17212377554533745,0.04203509694714563]",4.0,"[-0.05657866564868644,0.14805173445248473]",4.0,"[0.10591988518232888,0.16361237550882066]",4.0,"[-0.14879806386497504,0.0552975369251712]",4.0,"[0.02,0.02]",177.4726,0.0,41.0,41.0,209.0,1.0,,,,,,,
,,,,,,,67c65eac81e48b55bcd1f70a,684429a65a83f276ecf558cc,2025-06-07_14h09.42.011,shape_ratio,2024.1.5,Win32,30.12048193,684250e4f00cb30b92d1fa88,,,,,,,,,,,177.4741,177.9736,,,178.2265,178.749,right,0.5078,,,,,,,,,0.1,,,,,,177.9736,178.2264,178.7491,"[-0.007608378713841881,-0.09036772450215921]",4.0,"[-0.0711669624490406,-0.13725615944536235]",4.0,"[0.030439627670504,-0.015738145426434]",100.0,"[0.1471317584394725,-0.07183946879434366]",4.0,"[-0.02321894588127139,0.03835757665702532]",4.0,"[0.02638749868066643,0.07151761265907393]",4.0,"[-0.15977540973750895,-0.08574877948674554]",4.0,"[-0.11129084967171382,-0.15089048721249915]",4.0,"[-0.09126275686083195,0.017089208520435755]",4.0,"[-0.08487786047054029,0.13792368240949704]",4.0,"[-0.1928566936196009,-0.03683123044691202]",4.0,"[-0.05771696704600215,0.10026162596565648]",4.0,"[0.09781659486862118,-0.08080009574817747]",4.0,"[0.13304631447472737,0.03276419926623659]",4.0,"[-0.14603297717876787,0.017622033523904467]",100.0,"[-0.001232661662258936,-0.1740269124055621]",4.0,"[-0.11303327607899322,0.06659381726552333]",4.0,"[0.061325280299564106,0.16576122131910037]",4.0,"[0.16656271504997253,0.09689201365720744]",4.0,"[0.000910112450273681,0.13003670101901935]",4.0,"[0.04936919185700813,-0.11742127074715195]",4.0,"[0.19204147302224905,-0.05420596729637916]",4.0,"[-0.06822424851081747,-0.01753163672161922]",4.0,"[0.07699707220834925,0.08608520214046496]",4.0,"[0.07128844990672956,-0.010401571584150301]",4.0,"[0.12488133322571997,-0.11161855218451483]",4.0,"[0.1921466174048338,0.016479409269070665]",4.0,"[-0.05439105853942205,0.17300595982398081]",100.0,"[-0.12371025133672835,0.12384606824301356]",4.0,"[0.03490966235624362,-0.08003997582384946]",4.0,"[-0.17652858887664932,0.06504816686777744]",4.0,"[-0.12484584785240492,-0.06435746087420298]",4.0,"[0.02,0.02]",179.8536,0.0,42.0,42.0,205.0,1.0,,,,,,,
,,,,,,,67c65eac81e48b55bcd1f70a,684429a65a83f276ecf558cc,2025-06-07_14h09.42.011,shape_ratio,2024.1.5,Win32,30.12048193,684250e4f00cb30b92d1fa88,,,,,,,,,,,179.855,180.355,,,180.6063,182.0008,left,1.38,,,,,,,,,0.1,,,,,,180.355,180.6062,182.0009,"[-0.15872725243801397,0.08933166972272037]",4.0,"[-0.17676546854875458,0.021347648010798075]",4.0,"[-0.06683983402769252,-0.027757714109507427]",4.0,"[0.06517369687892038,0.17938386962110914]",4.0,"[-0.062060936025907905,0.0801544630293665]",4.0,"[-0.054251469519119605,-0.16849739733298022]",4.0,"[0.049387966584030225,0.033985694547467075]",4.0,"[-0.013134640585433361,0.14161376475263865]",4.0,"[0.08429071784802077,-0.08165799370692232]",4.0,"[-0.06782685801029081,0.1756811538288258]",4.0,"[-0.09404199175291901,-0.05995729734049587]",4.0,"[0.009478508708540055,-0.016963764147517088]",4.0,"[0.028637940995007487,0.10090866880419481]",100.0,"[-0.13966850009017953,0.04425669718932827]",4.0,"[0.12138762456956946,0.12651649159177744]",4.0,"[-0.10831966626459186,-0.10822497045155373]",4.0,"[-0.03381938762734701,0.025546693644523125]",4.0,"[0.0717226670135187,-0.12108198130740432]",100.0,"[0.15680248083032972,-0.12112743115963613]",4.0,"[-0.013452399657698084,-0.13369523838658973]",4.0,"[0.1766600485115273,-0.05742661084355845]",4.0,"[0.053224968114368686,-0.03191332638579645]",4.0,"[0.09253956152876182,0.03210016887636896]",4.0,"[0.18975867895637172,0.011047954357670928]",4.0,"[0.02219543555443845,-0.16648872508372964]",4.0,"[0.12882888322181119,-0.045215002131726675]",4.0,"[-0.19354277698383535,-0.016492371835958745]",4.0,"[-0.11361064920803007,-0.023242893276790078]",4.0,"[0.11690577819217719,-0.13492284904373456]",4.0,"[-0.09569835446428317,0.13153354783348473]",100.0,"[-0.0927487550864172,-0.15566863356547167]",4.0,"[-0.15486867102639842,-0.09414221684706497]",4.0,"[0.02,0.02]",183.1048,0.0,43.0,43.0,201.0,1.0,,,,,,,
,,,,,,,67c65eac81e48b55bcd1f70a,684429a65a83f276ecf558cc,2025-06-07_14h09.42.011,shape_ratio,2024.1.5,Win32,30.12048193,684250e4f00cb30b92d1fa88,,,,,,,,,,,183.1063,183.6219,,,183.7841,185.2842,,,,,,,,,,,0.9,,,,,,183.622,183.784,185.2843,"[0.010768042778434708,-0.038379596127770116]",100.0,"[-0.18510559330242854,0.04948795584637905]",100.0,"[0.18736701059528285,0.016047794157058516]",100.0,"[0.09589783833565642,-0.1460329671407046]",100.0,"[-0.04906845728502036,-0.12914339047239562]",100.0,"[0.039801315244098474,0.13692176026722017]",100.0,"[0.028954424602560706,-0.18052538789009673]",100.0,"[0.07309077093637888,-0.10412057355175386]",100.0,"[-0.16194331399911713,0.08842347975423727]",100.0,"[-0.08077013066050197,0.01998481495848011]",100.0,"[0.14381113873658538,0.04042330637742328]",100.0,"[0.15952052231412286,-0.05532542520681675]",100.0,"[-0.04410316841791274,0.11240047139350222]",100.0,"[0.10652838845566966,0.05983625322767133]",100.0,"[-0.09258667746063115,0.08482323943668904]",100.0,"[0.02596327624731065,0.0407654302306598]",100.0,"[-0.032786548616747256,-0.08878535330552713]",100.0,"[-0.005781471684226493,0.08119040483168569]",4.0,"[0.01599347098367868,0.18080267300939562]",100.0,"[0.14155342104876947,-0.0965541341911137]",100.0,"[0.15645445355129411,-0.01480175708588482]",100.0,"[-0.01921541603872241,-0.17524267606697758]",100.0,"[-0.06766231128754085,0.16928282047400184]",100.0,"[0.1258542656737527,0.12971679455291824]",100.0,"[-0.16742592289538605,-0.07690608173032275]",100.0,"[-0.033313434901825346,-0.047618882265440754]",100.0,"[-0.1410170095932821,-0.14111779412113892]",4.0,"[0.15623907465712705,0.07998695852658347]",100.0,"[-0.1386751840339246,0.04015719865431919]",4.0,"[0.10792801078307686,-0.027749899488888154]",100.0,"[0.051592799639213774,-0.056470529578296985]",100.0,"[-0.12528035996322703,0.1398082979605396]",100.0,"[0.02,0.02]",186.2671,0.0,44.0,44.0,11.0,1.0,,,,,,,
,,,,,,,67c65eac81e48b55bcd1f70a,684429a65a83f276ecf558cc,2025-06-07_14h09.42.011,shape_ratio,2024.1.5,Win32,30.12048193,684250e4f00cb30b92d1fa88,,,,,,,,,,,186.268,186.7728,,,187.0231,187.3262,left,0.2876,,,,,,,,,0.4,,,,,,186.7729,187.023,187.3262,"[-0.1577097888396574,0.11305546700814155]",4.0,"[-0.06971325280874496,0.1813601404662795]",100.0,"[0.07133010022423077,-0.017718649881059423]",4.0,"[0.16048264301204693,0.054086656000147004]",100.0,"[0.0846885766993145,0.11906552102849875]",100.0,"[-0.05619029130766845,0.043477420921048573]",4.0,"[-0.099198317663898,-0.14712922453977392]",4.0,"[0.11979980648708465,0.012902083927055172]",100.0,"[-0.1337780989648081,0.05568385005904995]",100.0,"[0.09658564542393161,0.15849875324953974]",4.0,"[-0.03212186998703251,-0.16611726034670063]",100.0,"[-0.16142868152404438,-0.10787925583930755]",4.0,"[0.02545745313345934,-0.12173484013063066]",100.0,"[-0.09543477117000318,-0.08152380484576857]",4.0,"[-0.006464922305804917,-0.0008715679646803281]",100.0,"[0.05608151436573522,0.06282181614067961]",4.0,"[0.036124922895527316,-0.060797417451204025]",4.0,"[0.16294827228281117,-0.11455497131145045]",4.0,"[0.13847659906860743,-0.0651149606175874]",100.0,"[0.15903897595287422,0.09798805346444113]",4.0,"[0.17128608442128818,0.006207680657532298]",100.0,"[0.18043052280350888,-0.06671725287158424]",4.0,"[-0.09367431044076685,0.015648433064552533]",4.0,"[-0.08120051461452926,0.1386428960149616]",100.0,"[0.037353803939300254,0.11280832744387101]",4.0,"[-0.18899215422429738,0.005953969206045016]",4.0,"[0.05105568918939325,-0.1575517541776214]",4.0,"[-0.09382767266184701,0.0772518749818989]",100.0,"[0.11259706087615623,-0.1004750710430737]",4.0,"[-0.03117594966829623,-0.0872535972549325]",4.0,"[0.09252533674220155,-0.14256080575790278]",100.0,"[-0.13339346968563368,0.004178768625351229]",4.0,"[0.02,0.02]",188.404,0.0,45.0,45.0,169.0,1.0,,,,,,,
,,,,,,,67c65eac81e48b55bcd1f70a,684429a65a83f276ecf558cc,2025-06-07_14h09.42.011,shape_ratio,2024.1.5,Win32,30.12048193,684250e4f00cb30b92d1fa88,,,,,,,,,,,188.4056,188.8951,,,189.1473,190.4528,right,1.2823,,,,,,,,,0.55,,,,,,188.8952,189.1472,190.4528,"[-0.10916860187079226,0.01964580222292575]",4.0,"[0.1461030377116198,-0.017287170368819705]",100.0,"[-0.15036073682142415,0.12578888158474752]",4.0,"[-0.0787244945765982,0.14958533380909242]",4.0,"[-0.044726250958523485,-0.11655264991718163]",4.0,"[0.03575379990661169,-0.15311861897050877]",4.0,"[0.11886857803860915,0.052835516040487446]",100.0,"[0.06396555068865745,0.06650843497679164]",100.0,"[-0.055105011507203885,0.03386643423235748]",100.0,"[0.09484349404297103,0.007922683053171044]",4.0,"[0.1479843594792199,-0.10977205401249471]",4.0,"[0.15813965178082254,0.08468421157704016]",4.0,"[-0.07996798157923173,0.09497449624947746]",4.0,"[0.1016866817842056,-0.06042867532424162]",100.0,"[-0.03528024601587142,0.1601513746140563]",100.0,"[-0.1230300977026192,-0.11710355008147288]",4.0,"[0.0370911689624892,-0.04573622102529503]",100.0,"[-0.061573208357105995,-0.03288824297674494]",100.0,"[-0.0014566551591626699,-0.019283533403237543]",100.0,"[-0.0824236644865606,-0.16038459473329084]",100.0,"[0.03563229859331102,0.19319614831332996]",100.0,"[0.07287810449149364,0.13563937281615915]",100.0,"[0.09905680959731059,0.10089683050488776]",4.0,"[-0.14497683718946738,-0.044125174716703096]",100.0,"[-0.1900800631588462,-0.02576085244325606]",100.0,"[-0.16963369202288947,-0.09997520245729026]",100.0,"[0.0929225497254421,-0.1471594755081432]",4.0,"[0.026907739071238845,0.08367424923684633]",4.0,"[0.004621112554810871,0.04007796504224249]",100.0,"[0.0010495931492880723,-0.12535236861727372]",4.0,"[0.18909567530809088,-0.03899758432484712]",100.0,"[-0.1192553590689627,0.06897509310631533]",100.0,"[0.02,0.02]",191.5538,0.0,46.0,46.0,64.0,1.0,,,,,,,
,,,,,,,67c65eac81e48b55bcd1f70a,684429a65a83f276ecf558cc,2025-06-07_14h09.42.011,shape_ratio,2024.1.5,Win32,30.12048193,684250e4f00cb30b92d1fa88,,,,,,,,,,,191.5547,192.0542,,,192.3086,192.706,right,0.3791,,,,,,,,,0.4,,,,,,192.0543,192.3084,192.7061,"[-0.1713130134935902,0.0036006127739788246]",4.0,"[-0.05505525352512544,0.01830619372568944]",4.0,"[0.008016097396263529,-0.07422377487635169]",100.0,"[0.11931823168243835,0.15789732065589546]",4.0,"[-0.06698767394672415,-0.060137570521073866]",4.0,"[-0.128388820618264,0.07017201143406154]",100.0,"[0.16287196098001192,0.014523780108818283]",4.0,"[0.16252625422128955,0.0680040183830019]",4.0,"[0.055981724991747625,0.11026305356030204]",4.0,"[0.11422045077028604,-0.1499397137949378]",4.0,"[0.10357682879048612,-0.096351330887797]",4.0,"[0.11285623161868398,0.04954884461654508]",4.0,"[0.009059701113023592,-0.17456806083806745]",4.0,"[-0.08854444908642625,-0.1785400027134208]",4.0,"[-0.1180109541487168,0.014474457616706767]",100.0,"[-0.016546636073250822,0.09510647799678612]",100.0,"[-0.14236451044783716,-0.13404884432911643]",100.0,"[-0.06727331619927025,0.14166209776712094]",4.0,"[0.17875173930680557,-0.07770500245201319]",100.0,"[-0.023493397453960244,0.14107745604016178]",100.0,"[-0.12384316424414833,-0.030417259179675506]",4.0,"[0.024124972272248694,0.06544113927273842]",4.0,"[-0.021539345977477614,0.05097997425429151]",100.0,"[0.05249746233885364,-0.04682194156828987]",4.0,"[0.021995791975570455,0.17852656864874497]",100.0,"[-0.01968484973910898,0.18173622357473415]",4.0,"[0.13126200389283926,-0.03275053772226769]",100.0,"[0.1491679267521399,-0.10970783488132126]",100.0,"[-0.13091744137625627,0.11508937670122195]",4.0,"[0.09110266948095572,0.009475156036061331]",100.0,"[-0.12270173690942518,-0.0941243409891114]",100.0,"[0.007902881000036109,-0.009458705696968394]",4.0,"[0.02,0.02]",193.8203,0.0,47.0,47.0,168.0,1.0,,,,,,,
,,,,,,,67c65eac81e48b55bcd1f70a,684429a65a83f276ecf558cc,2025-06-07_14h09.42.011,shape_ratio,2024.1.5,Win32,30.12048193,684250e4f00cb30b92d1fa88,,,,,,,,,,,193.8216,194.3123,,,194.5517,194.6953,right,0.1241,,,,,,,,,0.9,,,,,,194.3124,194.5516,194.6954,"[-0.09058991158961162,-0.023595887453960154]",4.0,"[0.07927976742456923,0.1538024239636691]",100.0,"[0.021934919885286116,-0.06739764445441722]",100.0,"[0.12380208246898675,-0.07432836683614]",100.0,"[0.1718827620981693,0.0963285973106456]",100.0,"[-0.08726312561857784,0.1160720426207261]",100.0,"[-0.10128317258982504,0.16156749123464592]",100.0,"[-0.137843966099956,-0.09573159864451013]",4.0,"[0.026850665250296626,0.09214101848994638]",100.0,"[0.001424911621141324,-0.1758139617211005]",100.0,"[-0.12273837984065755,0.0009206436929753905]",100.0,"[0.1753230070107285,0.01726074581453404]",100.0,"[-0.05755736532689293,0.1698095009996625]",100.0,"[0.1341300617895142,0.05416689415107927]",100.0,"[-0.052267833505273475,-0.0015641941817656426]",100.0,"[0.007085111042856787,0.15877079626582985]",100.0,"[0.13655110928941774,-0.03256882006049942]",100.0,"[-0.004635013290176133,0.034387270495338344]",100.0,"[0.18507319851710105,-0.059160912507377955]",100.0,"[0.06916498296340731,-0.17423067451588248]",100.0,"[0.08173355173058626,0.06396698915384182]",100.0,"[-0.016497714664304403,0.10158956892027703]",100.0,"[-0.10279521518747523,-0.16512269819802788]",100.0,"[-0.03988373429864918,-0.10923245548416863]",100.0,"[-0.1495311352123948,-0.042819642015688525]",100.0,"[-0.08655733137961305,-0.06800733194208501]",100.0,"[0.07375744286876318,0.11236639191981089]",100.0,"[0.0006496927035034382,-0.10996782282402127]",100.0,"[0.12871444349473485,-0.14243580854360896]",100.0,"[-0.09140163270127445,-0.11484804217841313]",4.0,"[0.044702374869068195,-0.1223419811466868]",100.0,"[0.1322832801901563,0.011309333049225217]",100.0,"[0.02,0.02]",195.7843,0.0,48.0,48.0,1.0,1.0,,,,,,,
,,,,,,,67c65eac81e48b55bcd1f70a,684429a65a83f276ecf558cc,2025-06-07_14h09.42.011,shape_ratio,2024.1.5,Win32,30.12048193,684250e4f00cb30b92d1fa88,,,,,,,,,,,195.7859,196.2902,,,196.5292,196.764,left,0.2161,,,,,,,,,0.5,,,,,,196.2903,196.5291,196.7641,"[-0.06570826827534403,-0.07391054483695743]",4.0,"[-0.016718819591537423,0.14234621609413545]",4.0,"[-0.01999535747609454,0.061299067084446136]",4.0,"[-0.17784536565302111,0.008420547403742549]",100.0,"[0.16509989079699547,-0.030791278535965926]",4.0,"[0.06511653097226211,-0.18513993374276663]",100.0,"[-0.08502480136017868,-0.0023595002451497673]",100.0,"[0.16197709069181965,-0.10846167956554037]",4.0,"[0.0428082903587616,-0.15055361943407003]",100.0,"[-0.14679593429846324,-0.12763969037519945]",100.0,"[-0.026170888836522126,-0.043047763499126736]",100.0,"[-0.0937843768747293,0.0504519039497634]",100.0,"[-0.029402219134572683,-0.15380043927526782]",4.0,"[-0.13804511022874702,0.0761748784421279]",4.0,"[0.04969810421286882,-0.05729388718116213]",100.0,"[-0.1025329675689664,-0.04764548154713952]",4.0,"[-0.06831546053272979,0.0865786197602787]",100.0,"[0.028206698955063687,0.11962859051569597]",100.0,"[0.125729466610774,0.08303785434298434]",4.0,"[0.08655927670151341,-0.07445321048132135]",4.0,"[0.13806138522762637,0.007947924633373193]",4.0,"[0.023000949296811426,0.16356057498421672]",100.0,"[0.022921166397476652,0.04802634603864152]",4.0,"[-0.01923481682791057,0.1983033439820929]",100.0,"[0.08659075573807962,0.04879811303308561]",4.0,"[0.18966811776792764,0.03023700570231113]",4.0,"[-0.06887378668571363,0.1704607325779734]",4.0,"[-0.13113042462890445,0.035293347172361836]",100.0,"[0.08528331566742092,0.1584614769269042]",100.0,"[-0.1790753902937235,0.0552111139506721]",100.0,"[-0.11580839060025915,0.14472275568213386]",100.0,"[-0.015058226596388473,0.008635808611335546]",4.0,"[0.02,0.02]",197.8716,0.0,49.0,49.0,96.0,1.0,,,,,,,
