right,left,explain.started,explain.stopped,key_resp_3.keys,key_resp_3.rt,key_resp_3.duration,participant,session,date,expName,psychopyVersion,OS,frameRate,study_id,explain_2.started,explain_2.stopped,key_resp_4.keys,key_resp_4.rt,key_resp_4.duration,explain_3.started,explain_3.stopped,key_resp_5.keys,key_resp_5.rt,key_resp_5.duration,fixation.started,fixation.stopped,practice.started,practice.stopped,response.started,response.stopped,key_resp.keys,key_resp.rt,key_resp.duration,feedback.started,feedback.stopped,trials_2.thisRepN,trials_2.thisTrialN,trials_2.thisN,trials_2.thisIndex,trials_2.ran,dot_ratio,explain_4.started,explain_4.stopped,key_resp_6.keys,key_resp_6.rt,key_resp_6.duration,dotDisplay.started,dotDisplay.stopped,ITI.started,polygon_1.pos,polygon_1.edges,polygon_2.pos,polygon_2.edges,polygon_3.pos,polygon_3.edges,polygon_4.pos,polygon_4.edges,polygon_5.pos,polygon_5.edges,polygon_6.pos,polygon_6.edges,polygon_7.pos,polygon_7.edges,polygon_8.pos,polygon_8.edges,polygon_9.pos,polygon_9.edges,polygon_10.pos,polygon_10.edges,polygon_11.pos,polygon_11.edges,polygon_12.pos,polygon_12.edges,polygon_13.pos,polygon_13.edges,polygon_14.pos,polygon_14.edges,polygon_15.pos,polygon_15.edges,polygon_16.pos,polygon_16.edges,polygon_17.pos,polygon_17.edges,polygon_18.pos,polygon_18.edges,polygon_19.pos,polygon_19.edges,polygon_20.pos,polygon_20.edges,polygon_21.pos,polygon_21.edges,polygon_22.pos,polygon_22.edges,polygon_23.pos,polygon_23.edges,polygon_24.pos,polygon_24.edges,polygon_25.pos,polygon_25.edges,polygon_26.pos,polygon_26.edges,polygon_27.pos,polygon_27.edges,polygon_28.pos,polygon_28.edges,polygon_29.pos,polygon_29.edges,polygon_30.pos,polygon_30.edges,polygon_31.pos,polygon_31.edges,polygon_32.pos,polygon_32.edges,dot_size,ITI.stopped,trials.thisRepN,trials.thisTrialN,trials.thisN,trials.thisIndex,trials.ran,break_2.started,break_2.stopped,trials_3.thisRepN,trials_3.thisTrialN,trials_3.thisN,trials_3.thisIndex,trials_3.ran
subject chose diamond,subject chose dot,0.0005,46.3111,space,31.3025,,67c712364ec9ad3f92b3a339,684429a03fa3be5ac784e29c,2025-06-07_14h02.35.372,shape_ratio,2024.1.5,Win32,59.88023952,684250e4f00cb30b92d1fa88,,,,,,,,,,,,,,,,,,,,,,,,,,,,,,,,,,,,,,,,,,,,,,,,,,,,,,,,,,,,,,,,,,,,,,,,,,,,,,,,,,,,,,,,,,,,,,,,,,,,,,,,,,,,,,,,,
,,,,,,,67c712364ec9ad3f92b3a339,684429a03fa3be5ac784e29c,2025-06-07_14h02.35.372,shape_ratio,2024.1.5,Win32,59.88023952,684250e4f00cb30b92d1fa88,46.3115,143.257,space,66.9327,,,,,,,,,,,,,,,,,,,,,,,,,,,,,,,,,,,,,,,,,,,,,,,,,,,,,,,,,,,,,,,,,,,,,,,,,,,,,,,,,,,,,,,,,,,,,,,,,,,,,,,,,,,,,
,,,,,,,67c712364ec9ad3f92b3a339,684429a03fa3be5ac784e29c,2025-06-07_14h02.35.372,shape_ratio,2024.1.5,Win32,59.88023952,684250e4f00cb30b92d1fa88,,,,,,143.2574,157.0806,space,10.8109,,,,,,,,,,,,,,,,,,,,,,,,,,,,,,,,,,,,,,,,,,,,,,,,,,,,,,,,,,,,,,,,,,,,,,,,,,,,,,,,,,,,,,,,,,,,,,,,,,,,,,,,
,,,,,,,67c712364ec9ad3f92b3a339,684429a03fa3be5ac784e29c,2025-06-07_14h02.35.372,shape_ratio,2024.1.5,Win32,59.88023952,684250e4f00cb30b92d1fa88,,,,,,,,,,,157.1244,157.5976,157.5985,157.8487,157.8491,159.1983,right,1.3104,,159.1987,160.2986,0.0,0.0,0.0,0.0,1.0,0.2,,,,,,,,,,,,,,,,,,,,,,,,,,,,,,,,,,,,,,,,,,,,,,,,,,,,,,,,,,,,,,,,,,,,,,,,,,,,,,,,,,,,,,
,,,,,,,67c712364ec9ad3f92b3a339,684429a03fa3be5ac784e29c,2025-06-07_14h02.35.372,shape_ratio,2024.1.5,Win32,59.88023952,684250e4f00cb30b92d1fa88,,,,,,,,,,,160.3001,160.7986,160.7988,161.0502,161.0503,161.7469,left,0.6855,,161.747,162.8498,0.0,1.0,1.0,1.0,1.0,0.8,,,,,,,,,,,,,,,,,,,,,,,,,,,,,,,,,,,,,,,,,,,,,,,,,,,,,,,,,,,,,,,,,,,,,,,,,,,,,,,,,,,,,,
,,,,,,,67c712364ec9ad3f92b3a339,684429a03fa3be5ac784e29c,2025-06-07_14h02.35.372,shape_ratio,2024.1.5,Win32,59.88023952,684250e4f00cb30b92d1fa88,,,,,,,,,,,,,,,,,,,,,,,,,,,,162.8509,174.324,space,8.4675,,,,,,,,,,,,,,,,,,,,,,,,,,,,,,,,,,,,,,,,,,,,,,,,,,,,,,,,,,,,,,,,,,,,,,,,,,,,,,,,,,
,,,,,,,67c712364ec9ad3f92b3a339,684429a03fa3be5ac784e29c,2025-06-07_14h02.35.372,shape_ratio,2024.1.5,Win32,59.88023952,684250e4f00cb30b92d1fa88,,,,,,,,,,,174.3581,174.8258,,,175.0805,175.7241,right,0.6261,,,,,,,,,0.45,,,,,,174.8266,175.0804,175.7252,"[-0.13220328186204774,0.059566324571895674]",100.0,"[0.03858783520589851,-0.10859165095904605]",100.0,"[-0.13288088955269595,-0.012986859658582012]",100.0,"[0.19650186817674453,0.030720019671597813]",100.0,"[-0.07167283943360832,-0.03821540570982673]",4.0,"[0.08153419829661154,0.07553982589729172]",4.0,"[-0.022728143360389363,0.08670819513141251]",100.0,"[-0.045507707430931126,0.010801388446859182]",4.0,"[-0.016499174944302114,-0.04327534022954318]",100.0,"[0.03750544056658343,0.05351268794575672]",100.0,"[-0.18086671852534886,-0.03865088285906238]",4.0,"[0.10335415260660445,-0.13246455991690917]",4.0,"[-0.004697303744085354,0.1938795463940856]",100.0,"[-0.19905780567322498,0.014313167762876514]",4.0,"[-0.05480197834500577,0.13162498222332833]",4.0,"[0.057681032988203255,0.14923165885941742]",4.0,"[0.13070044578370624,0.12436085033059657]",4.0,"[0.1543387295080724,0.07039127281251203]",100.0,"[-0.002587975087433983,0.14717105569020833]",4.0,"[-0.05009833407492936,-0.07431023772619035]",100.0,"[-0.08026131434214304,-0.17610104950321812]",4.0,"[0.18978339036693442,-0.04591095771313486]",100.0,"[-0.13871559601378733,0.11005199493994279]",4.0,"[0.011814072582466922,-0.014382753075749774]",4.0,"[-0.1805275193083797,0.055108646652088866]",100.0,"[-0.009120340796130985,-0.14577521680696162]",4.0,"[0.08031451571925358,-0.06786518244650173]",4.0,"[0.1306476721359024,-0.043479250623115466]",100.0,"[0.021753791065193456,0.09615079229897323]",4.0,"[-0.11499355400127914,-0.09023773372127183]",100.0,"[0.061422286037523324,-0.01829341677861656]",4.0,"[-0.10368678600033283,0.13300326158416065]",4.0,"[0.02,0.02]",176.8134,0.0,0.0,0.0,120.0,1.0,,,,,,,
,,,,,,,67c712364ec9ad3f92b3a339,684429a03fa3be5ac784e29c,2025-06-07_14h02.35.372,shape_ratio,2024.1.5,Win32,59.88023952,684250e4f00cb30b92d1fa88,,,,,,,,,,,176.814,177.3085,,,177.5592,178.2918,left,0.721,,,,,,,,,0.55,,,,,,177.3086,177.5592,178.2919,"[-0.06523284750064297,0.10134153796197573]",4.0,"[0.16326007706351345,0.026067962046391224]",100.0,"[0.16374852214965982,-0.10050586756055763]",100.0,"[0.043523491041583574,-0.07749203161274394]",4.0,"[0.10538539833742878,0.029274195399648588]",4.0,"[0.11733239992405048,0.13097039340657737]",100.0,"[0.14552991828295544,0.0984293593858759]",4.0,"[0.014780287837375058,0.028703027408558558]",100.0,"[0.10238736662763302,-0.16180230622527805]",4.0,"[0.010551044257101726,-0.18161731842574835]",100.0,"[0.15963420971630068,-0.052575001302558766]",100.0,"[-0.09671419052422717,0.033599686764380715]",4.0,"[0.024204211494479502,0.17807638794079586]",100.0,"[-0.04346115745464925,-0.04046299387071079]",4.0,"[-0.09254769563591934,-0.03802580400546019]",100.0,"[-0.10146983228330576,0.15519155477920202]",100.0,"[-0.1366243856103068,0.08167882953213104]",4.0,"[-0.12272099663844199,-0.07498762381551674]",100.0,"[0.010692516440036017,0.12254354057893994]",100.0,"[0.010307438570013462,0.07073674391780621]",4.0,"[-0.13125204864700618,-0.14391090888123995]",100.0,"[0.10316201251413121,-0.01968505336895707]",4.0,"[0.02025191673043539,-0.11477207609173554]",100.0,"[-0.04509672394215159,-0.15957734374096422]",100.0,"[0.04987368017420517,-0.015103102296142689]",100.0,"[-0.002309404455284441,-0.03012599501653539]",100.0,"[0.0722349608299431,0.1097481087254131]",100.0,"[-0.08461804497832288,-0.11163939407112722]",4.0,"[-0.036228718506742454,0.010732219193413921]",4.0,"[0.12283521201766645,-0.10166341543219984]",4.0,"[-0.029466407063163072,0.14875622481564568]",100.0,"[-0.0444428550614777,-0.08429950879948479]",4.0,"[0.02,0.02]",179.3926,0.0,1.0,1.0,82.0,1.0,,,,,,,
,,,,,,,67c712364ec9ad3f92b3a339,684429a03fa3be5ac784e29c,2025-06-07_14h02.35.372,shape_ratio,2024.1.5,Win32,59.88023952,684250e4f00cb30b92d1fa88,,,,,,,,,,,179.3936,179.8931,,,180.1497,180.6164,right,0.4507,,,,,,,,,0.4,,,,,,179.8931,180.1497,180.6165,"[-0.01798400916896437,0.04860144643728796]",4.0,"[-0.09855433201804796,-0.14502732797370305]",4.0,"[-0.035273416894823974,0.1792375605534583]",4.0,"[-0.08977491520271204,-0.035101586605344334]",100.0,"[-0.07530674099332432,0.13421316524054705]",100.0,"[-0.03500549420317897,0.0851885022486111]",4.0,"[-0.04272170638771589,-0.01128214589208975]",4.0,"[0.15896944644060573,0.03952482808966462]",4.0,"[0.04942476049707748,0.0667758059260888]",4.0,"[0.05819356136049515,-0.05248192736582491]",100.0,"[-0.19452826048205318,0.044558715541610075]",4.0,"[-0.1194733694657805,-0.10785156104953465]",4.0,"[0.08439168117655818,0.03271656742059093]",4.0,"[0.15287022963650043,-0.06477619481701558]",4.0,"[-0.08697830979094084,0.012539319233456666]",4.0,"[-0.14594411771379764,0.026034253766273083]",100.0,"[0.13908486113553545,-0.021998684384196547]",100.0,"[-0.17099929961825383,0.07969436506093229]",100.0,"[-0.030181398542135852,-0.07933087649620965]",100.0,"[0.06774234460323718,-0.15160955266683068]",4.0,"[-0.10168768272892184,0.06494810105332047]",100.0,"[0.10609346541354003,0.12222455769516338]",100.0,"[0.1942249408494663,-0.03149431895773529]",4.0,"[0.0642101798393201,0.16366845691462648]",100.0,"[-0.1455098652563801,-0.056696166228400915]",100.0,"[-0.05897130227568047,0.04743148217271481]",4.0,"[0.1314110987866764,-0.1021651378366291]",4.0,"[0.019599368843518566,-0.0800723631700676]",4.0,"[-0.03202817120623766,-0.12076497128064478]",100.0,"[0.02983653050381537,-0.16683666364687547]",4.0,"[0.15441370320671993,0.10020547373550548]",4.0,"[-0.04976694732923785,-0.18145989807931745]",100.0,"[0.02,0.02]",181.7107,0.0,2.0,2.0,161.0,1.0,,,,,,,
,,,,,,,67c712364ec9ad3f92b3a339,684429a03fa3be5ac784e29c,2025-06-07_14h02.35.372,shape_ratio,2024.1.5,Win32,59.88023952,684250e4f00cb30b92d1fa88,,,,,,,,,,,181.7118,182.2003,,,182.4454,183.2946,left,0.8395,,,,,,,,,0.6,,,,,,182.2003,182.4453,183.2947,"[0.017689923747117628,-0.17792070680144656]",100.0,"[-0.02263638652530125,0.005944497863817134]",100.0,"[-0.15113174690479467,-0.12952134065722418]",100.0,"[-0.08165960246089854,-0.09107588923942649]",100.0,"[0.059233355594568785,-0.13222003045011557]",100.0,"[-0.08298688190893339,0.04938964494557347]",4.0,"[-0.021271061066801482,-0.040064542302676906]",4.0,"[-0.11351454185652865,-0.02000726140785845]",4.0,"[-0.15188082595656208,0.12905854150226173]",100.0,"[-0.062228424076679986,0.16323340880273451]",4.0,"[0.034757400279918686,0.012409133545889515]",100.0,"[0.14959708873064825,-0.015239308100398188]",100.0,"[0.1587355578351019,-0.07716313813924079]",4.0,"[-0.11034929440962088,0.12523285436248535]",100.0,"[-0.045272479347156086,-0.1774868089747609]",100.0,"[0.06525250527593644,0.1236375467105256]",4.0,"[0.11637726347473863,0.039990816591843864]",4.0,"[-0.18744729001002575,-0.056043937319951845]",4.0,"[0.1956659810554311,-0.004099467346046013]",100.0,"[0.10180604305379576,-0.07644730861944772]",4.0,"[-0.15139876974163716,-0.03820793354749704]",100.0,"[0.07482456177811052,-0.17771798545431466]",100.0,"[-0.1369962289873265,0.05305119374535082]",100.0,"[0.10340631618463507,0.1376680926124414]",100.0,"[0.04411743152686761,-0.06216401500001795]",4.0,"[-0.009019325139270574,-0.14477627095592227]",100.0,"[0.0161220912147546,-0.11157611025738105]",100.0,"[-0.17928035372420525,0.05187914352708309]",4.0,"[0.11424026781281216,-0.11471408685572884]",100.0,"[0.15411551190391634,0.08207928145844566]",4.0,"[0.04646418992230242,0.07948367964483344]",100.0,"[-0.06505972261408972,-0.0007506693107773979]",4.0,"[0.02,0.02]",184.3952,0.0,3.0,3.0,34.0,1.0,,,,,,,
,,,,,,,67c712364ec9ad3f92b3a339,684429a03fa3be5ac784e29c,2025-06-07_14h02.35.372,shape_ratio,2024.1.5,Win32,59.88023952,684250e4f00cb30b92d1fa88,,,,,,,,,,,184.3962,184.8957,,,185.147,185.7298,left,0.5713,,,,,,,,,0.6,,,,,,184.8958,185.147,185.7298,"[0.0522487815330467,0.16154839536331106]",100.0,"[0.13040560463357556,0.08181981772132146]",100.0,"[-0.13916215010773986,-0.014177926456449618]",100.0,"[-0.054027345554057866,-0.1076029770374412]",100.0,"[0.10544979746974713,-0.004338310635901576]",4.0,"[-0.1785492858920146,-0.03275522715527665]",100.0,"[-0.01288727569883334,0.19367452504358462]",100.0,"[0.16129576807207527,0.035399238306029944]",4.0,"[0.12682871255622058,-0.060987298175227606]",100.0,"[-0.04716696833816265,-0.17306535211121796]",4.0,"[-0.06883830572845229,0.12644759212179593]",4.0,"[0.019597497679262086,-0.08073226199216849]",100.0,"[0.003155192369415028,0.024037723877742452]",100.0,"[0.10877437443526791,0.16243862999546266]",4.0,"[0.0368488876065188,0.04811094269307466]",100.0,"[-0.07356817844542121,0.03177719821051995]",4.0,"[0.05186957908413346,-0.013974517358166072]",100.0,"[-0.12075359539276119,0.07813089117834841]",4.0,"[-0.12179419705742635,-0.15339089832411038]",4.0,"[-0.07879668632443775,-0.06696077816997514]",100.0,"[-0.17004841845380808,0.09887870020505746]",4.0,"[-0.03946557051967971,-0.033355047147799806]",4.0,"[0.05627629030707392,-0.1162834246804186]",100.0,"[-0.024588463490369424,0.13528085319819919]",100.0,"[-0.12805454481906023,-0.07427078833514449]",100.0,"[-0.015263116194072878,0.07237683450992764]",4.0,"[0.0844292262113641,0.12433975274187051]",100.0,"[0.04402599908824677,0.10241299617217392]",4.0,"[0.0578745738110094,-0.17620286005225602]",100.0,"[0.015890023096221343,-0.03705677534924434]",100.0,"[0.10795095491642147,-0.1103297640517476]",100.0,"[-0.16938833053482086,-0.09279944889897714]",4.0,"[0.02,0.02]",186.8299,0.0,4.0,4.0,32.0,1.0,,,,,,,
,,,,,,,67c712364ec9ad3f92b3a339,684429a03fa3be5ac784e29c,2025-06-07_14h02.35.372,shape_ratio,2024.1.5,Win32,59.88023952,684250e4f00cb30b92d1fa88,,,,,,,,,,,186.8311,187.3305,,,187.5876,188.4212,right,0.8181,,,,,,,,,0.45,,,,,,187.3305,187.5874,188.4212,"[0.0761503043622195,0.014979909952084017]",4.0,"[0.1908126539880019,0.04897433148259812]",4.0,"[-0.19373158729210535,0.03205604517512615]",4.0,"[-0.01899974932870676,-0.0630090350552591]",4.0,"[0.034988087548940346,0.07827022720928524]",100.0,"[-0.07156196620601638,0.06467633321566693]",4.0,"[0.07734815806554607,0.15704543946640773]",4.0,"[-0.03641441981867915,0.14362565263584176]",4.0,"[-0.029200578473225134,0.07485631160440462]",100.0,"[0.10605179032759415,-0.05672482131610196]",100.0,"[0.1260909114400651,0.0812715471525413]",100.0,"[-0.1441759247698183,0.04085815483316513]",4.0,"[-0.10448197618854776,0.007827820267031839]",100.0,"[0.048822173760653856,-0.13767935707012433]",4.0,"[0.06137781362191658,-0.08264910931949641]",4.0,"[-0.07990341544638115,0.172517764973348]",100.0,"[-0.042420239410351876,-0.10245181722284531]",100.0,"[0.15541066256711364,-0.10465529676044678]",100.0,"[-0.14035542878983975,-0.017636113950980522]",4.0,"[-0.055708424578826674,-0.0288481243927562]",4.0,"[-0.0018740972751760635,-0.12919937204654877]",100.0,"[-0.09786362681942792,-0.12939958565391785]",100.0,"[0.005479048196224496,0.1880799450379541]",4.0,"[0.16026209923944781,-0.05153232971352602]",100.0,"[-0.01593575953435397,-0.013483054892927561]",100.0,"[-0.13192882407409362,0.09571623597779017]",100.0,"[0.13194208274309038,-0.14229429757235157]",100.0,"[0.0750073108119507,0.10663168245119846]",4.0,"[0.013101914875602203,0.12402130831473072]",4.0,"[-0.1717726110231797,0.07692055773990997]",4.0,"[-0.07332270183181144,-0.1670267429663972]",4.0,"[-0.09395820154349172,-0.06587542950969753]",4.0,"[0.02,0.02]",189.5147,0.0,5.0,5.0,125.0,1.0,,,,,,,
,,,,,,,67c712364ec9ad3f92b3a339,684429a03fa3be5ac784e29c,2025-06-07_14h02.35.372,shape_ratio,2024.1.5,Win32,59.88023952,684250e4f00cb30b92d1fa88,,,,,,,,,,,189.5162,190.0212,,,190.2666,190.8723,right,0.5844,,,,,,,,,0.1,,,,,,190.0212,190.2666,190.8724,"[0.07140035950638018,-0.09786889962720387]",4.0,"[-0.14349041721218792,0.04637813499953269]",4.0,"[-0.028579508710180463,0.048602360771941105]",4.0,"[0.1463712939247659,0.023270566589719353]",100.0,"[0.021801355024077557,0.05432370892482]",4.0,"[0.058162174282261274,-0.04735992609198805]",4.0,"[0.010625959238276772,0.12238129280399414]",4.0,"[-0.024142134636795827,-0.052972365809204204]",4.0,"[-0.09195537432289533,-0.14511384931003263]",4.0,"[-0.008204291483149193,0.1922620866461437]",4.0,"[-0.12913032722289014,-0.11958620208209676]",4.0,"[-0.15529606675859667,-0.016163319556033295]",4.0,"[0.16875911493342446,-0.026146253259412895]",4.0,"[0.001166838661121974,-0.011000259193646665]",4.0,"[0.10059426695188586,0.10728508878454399]",4.0,"[-0.05471967337661994,-0.1678804118080077]",100.0,"[0.03706344667612071,-0.18766944128997412]",4.0,"[0.09156434802446935,0.041356189243632616]",4.0,"[0.15141454387515257,0.1286390950130906]",4.0,"[-0.057686458069500963,0.1115785640779742]",4.0,"[-0.16188174951489032,0.1147699098755715]",4.0,"[-0.05204272725232211,0.1808374127317445]",4.0,"[0.03611548451268671,-0.12422295524610198]",100.0,"[0.10212253237118678,-0.041881278950504766]",4.0,"[-0.1912951704273623,-0.034274238406267185]",4.0,"[-0.007773096658082115,-0.12259001328122199]",4.0,"[-0.1908741123357398,0.0537922643263962]",4.0,"[0.04540330381090441,0.0013336063022460626]",4.0,"[-0.09410144398082687,0.07100111272191938]",4.0,"[0.0977142022586912,-0.13269236973997664]",4.0,"[0.10399862097050755,0.17008173684353528]",4.0,"[-0.0833204131376171,0.15340149020324106]",4.0,"[0.02,0.02]",191.9665,0.0,6.0,6.0,204.0,1.0,,,,,,,
,,,,,,,67c712364ec9ad3f92b3a339,684429a03fa3be5ac784e29c,2025-06-07_14h02.35.372,shape_ratio,2024.1.5,Win32,59.88023952,684250e4f00cb30b92d1fa88,,,,,,,,,,,191.9676,192.4727,,,192.7179,193.2672,right,0.5337,,,,,,,,,0.4,,,,,,192.4727,192.7178,193.2672,"[-0.18852513419652475,-0.0662965416086314]",4.0,"[0.14521515101136417,-0.13637643471256494]",100.0,"[0.009788649080421848,0.16806181341682622]",4.0,"[0.13022291039489886,0.06400159795790128]",100.0,"[-0.06285071409314953,-0.015265175011507067]",4.0,"[-0.04027453198187637,0.03984270419292328]",4.0,"[0.016554113742856053,0.09388644728603689]",4.0,"[-0.12772573267643875,-0.05482154666405866]",4.0,"[-0.014270026385066966,-0.13640160102279938]",100.0,"[0.1795705879017699,0.05829305832535974]",4.0,"[0.1388737073765047,0.011467609326392106]",4.0,"[-0.04707430576178569,0.10879448235096206]",4.0,"[0.14365507595031124,-0.05751484572643085]",4.0,"[0.026318996697869315,-0.17310237836130032]",4.0,"[0.05408345271304942,0.19196228058203307]",100.0,"[-0.13042505452384254,0.07913470451434329]",4.0,"[-0.08142541443703193,0.06355706823716577]",100.0,"[0.022064119320893867,-0.04993202947679123]",100.0,"[-0.05795268374650358,-0.07797369600789619]",100.0,"[0.10343747732538357,-0.034166357000454506]",4.0,"[0.06806398211100671,0.04447634620225024]",4.0,"[0.07120601495536162,0.1271539965288271]",100.0,"[-0.11102506206978992,-0.11137255995388691]",100.0,"[-0.17371030717398728,0.0821144348143152]",100.0,"[-0.1245941364147654,0.0017487484940802022]",100.0,"[-0.0631872908487446,-0.12142386331897674]",4.0,"[0.1795015704097011,-0.015231300709671651]",100.0,"[0.12981715485862472,0.14646982112596899]",100.0,"[-0.19545596607244511,0.021677454671110215]",4.0,"[0.08074656541072013,-0.1349198397315371]",4.0,"[0.121837868475528,-0.09394643537684676]",4.0,"[-0.1055515556003187,0.11998112228972867]",4.0,"[0.02,0.02]",194.3676,0.0,7.0,7.0,178.0,1.0,,,,,,,
,,,,,,,67c712364ec9ad3f92b3a339,684429a03fa3be5ac784e29c,2025-06-07_14h02.35.372,shape_ratio,2024.1.5,Win32,59.88023952,684250e4f00cb30b92d1fa88,,,,,,,,,,,194.3683,194.8678,,,195.1232,195.7016,left,0.5597,,,,,,,,,0.55,,,,,,194.8679,195.1232,195.7018,"[-0.045756657167602986,-0.12357164998271554]",4.0,"[-0.0520206373766859,0.13254887657578823]",100.0,"[-0.13769416977983454,-0.10967903451860722]",4.0,"[-0.09509379384411835,0.12985647106841716]",4.0,"[0.03296975163369642,-0.03523000137941438]",100.0,"[-0.13636233989504482,0.09118162617884289]",100.0,"[-0.05768152525521289,-0.025034893702725616]",100.0,"[0.1926672026569343,-0.036957746509075885]",100.0,"[-0.17980389314168133,0.036808950236472356]",100.0,"[0.11293260314103498,0.09114303188485806]",100.0,"[0.03238271819339815,-0.09212027812992665]",100.0,"[0.16064751414137868,-0.09262949329630617]",4.0,"[-0.08323708119517284,0.07678143643742774]",4.0,"[0.016949371557085147,0.12402941803574226]",100.0,"[-0.13942531351886783,0.008440197175518626]",4.0,"[0.06266705334432839,0.02828520997403278]",4.0,"[-0.03308166496585491,0.16923997121266587]",100.0,"[0.047032812121467066,-0.14518022360397148]",100.0,"[-0.09109272041692676,-0.15894917790603083]",100.0,"[0.11554451065692095,0.030682659614716164]",4.0,"[-0.07992953916107101,-0.09627381271661942]",4.0,"[-0.07200333380227066,0.024536655505659723]",4.0,"[0.12598599666341706,-0.12836857584783995]",100.0,"[0.0057256745297692225,0.18231853684902466]",100.0,"[0.1215171472051719,-0.018994885380896876]",4.0,"[0.156218966039396,0.10746552038471197]",4.0,"[-0.17087620392720376,-0.06691017302420246]",100.0,"[-0.025101878658715368,-0.04927941931491424]",100.0,"[0.09142230642358164,0.13232637132434802]",4.0,"[-0.07936641890921563,0.17438917087834654]",100.0,"[-0.04232847570449841,0.0529862761967628]",100.0,"[-0.0010202788538516785,0.0548067819513398]",4.0,"[0.02,0.02]",196.808,0.0,8.0,8.0,73.0,1.0,,,,,,,
,,,,,,,67c712364ec9ad3f92b3a339,684429a03fa3be5ac784e29c,2025-06-07_14h02.35.372,shape_ratio,2024.1.5,Win32,59.88023952,684250e4f00cb30b92d1fa88,,,,,,,,,,,196.8085,197.3022,,,197.5545,198.7202,right,1.1539,,,,,,,,,0.9,,,,,,197.3022,197.5543,198.7204,"[-0.117339298974071,0.13431186691591676]",100.0,"[0.04580044034950632,0.10887998244290929]",4.0,"[0.01804324667652782,-0.15047061960734548]",100.0,"[0.17341664477658478,-0.02395482050478865]",100.0,"[-0.12365339743078226,-0.06345653024061215]",4.0,"[-0.06945247701791468,-0.1185103469579204]",100.0,"[0.0967844724909957,-0.03285092880545728]",100.0,"[-0.11270152210783375,0.07894477323044309]",100.0,"[0.1744183897081089,0.07085458720956048]",100.0,"[0.0635216892864133,-0.11117615378813821]",100.0,"[0.06717552864158043,0.0030261791386167647]",100.0,"[0.09297149518867338,0.051571760168393495]",100.0,"[0.07934619482896828,0.17592197917441965]",100.0,"[-0.17066301274908868,-0.07722771643311961]",100.0,"[0.12055851918127543,0.0032555472410495316]",100.0,"[0.049282785684035754,0.049094089190810174]",100.0,"[-0.0223883320510443,0.08517808463930694]",100.0,"[-0.004852234617687171,-0.03658943150593191]",100.0,"[-0.15895671967314695,-0.11883333795644453]",100.0,"[0.1226585876598928,-0.11824004579414554]",100.0,"[-0.16154906483876277,0.03253112543937584]",100.0,"[-0.0689551116098142,0.11286756353727284]",4.0,"[0.11864269020779386,0.13407102251249664]",100.0,"[0.006328671997689958,0.14119797292857486]",100.0,"[-0.0284381411742956,-0.10118974801817593]",100.0,"[-0.17789413493467524,0.0786320321950803]",100.0,"[0.02376800878608198,-0.006398414412734214]",100.0,"[-0.02832541278285585,0.000363262550338386]",100.0,"[-0.012860251738984778,0.18402081968331913]",100.0,"[-0.06836467378609909,-0.03702321364431666]",100.0,"[-0.04083992622724945,-0.18232032729091702]",100.0,"[0.15122302686391711,-0.05740472511591979]",100.0,"[0.02,0.02]",199.821,0.0,9.0,9.0,8.0,1.0,,,,,,,
,,,,,,,67c712364ec9ad3f92b3a339,684429a03fa3be5ac784e29c,2025-06-07_14h02.35.372,shape_ratio,2024.1.5,Win32,59.88023952,684250e4f00cb30b92d1fa88,,,,,,,,,,,199.8217,200.321,,,200.5721,201.1214,right,0.5361,,,,,,,,,0.4,,,,,,200.3212,200.572,201.1215,"[0.04187197468830107,0.005608428941608082]",4.0,"[-0.17987286664270571,-0.026961378686130147]",100.0,"[-0.06429587916560865,0.03323292474455022]",4.0,"[0.05506976277527863,0.05508563855206674]",4.0,"[0.0955037961376396,0.03999534022658409]",100.0,"[0.0969361873032794,-0.10082534168511587]",100.0,"[0.02762695747617619,-0.11174346210126375]",100.0,"[0.15104373127764373,-0.08503179326531324]",100.0,"[-0.009134839180189154,0.09155747045516507]",4.0,"[0.004337260067403351,0.16700190468944834]",4.0,"[-0.08670659500397788,-0.15192306555085935]",100.0,"[-0.09074941735952258,0.07475845274852308]",4.0,"[-0.18368956866062178,0.017072460694902303]",4.0,"[0.0456337349595834,0.1759642684735463]",4.0,"[-0.1444439986963067,-0.1022718530466949]",100.0,"[0.12733638988986085,-0.013153055330419074]",4.0,"[-0.1504553907218762,0.11890219817348571]",4.0,"[-0.16744224835132426,0.08234926199214863]",100.0,"[0.18533724112421443,-0.03766824975281952]",4.0,"[0.10507173061494675,0.08569869021450631]",4.0,"[-0.0992791496967497,0.00997441984754405]",100.0,"[0.08080535243512255,0.13488902588957083]",100.0,"[0.03182820425104715,-0.04908175735307564]",4.0,"[-0.008922859128784757,-0.17842691760276705]",100.0,"[-0.0469346171285778,-0.06808751299452627]",100.0,"[-0.13711650484613344,-0.010123548649740804]",4.0,"[-0.05756907965517156,-0.11307196746398766]",4.0,"[0.033812003091616874,-0.18272107356296402]",4.0,"[0.1399749226448036,0.12224795902039326]",100.0,"[0.03133941771755753,0.0878696895479652]",4.0,"[-0.14776690853517147,-0.05127355790139455]",4.0,"[-0.0329970840491562,-0.14585759877204207]",4.0,"[0.02,0.02]",202.2217,0.0,10.0,10.0,164.0,1.0,,,,,,,
,,,,,,,67c712364ec9ad3f92b3a339,684429a03fa3be5ac784e29c,2025-06-07_14h02.35.372,shape_ratio,2024.1.5,Win32,59.88023952,684250e4f00cb30b92d1fa88,,,,,,,,,,,202.2229,202.7225,,,202.9732,203.7564,left,0.7724,,,,,,,,,0.55,,,,,,202.7226,202.9731,203.7565,"[0.07389408796824556,0.18386510095400724]",4.0,"[-0.1147153079491487,-0.11073225937272982]",100.0,"[0.108679132157445,-0.026979203100117175]",4.0,"[-0.06363688975826787,0.13162825872469203]",100.0,"[-0.02757247865916342,-0.0665818983355777]",4.0,"[-0.16483610986883124,0.06736710363475408]",100.0,"[-0.0002497741128004563,-0.18927455755903475]",100.0,"[0.1652416345820617,0.07952130058794142]",4.0,"[-0.0876439165464686,-0.16644758040457597]",4.0,"[-0.13428811531967808,-0.0011871570858269906]",100.0,"[0.10346472924879703,-0.12856119095079396]",100.0,"[0.03110258486299196,-0.04710679959407905]",100.0,"[-0.05997545206864167,0.009198364314452537]",100.0,"[-0.11204072074282961,0.057432163739490456]",4.0,"[-0.018966472640823635,0.09782148515481423]",4.0,"[0.09691990540359592,0.0801502250129971]",100.0,"[0.06373185870118747,-0.1407442823664083]",100.0,"[0.09456310272973004,-0.06511918239934994]",4.0,"[-0.12350649587350333,0.15006896832672303]",100.0,"[0.15928754881555465,-0.00023167471664303242]",100.0,"[0.05280617510994418,0.09674092428821837]",4.0,"[-0.03866971821505238,0.16754787566373533]",100.0,"[-0.039044758493211915,-0.16113559459272486]",100.0,"[0.10805297198635475,0.15734421906200222]",100.0,"[0.03538115437730887,0.16046779995940813]",100.0,"[0.16332059697895174,-0.09087181052058467]",100.0,"[-0.04614731547305724,0.04990939512556638]",4.0,"[0.1790438182830689,-0.03798221261577081]",4.0,"[0.07925548435592485,0.009863279132104616]",100.0,"[-0.006159835283664451,0.041149508155235916]",4.0,"[0.042152399565077964,-0.18709126276846677]",4.0,"[-0.09438398908282904,-0.05708088989179887]",4.0,"[0.02,0.02]",204.8616,0.0,11.0,11.0,66.0,1.0,,,,,,,
,,,,,,,67c712364ec9ad3f92b3a339,684429a03fa3be5ac784e29c,2025-06-07_14h02.35.372,shape_ratio,2024.1.5,Win32,59.88023952,684250e4f00cb30b92d1fa88,,,,,,,,,,,204.8621,205.3595,,,205.6083,206.4417,left,0.8263,,,,,,,,,0.1,,,,,,205.3596,205.6082,206.4418,"[0.17119379129694876,-0.08494979999723654]",4.0,"[-0.013825494815961872,0.029818528111714034]",4.0,"[-0.13255991639230671,-0.05560529923683151]",4.0,"[0.09939840851001698,-0.08639769802130229]",4.0,"[0.07120016664777949,-0.042452119267179865]",4.0,"[-0.0696378931939106,-0.0720859262328103]",4.0,"[0.19195190130919568,0.016092724857209275]",4.0,"[-0.18955543566324284,-0.030376773419441915]",4.0,"[0.13926010471651293,-0.0006877044467652448]",4.0,"[0.07319002376311629,0.1602262043823659]",4.0,"[0.09597929719079581,0.10686932025119894]",4.0,"[-0.07735616259644375,-0.00022186867363074213]",4.0,"[0.01702175290319295,0.18847285459170726]",4.0,"[-0.06054557073185829,-0.15354249265177486]",4.0,"[-0.10677567886481773,0.09066189852558815]",4.0,"[-0.13056877776412715,0.034079340808203185]",4.0,"[0.1239603224456846,-0.11913432309461745]",4.0,"[0.07562250743607651,0.05494370971024839]",4.0,"[0.12804720721970492,0.05006283700691199]",4.0,"[-0.11129949434057308,-0.1344169568802953]",100.0,"[0.016865289349696975,-0.06562716223921602]",4.0,"[-0.020537940082810627,-0.037570695217978366]",4.0,"[-0.011817904545215488,-0.19499118799094808]",4.0,"[0.015223143136027163,0.08570940453522755]",4.0,"[0.032792852973832415,0.024837665772839978]",4.0,"[-0.04732928391852978,-0.1081514379784204]",4.0,"[-0.18030110601423582,0.030965404191795463]",4.0,"[-0.04331129836122818,0.16241576076788702]",4.0,"[0.0763443311979395,-0.12609421533037263]",4.0,"[-0.03033659853019978,0.06656827072405218]",100.0,"[0.18524384510689937,0.0690302416350684]",4.0,"[-0.022568340831166114,0.11724677444298744]",100.0,"[0.02,0.02]",207.5312,0.0,12.0,12.0,183.0,1.0,,,,,,,
,,,,,,,67c712364ec9ad3f92b3a339,684429a03fa3be5ac784e29c,2025-06-07_14h02.35.372,shape_ratio,2024.1.5,Win32,59.88023952,684250e4f00cb30b92d1fa88,,,,,,,,,,,207.5318,208.0315,,,208.2817,208.5991,right,0.3019,,,,,,,,,0.45,,,,,,208.0315,208.2817,208.5992,"[0.011619112918238663,-0.045927195552738574]",4.0,"[0.142390783642829,0.08573944595772742]",4.0,"[-0.17975841257501235,0.05272116237829261]",4.0,"[0.07301722587038818,0.06774535474029778]",100.0,"[-0.18738909253405459,0.007662216931011034]",100.0,"[0.1300224455529751,0.04377740560283031]",4.0,"[0.09046447538773557,-0.09039409804479524]",100.0,"[-0.16627307363118402,-0.0293026260231929]",100.0,"[0.058365529869949064,-0.06628977957286104]",4.0,"[0.025608725232442158,0.041850986395387514]",4.0,"[0.007613158769902463,-0.14833223387970654]",100.0,"[-0.1359615869189562,0.01652575842017439]",4.0,"[0.1465894051864817,-0.045953831242906605]",100.0,"[-0.0035398280051074987,0.008547191795961381]",100.0,"[-0.06842072265282094,-0.14171192270462402]",4.0,"[-0.0627292623334563,-0.09719579931878862]",100.0,"[0.09818063312547476,-0.15576811293761933]",4.0,"[-0.14983226887088816,-0.09134748152932144]",100.0,"[-0.09952467958814801,0.16410015908463788]",100.0,"[-0.09303818372194646,0.03871957318972037]",4.0,"[0.027895283376554076,-0.09917064714845174]",4.0,"[0.07301576975779056,0.17468664493777242]",4.0,"[-0.10063682740459572,-0.110312936617574]",4.0,"[-0.1482892493595947,0.11921542745195692]",100.0,"[0.17355988240588036,0.026060356018781428]",4.0,"[-0.045096082459362544,-0.0013162816065141743]",100.0,"[-0.01527523414254963,0.18343464227714779]",4.0,"[0.10437298465030014,-0.015351023390607475]",4.0,"[-0.07269164536042144,-0.05168971476978385]",100.0,"[-0.01778239696632395,0.06148149340625118]",4.0,"[0.05131420147387622,-0.1688282515874422]",100.0,"[-0.12324522923876031,0.08690334484716018]",4.0,"[0.02,0.02]",209.6929,0.0,13.0,13.0,129.0,1.0,,,,,,,
,,,,,,,67c712364ec9ad3f92b3a339,684429a03fa3be5ac784e29c,2025-06-07_14h02.35.372,shape_ratio,2024.1.5,Win32,59.88023952,684250e4f00cb30b92d1fa88,,,,,,,,,,,209.6939,210.1992,,,210.4441,211.8965,left,1.4458,,,,,,,,,0.6,,,,,,210.1992,210.4441,211.8965,"[0.0787149684528999,-0.00295633283826146]",4.0,"[0.032548305508553824,0.10495941228780613]",100.0,"[-0.0754458530067452,0.14119994304763667]",100.0,"[0.027509316728554167,-0.02054978982889732]",4.0,"[-0.08972989189952148,0.046035061389293495]",100.0,"[0.11484176696239734,-0.10377887523451683]",100.0,"[-0.19466493697433573,0.013543263013229459]",4.0,"[-0.0014256906603817955,0.17835353450736322]",100.0,"[-0.054310071111957944,-0.03307427098080252]",100.0,"[0.05335228709738815,-0.08520831248976105]",100.0,"[-0.1507462658125064,0.08643056911368335]",4.0,"[-0.13769746651319154,0.03892822118058103]",4.0,"[0.13635023316067035,0.013011199799029776]",4.0,"[-0.0036539825698735234,-0.19648233532984052]",100.0,"[0.09243968309074971,-0.16850128683444415]",4.0,"[0.04554010638038472,-0.18252289007577363]",4.0,"[0.14438459251144944,0.11941478320303772]",100.0,"[0.06305028696117616,0.17903737628494582]",4.0,"[-0.18097533911823316,0.058302604550941564]",100.0,"[-0.1416040279749564,-0.0952768342404405]",4.0,"[-0.08707876340425763,0.09481525316333599]",4.0,"[0.12370088522358126,-0.028722429600982504]",100.0,"[-0.10438450806260043,-0.15778851588721804]",100.0,"[0.08514629313759162,0.0650215607022996]",100.0,"[0.011420995284046224,-0.07223055593893275]",4.0,"[0.02064835765509272,0.051898068356151995]",4.0,"[-0.02317191881600626,0.0658995277008764]",100.0,"[0.02394593754207227,-0.13023753637784982]",100.0,"[0.10897753977773604,0.15177001224877754]",100.0,"[-0.0995663003536909,-0.09312914422058802]",100.0,"[-0.1206433932333534,-0.05124830609402853]",100.0,"[-0.03639121675984573,0.1289199505393962]",100.0,"[0.02,0.02]",212.9841,0.0,14.0,14.0,57.0,1.0,,,,,,,
,,,,,,,67c712364ec9ad3f92b3a339,684429a03fa3be5ac784e29c,2025-06-07_14h02.35.372,shape_ratio,2024.1.5,Win32,59.88023952,684250e4f00cb30b92d1fa88,,,,,,,,,,,212.9847,213.4792,,,213.7289,214.1957,right,0.4533,,,,,,,,,0.6,,,,,,213.4793,213.7289,214.1957,"[-0.10247235636710866,0.06630119308890163]",100.0,"[-0.07351761869912815,0.14545559082242054]",100.0,"[-0.014320790593434574,0.1449899689432132]",100.0,"[0.07241896152319859,0.14128739668318832]",4.0,"[-0.12006360770530335,0.029722310818384872]",4.0,"[0.15779914033813305,0.05131391828912518]",100.0,"[-0.043594031256129054,-0.176464686660799]",100.0,"[-0.11346643986154029,0.1417918051703359]",4.0,"[-0.18346058081723862,-0.05537859703163142]",4.0,"[0.1195084343669636,-0.07926366377105666]",4.0,"[-0.005299541948192231,-0.1177509711551809]",4.0,"[0.1869843546748066,0.007896359086876583]",100.0,"[-0.0717284229701588,-0.07118778871502479]",100.0,"[0.06000204293144912,-0.07426935212568514]",4.0,"[-0.08988718863629418,-0.11954539356978472]",4.0,"[-0.1534237101153409,0.12509326922920624]",100.0,"[-0.1149309654869749,-0.011100968620268353]",4.0,"[0.135964919676012,-0.041435537487594855]",4.0,"[-0.009202944881899431,0.19014374731673642]",4.0,"[-0.18319667500459882,-0.01180534844959832]",100.0,"[-0.008609426493509039,-0.024901295514929297]",100.0,"[-0.17616496773900017,0.0798582970667701]",100.0,"[0.1120726324208336,-0.007331457258794966]",100.0,"[0.14711684749249185,0.12422428258999284]",100.0,"[0.116734895295196,-0.12644470645166433]",100.0,"[-0.059840564766039016,0.015383843251683672]",100.0,"[0.1026627252004078,0.09841529875169494]",4.0,"[0.004812005772073236,0.08295281718510987]",100.0,"[-0.16129676920954952,0.03534361103426707]",100.0,"[0.09507258837788388,0.04439828978778094]",100.0,"[-0.041167171700051,0.0820622957801997]",100.0,"[0.16767165621351396,-0.06613103129032115]",4.0,"[0.02,0.02]",215.3005,0.0,15.0,15.0,44.0,1.0,,,,,,,
,,,,,,,67c712364ec9ad3f92b3a339,684429a03fa3be5ac784e29c,2025-06-07_14h02.35.372,shape_ratio,2024.1.5,Win32,59.88023952,684250e4f00cb30b92d1fa88,,,,,,,,,,,215.3009,215.7965,,,216.0361,216.6367,left,0.5841,,,,,,,,,0.55,,,,,,215.7966,216.0361,216.6367,"[-0.1638783539770751,0.09088856076569647]",100.0,"[-0.11219091804762774,-0.06750838127469802]",4.0,"[0.022894480415369515,0.05962256539554598]",4.0,"[-0.0650895356967735,-0.08724761988049251]",100.0,"[0.06445974799862843,-0.026379472112048816]",4.0,"[0.060438795027839776,0.08091835249577216]",100.0,"[-0.09045436986175832,0.07281918522181456]",100.0,"[-0.07784479521892014,0.1530654611095685]",100.0,"[-0.05176015519480121,0.0045873170893708185]",4.0,"[0.03432979070897961,-0.1557823637920953]",100.0,"[-0.09029789548254694,-0.15848458261313508]",4.0,"[-0.02675228754111603,-0.06554307339780378]",100.0,"[0.020320415152579156,0.010581974915698664]",100.0,"[0.07676479812938083,0.13650022466823586]",100.0,"[-0.13469624958967893,-0.12054218954806208]",4.0,"[-0.02016802325388503,0.1969614910088488]",100.0,"[0.01233905372969962,0.16458080642391418]",4.0,"[0.1205770208744217,-0.0506090681894369]",100.0,"[-0.011137257162822673,-0.18617119175430163]",100.0,"[-0.16575344137873654,0.011894899309738327]",100.0,"[0.19663036017638458,-0.011549246305978998]",100.0,"[0.14745175260611032,0.013305211935151488]",4.0,"[0.16643524617674907,0.0595776927277735]",4.0,"[-0.15034007327525098,-0.02861948938851595]",100.0,"[0.1217671577710452,0.06382523753882595]",4.0,"[0.07281383725934368,-0.07721340053805735]",100.0,"[0.008514413729402768,0.10531425737685282]",4.0,"[-0.11437748461109927,0.12219371028078355]",100.0,"[0.07821490008917598,-0.15830859110760606]",4.0,"[-0.02780302654931559,0.1519577784495408]",4.0,"[-0.05213061731665136,0.10609337179066426]",4.0,"[-0.02507386389655243,0.06540400374224636]",100.0,"[0.02,0.02]",217.731,0.0,16.0,16.0,74.0,1.0,,,,,,,
,,,,,,,67c712364ec9ad3f92b3a339,684429a03fa3be5ac784e29c,2025-06-07_14h02.35.372,shape_ratio,2024.1.5,Win32,59.88023952,684250e4f00cb30b92d1fa88,,,,,,,,,,,217.7322,218.2203,,,218.4689,219.9653,,,,,,,,,,,0.6,,,,,,218.2203,218.4688,219.9654,"[0.019133739364701106,0.1290566237337603]",100.0,"[-0.05002889131483047,0.018994353795661154]",100.0,"[-0.00988706604522481,-0.1259639480354381]",100.0,"[-0.13719166433443802,-0.14351330134297466]",100.0,"[-0.03461324348348149,0.07325298047680691]",100.0,"[0.1410945211090602,0.007736009748332945]",100.0,"[0.0699320741843451,0.0459019270361099]",100.0,"[-0.14993810284445316,-0.0336841238294646]",100.0,"[-0.03810104962780631,-0.1596170605563855]",4.0,"[0.11571134386827,-0.08831264417050863]",100.0,"[0.1779456603379433,0.027040959757917482]",4.0,"[0.0569488016867342,-0.18917864273367602]",4.0,"[-0.022530710526576216,0.19680680030093958]",4.0,"[-0.08201178331675991,-0.15305490459322782]",4.0,"[0.09455920689656394,-0.02576048372340143]",4.0,"[-0.13524542591959893,-0.0905947639697439]",100.0,"[-0.1422357514091286,0.13067868880684302]",4.0,"[0.015634763115276597,0.027812367601115714]",4.0,"[0.10742174839819887,0.12196735303411536]",4.0,"[0.022114732988429885,0.0769227276407271]",100.0,"[0.13978594308716902,0.05097674763472909]",100.0,"[-0.07496704966008975,-0.02117023827850601]",100.0,"[-0.10601474279890309,0.06512323291004195]",100.0,"[-0.15880880539809222,0.028405523610488002]",100.0,"[0.03619074268262587,-0.07588961501379649]",4.0,"[-0.17799910209433856,0.08212746680420273]",100.0,"[0.09907391426715678,0.0793729007157214]",100.0,"[0.10592855194193258,-0.15715396811011298]",100.0,"[0.007424154964434297,-0.19161282026038692]",100.0,"[-0.059411012330034846,0.13804410949207352]",4.0,"[0.022141831383437602,-0.15157824378163084]",4.0,"[0.14566430048108547,0.0958839326834175]",4.0,"[0.02,0.02]",221.0716,0.0,17.0,17.0,35.0,1.0,,,,,,,
,,,,,,,67c712364ec9ad3f92b3a339,684429a03fa3be5ac784e29c,2025-06-07_14h02.35.372,shape_ratio,2024.1.5,Win32,59.88023952,684250e4f00cb30b92d1fa88,,,,,,,,,,,221.0721,221.566,,,221.8046,222.1366,left,0.3139,,,,,,,,,0.9,,,,,,221.5662,221.8045,222.1367,"[0.14192549647760788,0.08980736199851483]",100.0,"[0.09349769361365176,0.05382058441675613]",100.0,"[-0.007079335281807513,-0.013966734536110196]",100.0,"[0.0630089908940336,-0.13498969279483466]",100.0,"[0.022349707023813396,-0.1954268345033411]",100.0,"[0.12790604611839457,-0.11020182092207768]",100.0,"[0.030973196483465092,-0.03894234480127361]",100.0,"[-0.09507494408667524,0.03626990239875749]",100.0,"[-0.008579019774534295,0.032333234732079504]",100.0,"[0.08818626395768063,0.1534603845877322]",100.0,"[-0.1771525815799865,0.05677962866023446]",100.0,"[-0.0009156334596503072,-0.08521050288707471]",4.0,"[0.17827429072778544,0.013014724965224295]",100.0,"[0.17323078734576297,-0.08622253991278607]",100.0,"[0.02189262704572902,0.19639078797729925]",100.0,"[0.018789975921512495,0.10411518278555319]",100.0,"[-0.14344801648534458,0.12060861339292028]",100.0,"[-0.0586667502496681,-0.009266775555526581]",100.0,"[0.15579494576162886,0.04982226451010353]",100.0,"[-0.12327898045489244,-0.04590059928244719]",100.0,"[0.04592706946301404,0.0641879981914691]",100.0,"[-0.048543545335642466,0.03761999048048341]",100.0,"[0.04927033386242336,0.1359068829424573]",100.0,"[0.06213256278019595,0.017758024374706635]",100.0,"[-0.012595176569405389,0.0786999814487249]",100.0,"[-0.12161732424824374,-0.0028153145505806915]",4.0,"[-0.06194402113552048,0.14928875306663036]",100.0,"[-0.19072301052406843,-0.031078459896654077]",100.0,"[-0.07945394635239046,-0.12317635819696492]",100.0,"[0.13384452388828194,-0.018481017660457368]",4.0,"[-0.006882852454940458,0.1393038426074346]",100.0,"[-0.139321468477483,0.07968852851112819]",100.0,"[0.02,0.02]",223.2392,0.0,18.0,18.0,13.0,1.0,,,,,,,
,,,,,,,67c712364ec9ad3f92b3a339,684429a03fa3be5ac784e29c,2025-06-07_14h02.35.372,shape_ratio,2024.1.5,Win32,59.88023952,684250e4f00cb30b92d1fa88,,,,,,,,,,,223.2398,223.7338,,,223.9723,224.191,left,0.2007,,,,,,,,,0.5,,,,,,223.7339,223.9722,224.191,"[0.16833704655677723,0.1019661377256069]",100.0,"[0.16063647605841008,-0.09293165938232949]",100.0,"[0.0368173624640445,0.005543433847814629]",4.0,"[-0.05865381546237902,-0.08655986818531108]",100.0,"[0.09222617708552949,0.09482355854991835]",4.0,"[0.17387240766680184,-0.006506717064895471]",100.0,"[-0.1213252637264248,0.04977434755700771]",4.0,"[-0.08821530229621623,0.14045672490055294]",4.0,"[-0.16362424152007976,0.0005009521996686624]",100.0,"[0.030965188921850587,0.18190273108160718]",100.0,"[0.001704875990393438,-0.07642868047556768]",4.0,"[-0.030813125984157554,0.16852109766878196]",4.0,"[-0.09554796681782393,-0.1676806469114747]",4.0,"[-0.008551238915631873,0.1178318138059251]",4.0,"[0.054080461184968925,-0.12360054816032692]",100.0,"[0.08826652040640144,-0.004391786647285949]",4.0,"[-0.11966446006959311,-0.03920658760078414]",100.0,"[-0.14914018458700531,-0.10190716507007973]",4.0,"[-0.17425401470956844,-0.042832848868354145]",100.0,"[0.027511666824184565,-0.18380420050040822]",4.0,"[0.11485431006373321,-0.07244387904063185]",100.0,"[0.15458587608065,0.028989950214975295]",4.0,"[0.05774256965111661,-0.07589484261985294]",4.0,"[0.038719153662175126,0.060177115960939456]",100.0,"[-0.03268102323041696,-0.16828570446319613]",100.0,"[0.19025603349688058,-0.05520138910611465]",4.0,"[-0.07944108257793882,0.035277001441195464]",4.0,"[-0.12769726110769553,0.1098317435386394]",100.0,"[0.10865761025518521,0.16015649848378924]",100.0,"[-0.038810476452285705,-0.04307513568994866]",4.0,"[0.057214758558094464,0.1465539133661738]",100.0,"[-0.1871476357460789,0.04388843296965478]",100.0,"[0.02,0.02]",225.2851,0.0,19.0,19.0,109.0,1.0,,,,,,,
,,,,,,,67c712364ec9ad3f92b3a339,684429a03fa3be5ac784e29c,2025-06-07_14h02.35.372,shape_ratio,2024.1.5,Win32,59.88023952,684250e4f00cb30b92d1fa88,,,,,,,,,,,225.2867,225.7913,,,226.0382,226.1855,right,0.1248,,,,,,,,,0.5,,,,,,225.7913,226.0382,226.1856,"[-0.05668907804317614,0.10102596951129704]",100.0,"[-0.03893875226878925,-0.12245043705581012]",4.0,"[0.017670239173553582,0.08634872538073882]",4.0,"[-0.16913123412246814,0.08746304760189279]",100.0,"[-0.12314065321527891,-0.10443043667134387]",4.0,"[-0.18490193177616626,-0.06658153538473058]",4.0,"[-0.11072603691327197,0.05341218568959259]",4.0,"[-0.05842990407917018,0.005421968276366616]",4.0,"[-0.05691247282345247,0.15284516845187432]",100.0,"[0.06841108852872384,0.07127633807765008]",100.0,"[-0.06406691998208769,-0.08018817136721783]",4.0,"[0.045388843928782174,0.010411672712426604]",4.0,"[0.056595871045276865,0.17042257444839326]",100.0,"[0.09561524261738756,-0.17454834504374317]",100.0,"[-0.10347109246760307,-0.05812259757049098]",100.0,"[0.1847378411554821,0.04474211166180033]",100.0,"[0.17937934061463548,-0.0005943691225996352]",100.0,"[-0.021223642221984657,-0.18664204646378324]",4.0,"[0.07732659953436753,-0.029370736013534165]",4.0,"[-0.13112421706012345,-0.02708201018414458]",4.0,"[0.03246106293917839,-0.12723208088705829]",4.0,"[0.18610010623769543,-0.048097484053108965]",100.0,"[-0.007303325571389998,0.12925333294659583]",100.0,"[0.06952497923349768,0.11351347624673087]",100.0,"[-0.018147452784236774,-0.05377165161379321]",4.0,"[0.1464768896414828,0.06061359765043995]",100.0,"[0.15183985084084797,0.120328829136341]",4.0,"[-0.1493821060707526,0.030905308848329604]",100.0,"[0.06588180848061859,-0.09689212973373114]",100.0,"[0.006019996696897802,0.04125693743325666]",4.0,"[0.133344151766207,0.010602503561570815]",100.0,"[-0.060273740393589945,-0.17721830437320715]",4.0,"[0.02,0.02]",227.2752,0.0,20.0,20.0,100.0,1.0,,,,,,,
,,,,,,,67c712364ec9ad3f92b3a339,684429a03fa3be5ac784e29c,2025-06-07_14h02.35.372,shape_ratio,2024.1.5,Win32,59.88023952,684250e4f00cb30b92d1fa88,,,,,,,,,,,227.2756,227.7752,,,228.0207,228.7374,left,0.7043,,,,,,,,,0.45,,,,,,227.7752,228.0206,228.7375,"[0.07277374701262244,-0.1245163024291695]",100.0,"[0.08819156371907826,-0.04845498372811463]",100.0,"[0.01630454299733921,0.04134346061151701]",4.0,"[0.0952285455542779,0.1539709537167681]",4.0,"[0.05280408739572527,-0.1800189224741816]",4.0,"[-0.09028729940260406,0.02686997585995551]",100.0,"[0.045348637854798826,0.18452034838924908]",4.0,"[-0.09198529220339378,0.09024559770783631]",4.0,"[-0.12456098734278519,-0.027238030787459008]",100.0,"[0.03384960019135733,-0.079554131014813]",100.0,"[-0.011979176417107157,-0.19401313122994363]",100.0,"[0.17318435804079318,0.02089983540421358]",4.0,"[-0.043578074545075215,-0.12950123362564064]",4.0,"[0.14760850144761842,-0.05711526030508556]",4.0,"[-0.07273429228521726,-0.05859992492077584]",100.0,"[0.1238691199127874,0.058507413735309315]",100.0,"[-0.046056470502190944,0.10657253260042505]",4.0,"[-0.13551557270923847,0.12903164970856187]",4.0,"[-0.17217960296980514,-0.05938063703508326]",4.0,"[0.04945822879047649,-0.037700630255986516]",100.0,"[0.06361602877463629,0.0021953855214872126]",100.0,"[-0.13281687148242194,-0.07803503429693145]",4.0,"[-0.0029108181821590924,0.1027320576383373]",4.0,"[0.015283339050539902,-0.13566373562797804]",100.0,"[-0.149714197363544,0.02244373324479765]",4.0,"[0.1633718507858608,0.11014880160434475]",4.0,"[-0.016774367531102768,0.01497668516977405]",100.0,"[-0.033065889446351575,0.1705641793028337]",4.0,"[0.1736933982554409,0.06956586098384586]",100.0,"[0.05521590949565078,0.07050016531266788]",4.0,"[-0.16089224854040202,0.0761349233948149]",4.0,"[-0.12114463359919124,-0.12967143196365918]",100.0,"[0.02,0.02]",229.8436,0.0,21.0,21.0,138.0,1.0,,,,,,,
,,,,,,,67c712364ec9ad3f92b3a339,684429a03fa3be5ac784e29c,2025-06-07_14h02.35.372,shape_ratio,2024.1.5,Win32,59.88023952,684250e4f00cb30b92d1fa88,,,,,,,,,,,229.8443,230.3375,,,230.5776,230.8213,left,0.2237,,,,,,,,,0.5,,,,,,230.3377,230.5776,230.8214,"[-0.04438331348215151,0.17839123639207508]",100.0,"[-0.18462011240957354,-0.04252918035401105]",100.0,"[0.1489445686854571,0.11479910564162818]",100.0,"[0.03643553055489121,-0.015146634282411354]",4.0,"[0.12528276065930574,0.010430936177139048]",100.0,"[-0.040324389642851385,-0.14095065566833542]",4.0,"[-0.10466128743510651,0.12803784897844794]",4.0,"[0.0016424440972422402,0.045096299770626534]",100.0,"[-0.02273188639465837,-0.08906948853570161]",100.0,"[0.006890705519769577,-0.16654280004899338]",4.0,"[-0.020483878758817218,0.10516834503721609]",100.0,"[0.03504416891497286,0.07247933310808811]",4.0,"[0.06130419315434652,-0.06672075686980788]",4.0,"[-0.11538011247237007,-0.07519826820725657]",100.0,"[-0.10312136961994035,-0.008578391629812837]",4.0,"[-0.13804249841929223,-0.13908781042607343]",4.0,"[0.07355989204729967,-0.14242707732599952]",100.0,"[0.06729143012512416,0.046539746143531804]",4.0,"[-0.18412425884791173,0.05945424790908135]",100.0,"[0.18105057570097355,0.07579609193505984]",100.0,"[-0.14387546884468375,0.009410585343273875]",4.0,"[0.0028760633957438187,0.19553024829372603]",4.0,"[0.054113544102746144,0.18022471185294267]",4.0,"[-0.006887187625114159,0.1428735221841211]",4.0,"[0.08946817256825826,-0.012764300092401074]",4.0,"[-0.04121891169783586,-0.021517631843095242]",100.0,"[-0.11801971322567686,0.08827250956994989]",100.0,"[-0.06273766230638245,0.063366399254476]",100.0,"[-0.06124490652350082,-0.06900730614334756]",100.0,"[-0.09165960920058569,0.1745361930644226]",4.0,"[0.16985033058612564,-0.09418379634472832]",4.0,"[0.17553268924344761,-0.0234823944443748]",100.0,"[0.02,0.02]",231.9114,0.0,22.0,22.0,91.0,1.0,,,,,,,
,,,,,,,67c712364ec9ad3f92b3a339,684429a03fa3be5ac784e29c,2025-06-07_14h02.35.372,shape_ratio,2024.1.5,Win32,59.88023952,684250e4f00cb30b92d1fa88,,,,,,,,,,,231.9119,232.4117,,,232.6569,233.006,right,0.3397,,,,,,,,,0.1,,,,,,232.4117,232.6568,233.006,"[0.041060971071656724,0.16100503710720068]",4.0,"[0.11357259995856107,-0.13457356132106796]",4.0,"[-0.11745272362740047,-0.10976653128448742]",4.0,"[0.046445364161573514,-0.12266137391212764]",100.0,"[-0.13689700445289474,0.07200639535107455]",4.0,"[0.12174584433255571,-0.0027548011417156495]",4.0,"[-0.13878872027017344,-0.030847565100084542]",4.0,"[-0.17714739305989,0.07130111739421678]",4.0,"[-0.09643219287410143,0.17475530568395076]",4.0,"[-0.008879282218439383,0.10695641337688047]",4.0,"[0.07761137410042747,0.05175823024718231]",4.0,"[0.09271191027851904,0.1207932230546225]",4.0,"[-0.08081169659872228,0.13646982431080873]",4.0,"[-0.0941487746049979,0.03770289604132709]",4.0,"[0.05706574153437384,-0.16182005376272532]",4.0,"[0.00929885399604926,-0.15637162122759185]",4.0,"[-0.059850459832362056,-0.02150768347596708]",4.0,"[-0.0821138589545332,-0.15534051093430362]",100.0,"[-0.018814275628577203,-0.02534382763943185]",4.0,"[0.1758458230123053,0.056976336886576794]",4.0,"[-0.16657846254615236,-0.0705049549874329]",4.0,"[-0.0310847035889048,0.16285547514665555]",4.0,"[0.03760200382364777,-0.004695284270673429]",4.0,"[-0.03189566884042033,-0.15600079278239676]",4.0,"[-0.07712753252406851,0.09312548184668701]",4.0,"[0.1618155744519711,-0.020858225804750156]",4.0,"[0.021338718821325132,-0.1968212690502348]",4.0,"[-0.040734032277216774,0.016533763447564912]",4.0,"[0.027064336988887126,0.06658774490731315]",4.0,"[0.14446186061571262,0.12265804666428821]",4.0,"[0.13027639137395425,-0.07060993492283209]",100.0,"[-0.040297054512313454,-0.09215563809999587]",4.0,"[0.02,0.02]",234.112,0.0,23.0,23.0,187.0,1.0,,,,,,,
,,,,,,,67c712364ec9ad3f92b3a339,684429a03fa3be5ac784e29c,2025-06-07_14h02.35.372,shape_ratio,2024.1.5,Win32,59.88023952,684250e4f00cb30b92d1fa88,,,,,,,,,,,234.1125,234.607,,,234.8464,235.4303,left,0.5672,,,,,,,,,0.45,,,,,,234.6071,234.8464,235.4304,"[-0.14420460278028877,-0.11099666841127155]",100.0,"[0.17486276247045957,0.007085592166490099]",4.0,"[0.05347156981674521,-0.043445855173231865]",4.0,"[-0.16603095975462967,-0.06300116307272598]",4.0,"[0.045963865983513694,-0.0006091461580675063]",4.0,"[-0.026329439595409853,-0.0785145928829416]",4.0,"[0.16721272711835186,-0.0741043385137037]",4.0,"[0.15899647684434978,0.10763594630648442]",100.0,"[-0.02792025638208916,0.05668473741155562]",100.0,"[-0.07229765538997708,-0.07546635874739271]",4.0,"[-0.15968750696486106,0.055140932888308784]",4.0,"[-0.06835466551276032,0.10463926835325295]",4.0,"[-0.10991343228504476,0.017271080650901605]",4.0,"[0.064001641020456,0.08239544259070442]",4.0,"[-0.02743985420051351,0.16085241972993503]",100.0,"[0.09612047389474476,-0.09722677435492573]",4.0,"[0.04922534834815951,0.16961516776480287]",100.0,"[-0.1293051631943886,-0.037831101916616025]",100.0,"[0.05212220408719631,-0.18982392033914033]",100.0,"[-0.164483618916787,0.011446580126273231]",100.0,"[0.11330069143911467,0.13702973627173493]",4.0,"[-0.053088830682261015,-0.1489005966741845]",100.0,"[0.005174016434596929,0.005428057814241085]",100.0,"[-0.010286864756457709,-0.16408915674130153]",100.0,"[-0.04058910510940047,-0.03632486762361225]",4.0,"[-0.09564800392659896,-0.16086286120411203]",4.0,"[-0.11747380385327126,0.13504069716984343]",4.0,"[-0.19953838125117818,-0.012000788998540927]",100.0,"[0.12954253203824012,0.029627486945663747]",4.0,"[0.04662961770341548,0.12773733431795573]",100.0,"[0.018568547231416127,0.09403816539409901]",100.0,"[0.0924676193494227,-0.16071896071185834]",4.0,"[0.02,0.02]",236.5252,0.0,24.0,24.0,143.0,1.0,,,,,,,
,,,,,,,67c712364ec9ad3f92b3a339,684429a03fa3be5ac784e29c,2025-06-07_14h02.35.372,shape_ratio,2024.1.5,Win32,59.88023952,684250e4f00cb30b92d1fa88,,,,,,,,,,,236.5264,237.0251,,,237.2759,237.4918,right,0.204,,,,,,,,,0.9,,,,,,237.0251,237.2758,237.4919,"[0.08746929056061582,-0.022407633188568296]",100.0,"[0.13119375419125778,0.038449622907682245]",100.0,"[0.16667761506321452,-0.05669599816671431]",100.0,"[-0.034931536858954275,0.049804260411203345]",100.0,"[0.044446951742467274,0.19331912111804134]",100.0,"[0.1264053010030411,-0.15102830128953706]",100.0,"[0.10596791992072302,-0.09542752344018543]",4.0,"[-0.06594725685193942,-0.04738529170394811]",100.0,"[0.031030014857479214,-0.17393848399338832]",100.0,"[0.026271767189651175,-0.11480317121698282]",100.0,"[-0.003879160495824091,-0.052185901509767985]",100.0,"[0.040597420430490305,0.030523456639171106]",100.0,"[-0.0011317425297370034,0.07610760477832651]",100.0,"[0.13052191069872954,0.08095070716724091]",100.0,"[0.07422478789076693,-0.15337920999750626]",4.0,"[-0.13191307224087467,0.11499024821661369]",100.0,"[0.17337489908587456,0.07013556619204012]",100.0,"[-0.055207758036074535,-0.10807713240483151]",100.0,"[-0.13203333939883816,-0.14501924043074]",100.0,"[-0.007659990426377736,-0.1393944719889852]",100.0,"[-0.05277272717894495,-0.17928826502807654]",100.0,"[0.09190066858323859,0.13320130353601012]",100.0,"[-0.17995095671054567,-0.016623535927978418]",100.0,"[-0.02805777935448926,0.12554232423986517]",100.0,"[0.0677384992021743,0.07626744609433939]",100.0,"[-0.1019805123959134,-0.08097192407992143]",100.0,"[-0.0022594813880601637,0.1648289343425738]",100.0,"[-0.05446595043737783,0.008473541682095256]",100.0,"[-0.12156177285870576,0.057848173222443094]",100.0,"[0.19534713546691695,0.016031406763119666]",100.0,"[0.025333897418072283,0.1163845583997332]",4.0,"[-0.08653051505154324,0.13418201425260373]",100.0,"[0.02,0.02]",238.5821,0.0,25.0,25.0,19.0,1.0,,,,,,,
,,,,,,,67c712364ec9ad3f92b3a339,684429a03fa3be5ac784e29c,2025-06-07_14h02.35.372,shape_ratio,2024.1.5,Win32,59.88023952,684250e4f00cb30b92d1fa88,,,,,,,,,,,238.5827,239.0823,,,239.3329,239.5927,left,0.2353,,,,,,,,,0.4,,,,,,239.0823,239.3328,239.5929,"[0.02736255834077342,-0.11982774869958378]",4.0,"[0.1467639958911243,-0.05424020206712269]",4.0,"[-0.13627674502169887,-0.08132051661845548]",4.0,"[-0.055146269982745494,0.1919823964695309]",4.0,"[0.14297261327224287,0.0009606827621763816]",100.0,"[0.00397105816830672,-0.06798167698277595]",4.0,"[-0.1935931837581375,-0.017461041054554954]",100.0,"[-0.0942571303172183,0.1755732199749621]",100.0,"[0.051935178030591625,0.06745177232076537]",4.0,"[-0.051650745147165306,-0.06130621556779504]",100.0,"[-0.0051859608700642185,0.16364470571594913]",100.0,"[-0.07446700963692528,-0.16959682963541228]",100.0,"[0.12085211294686811,-0.0964231108643258]",4.0,"[-0.0714366601379933,0.029652578351239016]",4.0,"[0.06215308301379184,0.14326867194112852]",100.0,"[-0.04695433301443436,0.14876144997054638]",4.0,"[-0.12912254062809722,0.008722201606197013]",100.0,"[0.09946681106615611,0.03303923665828352]",4.0,"[0.1981789194064354,-0.016141301820651873]",100.0,"[0.03222146347135692,0.023867111972552757]",4.0,"[-0.018307819244758924,0.11006655047577663]",100.0,"[0.03487851676606574,-0.17054273741568918]",4.0,"[-0.008427330371750861,0.04420812092308041]",100.0,"[-0.16054228496258127,0.06166583375973049]",100.0,"[0.1685990620428622,0.06119335944276064]",4.0,"[0.1204259251525799,0.09961447637601381]",4.0,"[-0.008386097655377926,-0.18921121839768326]",4.0,"[0.07260759720679968,-0.1393257712437691]",4.0,"[-0.09529274427546251,-0.12675267047101574]",100.0,"[-0.11387204501011103,-0.04398139552314021]",4.0,"[-0.0256242234732924,-0.09650860715896677]",4.0,"[0.029949520686182663,-0.03620814051557404]",4.0,"[0.02,0.02]",240.6937,0.0,26.0,26.0,174.0,1.0,,,,,,,
,,,,,,,67c712364ec9ad3f92b3a339,684429a03fa3be5ac784e29c,2025-06-07_14h02.35.372,shape_ratio,2024.1.5,Win32,59.88023952,684250e4f00cb30b92d1fa88,,,,,,,,,,,240.6951,241.1833,,,241.4285,241.7611,left,0.3161,,,,,,,,,0.55,,,,,,241.1834,241.4284,241.7612,"[-0.031258513191824565,-0.16798436795195107]",4.0,"[0.09297753734867649,0.013670054391255309]",4.0,"[-0.016670076808097192,0.10592141433394044]",100.0,"[-0.11116421430713527,-0.029565353758955963]",100.0,"[-0.09468332089639926,0.10769153419604147]",4.0,"[0.01470596087698133,-0.12467436546012257]",4.0,"[-0.117489195311487,0.032934777081673125]",100.0,"[0.10249853976589661,-0.04331331851778842]",4.0,"[-0.12296013162295054,-0.09052933011470866]",4.0,"[-0.10414928446165667,-0.13490694485715016]",100.0,"[0.11502267357134204,0.12091926862695895]",100.0,"[-0.0777595188395805,0.17477682799044775]",4.0,"[0.058552763056569694,0.11399351701644816]",4.0,"[0.03365408549851355,-0.03968712355768662]",100.0,"[0.18577313473757928,-0.06410863472064039]",4.0,"[0.028814026457685375,0.08447953025474499]",100.0,"[0.19377513548120376,0.0018346457811208284]",100.0,"[-0.15082737870030663,0.005912702416128438]",4.0,"[0.06542713290112301,-0.08839718889730161]",100.0,"[0.13224012556110537,0.08074161894943126]",4.0,"[-0.03163353719358449,-0.057529163351419624]",100.0,"[-0.13253492998235344,0.12196944163660843]",100.0,"[-0.1663691634282799,0.04319991056383962]",100.0,"[0.011321888582601804,-0.08306700396759181]",4.0,"[0.02469719483867708,0.020593307613907964]",100.0,"[-0.02881668605554657,0.1731716337626003]",100.0,"[-0.06990703886571012,-0.09315494879916485]",4.0,"[0.04926738210135695,-0.19029932734890034]",100.0,"[0.15245698991197998,0.01624236218266595]",100.0,"[-0.0475988691352372,0.06217271084048716]",100.0,"[0.05661996162879101,-0.14617123154871076]",100.0,"[-0.1509740833196881,-0.13040647945337083]",4.0,"[0.02,0.02]",242.8616,0.0,27.0,27.0,68.0,1.0,,,,,,,
,,,,,,,67c712364ec9ad3f92b3a339,684429a03fa3be5ac784e29c,2025-06-07_14h02.35.372,shape_ratio,2024.1.5,Win32,59.88023952,684250e4f00cb30b92d1fa88,,,,,,,,,,,242.8622,243.362,,,243.6127,243.7123,right,0.0902,,,,,,,,,0.4,,,,,,243.362,243.6126,243.7125,"[-0.037157278727751604,0.11765982411930172]",4.0,"[0.0956484086817322,0.09937079029878755]",4.0,"[-0.04421450275008768,-0.002882451401714881]",100.0,"[0.06352406247522865,-0.02876548645789741]",4.0,"[-0.0738274359622165,0.08944755413827996]",100.0,"[0.17422438632382806,0.06350992655760583]",100.0,"[-0.025259783995041224,-0.1314246231512945]",4.0,"[0.1672630511021424,-0.008375580146376743]",4.0,"[0.05962777650339863,-0.1678380847418715]",4.0,"[0.01716568002454974,0.12300520346512943]",4.0,"[0.1325479337653308,-0.0628144804201492]",4.0,"[-0.09052764322677423,0.15275832367132286]",100.0,"[0.06506662126620905,0.18327967605131365]",4.0,"[-0.1321982206246141,-0.04724769795636087]",4.0,"[-0.18136168965594807,-0.07181085828184504]",100.0,"[0.03424915254469783,-0.10832598067097336]",100.0,"[-0.007166116919002057,0.017166588023811966]",100.0,"[0.1315442134316816,0.07123138585893221]",100.0,"[0.11108991357479668,-0.15394738483431233]",4.0,"[-0.0779160894319735,-0.032587387335388456]",4.0,"[-0.01279590929227128,0.07158457134548342]",4.0,"[-0.18964130346910277,0.018437000644069258]",100.0,"[0.12852910175864107,0.13609180036793955]",4.0,"[0.10566948562433323,0.013917527529918247]",100.0,"[-0.06057821194297373,0.0502842943575215]",4.0,"[-0.08363319147980282,-0.095559595321578]",4.0,"[0.013072342832448387,-0.06313117606907855]",100.0,"[-0.006488144837552265,0.18068635454423101]",4.0,"[-0.07354311109974403,-0.1618201071665164]",100.0,"[0.018300196270802444,-0.1970118706790311]",4.0,"[0.08052605706902073,-0.09871729792376656]",4.0,"[0.05590270184325007,0.11243043112426065]",100.0,"[0.02,0.02]",244.8019,0.0,28.0,28.0,168.0,1.0,,,,,,,
,,,,,,,67c712364ec9ad3f92b3a339,684429a03fa3be5ac784e29c,2025-06-07_14h02.35.372,shape_ratio,2024.1.5,Win32,59.88023952,684250e4f00cb30b92d1fa88,,,,,,,,,,,244.8024,245.2963,,,245.5356,246.0496,left,0.4973,,,,,,,,,0.45,,,,,,245.2964,245.5356,246.0496,"[0.04179797299963638,0.030196191195517547]",100.0,"[0.0005155090237065639,0.10496935299114768]",4.0,"[-0.15228978017182654,0.029781699628478295]",4.0,"[0.07271291193419809,-0.14085980388163208]",4.0,"[0.16857228059797458,-0.08153114780123229]",4.0,"[-0.15740191894529737,-0.04966716634679804]",4.0,"[0.07054198361120491,-0.03771809109804342]",4.0,"[-0.026540705015076698,-0.14959167296616185]",100.0,"[-0.031346478092126547,0.07931486516335268]",100.0,"[0.17658378337135328,0.07488589482874346]",100.0,"[0.046786726883703805,0.13522759212318228]",100.0,"[-0.07570054529232577,-0.18455225479169163]",100.0,"[-0.13583177650887462,0.13189719879662087]",4.0,"[0.14872102320329822,0.13050573769489426]",4.0,"[0.17527862815068382,-0.029675781202025714]",100.0,"[-0.1411593918992577,0.08475754590086315]",100.0,"[-0.003880500548143377,0.1747297622032104]",4.0,"[-0.011194654243604716,-0.002224253703073345]",100.0,"[-0.07349297691716306,-0.046131972895642755]",4.0,"[-0.003677448462725677,-0.19892512504956744]",4.0,"[-0.08033645641545804,0.06264982864236188]",4.0,"[-0.11485877792958951,-0.07197309095858029]",100.0,"[0.11545625721591166,-0.11400125556715936]",4.0,"[-0.16585672153859607,-0.09330586730747259]",100.0,"[-0.12778370465638575,-0.11951672818785389]",100.0,"[0.10945891895193678,0.14522484005989258]",100.0,"[-0.03132149027907528,-0.10666565349541214]",4.0,"[0.02325688496627129,-0.14442884173923057]",4.0,"[0.06164173349811961,0.1864004815023452]",100.0,"[0.12384297289522778,0.011981376587386358]",4.0,"[0.11857438494187172,-0.05328511120465011]",4.0,"[0.020660407708744475,0.06721787686721685]",4.0,"[0.02,0.02]",247.1528,0.0,29.0,29.0,124.0,1.0,,,,,,,
,,,,,,,67c712364ec9ad3f92b3a339,684429a03fa3be5ac784e29c,2025-06-07_14h02.35.372,shape_ratio,2024.1.5,Win32,59.88023952,684250e4f00cb30b92d1fa88,,,,,,,,,,,247.1533,247.6473,,,247.9004,249.4039,,,,,,,,,,,0.1,,,,,,247.6475,247.9004,249.404,"[-0.1207726693914212,-0.0962319422332413]",4.0,"[-0.1535842953835447,0.03905438291020953]",4.0,"[0.13433601194838637,-0.06717434619322328]",100.0,"[-0.00019130779415115262,0.18302829093785844]",4.0,"[-0.1889530970010132,-0.004368651647175432]",100.0,"[0.1488149319396287,-0.022374309633489853]",4.0,"[0.1578052213160344,0.05734225153749381]",4.0,"[0.037687537024235135,0.07128045014139923]",4.0,"[-0.07065520493667607,-0.014952210545756506]",100.0,"[0.027763183287014867,-0.19681876508144666]",4.0,"[0.05383735585359127,-0.026379832502079502]",4.0,"[-0.05773727391346858,-0.10789558563409887]",4.0,"[-0.05326754196163152,0.05659865965871374]",4.0,"[0.008518336860094105,-0.012629995672054334]",4.0,"[0.12324580671138755,0.13976166623832537]",4.0,"[-0.12246583162589658,-0.02182664280285664]",4.0,"[-0.16683875445605337,0.09075839872822475]",4.0,"[-0.021326547077451855,-0.08018540431593506]",4.0,"[-0.07480334583684174,0.12458647242220654]",4.0,"[0.10497224014833832,-0.15395965004517123]",4.0,"[-0.08947472535570046,0.028141037608759762]",4.0,"[0.07600940113008799,0.008205724926170976]",4.0,"[-0.033709858305441584,0.012339069176310074]",4.0,"[-0.12243826548603544,0.07528558718016165]",4.0,"[0.10733203830927913,0.05326276018988938]",4.0,"[0.05646234039062369,-0.14370941957715722]",4.0,"[0.03738822478223121,0.15225778904722462]",4.0,"[-0.1300147257153129,0.1464050147908001]",4.0,"[-0.08371913013017294,-0.07403115291200024]",4.0,"[-0.15617923609802603,-0.12317625701540426]",4.0,"[-0.004237205272836316,0.0485443868632531]",4.0,"[-0.07612171123379624,-0.15059141162489975]",4.0,"[0.02,0.02]",250.5016,0.0,30.0,30.0,205.0,1.0,,,,,,,
,,,,,,,67c712364ec9ad3f92b3a339,684429a03fa3be5ac784e29c,2025-06-07_14h02.35.372,shape_ratio,2024.1.5,Win32,59.88023952,684250e4f00cb30b92d1fa88,,,,,,,,,,,250.5025,250.9996,,,251.239,251.4327,left,0.1747,,,,,,,,,0.9,,,,,,250.9996,251.2389,251.4329,"[-0.09291474824042219,0.011726508545259393]",100.0,"[-0.05889347283844188,-0.1667222398133188]",100.0,"[-0.06372300048836801,-0.07732023634358431]",100.0,"[0.0548250257471172,0.0007641689082213841]",100.0,"[-0.1115889718533303,0.159595569085863]",100.0,"[0.11501203177753773,0.08013455343215228]",100.0,"[0.11238484488001446,-0.12005404568490145]",100.0,"[0.1452546703787601,-0.03589943078147135]",100.0,"[-0.001920799356113318,-0.08341012768827655]",4.0,"[0.01959700129403811,-0.12347182947476362]",100.0,"[0.17024998138774367,0.05874776955090138]",100.0,"[0.052049805426772594,-0.08078495677937807]",4.0,"[0.07113536540180475,-0.1235196279531077]",100.0,"[-0.03277070270442214,0.19192337270245857]",100.0,"[-0.050874160132976576,-0.03228834601237893]",100.0,"[-0.014357203974456771,0.12600703231915236]",100.0,"[0.04594811961337433,0.09849382770692518]",100.0,"[-0.17142812122975323,0.0012280676659748222]",100.0,"[0.07045464706298346,0.1388183652791617]",100.0,"[0.09282269633914503,-0.03881313038668208]",100.0,"[0.11212368884590243,0.12156659618406598]",100.0,"[-0.1140302298271924,0.11814593742790994]",4.0,"[-0.09922736474965448,-0.10130972745953308]",100.0,"[-0.17149858887872887,0.04819726570523231]",100.0,"[-0.11662522725898718,-0.162001266741485]",100.0,"[-0.05101809768226726,0.042328371399360507]",100.0,"[0.0562926143805377,-0.16543011639209654]",100.0,"[0.12225000986622793,0.032439728191660966]",100.0,"[0.15039581376972808,0.10016664366145518]",100.0,"[0.19705493917556752,0.00558891369987554]",100.0,"[-0.019322563430226158,0.07490588303851345]",100.0,"[0.01882066514436268,0.049146922568971824]",100.0,"[0.02,0.02]",252.5229,0.0,31.0,31.0,2.0,1.0,,,,,,,
,,,,,,,67c712364ec9ad3f92b3a339,684429a03fa3be5ac784e29c,2025-06-07_14h02.35.372,shape_ratio,2024.1.5,Win32,59.88023952,684250e4f00cb30b92d1fa88,,,,,,,,,,,252.5233,253.0185,,,253.2739,253.4673,left,0.1745,,,,,,,,,0.6,,,,,,253.0185,253.2738,253.4674,"[-0.015092258130821995,-0.08877445267954993]",100.0,"[-0.01910594052464545,0.1438748894805293]",100.0,"[0.030440749079654265,-0.11750943107553757]",4.0,"[0.06051441169929996,-0.059047712735010124]",100.0,"[0.1229316701433905,0.04135171671802878]",4.0,"[-0.0947385875408953,0.16603416084712933]",100.0,"[0.16902537830481668,0.08512562568852212]",100.0,"[0.11743012329825243,0.1253005710478533]",4.0,"[0.08623917836968104,0.01611115810241656]",100.0,"[0.18896331317956402,-0.03687329616135953]",100.0,"[0.1415042419720713,-0.09836335172349718]",4.0,"[-0.11486527145835701,-0.02401611635621969]",4.0,"[0.09776537625745513,-0.12063613528514215]",100.0,"[-0.018899390269756827,0.18625101931188356]",4.0,"[-0.09898901704896171,0.08376052229641023]",4.0,"[0.12295752060160949,-0.03442415696475979]",100.0,"[0.09938090253879177,-0.07701125117298352]",100.0,"[0.06840696294205366,0.0650896600853391]",100.0,"[-0.18851230041104455,-0.039314167129701726]",100.0,"[0.008700015225738975,-0.0348093866288668]",4.0,"[-0.04717147590358188,-0.006954925457883926]",100.0,"[0.15593550574524523,0.01435016065284449]",4.0,"[-0.031428570574691325,0.03723318655484895]",100.0,"[-0.07755437579295213,0.03420941939244536]",4.0,"[-0.01824979393810392,-0.15003154197604202]",100.0,"[-0.08452089759785149,-0.15903905117119543]",100.0,"[-0.15143977464405572,0.015515401551994877]",100.0,"[0.055180917191404465,0.10673387659951986]",100.0,"[-0.040222220904631796,0.0949731605992437]",4.0,"[0.07196975231029924,0.17359982498405752]",4.0,"[-0.18980798621869407,0.05739880147625355]",100.0,"[-0.1174963067314229,-0.09931615730414525]",4.0,"[0.02,0.02]",254.5574,0.0,32.0,32.0,53.0,1.0,,,,,,,
,,,,,,,67c712364ec9ad3f92b3a339,684429a03fa3be5ac784e29c,2025-06-07_14h02.35.372,shape_ratio,2024.1.5,Win32,59.88023952,684250e4f00cb30b92d1fa88,,,,,,,,,,,254.5579,255.0518,,,255.2916,255.6067,left,0.2988,,,,,,,,,0.6,,,,,,255.0518,255.2915,255.6068,"[0.06501500350665365,-0.058118092677579766]",100.0,"[-0.1745606521833297,0.0316200394543993]",4.0,"[0.015596732588077138,-0.017761062801951024]",4.0,"[-0.055734767593349596,-0.09565151147745159]",4.0,"[-0.05930231948091224,0.033654933691711915]",4.0,"[0.17937611514485702,-0.0021741963714058906]",100.0,"[-0.13295519233935196,-0.08348880217286447]",100.0,"[0.0621537479772254,0.1820262133242485]",100.0,"[0.1750465495565993,-0.08931950921364916]",100.0,"[-0.010532722016806072,0.05366840690932669]",100.0,"[-0.09557275749360256,-0.06866366739760763]",4.0,"[-0.14822517612045502,0.09285537265293474]",100.0,"[0.12730481999751223,-0.027694948125165802]",4.0,"[0.14628706732578103,-0.1346103261552884]",4.0,"[-0.0925489574780739,0.1537058626486529]",100.0,"[0.022796649229538297,0.1216219017059268]",100.0,"[0.004928106884781228,0.18334551956062173]",100.0,"[0.15388417678223124,0.05110599618598376]",100.0,"[-0.04959695977533903,0.1626118556055986]",100.0,"[-0.13725767017562615,0.048651331549732925]",4.0,"[0.09566469836488803,-0.1500602807006078]",100.0,"[0.06745279316144141,0.07458618810182385]",100.0,"[-0.07934861247800001,-0.00755732237352623]",4.0,"[-0.03048828195697803,-0.01693033622383389]",100.0,"[-0.06301493457205094,0.12439585063149695]",100.0,"[0.12500264558042823,0.09726267871990442]",4.0,"[-0.05210213910279171,-0.16520931978410158]",100.0,"[0.05667572701924454,-0.13488662919401528]",100.0,"[0.03333427571857573,0.04149685307261944]",4.0,"[-0.00799786836998909,-0.13842347388955661]",100.0,"[0.07617149734015569,0.13782199940528433]",4.0,"[0.08375032159122718,-0.017367430172263398]",4.0,"[0.02,0.02]",256.7027,0.0,33.0,33.0,45.0,1.0,,,,,,,
,,,,,,,67c712364ec9ad3f92b3a339,684429a03fa3be5ac784e29c,2025-06-07_14h02.35.372,shape_ratio,2024.1.5,Win32,59.88023952,684250e4f00cb30b92d1fa88,,,,,,,,,,,256.7036,257.209,,,257.4596,257.8432,left,0.3678,,,,,,,,,0.5,,,,,,257.209,257.4595,257.8433,"[-0.00922609794297392,-0.1570554716678131]",100.0,"[-0.12991898688293874,-0.07207821002975924]",4.0,"[-0.10522262347218468,0.05683566481423787]",4.0,"[0.05465754659531879,0.037714538064513796]",4.0,"[-0.075419910104276,-0.028606766462286402]",100.0,"[0.014011678975061727,0.16009557881384648]",4.0,"[0.04055148224846035,-0.18348298366742313]",4.0,"[0.195207116115263,-0.01893015336400804]",4.0,"[0.16261405883522229,0.022218670824423473]",4.0,"[-0.024805983025607308,0.07388665292306577]",4.0,"[-0.16574656411300767,0.02631948807621761]",100.0,"[0.016048911004449135,-0.07205211883960445]",100.0,"[-0.12379710012175613,0.015072413469518696]",4.0,"[0.13119307223350732,0.1486832376758954]",4.0,"[-0.027534610311685435,-0.09685169118194112]",4.0,"[0.08445978621015392,-0.1547594286295575]",100.0,"[0.12241225341531335,0.10617718736981371]",100.0,"[0.09585771847888765,-0.07377473678466424]",100.0,"[-0.06406695022929457,-0.14210389678765942]",100.0,"[-0.0692037075440063,-0.09418114200313663]",100.0,"[0.057151078037496306,-0.020145617699221966]",100.0,"[-0.05514434644352411,0.11720402755664018]",4.0,"[0.1786087158367396,-0.08343355131712057]",4.0,"[0.055978624370323686,0.07812037019227969]",100.0,"[0.04663284097490911,0.13154985935835636]",100.0,"[0.09006046109751534,0.1703296392837138]",4.0,"[-0.1075710556441598,0.10372234421226556]",100.0,"[0.11992329555094013,-0.003435151099392806]",100.0,"[-0.1730459353733645,-0.023271706086950644]",4.0,"[0.13230548075575618,-0.1402595663792399]",4.0,"[-0.12022527355845349,-0.11624989804165556]",100.0,"[-0.060536764941624216,0.1782359809351427]",100.0,"[0.02,0.02]",258.9373,0.0,34.0,34.0,97.0,1.0,,,,,,,
,,,,,,,67c712364ec9ad3f92b3a339,684429a03fa3be5ac784e29c,2025-06-07_14h02.35.372,shape_ratio,2024.1.5,Win32,59.88023952,684250e4f00cb30b92d1fa88,,,,,,,,,,,258.9381,259.4373,,,259.6941,259.8541,right,0.1405,,,,,,,,,0.45,,,,,,259.4374,259.694,259.8542,"[0.07980979753832697,0.16457119951293722]",100.0,"[-0.10699208321823127,-0.05313323856911586]",4.0,"[0.049614421716424585,0.05218938096956374]",4.0,"[0.14134397605654284,0.03331564579555369]",4.0,"[-0.10581650892412642,0.16662675258450094]",100.0,"[-0.00649839970567657,0.09408236991308377]",100.0,"[0.04439932667080253,-0.0025743542750776504]",4.0,"[0.1972381068414998,-0.02746385410277036]",100.0,"[-0.01550219220520129,-0.0265993399261434]",100.0,"[0.045613923377728044,-0.10401954507530746]",100.0,"[0.14835650219479837,-0.039786004269962115]",4.0,"[-0.19602626655371244,-0.03008216699380546]",100.0,"[0.11365962457058441,-0.010657643527150434]",100.0,"[-0.09767637605878297,0.08470268324303835]",4.0,"[-0.1037813144478344,0.033912450320785166]",4.0,"[-0.004194801572071872,0.14098757552287838]",4.0,"[-0.15574596509022565,-0.024073779019184775]",100.0,"[-0.05275539751792746,0.06911734778251612]",4.0,"[-0.03181033753838468,0.01441532022334841]",100.0,"[0.17733300541452404,0.06463600212523507]",4.0,"[0.13210105529972413,-0.10717162325490397]",4.0,"[0.1456242006532591,0.1352217744668451]",100.0,"[-0.14500241536546393,0.13332492481125693]",100.0,"[-0.06927564696153458,-0.10791283725332393]",4.0,"[0.06901507508486973,-0.17243487038827435]",4.0,"[0.09208092499980398,0.09487542063306077]",4.0,"[-0.17450791113763964,0.024195529336360846]",4.0,"[-0.0013585836551447265,0.05019381349193823]",4.0,"[-0.02839054378196537,-0.13045699188273602]",4.0,"[-0.042233541394754735,0.1595027211687778]",4.0,"[0.025984044981101476,-0.06280343122242688]",100.0,"[-0.047355044007901845,-0.06076746680051692]",100.0,"[0.02,0.02]",260.9443,0.0,35.0,35.0,127.0,1.0,,,,,,,
,,,,,,,67c712364ec9ad3f92b3a339,684429a03fa3be5ac784e29c,2025-06-07_14h02.35.372,shape_ratio,2024.1.5,Win32,59.88023952,684250e4f00cb30b92d1fa88,,,,,,,,,,,260.9447,261.4437,,,261.6893,262.7062,left,1.0028,,,,,,,,,0.1,,,,,,261.4438,261.6892,262.7063,"[-0.10251047931741931,0.12397729227863843]",4.0,"[-0.16568143262020088,-0.060790576666136666]",4.0,"[-0.04929098035076728,0.1747187862208534]",4.0,"[0.08872411743036139,0.033237507438920975]",4.0,"[-0.045367673924726536,-0.10367773103980807]",4.0,"[0.08796947262793356,-0.045090588857406674]",4.0,"[0.04863676173896009,-0.06637940397541603]",4.0,"[0.0526709461300129,0.013839884612747424]",4.0,"[0.059978586492202154,-0.154460158671919]",4.0,"[-0.06465008973918798,0.06564775845345015]",4.0,"[-0.014045957419027488,-0.0008554285518549669]",4.0,"[0.06577540291783436,0.07760776243747143]",4.0,"[0.05799640508637482,0.18270508416540907]",4.0,"[0.15958023568307458,-0.11825163315938522]",100.0,"[0.13457231352476423,0.048427834393153325]",4.0,"[0.03157531593777401,0.1380568826671766]",4.0,"[0.10773107532421958,-0.1085614439425873]",4.0,"[-0.13503425493391358,0.004339311349135555]",4.0,"[0.17987817822463742,0.08034071021931971]",4.0,"[0.1661121338353744,0.0009659492568253056]",4.0,"[-0.003902010331056797,-0.14540034047747313]",100.0,"[-0.14432753512120344,0.11034586742927319]",4.0,"[-0.009753273417670695,0.07189473279397467]",4.0,"[-0.11642780019752415,-0.06435563506160638]",100.0,"[0.11552483296611706,0.1333075729249007]",4.0,"[-0.010767304160608077,0.11471085043116805]",4.0,"[-0.058212367798641924,-0.051601824536365214]",4.0,"[-0.10563004977507993,-0.10689691564418252]",4.0,"[-0.028202720200973388,-0.18981320785025074]",4.0,"[0.0392288044089394,-0.11265319254917334]",4.0,"[-0.1781587128282159,0.04941694169011381]",4.0,"[-0.18150120068632114,-0.011342533887737608]",4.0,"[0.02,0.02]",263.8063,0.0,36.0,36.0,203.0,1.0,,,,,,,
,,,,,,,67c712364ec9ad3f92b3a339,684429a03fa3be5ac784e29c,2025-06-07_14h02.35.372,shape_ratio,2024.1.5,Win32,59.88023952,684250e4f00cb30b92d1fa88,,,,,,,,,,,263.8073,264.3119,,,264.5598,264.9634,right,0.3836,,,,,,,,,0.6,,,,,,264.3119,264.5597,264.9634,"[0.1924895748391813,-0.0006547977309089705]",100.0,"[-0.09142850818496821,0.025286437277927308]",4.0,"[0.03651293244402926,-0.13130323387540666]",100.0,"[-0.17597138001726254,-0.08285883416236166]",4.0,"[-0.09106275690768181,0.16768706835179586]",4.0,"[0.042550204801833025,0.1570656283116861]",4.0,"[-0.14914700068567685,0.12377278750139413]",100.0,"[0.025201542308644825,-0.03729738683293272]",100.0,"[0.12435964991125466,0.06142160783107072]",100.0,"[-0.09215610422860121,0.08917806398080985]",4.0,"[-0.032558168162694724,0.11345881823601713]",100.0,"[0.008005946501289803,0.060173063609803484]",100.0,"[0.0667004516821061,0.015821172573209776]",100.0,"[0.07337361789233857,-0.03883104450751864]",100.0,"[0.07350259793641252,0.11090826080465394]",100.0,"[-0.08791048332403684,-0.029102441949806986]",4.0,"[0.1103715559380567,-0.15577689983284673]",4.0,"[-0.03483106429439363,-0.08093160928323859]",100.0,"[-0.10076279743637544,-0.07864726863888004]",4.0,"[0.14032099970460724,0.017389097892338404]",100.0,"[-0.17123523027043575,0.034572643398841627]",100.0,"[0.17466489829949514,0.049998823997607716]",4.0,"[-0.12056194050426548,-0.1397901969118238]",4.0,"[-0.13186583480469594,0.053115458552908154]",100.0,"[0.16496285829098467,0.09554348907841956]",100.0,"[0.17178914789537109,-0.046363110348026614]",100.0,"[0.1299643023773799,0.13834343400028082]",100.0,"[-0.017155387034531774,-0.03334729016211024]",100.0,"[-0.16007055175539173,-0.003933872282556573]",4.0,"[0.09567555756276858,-0.08287273654242049]",100.0,"[-0.054922798099741425,0.008739499957738452]",4.0,"[-0.035161594690816464,0.0724754390490171]",4.0,"[0.02,0.02]",266.0639,0.0,37.0,37.0,41.0,1.0,,,,,,,
,,,,,,,67c712364ec9ad3f92b3a339,684429a03fa3be5ac784e29c,2025-06-07_14h02.35.372,shape_ratio,2024.1.5,Win32,59.88023952,684250e4f00cb30b92d1fa88,,,,,,,,,,,266.0645,266.5639,,,266.8148,267.0588,left,0.2194,,,,,,,,,0.45,,,,,,266.5639,266.8148,267.059,"[0.008338582705770937,-0.05416700927565271]",100.0,"[-0.06759734206481001,-0.013724095069574742]",4.0,"[-0.08737049974235145,0.07732796303773672]",100.0,"[0.1687278042048422,-0.021331617268567256]",100.0,"[0.0986760673307973,0.12576372353840115]",100.0,"[-0.10559822533489806,0.1650437626247583]",4.0,"[0.02103760658499814,0.04201799796918681]",100.0,"[0.08237854495516182,0.0093141669151996]",4.0,"[0.1523766671693166,0.03744657619835273]",4.0,"[-0.012442471728061011,-0.19017098153199014]",4.0,"[0.01608319966620443,-0.14704209881480954]",100.0,"[0.14562213239413435,0.08499701916276836]",4.0,"[-0.15735397257040856,-0.08952351178691198]",4.0,"[0.08578323966999957,-0.07657382347283946]",4.0,"[0.12237935274508366,-0.0059849616405930825]",4.0,"[-0.0362457057473169,0.1318367190546222]",4.0,"[-0.17250333086989353,-0.03978000263259283]",100.0,"[0.059996447509016025,0.0545235199825108]",100.0,"[-0.09427410592732259,-0.045081147689823665]",100.0,"[0.15991659957595775,-0.06225908576761925]",100.0,"[0.1956632799958288,0.009021984530273142]",4.0,"[0.08413204515244889,0.17414719000122428]",4.0,"[-0.18947234037905578,0.044984027897758294]",4.0,"[0.014342365210478379,0.12000921513507815]",4.0,"[-0.005040415425197676,0.003368430077167703]",4.0,"[0.05936185063320056,-0.18077985755386736]",100.0,"[0.08805015634122511,-0.035566326605111616]",100.0,"[0.03613236963153053,0.19407794114901042]",4.0,"[-0.04582543711001096,-0.12107567228523404]",100.0,"[-0.025045035965049468,0.04793816901419985]",4.0,"[-0.030156089206656002,-0.07833107321739682]",4.0,"[-0.08337146041028845,0.03697675043884406]",100.0,"[0.02,0.02]",268.1648,0.0,38.0,38.0,146.0,1.0,,,,,,,
,,,,,,,67c712364ec9ad3f92b3a339,684429a03fa3be5ac784e29c,2025-06-07_14h02.35.372,shape_ratio,2024.1.5,Win32,59.88023952,684250e4f00cb30b92d1fa88,,,,,,,,,,,268.1653,268.6616,,,268.9159,269.1429,right,0.2016,,,,,,,,,0.1,,,,,,268.6616,268.9158,269.1432,"[0.047329933530915906,-0.10873685415618851]",4.0,"[0.18578862236389476,0.043799529557741045]",4.0,"[0.05639732076840725,-0.1906067989829596]",4.0,"[0.10832988760634837,-0.09675955129205252]",4.0,"[-0.11931821835850245,0.14219535651972998]",4.0,"[-0.08128117369219691,-0.08861903287004005]",4.0,"[0.029274482389380723,-0.06567968782165948]",4.0,"[-0.1685738020987158,-0.006556020317751161]",4.0,"[0.07319256733547763,0.04568338724500967]",4.0,"[0.06054686081546573,0.1556033356835095]",4.0,"[-0.04225311736063844,0.10350983015922345]",4.0,"[0.010087782639980903,0.024489919643371147]",100.0,"[0.04556031875496809,-0.027151455375104015]",4.0,"[-0.14740073011731608,-0.11478603885831389]",4.0,"[0.1150004014180698,-0.005244961284478064]",4.0,"[-0.070446216929055,0.05346273328786564]",4.0,"[0.1318084517697384,-0.05354838366299838]",4.0,"[-0.09021122711877787,-0.006259303040465048]",4.0,"[0.0257892073416734,0.19549860149291406]",100.0,"[0.07122838316507948,0.1040302023446948]",4.0,"[0.14524523899805938,-0.12085048618939534]",100.0,"[0.17402974617830377,-0.0002990453548133454]",4.0,"[-0.1353933354920463,0.02955731011313967]",4.0,"[-0.02513150079599189,-0.03413397685471736]",4.0,"[-0.17222639922106925,0.04759909552068253]",4.0,"[-0.03250677290816932,-0.1549592999992472]",4.0,"[0.12544426901319986,0.10561418129268166]",4.0,"[0.03799907927974242,0.08110075053115048]",4.0,"[-0.06282719249088413,-0.04850742346516777]",4.0,"[-0.13281028307330717,0.10341344627102443]",4.0,"[0.09529205100328028,-0.1579263288016315]",4.0,"[0.002303911965644041,0.13904788228391757]",4.0,"[0.02,0.02]",270.2485,0.0,39.0,39.0,196.0,1.0,,,,,,,
,,,,,,,67c712364ec9ad3f92b3a339,684429a03fa3be5ac784e29c,2025-06-07_14h02.35.372,shape_ratio,2024.1.5,Win32,59.88023952,684250e4f00cb30b92d1fa88,,,,,,,,,,,270.2489,270.7496,,,270.9949,271.2501,right,0.2336,,,,,,,,,0.1,,,,,,270.7497,270.9949,271.2502,"[0.08629517352108006,0.16575110713023022]",4.0,"[0.0002700304660140981,0.012470909836698732]",4.0,"[-0.1010193397329457,-0.16026096906734244]",4.0,"[-0.008344573392691346,-0.130351419507578]",4.0,"[-0.007136452405887595,0.170401087694414]",4.0,"[0.0792203964036604,0.09120842984722895]",4.0,"[0.07648707894006342,-0.09777207219421005]",4.0,"[0.19046432806079594,-0.0123706327387792]",4.0,"[-0.0328776129292834,-0.04698743114611622]",4.0,"[-0.12356170355137558,-0.05149433977695978]",4.0,"[-0.16727774811054816,0.10554151212851638]",100.0,"[-0.08771303478171982,-0.018644681670724403]",4.0,"[-0.031141826172729634,0.04397590427069863]",4.0,"[0.09560722374474796,-0.15045216616860055]",4.0,"[0.10536627849842496,-0.06618255218925082]",4.0,"[-0.17958313038932325,-0.053919307927208976]",4.0,"[-0.03574249273624111,-0.09912078738803272]",4.0,"[0.1752272841726458,-0.06072638101103943]",4.0,"[0.14784558136786274,0.015230755838910565]",4.0,"[-0.07712874846250568,0.12098107335353635]",4.0,"[-0.11042090436616486,-0.09803108942829772]",4.0,"[-0.17672846963963865,0.008584818168270067]",100.0,"[0.07670523989658537,0.025295256104838425]",100.0,"[-0.07814980123386203,0.02218806412631572]",4.0,"[0.036345993541599675,0.06311355044678021]",4.0,"[0.061606880205425416,0.12944823486632714]",4.0,"[0.1849072693860086,0.06531864862557593]",4.0,"[0.1240581798550559,0.05707893058388809]",4.0,"[0.06562684623514037,-0.058385559482547575]",4.0,"[0.13138442687944432,-0.10585933679648868]",4.0,"[0.10790509397450987,-0.014060984811588738]",4.0,"[0.03669024436100595,-0.01701847886385996]",4.0,"[0.02,0.02]",272.3497,0.0,40.0,40.0,198.0,1.0,,,,,,,
,,,,,,,67c712364ec9ad3f92b3a339,684429a03fa3be5ac784e29c,2025-06-07_14h02.35.372,shape_ratio,2024.1.5,Win32,59.88023952,684250e4f00cb30b92d1fa88,,,,,,,,,,,272.3502,272.8509,,,273.0958,273.6122,left,0.498,,,,,,,,,0.9,,,,,,272.8509,273.0958,273.6123,"[0.04026996997313877,-0.1292611258799119]",100.0,"[0.0781853487748289,-0.059670176242563995]",100.0,"[0.12328424213083782,-0.07853885364498676]",100.0,"[0.13076555020684114,-0.011387513384090362]",100.0,"[-0.16738063797907005,0.0006470161580752731]",100.0,"[-0.031119604746295965,0.1244118050175627]",100.0,"[-0.006156583451747297,-0.06383909871401929]",100.0,"[-0.005567377295504448,0.056992930725401666]",4.0,"[-0.06405320893855687,-0.18579532420528114]",100.0,"[-0.1599065827485241,-0.0801237446236976]",100.0,"[0.10798814609193359,-0.1214880468520944]",4.0,"[-0.1229925537729187,0.033755246190312935]",100.0,"[0.18870978229642657,0.05630523558778759]",100.0,"[0.03308526310056935,0.12283253249416333]",100.0,"[0.17065346925398867,-0.022400065172011322]",100.0,"[0.11645427154091487,0.07572998618439773]",100.0,"[-0.07428494332583863,0.1548651755682795]",100.0,"[-0.04507262895653317,0.031427367945237074]",100.0,"[-0.14350736222621382,0.08381033423939159]",100.0,"[-0.08241449978033374,-0.12174304990638699]",100.0,"[0.1296476339405812,0.152194651691807]",100.0,"[-0.11001130256495423,-0.08183435208225019]",100.0,"[-0.11938473590379961,-0.1483663774602272]",100.0,"[0.06453988993227504,0.05225098176650315]",100.0,"[-0.017294234226223365,-0.16111867725384552]",100.0,"[0.16736184127528012,-0.10850356776492623]",100.0,"[0.00999175757624048,-0.01403315093397137]",100.0,"[0.034047542895911886,0.07969243055275169]",100.0,"[-0.09509652502883402,0.0918304489854425]",4.0,"[0.0108965160621207,-0.19819985900268441]",100.0,"[0.14555337147013528,0.0364373414670528]",100.0,"[-0.054877091050608326,-0.02976580460793214]",100.0,"[0.02,0.02]",274.7126,0.0,41.0,41.0,18.0,1.0,,,,,,,
,,,,,,,67c712364ec9ad3f92b3a339,684429a03fa3be5ac784e29c,2025-06-07_14h02.35.372,shape_ratio,2024.1.5,Win32,59.88023952,684250e4f00cb30b92d1fa88,,,,,,,,,,,274.7136,275.2131,,,275.4639,275.7297,left,0.2545,,,,,,,,,0.5,,,,,,275.2131,275.4639,275.7297,"[0.050028348099507965,0.05997220885085658]",4.0,"[0.16438597997399415,-0.06994591931547595]",100.0,"[0.004015447924163578,0.06850333027210438]",100.0,"[-0.008926064780009298,0.005193327559834316]",4.0,"[-0.0939297358590149,-0.09709739615542168]",100.0,"[-0.16629223651876351,0.10716933918404041]",4.0,"[0.1713115905179589,0.04521425035634298]",4.0,"[0.13567281567162548,-0.008588293384431036]",100.0,"[0.055129643980097565,0.12356773204776035]",4.0,"[0.14844851753554356,0.09807827752627886]",4.0,"[-0.12156818748347796,-0.14492977390987125]",100.0,"[-0.028386567609049465,0.14757341719809894]",4.0,"[-0.10917435742996116,0.04020506636307258]",100.0,"[0.012812647636321704,0.1392856766408928]",4.0,"[0.05657383159898347,-0.14902103370558145]",4.0,"[-0.14563912069306206,-0.09727060693993562]",100.0,"[0.09772433471289937,-0.14509689320048172]",4.0,"[0.028338039773546722,0.1868177125882194]",100.0,"[0.0935217951478464,0.06488208859469935]",100.0,"[-0.0007418149580069379,-0.07692696796701597]",4.0,"[0.012909980933556449,-0.1353366453542733]",100.0,"[-0.04990764477667279,-0.14088381109839287]",4.0,"[-0.09129130718129991,0.00015716046688844494]",100.0,"[-0.052151345492063274,-0.0400414752535696]",100.0,"[0.07184427490037669,0.02615138408486268]",100.0,"[0.1107871526311247,0.12409978214228509]",100.0,"[-0.06681561263346626,0.08992066708374227]",4.0,"[-0.022522262156311958,-0.1706691555841461]",100.0,"[-0.10965880800866383,0.1000109360837961]",4.0,"[-0.19923281418247643,0.006559984195786281]",4.0,"[-0.12164836230556976,-0.06332824571004497]",100.0,"[0.08133607020942646,-0.02200927193817395]",4.0,"[0.02,0.02]",276.8304,0.0,42.0,42.0,117.0,1.0,,,,,,,
,,,,,,,67c712364ec9ad3f92b3a339,684429a03fa3be5ac784e29c,2025-06-07_14h02.35.372,shape_ratio,2024.1.5,Win32,59.88023952,684250e4f00cb30b92d1fa88,,,,,,,,,,,276.8315,277.3306,,,277.5814,278.0646,left,0.467,,,,,,,,,0.6,,,,,,277.3307,277.5812,278.0646,"[0.05835685100958471,-0.15716371897529555]",4.0,"[0.00019741938554546857,-0.006165628189631432]",4.0,"[0.06135935113044723,-0.008442443825829432]",100.0,"[-0.05677576454270498,-0.1898881496001472]",4.0,"[-0.0674169269805689,0.08423483103467376]",100.0,"[0.01574794019217208,0.09153538321836366]",100.0,"[-0.10425809272751768,0.10468676547156296]",4.0,"[-0.06401427804025407,-0.0053459383597909685]",100.0,"[0.1656179304633744,-0.10770540253706182]",100.0,"[-0.06372805370756614,-0.09236020972885874]",100.0,"[0.02725665954009371,0.14590956087873422]",4.0,"[0.0824216604804561,0.10484552378244817]",100.0,"[-0.15141063891706236,-0.08282805482380663]",4.0,"[-0.17097283147345013,0.09730743521336081]",4.0,"[-0.16605183732438533,-0.03559776845817507]",100.0,"[-0.1105657469880144,-0.02097931197550627]",100.0,"[-0.07326547721504066,0.1524810298807002]",4.0,"[0.10052588200127528,-0.05118727028855352]",4.0,"[0.008415470201131961,0.19361578622148543]",100.0,"[0.027728938564214448,-0.04565550106242405]",4.0,"[0.06688148644427273,0.06277973447272604]",100.0,"[-0.040603167507000854,0.1273153497583043]",4.0,"[-0.18865889549723217,0.015279284922853008]",4.0,"[0.19078089469996085,-0.050198106287151184]",100.0,"[0.02318601239894896,0.05192543358861213]",100.0,"[0.14612289518578134,0.021442321448899578]",100.0,"[0.10919961652159121,-0.15843960922642775]",100.0,"[0.16233959635899506,0.08389152718566044]",100.0,"[-0.10454000108884316,-0.16473158491094866]",100.0,"[0.11478537649091775,0.07791044765951688]",100.0,"[0.12111687336574015,0.15221951161248287]",4.0,"[-0.00789021545529763,-0.06982007022933467]",100.0,"[0.02,0.02]",279.1713,0.0,43.0,43.0,54.0,1.0,,,,,,,
,,,,,,,67c712364ec9ad3f92b3a339,684429a03fa3be5ac784e29c,2025-06-07_14h02.35.372,shape_ratio,2024.1.5,Win32,59.88023952,684250e4f00cb30b92d1fa88,,,,,,,,,,,279.1718,279.6656,,,279.9167,280.1226,right,0.1846,,,,,,,,,0.1,,,,,,279.6657,279.9166,280.1226,"[0.049175349661626865,0.19292729193350686]",100.0,"[0.10338677841305598,-0.0004594779254098512]",4.0,"[0.08331262179740273,0.08589003599523383]",4.0,"[0.1279531524073613,0.061166530348336946]",4.0,"[-0.010071716993738919,0.0356246065745449]",4.0,"[-0.0636088902788593,0.019927092980128028]",4.0,"[0.19262250934498987,0.010335015669126982]",4.0,"[-0.05454732442672013,0.0770585785818949]",4.0,"[-0.09456381589869844,-0.07540693523146154]",4.0,"[-0.04367060639380974,-0.03269861661928394]",4.0,"[-0.12303868711238283,-0.1455295531491997]",4.0,"[-0.03832320598398535,-0.13132088354094867]",4.0,"[0.13729475091810797,-0.029083728850182965]",4.0,"[-0.08528415576276421,0.10410687854954327]",100.0,"[0.13518257984585244,-0.11428790103335115]",4.0,"[-0.004810149847121543,0.17851825121012918]",100.0,"[0.15186219465187611,-0.07155728419893129]",4.0,"[0.04181110021292013,0.10720683010639097]",4.0,"[-0.10453878767044568,0.15507097469348716]",4.0,"[-0.11567196322224334,0.04164909591007379]",4.0,"[-0.004555325280043543,-0.15851528486847002]",4.0,"[0.13928466561068614,0.02113945040718952]",4.0,"[-0.17879273956628672,-0.05321495177980683]",4.0,"[-0.17633491746961485,-0.00810786565950392]",4.0,"[0.08115073778691821,-0.17355714880968748]",4.0,"[0.0035928227776693016,0.07783045335652145]",4.0,"[-0.03992311326777847,0.15390682485097723]",4.0,"[0.10577948700290848,-0.07458087292643653]",4.0,"[0.0745604160250652,0.034107893941273296]",4.0,"[0.024120793355282777,-0.014804675740447292]",4.0,"[0.06542247242248422,-0.016100209836080435]",4.0,"[0.11346334882042228,0.15785007333778592]",4.0,"[0.02,0.02]",281.2165,0.0,44.0,44.0,180.0,1.0,,,,,,,
,,,,,,,67c712364ec9ad3f92b3a339,684429a03fa3be5ac784e29c,2025-06-07_14h02.35.372,shape_ratio,2024.1.5,Win32,59.88023952,684250e4f00cb30b92d1fa88,,,,,,,,,,,281.2174,281.7167,,,281.9677,282.3507,left,0.3664,,,,,,,,,0.9,,,,,,281.7167,281.9676,282.3509,"[0.07903595311057232,-0.044759581906461315]",100.0,"[0.10513371982684436,0.12847537184456176]",100.0,"[0.11264928373493639,0.01111180753899853]",100.0,"[0.06357700661694736,0.11601535390665833]",100.0,"[0.03140777501926723,-0.1694671465717301]",100.0,"[0.017363859114880805,0.10870338927778961]",100.0,"[0.009609462442264662,0.03959447551088312]",100.0,"[0.030510185533114364,0.15769979723526592]",100.0,"[0.030103716803622768,-0.12905891268679195]",100.0,"[0.14205284505375948,-0.1366990045714516]",100.0,"[-0.14808330825487073,0.07459409667042566]",100.0,"[-0.09892782472792044,-0.16968260897956589]",4.0,"[-0.18410762820447038,-0.06802611493778699]",100.0,"[-0.035053347129517506,-0.11084653912870016]",4.0,"[-0.065802693291612,0.17056569923939008]",100.0,"[-0.08405706976884175,0.03138625918650985]",100.0,"[-0.021614182834025553,0.11801540361496103]",100.0,"[-0.054012663084203195,0.0816386912034679]",100.0,"[0.09106567847885058,-0.13872458820680109]",100.0,"[0.19049558685540244,0.043392973858520555]",4.0,"[-0.19428795613367558,0.014272611521928687]",100.0,"[-0.09820476198455355,0.11385631948626417]",100.0,"[-0.04759742818019091,-0.061279236579601236]",100.0,"[-0.12786589006595545,-0.07729874315833864]",100.0,"[0.07237238489059461,-0.17449114598989318]",100.0,"[0.027143018375655407,-0.041950686418575044]",100.0,"[-0.18769885603297723,-0.026836619817109438]",100.0,"[-0.13536294681300548,-0.13201191516265232]",100.0,"[0.03980857498587604,0.0061520875736988485]",100.0,"[-0.09570705907158161,-0.02232462608881551]",100.0,"[-0.023331646697183243,-0.02457248653188356]",100.0,"[-0.13688592832435845,-0.029980839189673366]",100.0,"[0.02,0.02]",283.451,0.0,45.0,45.0,14.0,1.0,,,,,,,
,,,,,,,67c712364ec9ad3f92b3a339,684429a03fa3be5ac784e29c,2025-06-07_14h02.35.372,shape_ratio,2024.1.5,Win32,59.88023952,684250e4f00cb30b92d1fa88,,,,,,,,,,,283.4516,283.9513,,,284.2021,284.6683,left,0.4462,,,,,,,,,0.9,,,,,,283.9514,284.2021,284.6683,"[-0.16218973283958166,0.02576661511967692]",100.0,"[0.07752512208725507,-0.0362605504970287]",4.0,"[-0.11687937046603,0.10855643430854929]",4.0,"[0.03310003302846875,0.09984261508867424]",100.0,"[0.07826692189280905,-0.13084331631289456]",100.0,"[0.15963751110921953,-0.0071660744878487784]",100.0,"[-0.07750918914474185,0.12311955732702225]",100.0,"[-0.11827131995848325,-0.09706896747884167]",100.0,"[-0.08426738211855213,-0.16976110151757054]",100.0,"[-0.13966868680529307,-0.019349075854166998]",100.0,"[0.0978066699853575,0.025982507793776127]",100.0,"[-0.10669876090104687,0.01581156555830154]",100.0,"[0.055360967416539765,0.18263567712854192]",100.0,"[-0.1767201426325555,0.07707887911877279]",4.0,"[-0.17920562045950028,-0.026846936472314616]",100.0,"[0.10012691154729136,0.16676710577165635]",100.0,"[-0.028510491758294374,-0.15535169106401264]",100.0,"[0.09627832588168651,-0.0780096702773302]",100.0,"[0.013626856341153976,-0.09382950894765069]",100.0,"[-0.09137435765997519,-0.0389146528188534]",100.0,"[0.012207297025409153,-0.181399600245997]",100.0,"[0.02333725143800219,0.010450958161996725]",100.0,"[-0.061754685070190884,0.06461941210684055]",100.0,"[0.013817100398568675,0.18486540697373166]",100.0,"[0.14585943561233425,0.11129211777251327]",100.0,"[-0.03807723829446577,0.18431879631077897]",100.0,"[0.018244693634791538,0.06090429905731941]",100.0,"[-0.1533778554201506,-0.062153949210534694]",100.0,"[-0.026646370386507436,-0.08284263408821757]",100.0,"[0.08198720897031876,0.09536236032063039]",100.0,"[0.16516967566606378,-0.05601859150233399]",100.0,"[0.19358582962846366,0.028854065738601876]",100.0,"[0.02,0.02]",285.7691,0.0,46.0,46.0,24.0,1.0,,,,,,,
,,,,,,,67c712364ec9ad3f92b3a339,684429a03fa3be5ac784e29c,2025-06-07_14h02.35.372,shape_ratio,2024.1.5,Win32,59.88023952,684250e4f00cb30b92d1fa88,,,,,,,,,,,285.7697,286.2694,,,286.5224,286.7863,left,0.2477,,,,,,,,,0.5,,,,,,286.2695,286.5223,286.7864,"[0.10231063190999001,-0.10577076598354972]",4.0,"[-0.013566066701444167,-0.07742458999378472]",100.0,"[-0.06576268477017158,0.02971511179440816]",4.0,"[-0.09273263672109035,-0.11180913671316411]",100.0,"[-0.14322256175575937,0.1027892557742549]",100.0,"[0.0009167205423565847,0.03549154646926227]",4.0,"[-0.07821500689151545,0.16074183053308955]",100.0,"[0.024971413597011147,-0.001105269243734804]",4.0,"[0.1544641215520842,-0.02401687198679264]",100.0,"[0.13493574623816534,0.12487341387710155]",100.0,"[0.17307610769922474,0.05774999399338552]",4.0,"[-0.06763417112485916,0.09161849193572319]",100.0,"[-0.10789866505059922,0.046768498192105976]",4.0,"[-0.0034566715337785115,-0.11985096937395669]",100.0,"[-0.14559305295807162,-0.047754185391713874]",4.0,"[-0.1573459081854976,-0.1107641777024276]",4.0,"[0.07664449474783153,-0.14469154144997032]",100.0,"[0.05903199807601908,0.18636876119378792]",4.0,"[0.07230830129832287,0.1400412296753345]",100.0,"[-0.1912581920104968,0.02448194747690643]",100.0,"[0.06005441143844582,-0.09355843860325702]",100.0,"[0.19750911051558598,-0.015310427940323421]",4.0,"[0.14413774376691926,-0.0881558436589146]",4.0,"[-0.0292412085180935,0.06349429580579741]",4.0,"[0.12964562125331439,0.025029561917860727]",100.0,"[-0.01017550963927664,0.11829672348736292]",100.0,"[-0.10065566988130022,-0.05705716536484584]",100.0,"[-0.06800560364595123,-0.1590932020876203]",4.0,"[-0.19659793643546142,-0.02402993148088113]",4.0,"[-0.029247931340549642,-0.19127469805109037]",100.0,"[0.005739070406223012,0.1802353066688627]",4.0,"[0.02878057005709806,0.08832656375623014]",4.0,"[0.02,0.02]",287.8871,0.0,47.0,47.0,115.0,1.0,,,,,,,
,,,,,,,67c712364ec9ad3f92b3a339,684429a03fa3be5ac784e29c,2025-06-07_14h02.35.372,shape_ratio,2024.1.5,Win32,59.88023952,684250e4f00cb30b92d1fa88,,,,,,,,,,,287.8883,288.393,,,288.6431,288.9374,right,0.2734,,,,,,,,,0.45,,,,,,288.3931,288.6431,288.9375,"[-0.09319369237273896,0.12543263611012143]",100.0,"[0.04635038414442975,0.1547633750507839]",4.0,"[0.07651041160251824,-0.15954632221614354]",100.0,"[-0.022878362310649963,0.03161439618400009]",4.0,"[0.023074520135059125,-0.09133438849323196]",4.0,"[-0.1501615012639403,-0.07294052463925131]",4.0,"[0.05845160542811764,0.03868909385697595]",100.0,"[0.10937783988401038,-0.10872363775759879]",100.0,"[-0.06908750515907709,0.16054876989439393]",100.0,"[0.0038036525377259964,-0.13362380931462234]",4.0,"[-0.06017215039810228,-0.002069759666971995]",4.0,"[-0.0111243189487919,0.1843504542461521]",4.0,"[-0.18097083815340623,0.017691195447640234]",4.0,"[0.14243377275658703,0.10312387965428585]",100.0,"[-0.07609989194697377,-0.04923204978004058]",100.0,"[-0.13427700802858586,0.08047879808866593]",4.0,"[0.17645105189910515,0.06873581349185848]",4.0,"[-0.0398000575284139,-0.07511040325371268]",100.0,"[-0.17937406855927898,0.06708657254423775]",100.0,"[0.11325727937237508,-0.03491737210087251]",4.0,"[-0.035265701052815554,-0.033518596036483723]",100.0,"[-0.07433845553639905,0.07761813883243138]",100.0,"[-0.04316602363527145,-0.14964374592636742]",100.0,"[0.18861596281137846,-0.050087899008165675]",4.0,"[0.18792120605962137,0.028207790540626058]",4.0,"[0.12035562794980337,-0.15073015905357845]",4.0,"[-0.15666935933711007,0.11652123344457127]",4.0,"[-0.10019191551297832,-0.13537320745607587]",100.0,"[0.13420119239318576,0.14559495805084444]",4.0,"[0.026896808691584055,0.07457162398166037]",100.0,"[-0.020505623146326944,0.10489956790068573]",4.0,"[-0.0065854075130737395,-0.19365241947945636]",4.0,"[0.02,0.02]",290.0437,0.0,48.0,48.0,121.0,1.0,,,,,,,
,,,,,,,67c712364ec9ad3f92b3a339,684429a03fa3be5ac784e29c,2025-06-07_14h02.35.372,shape_ratio,2024.1.5,Win32,59.88023952,684250e4f00cb30b92d1fa88,,,,,,,,,,,290.0444,290.5381,,,290.7897,291.2243,right,0.4133,,,,,,,,,0.6,,,,,,290.5381,290.7896,291.2243,"[-0.0770287239483575,-0.13541802795171762]",100.0,"[0.08395633577328954,0.03253679561164002]",4.0,"[-0.14700482465812056,0.012634787608006797]",4.0,"[-0.07831577431205715,0.11434803851210372]",100.0,"[-0.013927208511917807,0.11643276593702011]",100.0,"[-0.1169189057105945,-0.09581288486392579]",100.0,"[-0.0709801402994699,-0.03917428750514711]",100.0,"[0.02289758551083249,-0.10342861455188083]",4.0,"[0.10282504828521227,-0.12137557550150598]",100.0,"[-0.042719623461898504,0.0054360882335867]",4.0,"[0.053662078712089084,0.18416277802411732]",4.0,"[-0.009655732654534555,0.15834135421798043]",4.0,"[0.0015848299188613302,-0.13901599581671825]",100.0,"[0.08487021218031592,0.10161152956761826]",100.0,"[-0.028742593512144633,0.07691204996911079]",100.0,"[0.029643317488595045,0.031830556737933086]",4.0,"[0.18272069813838857,0.0009197845632211022]",4.0,"[-0.03158859311926356,-0.179620056158299]",4.0,"[-0.03477844873497392,-0.07684629291036052]",100.0,"[0.12617484098469667,-0.041462126658061156]",100.0,"[-0.07099928040760115,0.06590400953701245]",4.0,"[0.04177389023847109,-0.19138002791073627]",4.0,"[0.15364440591658154,-0.08473155962234266]",100.0,"[-0.1531133550714826,0.06875110953124804]",100.0,"[0.1339723943069487,0.014532109212726753]",4.0,"[-0.01261969047693744,-0.02480989105332398]",100.0,"[-0.16731604334334985,-0.055552920509089394]",100.0,"[0.1363525680301825,0.12110002740873002]",4.0,"[0.06151587507798305,-0.0709538571254087]",100.0,"[-0.03501386715182643,-0.1209259486351789]",100.0,"[0.05372866465465116,-0.13732780225616487]",100.0,"[-0.02369671385980416,0.1967225508261879]",100.0,"[0.02,0.02]",292.3227,0.0,49.0,49.0,59.0,1.0,,,,,,,
