right,left,explain.started,explain.stopped,key_resp_3.keys,key_resp_3.rt,key_resp_3.duration,participant,session,date,expName,psychopyVersion,OS,frameRate,study_id,explain_2.started,explain_2.stopped,key_resp_4.keys,key_resp_4.rt,key_resp_4.duration,explain_3.started,explain_3.stopped,key_resp_5.keys,key_resp_5.rt,key_resp_5.duration,fixation.started,fixation.stopped,practice.started,practice.stopped,response.started,response.stopped,key_resp.keys,feedback.started,feedback.stopped,trials_2.thisRepN,trials_2.thisTrialN,trials_2.thisN,trials_2.thisIndex,trials_2.ran,dot_ratio,explain_4.started,explain_4.stopped,key_resp_6.keys,key_resp_6.rt,key_resp_6.duration,dotDisplay.started,dotDisplay.stopped,key_resp.rt,key_resp.duration,ITI.started,polygon_1.pos,polygon_1.edges,polygon_2.pos,polygon_2.edges,polygon_3.pos,polygon_3.edges,polygon_4.pos,polygon_4.edges,polygon_5.pos,polygon_5.edges,polygon_6.pos,polygon_6.edges,polygon_7.pos,polygon_7.edges,polygon_8.pos,polygon_8.edges,polygon_9.pos,polygon_9.edges,polygon_10.pos,polygon_10.edges,polygon_11.pos,polygon_11.edges,polygon_12.pos,polygon_12.edges,polygon_13.pos,polygon_13.edges,polygon_14.pos,polygon_14.edges,polygon_15.pos,polygon_15.edges,polygon_16.pos,polygon_16.edges,polygon_17.pos,polygon_17.edges,polygon_18.pos,polygon_18.edges,polygon_19.pos,polygon_19.edges,polygon_20.pos,polygon_20.edges,polygon_21.pos,polygon_21.edges,polygon_22.pos,polygon_22.edges,polygon_23.pos,polygon_23.edges,polygon_24.pos,polygon_24.edges,polygon_25.pos,polygon_25.edges,polygon_26.pos,polygon_26.edges,polygon_27.pos,polygon_27.edges,polygon_28.pos,polygon_28.edges,polygon_29.pos,polygon_29.edges,polygon_30.pos,polygon_30.edges,polygon_31.pos,polygon_31.edges,polygon_32.pos,polygon_32.edges,dot_size,ITI.stopped,trials.thisRepN,trials.thisTrialN,trials.thisN,trials.thisIndex,trials.ran,break_2.started,break_2.stopped,trials_3.thisRepN,trials_3.thisTrialN,trials_3.thisN,trials_3.thisIndex,trials_3.ran
subject chose diamond,subject chose dot,0.0004,25.9726,space,10.9512,,67c869b756cd63f0b3387d28,6844298c6a985a6ad2eb3e8d,2025-06-07_14h04.14.127,shape_ratio,2024.1.5,Win32,59.17159763,684250e4f00cb30b92d1fa88,,,,,,,,,,,,,,,,,,,,,,,,,,,,,,,,,,,,,,,,,,,,,,,,,,,,,,,,,,,,,,,,,,,,,,,,,,,,,,,,,,,,,,,,,,,,,,,,,,,,,,,,,,,,,,,,,
,,,,,,,67c869b756cd63f0b3387d28,6844298c6a985a6ad2eb3e8d,2025-06-07_14h04.14.127,shape_ratio,2024.1.5,Win32,59.17159763,684250e4f00cb30b92d1fa88,25.973,60.653,space,4.6618,,,,,,,,,,,,,,,,,,,,,,,,,,,,,,,,,,,,,,,,,,,,,,,,,,,,,,,,,,,,,,,,,,,,,,,,,,,,,,,,,,,,,,,,,,,,,,,,,,,,,,,,,,,,,
,,,,,,,67c869b756cd63f0b3387d28,6844298c6a985a6ad2eb3e8d,2025-06-07_14h04.14.127,shape_ratio,2024.1.5,Win32,59.17159763,684250e4f00cb30b92d1fa88,,,,,,60.6532,65.0863,space,1.4122,,,,,,,,,,,,,,,,,,,,,,,,,,,,,,,,,,,,,,,,,,,,,,,,,,,,,,,,,,,,,,,,,,,,,,,,,,,,,,,,,,,,,,,,,,,,,,,,,,,,,,,,
,,,,,,,67c869b756cd63f0b3387d28,6844298c6a985a6ad2eb3e8d,2025-06-07_14h04.14.127,shape_ratio,2024.1.5,Win32,59.17159763,684250e4f00cb30b92d1fa88,,,,,,,,,,,65.1144,65.6024,65.6027,65.8466,65.8467,67.3359,,67.3361,68.4358,0.0,0.0,0.0,1.0,1.0,0.8,,,,,,,,,,,,,,,,,,,,,,,,,,,,,,,,,,,,,,,,,,,,,,,,,,,,,,,,,,,,,,,,,,,,,,,,,,,,,,,,,,,,,,,,
,,,,,,,67c869b756cd63f0b3387d28,6844298c6a985a6ad2eb3e8d,2025-06-07_14h04.14.127,shape_ratio,2024.1.5,Win32,59.17159763,684250e4f00cb30b92d1fa88,,,,,,,,,,,68.4369,68.9355,68.9356,69.1795,69.1796,70.6749,,70.675,71.7786,0.0,1.0,1.0,0.0,1.0,0.2,,,,,,,,,,,,,,,,,,,,,,,,,,,,,,,,,,,,,,,,,,,,,,,,,,,,,,,,,,,,,,,,,,,,,,,,,,,,,,,,,,,,,,,,
,,,,,,,67c869b756cd63f0b3387d28,6844298c6a985a6ad2eb3e8d,2025-06-07_14h04.14.127,shape_ratio,2024.1.5,Win32,59.17159763,684250e4f00cb30b92d1fa88,,,,,,,,,,,,,,,,,,,,,,,,,,71.7791,76.1803,space,1.3833,,,,,,,,,,,,,,,,,,,,,,,,,,,,,,,,,,,,,,,,,,,,,,,,,,,,,,,,,,,,,,,,,,,,,,,,,,,,,,,,,,,,
,,,,,,,67c869b756cd63f0b3387d28,6844298c6a985a6ad2eb3e8d,2025-06-07_14h04.14.127,shape_ratio,2024.1.5,Win32,59.17159763,684250e4f00cb30b92d1fa88,,,,,,,,,,,76.2014,76.6852,,,76.9358,77.5358,right,,,,,,,,0.4,,,,,,76.6858,76.9358,0.5848,,77.5363,"[0.044759688949202146,-0.051881411480483]",4.0,"[0.1385235111416373,-0.003971276800148805]",100.0,"[0.15557605070626962,0.1227749037368385]",100.0,"[-0.08894685981265398,-0.02366132872831585]",100.0,"[0.07181848041001536,0.15857660647525532]",4.0,"[-0.15598032994160274,0.012067819300417355]",100.0,"[-0.16661817359381503,0.0982196699847844]",4.0,"[0.13136594365550583,-0.13981822350135434]",4.0,"[0.08411113239765512,-0.062066258414890066]",4.0,"[-0.05450564140532253,0.041494783353295456]",100.0,"[-0.11390902076304377,-0.163808240148761]",4.0,"[0.019015655682038213,0.09745025638827506]",100.0,"[0.006867802985380259,-0.09780857052844578]",4.0,"[0.17877158849308178,-0.08050192912406537]",100.0,"[-0.03768210415210768,-0.004412325611249709]",4.0,"[0.12761870052789318,-0.07611036226412879]",4.0,"[-0.18350403696516776,0.04853275670975858]",4.0,"[0.004895769440567668,0.18495210053341585]",4.0,"[0.01087402685201306,0.045837074662061154]",4.0,"[-0.061066247045759976,0.18107232410551674]",4.0,"[0.06460063991206322,-0.0169346043601894]",100.0,"[-0.07784021226126116,-0.13590483503813017]",4.0,"[-0.15511468967854478,-0.0494279742235635]",100.0,"[0.15537737566834803,0.0751686866748729]",4.0,"[-0.1919107455678268,-0.007354867466475083]",4.0,"[0.04641719820695618,-0.15171308001164147]",4.0,"[-0.13383182285104375,0.1475005290682912]",100.0,"[0.0017079996198054895,-0.16792284384232256]",4.0,"[-0.03934142878054111,-0.15040423676562364]",100.0,"[0.08897768648235667,-0.17333981076467658]",100.0,"[-0.030326005158255346,-0.1931397463730421]",100.0,"[-0.15414882836198357,-0.11661896454380484]",4.0,"[0.02,0.02]",78.6353,0.0,0.0,0.0,168.0,1.0,,,,,,,
,,,,,,,67c869b756cd63f0b3387d28,6844298c6a985a6ad2eb3e8d,2025-06-07_14h04.14.127,shape_ratio,2024.1.5,Win32,59.17159763,684250e4f00cb30b92d1fa88,,,,,,,,,,,78.6361,79.1353,,,79.3853,79.9852,right,,,,,,,,0.1,,,,,,79.1355,79.3853,0.5844,,79.9853,"[-0.0007323446148439863,0.12974003601117184]",4.0,"[0.1299299674942676,-0.05303975231586353]",4.0,"[-0.05856338461008697,-0.11190812358090624]",4.0,"[-0.07603868176962399,0.14586645463637699]",4.0,"[-0.06975239236540795,-0.1730638425054328]",100.0,"[0.008986868950524583,-0.1876800455993866]",4.0,"[0.1574033379231524,0.010960936919668261]",4.0,"[0.08945765925382584,0.017761163520567877]",4.0,"[0.13417600277831904,-0.10454029531730141]",4.0,"[-0.058728996285591764,0.011844782032484022]",4.0,"[-0.03236129046013918,0.1650572935282292]",4.0,"[0.028331662192602587,0.09538357624545832]",4.0,"[-0.18737136397974136,-0.003252699777274865]",100.0,"[0.049155086142906625,0.17042230585105825]",4.0,"[0.09151908477899111,0.16008933458541288]",4.0,"[-0.1367923207257614,0.030416087740329195]",4.0,"[0.05244343630805884,-0.044540136392408024]",4.0,"[-0.12945446362920832,-0.11204102671714558]",4.0,"[0.10029788909719817,0.09840861515342299]",4.0,"[-0.17524307063921138,-0.0749973006229766]",4.0,"[0.14083809657925508,0.09601986615788571]",4.0,"[-0.002074803521287164,-0.10741509754085618]",4.0,"[-0.1233595874921675,0.14573163587649937]",4.0,"[-0.1356512005868968,-0.037600531456026653]",4.0,"[-0.01115220095249542,-0.055982689960636836]",100.0,"[-0.053836077366276734,0.07995659246434479]",4.0,"[0.04284587590956996,-0.15346109317742893]",4.0,"[-0.10073729241115373,-0.07110496338716861]",4.0,"[-0.01993202264476207,-0.14673707467785446]",4.0,"[0.021657705696311647,0.038969771511599784]",4.0,"[-0.17956043336479208,0.07864446804250787]",4.0,"[-0.09702637045476772,0.03549467159882362]",4.0,"[0.02,0.02]",81.0845,0.0,1.0,1.0,191.0,1.0,,,,,,,
,,,,,,,67c869b756cd63f0b3387d28,6844298c6a985a6ad2eb3e8d,2025-06-07_14h04.14.127,shape_ratio,2024.1.5,Win32,59.17159763,684250e4f00cb30b92d1fa88,,,,,,,,,,,81.0853,81.5847,,,81.8292,82.1752,left,,,,,,,,0.5,,,,,,81.5848,81.8292,0.33,,82.1752,"[-0.005967826125848719,0.023611556957738304]",4.0,"[-0.1092990214805868,-0.10917748490730876]",100.0,"[0.08229443196376561,0.010785048423647855]",100.0,"[0.08369339235110505,0.0715041061598733]",100.0,"[-0.002135828452124719,0.1113039320274647]",4.0,"[0.15161346019953167,0.12984370481941146]",4.0,"[0.17848300754177238,0.08551944950423053]",100.0,"[0.027623730647273508,-0.17312851184248199]",4.0,"[-0.1942763273983127,-0.0384554977958293]",100.0,"[-0.03754329113030917,0.09212926442719219]",4.0,"[0.16675063409505156,0.03736652299219496]",4.0,"[-0.05650366219214796,0.13047456219298809]",4.0,"[0.02815937968335795,-0.022296447040445633]",4.0,"[-0.0926015854247379,-0.005230663147534307]",100.0,"[-0.00019556670713843257,-0.11976381015989994]",100.0,"[0.1514118799104784,-0.10754405586924506]",4.0,"[-0.10941071053187094,0.15513874835759792]",4.0,"[-0.14418468366420492,0.02475233074446463]",4.0,"[-0.15174621953202988,0.12572868391811096]",100.0,"[0.13628051369315408,-0.056003535697688414]",100.0,"[-0.0050871926936628155,-0.05624835233375901]",100.0,"[-0.018573152448207557,-0.19737033056658712]",100.0,"[0.09490288065352258,-0.10905251854511278]",4.0,"[0.11184838975038003,0.1373229552575033]",100.0,"[0.023483228643326793,-0.08539825212744045]",4.0,"[-0.03867213183366083,-0.07917195396654411]",4.0,"[-0.12306972037608842,0.08198510305269885]",100.0,"[0.06556275540013969,-0.0755636687856414]",4.0,"[-0.06860860717643046,-0.13020967877442896]",100.0,"[0.11387694583118241,-0.1534457632670191]",4.0,"[0.01860310290675925,0.19494901237502546]",100.0,"[-0.04914581689207587,-0.030442450820318774]",100.0,"[0.02,0.02]",83.2782,0.0,2.0,2.0,93.0,1.0,,,,,,,
,,,,,,,67c869b756cd63f0b3387d28,6844298c6a985a6ad2eb3e8d,2025-06-07_14h04.14.127,shape_ratio,2024.1.5,Win32,59.17159763,684250e4f00cb30b92d1fa88,,,,,,,,,,,83.2792,83.7699,,,84.0199,84.5545,right,,,,,,,,0.45,,,,,,83.77,84.0199,0.5245,,84.5546,"[-0.07718708064384057,0.14047136953317493]",100.0,"[-0.017079411036182046,0.10138307329087587]",4.0,"[0.11504974927982271,-0.14489932147223197]",100.0,"[-0.030393834207428673,0.1901855047191442]",4.0,"[0.07488695641088564,0.051806386641701924]",4.0,"[0.025992342649367933,0.010524511593543081]",4.0,"[-0.1419446482310233,0.07924368158467618]",100.0,"[0.022456902671790666,0.13102697240632077]",4.0,"[-0.04364994110879139,0.008498130039242551]",100.0,"[-0.09355393799057067,-0.011710957058888747]",4.0,"[0.0750652355177642,0.1730033216228845]",4.0,"[0.06438236348500402,-0.0552927486051853]",4.0,"[0.13749080323961685,-0.07295966705311477]",4.0,"[-0.09212480854204155,0.050583034718239134]",100.0,"[-0.005908118635758663,-0.08304516378336473]",4.0,"[0.12059388939256896,0.13159770064849044]",100.0,"[-0.1452938445031583,-0.12476302551820052]",4.0,"[0.006522913564139956,-0.16829056140852103]",100.0,"[-0.12655086537121993,0.1330046451937043]",100.0,"[0.03987510717722185,0.08453014347837924]",100.0,"[-0.045251990811619604,-0.1390920852312314]",4.0,"[0.05037661495345856,-0.1617506887951463]",4.0,"[0.12030087185811109,0.05988037845908328]",100.0,"[0.16595961358383188,-0.022094634387703954]",100.0,"[-0.022244438899552667,0.1498757865486913]",4.0,"[-0.17394866783131618,-0.01794208612684842]",4.0,"[0.09202750873684763,-0.006396051071003811]",4.0,"[0.18635389683835268,0.021863804108537267]",4.0,"[0.08183391882039806,-0.09503381746152381]",100.0,"[-0.04703733892319196,-0.09371654555177608]",100.0,"[-0.08186135086862142,-0.1761894854193685]",100.0,"[0.010889713969934007,0.18084796285137486]",4.0,"[0.02,0.02]",85.6517,0.0,3.0,3.0,139.0,1.0,,,,,,,
,,,,,,,67c869b756cd63f0b3387d28,6844298c6a985a6ad2eb3e8d,2025-06-07_14h04.14.127,shape_ratio,2024.1.5,Win32,59.17159763,684250e4f00cb30b92d1fa88,,,,,,,,,,,85.6521,86.1514,,,86.4019,86.8033,right,,,,,,,,0.45,,,,,,86.1517,86.4019,0.3909,,86.8033,"[0.025362252065548575,0.08600239133804195]",4.0,"[0.03411228738048239,0.14125533162147177]",4.0,"[-0.13952570973013412,0.0654642775425835]",4.0,"[0.07197086385752376,0.02175904496861558]",4.0,"[0.14752356938720074,0.09933789687649972]",100.0,"[-0.002859216400062504,-0.06877258451399404]",100.0,"[0.002093306171663941,0.051304616575595756]",100.0,"[0.16263147171083814,-0.0970498442355221]",4.0,"[-0.18897990618035265,0.05647664954389459]",100.0,"[0.10663303448078748,-0.1572055727944243]",100.0,"[-0.060942673218689535,-0.0932452593179504]",4.0,"[0.18593872357838934,-0.01481992729127906]",4.0,"[-0.056674629188525116,-0.16276849439590463]",4.0,"[-0.041890545276034,0.12721559765717172]",4.0,"[0.08120048691938367,-0.024947733797946875]",4.0,"[-0.18892860498402755,-0.05186190886893152]",4.0,"[-0.018095276504981408,-0.14552172111310244]",100.0,"[-0.12317556068027985,-0.05357846979637463]",100.0,"[-0.133605784989577,-0.10980599293232428]",4.0,"[0.06591849685578038,-0.1616254828335048]",100.0,"[0.11787175354163573,0.060397253634548904]",4.0,"[-0.08909018344473817,0.17373891227047492]",4.0,"[0.028426264559732847,-0.12225349004418971]",100.0,"[0.10899253278074904,-0.07512299013124035]",100.0,"[-0.1345576361014258,-0.009443754842416755]",100.0,"[0.17792177737152845,0.03390978006217484]",4.0,"[-0.057999065608005676,0.07537250201374664]",4.0,"[-0.12827325064867362,0.12740592192367645]",100.0,"[-0.09307291486825056,-0.0137753039074205]",4.0,"[0.11493718444619234,0.14950264332027802]",100.0,"[-0.011121448842583804,0.18102920018536356]",100.0,"[-0.022554049967858383,-0.19767671855889632]",4.0,"[0.02,0.02]",87.9019,0.0,4.0,4.0,147.0,1.0,,,,,,,
,,,,,,,67c869b756cd63f0b3387d28,6844298c6a985a6ad2eb3e8d,2025-06-07_14h04.14.127,shape_ratio,2024.1.5,Win32,59.17159763,684250e4f00cb30b92d1fa88,,,,,,,,,,,87.9023,88.4021,,,88.6525,88.8359,left,,,,,,,,0.55,,,,,,88.4022,88.6524,0.1726,,88.836,"[-0.05261772901764285,0.1292662787624412]",100.0,"[-0.0702787761736448,0.05359016640845758]",100.0,"[0.05942629428695412,0.13386075110421322]",4.0,"[0.14049100605625142,0.0633261705337523]",4.0,"[0.03028747639658582,-0.08279098579151288]",100.0,"[0.034053943161547834,0.0928570015943994]",4.0,"[0.16951527752858395,-0.05356432200492406]",100.0,"[-0.0164483524512583,0.011405970162372728]",100.0,"[0.0601974176872376,0.04171935162480674]",4.0,"[-0.07276871247631886,-0.0019014780576497553]",4.0,"[-0.03245225183576155,-0.09767672657493877]",4.0,"[-0.03404300394289012,-0.05564157636367567]",100.0,"[-0.07586795991102255,-0.06369528898173438]",4.0,"[0.17492428666918355,-0.013879661506065222]",4.0,"[-0.1475854395363052,0.12860777233029608]",4.0,"[-0.1450492099417229,0.03900314214628091]",4.0,"[-0.04944785422394428,-0.176593646729053]",4.0,"[0.12321459898704344,-0.13447741469450405]",100.0,"[0.04493029903521416,-0.12414845533667637]",4.0,"[0.05359098122399285,-0.028196292921228803]",100.0,"[0.0983429411633184,-0.000008899547325411055]",100.0,"[-0.18181438455719745,-0.06444180498128445]",100.0,"[0.12429990536076393,0.12466299780179305]",100.0,"[-0.03348685293492982,0.18747232696693475]",100.0,"[-0.17566985077094932,0.06577742430110728]",100.0,"[0.07743478962520643,-0.16219501241906847]",100.0,"[-0.09279939921239153,0.1282317440455246]",100.0,"[-0.017709975942648178,0.10898844448142803]",100.0,"[0.03975632190922207,0.19432314913677246]",4.0,"[0.16798118260950917,0.09767614156106874]",4.0,"[0.024801238686180734,-0.1588976914254372]",100.0,"[0.08614600125057331,0.07657764590589691]",100.0,"[0.02,0.02]",89.9352,0.0,5.0,5.0,69.0,1.0,,,,,,,
,,,,,,,67c869b756cd63f0b3387d28,6844298c6a985a6ad2eb3e8d,2025-06-07_14h04.14.127,shape_ratio,2024.1.5,Win32,59.17159763,684250e4f00cb30b92d1fa88,,,,,,,,,,,89.9357,90.4352,,,90.6855,90.7854,right,,,,,,,,0.1,,,,,,90.4353,90.6854,0.0846,,90.7855,"[0.11575788592741429,-0.07909704063053535]",4.0,"[0.13852171855542314,0.055242153161413565]",100.0,"[0.1408077043442416,0.10222466011494338]",4.0,"[-0.1260307691664436,-0.10739738392094306]",4.0,"[0.11746320864308642,-0.14999617391194814]",4.0,"[0.014714428579869349,0.08623275395910995]",4.0,"[0.15261386630478305,-0.059422746794898486]",4.0,"[-0.0069292362112496455,-0.09374542375171382]",4.0,"[-0.08764695759435484,0.102781522401186]",4.0,"[0.09033628779186274,0.009108464101399392]",4.0,"[0.0758731621799104,-0.11568942144219804]",4.0,"[-0.05808297965331364,-0.05427270671837765]",4.0,"[0.19309553391466755,-0.05135044819978943]",4.0,"[-0.16410229062668433,0.014617026432158559]",4.0,"[0.04272385145721202,0.14985742745201588]",4.0,"[-0.0181840364963375,0.005810555962180231]",4.0,"[-0.09041837948610504,0.1712996459470895]",4.0,"[-0.11655054643494446,0.0006114861604443292]",4.0,"[-0.0554746801739336,-0.10676357427966796]",4.0,"[-0.10281577404796356,-0.1533623440185415]",4.0,"[-0.14989635180389105,0.06760276542195566]",4.0,"[-0.04484206028107493,0.06253141009596407]",4.0,"[-0.019147235809136645,-0.03615269322782024]",4.0,"[0.04770182607911274,-0.19338228565025192]",4.0,"[-0.036262753304405634,-0.1469237523634433]",100.0,"[0.14446942542726227,0.009459258369201858]",4.0,"[-0.002134317953309061,0.04981906733117725]",4.0,"[-0.04987846664141179,0.16397984321948025]",4.0,"[0.045490773097788394,-0.015251964366850416]",4.0,"[0.029770952712070833,0.02289481510279961]",100.0,"[0.018448056506058273,-0.13289866206519813]",4.0,"[-0.1545900304343687,0.11855728886516817]",4.0,"[0.02,0.02]",91.8851,0.0,6.0,6.0,198.0,1.0,,,,,,,
,,,,,,,67c869b756cd63f0b3387d28,6844298c6a985a6ad2eb3e8d,2025-06-07_14h04.14.127,shape_ratio,2024.1.5,Win32,59.17159763,684250e4f00cb30b92d1fa88,,,,,,,,,,,91.8856,92.3851,,,92.6355,92.8851,right,,,,,,,,0.4,,,,,,92.3852,92.6354,0.2344,,92.8851,"[0.1323672718486966,-0.14335715480619682]",4.0,"[-0.15449675341768557,-0.03153834477073903]",4.0,"[-0.021987936194030805,0.1086065596169637]",4.0,"[-0.1076289685691278,0.10329519694259237]",4.0,"[-0.12080106021113982,-0.15454083761410486]",100.0,"[0.03711892168673004,0.035636547113475546]",4.0,"[-0.049290505049194154,0.03074115159325798]",100.0,"[0.055425814952607955,-0.1276803192114011]",4.0,"[-0.09965036257058664,-0.03464073419135722]",4.0,"[-0.08821125721925392,0.060107091211772636]",100.0,"[-0.008259531694842193,-0.03257360850190438]",4.0,"[-0.16160856000245583,0.08263956391658737]",4.0,"[-0.0151638955933842,-0.16654064965590998]",4.0,"[-0.0821910682836378,0.14333988665853897]",100.0,"[-0.06501737829171442,-0.14206985532862504]",100.0,"[0.1526618835456835,-0.09408054894222109]",4.0,"[0.1178884667018523,-0.002289487755480236]",100.0,"[-0.05255791320070281,-0.07853645292047154]",4.0,"[0.06951317195003415,-0.007537679577271188]",100.0,"[0.149210142736944,0.03594036135932433]",4.0,"[0.027869782805635582,0.13387921555195087]",4.0,"[-0.004366428438752009,0.060459675920812125]",4.0,"[0.01893962191325581,-0.09691217091162502]",100.0,"[0.08345272173732271,-0.0697966718214806]",100.0,"[0.09310078811804387,0.09032824671800149]",100.0,"[-0.10551755969168003,-0.08343276332751548]",4.0,"[0.1611785185595196,0.08750405409477943]",4.0,"[0.03479605519046977,0.07966396317291458]",100.0,"[0.17405955520426972,-0.028514846511929395]",100.0,"[0.000037252998062249276,0.015161380325275788]",100.0,"[-0.1291818458671647,0.05055423862992892]",4.0,"[0.02275185567762917,0.18827697448959035]",4.0,"[0.02,0.02]",93.9851,0.0,7.0,7.0,153.0,1.0,,,,,,,
,,,,,,,67c869b756cd63f0b3387d28,6844298c6a985a6ad2eb3e8d,2025-06-07_14h04.14.127,shape_ratio,2024.1.5,Win32,59.17159763,684250e4f00cb30b92d1fa88,,,,,,,,,,,93.9854,94.4849,,,94.7354,94.8351,left,,,,,,,,0.6,,,,,,94.485,94.7354,0.0844,,94.8352,"[0.1325959669812581,0.07400533078986028]",100.0,"[-0.13129091418290453,-0.006936765369690962]",100.0,"[0.18276841404428215,0.07765210399762847]",4.0,"[0.1746051490906662,-0.09532504850378466]",100.0,"[0.0940495796825684,-0.16686634643114212]",4.0,"[-0.019900097076916742,-0.017075063558457688]",4.0,"[-0.12168055324484005,-0.10044767419562024]",100.0,"[-0.02300821359716626,-0.08862229353963103]",100.0,"[0.05584859564796244,0.09828230345357465]",4.0,"[0.005651730335524684,0.1550921743367624]",4.0,"[0.03478966911848068,-0.09476871570476111]",100.0,"[0.19561557380955988,-0.021019973586235145]",4.0,"[-0.06090504326419882,0.09649509174199843]",4.0,"[-0.030635727351761496,-0.17537337489533633]",4.0,"[0.12138043441207202,0.11889603022738127]",4.0,"[0.04305372781538838,0.1740036476258546]",4.0,"[-0.04912554574663963,0.1661823633374028]",100.0,"[0.13764006548847993,-0.0335613996178425]",100.0,"[0.053183784722473613,0.05394502472796182]",4.0,"[0.12008016969717454,-0.07521946581915907]",100.0,"[-0.039329436338164124,0.03717819326406599]",100.0,"[0.11416914632000716,0.03137674687431817]",4.0,"[-0.014880041153639303,0.10351466220486183]",100.0,"[0.06759973816961945,-0.13167154281120383]",4.0,"[-0.08510007755448697,-0.07767263140547037]",100.0,"[-0.09786146347326523,0.14369474065642607]",100.0,"[0.03658527926558092,-0.02920416730156125]",100.0,"[-0.10245489135638534,0.022731130939970028]",100.0,"[0.08711402940699461,-0.03465850503227257]",100.0,"[-0.01396774536069427,-0.12990143248355993]",100.0,"[-0.18023709349737188,0.05850041280179311]",100.0,"[0.023861454233369907,-0.15279122343497836]",100.0,"[0.02,0.02]",95.9351,0.0,8.0,8.0,45.0,1.0,,,,,,,
,,,,,,,67c869b756cd63f0b3387d28,6844298c6a985a6ad2eb3e8d,2025-06-07_14h04.14.127,shape_ratio,2024.1.5,Win32,59.17159763,684250e4f00cb30b92d1fa88,,,,,,,,,,,95.9354,96.4351,,,96.6853,97.1029,right,,,,,,,,0.5,,,,,,96.4351,96.6852,0.4079,,97.1029,"[0.13771817693440233,-0.042159750024385045]",4.0,"[0.1475200210566183,-0.11914759961461223]",4.0,"[0.05655221825993635,-0.11701660709581552]",4.0,"[0.17506056028458422,0.01726963965546049]",4.0,"[-0.039422865223514736,-0.17845720646516255]",100.0,"[-0.16653374906511373,-0.02537714939504343]",100.0,"[0.03128145408251127,0.07854230087606326]",100.0,"[-0.1073049853973969,0.057233726979347165]",100.0,"[-0.1488055631093271,-0.0866348502744051]",100.0,"[-0.08681073076572937,-0.14731784748616616]",4.0,"[0.10005213884431162,-0.10267892321919572]",100.0,"[-0.05406351304893083,0.13658360204666042]",100.0,"[-0.018777816542429687,0.1562392105035474]",100.0,"[-0.1327010379165402,-0.12816954590568874]",4.0,"[0.12707562236132325,0.11677655737309953]",4.0,"[0.04961585000455326,0.12972740790142842]",100.0,"[0.01315129552839763,0.0216314307445842]",100.0,"[-0.10971005206666798,0.11093469836011914]",4.0,"[-0.17081464259586418,0.05863735466755158]",100.0,"[0.15763070856505548,0.08214500164139281]",4.0,"[-0.057155366188085754,-0.06150779991256776]",100.0,"[0.061906970267239035,-0.026893769971290123]",100.0,"[0.05891477118886748,-0.18821091996171743]",100.0,"[0.1236102247566243,0.033841292529238974]",4.0,"[-0.04935076914582036,0.09507777917378654]",100.0,"[-0.030894517274689615,0.024262774517646118]",4.0,"[-0.1520107958757591,0.11148733655323566]",4.0,"[0.042506245510511936,0.17335207021178917]",100.0,"[0.02122121353173334,-0.02833907002092157]",4.0,"[-0.007958341121867713,-0.08277218196947245]",4.0,"[0.07288512529343287,-0.0708009844808643]",4.0,"[0.07264345252997356,0.06445825677994142]",4.0,"[0.02,0.02]",98.2017,0.0,9.0,9.0,106.0,1.0,,,,,,,
,,,,,,,67c869b756cd63f0b3387d28,6844298c6a985a6ad2eb3e8d,2025-06-07_14h04.14.127,shape_ratio,2024.1.5,Win32,59.17159763,684250e4f00cb30b92d1fa88,,,,,,,,,,,98.2021,98.7015,,,98.9521,99.0684,left,,,,,,,,0.9,,,,,,98.7016,98.952,0.1017,,99.0685,"[-0.09538758730466912,-0.06392886209909064]",100.0,"[0.0023201191175622115,0.04800824720988569]",100.0,"[0.1808812122915528,-0.028131210462428603]",100.0,"[0.08097962609414748,0.07759285818659167]",4.0,"[-0.04222549583601997,0.052334990131215633]",100.0,"[0.08951399533365449,-0.11611416858677502]",4.0,"[-0.1414555431169656,0.12601237655087158]",100.0,"[0.018366163817755493,0.1329256481334169]",100.0,"[-0.18338279550056868,0.020965269863577402]",100.0,"[-0.07726564710645781,0.12578619155712073]",100.0,"[-0.15637155566736433,0.07522576827292365]",100.0,"[-0.18874114642667897,-0.060117299678833024]",100.0,"[0.16026514688600024,0.0856097640413273]",100.0,"[-0.006775969045132192,-0.08640150522492136]",100.0,"[0.014479798274447005,-0.015619050151953064]",100.0,"[0.13359232893580594,-0.1287358053921451]",100.0,"[-0.158809062083187,-0.08975252180096994]",100.0,"[-0.108105740003724,-0.13406763306292768]",100.0,"[0.04205844147531629,0.0966959999236936]",4.0,"[0.08769451266101724,0.17245315344869008]",100.0,"[0.110712466672652,-0.16196590851979725]",100.0,"[0.020778418698153826,-0.16925616576030317]",100.0,"[0.1538449496062477,0.005447512819191402]",100.0,"[-0.12037734767424843,0.05475353158995816]",100.0,"[0.06301666927507632,0.03899983754073114]",100.0,"[-0.040501739768808775,0.17081278780738512]",100.0,"[0.11800562261740846,0.09353898197515134]",100.0,"[0.11214769975735826,0.003957315261687091]",100.0,"[-0.0060542949753839255,0.08793348775552082]",100.0,"[-0.026224318045233928,-0.19504400279631356]",100.0,"[-0.16109948257785092,-0.018941352999068625]",100.0,"[0.17114099445768124,0.04320735136010521]",100.0,"[0.02,0.02]",100.1682,0.0,10.0,10.0,27.0,1.0,,,,,,,
,,,,,,,67c869b756cd63f0b3387d28,6844298c6a985a6ad2eb3e8d,2025-06-07_14h04.14.127,shape_ratio,2024.1.5,Win32,59.17159763,684250e4f00cb30b92d1fa88,,,,,,,,,,,100.1687,100.6681,,,100.9183,101.0525,left,,,,,,,,0.5,,,,,,100.6681,100.9182,0.124,,101.0525,"[-0.02179539524123045,0.16289955293684188]",100.0,"[-0.1128221102345549,-0.08249001974866739]",100.0,"[0.1838043320613516,-0.06786737363686599]",4.0,"[-0.10635759704507759,0.15592309661916906]",4.0,"[-0.16723113051946448,0.076452073340378]",4.0,"[-0.024553734093851944,0.08597530194193494]",100.0,"[-0.05068627064172911,-0.18677249515407707]",4.0,"[0.06597867355369766,0.1857820581696887]",100.0,"[0.05629291020871927,0.10438783488765273]",100.0,"[-0.09775916771439234,0.010082639211247137]",4.0,"[-0.01621042015863765,-0.0833798797323355]",100.0,"[-0.05666804099571654,0.008943949912683848]",4.0,"[-0.15152764461957696,-0.033808046065497165]",100.0,"[-0.0010630594952030802,-0.01212825271191529]",100.0,"[-0.07160466762554325,-0.10601243993205237]",100.0,"[0.10625509749720444,0.14953397713133165]",4.0,"[-0.15781781123870522,-0.09000857052622574]",100.0,"[0.13659528147306124,0.10331851198152105]",100.0,"[-0.002911581355226378,0.031317434762382725]",4.0,"[0.11470182250181146,-0.09401807397210203]",4.0,"[-0.03627937826502,-0.03800225781987094]",4.0,"[0.0237751560537482,-0.1532470209928013]",100.0,"[0.13550056126871565,0.06079234591631405]",4.0,"[-0.07685384563760594,0.09995176775543858]",4.0,"[0.04933887134731384,-0.19294329005199662]",100.0,"[0.05426505725627449,-0.03560814741939912]",4.0,"[0.12845227928496017,-0.14065557883533578]",100.0,"[-0.18424550114886643,0.02478856547351395]",4.0,"[0.0050356612555823525,0.11445445509130833]",100.0,"[-0.13997617074666868,0.11110380666153419]",4.0,"[-0.043700878661813713,-0.137006830704381]",4.0,"[0.13490847037376313,0.007306841297971905]",100.0,"[0.02,0.02]",102.1513,0.0,11.0,11.0,109.0,1.0,,,,,,,
,,,,,,,67c869b756cd63f0b3387d28,6844298c6a985a6ad2eb3e8d,2025-06-07_14h04.14.127,shape_ratio,2024.1.5,Win32,59.17159763,684250e4f00cb30b92d1fa88,,,,,,,,,,,102.1517,102.6512,,,102.9018,103.0012,right,,,,,,,,0.9,,,,,,102.6512,102.9017,0.088,,103.0013,"[0.1593507025467174,-0.02848078296967887]",100.0,"[-0.13270021588577885,-0.07402018467914845]",4.0,"[0.009986770855475313,-0.05350560068669737]",100.0,"[0.07331928239848315,-0.1732432418605916]",100.0,"[0.056587362790745756,0.1469119965864018]",100.0,"[-0.16556256773745157,0.061546507139282856]",100.0,"[-0.03270735234336612,-0.05976274442306692]",100.0,"[-0.17157642537397674,0.10141383423998174]",100.0,"[-0.09973197941964654,0.06728183659191915]",100.0,"[-0.13112649196170387,-0.123641565450089]",100.0,"[-0.084683241148165,-0.04640326641671782]",100.0,"[0.14770988479701147,0.09957248632659796]",4.0,"[0.08337762765665664,-0.1158219624368672]",100.0,"[0.020124491221867442,0.003801781547956762]",100.0,"[-0.07826262331162724,-0.11675828601030372]",100.0,"[0.043253900920258166,-0.12744652299153272]",100.0,"[0.18275907625189694,0.021732529544013026]",100.0,"[-0.05762766500618824,0.181083361747617]",100.0,"[-0.08098771454597278,-0.17964065967448406]",100.0,"[0.13227565557580007,-0.06990344764040568]",100.0,"[0.1125895482492589,0.05580513951379278]",4.0,"[-0.08051303813679565,0.14186773511453277]",100.0,"[0.14680112072589047,-0.12897274834371933]",100.0,"[0.04496644616079879,0.05301193711977906]",100.0,"[-0.009727046201898033,0.055306152499024555]",100.0,"[-0.035390379676800754,-0.1280543907833506]",100.0,"[-0.17882613267365824,0.0028352809013232963]",100.0,"[-0.12367983618860044,0.014976220716473808]",100.0,"[-0.00954110348164482,0.16590801033146838]",100.0,"[-0.005664176821026061,-0.16399363037358658]",100.0,"[-0.18031711952043117,-0.07586655729549993]",100.0,"[0.05980598051047337,-0.028777498599635878]",100.0,"[0.02,0.02]",104.1013,0.0,12.0,12.0,0.0,1.0,,,,,,,
,,,,,,,67c869b756cd63f0b3387d28,6844298c6a985a6ad2eb3e8d,2025-06-07_14h04.14.127,shape_ratio,2024.1.5,Win32,59.17159763,684250e4f00cb30b92d1fa88,,,,,,,,,,,104.1017,104.6013,,,104.8515,105.1014,right,,,,,,,,0.6,,,,,,104.6013,104.8515,0.2342,,105.1015,"[0.08214826934039325,0.0786267659109746]",100.0,"[0.0063463813389691166,0.0780696028684771]",100.0,"[0.14126963757321062,-0.08581151675559054]",100.0,"[0.10367350953480697,-0.06967182986830395]",100.0,"[0.07854929134219882,0.12026370296979733]",4.0,"[-0.07641580564754023,0.01344552667437805]",100.0,"[-0.10947382189048308,-0.10417670769599312]",100.0,"[0.03146599209294284,-0.17842230795787622]",4.0,"[-0.04704551908090285,-0.12879102308594198]",100.0,"[-0.06560741222565357,-0.06835337517588555]",4.0,"[0.03539733159943186,-0.02342696799830667]",100.0,"[0.040039751835024284,-0.11111256186154271]",100.0,"[-0.0019134984809412259,-0.11620765257582652]",100.0,"[0.12219613119836159,0.004284915334021408]",100.0,"[0.12861437674499238,0.07091245499559821]",100.0,"[-0.1566851606328063,0.11809925686737278]",100.0,"[-0.09474512237217497,0.157687739007287]",100.0,"[0.095941873448946,0.1621903906388808]",4.0,"[-0.010736361753780408,-0.01730584449427273]",4.0,"[0.09026832243811163,-0.029231332931901714]",4.0,"[0.13257874112298185,0.13100619879902983]",100.0,"[-0.15406283338919677,0.06931321659737624]",4.0,"[-0.16463037380351733,-0.10773439567171274]",100.0,"[-0.021693493836644363,-0.1843172440225881]",100.0,"[0.002720629725841985,0.1553566950158069]",4.0,"[0.12369909194480695,-0.12861158986197996]",4.0,"[-0.14920818725441856,-0.040644200967723414]",4.0,"[-0.09811007315679286,0.08789860255661884]",100.0,"[-0.1192050058950981,0.019676923418931506]",4.0,"[0.06618052745417242,0.010634661329790377]",4.0,"[0.16174445258954828,-0.009189939766861405]",100.0,"[0.1807153869575462,0.07832649376375489]",4.0,"[0.02,0.02]",106.2007,0.0,13.0,13.0,42.0,1.0,,,,,,,
,,,,,,,67c869b756cd63f0b3387d28,6844298c6a985a6ad2eb3e8d,2025-06-07_14h04.14.127,shape_ratio,2024.1.5,Win32,59.17159763,684250e4f00cb30b92d1fa88,,,,,,,,,,,106.2012,106.7007,,,106.9511,107.153,left,,,,,,,,0.9,,,,,,106.7008,106.9511,0.1878,,107.153,"[0.020687830810732867,-0.18693462562130908]",100.0,"[-0.05936526677278325,0.022891656447474824]",100.0,"[-0.0749521884015182,0.12504407910601736]",100.0,"[-0.0010228623024331103,0.11222409521391893]",100.0,"[-0.14177552224666132,0.09270985029517373]",100.0,"[-0.1394702811140486,-0.05410952858301079]",100.0,"[0.11258892002624346,-0.11234693922312433]",4.0,"[-0.052321645788670657,-0.038724153647889455]",100.0,"[-0.15170651717765843,0.012332134700029907]",100.0,"[0.08660379896182192,-0.04412485638909823]",100.0,"[0.053370298701871224,0.13588625646359]",100.0,"[0.012527703859224462,0.19274668317961458]",100.0,"[-0.032062738393458905,0.1403656341928241]",4.0,"[0.13857590524119875,0.08432317130210522]",100.0,"[-0.13481368380931366,-0.10868275495634963]",100.0,"[-0.05849933965946024,-0.09732700413927108]",100.0,"[0.1504093545459567,0.030373977306703125]",100.0,"[0.11176031265813181,-0.15893287422132207]",100.0,"[0.047630201638404715,-0.12184849195145295]",100.0,"[0.021657588547063927,0.0477130262053465]",4.0,"[-0.016407111652493696,0.0016499631396012264]",100.0,"[0.048527581221910955,-0.024749742954693385]",100.0,"[0.12633720243411564,0.13303921132592578]",100.0,"[-0.08707913006073921,-0.1286653410849778]",100.0,"[-0.003904633244388406,-0.10034548275245725]",100.0,"[-0.11684032735601697,0.05578974032262697]",100.0,"[-0.06159855127408196,-0.16750985722071884]",100.0,"[0.10582444328774947,0.01054632796015234]",100.0,"[-0.06475455011856779,0.1734873961428444]",100.0,"[-0.17957056619042072,0.05065973203626732]",100.0,"[0.09477358916135394,0.1673189146140848]",100.0,"[0.08585088826951973,0.06486361767756142]",100.0,"[0.02,0.02]",108.2511,0.0,14.0,14.0,8.0,1.0,,,,,,,
,,,,,,,67c869b756cd63f0b3387d28,6844298c6a985a6ad2eb3e8d,2025-06-07_14h04.14.127,shape_ratio,2024.1.5,Win32,59.17159763,684250e4f00cb30b92d1fa88,,,,,,,,,,,108.2515,108.751,,,109.0012,109.0846,right,,,,,,,,0.45,,,,,,108.7511,109.0012,0.0678,,109.0846,"[-0.026210362584038933,-0.03143451361548969]",100.0,"[0.02713787737896852,-0.019498985059197192]",4.0,"[-0.0590127652796451,0.013663401375486847]",4.0,"[-0.16588032700010327,-0.10829901647829404]",4.0,"[0.05621460855155957,0.17741937469193447]",4.0,"[0.06653868468564278,0.1294021418825794]",100.0,"[-0.008729368030245495,0.04050124056221176]",4.0,"[0.0913700573982939,0.09245851357421041]",100.0,"[-0.07816056026547152,0.15512016817006938]",4.0,"[0.016772296907290794,-0.07095483364158342]",4.0,"[0.14100817939005889,-0.03645004420109216]",4.0,"[0.13528259438149876,0.021591463611275306]",4.0,"[-0.07658337352644307,-0.08403828148001488]",100.0,"[0.17974836660364832,0.07018887904948092]",4.0,"[0.0948636552950155,0.002359003924601994]",4.0,"[-0.0029570626715199368,0.12544304657190414]",100.0,"[0.015713421908026597,-0.19756799370865896]",100.0,"[0.09182491323610031,-0.17054177357764044]",100.0,"[0.013650362473684275,-0.1364923248049134]",4.0,"[0.15337750657862106,-0.11246563454033909]",4.0,"[0.12026137069827338,-0.07353211074453897]",100.0,"[0.0528651911639035,0.06746176490478564]",100.0,"[-0.13120577496213703,0.01627296881980691]",4.0,"[-0.10040376922206502,0.04700015705933605]",100.0,"[-0.07024079516717963,-0.1457603380828941]",4.0,"[-0.024607782255062098,0.08452163634120069]",4.0,"[-0.012753738499175894,-0.10002332434081515]",4.0,"[0.19504047319957615,0.0031951276852770724]",100.0,"[-0.19857012723833006,-0.0037101803274040513]",4.0,"[0.13956798469975024,0.12127615968390917]",100.0,"[-0.17174793441526365,0.08435619699667256]",100.0,"[-0.10841213034654774,0.12766752892606575]",100.0,"[0.02,0.02]",110.1844,0.0,15.0,15.0,133.0,1.0,,,,,,,
,,,,,,,67c869b756cd63f0b3387d28,6844298c6a985a6ad2eb3e8d,2025-06-07_14h04.14.127,shape_ratio,2024.1.5,Win32,59.17159763,684250e4f00cb30b92d1fa88,,,,,,,,,,,110.1847,110.6844,,,110.9346,111.0511,right,,,,,,,,0.6,,,,,,110.6844,110.9345,0.101,,111.0512,"[0.009144413595295138,0.09687731012881405]",4.0,"[0.07733898289107168,0.13377685913622295]",100.0,"[-0.04261807490840483,0.027480896494651897]",4.0,"[-0.14893985335961127,-0.025392866798085965]",4.0,"[-0.10714735859788374,-0.11516263421494782]",4.0,"[-0.13983907155149236,0.0989959687687101]",100.0,"[0.0775871765928563,0.016178504010940467]",4.0,"[-0.08971679303238002,-0.15546586223983241]",100.0,"[-0.17555171470461522,0.0532866244066439]",100.0,"[0.046495294188973864,-0.17500048422109352]",4.0,"[0.009332486661229952,0.1414798338453357]",100.0,"[0.1645286259396603,0.01853181101689466]",100.0,"[0.12550967765726687,-0.0017707093548952467]",100.0,"[-0.0007334851291037484,-0.16636965840407356]",100.0,"[-0.10028478781696396,0.04148692186180404]",100.0,"[-0.03271627841437368,-0.13765378715994014]",100.0,"[-0.15427201036674082,-0.11494772570714244]",4.0,"[-0.02326500476585707,-0.018309037438386747]",100.0,"[-0.08038850243953774,-0.07508289565371837]",4.0,"[0.06431369501628705,0.1754572245006847]",4.0,"[-0.0940598046697374,0.09339586264651269]",100.0,"[0.08175471388136406,-0.05606070564507768]",100.0,"[0.02527371823510004,0.039594219020145746]",100.0,"[-0.12381865541016351,-0.06794398609518518]",4.0,"[0.004299220391297643,0.1830581971711053]",100.0,"[-0.1757663057912773,-0.05764866726946332]",4.0,"[0.02546388539398978,-0.04314035733472643]",100.0,"[0.11551192428536632,-0.14637673803850978]",4.0,"[-0.00262919214980592,-0.10150166236026723]",100.0,"[-0.03658472487085741,0.0850587928981857]",100.0,"[0.09227048237334866,0.06601147646099569]",100.0,"[-0.1397357529742742,0.015476729854386464]",4.0,"[0.02,0.02]",112.151,0.0,16.0,16.0,51.0,1.0,,,,,,,
,,,,,,,67c869b756cd63f0b3387d28,6844298c6a985a6ad2eb3e8d,2025-06-07_14h04.14.127,shape_ratio,2024.1.5,Win32,59.17159763,684250e4f00cb30b92d1fa88,,,,,,,,,,,112.1513,112.6508,,,112.9012,113.0176,right,,,,,,,,0.1,,,,,,112.6509,112.9011,0.1037,,113.0177,"[0.17160815286621675,-0.03794345474256948]",4.0,"[0.12380433618059991,-0.008466498617387148]",4.0,"[-0.13983915516135892,0.04364718721335682]",4.0,"[0.11763678342368715,0.0799774570658376]",4.0,"[-0.0643048215990586,0.080648260639273]",4.0,"[0.05385798121174792,-0.03184611264844813]",4.0,"[-0.06548842234410214,-0.010335505475238347]",4.0,"[-0.034559376372987644,0.14858557460062272]",4.0,"[0.08031159783521462,-0.0687087359734166]",4.0,"[0.14500501622080147,-0.10641763053210004]",4.0,"[-0.17707769887070285,0.024739802485402192]",4.0,"[0.05456491686677302,-0.18977924926366713]",4.0,"[-0.06268119215509677,-0.07803786848816788]",100.0,"[0.10819537890191187,0.16556321415602204]",4.0,"[-0.14235862613518288,-0.04568734908307852]",4.0,"[-0.07563334636708272,-0.12572591631571295]",4.0,"[-0.018344955473339607,0.19020645947184345]",4.0,"[-0.02449156287619275,-0.1703666814862105]",100.0,"[-0.12895349652793406,-0.0994257522746715]",4.0,"[0.1260060337136891,-0.14354585926718375]",4.0,"[0.016405633446747097,-0.15460369776674357]",4.0,"[0.15871403875479287,0.03553872088131052]",4.0,"[0.12139505785615257,-0.060604230483838985]",4.0,"[-0.022954442899698068,0.06292129006437737]",4.0,"[-0.004454144012844546,-0.07171187189936365]",4.0,"[-0.13094630649437494,0.14048569451407683]",4.0,"[0.013625755743875272,0.15362699574334376]",4.0,"[-0.07456802654954059,0.15724030341536765]",4.0,"[0.009361347646848933,0.11300614083234249]",4.0,"[0.0760318573322036,-0.1095112270594315]",4.0,"[-0.0006858823788230702,-0.02998118584702649]",100.0,"[-0.09104958016787812,-0.045235475344013086]",4.0,"[0.02,0.02]",114.1174,0.0,17.0,17.0,181.0,1.0,,,,,,,
,,,,,,,67c869b756cd63f0b3387d28,6844298c6a985a6ad2eb3e8d,2025-06-07_14h04.14.127,shape_ratio,2024.1.5,Win32,59.17159763,684250e4f00cb30b92d1fa88,,,,,,,,,,,114.1177,114.6174,,,114.8671,115.1002,right,,,,,,,,0.9,,,,,,114.6175,114.8671,0.2177,,115.1002,"[0.11172589178181051,0.07909108589250187]",100.0,"[0.19358468656266725,0.023839730983283982]",100.0,"[0.031118099928581777,0.17839069750601408]",4.0,"[0.08398118376069554,-0.11592571898825853]",100.0,"[-0.15594885663794306,0.012259357978957714]",100.0,"[0.11633124056354492,-0.0698971732045475]",4.0,"[-0.1090591316092148,-0.05666960250601048]",100.0,"[-0.07404488345996815,0.04365594383697248]",100.0,"[0.05854219729482311,-0.0034483348044434233]",100.0,"[-0.07358244627250043,-0.009194416156562813]",100.0,"[0.10096746595630815,0.014835569819879641]",100.0,"[0.14726022964239927,-0.010207882711783241]",100.0,"[-0.04042509599075457,0.10250420650005453]",100.0,"[0.04774882393163584,0.1024731027516493]",100.0,"[-0.026935055697692563,-0.11013201470629416]",100.0,"[-0.10410676774816546,-0.1439848734960913]",4.0,"[-0.013658595056679273,0.16097672231286714]",100.0,"[-0.06748004472520258,-0.18716370635161197]",100.0,"[-0.09927881031550259,0.07666472692841339]",100.0,"[0.0297689852822787,0.06140621435143471]",100.0,"[0.1314686308677207,-0.12064932701078862]",100.0,"[-0.016310203078302308,-0.1630200372127198]",100.0,"[-0.14693617024485264,0.06826282288026403]",100.0,"[-0.03327392004732863,-0.02175906585967633]",100.0,"[0.0339063246111302,-0.15050404570378528]",100.0,"[0.06196319276407592,-0.055141251006541055]",100.0,"[0.1638877546032108,0.07056905158499806]",100.0,"[-0.07801375198944563,0.13233891599955866]",100.0,"[-0.18426068643800386,-0.02603221762937451]",100.0,"[0.0711910165158576,0.043957301007441024]",100.0,"[0.010411888865320648,-0.06907139936483953]",100.0,"[0.18793661124227912,-0.027416391618061888]",100.0,"[0.02,0.02]",116.1995,0.0,18.0,18.0,16.0,1.0,,,,,,,
,,,,,,,67c869b756cd63f0b3387d28,6844298c6a985a6ad2eb3e8d,2025-06-07_14h04.14.127,shape_ratio,2024.1.5,Win32,59.17159763,684250e4f00cb30b92d1fa88,,,,,,,,,,,116.2003,116.6998,,,116.95,117.1167,left,,,,,,,,0.55,,,,,,116.6999,116.95,0.1511,,117.1168,"[0.16299309425236347,0.11099337593792127]",4.0,"[0.05773355612489388,-0.027103341880535627]",100.0,"[-0.14065152686927057,-0.1004467423372673]",100.0,"[0.06872404974942418,0.0160817904926301]",100.0,"[-0.08249085430708951,-0.1303180083252558]",100.0,"[-0.01686537574487726,-0.14952638962413148]",4.0,"[0.1391203759478434,0.07780286676790872]",4.0,"[0.07276108351120625,0.11444743252744341]",4.0,"[-0.12196745400756144,-0.03670688939592001]",100.0,"[-0.13311281674028172,0.14459594709056278]",100.0,"[0.014135040783628943,0.17076191256978063]",4.0,"[-0.08503618201042958,0.026737593663204735]",4.0,"[-0.10242074225005066,-0.07809264316827787]",100.0,"[0.0506679188846939,0.14892779201316958]",100.0,"[-0.15700193177366314,0.057825912535669155]",100.0,"[0.1333012171559698,-0.006303682070854123]",100.0,"[-0.17516830194862604,-0.030088104203268344]",4.0,"[-0.0788055647398245,0.14989520390338848]",100.0,"[0.11246933867495551,0.1647075316578431]",100.0,"[0.04335057407497858,-0.15981604942774488]",4.0,"[0.02120776372345219,-0.08873342099163242]",100.0,"[0.1871961127661395,0.029348050644016313]",4.0,"[0.17322992651894567,-0.09983296824813566]",100.0,"[-0.06552139194748684,0.08982885936725765]",4.0,"[0.015428958701627018,-0.01838324585516139]",100.0,"[0.12973419876758968,-0.09184197443707824]",4.0,"[-0.03413988654310888,-0.08978152668600026]",4.0,"[0.02422423655225056,0.024031441450183894]",4.0,"[-0.05175864013327462,-0.01582966429959447]",100.0,"[0.1768359296918706,-0.04909937289071336]",100.0,"[-0.022891542716203726,0.03461578525296998]",100.0,"[-0.022967830639573878,0.13435355179774766]",4.0,"[0.02,0.02]",118.2165,0.0,19.0,19.0,86.0,1.0,,,,,,,
,,,,,,,67c869b756cd63f0b3387d28,6844298c6a985a6ad2eb3e8d,2025-06-07_14h04.14.127,shape_ratio,2024.1.5,Win32,59.17159763,684250e4f00cb30b92d1fa88,,,,,,,,,,,118.2173,118.7166,,,118.9604,119.0569,left,,,,,,,,0.45,,,,,,118.7167,118.9603,0.0803,,119.0569,"[-0.030715905632596924,0.14558484014299777]",4.0,"[0.15651455664683933,-0.11626940474806717]",100.0,"[-0.034536292629480575,-0.012062060612248161]",4.0,"[0.06652862745320388,0.04012530864623976]",4.0,"[-0.025665729782188656,-0.08183047462987654]",4.0,"[0.006028504115110215,0.18856168696097647]",100.0,"[-0.15894382793217005,-0.09101971592940511]",100.0,"[-0.12694163627950697,-0.1309204529780094]",4.0,"[-0.08932893742020917,0.137613926398592]",100.0,"[0.022521758073372568,0.13445139623170368]",100.0,"[0.011747556796295718,0.005784656547185932]",100.0,"[0.09480416994389207,-0.15352867113903088]",100.0,"[0.06112632920433033,-0.04935624356074441]",100.0,"[-0.09675781465338669,0.007119585636500802]",100.0,"[-0.03524879634242098,0.06523331274541712]",4.0,"[0.0429038219261214,-0.08754362849273932]",4.0,"[0.05672757549431473,0.1715174543144917]",4.0,"[-0.11868617987441298,-0.04723057470015388]",100.0,"[0.13201299848844586,0.1127960423958444]",4.0,"[-0.03934437145665805,-0.18498664366770393]",4.0,"[0.04890434790482871,0.08261327509236968]",4.0,"[0.06921777642543978,0.12442165012520821]",4.0,"[-0.06671118524186365,0.1773867316713098]",100.0,"[-0.16761378867520244,0.06400156329777107]",4.0,"[0.0282981258841804,-0.15938898282572497]",100.0,"[-0.1926576296412955,-0.029460675936222983]",4.0,"[-0.07540516996668649,-0.07974417654706069]",100.0,"[0.18614434508631375,0.056470132661295754]",100.0,"[0.07646995587932146,-0.0077352448308787075]",4.0,"[0.005969546407605876,0.06584276036994874]",4.0,"[-0.10081265922274142,0.07227734858620995]",4.0,"[0.13890203330463763,0.016848144329548977]",4.0,"[0.02,0.02]",120.1598,0.0,20.0,20.0,128.0,1.0,,,,,,,
,,,,,,,67c869b756cd63f0b3387d28,6844298c6a985a6ad2eb3e8d,2025-06-07_14h04.14.127,shape_ratio,2024.1.5,Win32,59.17159763,684250e4f00cb30b92d1fa88,,,,,,,,,,,120.1605,120.66,,,120.9001,120.983,left,,,,,,,,0.9,,,,,,120.6601,120.9,0.0677,,120.983,"[-0.11410146246292949,-0.0735827197197088]",100.0,"[-0.026020530128920555,0.10470002992494645]",100.0,"[0.056789926117781546,-0.1449549224169552]",100.0,"[0.12765542077246053,-0.019480398101246424]",100.0,"[-0.10616780497874607,0.14984432455047958]",100.0,"[0.01674754569803627,-0.023845554475398916]",100.0,"[0.013978915796720469,0.16081989051725734]",100.0,"[0.1537026528346423,0.1223692537857407]",100.0,"[0.1010010880905829,-0.09208981163839242]",100.0,"[-0.06226033608888355,-0.006938461131804665]",100.0,"[-0.17795759815949821,-0.0744432556334171]",100.0,"[-0.04792087641623594,0.06330683331777567]",100.0,"[-0.026942077090906673,0.02571507607102428]",100.0,"[0.05318684830506238,0.12820153447944377]",100.0,"[-0.19215218269196538,0.00014425061733995204]",100.0,"[0.07904505482951275,-0.05779751980617157]",100.0,"[0.12795363697776846,0.08633482165377929]",4.0,"[-0.09906661476414198,0.09354100830592611]",100.0,"[-0.13842497172894722,-0.020637869953527385]",100.0,"[0.06309355724471839,0.08251841312099388]",100.0,"[0.03572295193421582,0.024271474157808347]",100.0,"[-0.0038219353420370136,-0.16415279451581463]",100.0,"[-0.15412356984586803,0.11361653777569414]",100.0,"[0.03502935707384071,-0.10560517163088791]",100.0,"[0.06140658499611244,0.18190272094329865]",100.0,"[-0.1537131797486914,-0.11173168188985211]",100.0,"[-0.1474423226320907,0.04665951621195324]",100.0,"[-0.1319047571996659,-0.15019601079556463]",4.0,"[0.11371539720968024,0.13640790083052193]",4.0,"[-0.09051915309094437,0.025094370593978944]",100.0,"[0.1000770193704595,0.01820045064232083]",100.0,"[-0.02475373214987187,0.14503093832884226]",100.0,"[0.02,0.02]",122.083,0.0,21.0,21.0,1.0,1.0,,,,,,,
,,,,,,,67c869b756cd63f0b3387d28,6844298c6a985a6ad2eb3e8d,2025-06-07_14h04.14.127,shape_ratio,2024.1.5,Win32,59.17159763,684250e4f00cb30b92d1fa88,,,,,,,,,,,122.0838,122.583,,,122.8334,123.033,right,,,,,,,,0.45,,,,,,122.583,122.8333,0.1844,,123.0331,"[-0.008721517864174742,0.028404288795406515]",4.0,"[-0.04828495556335848,-0.0611062738810491]",4.0,"[0.03346520787228515,-0.012422754831788625]",4.0,"[-0.12174680463628411,-0.029493341147090568]",100.0,"[-0.1616461644074893,0.09450416900022515]",4.0,"[0.16922393001004762,-0.04201647779483981]",100.0,"[0.10905248074842436,0.16222510298564252]",4.0,"[-0.07137761475193427,-0.10767422635441341]",100.0,"[-0.11502495165010101,0.1388305720350518]",100.0,"[0.030235060707346724,0.04647435224220813]",4.0,"[0.16727963281386424,0.061948222891893674]",4.0,"[-0.16897076914051776,-0.08639289533317092]",4.0,"[-0.10015926447096014,0.05747278859317536]",4.0,"[0.09681242601067631,0.003765101129403873]",100.0,"[0.07572885830401901,0.04916804193586889]",100.0,"[-0.0256301426620497,0.15068805514186184]",100.0,"[0.11836148373795248,-0.10231607149034541]",100.0,"[-0.03115712086947662,-0.15540091326804953]",100.0,"[0.04352528204752598,0.15055430771880546]",100.0,"[-0.007374658958444622,-0.19100593608871602]",4.0,"[0.0722168143002099,0.18224584402243124]",4.0,"[0.11872614335364855,0.09982237488237564]",100.0,"[0.06241094550708449,-0.08469583083131793]",100.0,"[0.05558736207548019,-0.1773937375343812]",4.0,"[-0.05920770067727751,0.07725406613917493]",4.0,"[-0.07692631677907902,-0.02237675644231988]",4.0,"[0.11487646901639295,-0.05432604220559994]",4.0,"[0.006972373892925202,-0.05598533754842515]",4.0,"[0.047470113578512926,-0.12353010075843224]",4.0,"[-0.10677811932696359,-0.13030720266187895]",100.0,"[-0.1578813918961117,-0.007497784618894849]",100.0,"[0.19093236862978719,0.028042271731044913]",4.0,"[0.02,0.02]",124.1328,0.0,22.0,22.0,124.0,1.0,,,,,,,
,,,,,,,67c869b756cd63f0b3387d28,6844298c6a985a6ad2eb3e8d,2025-06-07_14h04.14.127,shape_ratio,2024.1.5,Win32,59.17159763,684250e4f00cb30b92d1fa88,,,,,,,,,,,124.1335,124.6327,,,124.8833,125.1331,right,,,,,,,,0.4,,,,,,124.6327,124.8832,0.234,,125.1331,"[0.016169944888911308,0.1470146065303506]",4.0,"[0.028937977841838956,0.04196996730547739]",100.0,"[0.12341193833176177,0.0677511817671368]",100.0,"[-0.030823086097351977,0.15028912033252023]",4.0,"[-0.13562887272775534,0.03079266343948307]",4.0,"[-0.080406578622875,0.04502576780224065]",100.0,"[-0.15898407638541237,-0.015623612241485398]",4.0,"[0.16898096335750046,0.040000181285214924]",100.0,"[-0.04750141195517524,0.0189221870897535]",4.0,"[0.04737431333663561,-0.1608389610638851]",100.0,"[-0.06383072250037143,-0.08555202325431692]",4.0,"[0.043568292794159684,0.09425217154682897]",4.0,"[0.1208218704073419,0.1457707071888797]",100.0,"[-0.04880109643116064,-0.17961143062725896]",4.0,"[-0.0806319869201503,0.12783129040771493]",4.0,"[-0.1912303265313864,0.04740646006869864]",4.0,"[0.05730244591642275,-0.021006987318032497]",4.0,"[-0.03789302967797277,0.07888595016806571]",100.0,"[-0.17490442788512492,0.08426639522893616]",4.0,"[0.12577926069439005,-0.029767934183659518]",100.0,"[0.053414016846697214,-0.09727875916059683]",4.0,"[0.10713550243634883,-0.09119333053010213]",100.0,"[0.17420866544405975,-0.09802561728955503]",4.0,"[0.05709731048711377,0.1410272977000238]",100.0,"[-0.01752980862748795,-0.02988939157875317]",4.0,"[0.09540072387551493,0.11137870476455933]",100.0,"[-0.12218602208975798,-0.056558303694490684]",4.0,"[0.03521919260653168,-0.05682105828309594]",100.0,"[-0.09219580221144023,0.0013377461622364967]",4.0,"[-0.11866502677648882,-0.1279084933914149]",4.0,"[0.09875734141941854,0.026371992557815648]",100.0,"[0.19311846774550348,-0.005038973573616927]",4.0,"[0.02,0.02]",126.2328,0.0,23.0,23.0,170.0,1.0,,,,,,,
,,,,,,,67c869b756cd63f0b3387d28,6844298c6a985a6ad2eb3e8d,2025-06-07_14h04.14.127,shape_ratio,2024.1.5,Win32,59.17159763,684250e4f00cb30b92d1fa88,,,,,,,,,,,126.2336,126.7328,,,126.9764,128.4718,,,,,,,,,0.55,,,,,,126.7328,126.9764,,,128.4719,"[0.06588633379017299,-0.02925964901625187]",4.0,"[-0.05916174394953113,0.0477423839205984]",4.0,"[-0.009648672688168132,0.10589921384870085]",100.0,"[0.10551763135106068,0.003170779902866303]",100.0,"[-0.15654314202272918,0.09723944854721768]",100.0,"[0.016606560658203585,-0.1268115390989085]",4.0,"[-0.035233410887784464,-0.04486737157655637]",100.0,"[-0.072010340922186,-0.09148694244242744]",4.0,"[-0.09193884873775138,-0.15839432207815027]",100.0,"[0.083455821464512,0.09612195936442755]",4.0,"[-0.08330361991047812,0.13006812491904773]",100.0,"[0.06988233465452039,0.053770043810158756]",100.0,"[0.09002622231394466,-0.12536611859659058]",4.0,"[-0.08367762059376652,-0.019624474040041185]",100.0,"[-0.18270493968494403,-0.06277995035256179]",4.0,"[0.13912165735115675,0.11267618836153832]",4.0,"[0.02768757525475476,0.15481232864287692]",4.0,"[-0.015042129240294074,0.026039145609108822]",4.0,"[0.09183042015239103,-0.08297037947768215]",4.0,"[-0.1412674706607555,0.02822998283897266]",4.0,"[-0.12155238340270921,-0.11913269590258621]",100.0,"[-0.17152539757571503,-0.01953096460980154]",4.0,"[-0.043789605445319436,-0.14795148356335108]",100.0,"[0.08999807361844513,0.16024767359848938]",100.0,"[-0.0045612408702856485,-0.015175687411626568]",100.0,"[0.15195330424403475,0.029845620449188957]",100.0,"[0.11602000966859967,-0.04238162676986914]",100.0,"[-0.07946386292861969,0.0845695435952875]",4.0,"[-0.13109987084335847,-0.03622595517431679]",100.0,"[0.025765589158395816,-0.04854361347154509]",100.0,"[-0.19865390089845672,0.01485003466101675]",100.0,"[0.15484006027208358,-0.012206426344280237]",100.0,"[0.02,0.02]",129.5756,0.0,24.0,24.0,82.0,1.0,,,,,,,
,,,,,,,67c869b756cd63f0b3387d28,6844298c6a985a6ad2eb3e8d,2025-06-07_14h04.14.127,shape_ratio,2024.1.5,Win32,59.17159763,684250e4f00cb30b92d1fa88,,,,,,,,,,,129.5764,130.0758,,,130.3261,130.6262,right,,,,,,,,0.55,,,,,,130.0759,130.3261,0.2834,,130.6263,"[-0.07612241256810066,0.15716140859683683]",4.0,"[-0.10241028275937182,-0.16496753049705126]",100.0,"[-0.08504912761037263,0.08431821841125856]",100.0,"[0.06947491427253051,0.001993512200242717]",100.0,"[-0.18433164207392913,0.04770468078122454]",100.0,"[-0.03728041689652926,0.015313705830653994]",100.0,"[-0.017340541657035014,-0.07640851728388443]",4.0,"[-0.03327640142850587,-0.03664010879912013]",4.0,"[0.1290286074062037,0.034324272824826016]",100.0,"[-0.12174491374886552,0.15265855019247251]",100.0,"[-0.029776965078904618,0.08546601180174775]",100.0,"[0.0508383289636831,-0.062242086221627135]",100.0,"[0.016258806617517423,0.031169941280791306]",4.0,"[0.09636397970535744,0.11536078097508684]",100.0,"[0.12790634362503436,-0.10783243326803313]",4.0,"[-0.1542642587582157,-0.08623666709258351]",100.0,"[-0.1528479271958844,0.11823788129500357]",4.0,"[0.15347542175128784,-0.03952276945480119]",4.0,"[0.0459246771020789,0.13936998596518982]",100.0,"[0.01988071380542208,-0.021800993568136928]",4.0,"[-0.08883343625267949,-0.09120461112659752]",100.0,"[-0.05625281908286454,-0.15622162356254118]",100.0,"[0.058231268511083824,0.0454869106325991]",100.0,"[0.18831562466925086,0.03431745259654692]",100.0,"[-0.11906949843528264,-0.04470715854603171]",100.0,"[-0.007264328523883054,-0.1799345938950848]",4.0,"[0.13254083267268243,0.09060260500094924]",100.0,"[-0.11728473934176012,0.021599414618430055]",4.0,"[0.06320168824683303,-0.15593454057274073]",4.0,"[0.08407593566051699,-0.09778533846686242]",4.0,"[-0.028934932552497822,0.14663959488447328]",4.0,"[0.034094702068065384,-0.11004142281865315]",4.0,"[0.02,0.02]",131.7224,0.0,25.0,25.0,61.0,1.0,,,,,,,
,,,,,,,67c869b756cd63f0b3387d28,6844298c6a985a6ad2eb3e8d,2025-06-07_14h04.14.127,shape_ratio,2024.1.5,Win32,59.17159763,684250e4f00cb30b92d1fa88,,,,,,,,,,,131.7238,132.2252,,,132.4761,132.61,left,,,,,,,,0.6,,,,,,132.2253,132.4761,0.1171,,132.6101,"[0.09397248510616756,0.04396609814293049]",4.0,"[-0.0016718789968135006,-0.06530491524523871]",4.0,"[0.17323290430153038,-0.03436611481833026]",100.0,"[-0.031943437070102255,0.14995809258523493]",4.0,"[0.045645033570120376,-0.013082963370942736]",100.0,"[0.03764535363155845,-0.16370113226582841]",100.0,"[0.03285957996153355,0.0607500301103533]",4.0,"[0.0970424627637811,-0.12324014411518792]",100.0,"[-0.039852658321037605,0.07538561299230911]",100.0,"[0.1673764315577298,-0.07512262597453313]",100.0,"[-0.06937482673033764,-0.09166478645264045]",4.0,"[-0.11643071413254219,-0.12555178989466576]",100.0,"[0.11677657405612688,0.11902021664325736]",100.0,"[-0.037895254465437574,0.030414869446369598]",100.0,"[-0.13149347657709012,0.019516689950483987]",4.0,"[-0.09347300886860715,0.11251904991817385]",100.0,"[0.052871484576959636,0.1506115877972137]",4.0,"[-0.16495798070404286,0.08609575708840399]",100.0,"[-0.015695734290472538,-0.1282313253192034]",100.0,"[-0.11232648101841143,0.15269148112341974]",100.0,"[-0.05616375382434928,-0.1797169750792986]",100.0,"[-0.19320672161559363,0.01043014458772783]",4.0,"[-0.03474527777927373,0.1931533934948446]",100.0,"[-0.09588520432062578,-0.015587434894475323]",100.0,"[-0.15634244354064714,-0.0648930770592791]",100.0,"[0.11255108449716394,-0.026883166696094914]",4.0,"[0.16417194634513593,0.014444583074639951]",4.0,"[0.07863916668766067,0.0822059822975397]",4.0,"[-0.11889837654582841,0.06711114314334639]",4.0,"[0.1465335692029933,0.0658044247478628]",4.0,"[0.07017761906226462,-0.05204008799743895]",100.0,"[0.05736329048246581,-0.11334331416553442]",100.0,"[0.02,0.02]",133.7077,0.0,26.0,26.0,49.0,1.0,,,,,,,
,,,,,,,67c869b756cd63f0b3387d28,6844298c6a985a6ad2eb3e8d,2025-06-07_14h04.14.127,shape_ratio,2024.1.5,Win32,59.17159763,684250e4f00cb30b92d1fa88,,,,,,,,,,,133.7085,134.2095,,,134.4475,134.6602,left,,,,,,,,0.55,,,,,,134.2095,134.4474,0.2018,,134.6602,"[0.1534956708519907,0.12518181635559825]",100.0,"[0.12154269663570827,-0.07950508185680374]",4.0,"[0.1269467236628596,-0.03884227276862227]",4.0,"[0.08298076342560343,0.08400420025828853]",4.0,"[-0.07911196268343075,0.048634245441696276]",4.0,"[0.0793522474865131,0.03886897431249865]",4.0,"[-0.021850362244809685,-0.17421586003431133]",4.0,"[-0.15782744050237643,-0.11396309840300962]",100.0,"[-0.089408784302193,0.14045634139501775]",4.0,"[-0.03745500436064462,-0.11465197327715757]",4.0,"[0.128682879030543,0.02011020453178299]",4.0,"[-0.11673980697769598,0.01527722270132314]",100.0,"[-0.019086885069973303,-0.004111667606132837]",100.0,"[0.16968674842042314,-0.04393452980971774]",100.0,"[0.042029066729404194,-0.14313534754807097]",100.0,"[-0.15476208588843213,0.06026622178582552]",100.0,"[-0.04342417338149154,-0.057814848130312]",4.0,"[0.026631833558127704,0.06771428266216309]",100.0,"[0.14406780186984586,0.08006071437028875]",100.0,"[0.10879182516670116,0.12475229590296326]",100.0,"[0.10683943881928909,-0.16148549068115983]",100.0,"[-0.026910160210161193,0.17465552568266235]",100.0,"[-0.12163874834379751,-0.05595779717571912]",4.0,"[0.006200150757040961,0.10580136047274016]",100.0,"[-0.12064666823313515,0.09232027111518436]",100.0,"[0.17616392952066828,0.003568815386709279]",4.0,"[-0.11651908638424834,-0.12210406971454435]",100.0,"[-0.16900551727822122,0.0031129710405246314]",100.0,"[0.053270023672713655,0.16780068302845416]",4.0,"[-0.024012835694070686,0.05119007372270774]",4.0,"[0.025352837599180993,0.014380070620671483]",100.0,"[-0.07776404081231826,0.1797651121006356]",100.0,"[0.02,0.02]",135.7591,0.0,27.0,27.0,62.0,1.0,,,,,,,
,,,,,,,67c869b756cd63f0b3387d28,6844298c6a985a6ad2eb3e8d,2025-06-07_14h04.14.127,shape_ratio,2024.1.5,Win32,59.17159763,684250e4f00cb30b92d1fa88,,,,,,,,,,,135.7598,136.259,,,136.4994,136.7662,right,,,,,,,,0.45,,,,,,136.259,136.4993,0.2555,,136.7662,"[0.07798817844631252,0.11199255073933115]",4.0,"[-0.06555070589420124,0.0973664358902604]",100.0,"[0.017656381585798988,-0.04702261550684967]",4.0,"[0.13264344147725413,-0.11936167928962421]",100.0,"[-0.16644739286917848,-0.017212250733228563]",100.0,"[0.1080389559851956,0.004512757427082531]",100.0,"[-0.009341851090585147,-0.11361657777755739]",4.0,"[0.10329535733438953,-0.06112142420880603]",4.0,"[-0.06281480496839711,-0.03293024500917586]",4.0,"[0.04787381254017468,-0.17354093574829965]",100.0,"[-0.08698955155701939,0.15834389128520182]",4.0,"[-0.12414826299431445,0.027998176106573177]",100.0,"[-0.0014886189331057712,0.022122736213488897]",4.0,"[0.11271532687933139,0.16186430519954598]",4.0,"[0.04470056980325677,0.07565105271886109]",100.0,"[-0.16261742172057128,-0.08133929491951546]",100.0,"[-0.11264828556762514,0.08987516884451187]",100.0,"[-0.0628445228976512,0.02070153546209475]",4.0,"[-0.06703037002860622,-0.1688117663801004]",4.0,"[0.1916228996891985,-0.03832499382280789]",100.0,"[0.16715832780150952,0.062435163177577774]",4.0,"[-0.07129389155899882,-0.10943832020642832]",100.0,"[-0.009626933826127934,0.11000843884382795]",4.0,"[-0.13152197628349258,-0.051130783638223105]",4.0,"[0.162634823593671,-0.08217191488996922]",4.0,"[0.05587166606963929,0.15086956565136225]",100.0,"[-0.11277281838639153,-0.13353708498783315]",4.0,"[0.18284844702035072,0.020318618502836436]",4.0,"[0.02383215923743038,0.1915574048243263]",100.0,"[0.14935610917743336,-0.008621039057294898]",4.0,"[0.04763658238856942,-0.0764829654320389]",100.0,"[-0.16705771030082187,0.08347354902867397]",4.0,"[0.02,0.02]",137.8656,0.0,28.0,28.0,148.0,1.0,,,,,,,
,,,,,,,67c869b756cd63f0b3387d28,6844298c6a985a6ad2eb3e8d,2025-06-07_14h04.14.127,shape_ratio,2024.1.5,Win32,59.17159763,684250e4f00cb30b92d1fa88,,,,,,,,,,,137.8664,138.3655,,,138.616,138.8657,left,,,,,,,,0.6,,,,,,138.3656,138.6159,0.2361,,138.8658,"[-0.19557933767109845,0.039523141849054554]",4.0,"[0.019152666497202653,0.003307248643833082]",100.0,"[0.013265082172955528,-0.15789407038996567]",4.0,"[0.09208637480969255,-0.13822147455348374]",4.0,"[0.003240058011295317,0.07565551015239398]",100.0,"[-0.017888338387139636,-0.13203130592532333]",100.0,"[-0.0415392772717066,0.07055047745348907]",100.0,"[0.18742110793343036,0.0508403996650701]",4.0,"[-0.02181590055589749,-0.04905282385107768]",100.0,"[-0.03568007021414564,-0.17357868850685637]",4.0,"[-0.029948546140164428,0.17126833621191567]",100.0,"[0.07648465614572886,0.16298861456273456]",100.0,"[-0.15480029335938753,0.07999538301647899]",100.0,"[0.15335136378707387,-0.041725977785838184]",100.0,"[-0.09165175364675854,-0.1192796129504708]",4.0,"[-0.0034258393200019715,0.12431558244322721]",100.0,"[-0.06861349018330459,0.15784643960778966]",4.0,"[0.047875806608515564,0.08985863532770935]",100.0,"[-0.09351194938634552,0.031190354524331367]",4.0,"[-0.07750149085321009,-0.1751865029320822]",100.0,"[0.03513020774132944,-0.07318851999161557]",4.0,"[0.08087063445737319,-0.029542840548039146]",100.0,"[-0.17473366800946552,-0.0461840075019572]",100.0,"[-0.17377777766226937,0.005200687439113722]",4.0,"[0.06023454662141745,-0.10948615925926558]",100.0,"[-0.012517605109569457,-0.08948851971487765]",100.0,"[-0.10844426205595796,0.14269900236775349]",4.0,"[-0.12351845031441307,-0.018658286977681415]",4.0,"[0.1341974884528494,0.14132066026462003]",100.0,"[0.1002786890152253,0.043137451491663203]",4.0,"[-0.05633656751647771,-0.022111169627584016]",100.0,"[0.14318372508379493,0.064853352496067]",100.0,"[0.02,0.02]",139.9655,0.0,29.0,29.0,56.0,1.0,,,,,,,
,,,,,,,67c869b756cd63f0b3387d28,6844298c6a985a6ad2eb3e8d,2025-06-07_14h04.14.127,shape_ratio,2024.1.5,Win32,59.17159763,684250e4f00cb30b92d1fa88,,,,,,,,,,,139.9664,140.4655,,,140.7158,140.7494,left,,,,,,,,0.4,,,,,,140.4657,140.7158,0.0173,,140.7494,"[0.00467614334839479,-0.10640469919491298]",4.0,"[-0.06583557466302122,-0.07017834232152075]",4.0,"[0.06578202943617519,0.14438290471924908]",4.0,"[-0.006104894779135992,-0.05232591865297106]",4.0,"[0.026600272078900065,0.1029438106389597]",4.0,"[-0.0712237390110081,-0.018126200320746313]",4.0,"[-0.11003156337493225,-0.1381799362195227]",4.0,"[-0.03913223118392401,0.012104041483285961]",4.0,"[0.03216988920410396,-0.1659034429613086]",4.0,"[-0.13719200922518895,0.0747066922780129]",100.0,"[0.0734399579530573,-0.057043039531923835]",100.0,"[0.10150152951918776,-0.09673099819482765]",4.0,"[-0.028791328595097802,0.06619784022919077]",4.0,"[-0.03562370581842062,0.18836117613872116]",100.0,"[-0.07011030703179183,0.16602423760042165]",100.0,"[0.0436119581505628,0.010588310809912883]",100.0,"[-0.08559507372085179,0.05041377776250559]",100.0,"[0.01440069106555881,0.05533322910478382]",100.0,"[0.15543866312981186,-0.024262760772947853]",4.0,"[0.07774149884253702,-0.15631287164809918]",100.0,"[-0.01866194548628344,0.12887569832380674]",4.0,"[-0.1164191031655706,-0.0688821338381472]",100.0,"[0.15077628784944236,-0.11123543749166116]",100.0,"[0.12061130475902757,0.1209139528507448]",4.0,"[-0.19867567948359255,0.019317678282499456]",4.0,"[0.1319749243757719,0.07082459043966925]",100.0,"[0.0729495607209606,0.10283334876655245]",100.0,"[0.1403576545906644,0.02297722517275807]",4.0,"[0.022144052411542662,0.16341499982107482]",4.0,"[0.08981989796062706,0.0266169153923253]",4.0,"[0.11607619457223463,-0.01570369111772816]",4.0,"[0.05829248147320598,-0.11331669697438618]",100.0,"[0.02,0.02]",141.8486,0.0,30.0,30.0,163.0,1.0,,,,,,,
,,,,,,,67c869b756cd63f0b3387d28,6844298c6a985a6ad2eb3e8d,2025-06-07_14h04.14.127,shape_ratio,2024.1.5,Win32,59.17159763,684250e4f00cb30b92d1fa88,,,,,,,,,,,141.8494,142.3484,,,142.599,142.6322,right,,,,,,,,0.45,,,,,,142.3484,142.599,0.0184,,142.6322,"[-0.03280083646847536,0.1311740789727252]",100.0,"[-0.15878446488891046,-0.024136883807015355]",100.0,"[0.06975564338550744,0.038590865224986545]",4.0,"[0.007871089598520738,-0.019914637926445614]",100.0,"[0.10839234446099127,0.026922813765046363]",4.0,"[0.02268227513204761,0.12496506855724239]",100.0,"[-0.09809255538221319,-0.07437885105999299]",100.0,"[-0.11820317032946014,-0.007486506303005071]",4.0,"[0.09689618239167584,-0.15528997780409734]",4.0,"[0.17996408669077218,-0.04206811281380009]",4.0,"[-0.03341339562619656,-0.014223102985560798]",100.0,"[0.06456848318553472,-0.1863192180686207]",100.0,"[0.01823220440496091,-0.10670279079090687]",100.0,"[0.041333308959785896,0.17943281598809205]",4.0,"[0.14075678287696428,-0.14168532505448708]",100.0,"[-0.14640358358926966,0.11524325993618278]",100.0,"[-0.1839026039590929,-0.07508133715712036]",100.0,"[-0.1683559006621255,0.07891196481373318]",4.0,"[0.07446063247946313,-0.06055404996374881]",4.0,"[-0.05381359354111521,-0.1776508802724061]",4.0,"[0.11324428331867012,-0.08220035289323874]",4.0,"[0.19489505282619574,0.016738200619775066]",4.0,"[-0.06042458981340223,0.03165781838316242]",100.0,"[-0.010012191264654158,-0.1356631341300928]",100.0,"[0.17025763843535954,-0.09715101457727032]",4.0,"[-0.007076225534589357,-0.1839939959071865]",4.0,"[0.016717674125974472,0.056706769938641995]",4.0,"[0.08463562613686179,0.15231934561295327]",4.0,"[-0.1933246611522975,0.0204958537107369]",4.0,"[-0.0981024551728554,0.14352399185409992]",100.0,"[0.047591434487313566,-0.028650307386728715]",4.0,"[0.10581873385929293,0.09158380133846214]",4.0,"[0.02,0.02]",143.7317,0.0,31.0,31.0,137.0,1.0,,,,,,,
,,,,,,,67c869b756cd63f0b3387d28,6844298c6a985a6ad2eb3e8d,2025-06-07_14h04.14.127,shape_ratio,2024.1.5,Win32,59.17159763,684250e4f00cb30b92d1fa88,,,,,,,,,,,143.7324,144.2315,,,144.4819,144.5819,left,,,,,,,,0.55,,,,,,144.2316,144.4819,0.0877,,144.5819,"[-0.06310187785495648,-0.17846428013236645]",100.0,"[0.08900625385731945,0.12158872217481408]",4.0,"[0.04710027917906107,0.10384244360256276]",100.0,"[-0.11917014289300008,0.06486274612480696]",4.0,"[0.06978762424561724,0.02644561918253729]",100.0,"[-0.015188945063296612,-0.17387725875767335]",100.0,"[-0.0020503867720431763,-0.12085967003824806]",4.0,"[-0.032606893439461666,-0.04478993819723093]",4.0,"[0.033246721223476425,0.054554549875402786]",4.0,"[0.15801639967970302,-0.07740481786288893]",4.0,"[-0.07566458978599357,-0.042963196235875536]",4.0,"[-0.042210878847977897,0.16076602560319753]",100.0,"[-0.16836469662050096,0.045767504490620385]",100.0,"[0.07418895351907387,-0.1580315129323227]",100.0,"[0.12247580777539316,-0.015838405916704237]",100.0,"[0.11177149640812442,0.08705091815934911]",100.0,"[0.16293936435016534,-0.019559497168829692]",4.0,"[-0.045396307678580196,0.056517883913798146]",100.0,"[-0.10760867518666312,0.018013137747540542]",100.0,"[0.17078853615974376,0.07518308516078023]",100.0,"[-0.02519991029696511,0.021256511968803217]",4.0,"[0.05703666917661785,0.1700145953731641]",4.0,"[-0.08606395577046867,-0.08719045180863677]",100.0,"[0.10157915779367498,-0.051993077159682766]",4.0,"[0.1406378794732129,-0.11383857661811264]",100.0,"[0.11255129031007083,0.04185379947371969]",100.0,"[0.00893217199522575,-0.010817352292261335]",100.0,"[0.03329617133671497,-0.14846849504169793]",100.0,"[-0.15064853800209244,0.12882069776670407]",100.0,"[-0.07165986470481144,0.1321057972547939]",4.0,"[-0.16247097675194155,0.003382989442432604]",4.0,"[-0.0930164706296636,0.16877562632857843]",4.0,"[0.02,0.02]",145.6814,0.0,32.0,32.0,75.0,1.0,,,,,,,
,,,,,,,67c869b756cd63f0b3387d28,6844298c6a985a6ad2eb3e8d,2025-06-07_14h04.14.127,shape_ratio,2024.1.5,Win32,59.17159763,684250e4f00cb30b92d1fa88,,,,,,,,,,,145.6821,146.1816,,,146.4319,146.5659,left,,,,,,,,0.4,,,,,,146.1817,146.4319,0.117,,146.5659,"[-0.016385317461615354,-0.06152650107632665]",4.0,"[0.13811198879783806,0.08316902019000455]",4.0,"[0.09078283692782221,0.04308842080479922]",4.0,"[0.031286782416207075,-0.0862597165727577]",4.0,"[-0.05493330064634297,0.006979915143247386]",100.0,"[0.07208561767423986,0.11134832686930556]",4.0,"[-0.16606666613163046,0.04166167294291789]",100.0,"[-0.05038604985040554,0.15654190387153746]",4.0,"[0.006392223175519898,-0.19269911706497772]",4.0,"[0.1643800757736337,0.0012956892661870304]",4.0,"[0.03212055391052675,0.10247283619729115]",4.0,"[0.14869655456116238,-0.08989323211238145]",100.0,"[0.12220059260147542,0.12301116186878344]",4.0,"[-0.0726067473826754,-0.11041604866760409]",100.0,"[-0.07474121184628668,0.07156176001197953]",4.0,"[-0.15475183388349248,-0.04593379786283838]",4.0,"[0.02010342224180819,0.01870289453657017]",4.0,"[-0.008313852397064413,0.11219176344729832]",100.0,"[-0.17596976606020961,-0.09188867360121532]",4.0,"[-0.10536434961863407,-0.157836996633937]",100.0,"[-0.09401632596774093,-0.019302863425558363]",4.0,"[0.0826036969709389,-0.06261842572730318]",4.0,"[0.09105960607087583,-0.12514304692845907]",4.0,"[-0.00540349266308596,0.05559555851762384]",4.0,"[-0.00861263984469856,-0.10453242227951494]",100.0,"[0.03770241984178318,0.17118222617995227]",100.0,"[-0.06342136923206486,-0.053246631129446303]",100.0,"[0.0887207761569412,0.1496380094239378]",100.0,"[-0.015036196688641168,-0.15540606729629153]",100.0,"[0.19555657145426925,-0.03832163281182305]",4.0,"[0.17688961347011142,0.054834637079423126]",100.0,"[0.031651758356740986,-0.1522424322439849]",100.0,"[0.02,0.02]",147.6649,0.0,33.0,33.0,150.0,1.0,,,,,,,
,,,,,,,67c869b756cd63f0b3387d28,6844298c6a985a6ad2eb3e8d,2025-06-07_14h04.14.127,shape_ratio,2024.1.5,Win32,59.17159763,684250e4f00cb30b92d1fa88,,,,,,,,,,,147.6657,148.1648,,,148.4154,148.465,right,,,,,,,,0.55,,,,,,148.1649,148.4153,0.0342,,148.465,"[0.026102924192871996,-0.15697263299093736]",4.0,"[0.03490954165547366,0.07107021730286671]",4.0,"[0.12158134219421787,0.08507377553638773]",100.0,"[0.03444901768368974,-0.1150350926038807]",100.0,"[0.10131969944535711,-0.11386579644814937]",100.0,"[-0.10548345049952201,0.052166663512725]",4.0,"[0.07221573041510503,0.1332429250748071]",100.0,"[-0.13736496280813576,0.017733922668741676]",100.0,"[-0.10074324895888027,-0.09713075209204403]",4.0,"[-0.05398697100694568,-0.12792586965170807]",100.0,"[0.10336936995080923,-0.004461363110970295]",4.0,"[0.07708833148058006,0.08122854961814482]",100.0,"[-0.10984852547618369,-0.05590464066901214]",100.0,"[-0.06958615453883174,0.09765771088164826]",100.0,"[0.14587981017463958,-0.07281570153482315]",4.0,"[0.07815239318720175,-0.1715473595797402]",4.0,"[-0.15306201216844198,-0.03358482514441452]",4.0,"[0.15136050536572235,0.11705820065664187]",4.0,"[0.03941463559842364,0.16830873960520445]",4.0,"[-0.05033474393390762,0.015835677833721657]",4.0,"[-0.015580837995796026,0.19651261679291218]",100.0,"[-0.15889674249363442,-0.08494391631991377]",100.0,"[0.016530404112276294,-0.009416407124718766]",4.0,"[0.10186739255413962,0.04322986524384307]",100.0,"[-0.19239950333763112,0.00489005196186832]",100.0,"[0.09041411558401442,-0.06780873309866915]",100.0,"[-0.09725386393993182,-0.1563680378546214]",4.0,"[-0.017760950808196504,0.11527475882655261]",100.0,"[0.12209586966076852,-0.15229843980384364]",100.0,"[-0.15845872261461,0.10309180651430316]",100.0,"[-0.021450499070689685,-0.18257385526301043]",4.0,"[0.15410928810613994,-0.005504485421407096]",100.0,"[0.02,0.02]",149.5648,0.0,34.0,34.0,76.0,1.0,,,,,,,
,,,,,,,67c869b756cd63f0b3387d28,6844298c6a985a6ad2eb3e8d,2025-06-07_14h04.14.127,shape_ratio,2024.1.5,Win32,59.17159763,684250e4f00cb30b92d1fa88,,,,,,,,,,,149.5655,150.0648,,,150.3149,150.5816,right,,,,,,,,0.45,,,,,,150.0648,150.3149,0.2515,,150.5816,"[-0.18048171440245775,0.07978803289129707]",100.0,"[0.10715393444576647,0.0993261136274523]",100.0,"[-0.0482295634291005,-0.09893846374805397]",100.0,"[0.013353996217908908,0.1104711554969005]",4.0,"[0.01403895226270102,-0.13670875424887774]",4.0,"[0.1474803297965869,0.05159677272287667]",4.0,"[-0.16296231682326684,-0.03302831797126135]",4.0,"[-0.19381746646555303,0.0367791344096082]",4.0,"[-0.06860997020894985,-0.015482865492960147]",4.0,"[0.03089328160382544,-0.08694438337006939]",4.0,"[0.18323478071686858,-0.008593891273187196]",4.0,"[0.013368606024704865,0.012009723190916406]",100.0,"[-0.08836461612990607,0.12997395788807745]",100.0,"[-0.03330154209342119,0.14354092980755997]",4.0,"[0.1743021950568075,-0.05632450980778446]",100.0,"[0.09860041041986711,0.14085301171637765]",100.0,"[0.1332342446332236,-0.11026863816748021]",4.0,"[-0.11484256483148113,-0.09088481422752796]",100.0,"[-0.03386494080466242,-0.15395485471667406]",4.0,"[0.054772342074478376,-0.18672153704029334]",100.0,"[0.06832558201659861,0.037241979103524794]",4.0,"[-0.04573663299392098,0.056711182459980206]",100.0,"[-0.0320720121871562,-0.050496565350505326]",4.0,"[0.11704086733749774,-0.06874288871417905]",100.0,"[0.06985238826281594,-0.030373113497397]",4.0,"[-0.10427464716870424,0.08825413642913735]",100.0,"[0.01380626211265606,0.06158727650946985]",4.0,"[0.047478819237417785,0.16317398043077083]",4.0,"[-0.12604307541951798,0.009206235853244406]",4.0,"[-0.01315376356628996,0.1926616149295552]",100.0,"[0.09314836466742123,0.004848985742401109]",4.0,"[-0.08624744199194281,-0.13196199249283122]",100.0,"[0.02,0.02]",151.6814,0.0,35.0,35.0,130.0,1.0,,,,,,,
,,,,,,,67c869b756cd63f0b3387d28,6844298c6a985a6ad2eb3e8d,2025-06-07_14h04.14.127,shape_ratio,2024.1.5,Win32,59.17159763,684250e4f00cb30b92d1fa88,,,,,,,,,,,151.6823,152.1813,,,152.4316,152.6317,left,,,,,,,,0.1,,,,,,152.1813,152.4316,0.1841,,152.6318,"[-0.011150038184340611,-0.09744331604536893]",4.0,"[-0.09496932736442557,-0.0009717874696110257]",100.0,"[-0.15443916378972553,0.0116355291338597]",4.0,"[0.06379116489771754,-0.077822440139405]",4.0,"[0.18891993197987886,-0.015878177311291607]",4.0,"[0.06990107708969338,0.1207333080649504]",4.0,"[0.1733923337084514,-0.06834932000946285]",4.0,"[-0.08087134913472349,-0.06828325165339305]",4.0,"[-0.14410099629359713,-0.09958224356725309]",4.0,"[-0.047901017135383424,0.12061285649565406]",4.0,"[0.006205441288002998,0.10323983405062011]",4.0,"[-0.1711155920507832,0.09029386580690317]",4.0,"[-0.028291897551969262,0.03255147284326239]",4.0,"[0.08879712664930832,0.06346756457880792]",100.0,"[0.01722150317114524,-0.17740246642261348]",4.0,"[0.04576100038224787,0.020596596356505622]",4.0,"[0.059906635297600604,-0.17274215295564077]",4.0,"[-0.13685343334900155,-0.052115943031322144]",4.0,"[-0.04884656638267152,-0.1325047905815169]",4.0,"[-0.12519099206706774,0.12057633892921611]",4.0,"[0.12408591576525503,-0.14672381823357153]",4.0,"[-0.08504659082241016,0.09986249788195704]",4.0,"[0.12603077538021748,0.10053421482953089]",4.0,"[-0.10146273484832607,-0.16823652402455774]",100.0,"[-0.12012292644458628,0.05644029797957704]",4.0,"[0.0007812843028238111,-0.0009100930774084601]",4.0,"[-0.06666173417345893,0.16590407781034902]",4.0,"[0.1659260181594388,0.06976339009172955]",4.0,"[0.02179907984106156,-0.12152052181265041]",4.0,"[-0.19157699810800105,0.040690960535367415]",4.0,"[0.12040247993335321,0.008113127787443731]",4.0,"[0.04302682975466888,0.06306522506240458]",4.0,"[0.02,0.02]",153.731,0.0,36.0,36.0,185.0,1.0,,,,,,,
,,,,,,,67c869b756cd63f0b3387d28,6844298c6a985a6ad2eb3e8d,2025-06-07_14h04.14.127,shape_ratio,2024.1.5,Win32,59.17159763,684250e4f00cb30b92d1fa88,,,,,,,,,,,153.7318,154.2312,,,154.4814,154.7482,right,,,,,,,,0.9,,,,,,154.2313,154.4814,0.2529,,154.7484,"[-0.06431122191778463,-0.17294020248754963]",100.0,"[0.01576718365467568,0.039797667710497454]",100.0,"[0.12257556417390017,0.14809518667942623]",100.0,"[-0.08932958884419269,-0.06655373019904898]",100.0,"[-0.14594904080154006,0.12117308892073299]",100.0,"[0.12737615901815205,0.027188512408204395]",100.0,"[-0.14627632235077537,-0.0640211932385029]",100.0,"[0.04082668285308928,-0.04463259575625204]",100.0,"[-0.03900830365658732,-0.06989824936378426]",100.0,"[0.0278104306168688,-0.1448122588209015]",4.0,"[-0.10155695806728339,0.09467815717114442]",100.0,"[-0.19947833629306896,-0.0005120719352476016]",100.0,"[-0.01821286316417877,-0.11458431028357143]",100.0,"[0.16549547587012567,-0.10044063492452993]",100.0,"[0.08267731482293872,-0.15211304123343866]",100.0,"[-0.07054311243266757,0.03696142461771535]",100.0,"[0.11979376940605078,-0.05385419706543536]",100.0,"[-0.03145829092284381,0.11633130768942894]",100.0,"[0.03218681649515849,0.08525916488617861]",100.0,"[-0.07978584691989984,0.1503331214161076]",100.0,"[0.017883171076512133,0.16959100246306044]",100.0,"[-0.0030667735375773586,-0.19466362009293128]",100.0,"[-0.13667694006019668,-0.11437353524009707]",100.0,"[0.08346715245511863,-0.014858809369176293]",100.0,"[-0.10786718886841992,-0.019894148771122864]",100.0,"[-0.006109118457310115,-0.026835584335674744]",100.0,"[0.06293012654891857,0.13082015371130626]",4.0,"[-0.19401301120196676,-0.04456307862538696]",100.0,"[-0.14818961111558557,0.0807314011523121]",4.0,"[0.08735132766852177,-0.10129890083318925]",100.0,"[0.020732842476404032,-0.09496264378407696]",100.0,"[-0.027741265537117477,0.1698528571963675]",100.0,"[0.02,0.02]",155.8479,0.0,37.0,37.0,14.0,1.0,,,,,,,
,,,,,,,67c869b756cd63f0b3387d28,6844298c6a985a6ad2eb3e8d,2025-06-07_14h04.14.127,shape_ratio,2024.1.5,Win32,59.17159763,684250e4f00cb30b92d1fa88,,,,,,,,,,,155.8487,156.3478,,,156.5983,156.7648,right,,,,,,,,0.9,,,,,,156.3479,156.5982,0.1509,,156.7649,"[-0.0928961437575794,-0.10246840065710452]",100.0,"[0.037823286188117755,0.10859723617361464]",100.0,"[0.06610658754786923,-0.06005501856074558]",100.0,"[-0.01246021786734237,-0.08569902740551075]",100.0,"[-0.04147379555952127,0.17673695681823604]",4.0,"[-0.06480867608224336,0.0023177861001350587]",100.0,"[-0.06454871214760823,-0.14712405535077452]",100.0,"[-0.1177045577790063,0.012291860712857375]",100.0,"[-0.12165565968549374,-0.04574324832656372]",100.0,"[0.1507176963931147,0.10075897719039037]",100.0,"[0.022960637795573093,0.16367680508442822]",100.0,"[0.10526833142036465,0.09525922428179254]",100.0,"[-0.0769350208488618,0.06828843764437993]",100.0,"[0.03665545607492942,-0.13551801341291947]",100.0,"[0.008305853182761133,-0.02731737241299166]",100.0,"[-0.025679315404175722,0.09058680420797639]",100.0,"[-0.12566123857416664,0.07084314209787877]",100.0,"[0.10303385657872335,0.1599277647847443]",100.0,"[0.16554118549650412,0.020226452380929186]",100.0,"[-0.09633728242007154,0.11411642175528715]",4.0,"[0.12492252795755837,-0.01148493566645668]",100.0,"[0.07841327267871445,0.046553278559706285]",100.0,"[-0.17883871558378092,-0.02792977795027106]",100.0,"[-0.007634658051973531,0.02594514562086826]",100.0,"[-0.06338800569954345,-0.059462928173353025]",100.0,"[-0.14380207841673057,-0.1100882775776313]",100.0,"[0.14682511637714696,-0.11273997918985637]",4.0,"[-0.16978937181614756,-0.07514328805481559]",100.0,"[-0.01504031646747818,-0.12774870137649794]",100.0,"[-0.16284968547338394,0.04001798159260056]",100.0,"[-0.03732905971267185,-0.19260754546994474]",100.0,"[-0.14232794346461883,0.12067213452333295]",100.0,"[0.02,0.02]",157.8645,0.0,38.0,38.0,18.0,1.0,,,,,,,
,,,,,,,67c869b756cd63f0b3387d28,6844298c6a985a6ad2eb3e8d,2025-06-07_14h04.14.127,shape_ratio,2024.1.5,Win32,59.17159763,684250e4f00cb30b92d1fa88,,,,,,,,,,,157.8652,158.3645,,,158.6149,158.7813,left,,,,,,,,0.4,,,,,,158.3646,158.6148,0.1511,,158.7814,"[0.09866951548057859,0.09548578294721201]",100.0,"[0.06718990643157423,-0.06642332167062585]",100.0,"[-0.0010862828735604603,-0.027108484947202315]",100.0,"[-0.005869585428067372,-0.11549790733779378]",4.0,"[0.13266399720213873,0.012872933610368176]",4.0,"[-0.05888530026623085,-0.1024258454404781]",4.0,"[0.060173255673727395,-0.026551167520012298]",4.0,"[-0.017329563023214315,0.18819211933868546]",100.0,"[-0.10427616099778773,0.01313611442952768]",4.0,"[0.12028815109769525,0.13863905841989985]",4.0,"[0.147025628330968,0.10106780728124072]",4.0,"[0.04870988387409815,0.03694965984983149]",4.0,"[0.12016927422898033,0.052710731345859275]",4.0,"[0.19184989758660698,-0.014601280362568]",100.0,"[-0.020001124506168554,0.05004944725697518]",4.0,"[0.13072262580318963,-0.1067067074015709]",4.0,"[-0.14040915620294278,0.07449460346656572]",100.0,"[-0.08000406295383819,-0.056122628266933594]",4.0,"[-0.12107506094988922,-0.06450082634807866]",4.0,"[0.004363944456775138,0.13798031152205942]",100.0,"[0.12170962166277162,-0.02707987113237571]",100.0,"[0.04905708424485396,0.1450100851439639]",100.0,"[-0.07158570602714327,0.06641714039482592]",4.0,"[-0.04965187893597207,-0.1838867031940409]",4.0,"[0.18960105153141946,0.06290188913543009]",100.0,"[-0.0900020694664565,-0.13958410432903676]",100.0,"[-0.16718694305737403,-0.09570819351206322]",100.0,"[0.057371086904357264,0.07775848429669929]",4.0,"[0.08746570450687462,0.17416154662440234]",4.0,"[-0.1455923236653465,-0.006956846440404087]",4.0,"[-0.0496347880478685,0.14280373739886637]",4.0,"[-0.06357748800116099,0.019307503772998603]",100.0,"[0.02,0.02]",159.881,0.0,39.0,39.0,169.0,1.0,,,,,,,
,,,,,,,67c869b756cd63f0b3387d28,6844298c6a985a6ad2eb3e8d,2025-06-07_14h04.14.127,shape_ratio,2024.1.5,Win32,59.17159763,684250e4f00cb30b92d1fa88,,,,,,,,,,,159.8817,160.3807,,,160.6313,160.7812,left,,,,,,,,0.45,,,,,,160.3807,160.6313,0.1345,,160.7812,"[-0.07612599672303041,-0.05589675079577632]",4.0,"[0.034591622435658706,-0.12124167355175965]",100.0,"[-0.040939830284278216,-0.10409857832768328]",4.0,"[0.08729806060220463,-0.06498872386170652]",100.0,"[-0.12750838195867462,-0.06458767603168736]",4.0,"[-0.03390715352299356,-0.03619890685282734]",4.0,"[0.1641827920656581,-0.04009954141874208]",4.0,"[0.02224559160521665,-0.04593433390873671]",100.0,"[-0.0949420901911285,0.03675701253986894]",4.0,"[0.07264437916020915,0.11430809034993417]",100.0,"[-0.14492360886490682,0.08986281238269543]",100.0,"[0.05203298977102683,-0.18956642136227392]",100.0,"[-0.09628291121369725,-0.1292343869844085]",100.0,"[0.12922936163982623,-0.09143926570892442]",4.0,"[0.14942785417414325,0.023362559645227016]",4.0,"[-0.1856090552078539,-0.005240054584106742]",100.0,"[0.0003761863231383998,-0.15647008393775755]",100.0,"[0.12078787087661563,0.1132928471710041]",4.0,"[0.01356365835694068,0.19686947981006314]",4.0,"[-0.08670125429960103,0.08245489032963087]",4.0,"[-0.037635688506463906,0.08268531228574452]",4.0,"[0.006483229080331244,0.10957216772938055]",100.0,"[-0.04764703003727852,0.13830975161541834]",100.0,"[0.17549609091669846,-0.0843490906273013]",4.0,"[0.09027392026232957,-0.14985490274589985]",100.0,"[-0.06062398880997091,-0.17687044848894903]",4.0,"[0.06837670466136872,0.002759978421470814]",4.0,"[0.028877079415993916,0.04125631297128486]",100.0,"[0.06357221164082406,0.06873804779545112]",4.0,"[0.14612938396276595,0.07946803301564141]",4.0,"[-0.11013721195288988,0.1351928315733523]",100.0,"[-0.14638164999813666,0.02500168977481243]",4.0,"[0.02,0.02]",161.881,0.0,40.0,40.0,125.0,1.0,,,,,,,
,,,,,,,67c869b756cd63f0b3387d28,6844298c6a985a6ad2eb3e8d,2025-06-07_14h04.14.127,shape_ratio,2024.1.5,Win32,59.17159763,684250e4f00cb30b92d1fa88,,,,,,,,,,,161.8816,162.3809,,,162.6312,162.9148,left,,,,,,,,0.55,,,,,,162.3809,162.6311,0.272,,162.9148,"[-0.10993608575945875,-0.13138370553209344]",100.0,"[-0.08389088501065589,0.0381773859499381]",4.0,"[0.028248357711151466,0.02538075813324941]",100.0,"[-0.1260738920741155,0.14099087420979373]",100.0,"[0.024488521678537063,-0.11571841725783297]",4.0,"[0.0959836521177769,-0.11222109696605628]",100.0,"[0.16408056040366845,-0.07508208782630427]",4.0,"[-0.15670853971634266,0.05180984426283391]",4.0,"[0.05976834823695514,-0.18917123346911724]",100.0,"[0.010773663735745993,0.12074543500602047]",4.0,"[0.08730122319370502,0.05384039721685073]",100.0,"[0.08786051294726638,0.1394707647563083]",100.0,"[-0.026938207379010856,-0.1627272489831452]",100.0,"[-0.046383466677115355,0.13373225409406847]",100.0,"[0.01203736584446,-0.037883289384340636]",100.0,"[-0.16577284277012758,-0.003385351250086736]",4.0,"[-0.1038772685406336,0.09048304034251924]",100.0,"[-0.053478927257150796,0.07481889766039226]",4.0,"[-0.1148951735268391,-0.06130862844544864]",100.0,"[0.12412308289421495,0.11689374927923442]",4.0,"[-0.03940917353441649,-0.03455753109316475]",4.0,"[0.002831062579188151,0.17894490869652166]",100.0,"[-0.03376379047476677,-0.08813689644627504]",4.0,"[0.16832153129529479,0.04919027489338973]",100.0,"[0.059146330173644235,0.10124291365242223]",100.0,"[0.1270170305034286,-0.04393805819858976]",100.0,"[-0.1705708390451336,-0.049518800886474014]",4.0,"[-0.1282768245717134,0.02297246622905058]",4.0,"[0.08838462114705285,-0.028801081910234637]",4.0,"[0.15251006143442425,-0.12430392878888878]",100.0,"[-0.024586137562365447,0.009380803862503949]",100.0,"[0.13472792863885205,0.07274273666483629]",4.0,"[0.02,0.02]",164.0141,0.0,41.0,41.0,67.0,1.0,,,,,,,
,,,,,,,67c869b756cd63f0b3387d28,6844298c6a985a6ad2eb3e8d,2025-06-07_14h04.14.127,shape_ratio,2024.1.5,Win32,59.17159763,684250e4f00cb30b92d1fa88,,,,,,,,,,,164.0148,164.5141,,,164.7646,164.831,right,,,,,,,,0.5,,,,,,164.5142,164.7645,0.0515,,164.8311,"[0.00660269884388672,-0.18132929878833084]",100.0,"[-0.15551121061607656,-0.03870900560688294]",100.0,"[0.13416746435588348,-0.11867994872337301]",100.0,"[-0.13523423194807865,0.10607864036405376]",4.0,"[-0.16195289976690486,-0.09648265533863445]",100.0,"[-0.08292774993180914,-0.08824076531348256]",4.0,"[0.01680893058380714,-0.08823610609110896]",4.0,"[-0.05936527095325526,0.1844992175398518]",4.0,"[-0.04544522056255072,0.1279356264898177]",100.0,"[-0.15618892915549468,0.01872394103233233]",100.0,"[0.07461276575767116,0.06497831965756744]",100.0,"[0.05308634913445244,-0.06641195720924724]",100.0,"[0.13452874371959064,0.08729526697312713]",100.0,"[-0.12640023838448708,-0.12386193969016734]",4.0,"[-0.1149362138214885,0.16242111913461454]",4.0,"[0.1756386284043425,-0.009314427430962514]",4.0,"[0.003934297200790746,0.004175933422106498]",4.0,"[0.10775504842629836,-0.043822897742800765]",4.0,"[0.06161388607321829,-0.0016604417957799494]",100.0,"[0.1508364297622555,-0.07951092685858104]",4.0,"[-0.07183856242632719,0.03278212462934924]",100.0,"[-0.032787286803618025,-0.05877828198166036]",100.0,"[0.010195064636561793,-0.0429335282741073]",4.0,"[0.0793897110200682,0.15258531317113533]",4.0,"[0.003263952910508956,0.08617637103369095]",4.0,"[-0.03880277887724199,-0.15214786977416053]",100.0,"[0.027042778708472718,-0.1417632292553643]",4.0,"[-0.04187352079556703,0.06051087746239696]",100.0,"[0.14482947398202703,0.042144624174511064]",100.0,"[-0.14321084451140678,0.0631454027050531]",4.0,"[0.022682863318186433,0.16501498092959369]",100.0,"[0.07610819268829623,-0.11122836134786294]",4.0,"[0.02,0.02]",165.9306,0.0,42.0,42.0,110.0,1.0,,,,,,,
,,,,,,,67c869b756cd63f0b3387d28,6844298c6a985a6ad2eb3e8d,2025-06-07_14h04.14.127,shape_ratio,2024.1.5,Win32,59.17159763,684250e4f00cb30b92d1fa88,,,,,,,,,,,165.9313,166.4308,,,166.6809,166.8813,right,,,,,,,,0.45,,,,,,166.4308,166.6809,0.1873,,166.8814,"[0.1253446054869724,0.11476923976427028]",4.0,"[-0.15073651262389828,-0.06657835850159531]",100.0,"[-0.0239617455141677,-0.0568297273563225]",4.0,"[-0.0981820109099783,0.022208889444631483]",100.0,"[0.05319160589135451,-0.1743589078847556]",100.0,"[-0.027152019768064996,-0.1388925744728259]",100.0,"[0.03043055463121762,-0.13867004453466233]",4.0,"[-0.19009204773718047,0.04993118327106907]",4.0,"[0.010910316380283022,0.14378888110726123]",100.0,"[-0.0940819347275221,-0.17253056965515698]",100.0,"[-0.07007656450145824,0.06752944595476622]",100.0,"[-0.1508085853332474,-0.0005550114530697081]",4.0,"[-0.11303075159037647,-0.032318274007931413]",4.0,"[0.08660815070104795,0.08283588350692436]",4.0,"[0.13030953827081665,0.00601728699674143]",100.0,"[0.005982280969312782,0.02553530651903972]",4.0,"[0.022408018653990776,0.06446331137910452]",100.0,"[-0.1047754111085492,0.13241315840748843]",4.0,"[-0.026738304908245275,0.13008977195343102]",4.0,"[-0.044451300455804456,0.003373769651887766]",4.0,"[0.11113810921868895,-0.15315979784426245]",4.0,"[0.18413891418127248,0.05110918981280806]",4.0,"[-0.10637935860780541,-0.07602431220753358]",4.0,"[0.04086358129052692,0.17502471340234343]",4.0,"[0.0837102883298897,-0.0762284062930826]",4.0,"[-0.10141212813719414,-0.1276498854063056]",4.0,"[0.14911491540572988,-0.09766114704324773]",100.0,"[-0.04108919998746596,-0.09784440329220603]",4.0,"[0.1674712904791431,-0.036674900659854785]",100.0,"[-0.14590509063899412,0.051143596740522095]",100.0,"[0.05289082033335441,-0.00047538464444348406]",100.0,"[-0.113591812184202,0.0882538420817542]",100.0,"[0.02,0.02]",167.9805,0.0,43.0,43.0,141.0,1.0,,,,,,,
,,,,,,,67c869b756cd63f0b3387d28,6844298c6a985a6ad2eb3e8d,2025-06-07_14h04.14.127,shape_ratio,2024.1.5,Win32,59.17159763,684250e4f00cb30b92d1fa88,,,,,,,,,,,167.9815,168.4807,,,168.7248,168.8085,left,,,,,,,,0.6,,,,,,168.4807,168.7248,0.0679,,168.8085,"[0.12860886462807927,0.11880096326705564]",100.0,"[-0.18975050018366327,0.007796781512086718]",4.0,"[0.12616011197573063,0.003907143506892054]",100.0,"[0.06797744624812604,0.034047338715926675]",4.0,"[-0.08489637079769514,-0.09955105826340363]",4.0,"[-0.04879671610790554,-0.1178495033895012]",100.0,"[-0.036716727337035175,0.11666502751281442]",100.0,"[0.173991145557423,-0.09853796966147294]",100.0,"[-0.10889686770954529,0.031424132463493945]",100.0,"[0.08953025879484539,-0.15387892907374087]",100.0,"[-0.07203802905156738,-0.003906151934650964]",4.0,"[-0.026941903395216876,0.18852487318713487]",100.0,"[0.033500184685246896,0.11912782617017403]",4.0,"[-0.014036985870756625,0.015914925068958016]",100.0,"[0.08848531873566466,0.10148661654581868]",100.0,"[-0.02395435307194248,-0.18463077775538295]",4.0,"[-0.07914271385355606,0.12565221593869227]",100.0,"[0.1792716903499588,0.03311439972863587]",4.0,"[0.13480390767889228,0.043467230946027426]",100.0,"[-0.15263695654408288,-0.040506398609491186]",100.0,"[0.04155392689077994,-0.13081737369432628]",4.0,"[0.09806709881180435,0.15159083820900845]",100.0,"[0.058855220851827546,-0.04775243924486389]",100.0,"[-0.1677941654632001,0.062193475372687324]",4.0,"[0.0675405098517414,0.18822589910169993]",4.0,"[-0.0345128358705068,-0.022189859920337847]",100.0,"[0.16354929912110233,0.09847469563803489]",4.0,"[0.006559979618652877,-0.10005877008449135]",100.0,"[-0.1217618504052321,0.1404751793082277]",100.0,"[-0.07224221994370705,0.08448581090059029]",4.0,"[0.1121167836933832,-0.06542230356079144]",100.0,"[0.10748619309412634,-0.11164053537210693]",4.0,"[0.02,0.02]",169.9036,0.0,44.0,44.0,47.0,1.0,,,,,,,
,,,,,,,67c869b756cd63f0b3387d28,6844298c6a985a6ad2eb3e8d,2025-06-07_14h04.14.127,shape_ratio,2024.1.5,Win32,59.17159763,684250e4f00cb30b92d1fa88,,,,,,,,,,,169.9043,170.4041,,,170.6575,170.7751,left,,,,,,,,0.1,,,,,,170.4042,170.6575,0.1009,,170.7751,"[-0.0838712834668995,-0.159408769230882]",4.0,"[0.14625991298060356,-0.03608555880196733]",4.0,"[-0.024238371610462554,0.10435617005278498]",4.0,"[0.0345190632726698,-0.1375852504132601]",4.0,"[-0.12867888188897134,-0.027775818450953227]",4.0,"[0.1038591650535896,-0.1239312222354928]",4.0,"[0.06636454220555116,0.054287081367525775]",4.0,"[-0.1066045616790058,0.12879540138382337]",4.0,"[-0.07011219290198384,0.025476807045112706]",4.0,"[-0.03711213485023889,-0.1900957443003624]",4.0,"[-0.1697594267498548,0.003268159947897422]",4.0,"[-0.027031459323815378,0.007721854987036861]",100.0,"[-0.17811949785374454,-0.08309062363182582]",4.0,"[-0.01675742139554894,-0.0818167337712463]",4.0,"[-0.07531070269770233,0.0872625780303321]",100.0,"[-0.09029444911017473,-0.0529122816189961]",100.0,"[0.05622973686758474,0.1295777736900699]",4.0,"[0.11948305539504646,0.15597321805070619]",4.0,"[0.10151481453099576,0.02597228748988185]",4.0,"[-0.03611675049576748,-0.1230191974465924]",4.0,"[-0.015460906241030064,0.17726535159349566]",4.0,"[0.1523871288339671,-0.09615169307500095]",4.0,"[0.03060067967396497,0.08648435912957134]",4.0,"[0.023767791949256677,-0.0038742048418939127]",4.0,"[-0.050746079944505626,-0.046080235791216013]",4.0,"[0.0037910205462678664,-0.16414468072920008]",4.0,"[-0.1385881155236716,0.0885409592342249]",4.0,"[0.1336170313047595,0.07172077709086147]",4.0,"[0.18207123934522235,0.04555168951521171]",4.0,"[0.0866894378546997,-0.021953489861848696]",4.0,"[0.0703138461995065,-0.18557005029979393]",4.0,"[-0.18252828847326633,0.05226775898637166]",4.0,"[0.02,0.02]",171.8699,0.0,45.0,45.0,193.0,1.0,,,,,,,
,,,,,,,67c869b756cd63f0b3387d28,6844298c6a985a6ad2eb3e8d,2025-06-07_14h04.14.127,shape_ratio,2024.1.5,Win32,59.17159763,684250e4f00cb30b92d1fa88,,,,,,,,,,,171.8706,172.3738,,,172.6245,172.7376,left,,,,,,,,0.4,,,,,,172.3738,172.6245,0.0971,,172.7376,"[0.19320421456833411,-0.04401682837951227]",4.0,"[0.07044710909560184,-0.09392426509172384]",100.0,"[0.07049327295389303,0.10098694673565173]",100.0,"[0.009740156551529605,-0.030209616239941443]",4.0,"[-0.1339689364259554,-0.08082949737000036]",4.0,"[0.034352556984626456,-0.1828954826673424]",4.0,"[-0.009003067854299988,0.06623180182679]",4.0,"[0.05214248549633101,0.1703976584444056]",4.0,"[-0.0680279828417273,-0.07328584059574694]",4.0,"[0.025914354837879825,-0.10142733005944134]",100.0,"[-0.13464247152380723,0.028323816311003454]",4.0,"[0.06675387278616933,0.017671660424539475]",100.0,"[0.13516740037584069,0.1387876518956991]",4.0,"[-0.18185522632563506,0.020397868203926264]",100.0,"[-0.029411939082040227,0.19133969028883543]",4.0,"[0.039131332586883893,0.12914635911470393]",100.0,"[0.08852045694045955,-0.1359457709511487]",4.0,"[0.06881715931611986,-0.041694289722825045]",100.0,"[-0.15796398970988376,0.11359081410231889]",4.0,"[-0.0489435118334081,-0.027438416388315255]",4.0,"[-0.022668849842741177,-0.1849725409130046]",4.0,"[0.12793337585312237,-0.03910657134137571]",100.0,"[-0.11036159218043841,0.11575563802921134]",4.0,"[0.12455099795946085,0.04311510566606053]",4.0,"[-0.030320641574461238,0.12327582089189489]",100.0,"[-0.014381758651553429,-0.07305438896599586]",4.0,"[-0.07222241973901809,0.06140775636811277]",4.0,"[-0.013455224676240655,0.007431862405215131]",100.0,"[0.14363858088267492,-0.11374931069872295]",4.0,"[-0.18137308091104157,-0.05205629024492869]",100.0,"[-0.07421861796391147,-0.11482627440238999]",100.0,"[-0.1377860797685826,0.07524072690860555]",100.0,"[0.02,0.02]",173.8307,0.0,46.0,46.0,151.0,1.0,,,,,,,
,,,,,,,67c869b756cd63f0b3387d28,6844298c6a985a6ad2eb3e8d,2025-06-07_14h04.14.127,shape_ratio,2024.1.5,Win32,59.17159763,684250e4f00cb30b92d1fa88,,,,,,,,,,,173.8319,174.3222,,,174.5642,176.0636,,,,,,,,,0.1,,,,,,174.3223,174.5641,,,176.0637,"[-0.1475544486502632,-0.11704679979656325]",4.0,"[0.17855295210281366,0.01424267987534555]",4.0,"[0.11430165713782961,0.15360006582684363]",4.0,"[0.09329583565012961,0.048883988792972365]",4.0,"[-0.15150278939301298,-0.05541413519109145]",4.0,"[-0.06596934197920803,0.028393134222620336]",4.0,"[0.04187789693034365,0.10878052235785361]",100.0,"[0.001861561458974433,-0.12364732426934616]",4.0,"[-0.09890205888577432,-0.15879369070486346]",4.0,"[-0.03868224951900409,-0.16915035668590528]",4.0,"[0.14017935210231042,0.07955537338638217]",4.0,"[0.10838841257942484,-0.12194384257724453]",4.0,"[-0.007207893566860743,-0.018083418519702656]",4.0,"[-0.18950635343340702,-0.012639238349071323]",4.0,"[0.011744746214962805,-0.05841939269425077]",4.0,"[-0.10940144252506939,0.14855831371706307]",4.0,"[0.034688924432794414,0.17499345346328904]",4.0,"[-0.06513406019926997,-0.1103779445813194]",100.0,"[0.10568625301168219,-0.034716487158532795]",4.0,"[0.05242533972248693,-0.06648030136693817]",4.0,"[0.138907218199377,-0.0709772020857933]",4.0,"[-0.06723619881413456,0.13835457961899336]",4.0,"[0.13415443201233443,0.013639823954363311]",4.0,"[0.010852201597230242,-0.18263949130150228]",4.0,"[0.021001828855598734,0.0560466459534211]",4.0,"[-0.09778958520438456,-0.05631071069542259]",4.0,"[0.08381708602356781,-0.18049634858452757]",100.0,"[-0.03411829366794705,-0.06963967066575995]",4.0,"[-0.19339266930152263,0.04465239438658842]",4.0,"[-0.10724171632992056,0.06835342396294825]",4.0,"[0.14787626849114874,-0.03096689275237371]",4.0,"[-0.04842405660846182,0.09981826289747486]",4.0,"[0.02,0.02]",177.1636,0.0,47.0,47.0,203.0,1.0,,,,,,,
,,,,,,,67c869b756cd63f0b3387d28,6844298c6a985a6ad2eb3e8d,2025-06-07_14h04.14.127,shape_ratio,2024.1.5,Win32,59.17159763,684250e4f00cb30b92d1fa88,,,,,,,,,,,177.1643,177.6634,,,177.9077,178.5206,left,,,,,,,,0.6,,,,,,177.6634,177.9076,0.5965,,178.5207,"[-0.030758283046689674,0.15663737959590163]",100.0,"[-0.16010194420976812,0.049708023197009316]",100.0,"[-0.04424652903873178,-0.03448411983474082]",4.0,"[0.15089311594615787,0.12383694707615985]",100.0,"[0.036640887477533794,0.062361284563260205]",4.0,"[-0.10876297035717623,-0.011851000836821949]",100.0,"[0.025139034655649723,0.16463047403295222]",100.0,"[0.15890730985372484,0.0678792744756091]",100.0,"[0.10310572551660925,-0.15235940055863803]",4.0,"[0.11591881288259653,-0.09791709637166557]",4.0,"[-0.06341481546011073,-0.1513385024243219]",100.0,"[0.16477508491762488,-0.10900238928810235]",4.0,"[-0.17388330927996107,-0.06563058528579113]",4.0,"[0.004235550349594702,-0.1978316469754604]",100.0,"[0.10489261964689743,-0.03077605499793457]",100.0,"[-0.026607749124719544,0.0019739875136288963]",100.0,"[0.06920800324234921,0.018783342165377217]",100.0,"[-0.022404964322619115,-0.12519380486924625]",4.0,"[-0.13154516476547634,0.07867109928162835]",4.0,"[0.16135412856189124,-0.06315593434587438]",4.0,"[0.1971470340706287,0.016533921334311818]",4.0,"[0.06369970116932981,0.12629612687874442]",100.0,"[0.08051488856719559,0.07532659655762575]",100.0,"[-0.05005362798245143,-0.07477803635485787]",4.0,"[-0.005913889192988498,0.1969345760398288]",100.0,"[0.035318554368601734,-0.16626621995887703]",100.0,"[0.012562064353414771,-0.016111999481111087]",4.0,"[-0.11481232013928776,-0.1600460210864188]",100.0,"[-0.17336125137340114,0.08755812052900332]",4.0,"[-0.1161106345852542,-0.10805094880459937]",100.0,"[-0.10111339524106243,-0.06962141455132205]",100.0,"[-0.019565704014116357,0.08547951807581497]",100.0,"[0.02,0.02]",179.6238,0.0,48.0,48.0,35.0,1.0,,,,,,,
,,,,,,,67c869b756cd63f0b3387d28,6844298c6a985a6ad2eb3e8d,2025-06-07_14h04.14.127,shape_ratio,2024.1.5,Win32,59.17159763,684250e4f00cb30b92d1fa88,,,,,,,,,,,179.6251,180.1237,,,180.3638,180.6136,right,,,,,,,,0.5,,,,,,180.1237,180.3637,0.2345,,180.6137,"[0.0073600504910212765,0.11073951515473489]",100.0,"[-0.04175998912396025,0.1777593240026764]",100.0,"[0.09055802435141705,0.07634825442998817]",4.0,"[0.0949378258636739,0.1637160433417019]",100.0,"[0.06523055443700307,-0.14726156044263727]",4.0,"[-0.1645261649313131,0.07843601017240358]",100.0,"[-0.08821519646534215,-0.005042524099328371]",4.0,"[0.05756473615619854,-0.04457848334386578]",100.0,"[-0.125423659530826,-0.022447556264469527]",100.0,"[-0.1314538336033908,0.040644116819166805]",100.0,"[0.17300987250303615,0.06164424582473283]",4.0,"[-0.08627531647846098,0.07208219047479138]",4.0,"[-0.05699626299184508,-0.033159640457430396]",100.0,"[-0.039958104969794274,-0.1548279769019909]",100.0,"[-0.08887664441147275,-0.11349960819449365]",4.0,"[-0.0013381128106466577,-0.17434060454567588]",100.0,"[0.1374085976906209,-0.017613613345522423]",4.0,"[-0.005236955804277955,-0.08133681366028184]",4.0,"[0.08152549037628821,-0.10456129131537055]",100.0,"[0.012380556057101264,0.019936458540885833]",4.0,"[0.15120840208185654,-0.06894591016228468]",4.0,"[0.013049434624114061,-0.13051231269856897]",4.0,"[0.12201106444721777,-0.11277527431499217]",4.0,"[0.03847685458820969,0.18489389929241273]",100.0,"[-0.05379108587378983,0.03718007446639624]",100.0,"[0.12464922087867444,-0.15326427126021336]",4.0,"[-0.1634406965729016,0.015478271749573788]",4.0,"[0.09263111622595456,-0.024237218434777285]",100.0,"[-0.0008550787008475826,0.061712824090840224]",100.0,"[-0.04309648086969958,0.08040081197230782]",100.0,"[0.08482790114553532,0.03608140240195753]",4.0,"[-0.17130986094211628,-0.09276475155774433]",4.0,"[0.02,0.02]",181.7138,0.0,49.0,49.0,100.0,1.0,,,,,,,
