right,left,explain.started,explain.stopped,key_resp_3.keys,key_resp_3.rt,key_resp_3.duration,participant,session,date,expName,psychopyVersion,OS,frameRate,study_id,explain_2.started,explain_2.stopped,key_resp_4.keys,key_resp_4.rt,key_resp_4.duration,explain_3.started,explain_3.stopped,key_resp_5.keys,key_resp_5.rt,key_resp_5.duration,fixation.started,fixation.stopped,practice.started,practice.stopped,response.started,response.stopped,key_resp.keys,feedback.started,feedback.stopped,trials_2.thisRepN,trials_2.thisTrialN,trials_2.thisN,trials_2.thisIndex,trials_2.ran,dot_ratio,key_resp.rt,key_resp.duration,explain_4.started,explain_4.stopped,key_resp_6.keys,key_resp_6.rt,key_resp_6.duration,dotDisplay.started,dotDisplay.stopped,ITI.started,polygon_1.pos,polygon_1.edges,polygon_2.pos,polygon_2.edges,polygon_3.pos,polygon_3.edges,polygon_4.pos,polygon_4.edges,polygon_5.pos,polygon_5.edges,polygon_6.pos,polygon_6.edges,polygon_7.pos,polygon_7.edges,polygon_8.pos,polygon_8.edges,polygon_9.pos,polygon_9.edges,polygon_10.pos,polygon_10.edges,polygon_11.pos,polygon_11.edges,polygon_12.pos,polygon_12.edges,polygon_13.pos,polygon_13.edges,polygon_14.pos,polygon_14.edges,polygon_15.pos,polygon_15.edges,polygon_16.pos,polygon_16.edges,polygon_17.pos,polygon_17.edges,polygon_18.pos,polygon_18.edges,polygon_19.pos,polygon_19.edges,polygon_20.pos,polygon_20.edges,polygon_21.pos,polygon_21.edges,polygon_22.pos,polygon_22.edges,polygon_23.pos,polygon_23.edges,polygon_24.pos,polygon_24.edges,polygon_25.pos,polygon_25.edges,polygon_26.pos,polygon_26.edges,polygon_27.pos,polygon_27.edges,polygon_28.pos,polygon_28.edges,polygon_29.pos,polygon_29.edges,polygon_30.pos,polygon_30.edges,polygon_31.pos,polygon_31.edges,polygon_32.pos,polygon_32.edges,dot_size,ITI.stopped,trials.thisRepN,trials.thisTrialN,trials.thisN,trials.thisIndex,trials.ran,break_2.started,break_2.stopped,trials_3.thisRepN,trials_3.thisTrialN,trials_3.thisN,trials_3.thisIndex,trials_3.ran
subject chose diamond,subject chose dot,0.0006,227.9758,space,212.9347,,67d08d8bfb1d7900834824f7,684429367996d2118ccc1014,2025-06-07_14h39.12.347,shape_ratio,2024.1.5,Win32,59.88023952,684250e4f00cb30b92d1fa88,,,,,,,,,,,,,,,,,,,,,,,,,,,,,,,,,,,,,,,,,,,,,,,,,,,,,,,,,,,,,,,,,,,,,,,,,,,,,,,,,,,,,,,,,,,,,,,,,,,,,,,,,,,,,,,,,
,,,,,,,67d08d8bfb1d7900834824f7,684429367996d2118ccc1014,2025-06-07_14h39.12.347,shape_ratio,2024.1.5,Win32,59.88023952,684250e4f00cb30b92d1fa88,227.9769,335.3636,space,77.3753,,,,,,,,,,,,,,,,,,,,,,,,,,,,,,,,,,,,,,,,,,,,,,,,,,,,,,,,,,,,,,,,,,,,,,,,,,,,,,,,,,,,,,,,,,,,,,,,,,,,,,,,,,,,,
,,,,,,,67d08d8bfb1d7900834824f7,684429367996d2118ccc1014,2025-06-07_14h39.12.347,shape_ratio,2024.1.5,Win32,59.88023952,684250e4f00cb30b92d1fa88,,,,,,335.3813,339.0802,space,0.6881,,,,,,,,,,,,,,,,,,,,,,,,,,,,,,,,,,,,,,,,,,,,,,,,,,,,,,,,,,,,,,,,,,,,,,,,,,,,,,,,,,,,,,,,,,,,,,,,,,,,,,,,
,,,,,,,67d08d8bfb1d7900834824f7,684429367996d2118ccc1014,2025-06-07_14h39.12.347,shape_ratio,2024.1.5,Win32,59.88023952,684250e4f00cb30b92d1fa88,,,,,,,,,,,339.1812,339.6055,339.6067,339.8424,339.8426,341.3425,,341.3597,342.447,0.0,0.0,0.0,1.0,1.0,0.8,,,,,,,,,,,,,,,,,,,,,,,,,,,,,,,,,,,,,,,,,,,,,,,,,,,,,,,,,,,,,,,,,,,,,,,,,,,,,,,,,,,,,,,,
,,,,,,,67d08d8bfb1d7900834824f7,684429367996d2118ccc1014,2025-06-07_14h39.12.347,shape_ratio,2024.1.5,Win32,59.88023952,684250e4f00cb30b92d1fa88,,,,,,,,,,,342.4654,342.9366,342.9367,343.1912,343.1914,343.4284,left,343.4286,344.5105,0.0,1.0,1.0,0.0,1.0,0.2,0.2186,,,,,,,,,,,,,,,,,,,,,,,,,,,,,,,,,,,,,,,,,,,,,,,,,,,,,,,,,,,,,,,,,,,,,,,,,,,,,,,,,,,,,,,
,,,,,,,67d08d8bfb1d7900834824f7,684429367996d2118ccc1014,2025-06-07_14h39.12.347,shape_ratio,2024.1.5,Win32,59.88023952,684250e4f00cb30b92d1fa88,,,,,,,,,,,,,,,,,,,,,,,,,,,,344.5124,505.592,space,158.0661,,,,,,,,,,,,,,,,,,,,,,,,,,,,,,,,,,,,,,,,,,,,,,,,,,,,,,,,,,,,,,,,,,,,,,,,,,,,,,,,,,
,,,,,,,67d08d8bfb1d7900834824f7,684429367996d2118ccc1014,2025-06-07_14h39.12.347,shape_ratio,2024.1.5,Win32,59.88023952,684250e4f00cb30b92d1fa88,,,,,,,,,,,505.6619,506.105,,,506.3528,507.8428,,,,,,,,,0.6,,,,,,,,506.1063,506.3525,507.8442,"[-0.08445892497924427,-0.1492768715110855]",100.0,"[0.016157912132591316,0.18091711474477545]",100.0,"[0.0013903800983111933,-0.008873435373829328]",4.0,"[0.15684294344921787,0.04259041777817388]",4.0,"[0.14735308424171265,-0.12058564996857389]",4.0,"[-0.03875768717039992,-0.13908958780369504]",100.0,"[-0.023525332950597447,0.13331739998086867]",4.0,"[0.0982787267328542,-0.0927380783955943]",100.0,"[0.01096612780403892,-0.17670936853844252]",4.0,"[0.04269680396709931,-0.131714389940641]",100.0,"[0.01973954579436474,0.02772983857883397]",100.0,"[0.06401355611398787,0.1856477219978504]",4.0,"[-0.13644702777113601,-0.11580783464943956]",100.0,"[0.022753659789439235,0.14049582149921475]",100.0,"[-0.04136413472247879,0.05391103765676939]",100.0,"[-0.14490539512106837,0.028068449698296444]",4.0,"[0.10881678893344224,0.00804664027835274]",100.0,"[-0.07309273022845246,0.08165106917718774]",4.0,"[-0.15637335263014593,-0.012654039931227342]",100.0,"[0.10523839943225446,-0.13595715528307054]",100.0,"[0.18801105966735246,-0.05297801770238251]",4.0,"[0.02768289855121198,-0.06858442975304775]",100.0,"[0.03200133604577937,0.08508139436716092]",100.0,"[-0.08452380023831293,-0.09755760523852433]",100.0,"[-0.048738137901517875,-0.0672357231020271]",4.0,"[-0.08573635862838412,-0.0017863294120249017]",100.0,"[0.06838699161278407,-0.04303037011330296]",4.0,"[-0.11303148172930837,0.09301015602929033]",100.0,"[0.1347906631502452,0.08825938720665083]",4.0,"[-0.1849358583446332,-0.06092142001840018]",4.0,"[0.05105632049449311,-0.1921618271376131]",100.0,"[-0.14995054785944412,0.0692978845504584]",100.0,"[0.02,0.02]",508.934,0.0,0.0,0.0,36.0,1.0,,,,,,,
,,,,,,,67d08d8bfb1d7900834824f7,684429367996d2118ccc1014,2025-06-07_14h39.12.347,shape_ratio,2024.1.5,Win32,59.88023952,684250e4f00cb30b92d1fa88,,,,,,,,,,,508.9362,509.4388,,,509.687,509.7577,left,,,,,,,,0.5,0.0523,,,,,,,509.4389,509.687,509.7578,"[0.0928955380475015,-0.11193565629538758]",100.0,"[-0.09313628829019649,-0.16583913062712033]",4.0,"[-0.003964154611528111,-0.187131227879439]",100.0,"[0.18192750167049263,-0.001249502803672072]",100.0,"[-0.10962338447126482,0.15880814716045832]",4.0,"[0.03523719242440201,-0.05640685136494417]",100.0,"[-0.1836220843733965,-0.045381487211010506]",4.0,"[-0.1316464414113215,-0.0125689305448365]",4.0,"[0.14464117860980444,-0.08565632970929021]",4.0,"[-0.03832610850531342,-0.011055801731287826]",4.0,"[-0.10825013100353936,0.0978255677642837]",100.0,"[-0.05709209412808792,0.09626121555052615]",100.0,"[-0.1717351800701187,0.015197264831585997]",100.0,"[0.11127389360819505,-0.02171696371520411]",4.0,"[-0.12497965024475524,-0.07318471050796929]",4.0,"[0.0763046490818709,0.05436928709794039]",100.0,"[-0.17003448694184659,-0.09989463304364253]",100.0,"[0.14910839012995192,-0.0393080954000129]",100.0,"[0.028925041065639718,-0.14792410557549965]",100.0,"[0.1283318912187495,0.06417132638239328]",100.0,"[-0.1059211226273752,-0.12367565997440837]",100.0,"[0.0680145575739391,-0.17825446962220598]",4.0,"[-0.1075413503140974,0.04316250220573369]",4.0,"[-0.053981435044953605,-0.17632802015970955]",4.0,"[-0.049762970639345754,0.16105407577138425]",4.0,"[-0.18173951690996293,0.0817064157382965]",4.0,"[0.039515476872695354,-0.002415292259393529]",4.0,"[-0.05920197733680483,0.03877053441286315]",4.0,"[-0.04733168454811505,-0.10588348445487542]",100.0,"[-0.14871681426478783,0.12846417880862676]",100.0,"[0.03719872615930483,0.09203771889866663]",100.0,"[0.1013897876813782,-0.07017603682346481]",4.0,"[0.02,0.02]",510.8512,0.0,1.0,1.0,93.0,1.0,,,,,,,
,,,,,,,67d08d8bfb1d7900834824f7,684429367996d2118ccc1014,2025-06-07_14h39.12.347,shape_ratio,2024.1.5,Win32,59.88023952,684250e4f00cb30b92d1fa88,,,,,,,,,,,510.8541,511.3559,,,511.6029,511.7574,right,,,,,,,,0.5,0.1359,,,,,,,511.356,511.6028,511.7577,"[-0.1157817607185082,0.08560870882948371]",4.0,"[-0.025663165882065096,0.10366576938099242]",4.0,"[-0.04251383959293243,0.1476568912450012]",4.0,"[0.049280290425370736,0.16996074859561727]",100.0,"[-0.10165810436899174,-0.1456916816432493]",4.0,"[0.04359099986891102,0.06278577925147723]",100.0,"[0.1334991236825434,-0.06956760695321719]",100.0,"[0.08943426717717165,0.09341716051132615]",100.0,"[0.13376991506282673,-0.012450426180463933]",100.0,"[-0.12708192295518242,-0.04009697603088565]",100.0,"[-0.07063196910293199,0.014825793423816114]",4.0,"[-0.16383603621370202,-0.0989083938566528]",100.0,"[-0.1673173401720393,0.054819583695754376]",100.0,"[0.07912819034174798,-0.12067182495450417]",100.0,"[-0.03018586937934493,-0.19518946278395424]",100.0,"[-0.02914242467392911,0.04994266598367465]",4.0,"[0.13869538369295642,0.03726569327185973]",100.0,"[0.01678885901190846,0.13551640286633296]",4.0,"[0.18099040761167734,0.032343923883590905]",100.0,"[-0.10325756559524861,-0.07768841832203496]",4.0,"[0.01355440463318905,-0.08059314128698887]",4.0,"[0.17905166515199508,-0.05518013882976596]",4.0,"[0.0491387450516014,-0.034211244466649325]",4.0,"[-0.04751612497054325,-0.12922129290045925]",4.0,"[0.07962503173755087,-0.17006708003135115]",100.0,"[0.1019339268560585,0.16907088473841345]",4.0,"[0.0623526489761698,-0.08057394435094783]",100.0,"[-0.06253408468169507,-0.033868526682147945]",4.0,"[0.07586513516134083,0.004724721794929664]",4.0,"[0.17571994520194395,-0.009970179086219165]",100.0,"[-0.16439870834768489,0.00836569201223744]",4.0,"[-0.003604321674984169,0.18261746825423808]",100.0,"[0.02,0.02]",512.854,0.0,2.0,2.0,91.0,1.0,,,,,,,
,,,,,,,67d08d8bfb1d7900834824f7,684429367996d2118ccc1014,2025-06-07_14h39.12.347,shape_ratio,2024.1.5,Win32,59.88023952,684250e4f00cb30b92d1fa88,,,,,,,,,,,512.8558,513.3572,,,513.6015,513.6584,left,,,,,,,,0.4,0.039,,,,,,,513.3574,513.6015,513.6586,"[-0.054538518440088946,0.17689086526709108]",4.0,"[0.09986739084119062,0.000003325181179255435]",4.0,"[0.05634267683523979,0.019876086491782]",100.0,"[0.004879229978877018,0.1268515372418589]",100.0,"[-0.09335640744561173,0.03108097863862589]",100.0,"[-0.18619300306561468,0.07159211829319037]",4.0,"[0.11951176587770955,-0.05923307428625996]",4.0,"[0.030116485001638337,0.17487878806324633]",100.0,"[-0.1714709925697443,-0.08993951425360677]",4.0,"[0.03186703126496952,-0.09379675305860129]",4.0,"[-0.13201679206306702,-0.12284014255232875]",100.0,"[-0.03654366431146002,0.0640107287847965]",100.0,"[0.1257057559924907,-0.10910926972594356]",4.0,"[0.19711840502852102,-0.030428502304915506]",100.0,"[-0.13608588820228676,-0.06257836078540245]",4.0,"[0.017826419735424318,0.06683478530495221]",4.0,"[-0.1711499676700451,0.004623285195036035]",100.0,"[-0.08771784370036216,0.08666799931114633]",100.0,"[0.05684454445487045,-0.13696805812112636]",100.0,"[0.019716453272329876,0.002401930229116938]",4.0,"[0.02001270178983201,-0.04639239388903599]",4.0,"[-0.029766649607700032,-0.12194919155711473]",100.0,"[-0.04165244983053505,-0.17500115316666937]",100.0,"[-0.15096698202048853,0.09497478772596919]",4.0,"[-0.104542328719365,0.16943879438066417]",4.0,"[0.14612886264422104,0.046646407926845934]",4.0,"[-0.01443589356379018,-0.07077716712083953]",4.0,"[0.05802972389737625,0.08287980846279529]",100.0,"[0.14700451718132837,0.0870117896406503]",4.0,"[0.09831523458636555,0.0690382677902718]",4.0,"[0.06917786406312453,-0.04879594643580699]",4.0,"[-0.11848223243523676,-0.008936568037142607]",4.0,"[0.02,0.02]",514.7587,0.0,3.0,3.0,170.0,1.0,,,,,,,
,,,,,,,67d08d8bfb1d7900834824f7,684429367996d2118ccc1014,2025-06-07_14h39.12.347,shape_ratio,2024.1.5,Win32,59.88023952,684250e4f00cb30b92d1fa88,,,,,,,,,,,514.7606,515.2419,,,515.4848,516.9755,,,,,,,,,0.6,,,,,,,,515.242,515.4848,516.9758,"[0.1904903865767428,0.013920972928444502]",4.0,"[-0.13629553785821286,-0.03900004368018647]",100.0,"[0.08532571840692713,0.14278899658242633]",100.0,"[-0.08649232110634093,0.01833490423290447]",4.0,"[-0.005861652557218616,-0.10302390505656539]",4.0,"[0.0808784125822656,0.0057385380359083705]",100.0,"[-0.13378144727483146,0.010114373161650172]",100.0,"[-0.025434567373748343,-0.16732499979998067]",4.0,"[0.11480871209241919,-0.06338146703211447]",4.0,"[0.046288171476120084,-0.05213169712142275]",100.0,"[0.13899174607192405,0.10406777187130654]",100.0,"[0.07845611736705596,-0.0811441024095765]",100.0,"[0.17127442017091682,-0.06066818737512673]",4.0,"[-0.07312552198032081,0.18135910624996832]",100.0,"[-0.047615848849529685,-0.1255630602832669]",4.0,"[-0.1325486956616815,-0.13087043968372136]",100.0,"[-0.014005885755380072,-0.04857579195329897]",100.0,"[0.06107372734619175,0.08134521973621592]",4.0,"[-0.10924662910679935,-0.08772911830297427]",100.0,"[0.12581797133723338,-0.14924703622479063]",100.0,"[-0.12431627345369282,0.131246946720251]",100.0,"[-0.0726914019915134,0.11000223268296912]",100.0,"[0.16967461005779957,0.0740081768141661]",4.0,"[-0.06474212266531378,-0.08569941796011198]",100.0,"[-0.06697375429323241,-0.03586655346659758]",100.0,"[-0.011862309838604165,0.1201894349868401]",4.0,"[-0.028410937728185644,0.025445158976072066]",100.0,"[-0.15197271023258388,-0.0893990127437627]",4.0,"[-0.15812349803037526,0.07479842794431336]",4.0,"[-0.17668274625665029,-0.03082187459081293]",100.0,"[0.034122785248400636,-0.013019457262215784]",4.0,"[0.1239689817500452,0.06696299462217509]",100.0,"[0.02,0.02]",518.0665,0.0,4.0,4.0,53.0,1.0,,,,,,,
,,,,,,,67d08d8bfb1d7900834824f7,684429367996d2118ccc1014,2025-06-07_14h39.12.347,shape_ratio,2024.1.5,Win32,59.88023952,684250e4f00cb30b92d1fa88,,,,,,,,,,,518.0683,518.5589,,,518.8039,518.8699,left,,,,,,,,0.6,0.0479,,,,,,,518.5591,518.8038,518.87,"[-0.056747832017648846,0.11151594770762849]",4.0,"[-0.14794592942125792,-0.04361397442097075]",4.0,"[0.03798863453098455,-0.1570957347814791]",100.0,"[0.1158542444179327,0.10257782383355918]",4.0,"[0.14531342120193255,0.07455368868239609]",100.0,"[-0.12082120958123277,-0.08189220608555384]",100.0,"[0.1831580184453627,-0.013631424797167968]",4.0,"[0.1466284302835254,-0.12673006148253943]",4.0,"[0.05943591646050841,0.1812263230702587]",100.0,"[-0.08021446342286223,-0.05950587121525736]",4.0,"[-0.1712165093600329,0.040032736220830756]",100.0,"[-0.11917847960370286,0.0034025683032611717]",100.0,"[-0.0052705871874841395,0.013802122402121773]",100.0,"[0.051351155502416826,0.053800896524675144]",100.0,"[0.10255994142407487,-0.05308500989306331]",100.0,"[-0.062716600495956,0.1513227502333234]",4.0,"[0.02225462381958589,-0.03358627293159435]",100.0,"[-0.030800094672201607,0.06867954896317588]",100.0,"[0.10185440167728002,0.04029173459712127]",100.0,"[-0.11278775414389655,0.11508432921350259]",100.0,"[-0.05309843092961848,-0.09147220711359164]",4.0,"[-0.05969711698005302,-0.16536778326365903]",4.0,"[0.0712005684444515,0.11351065681042842]",4.0,"[0.12023829193257696,-0.0032371350551820637]",100.0,"[0.1058415481335533,-0.14509828661278737]",100.0,"[-0.18092765657110513,-0.014040968390009161]",4.0,"[0.009751635271641423,-0.19027295680508968]",100.0,"[-0.022794442128220283,0.18088466250569438]",100.0,"[-0.01928197722625268,0.12604531639312846]",100.0,"[-0.11528601795499278,0.06912390079042005]",4.0,"[0.09515576181610111,0.14936667229908324]",4.0,"[0.16386157677262225,-0.06981295802436206]",100.0,"[0.02,0.02]",519.9593,0.0,5.0,5.0,55.0,1.0,,,,,,,
,,,,,,,67d08d8bfb1d7900834824f7,684429367996d2118ccc1014,2025-06-07_14h39.12.347,shape_ratio,2024.1.5,Win32,59.88023952,684250e4f00cb30b92d1fa88,,,,,,,,,,,519.961,520.4506,,,520.6934,520.9202,left,,,,,,,,0.55,0.202,,,,,,,520.4509,520.6934,520.9203,"[0.03627713040336811,-0.15564921670867315]",4.0,"[-0.044753105350727435,-0.08488649060515484]",4.0,"[0.15759148870479123,-0.08242213987040675]",100.0,"[-0.06877313511788445,-0.13536375977072754]",100.0,"[-0.12069099268524211,0.0026900438774647103]",100.0,"[0.11110670175970905,-0.13303878045633658]",100.0,"[-0.02313556898040915,0.025239473873068803]",4.0,"[-0.14383081139224185,0.048679561550688144]",4.0,"[-0.1944949519328099,0.00004439812570179621]",100.0,"[0.15801082614615117,0.09832644995678208]",4.0,"[0.12710356181992782,0.04005350130977182]",100.0,"[0.07491744951342298,0.18091685472675087]",4.0,"[-0.10242397677766762,-0.09789497430650844]",100.0,"[0.00208178282893517,0.13112079209666178]",100.0,"[-0.13088315249351506,-0.041819392029870936]",100.0,"[0.1756163634686187,0.0013814902439273453]",4.0,"[-0.17791757425240348,-0.047738060720039235]",100.0,"[-0.16179333213728103,0.10755483998569759]",4.0,"[-0.06190862674666863,-0.0003946149760895288]",4.0,"[-0.07523307988223178,0.06800730331764712]",4.0,"[-0.1754587219692206,-0.09486203654771362]",100.0,"[0.06654622578425391,0.04213934939026162]",100.0,"[-0.08934764738817891,0.10786985793731099]",100.0,"[0.09312537402389537,-0.07004723605854213]",100.0,"[-0.007324783310765804,-0.04790575834471894]",100.0,"[0.05753719904859763,-0.04042233625552509]",100.0,"[-0.10639623025567758,0.1608640514688525]",4.0,"[0.03577831231695372,0.1960967097070099]",4.0,"[0.1742647083184108,-0.04394794256551884]",100.0,"[-0.03076097323879629,-0.1631247624763273]",4.0,"[0.07778646226027662,0.003602569603177827]",100.0,"[-0.0803488202933785,-0.17825053908239127]",4.0,"[0.02,0.02]",522.017,0.0,6.0,6.0,85.0,1.0,,,,,,,
,,,,,,,67d08d8bfb1d7900834824f7,684429367996d2118ccc1014,2025-06-07_14h39.12.347,shape_ratio,2024.1.5,Win32,59.88023952,684250e4f00cb30b92d1fa88,,,,,,,,,,,522.0186,522.5238,,,522.7579,522.8451,right,,,,,,,,0.5,0.0684,,,,,,,522.5238,522.7578,522.8452,"[0.034373123721799986,0.08107656371614243]",4.0,"[0.08043067692525553,-0.161261068772496]",100.0,"[-0.03318266350566155,-0.15117981384434437]",4.0,"[-0.12023444517650275,0.038313116773703554]",100.0,"[-0.17572345792227925,-0.017286812806621178]",4.0,"[-0.10933634965384907,0.08507123497221823]",100.0,"[0.16911350703811479,-0.07716207817251457]",4.0,"[-0.16674494314066313,0.09464083331955392]",4.0,"[0.0301878918475743,-0.04656709687616336]",100.0,"[0.03766842625364736,-0.19530090494474794]",4.0,"[-0.14711022544291946,-0.06521392233460287]",4.0,"[0.16293628592228057,-0.012265595620405367]",100.0,"[0.05900274913398297,-0.0014077927132004706]",100.0,"[0.028747789207570953,0.1401292388113499]",100.0,"[-0.1894500435020261,0.029454186232654445]",100.0,"[0.005907855660986797,0.189622649075832]",100.0,"[-0.0251132797204177,-0.05658765692608248]",4.0,"[0.12909110892184042,0.05428575694533538]",100.0,"[-0.06805399606624787,-0.11648641227076251]",4.0,"[0.10851720180232903,-0.0951723077296384]",100.0,"[-0.07816003492508408,-0.03677208458291662]",100.0,"[-0.007275994861419812,0.10390679319948441]",100.0,"[0.010410803425387936,-0.16283742253568775]",4.0,"[0.013797431998941328,-0.09828401846054911]",4.0,"[-0.11349383342161863,0.13712299547254714]",100.0,"[0.06301298306098,0.04901192859618573]",4.0,"[-0.016136618315348756,0.05786733594117547]",4.0,"[0.013056291316691566,0.02618705038224953]",4.0,"[0.1009490084425553,-0.0002987066098897895]",4.0,"[0.18074607237789234,0.03833880037191483]",100.0,"[-0.11922214886041824,-0.019279495055063607]",100.0,"[-0.037028925436129644,0.14816704087033752]",4.0,"[0.02,0.02]",523.9244,0.0,7.0,7.0,107.0,1.0,,,,,,,
,,,,,,,67d08d8bfb1d7900834824f7,684429367996d2118ccc1014,2025-06-07_14h39.12.347,shape_ratio,2024.1.5,Win32,59.88023952,684250e4f00cb30b92d1fa88,,,,,,,,,,,523.9264,524.4163,,,524.6688,524.7353,left,,,,,,,,0.9,0.0484,,,,,,,524.4164,524.6687,524.7354,"[0.10260300555886451,-0.1528961637849055]",4.0,"[0.010187995899777764,0.0025582933272433406]",100.0,"[-0.0060823077317629076,-0.07323124446492157]",100.0,"[-0.05219817867080413,0.14739591902471963]",100.0,"[0.03042606910171362,0.15539566705661717]",100.0,"[-0.03462423447396241,-0.0437756640386942]",100.0,"[0.07434748364110755,-0.045340516392304624]",100.0,"[0.05128987325961369,-0.14924727240504881]",100.0,"[0.06131245387400861,0.09641147744483831]",100.0,"[-0.08882142063238059,0.08089314898990514]",100.0,"[0.14384691887300766,0.08046567012195152]",100.0,"[-0.16376420008434936,-0.039449159699788176]",100.0,"[0.13635926436426662,-0.09831435345490139]",100.0,"[0.012808770151607533,-0.1825526378023825]",100.0,"[-0.04517344349580059,0.04167973248506144]",100.0,"[-0.16941930749654005,0.03893119787571686]",100.0,"[-0.13906955971853577,0.10028129065809925]",100.0,"[0.18714986865997568,-0.0619919182319421]",100.0,"[-0.06721727040092287,-0.09367506269869827]",100.0,"[0.1082956851820741,0.029057658929514802]",100.0,"[-0.06208938370398699,-0.0019148596221705437]",100.0,"[-0.1522253282173946,-0.10847111980586376]",4.0,"[-0.05299995583095917,-0.13801648994504676]",100.0,"[-0.006202780679635084,0.09358920061137033]",100.0,"[-0.11597511853201821,0.0001065515585190344]",100.0,"[0.18721109161850985,0.015900073134949365]",100.0,"[0.08676207088687832,0.16122192308812291]",100.0,"[0.14575137325484788,-0.036614597471031164]",100.0,"[0.037288751308723944,0.06162934204446475]",4.0,"[-0.12922866391190818,-0.06453406746306807]",100.0,"[-0.10067011186819896,0.1498070564228255]",100.0,"[-0.12398000127363497,-0.15076269033337822]",100.0,"[0.02,0.02]",525.8394,0.0,8.0,8.0,21.0,1.0,,,,,,,
,,,,,,,67d08d8bfb1d7900834824f7,684429367996d2118ccc1014,2025-06-07_14h39.12.347,shape_ratio,2024.1.5,Win32,59.88023952,684250e4f00cb30b92d1fa88,,,,,,,,,,,525.8411,526.3412,,,526.5903,527.4036,right,,,,,,,,0.55,0.7949,,,,,,,526.3412,526.5903,527.4037,"[-0.03923477858342928,0.18255078285951523]",4.0,"[0.04063249812495699,-0.15247972352947436]",100.0,"[0.1913413993853238,0.01755452977348366]",4.0,"[-0.11305358000425778,0.016974539388860094]",4.0,"[0.13085087746698454,0.1445830254579071]",4.0,"[0.025395276556100684,0.11573837477900467]",100.0,"[0.054644780018775686,-0.06409657293343599]",100.0,"[0.0910218713244515,0.0706272518500752]",4.0,"[-0.019443815137887614,-0.07305220937573179]",4.0,"[0.10231627241507969,-0.0409838864832007]",100.0,"[-0.0701255406922907,0.07833986844184679]",4.0,"[-0.17155054666983838,0.015853797350589286]",100.0,"[-0.11053295463427451,0.08949857409054854]",100.0,"[-0.17794919388820202,-0.07107276145083126]",100.0,"[-0.018604108321227487,0.032057992716320996]",4.0,"[-0.13385110435365902,0.13395261553513374]",4.0,"[0.03564585860035436,0.0741242094977477]",100.0,"[0.04832759692507039,-0.10496983052826163]",100.0,"[0.02569919343401711,0.16594932171408613]",100.0,"[-0.0673714657193454,-0.07772045152619739]",100.0,"[0.007242577762496133,-0.12061011699145022]",4.0,"[-0.1514883938446879,0.061027958824110384]",4.0,"[0.1452655464236333,0.03520644038111071]",100.0,"[-0.06057125395051377,0.12866435695000694]",100.0,"[0.07548298813129194,0.12769867408376828]",4.0,"[-0.13661810208018343,-0.018757875495468743]",4.0,"[0.1293676603266707,-0.08523307254885966]",100.0,"[-0.05161595871746073,0.0004085429295756489]",100.0,"[-0.09270171797769979,-0.1330335954791108]",100.0,"[-0.1387627643626424,-0.09939328859549589]",100.0,"[0.17913817713333063,-0.047579953849725735]",4.0,"[0.12367623539827048,0.09872924269933145]",100.0,"[0.02,0.02]",528.4907,0.0,9.0,9.0,61.0,1.0,,,,,,,
,,,,,,,67d08d8bfb1d7900834824f7,684429367996d2118ccc1014,2025-06-07_14h39.12.347,shape_ratio,2024.1.5,Win32,59.88023952,684250e4f00cb30b92d1fa88,,,,,,,,,,,528.4924,528.9837,,,529.226,529.3033,left,,,,,,,,0.55,0.0596,,,,,,,528.9838,529.2259,529.3033,"[0.029507625744648016,-0.10619297753940701]",100.0,"[0.1082107258851108,-0.011413428625948366]",100.0,"[0.13148272525622667,-0.08135006593303659]",4.0,"[-0.11838498688031708,-0.14478857410325008]",100.0,"[0.04123839494988325,0.09419831104790209]",100.0,"[0.10435870487526279,0.09149615506694239]",100.0,"[-0.06988305774738081,-0.08265986550614772]",100.0,"[0.09243996573699159,-0.11332912329115019]",100.0,"[0.05971347099458538,0.024644719886734882]",100.0,"[-0.1694973057520531,-0.01984274328139844]",4.0,"[0.15909182182467999,0.057399210850488144]",4.0,"[0.032226421638774004,0.15618084617487193]",4.0,"[-0.08038520054153188,0.056719329893734856]",4.0,"[0.10437803465262104,0.15460513901529296]",100.0,"[-0.08062563398214104,-0.12874951408501495]",100.0,"[-0.014092308590261934,-0.1214007887312727]",100.0,"[0.025758712651942767,-0.03540873812269987]",4.0,"[-0.1854696535524977,0.05599253667408288]",100.0,"[-0.1640571701862464,-0.1099440952135902]",4.0,"[-0.015802031165558002,-0.18773515072746602]",4.0,"[-0.09834790322195248,0.009337781539592478]",4.0,"[0.06748012178317016,-0.1558625443795293]",100.0,"[-0.12277791655694625,0.045315319449704156]",100.0,"[-0.10650581573930702,0.13960484374901164]",4.0,"[-0.06126526883549684,-0.1721626741490942]",4.0,"[-0.022043227117638006,0.17951619202832775]",100.0,"[0.0684484070236619,-0.07110091063550288]",100.0,"[-0.01839079263891064,-0.032706145948300236]",100.0,"[-0.029076814600826503,0.13753028496569863]",100.0,"[-0.07336757590241803,0.1848254854042337]",4.0,"[-0.1496819870241182,-0.07021832577046812]",4.0,"[-0.021123382755119508,0.03750897039909358]",4.0,"[0.02,0.02]",530.3861,0.0,10.0,10.0,65.0,1.0,,,,,,,
,,,,,,,67d08d8bfb1d7900834824f7,684429367996d2118ccc1014,2025-06-07_14h39.12.347,shape_ratio,2024.1.5,Win32,59.88023952,684250e4f00cb30b92d1fa88,,,,,,,,,,,530.3869,530.8673,,,531.1022,531.186,left,,,,,,,,0.55,0.0654,,,,,,,530.8674,531.1022,531.186,"[0.06691757514370979,0.05808748580260277]",100.0,"[-0.04472715185844182,0.027718741230867833]",4.0,"[-0.03822723646039288,-0.06329296611706937]",100.0,"[-0.10391303086684638,0.08480553988553267]",100.0,"[0.1210941277235646,0.15547265668495736]",4.0,"[0.10053413789710261,-0.09330229219041458]",4.0,"[-0.06275374412585728,0.1366198334888107]",4.0,"[-0.02665956049222257,0.0907657617180025]",4.0,"[0.01958341920795596,-0.07383052766798061]",100.0,"[-0.1564366260769688,-0.036009493345295296]",100.0,"[-0.13643176740229662,-0.1103076163824081]",100.0,"[0.139588138077339,0.02158384906409504]",100.0,"[-0.16525076657848808,0.03225338722307127]",4.0,"[0.1684239086501576,-0.0893344563990445]",100.0,"[0.008540267025540992,-0.18977953998187216]",4.0,"[-0.12071078074311206,-0.05724671247586145]",100.0,"[-0.008363725429428986,-0.03206843945034146]",100.0,"[0.010998140470425079,0.1213038233235021]",100.0,"[-0.044925625563699216,0.1881641436148678]",100.0,"[0.05140745278804392,-0.0491848954228043]",4.0,"[-0.1410341768671953,0.11197544505236103]",100.0,"[-0.09754692038642344,-0.00323242728528931]",100.0,"[0.040982612381881445,0.00970668222325215]",100.0,"[-0.11364269375258916,-0.15365404545851144]",100.0,"[0.17238751443273143,-0.016748586200499037]",4.0,"[0.1234580377578169,0.07881371821017517]",100.0,"[-0.10710402261449747,0.15503818399358402]",4.0,"[0.10422748292521475,-0.01820279628077716]",100.0,"[0.07574043634493445,-0.15360807198294846]",4.0,"[0.13795549808020277,0.11737696011649187]",4.0,"[0.1753713442958536,0.07085467398940166]",4.0,"[-0.018092725966467528,-0.1033943840256524]",4.0,"[0.02,0.02]",532.289,0.0,11.0,11.0,72.0,1.0,,,,,,,
,,,,,,,67d08d8bfb1d7900834824f7,684429367996d2118ccc1014,2025-06-07_14h39.12.347,shape_ratio,2024.1.5,Win32,59.88023952,684250e4f00cb30b92d1fa88,,,,,,,,,,,532.2908,532.7838,,,533.0282,533.6566,right,,,,,,,,0.6,0.6056,,,,,,,532.7838,533.028,533.6569,"[-0.13971182742836125,-0.06228582112622419]",100.0,"[-0.03346700833775871,0.006044230075200583]",100.0,"[-0.03116555719351912,0.17071108677348926]",4.0,"[0.11349090598645542,-0.019451366625829317]",4.0,"[-0.060777036450624565,-0.10240839562000131]",4.0,"[0.09620470822159036,-0.13682233423464168]",4.0,"[0.04587184715638826,-0.022761787496106904]",4.0,"[-0.007767137320271398,-0.13250241627293904]",100.0,"[-0.19619854186694258,-0.01639530561020631]",4.0,"[-0.11455876251592462,-0.13722289856139908]",100.0,"[-0.14686837719183396,0.08865236167334066]",100.0,"[0.1355937079002189,-0.12161287824105899]",100.0,"[0.05903322853455262,0.11903384872140987]",100.0,"[-0.16044691766303354,0.03308614912349386]",100.0,"[0.10924705592128263,0.1190342865052276]",4.0,"[0.18573989334708646,0.01928570608864378]",100.0,"[-0.048484408784409114,0.09603431162884378]",100.0,"[0.09252193661977867,0.016230381383131025]",4.0,"[-0.07573428395621798,-0.047253204036132375]",100.0,"[-0.021232597982141794,-0.08303012863163259]",100.0,"[-0.1060203622697705,0.14309050830806794]",100.0,"[0.07373283777131476,-0.18144030938082453]",100.0,"[0.026083821610410722,-0.07668476989023375]",100.0,"[0.1856263385130735,0.07376737540738224]",4.0,"[-0.010526465702051811,-0.18158493602728146]",100.0,"[0.14739288256778957,0.0420607276329615]",4.0,"[0.001516512931829754,0.08493170951651632]",4.0,"[0.15604101398067638,-0.058624508426334015]",100.0,"[0.045743100523276556,-0.13807639157621945]",4.0,"[-0.0646669816634808,0.03739424742668706]",4.0,"[-0.09334017956168833,0.08891905120075752]",100.0,"[-0.14925515118094376,-0.1142685306866771]",100.0,"[0.02,0.02]",534.7545,0.0,12.0,12.0,35.0,1.0,,,,,,,
,,,,,,,67d08d8bfb1d7900834824f7,684429367996d2118ccc1014,2025-06-07_14h39.12.347,shape_ratio,2024.1.5,Win32,59.88023952,684250e4f00cb30b92d1fa88,,,,,,,,,,,534.7561,535.2539,,,535.4871,535.5914,left,,,,,,,,0.45,0.0865,,,,,,,535.2541,535.4869,535.5915,"[-0.0018722045458906898,0.05146377789976915]",100.0,"[0.13701643249767806,0.09357443564313898]",100.0,"[0.010094315334890523,-0.17941516213239123]",4.0,"[0.08934782433405491,0.057775640279603004]",4.0,"[-0.018594065216102875,0.13033269157497368]",4.0,"[-0.0940982323449761,0.1633021626767297]",100.0,"[0.15971238144287916,-0.048802449462525765]",100.0,"[0.03799108258198975,0.044645874977427405]",4.0,"[-0.13986260538884726,-0.14009898571690627]",100.0,"[0.06242005150295305,-0.0025844059918137554]",100.0,"[-0.04580213992360242,0.17028672652402863]",4.0,"[-0.13936633593161607,-0.011729472814055418]",4.0,"[-0.02680158050775552,-0.04112640420298054]",4.0,"[0.03180210975931273,0.183362920208047]",4.0,"[0.09464944147488583,-0.08833186625032462]",100.0,"[-0.07849297299267655,0.08308465572901075]",100.0,"[-0.11894803099066563,0.1310728954411245]",100.0,"[0.12123241698577736,-0.02619308956961413]",100.0,"[-0.06251506320522508,-0.16222241220294215]",4.0,"[0.1182148225539428,0.1360616063929131]",4.0,"[-0.02751876418985944,-0.12580958306397466]",100.0,"[0.11613618302613143,-0.13940909469739296]",4.0,"[-0.06940265256574635,0.003134905950998417]",100.0,"[0.003416082144870325,-0.08272625899777895]",4.0,"[0.13486097129802885,0.012074926730687007]",100.0,"[0.04363946276550141,0.12201234429439108]",4.0,"[-0.05501179315772293,-0.07958583931066454]",100.0,"[0.08211164864038172,-0.17877540658971502]",4.0,"[0.16150659394747593,0.06093674645167584]",4.0,"[-0.03722018517328769,0.09174915763093092]",4.0,"[0.07099828546279449,-0.05562596285682324]",4.0,"[-0.14377949808037524,-0.09965315379798978]",4.0,"[0.02,0.02]",536.675,0.0,13.0,13.0,128.0,1.0,,,,,,,
,,,,,,,67d08d8bfb1d7900834824f7,684429367996d2118ccc1014,2025-06-07_14h39.12.347,shape_ratio,2024.1.5,Win32,59.88023952,684250e4f00cb30b92d1fa88,,,,,,,,,,,536.6768,537.1854,,,537.4369,538.0017,right,,,,,,,,0.5,0.5478,,,,,,,537.1854,537.4369,538.0019,"[0.19917202219048893,-0.00412724980411211]",4.0,"[-0.1853195734886746,-0.04285393782628353]",4.0,"[0.09978456449251703,-0.0030667092643028382]",100.0,"[-0.010383245750385685,-0.11125568987265767]",4.0,"[-0.050129516495115094,0.17763660200884537]",100.0,"[0.041887036288106166,0.08486588738640095]",4.0,"[0.13797942645444494,0.10907051839883329]",100.0,"[-0.02632758150635206,-0.1524938376193492]",4.0,"[-0.06695966965595071,0.04606381868111208]",4.0,"[0.04864672260369052,0.023847387811475353]",4.0,"[0.1481442306111444,-0.027697750963413904]",4.0,"[-0.045849495445732656,-0.09201799376909969]",4.0,"[0.04318792850479794,-0.14184853842985526]",100.0,"[-0.08608875723023234,-0.02285212296394708]",4.0,"[0.10274523421859634,0.040828564287123136]",4.0,"[-0.15556774860203573,0.01813860326625451]",100.0,"[0.1449567956243231,-0.11901631122623066]",100.0,"[0.11661932576153872,-0.05642028517502211]",100.0,"[-0.1825639660446917,0.07852659813363574]",100.0,"[-0.08616278840769405,-0.09854061234785741]",100.0,"[-0.02081100363115627,-0.05085649524954672]",4.0,"[0.10048948057556213,-0.15305243990096115]",4.0,"[0.0022710983957798725,0.1984813047226459]",100.0,"[-0.12748982324583258,0.109062310841696]",100.0,"[-0.17166845173145628,-0.09901159593162066]",100.0,"[-0.1136879869665525,0.1641079833319698]",4.0,"[-0.07147679293074828,0.1265062727179374]",100.0,"[-0.07431579382116499,-0.15026211094496897]",4.0,"[-0.13566451387133144,-0.020555929863493423]",4.0,"[0.10715243703568755,0.1683570465159518]",100.0,"[-0.024502878474504386,0.007694324477300085]",100.0,"[0.01600919600457668,0.13810022448549475]",100.0,"[0.02,0.02]",539.1046,0.0,14.0,14.0,111.0,1.0,,,,,,,
,,,,,,,67d08d8bfb1d7900834824f7,684429367996d2118ccc1014,2025-06-07_14h39.12.347,shape_ratio,2024.1.5,Win32,59.88023952,684250e4f00cb30b92d1fa88,,,,,,,,,,,539.1063,539.6013,,,539.8395,540.0469,left,,,,,,,,0.6,0.1891,,,,,,,539.6013,539.8395,540.047,"[0.035443762485568284,-0.004139757037324332]",100.0,"[0.09335849511971743,0.11387819903116683]",4.0,"[0.04495693882961438,-0.18004377428783294]",100.0,"[0.045290132568815845,0.07255127342059149]",4.0,"[-0.0663105208449178,0.11126325524417552]",100.0,"[-0.09532689950882414,0.06555225250048301]",4.0,"[-0.04703537145757843,-0.0026715839971881332]",100.0,"[-0.14360714915531292,0.08724849155048468]",4.0,"[-0.12481627359462291,-0.14062158746380737]",4.0,"[0.07652854643446205,0.15562821225014792]",4.0,"[0.14726630865292817,0.10407031904651909]",4.0,"[0.1898087113420281,-0.00614300742519202]",100.0,"[-0.03942520931346723,0.1720130040763035]",100.0,"[0.07952034319148922,-0.10965229443770645]",100.0,"[-0.19146399622900087,-0.02943432190732154]",100.0,"[0.0037110273486257203,-0.17081386942418145]",4.0,"[0.06885088450176219,0.03645333575393093]",100.0,"[-0.0759698112699388,-0.05159882700181448]",100.0,"[0.08572823495194645,-0.008282552906057297]",100.0,"[0.13878387577006307,0.04029127061634574]",100.0,"[0.18562224541969935,0.06496781128081122]",100.0,"[-0.07787440019687189,-0.14260306709137172]",100.0,"[0.15000432479195488,-0.0495649774652298]",4.0,"[0.13422590419675606,-0.14428919829600168]",4.0,"[-0.09413206745082162,-0.08744900652408676]",4.0,"[0.004544043250865374,0.07260174325096401]",4.0,"[-0.15094291612379085,-0.05170646789274602]",100.0,"[0.1143535341505942,-0.07096369597719177]",4.0,"[-0.09910477207241102,0.16984853896770344]",100.0,"[-0.024472673612825763,-0.11009288331391757]",100.0,"[-0.010457969708673936,0.021863679388704906]",100.0,"[-0.11773051373163539,-0.00966243353676055]",100.0,"[0.02,0.02]",541.1517,0.0,15.0,15.0,54.0,1.0,,,,,,,
,,,,,,,67d08d8bfb1d7900834824f7,684429367996d2118ccc1014,2025-06-07_14h39.12.347,shape_ratio,2024.1.5,Win32,59.88023952,684250e4f00cb30b92d1fa88,,,,,,,,,,,541.1533,541.667,,,541.9179,542.7682,left,,,,,,,,0.1,0.8314,,,,,,,541.6672,541.9178,542.7682,"[-0.1223276662467299,-0.03712066012254824]",4.0,"[0.020600245978526548,-0.10891105996521294]",4.0,"[-0.05263563766634652,-0.0918890483214514]",4.0,"[0.09127893788220556,0.08076869078157997]",4.0,"[-0.19723836208853865,0.01754940813663129]",4.0,"[-0.1537343419559061,-0.09178366114210726]",4.0,"[-0.03820282331421584,-0.030589118971788083]",4.0,"[0.04637856129081834,0.12861836571568666]",4.0,"[0.11079504993994205,-0.09103534268047155]",4.0,"[0.062339237176125634,-0.15578314211432404]",4.0,"[0.010216855833383068,-0.06015932078231219]",4.0,"[-0.15702221148571746,0.0962327729799775]",4.0,"[-0.0386285282312811,-0.14238340086958212]",4.0,"[-0.17994080501124585,-0.03244376505917318]",100.0,"[0.12551483820371717,-0.1422013289764567]",4.0,"[0.19368888411535984,-0.047539983728421074]",4.0,"[-0.054892471917677946,0.08192218145019127]",4.0,"[-0.10688243654365287,-0.1624061387704399]",100.0,"[-0.031371957364599815,0.12507708588109961]",4.0,"[0.008156714949070967,0.10788083921114909]",4.0,"[0.07908767675023298,-0.014397883433733188]",4.0,"[0.0036597647348663867,0.16746333510299655]",4.0,"[0.07091463255889964,0.17595960984686546]",4.0,"[0.18754613264576805,0.0021158394289040707]",4.0,"[0.14058529496158165,0.10849073792119858]",4.0,"[0.11599001148433878,0.15774101493489742]",4.0,"[0.0035909804941891737,-0.15417119798477477]",4.0,"[-0.07999210542406869,0.13615353018707424]",4.0,"[-0.1440436998537642,-0.13666857823084383]",4.0,"[-0.055080714128827125,0.010189855010915119]",4.0,"[-0.003936924901535499,0.010505402209889577]",4.0,"[0.15762374062046886,-0.10814384777852047]",100.0,"[0.02,0.02]",543.8699,0.0,16.0,16.0,189.0,1.0,,,,,,,
,,,,,,,67d08d8bfb1d7900834824f7,684429367996d2118ccc1014,2025-06-07_14h39.12.347,shape_ratio,2024.1.5,Win32,59.88023952,684250e4f00cb30b92d1fa88,,,,,,,,,,,543.872,544.3553,,,544.6036,545.0215,left,,,,,,,,0.5,0.399,,,,,,,544.3553,544.6035,545.0217,"[0.14440819024814083,0.13328341306933997]",100.0,"[-0.059180155712311056,0.005955180858756226]",100.0,"[-0.10181328843747939,-0.024172120831149647]",4.0,"[-0.1604107179445666,-0.08098820384696097]",100.0,"[-0.10803617018115963,-0.06456441007282261]",4.0,"[-0.06193495350063921,0.09584921907703703]",100.0,"[-0.04462716889363621,-0.10318543604241309]",4.0,"[0.15447619618972497,0.05599125538393015]",4.0,"[0.09461156452875384,0.15021437789802072]",4.0,"[-0.10627611935150487,0.038583399501038874]",100.0,"[-0.047197840201266696,-0.16276975464322604]",4.0,"[-0.0054590062568419355,0.16762387116376457]",4.0,"[-0.15516862879998544,0.06553082794127578]",4.0,"[-0.1331923738216383,0.12977135334689538]",4.0,"[0.02846160754275727,0.04355827748560892]",100.0,"[0.03888423463989634,0.15685656760996022]",100.0,"[-0.042878438363334624,-0.052043198569205626]",4.0,"[-0.00045843610895769654,0.12042668935558011]",4.0,"[0.14682819299718627,-0.09324666846696446]",100.0,"[-0.06857259931560372,0.05257544823713379]",100.0,"[-0.04470546265721467,0.14197221343879515]",4.0,"[0.04441334772751759,-0.12345296432211793]",4.0,"[0.08360625682255239,0.01773946874952225]",100.0,"[0.06368180511394564,-0.04837092550623853]",100.0,"[0.07332391988371109,-0.15131147011516058]",100.0,"[0.006776273213157136,-0.09902652705549508]",100.0,"[-0.1131382228000726,-0.11045885907833396]",100.0,"[0.08734724534501342,0.0883137444529812]",100.0,"[0.10989539105344183,-0.04845098723141093]",100.0,"[-0.0466899103620051,0.19031160267766428]",4.0,"[0.18459493999050536,-0.07544410038608804]",4.0,"[0.18497475867140345,-0.032864160706108786]",4.0,"[0.02,0.02]",546.1245,0.0,17.0,17.0,92.0,1.0,,,,,,,
,,,,,,,67d08d8bfb1d7900834824f7,684429367996d2118ccc1014,2025-06-07_14h39.12.347,shape_ratio,2024.1.5,Win32,59.88023952,684250e4f00cb30b92d1fa88,,,,,,,,,,,546.1263,546.6203,,,546.8675,547.3027,left,,,,,,,,0.55,0.4165,,,,,,,546.6204,546.8675,547.3028,"[0.1522633754574951,-0.09648201084423784]",100.0,"[0.01362071353006478,0.17433743785900654]",100.0,"[0.14943344791021732,0.03596777053317738]",100.0,"[0.06600207241950315,0.1844576501152793]",4.0,"[0.02191019511829644,-0.03137902323212181]",4.0,"[-0.0448758008581933,-0.049561988437521014]",100.0,"[-0.07687144664309456,0.0898142571290176]",4.0,"[0.007761330133201136,0.0843135831085716]",100.0,"[-0.006514083270055921,-0.18009782417826778]",100.0,"[-0.046318869553372916,0.17100328583489438]",4.0,"[-0.142058575004301,-0.08706095802428168]",100.0,"[0.0765423367092625,0.11152595444621968]",4.0,"[0.04202442332498117,-0.1923245034335209]",4.0,"[-0.039227977911811256,0.12555072460724234]",100.0,"[0.04323257748639617,-0.11616522214913637]",100.0,"[-0.053773275375945985,-0.15858487843532051]",4.0,"[-0.08044662596069421,-0.07680193450382515]",4.0,"[-0.10141286648476722,-0.13266338264726193]",100.0,"[0.14532548032164513,0.13466428191449822]",100.0,"[-0.029006182103839012,0.013182046605120533]",100.0,"[0.04643351127676531,0.009361188778707728]",4.0,"[0.07815381967989007,0.06329242446370187]",100.0,"[0.09900279310066758,0.01558733408823904]",4.0,"[-0.08870786926544033,-0.004873177932165832]",100.0,"[-0.0929337515779322,0.13106326585008599]",4.0,"[0.10535188895001894,-0.10033932465140073]",100.0,"[-0.13856442184079956,0.11741058278629977]",100.0,"[0.006214052412705615,-0.07828127524826257]",4.0,"[0.0006284962076430503,-0.13185500056701985]",100.0,"[-0.04394359353874423,-0.11520384280070932]",4.0,"[-0.07065166042019587,0.04426032263575629]",4.0,"[-0.14591125606331495,0.05240069151679002]",100.0,"[0.02,0.02]",548.4048,0.0,18.0,18.0,63.0,1.0,,,,,,,
,,,,,,,67d08d8bfb1d7900834824f7,684429367996d2118ccc1014,2025-06-07_14h39.12.347,shape_ratio,2024.1.5,Win32,59.88023952,684250e4f00cb30b92d1fa88,,,,,,,,,,,548.4066,548.9031,,,549.1531,549.3777,right,,,,,,,,0.1,0.2058,,,,,,,548.9032,549.153,549.3778,"[-0.02478804504400528,-0.030418040579884086]",4.0,"[0.10900488316599954,0.024425030641667792]",4.0,"[-0.039269936346733154,0.011758283575035968]",4.0,"[0.044613812409351514,-0.10974543685757335]",4.0,"[0.08551596006163101,-0.014873067218981283]",4.0,"[-0.029307514174147394,-0.18069118464553818]",100.0,"[-0.024374298764724432,0.10625991743695898]",4.0,"[0.1751502153918887,0.06664714528270063]",4.0,"[0.12874158618932297,-0.12699876118745132]",4.0,"[-0.0490064751454181,0.1550376599145707]",4.0,"[-0.18079996627827882,0.040129419245969564]",4.0,"[-0.15266653327120883,-0.07968852147418594]",4.0,"[-0.09880359391943805,0.04242746161363871]",4.0,"[0.053521711340434965,0.03855434158071644]",4.0,"[-0.10768440432385182,-0.16449806139645154]",4.0,"[-0.09488120148059502,-0.11133401399980052]",100.0,"[-0.15258325423308794,-0.024967928776080974]",4.0,"[-0.004703191329729122,-0.11851661968846847]",4.0,"[0.11143337875290285,0.10907642299057062]",4.0,"[0.04292082851522748,0.17672289452642362]",4.0,"[0.0172192649329913,0.10732159900692838]",4.0,"[0.11175183640103518,-0.0758521128485744]",4.0,"[-0.003506000695949809,0.17817499333654577]",4.0,"[0.005595361208970772,-0.06524516912847894]",4.0,"[-0.07593907573067138,-0.01959234694450205]",4.0,"[0.007137399939463303,-0.19879274907211378]",100.0,"[-0.06569742865052146,0.07710583980340276]",4.0,"[0.02755041184142519,-0.15935305636943572]",4.0,"[0.1528410461325066,0.02554692390589483]",4.0,"[-0.06228312656567135,-0.15620372447166736]",4.0,"[0.09174567519989016,-0.1646114258064154]",4.0,"[-0.07938964556398832,0.11882211155340645]",4.0,"[0.02,0.02]",550.4701,0.0,19.0,19.0,205.0,1.0,,,,,,,
,,,,,,,67d08d8bfb1d7900834824f7,684429367996d2118ccc1014,2025-06-07_14h39.12.347,shape_ratio,2024.1.5,Win32,59.88023952,684250e4f00cb30b92d1fa88,,,,,,,,,,,550.4719,550.9877,,,551.2331,551.634,right,,,,,,,,0.45,0.3835,,,,,,,550.9878,551.2326,551.6342,"[0.004197070105076655,-0.09629268230910848]",4.0,"[-0.0725455436643343,0.061649442902273754]",100.0,"[0.09757258291765605,-0.16098392547550186]",100.0,"[0.06837947773383786,-0.07640342526861706]",4.0,"[-0.0031519200923897607,0.12080187320785678]",4.0,"[-0.1608225810454489,0.07089471035934147]",4.0,"[-0.14367051787787788,-0.03666267489677197]",4.0,"[0.11954480419647602,-0.03666594119543656]",100.0,"[-0.07991836738025505,0.1773460872910793]",4.0,"[-0.01127642431444876,0.1700207399230988]",4.0,"[-0.11785331665786425,-0.09551058035197406]",4.0,"[0.015900417008171845,0.0693892704484573]",100.0,"[-0.03056243563083031,-0.05824755117996735]",100.0,"[-0.04491737376879794,-0.12351626646781687]",4.0,"[0.14831067608243256,0.06356023101715116]",100.0,"[0.011103871670786762,0.02357357292432368]",4.0,"[0.1276021420416795,0.10506806429649429]",4.0,"[0.17923859914753318,0.01731478719922234]",100.0,"[0.029567271638595155,-0.026696297207681338]",100.0,"[-0.13076387322275748,0.14921093527468762]",4.0,"[0.03808210945759542,0.10309592843084645]",4.0,"[-0.01172753702734627,-0.17891470545353444]",4.0,"[-0.07044635934364761,-0.03178196428570599]",4.0,"[-0.09011314500611178,-0.13208350926122547]",100.0,"[-0.06305909563821123,-0.16610588250964892]",4.0,"[-0.04455131478084896,0.11287781100718583]",4.0,"[-0.028276919535600936,0.057408184835442355]",100.0,"[0.16599651178191627,-0.06874526152313418]",100.0,"[0.13667976842257576,0.01472829890091461]",100.0,"[-0.1786204518699712,0.011137442084345146]",4.0,"[-0.12302304073922972,0.09792090391999969]",100.0,"[0.10049946296645491,0.047402824844002364]",100.0,"[0.02,0.02]",552.7249,0.0,20.0,20.0,140.0,1.0,,,,,,,
,,,,,,,67d08d8bfb1d7900834824f7,684429367996d2118ccc1014,2025-06-07_14h39.12.347,shape_ratio,2024.1.5,Win32,59.88023952,684250e4f00cb30b92d1fa88,,,,,,,,,,,552.7264,553.2227,,,553.469,553.5279,left,,,,,,,,0.5,0.041,,,,,,,553.2229,553.4689,553.528,"[-0.05458742227197018,0.014541306397162432]",100.0,"[0.11838686041543413,0.12257668830767643]",100.0,"[0.10134464365414678,-0.1453509977071517]",4.0,"[-0.18008125768539832,0.03776110783543373]",4.0,"[-0.09583608842827805,-0.11837039839557253]",4.0,"[0.0349655934097698,-0.05569403203294446]",100.0,"[-0.033389385556034365,-0.07223967820909998]",100.0,"[0.07294070595410539,0.15173860765987637]",100.0,"[-0.005272063236260511,0.030482257647928362]",100.0,"[0.10143345220523202,-0.10124154658788692]",4.0,"[-0.008918247313469551,-0.14415652263149356]",100.0,"[0.1793185062147565,0.007789009906138978]",4.0,"[-0.10327225536674965,0.15111093597671937]",4.0,"[-0.13532802689673118,0.05312293160156226]",100.0,"[-0.12226242516211937,-0.0153662257584269]",4.0,"[-0.09290937043990107,0.11135273096759338]",100.0,"[-0.09319685548070013,0.03015524460144335]",4.0,"[-0.1768922279660014,-0.06778988659701765]",100.0,"[0.03914839185138951,-0.1451911437662583]",4.0,"[0.18683595485391888,0.05597705817853789]",4.0,"[-0.046216726171355506,-0.17111453287538805]",4.0,"[-0.18131457468606832,-0.008861659461444822]",100.0,"[-0.014207542283594334,-0.03697311118658772]",100.0,"[0.1182348714521235,-0.059594575798190996]",4.0,"[0.12323373965955596,0.03914640131779377]",4.0,"[-0.06983350605592888,-0.0368940505706697]",100.0,"[0.02017309567271787,0.1434826529575774]",100.0,"[0.17194187515989343,0.09843561440611254]",100.0,"[0.052600149300431116,-0.00459084653208491]",4.0,"[0.063507090158783,0.06305434866479726]",4.0,"[0.17274980285925415,-0.06616584932827894]",100.0,"[0.007107933180910451,-0.08931271017620232]",4.0,"[0.02,0.02]",554.6191,0.0,21.0,21.0,116.0,1.0,,,,,,,
,,,,,,,67d08d8bfb1d7900834824f7,684429367996d2118ccc1014,2025-06-07_14h39.12.347,shape_ratio,2024.1.5,Win32,59.88023952,684250e4f00cb30b92d1fa88,,,,,,,,,,,554.6208,555.1182,,,555.3732,555.9231,right,,,,,,,,0.1,0.5308,,,,,,,555.1183,555.3731,555.9232,"[0.14851260561057233,0.06589110488159626]",4.0,"[-0.18804322409805105,0.06399448802104316]",4.0,"[-0.04739477489841792,-0.16030243527706506]",4.0,"[-0.07167942518577072,-0.07464148806398029]",100.0,"[0.12861830306212582,-0.14224368073547247]",4.0,"[-0.028899870036503017,0.1306029329317449]",4.0,"[0.004406307653416578,-0.043178005917586845]",4.0,"[-0.033723087315490785,0.02299223816259243]",4.0,"[-0.1457277768976615,0.08412323113967765]",4.0,"[0.035401218811109386,0.009742659461047316]",4.0,"[0.1669833384216212,-0.00968530206127309]",4.0,"[0.07376131053477829,0.09114211624741436]",4.0,"[0.13131011171141155,0.01583495245544549]",4.0,"[0.025305952064990422,0.11772327165778768]",4.0,"[-0.04549980987912195,-0.042434488515441994]",4.0,"[0.11227719342766908,0.1471468140857216]",4.0,"[-0.015400215524987718,-0.13454823867415588]",4.0,"[0.170449002328899,0.10305414595804763]",100.0,"[-0.11074624789906481,0.1522641536718989]",4.0,"[-0.014106491006499232,-0.19029797609705107]",4.0,"[-0.1628473252903684,-0.059919311050992755]",4.0,"[-0.10238098205293467,0.08052769291027892]",4.0,"[-0.07540425968900845,0.028860598381683644]",4.0,"[-0.07610770734006275,0.12251485620616917]",4.0,"[-0.0694753045656191,0.17564657014266413]",4.0,"[0.0901129589955424,-0.05701663994194305]",4.0,"[0.06581353184163964,-0.1551564189099525]",4.0,"[0.038121070969633214,-0.18709055623339926]",4.0,"[0.07585870500557035,0.04986863415179914]",4.0,"[-0.1365008932932409,0.03753447100998549]",100.0,"[-0.1244953396959186,-0.1358970232124641]",4.0,"[-0.12438433019891702,-0.09021437691114664]",4.0,"[0.02,0.02]",557.0163,0.0,22.0,22.0,192.0,1.0,,,,,,,
,,,,,,,67d08d8bfb1d7900834824f7,684429367996d2118ccc1014,2025-06-07_14h39.12.347,shape_ratio,2024.1.5,Win32,59.88023952,684250e4f00cb30b92d1fa88,,,,,,,,,,,557.0178,557.5056,,,557.7555,558.1179,left,,,,,,,,0.1,0.3435,,,,,,,557.5056,557.7554,558.118,"[0.05956362866406489,-0.1334944527497391]",4.0,"[-0.0966853110785061,0.0968774151819135]",4.0,"[-0.04363109063184656,0.14085084655479607]",4.0,"[-0.03816357957020273,-0.02179433328738361]",4.0,"[0.08436862971966674,-0.04552405445942771]",4.0,"[-0.05693606054799327,-0.09986407135408007]",4.0,"[-0.16910969553828792,-0.06864669097287801]",4.0,"[-0.17261357219242243,0.07902810427026193]",100.0,"[0.025114361164412787,0.06310549770964947]",4.0,"[0.15156780453297167,0.0782103530355922]",100.0,"[-0.11943810501086778,-0.0777312823041904]",4.0,"[-0.004030193641315216,0.16644123926220863]",4.0,"[0.15860968408255294,0.12019290830891934]",4.0,"[-0.1350641861411941,0.009200720006249063]",4.0,"[0.10343581233809737,-0.15959272094546506]",4.0,"[0.00939434982666218,-0.1822452019805486]",4.0,"[0.12418484856450855,-0.1201484692902677]",4.0,"[-0.03290622367618665,0.030946894598774626]",4.0,"[0.16111002861562368,0.015828578949043947]",4.0,"[-0.003921117160770624,0.10926515662736223]",4.0,"[0.12627231386085608,-0.012815531971830245]",100.0,"[-0.19583334132679683,-0.009106130933599854]",4.0,"[0.1194654505035456,0.03985976396659808]",4.0,"[0.07327830377552454,0.004704365747218227]",4.0,"[0.1937174475372181,-0.029031757471861947]",4.0,"[-0.0376928579600565,-0.16225363380843]",4.0,"[-0.18572356994025382,0.03791208262555217]",4.0,"[-0.14292140736084671,-0.1197866616029423]",4.0,"[0.14282834379531803,-0.055904846082388895]",4.0,"[-0.07806295046604336,0.1712819907567956]",4.0,"[0.07232347987150713,0.18521214049338142]",4.0,"[-0.11683096459427912,0.04685161917138153]",4.0,"[0.02,0.02]",559.2086,0.0,23.0,23.0,184.0,1.0,,,,,,,
,,,,,,,67d08d8bfb1d7900834824f7,684429367996d2118ccc1014,2025-06-07_14h39.12.347,shape_ratio,2024.1.5,Win32,59.88023952,684250e4f00cb30b92d1fa88,,,,,,,,,,,559.2104,559.7056,,,559.9686,560.0844,left,,,,,,,,0.6,0.0976,,,,,,,559.7057,559.9685,560.0844,"[-0.08290985295705021,0.12299622161999825]",100.0,"[0.06867390963634348,0.13275884490283008]",4.0,"[-0.08359127324638661,0.019987635318378272]",4.0,"[0.008218733079748625,-0.09632405871898474]",4.0,"[-0.13594180548589785,-0.06767539132448855]",100.0,"[-0.0548971850306021,-0.028160175448150603]",100.0,"[0.16155760344345582,-0.10065042601406024]",4.0,"[0.12574692839578408,-0.02814631395453672]",4.0,"[-0.036108069673119636,0.06008908820953126]",100.0,"[0.15301435473502634,-0.058528188601150624]",4.0,"[-0.011405402052199195,0.10790336527936234]",4.0,"[0.13763289307700416,0.05412555913120088]",4.0,"[-0.18023269981841225,-0.028355416285719613]",4.0,"[0.014441837335837019,-0.1413809437841376]",100.0,"[-0.062375934261084315,-0.15676205511228258]",100.0,"[0.10292762891319787,-0.09059493315511574]",100.0,"[-0.16522015885308564,0.053607491890972296]",100.0,"[0.04900032525878825,0.18105575774737]",4.0,"[-0.12348331377500657,-0.1400584539579504]",100.0,"[0.027184810739956038,-0.18577373768605024]",100.0,"[0.10639715903200066,0.15798549484501828]",4.0,"[-0.1617664186543131,0.10080902720090099]",100.0,"[0.06264473118369378,0.07663005461033565]",100.0,"[0.046867383352234976,-0.10705817084902446]",4.0,"[0.045562564409043126,0.03192502591490934]",100.0,"[0.1023909602966529,-0.1439181592898071]",100.0,"[-0.034481336923256764,0.172396376058286]",100.0,"[-0.18265497744067505,-0.07253388545552109]",100.0,"[0.17029868767097417,0.09186884818817635]",100.0,"[0.19672643304602822,0.001073620782969469]",4.0,"[0.1193972557733889,0.09408356004526916]",100.0,"[0.04941173950479036,-0.03485119910033584]",100.0,"[0.02,0.02]",561.1832,0.0,24.0,24.0,57.0,1.0,,,,,,,
,,,,,,,67d08d8bfb1d7900834824f7,684429367996d2118ccc1014,2025-06-07_14h39.12.347,shape_ratio,2024.1.5,Win32,59.88023952,684250e4f00cb30b92d1fa88,,,,,,,,,,,561.1846,561.6736,,,561.9069,562.3366,left,,,,,,,,0.4,0.4107,,,,,,,561.6736,561.9068,562.3367,"[0.134797735931322,-0.10460469837249815]",100.0,"[-0.06270796831134068,0.08929680881926863]",4.0,"[0.03863958795305114,-0.1304533051465312]",4.0,"[-0.11874020801047754,-0.03920655468391243]",100.0,"[-0.012726101682956672,-0.09875368949748978]",4.0,"[-0.1704017031655065,0.07494302863300292]",4.0,"[-0.154201955384911,0.00983960470783985]",4.0,"[0.056379255308535436,0.14815731311549118]",100.0,"[0.17055216718846958,-0.05410443013766128]",4.0,"[0.06292949881053364,-0.0035923781274045724]",100.0,"[0.0783911725269494,-0.05864552768974598]",100.0,"[-0.004906289431088681,0.13620243755710895]",4.0,"[-0.1158718377456619,-0.13556494522932752]",100.0,"[-0.07115446457880173,-0.05173140081875312]",100.0,"[-0.0006552935677696068,-0.007122888975235992]",100.0,"[-0.06416490479513343,0.14790272499369228]",100.0,"[-0.08790808352675564,0.023971388087406273]",4.0,"[0.18329472846414246,0.0596918194860331]",4.0,"[-0.12631767896717272,0.04218844588592699]",4.0,"[0.09088070775481025,-0.14116418386153137]",4.0,"[-0.02156057408341077,-0.04544215033269629]",4.0,"[0.02099928086521886,-0.17818205582884694]",100.0,"[0.14150073109181227,0.10700345113826622]",100.0,"[-0.12086777836220236,-0.0863867957196938]",4.0,"[0.07601932204068722,0.039575266999173256]",4.0,"[0.02745103486292647,-0.07537581338504745]",4.0,"[-0.02022372982335242,-0.1509810602637965]",4.0,"[-0.19385777500695842,0.03618792664403278]",100.0,"[-0.18430293248701998,-0.043713593873812094]",100.0,"[-0.10389711219657449,0.07931834509200848]",4.0,"[0.02129468783332442,0.17611890119340895]",4.0,"[-0.050208632094391886,-0.010941899767422542]",4.0,"[0.02,0.02]",563.4253,0.0,25.0,25.0,162.0,1.0,,,,,,,
,,,,,,,67d08d8bfb1d7900834824f7,684429367996d2118ccc1014,2025-06-07_14h39.12.347,shape_ratio,2024.1.5,Win32,59.88023952,684250e4f00cb30b92d1fa88,,,,,,,,,,,563.427,563.9355,,,564.1706,564.7033,left,,,,,,,,0.5,0.5144,,,,,,,563.9356,564.1705,564.7034,"[0.06119672934970093,-0.022779081990638425]",4.0,"[-0.08028323734860153,0.01016371059195141]",100.0,"[0.11346668109119135,-0.04448632569145871]",4.0,"[0.19259119284481352,-0.0027995972741819675]",4.0,"[0.029135163749828108,-0.1931205062898666]",4.0,"[0.02027612527312467,-0.026421911442935077]",100.0,"[-0.08158450300483924,-0.16518772078817862]",4.0,"[0.023770639603003324,-0.13856666330541922]",100.0,"[0.005908321792429839,0.14553144559900297]",4.0,"[-0.1510760046681529,0.03906434188092376]",4.0,"[-0.0008353814867664996,-0.09756172695226081]",100.0,"[-0.0038483092175495425,0.08971107085235218]",4.0,"[0.08328165449559632,-0.10468105906933385]",4.0,"[0.12167543034408985,-0.12982617350239672]",100.0,"[-0.04831956816834971,-0.05202225347283385]",100.0,"[-0.02195577064713238,0.006279330294885739]",100.0,"[-0.12546416204075328,0.10328925327695414]",4.0,"[-0.09298823837797093,0.1391990888093759]",100.0,"[0.1365787231239447,0.12717498299256685]",100.0,"[-0.17948489749998567,-0.043311760274865864]",100.0,"[-0.045777055131271026,0.14674209833493926]",100.0,"[0.1645341156722291,0.043421824726750574]",100.0,"[0.0005737322335297801,0.18770017643695197]",100.0,"[0.11948903811629016,0.034054949874092084]",4.0,"[0.09013708639026477,0.1565332031991958]",100.0,"[-0.05687602291282909,0.076736731892351]",4.0,"[-0.1583098164938589,-0.11753920152247697]",4.0,"[-0.05704981809649957,-0.09598559807628831]",100.0,"[-0.03467235835199715,-0.19457434174929938]",100.0,"[-0.1091575857597467,0.052648544938685655]",4.0,"[-0.10491294069413837,-0.09681926251512062]",4.0,"[0.1867057227030787,-0.056939351016413]",4.0,"[0.02,0.02]",565.7939,0.0,26.0,26.0,112.0,1.0,,,,,,,
,,,,,,,67d08d8bfb1d7900834824f7,684429367996d2118ccc1014,2025-06-07_14h39.12.347,shape_ratio,2024.1.5,Win32,59.88023952,684250e4f00cb30b92d1fa88,,,,,,,,,,,565.796,566.2866,,,566.5233,567.4698,left,,,,,,,,0.4,0.9276,,,,,,,566.2869,566.5232,567.4698,"[0.07699719727090466,-0.023538299462566626]",4.0,"[-0.06773643576786843,-0.16488938413188434]",100.0,"[0.17695155957136688,-0.07869363156690097]",4.0,"[-0.06604602803886457,0.02877156777210248]",4.0,"[0.039663470726922896,0.16700606299860693]",4.0,"[-0.006409133178413523,0.06352090914716774]",4.0,"[-0.0013956029844199387,-0.11383402868620848]",4.0,"[-0.10595777007498478,0.1106453424674127]",4.0,"[-0.006627299048548198,-0.01420098896548815]",100.0,"[0.09067947609565302,0.07245997239319896]",4.0,"[-0.14998642378301205,-0.023365262532400188]",100.0,"[-0.12051694901423732,0.15484694904190166]",100.0,"[-0.08614605858216906,-0.07410177288136524]",4.0,"[-0.19456342748707856,-0.008446160560490521]",4.0,"[-0.04480923653144713,-0.12472984742475786]",4.0,"[-0.12869740926909137,-0.06590352080877322]",4.0,"[0.1564443709204434,0.12384092444311944]",100.0,"[0.1279799104424473,-0.04860674004622444]",4.0,"[0.054331805424127584,-0.060637224848340866]",100.0,"[-0.08661403474692651,-0.022220353468936985]",4.0,"[0.06560437846105382,0.027180517626025243]",100.0,"[-0.05459658246475309,0.0722875357040747]",100.0,"[0.12706542097240905,-0.12065929587428201]",100.0,"[0.0026869782325795394,0.11749453721325208]",4.0,"[-0.1608579914367535,-0.09219131213982623]",100.0,"[-0.03378640768525004,-0.060758543276370466]",4.0,"[0.07488998291206203,-0.09547907315929713]",100.0,"[0.13898617702966992,0.07537479795918914]",4.0,"[-0.026540805467285867,0.16297176179292427]",100.0,"[0.059199006416848984,-0.15518013124304902]",100.0,"[-0.1438952803656447,0.05370776355836276]",4.0,"[-0.018442366045545402,-0.15775004420308109]",4.0,"[0.02,0.02]",568.5545,0.0,27.0,27.0,154.0,1.0,,,,,,,
,,,,,,,67d08d8bfb1d7900834824f7,684429367996d2118ccc1014,2025-06-07_14h39.12.347,shape_ratio,2024.1.5,Win32,59.88023952,684250e4f00cb30b92d1fa88,,,,,,,,,,,568.5566,569.0514,,,569.303,569.37,right,,,,,,,,0.9,0.0484,,,,,,,569.0515,569.3029,569.3702,"[-0.0284318844929313,-0.196235541862235]",4.0,"[0.11298255143098561,0.059021375910726155]",100.0,"[0.1566327016443208,-0.08219809242536612]",100.0,"[0.15608738364044586,0.06345869406227078]",100.0,"[0.05620222451733105,0.1397036033236784]",100.0,"[-0.13813523286686955,0.089071828317173]",100.0,"[-0.16414174616965194,-0.08688749455651963]",100.0,"[-0.0897650257045209,-0.10985397301734248]",4.0,"[-0.045780799595159516,0.004983785052844014]",100.0,"[0.11691988981891606,0.14780991420598122]",100.0,"[-0.019586790371589825,0.1739616293686775]",100.0,"[0.047617473059123186,-0.1770465409794985]",100.0,"[0.030297894127320285,-0.1216805978432579]",100.0,"[-0.18425209624335698,-0.019585862881636856]",100.0,"[0.07513417588396448,0.09825188611082507]",100.0,"[-0.07561720675818397,0.1312032762012416]",100.0,"[-0.06879255052733155,-0.15296945855663435]",100.0,"[-0.007460823930565039,-0.10840043488524508]",100.0,"[0.019665946395479077,0.18746350788250837]",100.0,"[-0.10774931280682205,0.16814183295143909]",100.0,"[0.1934592968232772,-0.048473788242428914]",100.0,"[-0.061939451013538205,-0.06649748186860266]",100.0,"[0.0756869402359313,-0.11169046209411371]",100.0,"[-0.18144832035556174,0.0703622797602713]",100.0,"[-0.015265591390599333,0.0437403318364328]",100.0,"[0.04555507893983421,0.05809988431480076]",4.0,"[-0.12637971667562578,-0.014466425716724593]",100.0,"[0.0337696499846824,-0.028780222193679258]",100.0,"[-0.06629477334718972,0.17597909894175823]",100.0,"[0.07569743766121935,-0.03788560308271101]",100.0,"[0.17137834485117853,0.0232033483901474]",100.0,"[0.11842836660743457,-0.14839120706762718]",100.0,"[0.02,0.02]",570.4571,0.0,28.0,28.0,16.0,1.0,,,,,,,
,,,,,,,67d08d8bfb1d7900834824f7,684429367996d2118ccc1014,2025-06-07_14h39.12.347,shape_ratio,2024.1.5,Win32,59.88023952,684250e4f00cb30b92d1fa88,,,,,,,,,,,570.4588,570.9555,,,571.2194,571.2398,right,,,,,,,,0.4,0.0019,,,,,,,570.9557,571.2193,571.2399,"[-0.07210418222441684,0.05344160987596327]",100.0,"[0.16738073777500823,0.08046386680308491]",4.0,"[0.007669653348281875,-0.08029872982060603]",100.0,"[0.015435622595208592,0.12570717345604754]",4.0,"[0.05617042258950417,-0.0785619354320474]",4.0,"[0.1273133751328095,0.09251935473801409]",4.0,"[-0.07647641794522513,0.1646308008542084]",4.0,"[-0.08809389169561102,-0.07973741828657138]",100.0,"[0.12858928801576286,0.14348389156397603]",4.0,"[0.1472782618750783,-0.12394901639080402]",100.0,"[0.026798301816856645,0.0050414288566500995]",100.0,"[-0.07262481125370446,-0.16914979725371357]",100.0,"[-0.035209894052074406,-0.12239574680579574]",4.0,"[0.14480198310147552,-0.008335150379322675]",100.0,"[0.09725337997141917,0.039686288847779014]",4.0,"[-0.05120938537327752,0.008490217258432662]",4.0,"[0.0032880613684485886,0.07713125309429102]",100.0,"[0.0386156677871455,-0.15467084940627532]",4.0,"[0.050391100813279605,0.14603650071648938]",4.0,"[-0.14055388917101436,-0.0967680246608408]",4.0,"[-0.1360743085036944,-0.011385456475430341]",100.0,"[0.02612854147724428,0.1924748787803366]",4.0,"[0.09523170998083087,0.16587779971919847]",4.0,"[-0.028929358958147345,-0.04672711611735106]",4.0,"[-0.07914705176069589,0.09372042367089382]",4.0,"[-0.19143990897676957,-0.0032846313357435862]",4.0,"[-0.1454074091506674,0.07692223219837782]",100.0,"[-0.1129150110163454,0.030958863561622675]",100.0,"[-0.009095379436101394,0.1690599842117615]",4.0,"[0.05183442984334025,0.10268003127360385]",4.0,"[0.09732481969049632,-0.0847343893959913]",100.0,"[0.06773567379327201,-0.01380624343394228]",100.0,"[0.02,0.02]",572.3224,0.0,29.0,29.0,164.0,1.0,,,,,,,
,,,,,,,67d08d8bfb1d7900834824f7,684429367996d2118ccc1014,2025-06-07_14h39.12.347,shape_ratio,2024.1.5,Win32,59.88023952,684250e4f00cb30b92d1fa88,,,,,,,,,,,572.3245,572.8061,,,573.0601,573.5524,right,,,,,,,,0.45,0.4679,,,,,,,572.8063,573.0601,573.5525,"[-0.12139222171291324,0.058004851661892544]",4.0,"[-0.007505599378397073,0.1305266707782568]",4.0,"[-0.16795465342091537,0.0950838651014624]",100.0,"[0.03557660882689182,-0.0007144693799402806]",100.0,"[-0.13571060155806436,-0.132325861798883]",4.0,"[0.1354195639182781,0.041450651228795196]",4.0,"[0.1322113026638697,-0.002961375324105216]",100.0,"[0.10078793979449066,-0.028489865498256713]",100.0,"[0.12126309540523662,-0.09948483450473847]",4.0,"[-0.012662204049849472,-0.1751047475011659]",100.0,"[0.08706785911340283,0.16419280367979383]",4.0,"[-0.053840969638598885,-0.0667002181064212]",100.0,"[0.14411113480832108,0.11374916134864788]",100.0,"[-0.07137207423256738,0.009769807328184171]",4.0,"[-0.10397518082977336,-0.06040496611883888]",100.0,"[0.06631200836159265,0.08531617834089524]",4.0,"[0.05094155827054701,-0.08136962543850157]",100.0,"[-0.1484577998546046,-0.010297165511856558]",4.0,"[0.07390443482840012,-0.16893892887540912]",100.0,"[0.008946477372523345,0.1877304509013883]",4.0,"[-0.19376037727723142,0.004953514165914748]",100.0,"[-0.15917923451804908,-0.06775204031195811]",4.0,"[0.04972919938846874,0.038788728849252475]",4.0,"[-0.06339955543831519,0.16941568806401433]",4.0,"[-0.03699068741705624,-0.12568054603668197]",4.0,"[0.0374514899372341,0.12408327637787446]",100.0,"[0.021960357729763055,-0.15198834564462882]",100.0,"[-0.13276813764113532,0.12188056608153217]",100.0,"[0.16900442117259024,-0.07816073597263969]",4.0,"[0.19451075286139888,0.0343518314691187]",4.0,"[0.1812275854787212,-0.022578795882516815]",4.0,"[0.016913473229304355,0.06853353853137449]",4.0,"[0.02,0.02]",574.6437,0.0,30.0,30.0,124.0,1.0,,,,,,,
,,,,,,,67d08d8bfb1d7900834824f7,684429367996d2118ccc1014,2025-06-07_14h39.12.347,shape_ratio,2024.1.5,Win32,59.88023952,684250e4f00cb30b92d1fa88,,,,,,,,,,,574.6446,575.1203,,,575.3695,575.5027,left,,,,,,,,0.45,0.1144,,,,,,,575.1207,575.3694,575.5027,"[0.16186101907865288,-0.10877049369765326]",100.0,"[0.09854024659423309,-0.006750224811197754]",4.0,"[0.05277443433932937,0.02912795421705187]",100.0,"[0.022600572553553504,-0.16482091282297706]",100.0,"[0.08024894792974464,-0.1046980104020524]",100.0,"[-0.176103379280794,0.04999950787795717]",100.0,"[-0.14209842295575276,0.12571243591869768]",4.0,"[0.17539574412942616,-0.002092970865583793]",100.0,"[0.0007169561201337812,-0.11360695395744906]",100.0,"[-0.03569039201552257,-0.07782206456756276]",4.0,"[0.09378771112901557,-0.15637713287097982]",4.0,"[-0.08173307383379953,-0.13527451361089599]",4.0,"[-0.04753536929106273,0.038384871475340976]",4.0,"[0.10531764720096407,-0.05390535130152859]",100.0,"[0.009341125325727175,-0.005867779864459479]",4.0,"[-0.002081221256474902,0.13402513239622943]",4.0,"[-0.1280129850216596,-0.09604425836369436]",4.0,"[0.03488720712222785,0.16823284865431676]",4.0,"[0.15646759024583545,0.06102989530568095]",100.0,"[-0.13842625188306196,-0.14208767626940397]",100.0,"[-0.11694688662605006,-0.013749816559023072]",100.0,"[-0.16504918634195342,-0.026197829852995742]",4.0,"[-0.149410535091768,0.08168169243218665]",4.0,"[-0.17127142146938215,-0.07664903801689749]",100.0,"[-0.07287838749011344,-0.0525814498819633]",4.0,"[-0.0439382328761875,0.1482003283152582]",100.0,"[0.08756572701434517,0.09303587667927282]",4.0,"[-0.0945438405943972,0.11293758095281275]",4.0,"[0.008854883358843945,0.07627145470074605]",4.0,"[0.09611693755016015,0.1747516724907242]",4.0,"[0.14668545051444712,0.10343662845929537]",4.0,"[-0.09243354524896193,0.042449669082845226]",100.0,"[0.02,0.02]",576.6039,0.0,31.0,31.0,145.0,1.0,,,,,,,
,,,,,,,67d08d8bfb1d7900834824f7,684429367996d2118ccc1014,2025-06-07_14h39.12.347,shape_ratio,2024.1.5,Win32,59.88023952,684250e4f00cb30b92d1fa88,,,,,,,,,,,576.6053,577.1012,,,577.3586,578.6261,left,,,,,,,,0.9,1.2517,,,,,,,577.1013,577.3584,578.6261,"[-0.12851012466304296,-0.008291301819596544]",100.0,"[0.16889770327280806,0.08727016821144713]",100.0,"[-0.05228804474790428,-0.12546188548147433]",100.0,"[-0.11383810189289265,-0.10289183741643809]",100.0,"[-0.14670157927875296,0.10387356916826757]",100.0,"[-0.02484649383604751,-0.09177176292749845]",100.0,"[-0.0013430591723211502,0.17957214598663848]",100.0,"[0.07022906004867163,0.11693744389311408]",100.0,"[0.07737662962340604,-0.07492497917712491]",100.0,"[0.03866147510778217,0.054738587708538324]",100.0,"[-0.06940696246010683,-0.16638761371731223]",4.0,"[0.11657626559835213,0.12337984735787826]",100.0,"[-0.19644363814710566,0.029580027545719964]",100.0,"[0.012122146251656335,-0.027860251791698872]",100.0,"[-0.08958649012863704,0.1352203881498671]",100.0,"[-0.002114176908921333,0.06670174214183727]",100.0,"[0.11116932720451503,0.03952501442034635]",4.0,"[-0.030549300733092595,-0.0030969546007788033]",100.0,"[-0.029378672470236813,0.14809692740392055]",100.0,"[0.003985616543210907,-0.19360164035588112]",100.0,"[0.17715869227923214,-0.05015601965609831]",100.0,"[-0.13172137786283095,0.040053367259288236]",100.0,"[-0.16949480704474343,-0.040151972457144844]",100.0,"[0.15201507714535215,-0.12887921538516592]",100.0,"[0.04432768818580166,-0.0011707533257723237]",100.0,"[0.1495506464164251,0.022536167427890285]",100.0,"[0.05632761458729296,-0.17441559129266548]",100.0,"[-0.08203106619034733,0.0708548067756262]",100.0,"[0.08055686354249317,-0.11771240715620812]",100.0,"[-0.060107279390468185,-0.07035491139529033]",100.0,"[-0.07857590230209513,0.18384197416616221]",100.0,"[0.012807921230681795,-0.07439677696667005]",4.0,"[0.02,0.02]",579.7348,0.0,32.0,32.0,12.0,1.0,,,,,,,
,,,,,,,67d08d8bfb1d7900834824f7,684429367996d2118ccc1014,2025-06-07_14h39.12.347,shape_ratio,2024.1.5,Win32,59.88023952,684250e4f00cb30b92d1fa88,,,,,,,,,,,579.7369,580.2407,,,580.4873,580.7552,left,,,,,,,,0.55,0.2514,,,,,,,580.2408,580.4873,580.7553,"[0.16494088466321302,0.03223941609030926]",4.0,"[0.05688469710495661,-0.0959144003179395]",4.0,"[0.09413940425794562,0.11070489953745478]",100.0,"[0.09172611696786605,-0.012883386869094649]",4.0,"[-0.07634764111179941,0.08293998899821128]",100.0,"[0.09756339304069414,-0.13825375269475684]",4.0,"[-0.18782572060317368,-0.06682804717448426]",100.0,"[-0.11306920524517029,-0.01735573095135184]",4.0,"[0.15026244951531817,-0.12617780451975955]",4.0,"[-0.16042619305741587,0.08296906337871479]",100.0,"[-0.04724408959851665,0.011789824098149387]",100.0,"[-0.0016006776779551289,-0.03930831558670207]",100.0,"[-0.05398065901164916,-0.1459805055333285]",100.0,"[-0.18802530486038824,0.02163634625983235]",4.0,"[0.09455821258269025,0.050848562762782955]",4.0,"[-0.010840486112111969,-0.11665639166055287]",4.0,"[0.08229457911095342,-0.17712916865931846]",100.0,"[-0.143849143846528,-0.0956816195414953]",100.0,"[-0.038746372393506825,0.14621743589639657]",100.0,"[0.02037247826028702,0.014297433195876065]",100.0,"[0.016369819187949636,0.14625515889124868]",4.0,"[-0.028887767446776267,-0.17922021753543294]",100.0,"[-0.1556385102838433,-0.01543295348056023]",100.0,"[0.034875506527940324,0.055017261354915324]",4.0,"[0.07702239509311191,0.16179494011521114]",100.0,"[0.016213680112185554,-0.15760044413811886]",4.0,"[0.12729385235148685,-0.07576279604271371]",4.0,"[-0.05223078955546609,-0.04980825844673853]",100.0,"[-0.10346125703413823,-0.05623170894221597]",100.0,"[-0.07283344770240893,-0.09276338572980858]",4.0,"[0.1636528842420479,-0.03436112064847345]",100.0,"[0.17705445297207997,-0.08336038140977751]",100.0,"[0.02,0.02]",581.8487,0.0,33.0,33.0,76.0,1.0,,,,,,,
,,,,,,,67d08d8bfb1d7900834824f7,684429367996d2118ccc1014,2025-06-07_14h39.12.347,shape_ratio,2024.1.5,Win32,59.88023952,684250e4f00cb30b92d1fa88,,,,,,,,,,,581.8508,582.3385,,,582.5881,582.7068,left,,,,,,,,0.9,0.1002,,,,,,,582.3385,582.5881,582.7069,"[0.17910387838091987,-0.057364512397711766]",4.0,"[-0.006984366250288564,-0.19924052686984867]",100.0,"[-0.08377566698566409,0.15158340037753437]",100.0,"[-0.03155250201938185,-0.16262517837501855]",100.0,"[-0.06794139771580074,0.07712111161556846]",4.0,"[-0.1809790491347387,0.0074904872084416915]",100.0,"[-0.17772681723550013,-0.0497955844298632]",100.0,"[0.1433441564004436,-0.0017657395507546742]",100.0,"[0.13961886880761207,-0.1393461410934566]",100.0,"[0.1984023873842045,0.009403715287195169]",100.0,"[0.015199334135829246,-0.022921839859285625]",100.0,"[0.10989203340883895,0.02646848651345893]",100.0,"[-0.13488418193396728,0.045453791624523864]",100.0,"[0.06704560455699514,-0.07340984251375769]",100.0,"[-0.053443228651961695,0.03847234211447672]",100.0,"[-0.015492792251178767,0.054908010682708265]",4.0,"[-0.14432636906157778,-0.11736950290265846]",100.0,"[0.047176865575601724,0.10984221295412504]",100.0,"[0.1865438344303495,0.059197451574671885]",100.0,"[0.10557571234895416,-0.0175877510445105]",100.0,"[-0.052094294286948055,-0.06482479053477042]",100.0,"[-0.03842260463856172,0.11531829460433306]",100.0,"[0.006998273818753958,-0.07213592823191965]",100.0,"[0.02056424466879393,0.15011034007239255]",100.0,"[-0.10299306568054666,-0.03759872775150029]",100.0,"[0.055967937181211284,0.06012341248298855]",100.0,"[0.1395643420917392,-0.07762695851176969]",100.0,"[-0.013457588061735585,-0.12501115970794852]",100.0,"[0.10699373016139979,0.13496486700064717]",100.0,"[-0.08282358241161092,-0.10889943693744941]",100.0,"[-0.05036556522299239,0.19156508427308172]",100.0,"[-0.031215703963819882,-0.010603585834867549]",100.0,"[0.02,0.02]",583.8041,0.0,34.0,34.0,14.0,1.0,,,,,,,
,,,,,,,67d08d8bfb1d7900834824f7,684429367996d2118ccc1014,2025-06-07_14h39.12.347,shape_ratio,2024.1.5,Win32,59.88023952,684250e4f00cb30b92d1fa88,,,,,,,,,,,583.806,584.2904,,,584.5229,585.9694,left,,,,,,,,0.9,1.4277,,,,,,,584.2904,584.5227,585.9695,"[-0.06708605007480394,0.17968202955416251]",100.0,"[0.06845027885142699,-0.03310311909938669]",100.0,"[-0.023930684089657917,-0.18610699992000734]",100.0,"[-0.083026285262397,0.053551484674428704]",100.0,"[0.031394449802907405,-0.18129950338348363]",100.0,"[0.03377625407233532,-0.007325387302682029]",100.0,"[-0.1448877000441889,0.03538705718700552]",100.0,"[-0.18887023928813265,-0.010270252354405823]",100.0,"[-0.014977908358487887,0.019262229400409597]",100.0,"[0.16623412893298736,0.10571715880254741]",4.0,"[-0.11294450562662599,-0.10245712964114237]",100.0,"[0.030704993154857137,-0.135079893196526]",100.0,"[-0.0681501150058706,-0.15816361711887508]",4.0,"[-0.1343165506078435,-0.050332684660791445]",100.0,"[0.02313719903737112,0.0930738665899383]",100.0,"[-0.04133582027352217,0.11838521244017983]",100.0,"[0.061181925596626864,0.04916233474609834]",100.0,"[0.12855908194631263,-0.1366176033981738]",100.0,"[-0.0370060889214804,0.06991040153691087]",100.0,"[0.04577845090323912,0.18389080911816888]",100.0,"[-0.03570624022345128,-0.08267038116248619]",100.0,"[0.1132058661221317,-0.05776194211196072]",100.0,"[-0.024159951828963633,0.18642480740863862]",100.0,"[0.16519009688509304,-0.08620434065654753]",100.0,"[0.09459094118225593,-0.09581341836578779]",100.0,"[0.11908441178030287,-0.004595471566709376]",100.0,"[0.16326495021346735,0.04659369339436825]",100.0,"[0.0037930590402238313,0.057835914467271855]",100.0,"[0.1577491365409927,0.006093776342318624]",100.0,"[-0.17225576270419438,-0.07996175191064796]",100.0,"[0.014447709805914604,-0.059488336852925594]",4.0,"[0.09481965066418067,-0.16346970641116512]",100.0,"[0.02,0.02]",587.0702,0.0,35.0,35.0,5.0,1.0,,,,,,,
,,,,,,,67d08d8bfb1d7900834824f7,684429367996d2118ccc1014,2025-06-07_14h39.12.347,shape_ratio,2024.1.5,Win32,59.88023952,684250e4f00cb30b92d1fa88,,,,,,,,,,,587.072,587.5661,,,587.8038,588.1524,right,,,,,,,,0.4,0.3306,,,,,,,587.5661,587.8037,588.1525,"[0.00044400522342371283,0.13337082870700379]",4.0,"[-0.0004414523379238454,-0.11603782210314222]",4.0,"[0.0881003952061047,-0.12983082139552196]",4.0,"[-0.1541297814562405,0.013604705150226616]",100.0,"[0.029715766737839773,-0.00610470887960331]",100.0,"[-0.06703055151763815,0.17833370656769845]",100.0,"[-0.1224317435982768,-0.1467021434974296]",4.0,"[-0.03162976467359914,0.08996336671855407]",100.0,"[0.14202258719839264,0.09013926031294857]",100.0,"[-0.029266474933082216,-0.084658392085559]",4.0,"[0.14006031891476622,-0.005069837020704659]",4.0,"[0.06350386268546235,-0.16955246088938675]",100.0,"[-0.010578007094970426,-0.17076097595190484]",4.0,"[0.13213112674291527,-0.12206630321043394]",4.0,"[0.06769554671347594,0.10708643395816168]",100.0,"[-0.07474644491883017,-0.04447473895439367]",100.0,"[-0.19595607436588824,0.024959924112136937]",4.0,"[0.10617263824280918,0.165287967450703]",4.0,"[0.034771680500673155,0.08337309738746015]",4.0,"[-0.004213466030032015,0.19404333466693174]",100.0,"[0.1073072599581906,-0.03888351195951545]",4.0,"[0.15278807667607663,0.03333208461338211]",4.0,"[0.006479939425996166,0.04860322941817713]",4.0,"[-0.10052096886755814,0.047745445095584614]",4.0,"[-0.00332719448509704,-0.05065096134969379]",100.0,"[0.05246222851082713,0.16418744690526843]",4.0,"[0.02744912181543044,-0.19039354580360685]",100.0,"[0.06653347024013825,-0.04915159043253227]",4.0,"[0.19017372736881563,-0.008487241948807617]",4.0,"[-0.08231083745722045,-0.15290795081826086]",4.0,"[-0.18478982350347453,0.07401149967655164]",100.0,"[-0.16212529412074148,-0.06019013400570021]",100.0,"[0.02,0.02]",589.2382,0.0,36.0,36.0,165.0,1.0,,,,,,,
,,,,,,,67d08d8bfb1d7900834824f7,684429367996d2118ccc1014,2025-06-07_14h39.12.347,shape_ratio,2024.1.5,Win32,59.88023952,684250e4f00cb30b92d1fa88,,,,,,,,,,,589.2396,589.7205,,,589.977,590.1731,left,,,,,,,,0.45,0.1725,,,,,,,589.7208,589.9769,590.1733,"[0.0947415657787134,-0.17002845610188042]",4.0,"[-0.13204332661680743,-0.04708082391166705]",100.0,"[0.07400669471726441,0.06900139569463794]",100.0,"[-0.05751880888832863,0.09689019565540512]",100.0,"[0.09703544158801253,-0.022619569597210534]",4.0,"[0.13245792402945739,0.03836170612020894]",4.0,"[0.15063447574741465,-0.01402125785420216]",100.0,"[-0.024295603911738878,-0.07432155564447247]",4.0,"[-0.12699883263068654,0.10598113162342071]",100.0,"[-0.06935362195762389,0.13780879932487697]",100.0,"[0.016455876569008952,0.11433909313041869]",4.0,"[0.0314805616592026,-0.09982084593896455]",4.0,"[0.11548125012785804,0.11316276359476424]",4.0,"[-0.10632746781658746,-0.12536490474933132]",100.0,"[-0.1475538275664207,0.03329058401453322]",100.0,"[0.029123008015032172,0.1625160859368813]",4.0,"[-0.039190827925062836,0.1754069504753628]",100.0,"[0.012074893236433907,-0.1450232120843882]",4.0,"[-0.17646635924171442,0.08897352796260365]",4.0,"[-0.08539070608233941,0.067133403242744]",4.0,"[0.049373508667035104,-0.05693104789191705]",100.0,"[0.13484499945130843,-0.06545547937913457]",4.0,"[0.11157455657310318,-0.1056896975107041]",4.0,"[-0.05901384985631224,-0.10643708409990046]",4.0,"[0.1807687638702051,-0.07823867959869138]",4.0,"[-0.06806655230625779,0.018709486537821656]",4.0,"[-0.1194240788531157,-0.0006411501548266538]",100.0,"[-0.016973405463091916,0.06100401017784527]",4.0,"[-0.11140626343337934,0.14628864904152875]",100.0,"[0.024947648277409487,0.01943689249978925]",4.0,"[-0.17201136609340487,-0.06043266323628752]",100.0,"[0.19491271594030266,-0.03149305053341039]",100.0,"[0.02,0.02]",591.2532,0.0,37.0,37.0,144.0,1.0,,,,,,,
,,,,,,,67d08d8bfb1d7900834824f7,684429367996d2118ccc1014,2025-06-07_14h39.12.347,shape_ratio,2024.1.5,Win32,59.88023952,684250e4f00cb30b92d1fa88,,,,,,,,,,,591.2548,591.7544,,,592.0168,593.2189,left,,,,,,,,0.55,1.1834,,,,,,,591.7545,592.0167,593.219,"[-0.15149591151543979,0.12299782435218384]",100.0,"[-0.0329318886502755,0.08198396515446174]",100.0,"[-0.07779550676520815,-0.003937504877056124]",4.0,"[-0.09010609500362095,-0.11703382974153981]",4.0,"[-0.016108628404440706,-0.00238971294619661]",100.0,"[0.09021111900990902,-0.12468757601671432]",100.0,"[-0.14249161378764647,-0.08605493841576978]",4.0,"[-0.1437015523165752,-0.03767520886034318]",4.0,"[0.10846864838456621,0.0006733435808556157]",4.0,"[0.10300829916547381,0.11108903330416772]",4.0,"[0.015219781839788454,0.10179866955227397]",4.0,"[0.03554300756207,0.1680645114906799]",4.0,"[0.07778754620566863,0.17614243041858457]",100.0,"[0.12778399331534931,0.047963082425221314]",100.0,"[-0.17087394133755007,0.08270522690817389]",100.0,"[0.03465167015785378,0.0028358075107769104]",100.0,"[0.031496170107928954,-0.04410701265779097]",100.0,"[0.17003483471253822,-0.07353243606043522]",100.0,"[-0.07317403804297677,0.09896585415261479]",100.0,"[0.06729718974421345,0.07431633698882609]",4.0,"[0.046880874261734005,-0.12642680461887065]",100.0,"[0.12805012668889437,-0.09212419691913531]",4.0,"[-0.02770567556874772,-0.07810692052614311]",100.0,"[0.002580697235617903,-0.19213460760840312]",100.0,"[-0.012314021699217038,0.1378903335843168]",4.0,"[0.15574774144970507,0.0880772162599268]",100.0,"[0.1770321538566478,0.015986634770973486]",100.0,"[-0.12721592617787067,0.07681572428369406]",4.0,"[-0.11297019773075932,0.034347145634774166]",4.0,"[-0.05642848584196011,-0.04713431949702889]",100.0,"[-0.0031384822734355985,-0.14658533215165714]",100.0,"[0.07732806974327054,0.029678105803447156]",4.0,"[0.02,0.02]",594.3251,0.0,38.0,38.0,82.0,1.0,,,,,,,
,,,,,,,67d08d8bfb1d7900834824f7,684429367996d2118ccc1014,2025-06-07_14h39.12.347,shape_ratio,2024.1.5,Win32,59.88023952,684250e4f00cb30b92d1fa88,,,,,,,,,,,594.3255,594.8077,,,595.0389,595.4548,left,,,,,,,,0.6,0.396,,,,,,,594.8077,595.0388,595.4548,"[-0.050259051074771625,-0.009578683065645195]",4.0,"[0.15122280481942116,-0.10735043990454801]",4.0,"[0.03389251644463793,0.19616653329975609]",100.0,"[-0.13258124020261713,-0.08800252346733858]",4.0,"[-0.10753854049857367,-0.039535771131735384]",100.0,"[-0.007567689661872531,0.1451903289359765]",4.0,"[-0.10234934967787829,-0.1436646188166983]",100.0,"[0.17857021751171734,-0.04125612401315985]",100.0,"[0.13235797952012612,0.006201104254441411]",4.0,"[0.17668019182877162,0.004526585298969015]",100.0,"[-0.05081478245202129,0.15313703414523952]",100.0,"[0.028007492486081774,-0.10108978497022322]",100.0,"[-0.11028612136725813,0.07666998041395383]",100.0,"[0.10458516546712814,0.06911660897483166]",4.0,"[-0.17879760391629246,-0.017085856955748643]",4.0,"[0.003341432040459983,-0.014407184514280025]",100.0,"[-0.004378135884393142,-0.1872795121170674]",100.0,"[-0.17900737327577418,-0.0843672103013466]",100.0,"[-0.09636034531251389,0.03509360683092637]",4.0,"[-0.011501834630103822,0.03156813446524024]",4.0,"[0.03473439970259643,0.1515943397655709]",100.0,"[-0.034753874330366336,0.0822913687024289]",100.0,"[0.14776373046944294,0.06215158341758857]",4.0,"[0.07504598523016608,-0.05606267068283028]",100.0,"[0.04803002945099424,0.014653192805462439]",4.0,"[-0.18902921396169925,0.052177939675845414]",100.0,"[-0.057340717538956254,0.04548721222662403]",100.0,"[-0.0318725740248469,-0.05615709180875785]",100.0,"[0.11710739464961364,0.12363486573916116]",4.0,"[0.027501676552688026,0.10834002556031014]",100.0,"[0.10067866315377297,-0.1370119967388071]",100.0,"[-0.15825941788268133,0.02457100148343911]",4.0,"[0.02,0.02]",596.5378,0.0,39.0,39.0,30.0,1.0,,,,,,,
,,,,,,,67d08d8bfb1d7900834824f7,684429367996d2118ccc1014,2025-06-07_14h39.12.347,shape_ratio,2024.1.5,Win32,59.88023952,684250e4f00cb30b92d1fa88,,,,,,,,,,,596.5395,597.0328,,,597.2858,597.7354,left,,,,,,,,0.4,0.4306,,,,,,,597.0329,597.2857,597.7355,"[-0.0029435647447575725,0.10121239338006441]",4.0,"[0.09439628405839438,-0.03990550001309233]",4.0,"[0.1857992245560794,0.037781364604622024]",4.0,"[0.07181266243513672,-0.15494925420991096]",4.0,"[-0.043315376759248334,-0.03657845600070511]",4.0,"[-0.16381387809607217,-0.07837385623434681]",4.0,"[-0.09588505183115839,0.07897289251046875]",4.0,"[0.05057370998363067,0.1822917896823317]",4.0,"[-0.03881473433067976,-0.16291519679851316]",100.0,"[-0.10398247662775649,0.029221177031209515]",100.0,"[-0.08008593510131347,-0.11889736487981521]",100.0,"[0.1227387540366559,0.0041943095485239565]",4.0,"[-0.1625233665818639,-0.03666665189919377]",4.0,"[0.010132461820479229,0.008689379927351125]",100.0,"[0.13606260445831658,0.0713060185340177]",4.0,"[-0.04397047655461025,0.15974405141028986]",4.0,"[0.00770375251927158,0.1574187319787461]",100.0,"[-0.12227823892392456,-0.15748354129212372]",100.0,"[0.1493557912851274,-0.08587721983345552]",100.0,"[0.02414750436346422,-0.05901128723818417]",100.0,"[-0.14491198828238033,0.012967831283141612]",4.0,"[-0.09087071163135847,0.1690481404484773]",100.0,"[-0.0667604635212254,0.12604104179517361]",100.0,"[0.0340514278285749,0.08058300993502078]",4.0,"[0.06741478828691684,0.05642996777614233]",4.0,"[0.07240260838576534,0.14795929309978711]",100.0,"[-0.12075991544043897,-0.028368822746683384]",4.0,"[0.17583678972446884,-0.0023369282992385613]",4.0,"[-0.041676168372323165,0.07235774494316441]",4.0,"[-0.048844867875490486,-0.09069377364529362]",100.0,"[-0.12155311379190707,-0.0898518064971013]",100.0,"[-0.1434654931915238,0.07543499583327457]",4.0,"[0.02,0.02]",598.8375,0.0,40.0,40.0,152.0,1.0,,,,,,,
,,,,,,,67d08d8bfb1d7900834824f7,684429367996d2118ccc1014,2025-06-07_14h39.12.347,shape_ratio,2024.1.5,Win32,59.88023952,684250e4f00cb30b92d1fa88,,,,,,,,,,,598.8391,599.3224,,,599.5559,599.6018,left,,,,,,,,0.45,0.0272,,,,,,,599.3225,599.5557,599.6018,"[0.005626352401070413,-0.013276087750222685]",4.0,"[-0.16137900827127005,0.03286585369035069]",100.0,"[0.05624806604879324,0.1489283282532705]",100.0,"[-0.04881075742791454,-0.05215933248878366]",4.0,"[-0.03160014910632797,-0.18022571605713228]",100.0,"[0.1144600509661929,-0.14368509426098444]",100.0,"[-0.14999706481869549,0.11159070528916434]",4.0,"[-0.07238428008316482,0.0027082431257722333]",4.0,"[0.013572155153139425,-0.18615323224914096]",100.0,"[0.1817971123945035,-0.01720851170714802]",100.0,"[0.14915126490972422,0.021325254697488454]",4.0,"[-0.03834020606924548,0.14218338797988775]",100.0,"[0.015059893312236866,-0.05909142967811478]",100.0,"[-0.04790687048670219,0.18202198284133506]",4.0,"[-0.009176902623468501,0.100721418583085]",4.0,"[-0.10044557922242495,0.16819673025083468]",100.0,"[0.04416323410891518,-0.08845205700402586]",4.0,"[0.03753855766497927,0.06729492946314035]",4.0,"[0.1172833086165866,0.1481860686104228]",100.0,"[-0.07461643276274837,-0.18472049660534015]",100.0,"[-0.12165941081750824,-0.05295813317109715]",4.0,"[0.018157076151627462,0.17890874185791864]",100.0,"[0.14454806556296385,-0.03910644054968038]",4.0,"[-0.07062417685911719,0.11732377078322857]",100.0,"[0.04509486230668997,-0.13396099614027068]",4.0,"[-0.01653646675137729,0.03524938278627864]",4.0,"[0.07068666826731691,-0.007676825966103694]",4.0,"[0.1365991619843595,-0.07985203660702922]",4.0,"[-0.17404699461278555,-0.005174620910578955]",100.0,"[-0.126550817328871,-0.12696817994337173]",4.0,"[-0.10384489105758747,0.059642697451367244]",4.0,"[0.07708539297914369,0.0785939725314336]",4.0,"[0.02,0.02]",600.705,0.0,41.0,41.0,123.0,1.0,,,,,,,
,,,,,,,67d08d8bfb1d7900834824f7,684429367996d2118ccc1014,2025-06-07_14h39.12.347,shape_ratio,2024.1.5,Win32,59.88023952,684250e4f00cb30b92d1fa88,,,,,,,,,,,600.7066,601.188,,,601.435,602.0597,left,,,,,,,,0.5,0.6063,,,,,,,601.1881,601.435,602.0599,"[-0.12072114807032133,0.12194864483193225]",4.0,"[-0.0918634470252835,0.0014480198162204019]",4.0,"[-0.05106148664185565,0.02695721579116674]",4.0,"[-0.0710151305909812,-0.09014741012355522]",4.0,"[0.10719179344024177,0.03697762091311493]",100.0,"[-0.036895512001134584,-0.1849319306833657]",4.0,"[0.08721774705992191,0.14539252769899977]",4.0,"[-0.03167412640230915,0.11655200674285443]",100.0,"[0.09903269194272768,-0.008812028540510216]",4.0,"[-0.13935532372525128,-0.06125276902584857]",100.0,"[0.05290871651947951,-0.08613748325184677]",4.0,"[-0.16207624595171954,0.050909387256877686]",4.0,"[0.03874852795250686,-0.1715562859760672]",4.0,"[0.018651205542740325,-0.13567386136437096]",100.0,"[-0.058947881830620504,-0.02334615015099706]",4.0,"[-0.015615789805866998,-0.006418598751887986]",4.0,"[0.05638718188303327,0.0323673247791508]",100.0,"[-0.19570779127102086,0.015172579335191573]",4.0,"[0.054143236599940206,0.07456990811802654]",100.0,"[-0.14691087142012782,-0.1042603797871503]",100.0,"[0.11810044302607577,0.109482176405267]",100.0,"[0.006492599134817866,0.16984232447597888]",4.0,"[0.15968485964210236,-0.10511447903604648]",100.0,"[-0.07081113353412097,-0.1610787736596473]",100.0,"[0.007882161819247974,0.05251229077280701]",100.0,"[0.17581830314030727,0.032915503597931654]",100.0,"[-0.11548584629923005,0.05641830906907131]",100.0,"[0.19235232467955712,-0.006690278970628506]",100.0,"[0.16409172471661918,0.10923809234261961]",4.0,"[0.16623253910515917,-0.05255017505676283]",4.0,"[0.05231312623419241,0.18806133036661124]",100.0,"[0.13859773956863372,0.011574372085645865]",100.0,"[0.02,0.02]",603.1672,0.0,42.0,42.0,115.0,1.0,,,,,,,
,,,,,,,67d08d8bfb1d7900834824f7,684429367996d2118ccc1014,2025-06-07_14h39.12.347,shape_ratio,2024.1.5,Win32,59.88023952,684250e4f00cb30b92d1fa88,,,,,,,,,,,603.1691,603.6698,,,603.9182,604.2921,right,,,,,,,,0.45,0.355,,,,,,,603.6698,603.9181,604.2922,"[0.17284488987469784,0.044166854904036934]",100.0,"[-0.07438886184162387,-0.09650562468705175]",100.0,"[0.06674607159338297,0.12030192364048616]",100.0,"[0.02220403239101121,0.0466091334084837]",100.0,"[0.14941623230658668,0.005825390864805312]",4.0,"[-0.04708786160172932,0.15222532149334483]",4.0,"[-0.13513150719387812,-0.027307038006638792]",4.0,"[0.1906208190657523,-0.011365604993534898]",4.0,"[-0.05258751218661583,-0.056725969734791944]",4.0,"[-0.12374720393784287,-0.12171409915907572]",100.0,"[0.11780617159958641,-0.16145558953771688]",4.0,"[-0.1753286126516092,0.03341068943939837]",100.0,"[-0.15639717420806235,0.08225018169328753]",4.0,"[0.17344856568513578,-0.06284615778446546]",100.0,"[0.013104021897719764,0.10749804228895646]",4.0,"[-0.014251112905023844,0.19830006550278306]",4.0,"[-0.023326413854695617,-0.16994076187302112]",4.0,"[0.03925309969665144,0.16460366200005333]",4.0,"[-0.0712431729328919,0.03654251662108672]",4.0,"[-0.17647219538639355,-0.0588763465300085]",100.0,"[-0.1870149463795217,-0.01912523847921192]",4.0,"[-0.08764541636535995,-0.03392469973555866]",4.0,"[-0.02561368623214829,-0.012900879377957829]",100.0,"[0.01318306986399421,0.0017928831828267137]",100.0,"[-0.04265285116985406,0.09696837824080334]",4.0,"[0.13111575845794804,0.07683073333569539]",4.0,"[-0.1142113012773174,0.0199347654975964]",100.0,"[0.12840374270234609,-0.03132013027038408]",100.0,"[0.06565136981304337,-0.0677355271514745]",4.0,"[0.08306046694674132,0.17069809336134859]",4.0,"[-0.007939832035990727,-0.09894943006523042]",100.0,"[0.02033227414470268,-0.14388911649988595]",100.0,"[0.02,0.02]",605.3826,0.0,43.0,43.0,136.0,1.0,,,,,,,
,,,,,,,67d08d8bfb1d7900834824f7,684429367996d2118ccc1014,2025-06-07_14h39.12.347,shape_ratio,2024.1.5,Win32,59.88023952,684250e4f00cb30b92d1fa88,,,,,,,,,,,605.3844,605.8717,,,606.1184,606.4384,left,,,,,,,,0.55,0.3014,,,,,,,605.8718,606.1182,606.4385,"[0.12592754624408975,-0.09183539319072384]",100.0,"[-0.1354985189100336,0.14668237239374665]",4.0,"[0.027433471945342618,0.12980439084290707]",100.0,"[0.11933639317997442,-0.15658665725585189]",4.0,"[-0.10228052455623499,-0.08253926499571584]",4.0,"[0.010106473410205924,0.048752624656779674]",100.0,"[0.06363446817719176,-0.15081067784780028]",4.0,"[-0.037930413788684336,0.07937313580357808]",100.0,"[0.12785005277685343,0.06090621413618103]",4.0,"[-0.0977449974642926,0.17190195958918658]",4.0,"[-0.15834245111835027,-0.08230815282435243]",100.0,"[0.05997326255454606,-0.05601245526062752]",100.0,"[0.16843739980136496,-0.04861859617108454]",100.0,"[0.003866035133187399,-0.017931538333064552]",4.0,"[-0.018385881911943396,-0.09114102249891316]",4.0,"[-0.1892699475057758,-0.038361328865104814]",100.0,"[-0.07000641010574211,0.009862745657329032]",100.0,"[0.11278904137996983,-0.01676472784641306]",100.0,"[-0.09684643553657593,0.09743493696096543]",4.0,"[0.1669997442409214,0.04917370909893766]",100.0,"[0.09812031531847204,0.11113104471125743]",100.0,"[0.007719440083270523,-0.192379929692577]",4.0,"[-0.051379686928400524,0.15465796893737288]",100.0,"[-0.17014144535139056,-0.0028559971639075294]",100.0,"[-0.04696931513937061,-0.14922317287395864]",4.0,"[-0.1321115668832929,0.054073470185363647]",100.0,"[0.020886597552060772,-0.11512324184417301]",100.0,"[-0.13683385200086415,-0.026198084518594015]",100.0,"[0.003083588438591165,0.16224668741641007]",4.0,"[0.05841741802123147,-0.09762871254776168]",4.0,"[0.06424361326620777,0.07762011197022145]",100.0,"[0.19496923032055602,-0.002247717596796227]",4.0,"[0.02,0.02]",607.5322,0.0,44.0,44.0,77.0,1.0,,,,,,,
,,,,,,,67d08d8bfb1d7900834824f7,684429367996d2118ccc1014,2025-06-07_14h39.12.347,shape_ratio,2024.1.5,Win32,59.88023952,684250e4f00cb30b92d1fa88,,,,,,,,,,,607.5344,608.0316,,,608.2726,608.7562,right,,,,,,,,0.5,0.4647,,,,,,,608.0316,608.2725,608.7563,"[-0.13042541549087708,0.04772367296640128]",100.0,"[0.09383644775017651,0.14581041182298024]",100.0,"[0.07503842665473771,-0.18458046512925788]",100.0,"[0.07863353275400686,0.05751286637500585]",100.0,"[0.16124966547818123,-0.07093002864312725]",4.0,"[-0.066939376310548,-0.011909566443438492]",4.0,"[0.06967561758519863,-0.05991951499618754]",4.0,"[-0.022362085463135912,0.11296208581307558]",100.0,"[0.04240103038164174,0.004551856965706338]",100.0,"[0.13902303403994895,-0.005363124194771598]",4.0,"[0.1690252988439098,0.09548544824789895]",100.0,"[-0.02328093347616375,-0.07105723508633499]",4.0,"[0.0575735089625013,-0.0985557368040134]",100.0,"[-0.142567265175165,0.12208417857837862]",4.0,"[0.015543530395180083,0.19214273521340572]",100.0,"[-0.040226564530657274,-0.11967971972659817]",4.0,"[0.09374546884547218,0.006248509237991916]",4.0,"[-0.01051704845984194,-0.016672367168882707]",4.0,"[-0.1838723509983818,0.06035070828163048]",100.0,"[-0.07171403836074837,-0.05624430600453786]",100.0,"[-0.10113376816576126,0.17204222513941453]",4.0,"[-0.049438184783677674,0.034477266240190194]",4.0,"[0.11940094150547302,-0.10568658520759751]",100.0,"[-0.05140576475851202,0.1797695721007723]",4.0,"[-0.06496833068415175,-0.153999486291046]",4.0,"[-0.13508349441340578,-0.07327130740119962]",100.0,"[0.05868859377013842,0.12658961626843043]",100.0,"[0.0035478501860842036,0.050955612863698256]",4.0,"[-0.16184299421934523,0.02064382740727488]",100.0,"[-0.08016751352285094,0.13759594990730165]",100.0,"[0.1765466600341189,-0.021890785549324197]",4.0,"[-0.1846140136158941,-0.057402172254976735]",4.0,"[0.02,0.02]",609.8508,0.0,45.0,45.0,114.0,1.0,,,,,,,
,,,,,,,67d08d8bfb1d7900834824f7,684429367996d2118ccc1014,2025-06-07_14h39.12.347,shape_ratio,2024.1.5,Win32,59.88023952,684250e4f00cb30b92d1fa88,,,,,,,,,,,609.8528,610.3531,,,610.5928,612.0842,,,,,,,,,0.9,,,,,,,,610.3534,610.5926,612.0845,"[-0.03193822115823598,-0.09609015118736863]",100.0,"[0.012055469338356686,-0.19832004755509092]",4.0,"[-0.0022969659982526817,0.07573091497516038]",100.0,"[-0.03937871376440944,0.10209589278237001]",100.0,"[0.0755668508315375,-0.159537391157462]",100.0,"[-0.11504110062132339,-0.14233522258271988]",4.0,"[-0.1617542799930459,0.058582459639562295]",100.0,"[-0.17795289901122077,-0.04891489923627307]",100.0,"[0.1256256937662554,0.15178249468414545]",100.0,"[0.06961439597453078,-0.08801949820487806]",100.0,"[0.15245152785413216,-0.12197480195752128]",100.0,"[-0.06868631554593475,-0.12828705211879157]",100.0,"[-0.10587431326998074,-0.09752095016860071]",100.0,"[-0.0363002211074159,0.02301624173222013]",100.0,"[0.12388715190384042,0.005493773726484597]",100.0,"[-0.09071142033803442,-0.048516566865062956]",100.0,"[0.09581198993072804,0.07117261142928731]",100.0,"[0.1797820232980603,0.03401578846697469]",100.0,"[-0.027902926910270773,-0.017198160617353575]",100.0,"[-0.04391113517829767,0.17740441287354908]",4.0,"[0.035527833696913605,-0.06374644258756824]",100.0,"[0.022265819254009937,-0.15256684496605125]",100.0,"[-0.14109797501043272,0.022940984601533782]",100.0,"[0.032317510605785825,0.1833559571960381]",100.0,"[0.03233458652016428,-0.020863947599440078]",100.0,"[0.07159896873980844,0.16622242699856837]",100.0,"[0.019794876899392407,0.12215901152347147]",100.0,"[-0.19185298380141705,0.015254560729005004]",100.0,"[-0.13449405269753226,-0.02661915378710164]",100.0,"[0.11662047498304365,-0.1466177307726582]",100.0,"[-0.07470790111884805,0.12461162947558217]",100.0,"[0.07728032375699179,0.12560425519824]",100.0,"[0.02,0.02]",613.1736,0.0,46.0,46.0,10.0,1.0,,,,,,,
,,,,,,,67d08d8bfb1d7900834824f7,684429367996d2118ccc1014,2025-06-07_14h39.12.347,shape_ratio,2024.1.5,Win32,59.88023952,684250e4f00cb30b92d1fa88,,,,,,,,,,,613.1771,613.685,,,613.922,614.0095,right,,,,,,,,0.6,0.0686,,,,,,,613.6851,613.922,614.0097,"[0.05114549350952826,0.16932197584453876]",4.0,"[-0.11736768872246857,0.10677430252173915]",4.0,"[0.057008528236886895,0.11439932784584625]",100.0,"[0.03860418857480157,-0.09891594709536156]",100.0,"[0.08809908241136928,-0.05986444116064317]",100.0,"[-0.05021621261318587,0.05217231788428737]",4.0,"[-0.10623759175881418,-0.13444121225232086]",4.0,"[0.1347631552239159,0.009005850647963734]",4.0,"[-0.0747831412677591,-0.08458593152559828]",100.0,"[0.09367156915150962,-0.15524613230115486]",100.0,"[0.006151877621181998,-0.1743009088474522]",100.0,"[-0.1270563709952553,0.03235352819244771]",4.0,"[-0.010005449219519383,0.17970469884747536]",4.0,"[0.05438963046731091,-0.1921365606919579]",100.0,"[0.11927748181529646,0.0801250892721168]",100.0,"[-0.0533672593863454,0.12710152285172863]",4.0,"[0.06830597328478531,0.054806760237619365]",100.0,"[-0.13968658203599063,-0.09990421729642028]",100.0,"[0.1694979511366506,0.07342877964899128]",100.0,"[0.1096496207564283,-0.10531611570475763]",100.0,"[0.06875379134101506,0.009252407882662256]",100.0,"[0.014982218285452297,0.051634281707709444]",4.0,"[0.0007141629337130922,0.09731128827037368]",100.0,"[0.012697814330224459,-0.05927792707301509]",100.0,"[-0.05420280469910662,0.17717804478774646]",4.0,"[-0.09640124357230517,0.14932140583581313]",100.0,"[-0.052702178304910106,-0.012602499190605455]",100.0,"[-0.13349256320314842,-0.04145087219172344]",100.0,"[-0.16417828291181447,-0.0033877668624685054]",100.0,"[-0.038464450935191755,-0.18939803985043563]",4.0,"[-0.15992434446990958,0.092295776013322]",4.0,"[0.12909723662597888,-0.05084994011355211]",4.0,"[0.02,0.02]",615.0868,0.0,47.0,47.0,43.0,1.0,,,,,,,
,,,,,,,67d08d8bfb1d7900834824f7,684429367996d2118ccc1014,2025-06-07_14h39.12.347,shape_ratio,2024.1.5,Win32,59.88023952,684250e4f00cb30b92d1fa88,,,,,,,,,,,615.0885,615.5881,,,615.835,615.8767,left,,,,,,,,0.9,0.0224,,,,,,,615.5882,615.835,615.8769,"[-0.07704978900784375,-0.06063181357026288]",100.0,"[-0.10744211233564681,0.11704927820576629]",100.0,"[-0.03578915656522224,0.02537891842101156]",100.0,"[0.1480917603195087,0.07669924776246635]",100.0,"[-0.011384944187109334,0.16793274412638515]",100.0,"[-0.03437951687329617,-0.025737550412459464]",4.0,"[0.08086777932444617,0.013837529469590859]",100.0,"[-0.13854626714378265,-0.09389338348712821]",100.0,"[0.019155183633123022,0.06488547905258876]",100.0,"[-0.009387317537987605,-0.12172644919871893]",100.0,"[0.1155721683040064,0.10821731065408624]",100.0,"[0.03016019598611532,-0.11524240440454322]",100.0,"[0.013929003323967253,0.12627679345338302]",100.0,"[0.1744549328288459,-0.07637219830925805]",100.0,"[-0.16326193685444063,-0.05951498936118738]",100.0,"[-0.13799530953335196,-0.007833088885602017]",100.0,"[-0.15775125005836854,0.0562438845054951]",100.0,"[0.09164440815248244,-0.0378201052129614]",100.0,"[-0.09870908734709098,0.021680667748312527]",100.0,"[0.1111189197421639,-0.07971400176410637]",100.0,"[-0.05449548679908727,0.16643196606658256]",100.0,"[0.06048978034708644,0.13033195762963118]",100.0,"[-0.17894000744030256,-0.005431073507628683]",100.0,"[0.014341144758350983,-0.17116255352979404]",4.0,"[-0.1389393924146096,-0.1410887089966047]",100.0,"[-0.0963581454426158,-0.16467034025559363]",100.0,"[0.05864094525087044,-0.15736179202986722]",100.0,"[-0.018657995310872394,0.09976869159149361]",100.0,"[0.024766338435619668,-0.04401370645113428]",4.0,"[0.07886566136744605,0.18109549544518566]",100.0,"[0.03116640820135561,0.19193365210010985]",100.0,"[0.078054967074846,-0.11723928772404575]",100.0,"[0.02,0.02]",616.9699,0.0,48.0,48.0,7.0,1.0,,,,,,,
,,,,,,,67d08d8bfb1d7900834824f7,684429367996d2118ccc1014,2025-06-07_14h39.12.347,shape_ratio,2024.1.5,Win32,59.88023952,684250e4f00cb30b92d1fa88,,,,,,,,,,,616.9713,617.4813,,,617.7235,617.7566,left,,,,,,,,0.9,0.0048,,,,,,,617.4813,617.7233,617.7567,"[0.11830544648708081,0.07840488978373095]",100.0,"[-0.12319973170413784,-0.14159470431671595]",100.0,"[-0.15461803639997518,0.0987430350822574]",100.0,"[0.13912701837832753,-0.040512762521876966]",100.0,"[0.169566244943805,0.03377771263933414]",100.0,"[0.05615311991813325,-0.16656194691873238]",100.0,"[-0.05720042820208582,-0.13051224736226835]",100.0,"[0.007126949285184701,-0.0905748509752449]",100.0,"[0.015897336638154996,-0.19754012096257925]",4.0,"[0.0624776266356046,0.0976368978463705]",100.0,"[0.17826456170526658,-0.07842580262455237]",100.0,"[0.021865202552068783,0.08680921231955104]",100.0,"[0.10374260571414208,0.037491195400711164]",100.0,"[-0.010059551816080835,0.12687035500548308]",100.0,"[-0.08182228789358817,0.1338692520223471]",4.0,"[0.0886138363203134,-0.13873527260489027]",100.0,"[0.034990244558153506,-0.05663147004785865]",100.0,"[-0.05737228481804088,0.09831983373671854]",100.0,"[0.13468264049444528,0.12917241075285726]",100.0,"[-0.09786019136528916,-0.08282639006760799]",100.0,"[0.036909880695032725,0.03910725254763465]",100.0,"[-0.10478570908370577,0.02463720436303858]",100.0,"[-0.008421367583851699,0.03630753231748325]",100.0,"[-0.0502205426942809,0.03130714435953954]",100.0,"[-0.004010473456264224,0.1872528301708028]",100.0,"[-0.1397736282232124,-0.08376015680328863]",100.0,"[0.12753630470800773,-0.11538418030165301]",100.0,"[-0.13581098418019796,0.051789097566950465]",4.0,"[-0.19777052675827544,0.02652606979306169]",100.0,"[-0.04543852815036873,-0.04299740908934481]",100.0,"[-0.11956212204726982,-0.039032435246772273]",100.0,"[0.058714550843372675,-0.000316015496267578]",100.0,"[0.02,0.02]",618.8678,0.0,49.0,49.0,4.0,1.0,,,,,,,
