right,left,explain.started,explain.stopped,key_resp_3.keys,key_resp_3.rt,key_resp_3.duration,participant,session,date,expName,psychopyVersion,OS,frameRate,study_id,explain_2.started,explain_2.stopped,key_resp_4.keys,key_resp_4.rt,key_resp_4.duration,explain_3.started,explain_3.stopped,key_resp_5.keys,key_resp_5.rt,key_resp_5.duration,fixation.started,fixation.stopped,practice.started,practice.stopped,response.started,response.stopped,key_resp.keys,feedback.started,feedback.stopped,trials_2.thisRepN,trials_2.thisTrialN,trials_2.thisN,trials_2.thisIndex,trials_2.ran,dot_ratio,key_resp.rt,key_resp.duration,explain_4.started,explain_4.stopped,key_resp_6.keys,key_resp_6.rt,key_resp_6.duration,dotDisplay.started,dotDisplay.stopped,ITI.started,polygon_1.pos,polygon_1.edges,polygon_2.pos,polygon_2.edges,polygon_3.pos,polygon_3.edges,polygon_4.pos,polygon_4.edges,polygon_5.pos,polygon_5.edges,polygon_6.pos,polygon_6.edges,polygon_7.pos,polygon_7.edges,polygon_8.pos,polygon_8.edges,polygon_9.pos,polygon_9.edges,polygon_10.pos,polygon_10.edges,polygon_11.pos,polygon_11.edges,polygon_12.pos,polygon_12.edges,polygon_13.pos,polygon_13.edges,polygon_14.pos,polygon_14.edges,polygon_15.pos,polygon_15.edges,polygon_16.pos,polygon_16.edges,polygon_17.pos,polygon_17.edges,polygon_18.pos,polygon_18.edges,polygon_19.pos,polygon_19.edges,polygon_20.pos,polygon_20.edges,polygon_21.pos,polygon_21.edges,polygon_22.pos,polygon_22.edges,polygon_23.pos,polygon_23.edges,polygon_24.pos,polygon_24.edges,polygon_25.pos,polygon_25.edges,polygon_26.pos,polygon_26.edges,polygon_27.pos,polygon_27.edges,polygon_28.pos,polygon_28.edges,polygon_29.pos,polygon_29.edges,polygon_30.pos,polygon_30.edges,polygon_31.pos,polygon_31.edges,polygon_32.pos,polygon_32.edges,dot_size,ITI.stopped,trials.thisRepN,trials.thisTrialN,trials.thisN,trials.thisIndex,trials.ran,break_2.started,break_2.stopped,trials_3.thisRepN,trials_3.thisTrialN,trials_3.thisN,trials_3.thisIndex,trials_3.ran
subject chose dot,subject chose diamond,0.0003,70.4557,space,55.4424,,67d13bd326a4f1c00896e233,6842bc061dfbaf502fc2d052,2025-06-06_11h59.59.048,shape_ratio,2024.1.5,Win32,59.88023952,6842b561977af9ba9b0f87ca,,,,,,,,,,,,,,,,,,,,,,,,,,,,,,,,,,,,,,,,,,,,,,,,,,,,,,,,,,,,,,,,,,,,,,,,,,,,,,,,,,,,,,,,,,,,,,,,,,,,,,,,,,,,,,,,,
,,,,,,,67d13bd326a4f1c00896e233,6842bc061dfbaf502fc2d052,2025-06-06_11h59.59.048,shape_ratio,2024.1.5,Win32,59.88023952,6842b561977af9ba9b0f87ca,70.456,115.7935,space,15.3332,,,,,,,,,,,,,,,,,,,,,,,,,,,,,,,,,,,,,,,,,,,,,,,,,,,,,,,,,,,,,,,,,,,,,,,,,,,,,,,,,,,,,,,,,,,,,,,,,,,,,,,,,,,,,
,,,,,,,67d13bd326a4f1c00896e233,6842bc061dfbaf502fc2d052,2025-06-06_11h59.59.048,shape_ratio,2024.1.5,Win32,59.88023952,6842b561977af9ba9b0f87ca,,,,,,115.7938,120.4248,space,1.6211,,,,,,,,,,,,,,,,,,,,,,,,,,,,,,,,,,,,,,,,,,,,,,,,,,,,,,,,,,,,,,,,,,,,,,,,,,,,,,,,,,,,,,,,,,,,,,,,,,,,,,,,
,,,,,,,67d13bd326a4f1c00896e233,6842bc061dfbaf502fc2d052,2025-06-06_11h59.59.048,shape_ratio,2024.1.5,Win32,59.88023952,6842b561977af9ba9b0f87ca,,,,,,,,,,,120.4467,120.9364,120.9373,121.1867,121.1869,122.6856,,122.6858,123.7852,0.0,0.0,0.0,0.0,1.0,0.2,,,,,,,,,,,,,,,,,,,,,,,,,,,,,,,,,,,,,,,,,,,,,,,,,,,,,,,,,,,,,,,,,,,,,,,,,,,,,,,,,,,,,,,,
,,,,,,,67d13bd326a4f1c00896e233,6842bc061dfbaf502fc2d052,2025-06-06_11h59.59.048,shape_ratio,2024.1.5,Win32,59.88023952,6842b561977af9ba9b0f87ca,,,,,,,,,,,123.7865,124.2857,124.2859,124.5356,124.5356,125.0182,left,125.0184,126.1179,0.0,1.0,1.0,1.0,1.0,0.8,0.4711,,,,,,,,,,,,,,,,,,,,,,,,,,,,,,,,,,,,,,,,,,,,,,,,,,,,,,,,,,,,,,,,,,,,,,,,,,,,,,,,,,,,,,,
,,,,,,,67d13bd326a4f1c00896e233,6842bc061dfbaf502fc2d052,2025-06-06_11h59.59.048,shape_ratio,2024.1.5,Win32,59.88023952,6842b561977af9ba9b0f87ca,,,,,,,,,,,,,,,,,,,,,,,,,,,,126.1185,130.0342,space,0.8961,,,,,,,,,,,,,,,,,,,,,,,,,,,,,,,,,,,,,,,,,,,,,,,,,,,,,,,,,,,,,,,,,,,,,,,,,,,,,,,,,,
,,,,,,,67d13bd326a4f1c00896e233,6842bc061dfbaf502fc2d052,2025-06-06_11h59.59.048,shape_ratio,2024.1.5,Win32,59.88023952,6842b561977af9ba9b0f87ca,,,,,,,,,,,130.0573,130.5516,,,130.7901,131.7899,left,,,,,,,,0.4,0.983,,,,,,,130.553,130.79,131.7903,"[0.021381074463792036,0.17286506308252744]",4.0,"[-0.16363655336924463,-0.08706011333737063]",4.0,"[0.027499044064612347,-0.1208068613382285]",4.0,"[0.1416120715105421,0.11480229583621183]",4.0,"[0.16773984763569044,-0.017804790265017297]",100.0,"[-0.05423732675593005,-0.02865330970405126]",100.0,"[0.14459987501526655,-0.07180032865539193]",4.0,"[-0.030678858120381874,-0.16089245118921558]",4.0,"[-0.16652422459027988,0.018760877879955278]",4.0,"[-0.06715124372286484,-0.10899177049124276]",4.0,"[0.09066026126315278,0.03102370049269587]",4.0,"[-0.03364654702876935,0.18012102326287072]",4.0,"[0.012100621293327358,0.027323298894441534]",4.0,"[0.08831595505239108,-0.017614419976279154]",4.0,"[-0.04367531709420147,0.07014055051170391]",100.0,"[0.0091086135098276,-0.015686993876631094]",100.0,"[-0.00021107738224280124,0.08913401195762838]",4.0,"[0.08462250720870683,-0.07379481007726402]",100.0,"[0.11119499943723472,0.08304954642949242]",4.0,"[-0.005833434159590321,-0.07007888959525012]",4.0,"[-0.10759650660719582,-0.07386781771024312]",100.0,"[0.08647928867295002,-0.11984381428583049]",100.0,"[0.09982669400558432,-0.17267669008686845]",4.0,"[0.05924523683667016,0.1475525001026071]",100.0,"[-0.14420162342166631,0.07229282692167695]",100.0,"[0.09543303814567855,0.17272115319307227]",4.0,"[0.1572072852789627,0.06940634170883611]",100.0,"[-0.12046110473521242,-0.033242575729044946]",100.0,"[-0.0738798167508522,0.1307261455757147]",4.0,"[-0.11049012674758944,-0.1559558500225453]",4.0,"[0.08989920312031169,0.12069223498100543]",100.0,"[-0.16364736355733406,-0.022186399045437913]",100.0,"[0.02,0.02]",132.8897,0.0,0.0,0.0,168.0,1.0,,,,,,,
,,,,,,,67d13bd326a4f1c00896e233,6842bc061dfbaf502fc2d052,2025-06-06_11h59.59.048,shape_ratio,2024.1.5,Win32,59.88023952,6842b561977af9ba9b0f87ca,,,,,,,,,,,132.8905,133.3841,,,133.6342,134.0,right,,,,,,,,0.5,0.3568,,,,,,,133.3844,133.6342,134.0002,"[0.10810035135787258,0.07970413624572642]",100.0,"[0.08940865679709156,-0.17600734946076999]",100.0,"[-0.04008984180522685,-0.09085518838685944]",4.0,"[0.018136493389467757,0.03542911989570566]",4.0,"[-0.05015105855812917,0.054647259068870246]",4.0,"[-0.085936959459075,0.16721308297776402]",4.0,"[-0.05554020703296747,0.0047093687792860465]",100.0,"[-0.09343058146899187,0.0900576139275017]",4.0,"[-0.11184551093971996,0.020867404699236636]",4.0,"[-0.15249772656120897,-0.027346016518219503]",4.0,"[0.15805369460621646,-0.11718747380543569]",4.0,"[0.1552624954504766,0.03347603557056238]",100.0,"[0.05630167807339002,0.08187994062984379]",4.0,"[-0.16757548117185997,0.052709241736787975]",100.0,"[-0.002099827189158791,-0.197910260892868]",4.0,"[-0.11139917865659517,-0.1263389793860415]",4.0,"[-0.14499126458396516,0.1165751408074391]",100.0,"[0.0032676476551153724,-0.027466981306796583]",100.0,"[-0.0007643442557773639,-0.07412970687991141]",4.0,"[-0.12822923309546047,-0.06545891061588233]",4.0,"[0.07404224461865974,0.13524395640091666]",4.0,"[-0.1117418931638166,-0.021759635774289975]",4.0,"[0.08651114574221906,-0.028068611299487362]",100.0,"[0.011282079409234829,0.09003039540338394]",100.0,"[-0.168491647622443,-0.07013941804397943]",100.0,"[0.14858237195788096,-0.028073206461355762]",4.0,"[0.04089481876441875,-0.1756531032048293]",100.0,"[-0.06982596948717544,-0.15506548953158653]",100.0,"[-0.008341053246289191,0.15000774279039658]",100.0,"[0.12118471833662835,0.12325215724557603]",100.0,"[0.030890309536946495,0.17348488860816272]",100.0,"[0.08692535660268562,-0.06812749955533165]",100.0,"[0.02,0.02]",135.0997,0.0,1.0,1.0,93.0,1.0,,,,,,,
,,,,,,,67d13bd326a4f1c00896e233,6842bc061dfbaf502fc2d052,2025-06-06_11h59.59.048,shape_ratio,2024.1.5,Win32,59.88023952,6842b561977af9ba9b0f87ca,,,,,,,,,,,135.1005,135.5993,,,135.8498,136.0828,left,,,,,,,,0.6,0.2197,,,,,,,135.5994,135.8497,136.0829,"[-0.18995683487024972,0.055508832126323675]",100.0,"[-0.03971700787926044,-0.10968908837813723]",100.0,"[0.034252859836320794,0.17813611023407078]",4.0,"[-0.07830023755790462,0.002322473148342288]",100.0,"[0.15937387160519206,0.07262037627724631]",4.0,"[-0.03212945904278131,0.032089656125127305]",100.0,"[0.004434957603145678,-0.042157058730539675]",4.0,"[-0.04324123474822426,-0.05775541763663299]",100.0,"[-0.03241129095318193,0.16769521667188628]",4.0,"[-0.011116184431117799,0.07322351502463408]",100.0,"[0.09057721748769237,0.05238540649280049]",100.0,"[-0.09227712688943578,-0.05739985982572567]",100.0,"[0.056513490893451465,-0.14977502455624914]",4.0,"[0.050746259456764364,0.04747422877050013]",4.0,"[-0.12276712898833143,0.14241467447337106]",100.0,"[-0.09012842741740203,0.11174720841468726]",4.0,"[0.14458539898232192,-0.10715645057942133]",100.0,"[-0.18860627612326938,-0.06641245342266693]",100.0,"[0.17035210420530458,0.016690159609000846]",4.0,"[0.05687720183333021,0.1394189350653641]",100.0,"[-0.18622321081355708,0.0077802686830243896]",4.0,"[-0.12933041323041136,0.08326348399984054]",4.0,"[-0.12745787989957752,0.00634454671747081]",4.0,"[0.02703573428623995,-0.08185364603177303]",100.0,"[0.06936007659446253,-0.09231730450827477]",4.0,"[0.026981551459379815,0.10439423416358949]",100.0,"[-0.07911056557841849,-0.11958370569736046]",100.0,"[0.17973505428425013,-0.03375518079625649]",100.0,"[-0.15885034490669664,0.11778044589820835]",100.0,"[0.05776159727864222,-0.03749690172505412]",100.0,"[0.00728157011812199,-0.12328958238087619]",4.0,"[0.11839061002324318,0.09177247081078035]",100.0,"[0.02,0.02]",137.1822,0.0,2.0,2.0,31.0,1.0,,,,,,,
,,,,,,,67d13bd326a4f1c00896e233,6842bc061dfbaf502fc2d052,2025-06-06_11h59.59.048,shape_ratio,2024.1.5,Win32,59.88023952,6842b561977af9ba9b0f87ca,,,,,,,,,,,137.1829,137.6822,,,137.9325,138.6662,right,,,,,,,,0.6,0.7174,,,,,,,137.6822,137.9325,138.6663,"[-0.08864811502993854,-0.1046536518093152]",100.0,"[0.19230795492501418,-0.01181850162329557]",4.0,"[0.15242685525894428,-0.0588454494753638]",100.0,"[0.05029532358641522,-0.13161962270554198]",100.0,"[0.013971188705491137,0.1138140069837347]",100.0,"[-0.15819460943607858,0.06497689295190912]",100.0,"[-0.05303113887757061,-0.04897602133629619]",4.0,"[0.17907769986896452,0.039991567673652154]",100.0,"[-0.19535984872942483,-0.02958894707817285]",100.0,"[-0.028460584910834558,0.13181861499776212]",100.0,"[-0.06412018346295227,-0.00220313643957016]",4.0,"[-0.10849596714736286,-0.024737468233571973]",4.0,"[0.0023362261295434886,0.0352167001891844]",100.0,"[-0.11457233156996244,0.12387203640054616]",100.0,"[0.121393656439186,0.13787208874348447]",100.0,"[0.04937649974813496,0.030645170723174568]",4.0,"[0.07227447846878951,-0.005798744966703321]",4.0,"[-0.09115301194700741,0.07335014143311676]",100.0,"[0.08533213381698916,-0.060834353621457844]",4.0,"[-0.012507440237878736,-0.14657938234782558]",100.0,"[0.03875699754394039,0.1960341465114493]",100.0,"[-0.12859217281136073,0.033888850552196995]",4.0,"[-0.022086540379284345,0.18534046226921136]",100.0,"[0.11506202966117994,-0.017236466815616268]",100.0,"[-0.18636941145820465,0.032287049850436275]",4.0,"[0.10884055468737332,0.07841298766661763]",4.0,"[-0.1790905686243856,-0.0875267418179157]",100.0,"[-0.023041628092503232,-0.013097199178984109]",100.0,"[-0.07113053266997284,0.15228992071697828]",100.0,"[0.07541350900558587,0.13481340298423025]",4.0,"[-0.08251264486387358,0.03341707516757406]",4.0,"[0.01729303097102831,-0.19213103501841391]",4.0,"[0.02,0.02]",139.7655,0.0,3.0,3.0,35.0,1.0,,,,,,,
,,,,,,,67d13bd326a4f1c00896e233,6842bc061dfbaf502fc2d052,2025-06-06_11h59.59.048,shape_ratio,2024.1.5,Win32,59.88023952,6842b561977af9ba9b0f87ca,,,,,,,,,,,139.7667,140.2655,,,140.5221,141.2161,left,,,,,,,,0.1,0.675,,,,,,,140.2656,140.5221,141.2165,"[-0.10338259325978733,-0.09590516374275082]",4.0,"[0.1717042347985041,0.045924218152213446]",4.0,"[-0.05401595053371452,0.1836523515399173]",4.0,"[0.08356792199513233,-0.09701823378530056]",4.0,"[0.07744107831993159,-0.028302650990590972]",4.0,"[-0.17305466450177576,0.014632293451591677]",4.0,"[0.12405780310741114,-0.07077607082855712]",4.0,"[-0.10595108408259449,-0.04073544797942419]",4.0,"[-0.044730043249724835,0.0598082425244016]",4.0,"[-0.0569756521078919,-0.026789039548505745]",4.0,"[0.049471226689590336,0.061947098432756975]",4.0,"[-0.15538627894867713,-0.08122721624887991]",4.0,"[-0.014452578588429302,0.11028442300543848]",4.0,"[-0.11300705951135215,0.09802132790119368]",4.0,"[0.062174978331915466,-0.1880345316811566]",100.0,"[0.003120287247120864,-0.025235910125752967]",4.0,"[0.05777821797194669,0.1479054347479941]",100.0,"[0.1401888632583852,-0.10935646683861706]",4.0,"[-0.10008060534964908,0.0428111971073165]",4.0,"[-0.05436276106402782,-0.07032942141480233]",4.0,"[0.07789386545152067,-0.14948045783213862]",4.0,"[0.11971607077709202,0.11085895323459745]",4.0,"[-0.012996303404371766,-0.07812244975472041]",4.0,"[-0.031413425903997136,-0.19561899647817074]",4.0,"[0.15194919569864357,-0.023718837715015165]",100.0,"[-0.14916958323333626,0.07519388804942218]",4.0,"[0.008215596642800962,-0.15194490506720046]",4.0,"[-0.003305199971083427,0.04772017139820159]",4.0,"[0.03866015063904987,-0.061638259750114034]",4.0,"[0.1203184872344948,0.012206358782344112]",4.0,"[-0.07226761068064134,-0.1266171303252355]",4.0,"[-0.1796123875602794,-0.029901137709740608]",4.0,"[0.02,0.02]",142.3156,0.0,4.0,4.0,192.0,1.0,,,,,,,
,,,,,,,67d13bd326a4f1c00896e233,6842bc061dfbaf502fc2d052,2025-06-06_11h59.59.048,shape_ratio,2024.1.5,Win32,59.88023952,6842b561977af9ba9b0f87ca,,,,,,,,,,,142.3171,142.8153,,,143.0652,143.5981,right,,,,,,,,0.9,0.5212,,,,,,,142.8155,143.0651,143.5981,"[-0.1189309886001863,0.07781027328912625]",100.0,"[0.08240872958255059,-0.056887220155280145]",4.0,"[-0.1242386691379902,0.14071946059616863]",100.0,"[0.006349394211673289,0.1692873757890247]",100.0,"[-0.11402788105255963,-0.08956175022521726]",100.0,"[0.12682820412340243,-0.035231177676752184]",100.0,"[0.17499350042096606,0.05612037646856607]",100.0,"[-0.1370594579910482,0.010503557414271128]",100.0,"[-0.0713824454301215,-0.10530469409137272]",100.0,"[0.10695084703752465,-0.11134004127740271]",100.0,"[0.02864675098934267,0.050453343658832465]",100.0,"[-0.04486230349572224,-0.009378527619234162]",100.0,"[0.07868922412487697,0.11408675077421221]",100.0,"[-0.018707186365282843,-0.10451811293162247]",100.0,"[-0.09869034641803014,-0.02796195661748055]",100.0,"[0.12564790152582708,0.13980561696368352]",100.0,"[0.07390612006691066,0.048323390463088145]",100.0,"[0.14576898427573234,0.08675918037505587]",100.0,"[-0.05579300910878213,0.11705954807672812]",4.0,"[0.15923979552446169,-0.074134517527707]",100.0,"[-0.1935846208283872,0.04952528140344253]",100.0,"[0.03282957201086499,-0.04900231346242381]",100.0,"[0.15656564456473102,-0.005517904678760988]",100.0,"[-0.13416442261644476,-0.1386335390828964]",100.0,"[0.019835596861394737,-0.1420411611004405]",100.0,"[0.04004897819622012,0.09250362721316101]",100.0,"[-0.141030783420291,-0.035104863788541316]",100.0,"[-0.18691944211207676,0.006149267052751281]",100.0,"[0.12395114853708669,0.05227245416474337]",4.0,"[-0.062020542850170064,0.16390355109863297]",100.0,"[0.0021817864364371254,0.12376134233280581]",100.0,"[0.04055787500486039,0.0022913574429452633]",100.0,"[0.02,0.02]",144.6978,0.0,5.0,5.0,16.0,1.0,,,,,,,
,,,,,,,67d13bd326a4f1c00896e233,6842bc061dfbaf502fc2d052,2025-06-06_11h59.59.048,shape_ratio,2024.1.5,Win32,59.88023952,6842b561977af9ba9b0f87ca,,,,,,,,,,,144.6985,145.1977,,,145.4483,145.8477,right,,,,,,,,0.9,0.3821,,,,,,,145.1978,145.4482,145.8479,"[-0.10681673465956318,0.1483576105808189]",100.0,"[0.09804848026175933,-0.11316440212935937]",4.0,"[0.05999372394139407,0.09154037857821375]",100.0,"[-0.00028473157155230216,-0.12692273549524366]",100.0,"[0.1460932099351178,-0.07043106426485736]",100.0,"[-0.1337295921955007,0.09480577129596712]",100.0,"[-0.1092695353606046,-0.10685265611860106]",100.0,"[-0.19898800853156332,-0.017324860307433035]",100.0,"[-0.036281263083197644,0.12737075667964232]",100.0,"[0.1596229155898834,0.10975955520018744]",100.0,"[-0.1329257581872899,-0.06186695448781644]",100.0,"[-0.041651141365568946,-0.10363444896312599]",100.0,"[0.026073635731121637,-0.06512640524517245]",100.0,"[0.06960232593523047,-0.03584051912451131]",100.0,"[0.12762200403068305,-0.014076999649539302]",4.0,"[-0.08127637968641852,0.018331114816241566]",100.0,"[-0.15287816422421235,0.0025108559256051067]",100.0,"[0.10024042928805389,-0.1711111323305714]",100.0,"[0.05003697825890701,0.15140352816629485]",100.0,"[0.007224419522691281,0.10429274140597962]",100.0,"[0.03757003107673568,-0.1671135318445809]",100.0,"[-0.07820382914228914,0.11620902299857211]",100.0,"[0.036006304018754,0.03379315969995001]",100.0,"[-0.0019480261913537085,0.17057536185467917]",100.0,"[0.11944319036294018,0.06298624735906422]",4.0,"[-0.0008023750726637438,-0.02051419797349557]",100.0,"[0.18473154237048983,-0.015313460929253368]",100.0,"[-0.08430675330390922,-0.15984088194235693]",100.0,"[-0.0812263564177959,-0.07315195696359296]",100.0,"[-0.026724484224645056,-0.19434966492617153]",100.0,"[-0.040112531087152736,0.013443014243243406]",100.0,"[-0.18272281778954852,-0.0749751660463132]",100.0,"[0.02,0.02]",146.9477,0.0,6.0,6.0,8.0,1.0,,,,,,,
,,,,,,,67d13bd326a4f1c00896e233,6842bc061dfbaf502fc2d052,2025-06-06_11h59.59.048,shape_ratio,2024.1.5,Win32,59.88023952,6842b561977af9ba9b0f87ca,,,,,,,,,,,146.949,147.4473,,,147.6976,148.1139,left,,,,,,,,0.55,0.4029,,,,,,,147.4473,147.6975,148.114,"[-0.11667395393871237,0.025202825359221765]",4.0,"[0.19198430631785673,0.02665939585292547]",100.0,"[-0.19341947523667216,-0.046439376963432095]",100.0,"[-0.031937308033892206,0.06961561189586817]",100.0,"[0.11202585865922401,0.11473777114589287]",4.0,"[-0.12435942208017975,0.09427042640592735]",100.0,"[0.05728973746297576,0.17589369433959592]",4.0,"[0.06005507015699248,0.007286196060243652]",100.0,"[-0.0614181977323854,-0.15784419294200736]",4.0,"[-0.12439597219179005,0.14134816759840588]",4.0,"[0.08144854123351172,-0.1332926401463143]",4.0,"[-0.02953793479301106,-0.07469560939538657]",100.0,"[-0.10803806540261135,-0.11950220728661066]",100.0,"[-0.16896633356939655,0.01624473982697323]",100.0,"[0.03894930952734433,-0.06910260545491566]",100.0,"[0.12378723363967004,0.03373800991288958]",4.0,"[-0.1248847995836494,-0.04891428441222582]",100.0,"[-0.004389348379721459,0.12562798903818587]",4.0,"[0.014076442892939387,-0.002874809468635384]",4.0,"[0.14363344495286776,-0.0440468378437089]",4.0,"[-0.023594341855469766,-0.13066203889365008]",100.0,"[-0.04911174537461049,0.11028808193587539]",4.0,"[0.029841795359285137,0.08126563539625445]",100.0,"[-0.07207348339796027,0.022188756550322996]",4.0,"[0.03642239365553489,-0.19029233701362716]",100.0,"[-0.0018622677499355474,0.181802114817782]",100.0,"[0.07065488050492684,0.07692954512075698]",4.0,"[0.15881273332556942,-0.08307806947529466]",100.0,"[-0.10265863704776552,-0.1670625759189625]",100.0,"[0.10787923703885659,0.15716791678566078]",4.0,"[0.037110692427907904,0.12898466984339718]",100.0,"[0.15344302899174592,0.11592818128732954]",100.0,"[0.02,0.02]",149.2136,0.0,7.0,7.0,88.0,1.0,,,,,,,
,,,,,,,67d13bd326a4f1c00896e233,6842bc061dfbaf502fc2d052,2025-06-06_11h59.59.048,shape_ratio,2024.1.5,Win32,59.88023952,6842b561977af9ba9b0f87ca,,,,,,,,,,,149.2146,149.7136,,,149.9531,150.4811,right,,,,,,,,0.6,0.5035,,,,,,,149.7136,149.9531,150.4818,"[0.155294192243745,-0.11268400943100752]",100.0,"[-0.14684180699026975,0.0287453882904639]",4.0,"[0.03728617641047762,-0.1953663574047558]",4.0,"[-0.02569889423460609,-0.15552052577231681]",4.0,"[0.1762961580535973,0.01818914077125983]",4.0,"[-0.11912933984253521,0.14232817003113]",100.0,"[0.038413845540850776,0.15853788369768482]",4.0,"[-0.06783753858822224,0.0741363661685206]",100.0,"[-0.11866769663993292,-0.1343943687028838]",4.0,"[0.07680793644998594,0.14464651508905602]",100.0,"[-0.04751999955757773,-0.029367912865313237]",100.0,"[0.12771737361306681,-0.04470175451072557]",100.0,"[0.03753811099925425,0.05110179414378911]",100.0,"[-0.052388729432066274,-0.12073913609081363]",100.0,"[-0.10666235457265343,-0.02582997634278271]",4.0,"[-0.05627591371019409,0.1533014428748587]",100.0,"[-0.10475686924515124,0.04991508649726587]",100.0,"[-0.09998661593679241,0.10481742209067517]",4.0,"[0.10302694803905545,-0.1123768323509062]",100.0,"[-0.009026137669306405,-0.0011894988695638118]",4.0,"[0.0196249784609019,0.11534236872151007]",4.0,"[-0.1900333435354594,0.011714356840255737]",4.0,"[0.1897252255128505,-0.05918065892850743]",100.0,"[-0.1132465568098176,-0.07257038324355151]",100.0,"[0.02394855334895627,-0.04206059736143584]",100.0,"[-0.028197285231069704,-0.06924217783020335]",4.0,"[0.011937501188644492,-0.12300296170121973]",100.0,"[-0.027812467215488076,0.0380202430780867]",100.0,"[-0.16372641052444123,0.08706664304563143]",100.0,"[0.07232704308633077,-0.16206344243010962]",100.0,"[0.09827803593385807,0.026714833551487405]",100.0,"[0.15568571591681088,0.08653821791255274]",4.0,"[0.02,0.02]",151.5832,0.0,8.0,8.0,38.0,1.0,,,,,,,
,,,,,,,67d13bd326a4f1c00896e233,6842bc061dfbaf502fc2d052,2025-06-06_11h59.59.048,shape_ratio,2024.1.5,Win32,59.88023952,6842b561977af9ba9b0f87ca,,,,,,,,,,,151.5837,152.081,,,152.3314,152.881,left,,,,,,,,0.1,0.5188,,,,,,,152.0812,152.3313,152.8816,"[0.132105335121262,0.09676448350476448]",4.0,"[0.057545995605901686,-0.02520327023893154]",4.0,"[-0.025369971489954235,0.0631299046508328]",4.0,"[0.0822035119633887,0.11841718719865596]",4.0,"[-0.12320763296437433,-0.03847753605053483]",4.0,"[-0.028219675787708003,-0.0995341635904567]",4.0,"[0.028945603310691046,-0.05507533113872112]",4.0,"[0.013360192234855598,0.1108889504983988]",4.0,"[-0.18706210780262628,0.06449689220761608]",4.0,"[0.16466172193895873,0.010055471957277039]",4.0,"[-0.016708195538843774,-0.1378921598329863]",4.0,"[-0.06408394397691995,0.01574410889193066]",4.0,"[-0.0014240983502954707,0.17209474644355255]",4.0,"[-0.11013742080497427,0.05426601952454463]",4.0,"[-0.04023347862044282,0.1485955826431274]",100.0,"[-0.02072212544671826,-0.0037870991664694185]",100.0,"[-0.16346894217477603,-0.11360158976235996]",4.0,"[-0.15575406879475615,0.1046059344109826]",100.0,"[-0.10146165035879835,-0.1124115486029676]",4.0,"[-0.07758165729349535,0.08515595327525563]",4.0,"[0.027949443583697896,-0.14167500528208996]",4.0,"[-0.001546891384828929,-0.1995845044810276]",4.0,"[0.11979263304282653,-0.12582409477592355]",4.0,"[-0.18654489981059424,-0.05063638846866959]",4.0,"[-0.03681021150429579,0.19123694432368948]",4.0,"[-0.14381426128087063,0.024638602222443646]",4.0,"[-0.07779034579743538,0.16472503013755413]",4.0,"[0.07541399734930344,0.06201350831917358]",4.0,"[-0.10647009671655293,-0.1608192990635877]",4.0,"[0.1372972353682686,0.04202633954410613]",4.0,"[0.06853864692778906,0.16625233164524628]",4.0,"[0.058767443855599635,-0.17212027081711107]",4.0,"[0.02,0.02]",153.9795,0.0,9.0,9.0,208.0,1.0,,,,,,,
,,,,,,,67d13bd326a4f1c00896e233,6842bc061dfbaf502fc2d052,2025-06-06_11h59.59.048,shape_ratio,2024.1.5,Win32,59.88023952,6842b561977af9ba9b0f87ca,,,,,,,,,,,153.9816,154.4796,,,154.718,155.4363,right,,,,,,,,0.55,0.7006,,,,,,,154.4796,154.718,155.4363,"[-0.15973274428303078,-0.0270946031754795]",100.0,"[0.17311941199623537,0.07097247617338727]",4.0,"[0.16908627953502858,-0.05891379602220922]",100.0,"[0.08842374360294991,0.01717258992860432]",4.0,"[0.1409490258198534,0.14177530016495585]",4.0,"[-0.10013101124688399,0.14262991196651736]",100.0,"[0.12135345155283606,-0.06833312172579006]",100.0,"[-0.09188289409868841,-0.173373207161105]",4.0,"[-0.14455824549061547,0.1029590759925088]",4.0,"[0.13039103483556555,0.08849579255538217]",100.0,"[-0.002755567210889907,-0.15210432799892953]",100.0,"[0.033881572613411896,-0.006954103331677193]",4.0,"[0.0665440973076363,0.08405580707247423]",100.0,"[-0.06204357777572222,0.09549591401457824]",4.0,"[-0.03410276116090994,-0.021196657276825653]",100.0,"[-0.01369526321210238,0.05141694849230918]",4.0,"[0.014808848014807403,-0.05232813962339475]",100.0,"[0.18221998777377252,-0.004500772617942365]",100.0,"[-0.19168582858408184,0.039098169384773014]",100.0,"[-0.14248415094085048,-0.06755833178072286]",4.0,"[0.03354551358855138,-0.13198710332284994]",4.0,"[-0.10212641593158928,-0.03263131762140512]",4.0,"[0.12433388582701485,-0.1531721353855503]",100.0,"[-0.1828397550425193,-0.06509866475002439]",4.0,"[-0.1207644006469162,-0.13855405283698963]",4.0,"[0.032957974036752415,0.11553225871442264]",4.0,"[-0.08714626306692319,-0.0763678591092394]",100.0,"[0.07688755743445404,-0.17025317473465665]",100.0,"[-0.1027260557108664,0.03968405871095585]",100.0,"[0.12465941834028603,0.03863758335124463]",100.0,"[0.050758637371058644,0.16835647428572348]",100.0,"[0.11470696581623516,-0.016733438425119124]",100.0,"[0.02,0.02]",156.5291,0.0,10.0,10.0,60.0,1.0,,,,,,,
,,,,,,,67d13bd326a4f1c00896e233,6842bc061dfbaf502fc2d052,2025-06-06_11h59.59.048,shape_ratio,2024.1.5,Win32,59.88023952,6842b561977af9ba9b0f87ca,,,,,,,,,,,156.5307,157.0292,,,157.2787,158.0454,left,,,,,,,,0.5,0.7559,,,,,,,157.0294,157.2787,158.0454,"[-0.06184061590106469,0.14390551199804033]",4.0,"[0.03962353547621777,0.15377303672080425]",100.0,"[0.10201520925895292,0.15296636076539913]",100.0,"[-0.15076714538592617,-0.05592067766077488]",4.0,"[0.13176409636204414,-0.09438356468014511]",100.0,"[0.05829271832609105,-0.18152846680956602]",4.0,"[0.07651001793900461,0.10074954503713109]",4.0,"[-0.11906759719424045,0.0805996897581233]",4.0,"[-0.08118684116531233,-0.14914627138350914]",4.0,"[-0.011102377172704462,0.0751183344824983]",4.0,"[0.009832580328805561,-0.08478053430792636]",100.0,"[-0.11180909639208517,0.12480498677030386]",100.0,"[0.062402514053729034,-0.02499422867179499]",4.0,"[0.13474385651430149,0.03583877445437248]",100.0,"[0.18583879665999628,0.03441729554597355]",4.0,"[0.08285853915717817,-0.12729861121288286]",4.0,"[-0.1648863224412399,0.03432260891092543]",4.0,"[-0.08456253217079858,-0.034575204072647144]",100.0,"[-0.003109476063856096,-0.041431692184709594]",100.0,"[-0.12690799496910904,-0.0009860075501807867]",100.0,"[0.04232149918901197,0.03580139086022047]",100.0,"[-0.02652748905586632,-0.13561731998524063]",100.0,"[-0.1720934526602973,0.08992182735946644]",4.0,"[0.10228306278767166,-0.021468058286043083]",100.0,"[0.006808812824601651,-0.1996328311769021]",100.0,"[-0.030334883924763897,-0.08301524723075356]",100.0,"[0.1372598977755248,-0.13595775528678958]",100.0,"[-0.18307739751874597,-0.014801061028581947]",4.0,"[-0.16625913216521698,-0.10655018141309247]",4.0,"[-0.07408470335887608,-0.10351048604969203]",4.0,"[-0.03830402466199634,-0.17447338471210805]",100.0,"[-0.07454519523288514,0.025298049372147025]",4.0,"[0.02,0.02]",159.1447,0.0,11.0,11.0,94.0,1.0,,,,,,,
,,,,,,,67d13bd326a4f1c00896e233,6842bc061dfbaf502fc2d052,2025-06-06_11h59.59.048,shape_ratio,2024.1.5,Win32,59.88023952,6842b561977af9ba9b0f87ca,,,,,,,,,,,159.1458,159.6444,,,159.8951,160.361,right,,,,,,,,0.4,0.4485,,,,,,,159.6444,159.895,160.3611,"[-0.03698584393746223,0.19485912371316258]",4.0,"[-0.10454252847628384,-0.10273860726947152]",100.0,"[0.05824589007070335,-0.061737167910152047]",100.0,"[0.031235212007445185,0.19411725109824135]",100.0,"[0.07851099306535732,0.11746502839500222]",100.0,"[0.014925753616746548,0.0725204956016534]",100.0,"[-0.11179617294668956,0.09858647396991997]",4.0,"[-0.1491469170240856,0.04860383859913598]",4.0,"[-0.1499731288845844,-0.043474522447434445]",4.0,"[0.15873501551422958,-0.05930720408912173]",4.0,"[0.10051429124742685,-0.10602208248566898]",4.0,"[-0.12290544237474288,0.00883524398992724]",100.0,"[-0.002144188963987973,0.17138341413344718]",100.0,"[-0.025768461606742458,-0.04830822772927159]",4.0,"[-0.034594291890937295,0.03205512474761084]",4.0,"[0.18790482931992628,0.031497515874748826]",4.0,"[-0.06777455058376175,-0.03897676369717166]",4.0,"[0.10968978087125406,-0.04688142841352634]",4.0,"[0.01691079268357921,-0.03342615598892234]",4.0,"[-0.11868487398087707,-0.14898820464119242]",100.0,"[0.029622077319537882,-0.17783361817733867]",100.0,"[0.11243494661234853,0.05699575246913592]",4.0,"[0.05137087409070129,0.047868467579697746]",4.0,"[0.0732121435032393,0.1818595063158406]",100.0,"[0.14499508323802845,0.026294824678763176]",100.0,"[-0.07930306900670621,0.18080694051000065]",100.0,"[0.01413085651979682,-0.0949690690605662]",4.0,"[-0.034760374658763644,-0.18257684976377295]",4.0,"[0.1455213594619119,0.12488114758018043]",100.0,"[0.017254642922962585,0.13335630278601973]",4.0,"[-0.057159324290474246,0.06545039661567387]",4.0,"[-0.19125461215407252,-0.028188457154048278]",4.0,"[0.02,0.02]",161.4607,0.0,12.0,12.0,174.0,1.0,,,,,,,
,,,,,,,67d13bd326a4f1c00896e233,6842bc061dfbaf502fc2d052,2025-06-06_11h59.59.048,shape_ratio,2024.1.5,Win32,59.88023952,6842b561977af9ba9b0f87ca,,,,,,,,,,,161.4612,161.961,,,162.2111,162.7611,right,,,,,,,,0.9,0.5403,,,,,,,161.961,162.2111,162.7612,"[-0.0368784329978845,-0.11075757985658459]",100.0,"[0.04048784348730008,0.005155958451423535]",100.0,"[-0.08047197236507775,0.03632205269868734]",100.0,"[0.062261373868824584,-0.17190508549093947]",100.0,"[0.05301629497848804,0.16242222527373093]",4.0,"[-0.19638832952230245,-0.011784335275142834]",4.0,"[0.05940011984209429,-0.1318317640537794]",100.0,"[-0.1928122150951773,-0.05214747698228909]",100.0,"[-0.10061587217334014,-0.1711122329294724]",100.0,"[-0.18090954644710933,0.07469135056972016]",100.0,"[0.18696020286225815,0.05626668603684371]",100.0,"[0.09463483542314084,0.08822330182297361]",100.0,"[-0.11346524776359596,0.11691846079309312]",100.0,"[-0.07562384366769608,-0.05339210720660711]",100.0,"[0.015004888772226305,0.056605215420097554]",100.0,"[-0.03260677495881444,-0.026068515073801275]",100.0,"[-0.13637626465106828,-0.11775308218114415]",100.0,"[0.10117197592825863,-0.10544837066129642]",100.0,"[-0.05407066348610489,0.07174384133602307]",100.0,"[0.012720921959581266,-0.07205821344847121]",4.0,"[0.09243295136146565,-0.06292880377328967]",100.0,"[-0.009175894765977658,0.1410097382230206]",100.0,"[0.12725136295692127,-0.03472981479193258]",100.0,"[-0.13695654066910073,-0.019011159985784384]",100.0,"[0.0009419988604037712,-0.12712117770824521]",100.0,"[0.16972398471726272,-0.08031425926882972]",100.0,"[0.11796724508179628,-0.14524070665082436]",100.0,"[-0.195638941465603,0.03645873750508232]",100.0,"[0.14141184362626033,0.1230349356140533]",100.0,"[0.03145801679756084,0.11877961146483125]",100.0,"[-0.012169104052669634,-0.19763403624655582]",100.0,"[-0.07650462355781507,-0.12808478946144217]",100.0,"[0.02,0.02]",163.8605,0.0,13.0,13.0,27.0,1.0,,,,,,,
,,,,,,,67d13bd326a4f1c00896e233,6842bc061dfbaf502fc2d052,2025-06-06_11h59.59.048,shape_ratio,2024.1.5,Win32,59.88023952,6842b561977af9ba9b0f87ca,,,,,,,,,,,163.8614,164.3601,,,164.6106,165.2439,right,,,,,,,,0.6,0.6235,,,,,,,164.3601,164.6105,165.2441,"[0.05411009344308087,-0.09762286036913705]",100.0,"[0.03486092579116924,0.1481305371777436]",4.0,"[-0.03883122983104536,0.061500508316156]",100.0,"[0.10092542650227496,0.11398699810605982]",100.0,"[0.16707478732090592,-0.07586377209353834]",4.0,"[0.027621650782529008,-0.02152360782661877]",4.0,"[-0.06939736443839184,-0.10653225684178082]",100.0,"[-0.058819200645261346,0.12380254193293025]",100.0,"[0.07578459460533592,-0.18104008100534558]",100.0,"[-0.1025955118497845,0.08203905500726981]",4.0,"[0.11046818846393734,0.05765439879866276]",4.0,"[-0.07309630750938925,0.17874485500878773]",100.0,"[-0.08647014594650825,0.029140027147408903]",100.0,"[-0.08774594563974186,-0.03225196598944889]",100.0,"[-0.07915357941632245,-0.17469759784908237]",4.0,"[0.003285956568198277,0.03838901047667715]",100.0,"[0.11269272443768259,-0.03801166926858059]",4.0,"[0.15594513983413658,0.002914904722649284]",4.0,"[0.12218306238547122,-0.10810109483922925]",4.0,"[-0.12986662605974378,0.039292351865691244]",100.0,"[0.06247309468788908,0.03485024572940089]",4.0,"[0.0018957443260897212,-0.17873965105254924]",100.0,"[-0.1701555796418695,-0.08187966266840484]",4.0,"[0.1545973501518045,0.0984168814628278]",4.0,"[-0.019747602098790503,-0.09804041757011439]",100.0,"[0.08214140158259958,0.1700974541195054]",4.0,"[0.1849712290897904,0.05654029757549896]",100.0,"[-0.1894211017961856,0.019336702084047305]",100.0,"[-0.14613537361990034,0.10409413426190488]",100.0,"[-0.034733520601095164,-0.020846073926286218]",100.0,"[0.029633527537469274,0.10486528028808989]",100.0,"[-0.17874328048803134,-0.03798648996367222]",100.0,"[0.02,0.02]",166.3434,0.0,14.0,14.0,59.0,1.0,,,,,,,
,,,,,,,67d13bd326a4f1c00896e233,6842bc061dfbaf502fc2d052,2025-06-06_11h59.59.048,shape_ratio,2024.1.5,Win32,59.88023952,6842b561977af9ba9b0f87ca,,,,,,,,,,,166.3444,166.8433,,,167.0841,167.499,left,,,,,,,,0.1,0.399,,,,,,,166.8434,167.0841,167.4991,"[0.08913126775139867,0.06255856808672822]",4.0,"[-0.07193336469200358,0.15755600004183862]",100.0,"[-0.06337860598021615,-0.15193533507621496]",4.0,"[-0.17576914289040277,0.06922779529987923]",4.0,"[0.005768300391249429,0.09401200260722073]",4.0,"[0.08349514314737756,-0.09836178371351677]",100.0,"[-0.11423030151123144,0.007904607291438687]",4.0,"[0.025923078726283594,-0.017205840303286233]",4.0,"[0.15133569873400385,0.10288841506129585]",4.0,"[0.13427059393951613,-0.03424862057862482]",4.0,"[0.05968002854649588,0.1276007201882947]",4.0,"[0.19699321725483884,0.024253123612282143]",4.0,"[-0.023396809290832783,-0.1067192567931872]",4.0,"[0.1850447749099802,-0.06736216639552288]",4.0,"[-0.0163155219365858,0.02774775296875862]",4.0,"[-0.06193117134607449,0.0551410145305029]",4.0,"[-0.11350064816090467,-0.09187810733941527]",4.0,"[0.0539480451214521,-0.050148664098274676]",4.0,"[0.010336763087590546,0.18937988574355372]",4.0,"[-0.1275594219054934,-0.05362220599766677]",4.0,"[0.03211693086532533,-0.08449707297185642]",4.0,"[-0.0028707573463730017,-0.17629617398923067]",4.0,"[-0.10454454625112665,0.05281620588978175]",4.0,"[0.01383906745173904,-0.1352348743217541]",4.0,"[0.14566361766563743,-0.10166785053188816]",4.0,"[0.13265756287340336,0.14576316812682213]",4.0,"[-0.18265704063165336,0.028647267673476903]",4.0,"[0.08057655270693205,-0.00709276592094465]",4.0,"[-0.11430349546513659,-0.15155310866637314]",4.0,"[-0.04386439568021693,0.10096908082918918]",4.0,"[0.09334605969900582,-0.16419702892352295]",4.0,"[0.16933873616661374,0.06392505148257283]",100.0,"[0.02,0.02]",168.5934,0.0,15.0,15.0,184.0,1.0,,,,,,,
,,,,,,,67d13bd326a4f1c00896e233,6842bc061dfbaf502fc2d052,2025-06-06_11h59.59.048,shape_ratio,2024.1.5,Win32,59.88023952,6842b561977af9ba9b0f87ca,,,,,,,,,,,168.5957,169.0933,,,169.3429,169.993,left,,,,,,,,0.5,0.6361,,,,,,,169.0936,169.3429,169.993,"[-0.057810383367326676,-0.1226711692341128]",4.0,"[-0.1820763500423392,-0.0006413840076099675]",100.0,"[0.06936770830827313,-0.09747260327934364]",4.0,"[0.09432177855298432,-0.01778576237077]",4.0,"[0.04070416484125667,0.06600297481928068]",4.0,"[0.00949128159902366,0.11000098099007015]",4.0,"[-0.13609390968163176,-0.03965877387298188]",4.0,"[-0.18726959732693108,-0.05595381294998781]",100.0,"[-0.11616201376180844,0.15088860442280422]",100.0,"[0.01689863938009633,-0.026910507557879923]",4.0,"[-0.12861714611502767,0.028183621913715692]",4.0,"[0.08523541823720675,0.027727341382350598]",100.0,"[-0.09832274619965028,-0.14368019316074948]",100.0,"[-0.07987977809287031,-0.06999425617378933]",100.0,"[0.04049287801347452,0.156580905257897]",100.0,"[-0.03460272609008743,0.03755001239509049]",100.0,"[-0.014656046252974172,0.1535733114588257]",4.0,"[-0.09497118744353163,-0.020989973562276453]",100.0,"[0.046367304339316406,0.015026987322183086]",100.0,"[0.1920674540368937,0.006763966941975015]",4.0,"[0.1600326167973388,0.03760759891022138]",100.0,"[-0.1389605253744901,0.10789131017492014]",100.0,"[0.05824652918976503,-0.13692916281669842]",100.0,"[-0.04868010048756396,-0.1824039494807477]",4.0,"[0.00216280878653128,-0.14933240274464218]",4.0,"[-0.06964566039312374,0.10970234353958673]",100.0,"[0.10029380373606063,-0.13162162192985793]",4.0,"[0.13673753020122814,-0.05406069115516001]",4.0,"[0.13772546110879166,0.13095727527845205]",4.0,"[-0.04692316999583883,0.18652366430734968]",100.0,"[0.1433652559631433,0.07871235071525948]",4.0,"[-0.19121044013800767,0.04921100676909306]",100.0,"[0.02,0.02]",171.0925,0.0,16.0,16.0,109.0,1.0,,,,,,,
,,,,,,,67d13bd326a4f1c00896e233,6842bc061dfbaf502fc2d052,2025-06-06_11h59.59.048,shape_ratio,2024.1.5,Win32,59.88023952,6842b561977af9ba9b0f87ca,,,,,,,,,,,171.0941,171.5923,,,171.8425,172.2088,right,,,,,,,,0.9,0.3592,,,,,,,171.5924,171.8425,172.2089,"[0.11025358814688078,0.08814227128106453]",100.0,"[0.05897409453477645,-0.08302942232998771]",100.0,"[-0.04169808606146803,0.17992405540543466]",100.0,"[-0.10750828858443906,-0.026232643622956558]",100.0,"[-0.1452540021402019,-0.0847499593365165]",4.0,"[0.03993213398086452,0.12773978102976438]",100.0,"[0.0499555175039964,0.02192809837948953]",100.0,"[0.020228561624484834,-0.03330834740914641]",100.0,"[-0.16280520927400377,-0.04816184023102425]",100.0,"[-0.08834209214042137,0.1550829904662443]",100.0,"[0.15831274350620653,0.08666138078204232]",100.0,"[0.01827998958952504,0.08610723754599188]",4.0,"[-0.02006768133369696,0.05146189224334576]",100.0,"[0.12484961934808897,-0.10561950085697262]",100.0,"[-0.09908999952560044,0.020821077004423535]",100.0,"[0.1025281877651282,-0.012642076359420745]",100.0,"[0.171688976937388,-0.06976493275218375]",4.0,"[0.03376191470159248,-0.12895783523702786]",100.0,"[-0.16026163372183547,0.06826441014182931]",100.0,"[0.156146626972238,0.032373579281548576]",100.0,"[-0.08001986444157341,-0.09605540284788164]",100.0,"[-0.03199329827597047,-0.09791431265986388]",100.0,"[-0.16026361049571866,-0.006830018205351812]",100.0,"[0.09733164969398436,0.16211067503835971]",100.0,"[-0.14750607044666292,-0.12912847414460749]",100.0,"[-0.09378759201021926,0.09396814760106953]",100.0,"[-0.02245521691996393,0.00027295729097988715]",100.0,"[0.0061430674920191315,-0.16802176119938447]",100.0,"[-0.13934760789370815,0.11463453095629002]",100.0,"[-0.02362590772879411,0.09574469449024416]",100.0,"[0.14457008104572844,0.13556642003151542]",100.0,"[-0.13894688310079528,0.0303924156969668]",100.0,"[0.02,0.02]",173.3085,0.0,17.0,17.0,13.0,1.0,,,,,,,
,,,,,,,67d13bd326a4f1c00896e233,6842bc061dfbaf502fc2d052,2025-06-06_11h59.59.048,shape_ratio,2024.1.5,Win32,59.88023952,6842b561977af9ba9b0f87ca,,,,,,,,,,,173.3094,173.8083,,,174.059,174.659,left,,,,,,,,0.45,0.5856,,,,,,,173.8084,174.059,174.6591,"[-0.10277550152485807,0.06564628394441015]",4.0,"[0.03404254402222782,0.15522511980395123]",100.0,"[0.010158320061938234,-0.03958415058617285]",4.0,"[0.060361127826527805,-0.1836706839215056]",100.0,"[0.03037011146839185,0.061659260514331]",4.0,"[-0.009010527573263195,-0.0790400681947288]",4.0,"[0.1835885182632895,0.029749928795030765]",100.0,"[-0.18069166640969792,0.05206824611723487]",4.0,"[-0.18312786561086303,-0.013393879580797066]",100.0,"[0.13623026218250486,-0.06353897829506325]",4.0,"[-0.011020347610374423,0.10696624326799019]",100.0,"[-0.044623798346175705,-0.019962238592202527]",4.0,"[0.04029916833025232,-0.009330971372968866]",4.0,"[0.15929140564027852,-0.027581961381325997]",100.0,"[-0.12804035997983604,-0.14374059086558075]",100.0,"[0.10179045337507556,0.03668897845410128]",4.0,"[0.14218602382028303,0.02660779377272138]",4.0,"[-0.09192406629414387,0.02344891817955722]",4.0,"[0.10281241321420927,0.155449430043959]",100.0,"[-0.0036372837152688366,-0.0008413909655761387]",100.0,"[0.09152335433767461,-0.03387012592851594]",4.0,"[-0.04240023766463291,-0.10223846115791715]",4.0,"[0.1452328258813641,0.11374969127512748]",100.0,"[0.07457856301824466,-0.08122557362962274]",100.0,"[-0.016998432489028808,0.1883239852453015]",100.0,"[-0.1401857811983193,0.13981097547378293]",100.0,"[-0.13981685340751987,0.09661675262365434]",4.0,"[-0.075917201576282,0.16278753486347375]",4.0,"[0.08419274468906317,0.11237922311637874]",4.0,"[-0.06580297630270787,0.10335246147294852]",4.0,"[-0.07795341801356957,-0.08011069381573468]",4.0,"[-0.023935092492992232,0.05348979883677242]",100.0,"[0.02,0.02]",175.7584,0.0,18.0,18.0,124.0,1.0,,,,,,,
,,,,,,,67d13bd326a4f1c00896e233,6842bc061dfbaf502fc2d052,2025-06-06_11h59.59.048,shape_ratio,2024.1.5,Win32,59.88023952,6842b561977af9ba9b0f87ca,,,,,,,,,,,175.7598,176.2581,,,176.4976,177.1756,right,,,,,,,,0.45,0.6706,,,,,,,176.2581,176.4976,177.1761,"[-0.11133185424684856,0.0439327845736987]",4.0,"[-0.10363255819804433,-0.0034357866986860176]",4.0,"[0.09021860928700597,-0.057920620020772494]",4.0,"[-0.09468379383662223,-0.06430769043304421]",4.0,"[-0.1289434363415377,-0.09459401859072504]",100.0,"[0.11297128644894074,-0.1529578281013604]",100.0,"[0.0668608255873001,0.18413959611572103]",4.0,"[-0.021783366046313122,-0.03232759587137258]",4.0,"[-0.0389231717934433,0.05517260009304978]",4.0,"[0.02500970143673551,-0.12811886682762144]",100.0,"[0.1503059133426709,-0.11421006528074701]",100.0,"[0.04141104545522314,0.11002522923658188]",4.0,"[0.09088084578194526,0.009608528910986389]",4.0,"[-0.17693918983577453,0.06260552475749373]",4.0,"[0.12589180245252227,0.13095620586471238]",4.0,"[-0.009819979491118866,0.10751144224164262]",4.0,"[-0.17620321183706272,-0.0906566486863013]",4.0,"[-0.04891993618099039,-0.09599300360446542]",4.0,"[0.07826495768991262,0.09274119197194707]",100.0,"[0.15657422719397457,-0.005266833350305576]",100.0,"[0.02778238683661534,-0.03956611627870727]",100.0,"[-0.03953467044234063,0.1610407630118717]",4.0,"[-0.08104658388033881,0.109041779092031]",4.0,"[-0.005489408824183725,0.1912010653301842]",100.0,"[0.17412365123356055,0.08122242678756839]",100.0,"[0.015483560301351658,-0.18030988056274377]",4.0,"[0.016631826995217487,0.011103462865665579]",100.0,"[-0.16382598930050268,-0.03981831589321349]",100.0,"[-0.01886112583990864,-0.12353998947332094]",100.0,"[-0.19712836678934129,0.006407078253131346]",100.0,"[-0.07791348832268664,-0.16994803471106393]",4.0,"[0.07173777372692293,0.14078477568047412]",100.0,"[0.02,0.02]",178.275,0.0,19.0,19.0,129.0,1.0,,,,,,,
,,,,,,,67d13bd326a4f1c00896e233,6842bc061dfbaf502fc2d052,2025-06-06_11h59.59.048,shape_ratio,2024.1.5,Win32,59.88023952,6842b561977af9ba9b0f87ca,,,,,,,,,,,178.2766,178.7748,,,179.0311,179.6277,right,,,,,,,,0.45,0.5803,,,,,,,178.7749,179.0311,179.6277,"[0.030051306346115254,0.035906942890345045]",4.0,"[0.05104168938524756,0.09519643822652216]",4.0,"[-0.09776881846530314,-0.028045605484976137]",4.0,"[0.14918322022127192,-0.08477197835776391]",100.0,"[-0.15723931937559416,-0.12016561640463122]",100.0,"[0.0952687432457163,0.1112468173077838]",100.0,"[-0.0623992631272551,-0.15954231064499785]",4.0,"[-0.16987089994662397,-0.07608425656129332]",100.0,"[0.16160112306647764,-0.04549871587752467]",4.0,"[-0.12920969397310628,0.12534248898242364]",100.0,"[-0.05242778205823281,0.022282041012798265]",4.0,"[0.09314397875310323,-0.03601470280543077]",4.0,"[-0.13140737072392658,0.07361782083961242]",100.0,"[-0.014748152932859337,0.04803685912287623]",100.0,"[0.018989588092386902,0.1238237365475288]",4.0,"[-0.08510493899501928,0.0878659981127788]",100.0,"[-0.02171847789844795,-0.13763598647115594]",4.0,"[-0.05667293238593361,-0.05479673303822212]",100.0,"[0.07771862333819657,0.023820667704665]",100.0,"[-0.07486981070937292,0.14493056762153764]",4.0,"[0.05447919222800328,0.14910136814783234]",4.0,"[0.17938057146445716,0.01301240463554066]",100.0,"[0.1466149563864846,0.0929497881815421]",4.0,"[-0.18845291323390415,-0.03038857956540762]",100.0,"[-0.029452820225973793,-0.09227707833798005]",100.0,"[0.12059083157392377,0.022363910640602]",4.0,"[-0.10652719672047432,-0.15856576562040992]",4.0,"[0.05528484993634403,-0.18603368424455297]",100.0,"[-0.02097972392553614,-0.1987690221226512]",4.0,"[-0.09393912539107047,0.028787586840549023]",4.0,"[0.09147351723036617,-0.13464282429788677]",4.0,"[0.03669958429153631,-0.11274654606491663]",4.0,"[0.02,0.02]",180.7302,0.0,20.0,20.0,137.0,1.0,,,,,,,
,,,,,,,67d13bd326a4f1c00896e233,6842bc061dfbaf502fc2d052,2025-06-06_11h59.59.048,shape_ratio,2024.1.5,Win32,59.88023952,6842b561977af9ba9b0f87ca,,,,,,,,,,,180.7306,181.2239,,,181.4634,182.0769,right,,,,,,,,0.6,0.5965,,,,,,,181.2241,181.4633,182.0769,"[0.08914378600724653,-0.002587545776999112]",100.0,"[0.019036285723554938,0.008638074237665466]",100.0,"[0.029822852063025762,-0.16999991246139495]",4.0,"[0.07135717371478602,-0.17889586877529612]",4.0,"[-0.03116367786724945,-0.08306052847734242]",100.0,"[-0.15269090322075546,0.1045642334499712]",4.0,"[-0.03035023086395197,0.0735422645444697]",100.0,"[0.1728638147339371,0.004552046497439019]",100.0,"[-0.08217720351875481,-0.0773920924575858]",100.0,"[0.08414138531802666,0.13514548411875676]",100.0,"[-0.059829877867356177,-0.028995854643482456]",4.0,"[0.08529194209136894,-0.10692103109176333]",100.0,"[0.16142882771739556,-0.11531220623557482]",4.0,"[-0.15553917297772354,-0.08617482176184608]",100.0,"[-0.14662805993322112,0.048253960897675585]",100.0,"[-0.17959412264440233,-0.04646590489816379]",4.0,"[-0.09471881351167473,0.17395655028256476]",4.0,"[0.03319829504034904,-0.12975378700245663]",4.0,"[0.12689075525708565,-0.018144372004120213]",4.0,"[0.18248420955963335,0.0675689570882205]",100.0,"[0.1121690485869313,-0.15097136183194393]",4.0,"[-0.09045082554597168,0.09781041224126856]",4.0,"[-0.00573748043528709,0.16754789012200794]",100.0,"[0.1294911128594521,-0.07726381120592442]",100.0,"[-0.0822788953607094,-0.15997362436932033]",100.0,"[0.0154889559571183,0.10692337930457677]",100.0,"[0.0608642036778511,0.0312835833476267]",100.0,"[-0.047714864341259454,-0.13817591894380352]",100.0,"[0.14274157667479648,0.07615267212724869]",100.0,"[0.006963056092372288,-0.05736266804179694]",100.0,"[-0.013654877880127512,-0.020557857855723817]",4.0,"[0.11037885761536712,0.04584924197027474]",4.0,"[0.02,0.02]",183.1735,0.0,21.0,21.0,44.0,1.0,,,,,,,
,,,,,,,67d13bd326a4f1c00896e233,6842bc061dfbaf502fc2d052,2025-06-06_11h59.59.048,shape_ratio,2024.1.5,Win32,59.88023952,6842b561977af9ba9b0f87ca,,,,,,,,,,,183.1754,183.6734,,,183.9122,184.8624,left,,,,,,,,0.45,0.9333,,,,,,,183.6736,183.9122,184.8624,"[0.036962417283475144,0.18588809747060295]",4.0,"[-0.02616998336535477,-0.0696634731432279]",100.0,"[-0.13962247041803788,0.0495118604150616]",4.0,"[-0.0026768836640030406,0.19394856153007464]",100.0,"[0.14779841570805582,-0.0761726767304722]",4.0,"[0.10634239413617659,-0.07817210227303634]",100.0,"[0.03322639683042264,-0.1030489682381679]",100.0,"[0.028922608152214115,0.04746642255991493]",4.0,"[-0.1521067305251774,-0.08373088598034735]",4.0,"[-0.03968242386571898,-0.17032682258014956]",100.0,"[-0.06576241343320159,0.010629530121199039]",100.0,"[-0.11121953387758317,-0.1588172684242102]",4.0,"[-0.04879677088659601,0.1329315866829675]",4.0,"[-0.17664663001677672,-0.03505325602625306]",100.0,"[-0.09415298184231631,0.13702550031745953]",100.0,"[0.002345944370987011,0.12470120713616391]",4.0,"[0.06596671337081093,-0.02035553924474159]",4.0,"[-0.013626719078852484,-0.13081705574593558]",4.0,"[0.06147551024490273,-0.17463701296114012]",4.0,"[0.10879040143501947,0.10949300059256407]",100.0,"[-0.014083198304951203,0.04177279336454769]",100.0,"[0.14079689035170484,0.0529805340666061]",4.0,"[-0.1792416081155598,0.07482866391802379]",4.0,"[-0.10592663533146425,0.07946393866909544]",100.0,"[-0.1397532647240145,0.13503291408502527]",100.0,"[0.13531105314893602,-0.005445953927851455]",4.0,"[0.09721113870656478,0.02100052108851098]",100.0,"[0.013941422666643553,-0.19571386723072576]",4.0,"[-0.05483581381765585,0.067648206403301]",4.0,"[0.17335159152955468,0.022653944958195275]",4.0,"[-0.0038838636441201886,-0.029561182937634246]",100.0,"[-0.06560249104685391,-0.04019235907003385]",4.0,"[0.02,0.02]",185.9563,0.0,22.0,22.0,121.0,1.0,,,,,,,
,,,,,,,67d13bd326a4f1c00896e233,6842bc061dfbaf502fc2d052,2025-06-06_11h59.59.048,shape_ratio,2024.1.5,Win32,59.88023952,6842b561977af9ba9b0f87ca,,,,,,,,,,,185.9584,186.4562,,,186.7092,187.0792,left,,,,,,,,0.1,0.3506,,,,,,,186.4564,186.7091,187.0792,"[-0.08013593690306002,0.027741002634197657]",4.0,"[0.03568780576821851,-0.09896977318474648]",4.0,"[-0.11257864020393644,0.08253102810598908]",4.0,"[-0.016923527899855326,0.1659417058799339]",4.0,"[-0.19653446492525203,-0.020356766713369025]",4.0,"[0.071483068085338,0.007827197774383478]",4.0,"[0.007610528737393689,0.051646173053248576]",4.0,"[0.14163559676221035,0.06849185340636937]",4.0,"[-0.015733413645252863,0.08553415898855325]",4.0,"[-0.1283318440488549,0.04173010176158405]",4.0,"[-0.11811271160485007,-0.13897765899989376]",4.0,"[0.17729060088316423,0.03239300188242146]",4.0,"[0.03994243228826503,0.10934123860253446]",4.0,"[0.07994300763165367,-0.056836614386197505]",4.0,"[-0.005639236675178933,-0.19440307083751196]",4.0,"[-0.05831365427786719,0.08107402904558272]",4.0,"[-0.028581094393642346,0.020408339302332712]",4.0,"[-0.04448583008463409,-0.17231878494044994]",4.0,"[0.11949942144912538,0.011526548188115462]",4.0,"[-0.17556741678748317,0.07355768091384374]",100.0,"[-0.12582807917992772,-0.05152627581110098]",4.0,"[-0.17654537639422319,-0.07845724427194198]",4.0,"[-0.07084047130516576,-0.11206503182145228]",100.0,"[0.06631104055762571,0.15644510417761812]",4.0,"[-0.13815227393562765,0.11888809109901514]",4.0,"[0.08081745085968114,0.11450296868788329]",4.0,"[0.1155209596195974,-0.03741130741101629]",4.0,"[-0.11759743655400975,-0.005841502006283604]",4.0,"[0.11095675111794481,-0.11553418401174521]",100.0,"[0.05926265569873579,-0.1622983448412624]",4.0,"[0.005502676000868816,-0.14859861874266733]",4.0,"[-0.09491853204690288,0.14639194249891171]",4.0,"[0.02,0.02]",188.1724,0.0,23.0,23.0,181.0,1.0,,,,,,,
,,,,,,,67d13bd326a4f1c00896e233,6842bc061dfbaf502fc2d052,2025-06-06_11h59.59.048,shape_ratio,2024.1.5,Win32,59.88023952,6842b561977af9ba9b0f87ca,,,,,,,,,,,188.1744,188.6723,,,188.9115,189.7451,left,,,,,,,,0.4,0.8171,,,,,,,188.6725,188.9115,189.7451,"[-0.08715471873349788,0.1636526671702316]",4.0,"[0.14030279539145507,-0.06287958182225553]",100.0,"[-0.017366652275713948,-0.1869155595027776]",4.0,"[0.09115785164288483,-0.10626874474777695]",100.0,"[-0.06512903878799411,0.0061510015918091005]",4.0,"[-0.19670674307935687,-0.017290611849213874]",100.0,"[-0.08499316832368092,0.10408269526190175]",100.0,"[-0.16305508104011743,0.018589220174493024]",4.0,"[-0.119214258934166,0.0019221686014831455]",4.0,"[0.13819831703905877,-0.005796369732803159]",100.0,"[-0.09396481890837137,0.05472559489926867]",100.0,"[0.01354799394086331,-0.0014719571044068797]",4.0,"[0.039455793673058154,0.049637276314529306]",4.0,"[0.11784844654535803,0.12382055992867051]",100.0,"[-0.03430366769028619,0.1402704732322307]",100.0,"[0.16779692928998735,0.08612564210467616]",100.0,"[-0.011876893661273891,0.07733466479958762]",100.0,"[-0.0936204748028476,-0.07780930036557747]",4.0,"[0.03416392266619027,0.1506684440318495]",4.0,"[-0.14710522896177558,-0.031031165712936685]",4.0,"[0.009879698615438684,-0.09782341727964285]",4.0,"[0.13674571341265188,-0.11454320186141727]",4.0,"[-0.049133475966187695,-0.04968746137885286]",100.0,"[0.11147362533916703,0.07693857165304495]",4.0,"[0.08213222362525464,0.10490376544550759]",4.0,"[-0.10960977845984132,-0.1455389671267225]",100.0,"[0.16524721762330172,0.02948367270968296]",4.0,"[-0.14684500837933445,0.12424063925999237]",4.0,"[0.044188229152648445,0.0901517164629346]",100.0,"[0.07712984921564485,-0.15912207291685374]",4.0,"[0.10206594473238764,0.036209376015300436]",4.0,"[-0.1394237042516248,0.06501624841217549]",4.0,"[0.02,0.02]",190.8385,0.0,24.0,24.0,152.0,1.0,,,,,,,
,,,,,,,67d13bd326a4f1c00896e233,6842bc061dfbaf502fc2d052,2025-06-06_11h59.59.048,shape_ratio,2024.1.5,Win32,59.88023952,6842b561977af9ba9b0f87ca,,,,,,,,,,,190.8405,191.3385,,,191.5939,192.1722,right,,,,,,,,0.4,0.5511,,,,,,,191.3386,191.5938,192.1727,"[0.09415206099980929,0.053459905378551095]",100.0,"[-0.1368103075634084,0.08410522128700648]",100.0,"[-0.17991692385766436,0.05846385641653163]",4.0,"[0.06375835528256069,0.1772577065758577]",100.0,"[-0.11377026907942091,-0.12717757729046192]",4.0,"[0.07289122845374564,-0.0013440739025913384]",4.0,"[0.13318927002404166,-0.12103041308503766]",4.0,"[-0.010364340586932448,0.10578820094027322]",4.0,"[-0.18528409799822382,-0.06253923464948516]",4.0,"[-0.05077845134741158,-0.01841137948981867]",4.0,"[-0.04019889713699213,0.15736804956799813]",4.0,"[-0.11047552644901827,-0.014218462791447376]",100.0,"[0.04836116787106161,-0.050753419094238236]",100.0,"[-0.13572919355682964,-0.09204165343188606]",4.0,"[-0.0853311009427183,0.12024687256359817]",4.0,"[-0.053486355038970014,0.07457043405967316]",4.0,"[-0.02686598466756874,-0.1535548057995005]",100.0,"[-0.09673276415601417,0.06283421199953819]",4.0,"[0.1479124813914157,-0.051556722573162184]",4.0,"[0.10305518050320144,-0.08506795654771761]",100.0,"[0.0024217885071733274,-0.18684255817111406]",100.0,"[0.13009524256658764,0.11169266116977446]",100.0,"[0.19781985367447363,0.006728897616303577]",100.0,"[0.03409431969919131,0.054753338199402646]",4.0,"[0.05561132457249995,-0.14619087434473785]",100.0,"[-0.006329332166264627,-0.04158140596421429]",4.0,"[0.0025170800695201324,-0.08806889505656547]",4.0,"[-0.1540536420746893,0.12606778879989855]",100.0,"[-0.04751874629447456,-0.1932776188919692]",4.0,"[-0.06359801821702105,-0.05709921209552941]",4.0,"[-0.1582211818020379,-0.017685717361367252]",100.0,"[0.06604244108664803,0.10123674772056612]",4.0,"[0.02,0.02]",193.2716,0.0,25.0,25.0,169.0,1.0,,,,,,,
,,,,,,,67d13bd326a4f1c00896e233,6842bc061dfbaf502fc2d052,2025-06-06_11h59.59.048,shape_ratio,2024.1.5,Win32,59.88023952,6842b561977af9ba9b0f87ca,,,,,,,,,,,193.2733,193.774,,,194.027,194.5273,left,,,,,,,,0.4,0.4833,,,,,,,193.7741,194.027,194.5273,"[-0.08030376195064838,-0.14497696415358646]",100.0,"[-0.055852753593770045,-0.09621914802361478]",100.0,"[-0.052421489221753347,-0.18295302262898963]",4.0,"[-0.13956306326846613,-0.02367785535542821]",4.0,"[0.06713172769361599,-0.17440443723268975]",4.0,"[-0.018567696173827305,0.1613916814192244]",4.0,"[0.07459680495594515,-0.08143187372775537]",4.0,"[0.08326207935588625,-0.02765306335672648]",100.0,"[-0.03204316234350806,0.046338161933192124]",4.0,"[0.022839496776092573,0.06634759232537313]",4.0,"[0.006045555598576534,0.10742193224118742]",100.0,"[0.01436729618033788,-0.015516269563155195]",100.0,"[-0.14321955555926472,0.12620874300440715]",4.0,"[0.029880337157107983,0.1633553406432797]",4.0,"[-0.13049356154147404,-0.13292756294866365]",4.0,"[0.19687509318948299,-0.005602023179864662]",100.0,"[0.05168384094021897,-0.12032774973158332]",4.0,"[-0.07993891916587602,-0.05611771822325745]",100.0,"[0.13998229308013393,0.11836515902800901]",100.0,"[0.1757391256480412,0.06924033210648121]",100.0,"[-0.024648143276021172,-0.13681678729779495]",4.0,"[-0.067115374976566,0.10026913773131135]",100.0,"[-0.11373700612070571,0.15506903083639795]",4.0,"[0.13184557771084074,0.02857618284195481]",100.0,"[-0.1635123400839785,0.014905821568484221]",4.0,"[-0.16957450896999074,0.09312927297395264]",100.0,"[0.024968355535753203,-0.17714890708343148]",4.0,"[0.12119097799588274,-0.12484095929636868]",4.0,"[0.06455291254940224,0.07983658899871755]",4.0,"[-0.1763513635564248,-0.04225185204997222]",4.0,"[-0.12589546136383356,-0.0726972108844019]",4.0,"[-0.14647636312378362,0.059358698035106475]",100.0,"[0.02,0.02]",195.6212,0.0,26.0,26.0,179.0,1.0,,,,,,,
,,,,,,,67d13bd326a4f1c00896e233,6842bc061dfbaf502fc2d052,2025-06-06_11h59.59.048,shape_ratio,2024.1.5,Win32,59.88023952,6842b561977af9ba9b0f87ca,,,,,,,,,,,195.623,196.1266,,,196.3772,196.6766,left,,,,,,,,0.1,0.2833,,,,,,,196.1267,196.3771,196.6766,"[-0.07547998093961593,0.050187626303694666]",4.0,"[0.1283013201674063,0.06856612770571495]",4.0,"[-0.035674210242302086,0.07330657471788872]",4.0,"[-0.09849720627577692,-0.14600002018349453]",4.0,"[0.08712439678236994,0.002999996282546212]",4.0,"[0.0031492773899081975,0.12000130345095356]",4.0,"[0.11781060814501632,0.029161995010976324]",4.0,"[0.016180825886142662,-0.14492607704603214]",4.0,"[0.04474964186103064,0.1039516236059326]",4.0,"[-0.09653123699517963,0.10121595964256953]",4.0,"[0.05995227839751811,0.1602451632930247]",100.0,"[0.10992773754796191,-0.12906574849808883]",4.0,"[-0.05046982264703092,-0.15443547193271298]",4.0,"[0.02197096180252924,0.03963315733834296]",4.0,"[0.037164245653075904,-0.04222477085989235]",4.0,"[0.026781064609317173,-0.09651040317721665]",4.0,"[0.13395067439770544,-0.08500350310535297]",4.0,"[0.0015616275994556012,-0.19592632118899872]",100.0,"[-0.0015937699269002082,0.16263313581915398]",4.0,"[-0.08744585466694851,-0.04208339406311584]",4.0,"[-0.15156860775658645,-0.092438947592271]",4.0,"[0.17718057518728483,-0.06029760052566819]",4.0,"[-0.09750566938436954,-0.09058604006028952]",4.0,"[-0.12861782805082417,0.14741329746031892]",4.0,"[-0.016663972691303288,-0.021220535387005073]",4.0,"[0.0884830029657955,-0.17513639003978665]",100.0,"[-0.19171863369631795,0.018213827162581145]",4.0,"[0.04847910089559497,-0.17024099158767014]",4.0,"[0.06970875480068636,-0.08872133889171167]",4.0,"[-0.11544793732097003,0.02627145508536795]",4.0,"[0.09888568606658435,0.14233696100151869]",4.0,"[-0.03995248841094698,-0.05393192091224097]",4.0,"[0.02,0.02]",197.7703,0.0,27.0,27.0,197.0,1.0,,,,,,,
,,,,,,,67d13bd326a4f1c00896e233,6842bc061dfbaf502fc2d052,2025-06-06_11h59.59.048,shape_ratio,2024.1.5,Win32,59.88023952,6842b561977af9ba9b0f87ca,,,,,,,,,,,197.772,198.2729,,,198.525,199.1713,right,,,,,,,,0.6,0.6192,,,,,,,198.2729,198.5249,199.172,"[0.15271539587663727,-0.12111587140270175]",100.0,"[-0.06294957663533025,-0.0003607255166317091]",100.0,"[0.02869795369641497,0.09593222258898225]",100.0,"[-0.10919257946933028,0.08582711249396965]",4.0,"[0.14332186749269915,0.03974582834908045]",100.0,"[0.06661162765424107,-0.05549017369801383]",100.0,"[-0.04338887911182587,-0.17533533477101793]",100.0,"[-0.041368494032117814,-0.08152202368633221]",4.0,"[0.12535615489545301,-0.04219849908771789]",100.0,"[-0.035658099758511315,-0.0415361583053459]",4.0,"[-0.10461107287852493,-0.022336563407869846]",100.0,"[0.06728448703002497,0.14624360549253948]",100.0,"[-0.028508813847904425,0.13219474193560427]",100.0,"[0.027435935450596464,-0.005390828835048167]",100.0,"[-0.05248260133192089,-0.13166342567370687]",100.0,"[0.011995448900565298,-0.10567165233667127]",4.0,"[-0.11280013997262077,0.13141782816386668]",4.0,"[-0.11311423349782271,-0.13682167406054818]",100.0,"[0.012471979225862496,-0.18994386299649735]",100.0,"[0.022562378847414,-0.06480525177722415]",4.0,"[0.08671107055100265,0.04981262849905281]",4.0,"[-0.08613193893531257,-0.17771983678167266]",4.0,"[-0.17019996661840237,-0.03633085940969288]",4.0,"[0.12924115578623446,0.14306555138764024]",4.0,"[-0.12432041932481251,-0.06994109649113081]",4.0,"[0.15390169643906582,0.09448254120064936]",100.0,"[0.00452558888921486,0.043832189407381233]",100.0,"[0.10000502832901625,-0.07932117214178855]",4.0,"[0.18318577492628282,-0.003373145652137067]",100.0,"[0.09517717205744582,-0.14865534954194584]",100.0,"[-0.12004715046685151,0.034045195923394805]",4.0,"[0.02911279607236475,0.19702376063232382]",100.0,"[0.02,0.02]",200.2704,0.0,28.0,28.0,36.0,1.0,,,,,,,
,,,,,,,67d13bd326a4f1c00896e233,6842bc061dfbaf502fc2d052,2025-06-06_11h59.59.048,shape_ratio,2024.1.5,Win32,59.88023952,6842b561977af9ba9b0f87ca,,,,,,,,,,,200.2724,200.7702,,,201.0229,201.5538,right,,,,,,,,0.5,0.5014,,,,,,,200.7705,201.0229,201.554,"[0.11243996150073444,-0.12475978039856499]",4.0,"[-0.06470093518857452,-0.06016022372776219]",4.0,"[-0.08295523536811214,0.16454462918480695]",100.0,"[0.19283694073883126,-0.03186663425854655]",4.0,"[-0.13804413978345723,0.12884483697986723]",4.0,"[-0.06753159988556702,0.02122815460203005]",100.0,"[-0.038063465437486,0.10596285631078975]",4.0,"[-0.10997638467121824,0.0631969497962969]",4.0,"[-0.04201190654171185,-0.13849557164137605]",100.0,"[0.06074964453140678,0.1902388467586692]",100.0,"[0.1302578723370608,0.026217491054284087]",100.0,"[-0.0062847389171141145,-0.015097472275010708]",4.0,"[0.12198537299067454,-0.08085440780335147]",100.0,"[0.011245596355192422,0.11594919300546674]",100.0,"[-0.12038394724990571,-0.11052134155178726]",100.0,"[0.1498769832992743,0.07416391016096686]",4.0,"[0.10959570840155708,-0.02766259687569638]",4.0,"[-0.12148276372299986,-0.03645102842503707]",100.0,"[0.008134905723326973,0.0644126492594352]",4.0,"[-0.0212542624091538,-0.053724025462791924]",4.0,"[0.08835399263672108,0.034232172253982215]",4.0,"[-0.03244351149696941,0.17074793237693794]",100.0,"[-0.1814601330526747,-0.08201717615192848]",4.0,"[0.16344384591735356,-0.06954353504137849]",4.0,"[0.09058329512473433,0.08869354925782064]",100.0,"[0.06198803791285432,-0.1683559694214632]",100.0,"[0.009326113269852325,-0.13403214878925596]",4.0,"[-0.192864537129215,0.0017979860684702287]",100.0,"[-0.03308545213923707,-0.18445300114544683]",100.0,"[0.04760486032441964,0.04097366888532386]",100.0,"[0.18979896879993222,0.025841655244533045]",4.0,"[-0.17316924486254093,0.06851161587568748]",100.0,"[0.02,0.02]",202.653,0.0,29.0,29.0,96.0,1.0,,,,,,,
,,,,,,,67d13bd326a4f1c00896e233,6842bc061dfbaf502fc2d052,2025-06-06_11h59.59.048,shape_ratio,2024.1.5,Win32,59.88023952,6842b561977af9ba9b0f87ca,,,,,,,,,,,202.6548,203.153,,,203.4057,204.0723,right,,,,,,,,0.6,0.6474,,,,,,,203.1532,203.4056,204.0724,"[-0.030967889621735557,0.19027342714615134]",4.0,"[-0.10041403481657375,0.046104666078726805]",100.0,"[0.043192673405490316,0.039895002129290674]",100.0,"[-0.0551819840051009,-0.1852148981853194]",4.0,"[0.07063395191813138,-0.1642647202775709]",4.0,"[0.09086510083005007,-0.11140014592108842]",4.0,"[-0.17766605451115955,-0.08563047072700525]",4.0,"[0.13637355902555368,0.1289928572789732]",100.0,"[-0.035678081773893824,0.10456656376267372]",4.0,"[-0.09673501616623043,0.10960717696356873]",100.0,"[0.10511724027617937,0.018267640882003777]",100.0,"[0.14349610101183619,-0.04862921923399899]",4.0,"[0.09665156194591125,0.11820688409646955]",100.0,"[0.02855479846331246,0.1513734452979533]",4.0,"[-0.0032927042757641967,0.00006817214674259122]",4.0,"[-0.08161311761876339,0.16159756968547692]",100.0,"[-0.1289568348012455,0.013337609370439608]",4.0,"[-0.059766013613580325,-0.1235656202345147]",4.0,"[0.024483256759374426,0.1046733649726531]",100.0,"[0.05438894577192637,-0.06914689974378314]",4.0,"[0.154955232091273,-0.11232895048575844]",100.0,"[0.1470492687423363,0.08684218194401297]",100.0,"[0.049603660220851976,-0.1237513294932355]",100.0,"[0.18938639152711192,-0.009387238636072541]",100.0,"[-0.06944918145171393,-0.044904036497615436]",100.0,"[-0.14662652784840488,-0.11089674538795202]",100.0,"[-0.008692901134113045,-0.053134361839356915]",100.0,"[0.1487855267718775,0.029366962394280407]",100.0,"[-0.1756567843504441,-0.03333572609085165]",100.0,"[-0.07173639715199964,0.0025387327969602492]",4.0,"[-0.19395477356315663,0.011058944167793381]",100.0,"[0.05901888623848811,-0.007379527067628322]",100.0,"[0.02,0.02]",205.169,0.0,30.0,30.0,41.0,1.0,,,,,,,
,,,,,,,67d13bd326a4f1c00896e233,6842bc061dfbaf502fc2d052,2025-06-06_11h59.59.048,shape_ratio,2024.1.5,Win32,59.88023952,6842b561977af9ba9b0f87ca,,,,,,,,,,,205.1703,205.6693,,,205.9084,206.6525,right,,,,,,,,0.4,0.7198,,,,,,,205.6694,205.9084,206.653,"[-0.1136081896273273,-0.08235020969811724]",4.0,"[-0.04471343614150021,-0.07548645093774692]",100.0,"[-0.11300131469051972,-0.02911967065811799]",100.0,"[-0.1787466105503962,-0.08879356928871454]",4.0,"[0.11400111618925189,0.0782920570223636]",100.0,"[-0.1361366129884307,0.11871840793323127]",4.0,"[-0.004716561599460361,0.12142463239798103]",4.0,"[0.03310797548606965,0.07652952745121439]",4.0,"[-0.08181067121832801,0.02771255653050595]",100.0,"[0.133615320344613,-0.03385464739708115]",4.0,"[0.03247309406866386,-0.10011867937391125]",4.0,"[-0.03592576492386963,0.04183837053612198]",100.0,"[-0.12517340734788363,0.014320342305897545]",4.0,"[0.07796555002590916,0.10142669959590887]",100.0,"[0.13024024077022037,-0.12436739431915263]",4.0,"[0.014660582146963396,-0.15930981521860865]",4.0,"[0.1477930363529708,0.1143785786398657]",100.0,"[-0.060355232536446195,-0.12248799229992093]",4.0,"[-0.016878585269854564,-0.13271582302342327]",4.0,"[0.16102019888995986,0.028488740734409334]",100.0,"[-0.14704268055287661,-0.12582252195916627]",4.0,"[-0.17735246281584474,-0.023356350025445328]",100.0,"[0.17111661936361366,-0.08693619769292839]",100.0,"[0.0008989351452067923,-0.02796010662458134]",4.0,"[0.10234664539578132,0.15511583812748617]",4.0,"[-0.06682272376208045,0.10958426538187556]",4.0,"[-0.12784258324660738,0.07664969638291455]",100.0,"[0.0762348801596809,-0.15674437134145838]",4.0,"[-0.0713032284762928,-0.02729228012866487]",100.0,"[0.05473839834036045,0.0200159761313366]",4.0,"[-0.18550475616473586,0.03230971880597873]",4.0,"[0.1936886438192616,-0.019405444306947416]",100.0,"[0.02,0.02]",207.7581,0.0,31.0,31.0,172.0,1.0,,,,,,,
,,,,,,,67d13bd326a4f1c00896e233,6842bc061dfbaf502fc2d052,2025-06-06_11h59.59.048,shape_ratio,2024.1.5,Win32,59.88023952,6842b561977af9ba9b0f87ca,,,,,,,,,,,207.7587,208.2522,,,208.5066,208.9024,left,,,,,,,,0.4,0.3708,,,,,,,208.2524,208.5066,208.9027,"[-0.08688546785447963,-0.11521367397702234]",4.0,"[0.02370424964653323,0.06366596074391548]",4.0,"[0.07365662981865509,-0.15173913028556552]",100.0,"[-0.09585115940120041,0.07938829126806117]",4.0,"[0.04335376137170485,0.1480842592340214]",100.0,"[-0.04337577091541548,-0.18074237119339678]",100.0,"[0.13853400151637751,-0.023469547897057796]",100.0,"[-0.01781052532744964,0.09072281200078479]",100.0,"[-0.16594246114340686,0.04073976112834798]",100.0,"[0.09676000475715005,-0.11628436410943475]",100.0,"[-0.046578222003687386,-0.0601965239341642]",4.0,"[0.194363803802283,-0.017073443051306918]",4.0,"[-0.17625123750838093,0.08527746176142324]",4.0,"[-0.047332182583723445,-0.004058071326915897]",100.0,"[0.04850734979784446,0.09559942526120066]",100.0,"[-0.11354867329563573,-0.012791659005394035]",4.0,"[-0.012191922281251363,-0.03916204983573121]",4.0,"[0.010629224093500929,-0.17909039052401915]",4.0,"[0.18480971492134693,0.04710328560479523]",4.0,"[-0.18170267367529233,-0.015155795144875216]",100.0,"[-0.12594676314929876,-0.1470275091833326]",100.0,"[-0.1513594161221619,-0.08494336873287835]",100.0,"[0.0790570664805712,0.1226793345971876]",4.0,"[-0.02951863322333587,0.1974936208092002]",4.0,"[0.1562325926523257,-0.06835015830324208]",4.0,"[0.07440262935683309,0.020231807882051575]",4.0,"[0.00398651508029353,-0.1004729326066266]",100.0,"[-0.08639892122106242,-0.06532136070426987]",4.0,"[0.1183225457651368,0.06037884160495858]",4.0,"[0.10164216330233869,-0.05111660280250356]",4.0,"[0.16723935535784745,0.08516435569812845]",4.0,"[-0.09671724895394632,0.12599937956424104]",4.0,"[0.02,0.02]",210.0015,0.0,32.0,32.0,160.0,1.0,,,,,,,
,,,,,,,67d13bd326a4f1c00896e233,6842bc061dfbaf502fc2d052,2025-06-06_11h59.59.048,shape_ratio,2024.1.5,Win32,59.88023952,6842b561977af9ba9b0f87ca,,,,,,,,,,,210.0034,210.5015,,,210.756,211.2867,left,,,,,,,,0.45,0.5084,,,,,,,210.5017,210.756,211.2868,"[0.10415456599418506,0.07101937762000043]",100.0,"[-0.1517338405484514,0.07671032963225947]",4.0,"[0.05448081631757053,0.025567072989238906]",100.0,"[-0.037380368545086105,-0.07178142336939868]",4.0,"[-0.02128433172175987,-0.1714741623117487]",100.0,"[0.1283295731293561,0.03804347264468606]",4.0,"[-0.11562936812868649,-0.030191545746128323]",4.0,"[0.02100210071321074,-0.1866537360268869]",100.0,"[0.1726518382127083,-0.04935194629526477]",4.0,"[-0.12758414347033284,-0.12416743457707861]",4.0,"[0.0611211201528317,-0.051409790680793675]",4.0,"[0.022211869499045894,0.1913581328254402]",4.0,"[0.06519471176786823,-0.16436595684874175]",100.0,"[-0.1310931079922319,-0.07890537096034415]",4.0,"[0.0517385456825706,0.075438607792368]",4.0,"[-0.16445239907065676,0.028977576872908056]",4.0,"[0.12392846207700937,-0.07603707099626426]",100.0,"[0.16546657188082511,-0.11052860657672425]",4.0,"[-0.026448847551381677,0.08353396045867544]",4.0,"[0.010179755330334014,-0.05537097170849587]",100.0,"[-0.032011255544879595,0.1969977665172716]",100.0,"[-0.060440661051379234,-0.023479332143464645]",100.0,"[0.0858312235999601,-0.12503164882252005]",100.0,"[-0.06926579222364845,0.13335346900393596]",100.0,"[-0.11181117420355918,0.1575749817176272]",4.0,"[0.11712515186846505,0.1318782513267268]",4.0,"[-0.11331125496687569,0.029195696522281933]",4.0,"[0.12255459232941561,-0.14570375146565848]",100.0,"[0.018665756284908533,0.1228906956304613]",4.0,"[-0.08325315139256248,-0.1666632041606572]",100.0,"[-0.035949002351777566,-0.12321578100857754]",100.0,"[0.17574199078705846,0.027104445381468098]",4.0,"[0.02,0.02]",212.3867,0.0,33.0,33.0,139.0,1.0,,,,,,,
,,,,,,,67d13bd326a4f1c00896e233,6842bc061dfbaf502fc2d052,2025-06-06_11h59.59.048,shape_ratio,2024.1.5,Win32,59.88023952,6842b561977af9ba9b0f87ca,,,,,,,,,,,212.3871,212.8844,,,213.1231,213.6845,right,,,,,,,,0.55,0.5349,,,,,,,212.8848,213.1231,213.6848,"[-0.1376421977259337,-0.08022511595956508]",4.0,"[-0.06487384278139237,-0.0975694511254148]",100.0,"[-0.09772809830971003,0.023843104608896378]",4.0,"[0.15950189914363594,-0.011194408355908111]",100.0,"[-0.16624301795741012,0.022713555426423965]",4.0,"[-0.03807642438178973,0.07189966982918797]",100.0,"[-0.019154428462763724,0.02654307303261935]",4.0,"[-0.00686636438363434,-0.11932286236765043]",100.0,"[0.0611208634029466,0.022498731377820765]",4.0,"[0.10025894285651082,0.050075014949706946]",100.0,"[-0.10824832612774377,-0.018814008233608383]",4.0,"[0.0780938864316169,-0.044810456547825575]",4.0,"[0.017836501767858257,0.12532000185219466]",100.0,"[0.04204714726376997,0.087214433749129]",4.0,"[0.030533917047850665,-0.14323179179092013]",100.0,"[-0.09990350454312659,0.16280528541317357]",100.0,"[-0.06393807901082717,-0.18438631316444712]",100.0,"[0.00014523438383920578,0.17099803497309168]",100.0,"[-0.05788758922005116,0.008728250287899001]",4.0,"[0.04948634057926788,-0.07743156112041558]",100.0,"[-0.022198786386529903,-0.061586968014215024]",4.0,"[0.08788488474822351,0.16670964569779598]",100.0,"[0.13260917400015532,0.12912565678096824]",100.0,"[0.08328939284048639,-0.18169911881015136]",100.0,"[-0.024995342900819336,-0.16329025472327005]",4.0,"[-0.11941107593305328,0.12653235847706032]",4.0,"[-0.16312763111800502,-0.11405239440759775]",100.0,"[-0.06312325171879543,0.14144854229834003]",4.0,"[-0.11344541989680965,-0.16198563390616053]",100.0,"[0.1266602654182916,0.08707620482142718]",100.0,"[-0.15669531386978122,0.09168534936824964]",100.0,"[0.012561705088667973,-0.021261706899886545]",4.0,"[0.02,0.02]",214.7841,0.0,34.0,34.0,69.0,1.0,,,,,,,
,,,,,,,67d13bd326a4f1c00896e233,6842bc061dfbaf502fc2d052,2025-06-06_11h59.59.048,shape_ratio,2024.1.5,Win32,59.88023952,6842b561977af9ba9b0f87ca,,,,,,,,,,,214.786,215.2837,,,215.5227,216.2672,left,,,,,,,,0.4,0.7221,,,,,,,215.2839,215.5227,216.2675,"[-0.03548389660537087,-0.024145236101484467]",4.0,"[0.10503506509821303,0.09742407591271454]",4.0,"[-0.10784790273947849,-0.08306279197444957]",100.0,"[0.04074246500151565,-0.09947822405385169]",100.0,"[0.09933433538506989,0.15293034843808834]",100.0,"[0.0695866413818148,0.12206520412856775]",100.0,"[-0.059588555374332504,0.15496513058848466]",100.0,"[-0.1583538718025235,0.0024667620213258204]",4.0,"[-0.17370149011810584,-0.050280570146813384]",4.0,"[0.14343697590864818,-0.12148747862439668]",4.0,"[0.022884341721821706,0.16299429717870295]",4.0,"[0.030269196736663336,-0.041417609073843537]",4.0,"[0.12326486786067603,0.011786100589818594]",100.0,"[-0.04629928500132177,-0.1902259788848233]",4.0,"[-0.024510553153079682,-0.14912738979375714]",100.0,"[0.02120558490992772,0.033096599378677205]",100.0,"[0.10014735126938584,-0.11989473066232581]",4.0,"[-0.01908536218226359,0.16149826764038655]",4.0,"[-0.07884847321868915,0.004223704798705531]",100.0,"[-0.04560147772333285,0.05592599566021039]",4.0,"[-0.10724035449273898,0.09429047612605629]",100.0,"[-0.1621470203332182,0.09732230257638473]",4.0,"[0.06336694831178445,-0.13980911860965922]",4.0,"[-0.18523872751511455,0.0617133662893924]",4.0,"[0.17803163927397372,-0.07643728815412826]",100.0,"[0.11684429364012558,0.05596432026399613]",4.0,"[0.027711878277993842,0.12124123201219941]",4.0,"[0.14849917879594263,0.12177001017189373]",4.0,"[-0.024883908024662584,0.01714742422660115]",100.0,"[0.06351552501791473,-0.18509629255027668]",4.0,"[0.014393564087770185,-0.18820085105223372]",4.0,"[-0.13993902344676026,-0.12521041585068918]",100.0,"[0.02,0.02]",217.3666,0.0,35.0,35.0,162.0,1.0,,,,,,,
,,,,,,,67d13bd326a4f1c00896e233,6842bc061dfbaf502fc2d052,2025-06-06_11h59.59.048,shape_ratio,2024.1.5,Win32,59.88023952,6842b561977af9ba9b0f87ca,,,,,,,,,,,217.368,217.867,,,218.1231,218.8182,right,,,,,,,,0.45,0.6697,,,,,,,217.8672,218.123,218.8182,"[-0.012727598305628326,0.1149065201510113]",100.0,"[0.15503281660951465,-0.09951098595365351]",100.0,"[-0.09818723109644088,-0.02059184915562791]",4.0,"[-0.062005854442893964,0.18012025086084654]",100.0,"[-0.1330834775158079,0.03776318708785516]",4.0,"[0.004811614622022365,-0.07576167578783036]",100.0,"[-0.022673973376405608,-0.13120654347099348]",100.0,"[-0.1869961780715782,0.055352841169985796]",100.0,"[-0.010238330588469048,0.18823439561988495]",100.0,"[-0.0872769751726434,-0.0822052364199231]",100.0,"[0.08450724425382618,0.05802248532312941]",100.0,"[0.17463362423324058,0.08200583390289665]",100.0,"[0.0949759171504429,-0.09633902516763056]",4.0,"[-0.12628178326788844,-0.11976541766817897]",4.0,"[0.04817159824930709,-0.049194210184049465]",100.0,"[-0.0552260401656737,-0.17020033710622698]",4.0,"[0.0731596439969649,-0.13192344615060847]",4.0,"[0.194718384977919,0.04532963128249129]",4.0,"[-0.006535958887580545,0.07162293497020868]",4.0,"[-0.11597665620581843,0.07420255885454566]",4.0,"[-0.03963221011163012,-0.06383675645752288]",4.0,"[-0.010970821519411068,-0.01298909871659081]",4.0,"[0.07425343543409482,0.18084717204789208]",4.0,"[0.12934043570547749,0.049967946673871874]",4.0,"[-0.06744445653181155,0.033788378676696866]",100.0,"[-0.1587711105948529,0.10516349723889676]",4.0,"[-0.0666377954936923,0.10645638446557314]",4.0,"[-0.19042713521235857,-0.03871319564921373]",100.0,"[0.1290596000091124,-0.0002598751640807535]",4.0,"[0.03714674521043847,0.057962320010408186]",100.0,"[-0.1595215838565634,0.0007202864231136088]",4.0,"[0.07658665051884651,0.1071271490388409]",4.0,"[0.02,0.02]",219.9164,0.0,36.0,36.0,138.0,1.0,,,,,,,
,,,,,,,67d13bd326a4f1c00896e233,6842bc061dfbaf502fc2d052,2025-06-06_11h59.59.048,shape_ratio,2024.1.5,Win32,59.88023952,6842b561977af9ba9b0f87ca,,,,,,,,,,,219.9181,220.416,,,220.6713,221.2189,right,,,,,,,,0.6,0.5305,,,,,,,220.4161,220.6713,221.2189,"[-0.06891155434604634,-0.1597559348398626]",4.0,"[0.19325751656950438,0.04491769293836842]",100.0,"[0.16573104279996928,-0.10367642718442828]",4.0,"[0.02764412324762994,-0.08591825291284035]",100.0,"[-0.15771055038115298,-0.054234983248524764]",4.0,"[0.005972992955108789,-0.19466747577701554]",100.0,"[0.11354659181110524,-0.09079648849672495]",100.0,"[0.1011111721342721,0.13326464608658437]",100.0,"[-0.14703429858054046,0.12181617634192587]",100.0,"[-0.009647405236219113,0.16742988972035253]",4.0,"[-0.07695277645583828,-0.08213981792228]",4.0,"[-0.06449087850068021,0.07482291275351015]",100.0,"[0.10273037105103527,0.0030749828849664655]",100.0,"[-0.01785733253768173,-0.12270858985305538]",4.0,"[-0.1524551719268827,-0.1275797326412056]",100.0,"[0.04737865930592223,0.08242016267427495]",4.0,"[-0.06914556651401654,0.015530082554745566]",100.0,"[-0.02621121798253025,0.09860256525989539]",100.0,"[-0.09978397925342081,0.16840391742915053]",100.0,"[0.061801018125070474,-0.14623012290282844]",4.0,"[0.06711367554297304,0.18281075704184516]",4.0,"[0.0026147324819600255,-0.010885929840302126]",4.0,"[-0.10141740766499292,0.11484213382636126]",100.0,"[0.10475274038306656,-0.1304567844370749]",4.0,"[0.15109931855095365,-0.04967735638475892]",100.0,"[0.16627631687341393,0.08231812576808967]",100.0,"[-0.12708036261882263,-0.08423255060626693]",100.0,"[0.17529321215098578,0.008979544991317602]",100.0,"[-0.1378143396402725,0.07630553847003566]",100.0,"[0.028380147606754766,0.02570934649948673]",100.0,"[-0.14978382459293987,-0.013226009932523364]",4.0,"[-0.02453652155481585,-0.052059213810483305]",4.0,"[0.02,0.02]",222.3157,0.0,37.0,37.0,48.0,1.0,,,,,,,
,,,,,,,67d13bd326a4f1c00896e233,6842bc061dfbaf502fc2d052,2025-06-06_11h59.59.048,shape_ratio,2024.1.5,Win32,59.88023952,6842b561977af9ba9b0f87ca,,,,,,,,,,,222.3176,222.8154,,,223.0538,223.7499,left,,,,,,,,0.5,0.6689,,,,,,,222.8156,223.0538,223.7504,"[0.16029837531484062,-0.04082433643402785]",4.0,"[0.0026729736145708646,0.07331955877472741]",100.0,"[0.03896706236874042,0.15670941822225168]",4.0,"[0.15402309676966983,0.0903726601739788]",100.0,"[-0.0032002736634192306,-0.02073419573725496]",4.0,"[0.13914496381108463,-0.13379045315938495]",4.0,"[-0.07049066011446489,-0.07432072080105619]",4.0,"[0.0431614409765619,-0.0961411299968187]",100.0,"[0.02805008324670397,-0.15929355065230905]",100.0,"[0.0845398409814,0.061974945285847606]",4.0,"[0.11356636402354016,0.019369648530090447]",4.0,"[-0.1578722035032116,-0.09291990687227987]",4.0,"[0.06221339704883042,-0.05175837974131301]",4.0,"[0.08516843232485188,-0.17624338369827758]",100.0,"[-0.08316980589174104,0.12305399589059046]",100.0,"[-0.09758016125655548,0.019717652573678676]",100.0,"[0.050942252261607354,-0.001239599838343941]",100.0,"[-0.1587553287382487,-0.0016235187643019269]",100.0,"[-0.14575076993404126,0.0845176172999038]",4.0,"[-0.023815836875724427,0.14318466460995152]",4.0,"[-0.09760121361131543,-0.041896021550284844]",100.0,"[-0.0230370334785711,-0.16945021845369207]",100.0,"[0.12960534658660888,-0.06757116904938736]",100.0,"[-0.06611239382087523,0.17771634683639176]",4.0,"[0.08283691838834127,-0.1223075156921992]",4.0,"[-0.19982470695348917,-0.004564914859914081]",100.0,"[-0.033867386257636835,0.026385460238756642]",100.0,"[-0.0898435318481489,-0.12603242521972247]",100.0,"[0.030724452658637484,0.03700028522143095]",4.0,"[-0.13579337241903344,0.039668364493600006]",100.0,"[-0.05979539679482728,-0.008687435507676419]",4.0,"[-0.11138917972761851,-0.08237396997529851]",4.0,"[0.02,0.02]",224.8484,0.0,38.0,38.0,98.0,1.0,,,,,,,
,,,,,,,67d13bd326a4f1c00896e233,6842bc061dfbaf502fc2d052,2025-06-06_11h59.59.048,shape_ratio,2024.1.5,Win32,59.88023952,6842b561977af9ba9b0f87ca,,,,,,,,,,,224.8498,225.3486,,,225.5875,226.068,left,,,,,,,,0.4,0.4637,,,,,,,225.3488,225.5874,226.068,"[0.024326678448937343,-0.11838940238438839]",4.0,"[0.08631828437110932,0.095097816766166]",100.0,"[0.1407690491366962,0.06760909816861421]",4.0,"[0.11389648553722455,-0.11549555185411707]",100.0,"[-0.1859340001040428,-0.02377699446121165]",100.0,"[0.045298317500404285,0.1903491675228056]",4.0,"[0.01610246301445205,-0.05944562810074665]",4.0,"[-0.1790013401163525,0.0768660398887194]",4.0,"[0.008989283237947178,0.17245498784362007]",100.0,"[0.011582979689245888,0.09583301397436766]",4.0,"[0.03401748764868929,0.13262206385102726]",4.0,"[-0.08045306071924221,0.1267222829617773]",100.0,"[-0.0967678388950004,0.05159547350644995]",4.0,"[-0.016097347114078727,0.03732390713956776]",4.0,"[0.15915402440672338,0.10632233261552612]",4.0,"[-0.10788761320448122,-0.14522493058224528]",100.0,"[0.0939305713742457,-0.05946431878254705]",4.0,"[-0.08640010012906624,-0.09369610953182829]",100.0,"[-0.04396781602571622,-0.032331294535820454]",100.0,"[0.1398041795446957,0.0017035815719337482]",100.0,"[-0.0291157444491537,-0.1334439494678683]",100.0,"[0.06391372396736744,-0.09625450536767026]",100.0,"[-0.1360870363191411,-0.10100488044558549]",4.0,"[-0.13471474373078315,0.10506962530276635]",4.0,"[0.044041893734941606,-0.0012990395686594317]",4.0,"[-0.002937336246504511,-0.17606238846691036]",4.0,"[0.034193134832786035,0.05184020394870907]",4.0,"[0.17546229405551694,-0.06461498768219881]",4.0,"[0.10802481596614892,0.1657969122658107]",4.0,"[-0.1760731181863788,0.0210433228499827]",100.0,"[-0.024868581506847048,0.14654818768242828]",4.0,"[-0.033053300288198015,0.1862129798842503]",100.0,"[0.02,0.02]",227.1648,0.0,39.0,39.0,163.0,1.0,,,,,,,
,,,,,,,67d13bd326a4f1c00896e233,6842bc061dfbaf502fc2d052,2025-06-06_11h59.59.048,shape_ratio,2024.1.5,Win32,59.88023952,6842b561977af9ba9b0f87ca,,,,,,,,,,,227.1666,227.6648,,,227.9155,228.4307,right,,,,,,,,0.5,0.4997,,,,,,,227.6649,227.9154,228.4308,"[0.014691368385647987,-0.018917476909596012]",100.0,"[0.1210495316911601,-0.004076629423620389]",100.0,"[-0.06297790635541689,0.16124220281543222]",100.0,"[-0.06438969175703553,-0.006742844111540432]",100.0,"[0.08948102496690263,0.14614216528455964]",100.0,"[0.1482466702534585,0.09908689898193838]",4.0,"[0.04228703992866109,-0.06616510184887668]",4.0,"[0.038776319649409224,0.11394930469263403]",100.0,"[-0.08012386441420002,0.07959472151515469]",100.0,"[0.1649626482601973,0.05417397601800489]",100.0,"[0.061421864937623395,-0.16994575724971808]",4.0,"[-0.13967595793642473,0.12073560677109343]",100.0,"[-0.14463376750046714,0.012519844022327366]",4.0,"[-0.034455039470830874,-0.05118822342022624]",100.0,"[-0.11601043166067393,-0.034463082152763364]",4.0,"[-0.0903724420213042,0.026377358692288997]",4.0,"[-0.15659023579405051,-0.08792729525879693]",4.0,"[-0.08113520817830522,-0.09081417496141704]",4.0,"[-0.19301765770635476,0.008394625425873534]",4.0,"[-0.005549005317976877,0.15234598223821944]",100.0,"[0.060836784480774085,0.07382935779690902]",4.0,"[-0.03357227252847792,0.020901814363763815]",4.0,"[-0.19419291668070773,-0.039729125019564646]",4.0,"[0.06747075232187058,0.18458206065000551]",100.0,"[0.14527518580963644,-0.09084451867664305]",100.0,"[0.08425039791089536,-0.04532996873870145]",100.0,"[0.09760009397026097,-0.12198405518810777]",100.0,"[0.1924446808092802,-0.020441745012776805]",4.0,"[-0.048467793432358235,0.11018076878595585]",100.0,"[0.08181768258779139,0.02011151370821844]",4.0,"[0.0030308402869038227,-0.07947513804557081]",4.0,"[0.11885738164970523,0.05770401613366586]",4.0,"[0.02,0.02]",229.5311,0.0,40.0,40.0,90.0,1.0,,,,,,,
,,,,,,,67d13bd326a4f1c00896e233,6842bc061dfbaf502fc2d052,2025-06-06_11h59.59.048,shape_ratio,2024.1.5,Win32,59.88023952,6842b561977af9ba9b0f87ca,,,,,,,,,,,229.5325,230.0306,,,230.2813,230.6975,right,,,,,,,,0.9,0.4015,,,,,,,230.0306,230.2813,230.6975,"[0.11947167704198154,-0.055763376247706976]",100.0,"[0.006392237160278082,0.13948168861364255]",100.0,"[-0.1286324782895245,0.1510799643032255]",100.0,"[-0.05998190362568716,0.16811088823078094]",4.0,"[-0.04080853825182788,-0.014737376592720423]",100.0,"[0.16661320721552933,-0.08411258234529169]",100.0,"[-0.01853405028415558,-0.1639792985678318]",100.0,"[0.0010469756408852562,-0.04695601648585593]",4.0,"[-0.0504623936424215,-0.09054574074868225]",100.0,"[-0.14621870590172967,-0.06830966362762332]",100.0,"[0.04119875514162462,-0.01474395515329654]",100.0,"[0.010750458014511275,0.019245432706321414]",100.0,"[-0.052997007651111386,0.10955677698545968]",100.0,"[0.06819652838884843,0.04396545465845002]",4.0,"[0.11008716212448524,0.008871940795154366]",100.0,"[-0.0865488309054743,-0.030812705891796376]",100.0,"[-0.024312076054274597,0.19317004183878356]",100.0,"[-0.18982282602393627,0.04233205697386432]",100.0,"[0.15979744618377176,-0.004614494460351128]",100.0,"[-0.05957018110126226,-0.17906349653238512]",100.0,"[0.10844908132745895,0.06466086922378034]",100.0,"[-0.14590735484502287,0.08537797117208465]",100.0,"[-0.11001736468766195,0.01249855612597841]",100.0,"[-0.09895639980729136,-0.09860506313764791]",100.0,"[-0.10153097034029283,-0.1470251264041368]",100.0,"[0.02248800199863676,-0.16596247987579815]",100.0,"[0.02702913346832509,-0.10646953835349213]",100.0,"[0.13724857261289045,0.11037283603909837]",100.0,"[0.07526168976952484,0.10577689005770353]",100.0,"[0.13431398833467095,-0.1426963079359031]",100.0,"[-0.06507646357006915,0.01778715099880755]",100.0,"[0.08591447260238241,-0.13547828160002806]",100.0,"[0.02,0.02]",231.7967,0.0,41.0,41.0,9.0,1.0,,,,,,,
,,,,,,,67d13bd326a4f1c00896e233,6842bc061dfbaf502fc2d052,2025-06-06_11h59.59.048,shape_ratio,2024.1.5,Win32,59.88023952,6842b561977af9ba9b0f87ca,,,,,,,,,,,231.7974,232.2967,,,232.5524,233.098,right,,,,,,,,0.6,0.5277,,,,,,,232.2968,232.5524,233.0981,"[-0.057173866381134995,-0.003375821646926721]",4.0,"[0.1579226445679994,0.015961055091216196]",4.0,"[-0.11380846107994479,-0.051147978447633455]",100.0,"[0.013975374697704388,0.03803333350987964]",100.0,"[0.004392754091042998,0.1366037388475472]",4.0,"[0.07687122991711534,-0.12926431998686266]",100.0,"[0.08837556523107808,-0.004792041419590844]",100.0,"[-0.13219055900530627,-0.14788231437214724]",100.0,"[0.12923613708652465,-0.08353420272459565]",4.0,"[-0.1358230039328941,-0.10651076583265941]",100.0,"[0.0039984617510620815,0.19529135090481214]",100.0,"[-0.1555283606300107,0.0769920348733534]",4.0,"[-0.0013454906148533097,-0.17571455645280476]",100.0,"[-0.0274413389967756,0.06208822704164391]",100.0,"[0.1761472022826765,-0.08867343181322346]",100.0,"[0.11982723982666844,0.1381303193803797]",100.0,"[0.15801953932871082,-0.029464195530328866]",4.0,"[0.052852273748533914,0.1265824346856307]",4.0,"[-0.008037802604912669,-0.07696132024628334]",100.0,"[-0.035228507879582684,-0.12947295106701365]",100.0,"[-0.06055070153493017,0.18431367755076303]",4.0,"[0.07381544254925777,-0.06509234821254103]",4.0,"[-0.07942824652507881,-0.18354906103399543]",100.0,"[-0.052386724860842684,-0.08856566383864935]",4.0,"[-0.12998253199809687,0.027089575794395124]",4.0,"[-0.16683374017861435,-0.04172547937032405]",100.0,"[-0.1743281238309388,0.022870641936769465]",100.0,"[0.1160078952459064,0.07863235392997744]",100.0,"[-0.07400049699230957,0.12665585620022363]",100.0,"[0.19881116113826605,0.012774105325094815]",4.0,"[0.05728150408422342,-0.18152197723243602]",100.0,"[0.019479577456060104,-0.028785673494351256]",4.0,"[0.02,0.02]",234.1966,0.0,42.0,42.0,49.0,1.0,,,,,,,
,,,,,,,67d13bd326a4f1c00896e233,6842bc061dfbaf502fc2d052,2025-06-06_11h59.59.048,shape_ratio,2024.1.5,Win32,59.88023952,6842b561977af9ba9b0f87ca,,,,,,,,,,,234.1983,234.6964,,,234.9349,235.1867,left,,,,,,,,0.55,0.2341,,,,,,,234.6965,234.9349,235.1868,"[0.05042904813404352,0.16529027142572963]",100.0,"[0.13044619267000038,0.0270243516045621]",4.0,"[0.12242969731799797,-0.06463067491194291]",4.0,"[0.11566279446743556,-0.11655759299992409]",100.0,"[-0.01446905861602327,0.09460503450848386]",4.0,"[-0.04504632234988355,0.01563512686975145]",100.0,"[0.009912468556863743,-0.025721391601876278]",4.0,"[-0.00939309344118626,-0.1630874456623427]",100.0,"[0.15603318175720238,-0.03176608226978669]",4.0,"[-0.04174152319905307,-0.07922322842685654]",100.0,"[-0.06705113817940166,-0.15794830490613454]",100.0,"[-0.029254019941473704,0.18046415238461797]",4.0,"[-0.10483667789361453,0.0249182672791946]",4.0,"[0.11236328311241335,0.11659492447202487]",4.0,"[-0.1578624546255086,0.0008584035633737493]",4.0,"[0.0013187376105755113,0.048920464665112476]",100.0,"[0.0718885405706904,0.014859456191022885]",100.0,"[0.05232317008982787,-0.14573531147928726]",100.0,"[-0.1675383326609978,0.0655649014203949]",4.0,"[-0.12812418343942972,-0.10377498912105562]",100.0,"[-0.13886029206729064,0.138312332127714]",4.0,"[-0.10676468987754727,0.10964920110422345]",4.0,"[-0.08670231201070613,0.1647080241112169]",100.0,"[0.0917336417091908,0.16570318206790366]",100.0,"[-0.015068773243936115,-0.11774925024030429]",100.0,"[0.07571140048038696,-0.04767773420987018]",100.0,"[0.054867231727674805,0.06197897435719832]",4.0,"[-0.09720058666341569,-0.027714981086808078]",100.0,"[0.1598260902274853,-0.09821228262574859]",100.0,"[0.13602029808123398,0.08086929276498664]",100.0,"[-0.05852485504323693,0.07668910252609483]",4.0,"[-0.1731413681793696,-0.09760589887977625]",100.0,"[0.02,0.02]",236.2794,0.0,43.0,43.0,68.0,1.0,,,,,,,
,,,,,,,67d13bd326a4f1c00896e233,6842bc061dfbaf502fc2d052,2025-06-06_11h59.59.048,shape_ratio,2024.1.5,Win32,59.88023952,6842b561977af9ba9b0f87ca,,,,,,,,,,,236.2811,236.7793,,,237.0176,237.2473,left,,,,,,,,0.4,0.2132,,,,,,,236.7794,237.0176,237.2475,"[-0.07136255554597225,-0.006131426766579246]",100.0,"[0.12593481647072433,-0.10624354809533298]",4.0,"[-0.07670139600282577,-0.155522678463579]",4.0,"[-0.16131279562069972,0.096291607303026]",100.0,"[0.14231472797221287,-0.03163987369541913]",4.0,"[-0.06097451043282466,0.1275369456997317]",4.0,"[-0.1685798009560862,0.006333379310948231]",100.0,"[0.02673114605500505,-0.09102728311596102]",4.0,"[-0.021587150501058354,-0.1517872831959029]",100.0,"[-0.10595049902472403,0.01743733656375907]",100.0,"[0.05226400958977848,-0.03238136727143176]",4.0,"[-0.08297627046956882,0.086607595755346]",4.0,"[-0.12288356501793783,-0.08184366641993093]",4.0,"[0.1805941017240405,-0.004691628639767377]",100.0,"[-0.0241236981464516,0.06498863270253376]",4.0,"[-0.1323382574563056,-0.03831125781276965]",100.0,"[-0.18913217988524597,-0.04289847312667341]",100.0,"[0.023671546345864894,0.1652245568528786]",4.0,"[0.18070061266341744,0.06561667337117444]",100.0,"[-0.03691575607591323,-0.07939977438748588]",4.0,"[0.09260994095022816,0.011121085413708414]",4.0,"[0.0645435246398483,0.17259936709165935]",100.0,"[-0.0021270598741214303,0.09915998041816207]",4.0,"[0.11495256807562867,0.1110393597077606]",100.0,"[-0.07856879464373133,0.17943818047076746]",4.0,"[0.08505525633951362,0.07417427801694303]",100.0,"[-0.11469304520883478,-0.1296929403970959]",4.0,"[0.015839221638576293,-0.18268795165173382]",100.0,"[0.1367870145828971,0.01776426621577884]",4.0,"[0.07111953110124762,0.12761273234451473]",4.0,"[0.029742696102568078,0.011119894476957663]",4.0,"[0.06906685604070158,-0.10459963602026574]",4.0,"[0.02,0.02]",238.3459,0.0,44.0,44.0,156.0,1.0,,,,,,,
,,,,,,,67d13bd326a4f1c00896e233,6842bc061dfbaf502fc2d052,2025-06-06_11h59.59.048,shape_ratio,2024.1.5,Win32,59.88023952,6842b561977af9ba9b0f87ca,,,,,,,,,,,238.3478,238.8457,,,239.1001,239.3513,left,,,,,,,,0.5,0.2332,,,,,,,238.8458,239.1001,239.3513,"[0.048642204820099774,-0.10671346576825132]",100.0,"[-0.1436486282067047,-0.13667703597131933]",4.0,"[-0.05937716388622031,0.10897234540783932]",4.0,"[0.12091587242902474,-0.12057941871744932]",4.0,"[-0.09527866001455393,0.04317282699095731]",4.0,"[0.14130513418253396,-0.03703423180390567]",4.0,"[0.008372573754031023,0.10634402830023613]",100.0,"[-0.1839584849215274,0.02878130243942734]",4.0,"[0.09398298325549695,0.1622979244697313]",4.0,"[-0.060127961041869946,0.1681461781874116]",100.0,"[-0.08602936852205963,-0.13868088414786203]",4.0,"[0.17953805886611995,0.0009861804583413832]",100.0,"[0.00883581593315117,-0.0856893220424328]",100.0,"[-0.001465251965882462,-0.15071064148708627]",4.0,"[0.09760456099691307,-0.1710513052375264]",100.0,"[-0.17904342419748762,-0.07977539974817562]",100.0,"[-0.11737069086077241,-0.0023130335587162112]",100.0,"[-0.09391086584275896,0.14047340701812272]",100.0,"[-0.17918023600449712,-0.03246971448651529]",100.0,"[-0.006079446596125433,0.19619327336631007]",100.0,"[-0.11915599876437354,-0.08530027485970251]",4.0,"[-0.1559038971281564,0.08043054678480206]",4.0,"[0.08963851548949525,0.08565809107090866]",4.0,"[-0.052517971185004855,-0.17645071742249166]",4.0,"[-0.030798290058878866,-0.060449433759110105]",4.0,"[0.0038963819833871104,-0.00489297893417388]",100.0,"[-0.0509189392622172,-0.1039580382394359]",100.0,"[0.0356335089030453,-0.0396145423443133]",4.0,"[0.1634433809368238,0.047599761552940587]",100.0,"[-0.054566416271388446,0.022049230647584007]",4.0,"[0.056193204599707336,0.14473040843386112]",100.0,"[0.14944953179025278,0.10940014004798922]",100.0,"[0.02,0.02]",240.4453,0.0,45.0,45.0,118.0,1.0,,,,,,,
,,,,,,,67d13bd326a4f1c00896e233,6842bc061dfbaf502fc2d052,2025-06-06_11h59.59.048,shape_ratio,2024.1.5,Win32,59.88023952,6842b561977af9ba9b0f87ca,,,,,,,,,,,240.4468,240.9449,,,241.1845,241.648,left,,,,,,,,0.4,0.4468,,,,,,,240.9451,241.1845,241.6481,"[-0.04894591980413339,-0.040240350197416855]",4.0,"[0.10768072095656603,0.03638905822978772]",4.0,"[0.026735842024160926,-0.146980236444456]",100.0,"[0.14210456388280227,0.06441619244573708]",4.0,"[-0.1610187524487021,0.025364792426915948]",4.0,"[-0.16591295442878742,0.08440192472318578]",4.0,"[-0.10937643658426398,0.08399249029009513]",100.0,"[0.1268609398181391,-0.019091404015226663]",100.0,"[-0.09155442479918174,-0.015184878323770048]",100.0,"[-0.049619183259940414,0.18292593049363057]",4.0,"[-0.002426398117944995,-0.06771206750801968]",100.0,"[-0.07003738652944902,-0.11194653216147854]",100.0,"[0.04277065362702959,0.0993619766784568]",4.0,"[0.06914855301393681,0.13897834857691355]",100.0,"[0.1715695499479683,-0.01861282398208644]",4.0,"[-0.021516917017842578,-0.14279265392848065]",4.0,"[0.05209121834043252,-0.01884652178611196]",4.0,"[0.09571643707373306,0.17105168973633975]",4.0,"[-0.10955410965669533,-0.12859646014207687]",100.0,"[0.03201795034165479,0.17577828627662]",4.0,"[-0.11900409903576063,0.15065796987264024]",4.0,"[-0.10021506008441143,-0.07968718373556673]",4.0,"[-0.15036663277577478,-0.08155289395411212]",4.0,"[-0.04239835158882289,0.04735717121103268]",4.0,"[-0.006556868517413457,-0.004186036970751678]",4.0,"[0.1354446901005143,-0.10559166182700647]",100.0,"[-0.025714242908006536,0.13549810813477833]",100.0,"[0.02142520120208219,0.032302157489066195]",100.0,"[0.06599914843822254,-0.07815627223043632]",4.0,"[0.06614227805741157,-0.16364432307570723]",4.0,"[0.10167607297228591,0.09574203075327649]",100.0,"[0.16273506404959687,0.11567905524019839]",100.0,"[0.02,0.02]",242.7446,0.0,46.0,46.0,164.0,1.0,,,,,,,
,,,,,,,67d13bd326a4f1c00896e233,6842bc061dfbaf502fc2d052,2025-06-06_11h59.59.048,shape_ratio,2024.1.5,Win32,59.88023952,6842b561977af9ba9b0f87ca,,,,,,,,,,,242.7463,243.2449,,,243.5001,243.9171,right,,,,,,,,0.55,0.3999,,,,,,,243.2451,243.5001,243.9171,"[-0.09357273792991841,-0.11711446853126177]",100.0,"[-0.0331579063567485,-0.1215067383463054]",4.0,"[0.11035954605864469,-0.14546483564342472]",4.0,"[0.09093690582212872,0.039283310107716476]",100.0,"[-0.13823418720017053,-0.12515156309409362]",100.0,"[-0.07807804140925957,-0.048979732135348474]",100.0,"[0.012730157817111445,-0.016890414944561272]",4.0,"[-0.19812402607640123,-0.019213379821354813]",100.0,"[-0.18848333314867918,0.04287571206256709]",100.0,"[0.07238352497558284,-0.10482954908863747]",100.0,"[0.1325020305596675,-0.07867696950733812]",4.0,"[0.010480553196740459,0.02512214749695924]",4.0,"[0.046265891840954435,0.1471658757556956]",4.0,"[-0.04502383950222837,0.1437544262295821]",100.0,"[0.0030727578829083117,0.1698304170769594]",4.0,"[0.025454824560414983,-0.13635380255474178]",100.0,"[0.1808283219019656,0.041144896227766035]",4.0,"[-0.12583796119762433,0.05457342488208557]",4.0,"[0.08514589294053566,-0.037004182945802745]",4.0,"[-0.009433718060795607,-0.1940564935826629]",100.0,"[0.14653477733842707,0.004767446206459938]",100.0,"[-0.0731301354713357,-0.1830540184583813]",100.0,"[-0.030190482585478722,-0.003117920174105571]",100.0,"[-0.17028353861668544,-0.09704498910835221]",4.0,"[0.14284634076467717,0.1197556340227278]",4.0,"[-0.029165735011588208,-0.08069673902924786]",100.0,"[-0.11077521255712362,0.0007121825910852575]",100.0,"[0.034958300387885284,-0.051098236983370994]",4.0,"[-0.09790108892868454,0.11387617263133423]",4.0,"[-0.06211891662405867,0.06406374337926286]",100.0,"[0.07169373649553781,0.08772135100813028]",100.0,"[0.05734877223080104,-0.18060208105319853]",100.0,"[0.02,0.02]",245.0163,0.0,47.0,47.0,61.0,1.0,,,,,,,
,,,,,,,67d13bd326a4f1c00896e233,6842bc061dfbaf502fc2d052,2025-06-06_11h59.59.048,shape_ratio,2024.1.5,Win32,59.88023952,6842b561977af9ba9b0f87ca,,,,,,,,,,,245.0166,245.5112,,,245.7668,245.9945,right,,,,,,,,0.9,0.2052,,,,,,,245.5113,245.7668,245.9947,"[-0.07427080592951182,-0.13306272831462923]",100.0,"[-0.13603523912486412,0.14081801096420762]",100.0,"[0.1499106604901613,0.05921288012042407]",100.0,"[0.043905041537497164,-0.1536760337586879]",4.0,"[-0.03463885310454324,0.019047421668228648]",100.0,"[0.05472866075020957,-0.011336953355990163]",4.0,"[0.07835741355924024,0.1060278020804208]",100.0,"[0.009192999551247447,0.18904911191509355]",100.0,"[0.08109348920969013,-0.0487562742650982]",100.0,"[0.0473530113094043,0.13178166698293264]",4.0,"[-0.17903487696121034,0.05903429888634509]",100.0,"[0.07361945632090802,0.04970441212119439]",100.0,"[-0.03384143133101866,-0.12303348844728011]",100.0,"[-0.07366995375398588,0.08447113281808225]",100.0,"[0.010926933304647725,-0.012417617318201988]",100.0,"[-0.132292067029508,0.08535673997682182]",100.0,"[0.16557288577874923,-0.09429358590012706]",100.0,"[0.008469836056968705,-0.1083908647125288]",100.0,"[0.06477273149338976,-0.0998420132060402]",100.0,"[-0.1904236959153854,0.0041913222000753685]",100.0,"[0.09683710743206314,0.16819955197782893]",100.0,"[-0.12787158871469362,-0.1060675420548018]",100.0,"[0.16287786850249908,-0.03683186906709737]",100.0,"[-0.12739986045059215,-0.04837926373234556]",100.0,"[0.16548932956666804,0.10451400223681949]",100.0,"[-0.019520271398635585,0.09873041370067925]",100.0,"[-0.15145834427798868,0.016244634796390434]",100.0,"[0.11561103336678578,0.003697484269698571]",100.0,"[-0.04480344445567775,-0.19490930082351834]",100.0,"[0.004955454598529965,0.13837154770068066]",100.0,"[-0.04457797288616312,0.1751056512001012]",100.0,"[0.19461727334232692,0.0027277446457373584]",100.0,"[0.02,0.02]",247.094,0.0,48.0,48.0,12.0,1.0,,,,,,,
,,,,,,,67d13bd326a4f1c00896e233,6842bc061dfbaf502fc2d052,2025-06-06_11h59.59.048,shape_ratio,2024.1.5,Win32,59.88023952,6842b561977af9ba9b0f87ca,,,,,,,,,,,247.0957,247.5938,,,247.8332,248.2444,right,,,,,,,,0.5,0.3841,,,,,,,247.5939,247.8332,248.2447,"[0.011198498299284043,-0.14071061017961964]",4.0,"[0.060760199707078015,0.05310159572238081]",100.0,"[0.12446530863181503,0.11108002004963115]",100.0,"[-0.19792972792820768,0.02269100106946707]",4.0,"[0.02165083025770635,0.09534344166926646]",4.0,"[-0.139731397983728,0.07206921798221991]",100.0,"[0.1792580140827449,0.01785178720120083]",100.0,"[0.07070514951025493,-0.06996017798329444]",100.0,"[-0.19022660013846066,-0.05168126615813188]",4.0,"[0.09714631288757967,-0.1277859283252926]",100.0,"[-0.01358905708372733,-0.0619755244794412]",4.0,"[-0.1270149523290924,-0.13271490643973033]",4.0,"[-0.12765319197802777,-0.04997768445011837]",100.0,"[-0.1014974008925829,0.13190741521920563]",4.0,"[0.02074211779892349,0.14502212311778168]",4.0,"[0.03789347515145796,-0.19493534154643546]",4.0,"[0.06153502113346651,0.14829135616300368]",4.0,"[0.14806001280120312,0.04453650971129184]",4.0,"[-0.10860371446122667,0.04561205112669855]",4.0,"[-0.026848619509935133,0.14691858825075158]",100.0,"[-0.05302002197784395,-0.004337325631913577]",4.0,"[-0.07301134616227264,0.07120211923206715]",4.0,"[0.009895668383294726,0.03961161619307243]",100.0,"[-0.06610557974146607,0.11123709594709477]",100.0,"[-0.08013819587900334,-0.08885489456618004]",100.0,"[-0.14413941241797468,-0.08942685643689768]",4.0,"[-0.11031312166754954,-0.006678370808010667]",100.0,"[-0.0005055261255369378,-0.18331885468363468]",100.0,"[0.14669483519147766,-0.03329178112847824]",100.0,"[-0.08799207635476237,-0.15380555088362588]",4.0,"[0.07578496658042376,-0.029318851497779866]",100.0,"[0.17024543546985468,-0.09496634909981952]",100.0,"[0.02,0.02]",249.3438,0.0,49.0,49.0,102.0,1.0,,,,,,,
