right,left,explain.started,explain.stopped,key_resp_3.keys,key_resp_3.rt,key_resp_3.duration,participant,session,date,expName,psychopyVersion,OS,frameRate,study_id,explain_2.started,explain_2.stopped,key_resp_4.keys,key_resp_4.rt,key_resp_4.duration,explain_3.started,explain_3.stopped,key_resp_5.keys,key_resp_5.rt,key_resp_5.duration,fixation.started,fixation.stopped,practice.started,practice.stopped,response.started,response.stopped,key_resp.keys,key_resp.rt,key_resp.duration,feedback.started,feedback.stopped,trials_2.thisRepN,trials_2.thisTrialN,trials_2.thisN,trials_2.thisIndex,trials_2.ran,dot_ratio,explain_4.started,explain_4.stopped,key_resp_6.keys,key_resp_6.rt,key_resp_6.duration,dotDisplay.started,dotDisplay.stopped,ITI.started,polygon_1.pos,polygon_1.edges,polygon_2.pos,polygon_2.edges,polygon_3.pos,polygon_3.edges,polygon_4.pos,polygon_4.edges,polygon_5.pos,polygon_5.edges,polygon_6.pos,polygon_6.edges,polygon_7.pos,polygon_7.edges,polygon_8.pos,polygon_8.edges,polygon_9.pos,polygon_9.edges,polygon_10.pos,polygon_10.edges,polygon_11.pos,polygon_11.edges,polygon_12.pos,polygon_12.edges,polygon_13.pos,polygon_13.edges,polygon_14.pos,polygon_14.edges,polygon_15.pos,polygon_15.edges,polygon_16.pos,polygon_16.edges,polygon_17.pos,polygon_17.edges,polygon_18.pos,polygon_18.edges,polygon_19.pos,polygon_19.edges,polygon_20.pos,polygon_20.edges,polygon_21.pos,polygon_21.edges,polygon_22.pos,polygon_22.edges,polygon_23.pos,polygon_23.edges,polygon_24.pos,polygon_24.edges,polygon_25.pos,polygon_25.edges,polygon_26.pos,polygon_26.edges,polygon_27.pos,polygon_27.edges,polygon_28.pos,polygon_28.edges,polygon_29.pos,polygon_29.edges,polygon_30.pos,polygon_30.edges,polygon_31.pos,polygon_31.edges,polygon_32.pos,polygon_32.edges,dot_size,ITI.stopped,trials.thisRepN,trials.thisTrialN,trials.thisN,trials.thisIndex,trials.ran,break_2.started,break_2.stopped,trials_3.thisRepN,trials_3.thisTrialN,trials_3.thisN,trials_3.thisIndex,trials_3.ran
subject chose diamond,subject chose dot,0.0008,72.2482,space,57.2385,,67d8270aba9f1c19f16caa6c,68442bf662fd7b9d3083b682,2025-06-07_14h13.41.959,shape_ratio,2024.1.5,Win32,59.88023952,684250e4f00cb30b92d1fa88,,,,,,,,,,,,,,,,,,,,,,,,,,,,,,,,,,,,,,,,,,,,,,,,,,,,,,,,,,,,,,,,,,,,,,,,,,,,,,,,,,,,,,,,,,,,,,,,,,,,,,,,,,,,,,,,,
,,,,,,,67d8270aba9f1c19f16caa6c,68442bf662fd7b9d3083b682,2025-06-07_14h13.41.959,shape_ratio,2024.1.5,Win32,59.88023952,684250e4f00cb30b92d1fa88,72.2485,108.895,space,6.6285,,,,,,,,,,,,,,,,,,,,,,,,,,,,,,,,,,,,,,,,,,,,,,,,,,,,,,,,,,,,,,,,,,,,,,,,,,,,,,,,,,,,,,,,,,,,,,,,,,,,,,,,,,,,,
,,,,,,,67d8270aba9f1c19f16caa6c,68442bf662fd7b9d3083b682,2025-06-07_14h13.41.959,shape_ratio,2024.1.5,Win32,59.88023952,684250e4f00cb30b92d1fa88,,,,,,108.8952,113.3647,space,1.4498,,,,,,,,,,,,,,,,,,,,,,,,,,,,,,,,,,,,,,,,,,,,,,,,,,,,,,,,,,,,,,,,,,,,,,,,,,,,,,,,,,,,,,,,,,,,,,,,,,,,,,,,
,,,,,,,67d8270aba9f1c19f16caa6c,68442bf662fd7b9d3083b682,2025-06-07_14h13.41.959,shape_ratio,2024.1.5,Win32,59.88023952,684250e4f00cb30b92d1fa88,,,,,,,,,,,113.3873,113.8787,113.8793,114.1292,114.1293,114.8807,left,0.7234,,114.8809,115.9789,0.0,0.0,0.0,1.0,1.0,0.8,,,,,,,,,,,,,,,,,,,,,,,,,,,,,,,,,,,,,,,,,,,,,,,,,,,,,,,,,,,,,,,,,,,,,,,,,,,,,,,,,,,,,,
,,,,,,,67d8270aba9f1c19f16caa6c,68442bf662fd7b9d3083b682,2025-06-07_14h13.41.959,shape_ratio,2024.1.5,Win32,59.88023952,684250e4f00cb30b92d1fa88,,,,,,,,,,,115.9796,116.4796,116.4797,116.7289,116.7289,117.3622,left,0.6199,,117.3624,118.4619,0.0,1.0,1.0,0.0,1.0,0.2,,,,,,,,,,,,,,,,,,,,,,,,,,,,,,,,,,,,,,,,,,,,,,,,,,,,,,,,,,,,,,,,,,,,,,,,,,,,,,,,,,,,,,
,,,,,,,67d8270aba9f1c19f16caa6c,68442bf662fd7b9d3083b682,2025-06-07_14h13.41.959,shape_ratio,2024.1.5,Win32,59.88023952,684250e4f00cb30b92d1fa88,,,,,,,,,,,,,,,,,,,,,,,,,,,,118.4625,125.8303,space,4.3607,,,,,,,,,,,,,,,,,,,,,,,,,,,,,,,,,,,,,,,,,,,,,,,,,,,,,,,,,,,,,,,,,,,,,,,,,,,,,,,,,,
,,,,,,,67d8270aba9f1c19f16caa6c,68442bf662fd7b9d3083b682,2025-06-07_14h13.41.959,shape_ratio,2024.1.5,Win32,59.88023952,684250e4f00cb30b92d1fa88,,,,,,,,,,,125.8444,126.3314,,,126.5807,127.1971,right,0.6034,,,,,,,,,0.6,,,,,,126.3318,126.5807,127.1974,"[0.05684824613333817,-0.12396918499430261]",100.0,"[-0.11315636081336118,-0.11297088587469364]",100.0,"[0.1207098879299363,0.02058115555320355]",4.0,"[-0.05679710030520094,0.09921232318627952]",100.0,"[-0.03866824208957547,0.1928953562913112]",100.0,"[-0.060855791611298976,0.034086830842303996]",4.0,"[-0.1578298968936663,-0.045587547231004825]",100.0,"[-0.19487411430308613,-0.012604104528467849]",100.0,"[-0.10820799629152093,0.07343948006306354]",100.0,"[-0.07252592795942396,-0.14746676688359406]",100.0,"[0.004278026218367913,-0.17327992820858937]",100.0,"[0.05433551977431513,0.13153746892407459]",100.0,"[0.01739493048144601,-0.06286021417668676]",4.0,"[0.06770677575071514,-0.06871870980052378]",4.0,"[-0.09985002519921297,-0.07281752552141506]",4.0,"[0.10610420224152468,0.08938882722470455]",4.0,"[0.17202263511546437,-0.044139553034628964]",4.0,"[0.11594163661514478,-0.08848582821077904]",4.0,"[0.1312974751954333,-0.022356576401745133]",100.0,"[-0.04711661516389726,-0.03419022044031969]",100.0,"[0.05354371717450122,0.17665785669882697]",4.0,"[0.008959848833909073,-0.10851797594655216]",100.0,"[0.05139969664400534,-0.1912182164174159]",4.0,"[0.021070227500655552,0.05649368020709937]",100.0,"[0.10224927578861594,0.1577904385721726]",100.0,"[0.009104261742062638,0.09816583769722328]",4.0,"[0.07346297281661521,0.04466401391563573]",4.0,"[-0.14775035890368104,0.0980798709622538]",4.0,"[-0.05541317951979622,-0.08978813913802597]",100.0,"[-0.1402489400720601,0.13923873730253974]",100.0,"[0.10268305771054406,-0.13775643540090693]",100.0,"[0.02195240370958848,-0.00009421763144455393]",100.0,"[0.02,0.02]",128.2966,0.0,0.0,0.0,41.0,1.0,,,,,,,
,,,,,,,67d8270aba9f1c19f16caa6c,68442bf662fd7b9d3083b682,2025-06-07_14h13.41.959,shape_ratio,2024.1.5,Win32,59.88023952,684250e4f00cb30b92d1fa88,,,,,,,,,,,128.2976,128.7968,,,129.0478,129.7299,right,0.6674,,,,,,,,,0.45,,,,,,128.7968,129.0478,129.7299,"[0.1705043010645661,0.02879280861823154]",100.0,"[0.0917488003178823,0.13569560972125233]",4.0,"[0.11579636545528714,-0.02373639821518617]",4.0,"[-0.09025719756236797,-0.04607911259756778]",100.0,"[0.029154135633851056,-0.1530821144544844]",100.0,"[0.08075572781909843,0.010129545403237898]",4.0,"[0.06312900841762714,0.09362434723547577]",4.0,"[0.12938612970555924,0.10324530783771967]",4.0,"[0.04109275231940376,0.04287395011343359]",100.0,"[-0.02254165439057249,-0.15578749106521325]",4.0,"[-0.10968288379777312,-0.14999082632062363]",4.0,"[-0.018856794145347567,-0.07653092056337217]",100.0,"[-0.10688472070609936,0.07035807465982616]",4.0,"[-0.03509190110512964,0.08828222813564734]",100.0,"[-0.127423828023702,-0.06731882743037135]",100.0,"[0.006622027982780677,0.07249660646146422]",4.0,"[0.09615426366898568,-0.11333709005328843]",100.0,"[0.06774964100703207,-0.08037783974752719]",100.0,"[-0.03259834298877234,0.00008004645006975417]",100.0,"[0.14088912921530888,-0.06318533992183599]",4.0,"[0.02994950824747613,0.17252066120952697]",4.0,"[-0.16249958496723538,0.03974670997293633]",4.0,"[-0.0400757341672736,0.12948669254203476]",4.0,"[-0.1724282477003068,-0.055138006958877495]",4.0,"[-0.10917711227091008,0.15625036066239298]",100.0,"[0.17201954443140435,0.09332069620772437]",100.0,"[-0.06790730954685233,0.17475243863166265]",4.0,"[0.19014938513336832,-0.045368367706970655]",4.0,"[0.018644384253303385,0.11943888503560582]",4.0,"[0.03512642582979873,-0.11142830157429365]",100.0,"[0.16632103215076047,-0.10349691570813026]",100.0,"[-0.0032346014381949358,0.19991088609171237]",4.0,"[0.02,0.02]",130.8307,0.0,1.0,1.0,143.0,1.0,,,,,,,
,,,,,,,67d8270aba9f1c19f16caa6c,68442bf662fd7b9d3083b682,2025-06-07_14h13.41.959,shape_ratio,2024.1.5,Win32,59.88023952,684250e4f00cb30b92d1fa88,,,,,,,,,,,130.8312,131.3394,,,131.5801,132.0856,left,0.4867,,,,,,,,,0.5,,,,,,131.3394,131.5801,132.0857,"[-0.12212569111364129,0.008701461010893016]",100.0,"[-0.07818117404260455,0.17443570602692296]",100.0,"[0.1809904391578245,0.07321328974869719]",4.0,"[-0.05396734536385152,0.09739606764543922]",4.0,"[0.0468199064357156,-0.03227089216938957]",100.0,"[-0.1300097936604426,-0.12390716306699584]",4.0,"[0.15494584293810934,0.023022498839247167]",100.0,"[0.05714934523917945,0.05272853802767235]",100.0,"[-0.10239587168307636,-0.03588601464588576]",100.0,"[0.026684059404744758,-0.13598906015339693]",100.0,"[-0.11213594070118985,-0.08501383057363661]",100.0,"[0.025745542741685473,0.15372781778935743]",4.0,"[0.01275758708145517,0.05105705086653353]",100.0,"[0.11562332990862599,0.13823531032352465]",100.0,"[-0.023499707401936274,-0.0925046863114492]",4.0,"[-0.045216024728236784,0.05273662241429649]",4.0,"[-0.058435395172236455,-0.12310378295098415]",100.0,"[0.06671570823210504,0.09406938683648468]",100.0,"[-0.17500808059656772,0.03375384299907876]",100.0,"[0.06324334541881244,0.18303527337514597]",100.0,"[0.15721721431434357,-0.02056746329610901]",100.0,"[0.05496163972397675,-0.10312174528086322]",4.0,"[-0.09295757536790694,0.05766605687889278]",4.0,"[-0.02944415552598089,-0.012109336935674609]",4.0,"[0.034346839165317555,-0.18762313911818768]",4.0,"[0.07641687944619723,-0.1666967127395007]",4.0,"[0.10117428394558825,0.05667248444211645]",4.0,"[-0.15414148620166135,0.1255908496986322]",100.0,"[-0.015018752392091229,-0.18313226960040635]",4.0,"[0.12056212268545166,-0.09889677107130561]",4.0,"[-0.08329998223801177,-0.18037284081373028]",4.0,"[-0.19285803322904915,-0.022035279472671025]",4.0,"[0.02,0.02]",133.1838,0.0,2.0,2.0,101.0,1.0,,,,,,,
,,,,,,,67d8270aba9f1c19f16caa6c,68442bf662fd7b9d3083b682,2025-06-07_14h13.41.959,shape_ratio,2024.1.5,Win32,59.88023952,684250e4f00cb30b92d1fa88,,,,,,,,,,,133.1848,133.68,,,133.9344,134.4691,right,0.5188,,,,,,,,,0.55,,,,,,133.68,133.9344,134.4691,"[0.1494771163363664,-0.11692735380605283]",100.0,"[-0.09165604139184964,0.001813211586238952]",100.0,"[-0.0672300010041289,-0.06996292993240825]",100.0,"[0.181777049992395,-0.01143991203569818]",4.0,"[0.005983505241999803,-0.02716581028011282]",100.0,"[-0.1775133609360221,0.061465549531310254]",4.0,"[0.06400257506057962,-0.15245567952030478]",100.0,"[-0.038885501467618155,0.16261978387543682]",100.0,"[0.15702341783675533,0.05375509264679737]",100.0,"[-0.13470211737701307,0.05097834611345564]",100.0,"[-0.11536637423347884,-0.03922892806366534]",4.0,"[0.10517930118039794,0.11948441047764205]",100.0,"[0.02149523774325876,-0.16831135378993178]",4.0,"[0.07421018696286259,0.15297447616003712]",100.0,"[-0.029069039450218808,-0.10875129260439301]",4.0,"[0.09877942274060217,0.07391187345456163]",100.0,"[-0.11582616453354395,0.0936448324837669]",100.0,"[0.18557144850815316,-0.07007040218258817]",100.0,"[0.0936396925752111,-0.05095682964396475]",100.0,"[0.1451603248643404,-0.02836638398468434]",4.0,"[0.03651323186039902,0.05244009035093457]",4.0,"[-0.04904832514848967,-0.18851633247557822]",4.0,"[-0.009322164288790699,0.022472699510250056]",100.0,"[-0.03788674143534036,0.11236100293968272]",100.0,"[0.06493040434841958,0.01802510359455702]",4.0,"[-0.07432925534901608,0.04724162366001336]",4.0,"[-0.17029783317730263,-0.07941063532706667]",4.0,"[0.12122647511248234,-0.08660213124762049]",4.0,"[-0.03591199438553216,-0.02019048853795421]",4.0,"[-0.1650058790467812,-0.00757367046598218]",100.0,"[0.018762801538077474,0.17822540098696862]",4.0,"[0.021638222991717502,-0.11619629161021063]",100.0,"[0.02,0.02]",135.567,0.0,3.0,3.0,81.0,1.0,,,,,,,
,,,,,,,67d8270aba9f1c19f16caa6c,68442bf662fd7b9d3083b682,2025-06-07_14h13.41.959,shape_ratio,2024.1.5,Win32,59.88023952,684250e4f00cb30b92d1fa88,,,,,,,,,,,135.5682,136.068,,,136.3178,136.7529,right,0.4155,,,,,,,,,0.1,,,,,,136.0682,136.3171,136.7534,"[0.13220864863234413,0.013735260411718384]",4.0,"[-0.06168799077225991,0.037559486656339736]",4.0,"[-0.11875452270621875,-0.05962447403235087]",4.0,"[-0.11855632884218736,-0.12998477059670646]",4.0,"[0.16699721767263992,-0.07343803564542449]",100.0,"[-0.08628249940429719,0.1728455959464096]",4.0,"[0.11649008016257889,0.08297298848274097]",4.0,"[-0.006949702100116062,-0.10848097488304194]",4.0,"[-0.12501436406348826,0.05982146457759071]",100.0,"[0.12066473557324717,-0.15326262736880092]",4.0,"[-0.0438945007092438,0.1876568399630947]",4.0,"[-0.1098729127358653,0.012489138339661492]",4.0,"[-0.1724971605690782,-0.06828893649866205]",4.0,"[-0.024715502047895136,0.005281808014598534]",100.0,"[-0.06123123720313356,-0.14786957490611677]",4.0,"[0.13716192327197999,0.12725744881645482]",4.0,"[-0.009042997070239665,0.07006899748956986]",4.0,"[0.05831839164155219,0.011891348635881987]",4.0,"[-0.18318740066296332,0.058233068356791894]",4.0,"[0.16040480263251727,-0.023743815986755363]",4.0,"[-0.06922563259985894,0.10181900736048147]",4.0,"[0.06132668457209589,-0.046755838833592696]",4.0,"[0.12277274282331042,-0.0695836185644579]",4.0,"[-0.11060413518333026,0.12650021516347978]",4.0,"[0.03930829950748835,-0.13930737213408106]",4.0,"[-0.07089801194242447,-0.010066588273896518]",4.0,"[0.04696703241769226,0.10083268220802295]",4.0,"[0.16822213296289532,0.06681937378498486]",4.0,"[0.05243752346944855,0.15452447023519772]",4.0,"[-0.05848564110445942,-0.08111137190478726]",4.0,"[0.0972401534193308,-0.10407343639432229]",4.0,"[0.008806568499778029,0.13240598812216822]",4.0,"[0.02,0.02]",137.85,0.0,4.0,4.0,189.0,1.0,,,,,,,
,,,,,,,67d8270aba9f1c19f16caa6c,68442bf662fd7b9d3083b682,2025-06-07_14h13.41.959,shape_ratio,2024.1.5,Win32,59.88023952,684250e4f00cb30b92d1fa88,,,,,,,,,,,137.8509,138.3488,,,138.6006,139.2011,left,0.5837,,,,,,,,,0.9,,,,,,138.3489,138.6004,139.2011,"[0.006959715896836439,-0.17679074249842214]",100.0,"[0.00522317650591902,-0.13431673991926954]",100.0,"[-0.07063473329124424,-0.11699377604102226]",100.0,"[-0.038714768638802896,-0.06000183374422365]",100.0,"[0.07897986976046126,0.1709665291972434]",4.0,"[-0.04573079868511948,0.03395975558427188]",100.0,"[-0.02800459216621061,0.18841551677255028]",100.0,"[0.07540904195877218,-0.01941384377992579]",100.0,"[-0.1935984969844318,0.018179958718907062]",100.0,"[0.14876197477553998,-0.055195808209618905]",100.0,"[0.06372934233571365,0.1331046169927247]",100.0,"[-0.1613819798082617,0.09934668563775581]",100.0,"[0.16463576179905834,-0.10138018678139833]",100.0,"[-0.09989906638068437,-0.06527769532672002]",100.0,"[-0.16657014606578613,0.048070794507018996]",100.0,"[-0.0276668416505424,0.11591061684329887]",4.0,"[0.014690669716799718,0.13123729731112896]",100.0,"[0.05766794436438494,-0.14955415865990834]",100.0,"[-0.11958008325225974,0.12607835753757632]",100.0,"[0.06861728019050414,0.023695392768800113]",100.0,"[0.11196508866006673,-0.08940422921280611]",100.0,"[-0.0008599657953661361,0.06281185175431944]",100.0,"[0.1617712752107547,0.081476283228598]",100.0,"[-0.14440132826233837,-0.0777473668136726]",100.0,"[-0.14563045732165106,0.010053386629664086]",100.0,"[-0.06845405864367786,-0.16872532550177588]",4.0,"[0.11145058371293608,0.05510446963259281]",100.0,"[-0.006539769299892733,-0.026417843640108844]",100.0,"[-0.11321808993911721,-0.1044329950196491]",100.0,"[-0.06829262120099708,0.10780558638478824]",100.0,"[-0.07572495318230758,-0.02898797054036753]",100.0,"[-0.1066223342348911,0.16430106110927795]",100.0,"[0.02,0.02]",140.2978,0.0,5.0,5.0,3.0,1.0,,,,,,,
,,,,,,,67d8270aba9f1c19f16caa6c,68442bf662fd7b9d3083b682,2025-06-07_14h13.41.959,shape_ratio,2024.1.5,Win32,59.88023952,684250e4f00cb30b92d1fa88,,,,,,,,,,,140.2987,140.8006,,,141.0532,141.5709,right,0.5028,,,,,,,,,0.4,,,,,,140.8007,141.0529,141.5711,"[-0.005577194844308413,0.10640165326227898]",100.0,"[0.02272006250576591,-0.12148259245959446]",100.0,"[-0.0235820123928898,-0.01752469168207296]",100.0,"[-0.004306731255237623,-0.05954308909342411]",4.0,"[-0.1509954196967483,0.06777571799982174]",4.0,"[0.03320600053116309,0.17878384494294094]",4.0,"[-0.06211446483298574,0.052170886149299045]",100.0,"[-0.12302655790110378,-0.06480751097660205]",4.0,"[0.10447800248369861,-0.14756192008618063]",100.0,"[0.04611864473806648,0.12642800162665893]",4.0,"[-0.1702400295893726,-0.04265584848720141]",4.0,"[-0.11863546666132924,0.10324728219557268]",4.0,"[0.15660933551598072,0.07389261236110102]",4.0,"[0.04004132674182544,-0.0334041280706413]",4.0,"[-0.1117622116166124,-0.1351808608152545]",100.0,"[-0.11274335234867991,0.04419681752924416]",4.0,"[-0.034270212848084854,-0.13173661383655016]",4.0,"[-0.19889136587199235,-0.0022396270732721927]",100.0,"[0.18741090969168486,-0.06229719167666865]",4.0,"[-0.07315977804165762,-0.17567010536372976]",100.0,"[0.10605620009795141,0.027912074302735127]",100.0,"[0.0884686808900102,0.16178558710497262]",100.0,"[0.0492204091608465,0.005662723375164009]",4.0,"[-0.15893324466108646,0.02477512807947343]",100.0,"[0.058632247244358136,0.06288833261068201]",4.0,"[-0.019767035627485028,0.03163932980325018]",4.0,"[0.11312232828165052,-0.015787841861975283]",4.0,"[-0.04582380331220078,0.09723562999729042]",4.0,"[-0.046141169453641974,0.1526842199843135]",100.0,"[0.14551521891332442,0.11523241320363262]",4.0,"[-0.02938155447005033,-0.18967218734179223]",4.0,"[0.03518858328726695,-0.17976567287626216]",100.0,"[0.02,0.02]",142.6676,0.0,6.0,6.0,150.0,1.0,,,,,,,
,,,,,,,67d8270aba9f1c19f16caa6c,68442bf662fd7b9d3083b682,2025-06-07_14h13.41.959,shape_ratio,2024.1.5,Win32,59.88023952,684250e4f00cb30b92d1fa88,,,,,,,,,,,142.6685,143.1676,,,143.4183,143.9864,left,0.5518,,,,,,,,,0.55,,,,,,143.1677,143.4182,143.9864,"[-0.1278662958132862,0.06496384910933696]",100.0,"[0.032127096682916946,0.17215556814166885]",4.0,"[-0.005005916066494986,-0.09681725934240372]",4.0,"[0.025516050363817443,-0.06754748046084333]",4.0,"[-0.10742700807481927,0.13115858005597533]",100.0,"[-0.1810041357491724,-0.00020908221881437775]",4.0,"[0.13474393817600563,0.053556989685525566]",100.0,"[0.09707708212733727,0.019333358590837273]",100.0,"[-0.11416532062356247,-0.03122520580770278]",100.0,"[-0.07336244914429063,0.044452826517322165]",4.0,"[-0.034910069871645216,0.05728251733508247]",4.0,"[0.15240928842349105,0.01747276658677891]",4.0,"[-0.06809550688874207,0.16436728181867807]",100.0,"[0.04637033540578579,0.006457503649165321]",4.0,"[-0.1570422711356089,-0.05509470413046086]",100.0,"[-0.057206953500812424,-0.013611885862076352]",100.0,"[0.09745151647002412,0.1069054889449046]",100.0,"[0.14174065891462911,0.13369443262525843]",4.0,"[-0.0659390560053482,-0.13194462101330987]",100.0,"[0.15963599477811616,-0.1130881278546981]",100.0,"[-0.13785125960719902,0.004580568155439704]",100.0,"[0.06834325361683204,0.04925825426545593]",100.0,"[0.05526210653336466,-0.16410888677092028]",100.0,"[0.01960571988854938,0.044166018288331145]",4.0,"[0.18943160209591728,-0.061458222471162685]",100.0,"[-0.013134257570329703,-0.0416433056758483]",100.0,"[-0.12526581111447252,-0.08012730188111529]",100.0,"[-0.0521140065557671,-0.07082678136186438]",4.0,"[-0.1581840869215755,0.09942200657797566]",4.0,"[-0.12022974082601105,-0.12680927989110174]",100.0,"[0.06792606921293572,-0.05543918020869676]",4.0,"[0.10142022568717239,-0.1309200669349777]",4.0,"[0.02,0.02]",145.0851,0.0,7.0,7.0,72.0,1.0,,,,,,,
,,,,,,,67d8270aba9f1c19f16caa6c,68442bf662fd7b9d3083b682,2025-06-07_14h13.41.959,shape_ratio,2024.1.5,Win32,59.88023952,684250e4f00cb30b92d1fa88,,,,,,,,,,,145.086,145.5852,,,145.8351,146.6699,left,0.8183,,,,,,,,,0.45,,,,,,145.5852,145.8349,146.67,"[-0.022358143168779473,0.017516946483014367]",100.0,"[0.1305352064122386,-0.041040409119784724]",4.0,"[0.0028180145197558913,-0.1386254909367449]",4.0,"[0.04101885027093361,0.1621816678491907]",100.0,"[-0.14400813612421887,-0.0801266217113982]",4.0,"[0.07181067451145677,-0.12872282947978542]",100.0,"[0.09976705453922943,0.07990188711296686]",100.0,"[-0.09462607593632454,0.11980555821147036]",4.0,"[-0.0032359064833243196,0.10731196844865573]",4.0,"[-0.049534775235433495,-0.05633593064367041]",100.0,"[-0.11809079267542265,0.0441095634508018]",4.0,"[-0.021892597716381,-0.022933790976444095]",4.0,"[0.061511096774792585,-0.015649572565651727]",100.0,"[-0.0010288310110221498,-0.18465790112206198]",4.0,"[-0.1291451717693106,0.09394533721928422]",4.0,"[0.04316786178791242,-0.1703731774129908]",100.0,"[-0.09484174414086344,-0.1373673866781706]",4.0,"[0.10788287682084734,-0.0860885113962361]",100.0,"[0.12052757695270527,-0.14892308203772178]",4.0,"[-0.042775986964400665,0.10099742683555234]",100.0,"[0.15289497461507562,0.06623257619149882]",100.0,"[-0.002869855081445052,0.16783432207766666]",100.0,"[0.028574430562702334,0.025350279634087376]",100.0,"[0.13991521744003227,0.004553043419174646]",4.0,"[-0.08805183122976032,0.1721504005236008]",4.0,"[-0.03673731245133512,-0.10577907477435496]",4.0,"[0.15144644626575374,-0.11279355483574237]",4.0,"[0.014026040145170804,-0.04734622607397919]",4.0,"[0.09018475850322495,0.17323537691959187]",4.0,"[-0.10476121779905717,-0.02619597037382742]",100.0,"[-0.16560097546180833,0.055848610432367975]",4.0,"[0.17408546067688843,-0.02925900452710492]",100.0,"[0.02,0.02]",147.7698,0.0,8.0,8.0,124.0,1.0,,,,,,,
,,,,,,,67d8270aba9f1c19f16caa6c,68442bf662fd7b9d3083b682,2025-06-07_14h13.41.959,shape_ratio,2024.1.5,Win32,59.88023952,684250e4f00cb30b92d1fa88,,,,,,,,,,,147.7705,148.2679,,,148.5183,149.186,left,0.651,,,,,,,,,0.5,,,,,,148.2679,148.5183,149.186,"[-0.04720707233068837,0.12398207259964832]",4.0,"[-0.12770515362995924,-0.07040314958172351]",100.0,"[-0.02708480141239567,-0.08790882336881936]",100.0,"[0.1525381088003184,-0.08161384823996548]",4.0,"[0.041700632209801206,0.12583983425925013]",100.0,"[0.042207535090218046,-0.013241824768796994]",4.0,"[0.011268651412722566,0.09889508636145006]",100.0,"[-0.06291090026206064,-0.13102533277111128]",4.0,"[-0.18139319261068113,-0.026421469898663296]",4.0,"[0.001660314246040924,-0.031470870221506596]",100.0,"[-0.08392362967196729,0.018803307724983707]",4.0,"[0.103082835266465,0.1679945467370284]",100.0,"[0.09523839565471852,-0.016008512210422265]",4.0,"[-0.027160573466036547,0.17087389984104207]",4.0,"[0.10540932390717618,-0.07323321864934638]",100.0,"[0.07594004994899964,0.08658547316802045]",100.0,"[0.04991536656450413,-0.0626251402885666]",4.0,"[0.034692865147192005,-0.12419772958325108]",4.0,"[0.15653194470267343,0.016279266692582]",100.0,"[0.10375974678231382,0.04706438722965675]",4.0,"[-0.14650144837542853,0.04107156123060906]",100.0,"[-0.11180806580440582,-0.024816799387706766]",100.0,"[0.04301600161950247,-0.17013936893320908]",100.0,"[-0.10038514496803472,0.12605228770863358]",4.0,"[-0.0749902661627913,0.07934901950979989]",4.0,"[0.1392350020248361,0.11609748967896395]",100.0,"[-0.07884761631956429,0.18008107824301264]",4.0,"[-0.14573281230764248,0.08533441642823908]",100.0,"[-0.11399089110276253,-0.12685353326618928]",100.0,"[-0.021345584840768792,0.07327866492359764]",4.0,"[0.038643270833439616,0.040764007213052074]",100.0,"[-0.010998510750408827,0.007288171500362635]",4.0,"[0.02,0.02]",150.2853,0.0,9.0,9.0,110.0,1.0,,,,,,,
,,,,,,,67d8270aba9f1c19f16caa6c,68442bf662fd7b9d3083b682,2025-06-07_14h13.41.959,shape_ratio,2024.1.5,Win32,59.88023952,684250e4f00cb30b92d1fa88,,,,,,,,,,,150.2859,150.7831,,,151.0335,151.5014,right,0.4503,,,,,,,,,0.4,,,,,,150.7832,151.0334,151.5015,"[-0.14845406667086217,0.07557360117411362]",100.0,"[0.11957674472315251,0.08717971505201037]",4.0,"[0.10505974589063617,-0.11393239162051093]",4.0,"[-0.06707337383924428,-0.036435910948272754]",4.0,"[0.056871482993265825,0.17944479784598444]",100.0,"[0.1506265411076154,-0.025422661060739697]",100.0,"[0.11248275669061585,-0.16230458709454162]",4.0,"[0.18320671385976156,0.02907502382782515]",4.0,"[0.03674020008402104,0.12216040130227158]",100.0,"[0.16861002779287484,0.0874359086105584]",4.0,"[-0.08219446187748654,0.06614328286934221]",100.0,"[0.026916645660504685,-0.011762273238040398]",4.0,"[0.07241464169378728,0.07635892188181692]",100.0,"[-0.18347637477552853,-0.02033775618014813]",4.0,"[0.013897668196483597,-0.16047205205369638]",100.0,"[-0.032427855360112376,0.10483760777972839]",100.0,"[-0.08508664372900805,-0.07797337727827418]",4.0,"[0.06945606749855886,-0.055144081080435794]",4.0,"[-0.0952357489288358,0.11506290906343235]",100.0,"[0.09690390531260604,0.12117372030468443]",4.0,"[0.03856154564703709,-0.09675421869252687]",4.0,"[-0.06375650719202719,0.17845755329146948]",4.0,"[-0.0038240572105810305,0.07301013981150585]",4.0,"[0.19426296329800785,-0.022224964222891726]",100.0,"[-0.04007950984617742,-0.09166592515282393]",100.0,"[0.10811710506410593,0.019324588094925]",4.0,"[-0.004520630483547139,0.1751017054977444]",4.0,"[-0.016860048562313268,0.008199767852271169]",4.0,"[0.060998076862691784,-0.15191545079681573]",100.0,"[-0.038232822300220085,-0.13505621376887614]",4.0,"[-0.09974950209041358,-0.005181049060834492]",4.0,"[-0.092108355390078,-0.12358112451237188]",100.0,"[0.02,0.02]",152.6011,0.0,10.0,10.0,156.0,1.0,,,,,,,
,,,,,,,67d8270aba9f1c19f16caa6c,68442bf662fd7b9d3083b682,2025-06-07_14h13.41.959,shape_ratio,2024.1.5,Win32,59.88023952,684250e4f00cb30b92d1fa88,,,,,,,,,,,152.6018,153.1018,,,153.3504,153.8197,right,0.4589,,,,,,,,,0.6,,,,,,153.1018,153.3503,153.8199,"[-0.0257692852970993,-0.14999968263616456]",100.0,"[-0.1138731018679537,0.15316404961243563]",100.0,"[0.015479630296173455,-0.07335056528963033]",4.0,"[0.03276875377273319,-0.164752722175346]",4.0,"[-0.0056555590076684484,0.03979296477712591]",100.0,"[0.13743700540869302,-0.02891221810387536]",4.0,"[-0.11169551262989948,0.09025093459621013]",100.0,"[-0.09642815089365059,-0.07757995388595934]",100.0,"[-0.11052928463451377,-0.11683812058912653]",4.0,"[-0.12717164580409052,0.028078387886781367]",100.0,"[-0.17686729633053883,-0.03425740650352738]",100.0,"[0.05050699362610454,0.15924345641056745]",4.0,"[-0.02758438830359738,0.12873191843679727]",100.0,"[-0.17926755306119835,0.03906805565702831]",4.0,"[0.1385005949592173,0.02819712546530457]",100.0,"[-0.13753102516902838,-0.06430883656426774]",100.0,"[0.0099105892269117,0.1964102060735416]",4.0,"[0.10720498057961328,-0.07472521384730033]",4.0,"[0.1212592822013318,0.15119929260395512]",100.0,"[-0.11186574013583947,-0.1573572674424343]",4.0,"[0.04476642172227546,-0.014401432422464645]",100.0,"[0.04084666121684719,0.0437084900708505]",100.0,"[-0.0898317545925848,-0.02502014370564428]",4.0,"[0.10146134775508099,-0.0002653627908463575]",100.0,"[0.10114553213549121,-0.15791601983006345]",4.0,"[-0.05100125689488222,0.01436593372307515]",100.0,"[0.06652310089058508,-0.056423083991557044]",100.0,"[0.11988322460205061,0.08491790302166081]",4.0,"[-0.0402439445344072,-0.03185068775244873]",100.0,"[0.0377286253448839,0.10138753354947513]",4.0,"[-0.061886857983368807,0.15864856337943672]",100.0,"[0.035570477495042364,-0.1117549312812162]",100.0,"[0.02,0.02]",154.9182,0.0,11.0,11.0,32.0,1.0,,,,,,,
,,,,,,,67d8270aba9f1c19f16caa6c,68442bf662fd7b9d3083b682,2025-06-07_14h13.41.959,shape_ratio,2024.1.5,Win32,59.88023952,684250e4f00cb30b92d1fa88,,,,,,,,,,,154.9192,155.4182,,,155.6674,156.168,right,0.4859,,,,,,,,,0.45,,,,,,155.4182,155.6674,156.168,"[-0.05617477767393335,0.0366785713133884]",100.0,"[-0.10191494356570972,-0.03151897292758229]",100.0,"[0.038559357803942707,-0.028685032086576613]",100.0,"[0.09396654216620377,0.14312529946031308]",4.0,"[-0.03060117478680293,-0.0016451271047744603]",4.0,"[-0.01180768696247209,-0.12007113030072437]",100.0,"[0.18026701845982032,0.05877269132710032]",4.0,"[0.1848532589517779,-0.06225385571299164]",4.0,"[0.04772124820460717,-0.09226614405663114]",100.0,"[-0.11495896976594121,-0.16308771314900558]",100.0,"[-0.08668493085036258,0.07479174286833239]",4.0,"[0.16170696393923475,-0.006302046345146073]",100.0,"[0.042935796961006086,-0.18865912764099557]",100.0,"[-0.05982875723183227,0.18798460932611352]",4.0,"[0.10358939059610991,-0.14253994638862788]",4.0,"[-0.06083595843192025,0.12946505962786706]",4.0,"[-0.014110989587261915,0.1831874013905629]",4.0,"[-0.05344905602397289,-0.16588115927623506]",4.0,"[-0.1401698234665484,0.0638660883964747]",4.0,"[0.08415398573857721,-0.05720378926735398]",4.0,"[0.14533124121597035,0.08425903282062888]",4.0,"[-0.17955906704058452,0.008208132552896916]",100.0,"[0.11155601169856927,0.05024269381818841]",100.0,"[0.0010372624751501564,-0.04419915719818976]",100.0,"[0.055106539616686795,0.05189353895408575]",4.0,"[-0.07767331556345371,-0.06521806384512947]",100.0,"[-0.015349543617180791,0.07475572513149177]",4.0,"[0.03515581662137921,0.11418646679361262]",100.0,"[-0.14209522401075708,-0.011223229520221326]",4.0,"[-0.000254400233056868,-0.1772812913161905]",4.0,"[0.08844438704115332,-0.0024826501556467115]",100.0,"[0.1320507549512171,-0.05839586531542924]",4.0,"[0.02,0.02]",157.2681,0.0,12.0,12.0,130.0,1.0,,,,,,,
,,,,,,,67d8270aba9f1c19f16caa6c,68442bf662fd7b9d3083b682,2025-06-07_14h13.41.959,shape_ratio,2024.1.5,Win32,59.88023952,684250e4f00cb30b92d1fa88,,,,,,,,,,,157.269,157.7666,,,158.0177,158.5666,right,0.543,,,,,,,,,0.4,,,,,,157.7667,158.0176,158.5667,"[0.008256720577627644,0.10886998856799161]",4.0,"[0.011557836343425696,-0.12341205125349519]",100.0,"[-0.020661244663546158,-0.011793975234669534]",4.0,"[-0.09359793631901844,-0.02883971184163385]",100.0,"[-0.02427345571332848,-0.10102098023049194]",4.0,"[-0.047999530179647795,0.05094589410225331]",100.0,"[-0.10319481004280992,-0.14373574994833474]",100.0,"[0.059305749512685156,-0.1613995249778659]",4.0,"[-0.0788088816134766,0.1817606820295938]",4.0,"[-0.001390276532888757,-0.17685859681651875]",100.0,"[-0.0826966959513104,0.01679996874308955]",100.0,"[0.11884197039752203,-0.10294879982808824]",4.0,"[-0.012333204783923735,0.16243358846942996]",4.0,"[-0.09001532557002584,0.09684803868637892]",4.0,"[-0.12802765225081686,0.07719826333916642]",100.0,"[0.04517623880646933,0.019503729176403424]",100.0,"[0.01851744834364683,0.066171069589729]",100.0,"[0.09819982756958226,0.1038642684539652]",100.0,"[0.1735262949893376,-0.026838538674023193]",4.0,"[-0.06380964140506723,0.12819161131245693]",4.0,"[0.05035428462724393,-0.09304292240210563]",100.0,"[0.13388384729687855,0.06915725279957206]",4.0,"[-0.05490709936802907,-0.12695328749515286]",4.0,"[0.04489482709098485,0.15165712105213966]",4.0,"[0.11391038072839302,-0.04140452150246083]",4.0,"[0.1657385294792596,0.042276511482270955]",4.0,"[-0.13966391740019632,0.017780004527396503]",100.0,"[0.1783498117898789,-0.0759476156373333]",4.0,"[-0.15058962696153672,-0.09756922617233432]",4.0,"[-0.06866919049044681,-0.0843550659287836]",100.0,"[-0.11522885252586472,-0.06935569110331274]",4.0,"[-0.07865314405898234,-0.17886112152194844]",4.0,"[0.02,0.02]",159.6673,0.0,13.0,13.0,176.0,1.0,,,,,,,
,,,,,,,67d8270aba9f1c19f16caa6c,68442bf662fd7b9d3083b682,2025-06-07_14h13.41.959,shape_ratio,2024.1.5,Win32,59.88023952,684250e4f00cb30b92d1fa88,,,,,,,,,,,159.668,160.1671,,,160.4175,160.8847,left,0.4541,,,,,,,,,0.9,,,,,,160.1671,160.4175,160.8847,"[0.025402397572953615,-0.19532582922799263]",100.0,"[-0.0299998548043079,-0.16450986934400655]",100.0,"[0.1647003049840346,0.11081698236113559]",100.0,"[-0.1921200198141671,-0.012603069733901092]",100.0,"[0.17312742884116694,0.06232705666094794]",100.0,"[0.07634628635048701,-0.046024038570706166]",100.0,"[-0.05527094326900214,0.0387736880053885]",4.0,"[0.12059851723388766,-0.11611156513077077]",4.0,"[-0.03817045170420015,0.1802594574685923]",100.0,"[0.07429471620320685,0.06223035519526144]",100.0,"[-0.03910338266485077,0.10000336739035366]",100.0,"[-0.1416086650813265,-0.023214748886838422]",100.0,"[0.12492293602262343,0.04986237579773223]",100.0,"[-0.15481216144526203,-0.08153317753697781]",100.0,"[0.1392250921416118,0.0029806854469221302]",100.0,"[0.18669590003384645,-0.0345792080679212]",100.0,"[0.056790238952282204,0.0002118095631035321]",100.0,"[0.18502014638474265,0.005576571821118476]",100.0,"[0.05869605378221985,0.17684332545569925]",100.0,"[0.008238865996571,0.015669087577264457]",100.0,"[0.1666650685575183,-0.09739734341612535]",100.0,"[-0.0025042801835639446,-0.0998010547124793]",100.0,"[0.024911394696390067,0.12746440324336059]",100.0,"[-0.03951659392565223,-0.047796159421456964]",100.0,"[0.11985509266983883,-0.06761723618410537]",100.0,"[-0.04715190877471545,-0.1078665304008714]",100.0,"[-0.08273013913581308,0.13071275739786245]",100.0,"[0.049365308135481324,-0.08036842113738529]",4.0,"[0.11737200186655156,0.13480841667884774]",100.0,"[-0.1378090215926522,0.10080879504654716]",100.0,"[0.02919362285536892,-0.03286004882094185]",100.0,"[0.0522594545988449,-0.1442554714649022]",100.0,"[0.02,0.02]",161.9846,0.0,14.0,14.0,29.0,1.0,,,,,,,
,,,,,,,67d8270aba9f1c19f16caa6c,68442bf662fd7b9d3083b682,2025-06-07_14h13.41.959,shape_ratio,2024.1.5,Win32,59.88023952,684250e4f00cb30b92d1fa88,,,,,,,,,,,161.9852,162.4857,,,162.7359,163.3346,right,0.5837,,,,,,,,,0.55,,,,,,162.4858,162.7359,163.3346,"[0.116940822106645,0.11997504736406293]",4.0,"[0.049263745326622845,-0.02589099095158832]",100.0,"[-0.02735205930253585,-0.18309468498901812]",4.0,"[0.029407440293204096,-0.12948833720474226]",100.0,"[0.007791728672020999,0.11422542041417061]",4.0,"[-0.18453590725805533,-0.05202045638806381]",4.0,"[-0.035284544690867094,-0.0389638292801174]",4.0,"[0.11524560175311856,0.035921593265834974]",4.0,"[-0.1067047910033331,0.010959971732428913]",100.0,"[0.0234885862874389,0.18987343762256734]",100.0,"[-0.09019255776871023,0.07114912321974101]",100.0,"[-0.07848062766076733,0.13731970384437522]",100.0,"[0.1639372595473684,-0.10877722446917339]",4.0,"[-0.14132809010189604,-0.12596985070669636]",100.0,"[0.099355967681391,-0.15656667050997264]",100.0,"[0.0982139873657496,-0.11318456065187525]",4.0,"[0.007185760331340318,0.020807342265769236]",100.0,"[0.1772573652293852,0.028802633770845132]",100.0,"[-0.0749752735038073,-0.10442495766770232]",100.0,"[0.07247869522812059,0.11496694081544248]",100.0,"[-0.021554157100039873,0.1638252922816404]",4.0,"[0.17922885068143915,-0.05136072812341878]",4.0,"[0.06491554913509012,0.04949286634813579]",100.0,"[-0.04260758619585178,0.06804635913195033]",100.0,"[0.02835204123633318,-0.06245181260699149]",4.0,"[-0.15805886441464317,0.08790795492027578]",4.0,"[-0.048964175731305105,0.0005688776473822338]",4.0,"[-0.13291547857290967,0.13648530727515729]",100.0,"[0.10179198024384377,0.16313618196703084]",100.0,"[-0.14604510113680422,-0.07385896596044658]",100.0,"[-0.15835356282680838,-0.0040430736667054]",100.0,"[-0.02041500991764678,-0.10967932497042135]",4.0,"[0.02,0.02]",164.4385,0.0,15.0,15.0,71.0,1.0,,,,,,,
,,,,,,,67d8270aba9f1c19f16caa6c,68442bf662fd7b9d3083b682,2025-06-07_14h13.41.959,shape_ratio,2024.1.5,Win32,59.88023952,684250e4f00cb30b92d1fa88,,,,,,,,,,,164.4391,164.938,,,165.1873,165.7548,right,0.5509,,,,,,,,,0.45,,,,,,164.938,165.1872,165.7549,"[0.12610436828119032,0.06472076662477179]",4.0,"[-0.13713455819609469,0.045624531957912266]",4.0,"[0.062378183646091025,0.09471419545328875]",4.0,"[0.07752801196387585,-0.11353420819798835]",100.0,"[0.10347991375620444,0.10555570955102314]",100.0,"[0.03598722278303005,0.1609205813854597]",4.0,"[-0.03153870805969105,-0.050525569848749056]",100.0,"[0.007868814850919748,0.03004533270592715]",4.0,"[-0.011968547238465544,0.14702575467895293]",4.0,"[-0.01990301258094541,0.0737750728041804]",4.0,"[0.009735812781635144,-0.04468140067731461]",100.0,"[0.17984069668948716,0.007955909427418192]",4.0,"[-0.06175388607762916,-0.1782118467481598]",4.0,"[-0.11090967385973764,0.013141520146840485]",100.0,"[-0.09480993036673235,0.15192204273596605]",4.0,"[0.08824334818239697,-0.03225841537614972]",100.0,"[-0.052165494493458225,-0.12496392349130149]",4.0,"[-0.13486254890473764,-0.12221690536239439]",100.0,"[-0.14737262388817898,-0.07338062996393063]",4.0,"[0.15376013990849777,-0.022967687726412434]",100.0,"[0.01306974435692405,-0.15968135597102057]",4.0,"[-0.05716538449227069,0.057423361287106164]",100.0,"[0.15559810322400833,0.10786008252975712]",4.0,"[0.12465305791399053,0.15182218909046868]",4.0,"[0.07689460121767618,-0.154389846691061]",100.0,"[-0.024769268684992896,-0.09540754096899609]",100.0,"[-0.18044944294840176,0.08414835160638386]",100.0,"[0.07305515433747574,0.03499733843413408]",4.0,"[-0.17978833932794416,-0.04401995520018736]",100.0,"[-0.06206751719289393,0.0006246930421239452]",4.0,"[0.026507518346459525,-0.008149270174604283]",4.0,"[-0.17064969785888492,0.011100312458391182]",100.0,"[0.02,0.02]",166.8543,0.0,16.0,16.0,122.0,1.0,,,,,,,
,,,,,,,67d8270aba9f1c19f16caa6c,68442bf662fd7b9d3083b682,2025-06-07_14h13.41.959,shape_ratio,2024.1.5,Win32,59.88023952,684250e4f00cb30b92d1fa88,,,,,,,,,,,166.8552,167.3542,,,167.6045,168.0711,left,0.4501,,,,,,,,,0.55,,,,,,167.3543,167.6045,168.0711,"[0.07872634208737718,0.16678847156161486]",4.0,"[-0.16516187744302624,-0.010985273152535615]",4.0,"[-0.11028691711466128,-0.10778341443407245]",4.0,"[-0.07300241202958196,-0.14704172154076528]",4.0,"[0.11390614871547024,0.04474938694037341]",100.0,"[0.15389731349452412,0.09623492952667426]",4.0,"[-0.1229068337226514,0.1387094277814125]",100.0,"[-0.17720763399973824,0.03510358213199711]",100.0,"[0.000587065306713996,-0.06295042451045088]",100.0,"[-0.09727041647490438,-0.038601660479842544]",100.0,"[0.02491602916635718,0.044454454590306176]",4.0,"[-0.062172713196504095,-0.06312017594248495]",100.0,"[-0.0634791964246143,0.12984651612217726]",4.0,"[-0.04475618442229292,0.16729324009130922]",100.0,"[0.06051678750793832,-0.09367307985862174]",4.0,"[0.13415288687540486,0.14733272776055029]",100.0,"[0.06740550629736035,0.010991777585388548]",100.0,"[-0.08166552887800368,0.05049523304469085]",100.0,"[-0.018980577961607237,-0.18035836494529472]",100.0,"[0.04029547607408818,-0.024648099970914196]",100.0,"[-0.12846368566303015,0.06539642950388026]",4.0,"[0.10390257611450743,-0.012565728151593333]",4.0,"[0.17469561553919702,0.060224410306349]",4.0,"[0.1078901229129064,0.1092684930420526]",4.0,"[0.15666636276060333,-0.11594259930097933]",100.0,"[0.16359377730949287,-0.060380073922112656]",100.0,"[0.013247885391650057,0.1293429500411508]",100.0,"[-0.15175140364004833,-0.12924057744894785]",4.0,"[0.003940143487590551,0.00665220769758327]",100.0,"[-0.0332605426648779,-0.025544282643390433]",4.0,"[-0.16715860344393332,-0.08112417720222614]",100.0,"[-0.027634475022995708,0.06335003376248803]",100.0,"[0.02,0.02]",169.1706,0.0,17.0,17.0,74.0,1.0,,,,,,,
,,,,,,,67d8270aba9f1c19f16caa6c,68442bf662fd7b9d3083b682,2025-06-07_14h13.41.959,shape_ratio,2024.1.5,Win32,59.88023952,684250e4f00cb30b92d1fa88,,,,,,,,,,,169.1713,169.6684,,,169.9217,170.7744,right,0.8365,,,,,,,,,0.55,,,,,,169.6684,169.9217,170.7744,"[0.11719755891487796,0.0615386626320309]",4.0,"[-0.025154650983183553,-0.05190458697136241]",100.0,"[0.005491951978561596,-0.1402715767539267]",4.0,"[0.17581573625744346,-0.018938970726105838]",100.0,"[-0.02210376918553471,0.17042293803257033]",100.0,"[-0.14051892488601378,0.139197761048857]",100.0,"[-0.012729031622543319,0.08134129328360956]",4.0,"[-0.01574054898556022,0.012236950554351032]",4.0,"[0.10359253664787751,-0.15287145826190415]",4.0,"[0.05397706525500857,-0.03273895641315025]",100.0,"[0.008303777656374488,-0.1941737748640023]",100.0,"[-0.05594868275380751,0.09572104573846806]",100.0,"[0.11581531601590088,0.10692419188707808]",100.0,"[0.027349248427587104,0.02509884088460337]",4.0,"[-0.13740083297358682,0.06348633189150714]",100.0,"[0.03795580760959978,-0.11336701543842352]",4.0,"[-0.03773256192507422,0.04785920703611303]",4.0,"[-0.10689278754220007,-0.14362177565943154]",100.0,"[0.04195677391292693,0.09135382369179741]",4.0,"[0.0967475218372757,-0.07254302986050884]",100.0,"[-0.1690535506748999,-0.05043734784795573]",100.0,"[0.12217592478381785,-0.039626040708431655]",4.0,"[0.09579928194356468,0.14531786162741855]",100.0,"[-0.08881926332868428,0.019995184171319756]",100.0,"[-0.18141075085636435,0.02854152071574605]",100.0,"[0.14058967379089693,0.014161028753848347]",100.0,"[-0.09679988240554863,0.06296389388205911]",100.0,"[-0.14775862020119154,-0.12093042790841826]",4.0,"[0.03256610310179413,0.19019331199311984]",4.0,"[-0.03743003491788364,-0.12833745206903083]",100.0,"[-0.08505015724372288,-0.01984692778954392]",4.0,"[0.06968015065152745,0.008312685030361398]",4.0,"[0.02,0.02]",171.8697,0.0,18.0,18.0,77.0,1.0,,,,,,,
,,,,,,,67d8270aba9f1c19f16caa6c,68442bf662fd7b9d3083b682,2025-06-07_14h13.41.959,shape_ratio,2024.1.5,Win32,59.88023952,684250e4f00cb30b92d1fa88,,,,,,,,,,,171.87,172.3691,,,172.6209,173.0686,left,0.4438,,,,,,,,,0.6,,,,,,172.3691,172.6209,173.0686,"[-0.1648551172348203,0.05550050692049985]",100.0,"[0.0011549927636162814,0.14957326705391139]",4.0,"[0.12988549128133017,0.12159600320809022]",100.0,"[0.12677250269078813,0.07610750451948625]",100.0,"[0.01150312452881871,-0.1231018904032705]",4.0,"[-0.1943387933723987,-0.03519140043395224]",100.0,"[-0.029984187285976523,0.06372964936922118]",4.0,"[0.06757432323515164,-0.1258746740802723]",100.0,"[0.12445696460346589,-0.13577382540151345]",100.0,"[0.12724249712167346,-0.0836419688033704]",100.0,"[-0.03454208615242996,-0.13517480823520295]",100.0,"[0.04193549500366152,0.18379202023976676]",4.0,"[-0.04602745643508654,-0.03146677785104751]",100.0,"[0.12662117965815975,0.013624189481117578]",4.0,"[0.0697177113282708,-0.03755607568818019]",100.0,"[-0.058145630750132765,0.1113215503340553]",4.0,"[-0.13162869025371635,0.08187850881629462]",100.0,"[-0.10171026344937253,0.13783729501143363]",100.0,"[-0.12400779518565992,0.028934155207351615]",100.0,"[-0.05062727273626418,-0.08233751812038641]",100.0,"[-0.15423383523234324,-0.09102104610502822]",4.0,"[-0.10930846765212443,-0.08304382114407448]",4.0,"[0.013127672650557457,-0.02260300491688489]",100.0,"[0.03377015871664888,-0.07588066438394223]",4.0,"[0.049927267800666676,0.11206175630610457]",100.0,"[0.03738841799504352,0.055721760735341255]",4.0,"[-0.07502263514412894,-0.18442260348900305]",100.0,"[-0.034561855717859954,0.015202082328900681]",100.0,"[0.18799160812067206,0.024710167358834953]",4.0,"[0.03747819333196507,-0.19034068961001158]",4.0,"[0.16283266766603088,-0.035588069451472686]",100.0,"[0.08358968371543211,0.07500872070342307]",4.0,"[0.02,0.02]",174.1694,0.0,19.0,19.0,57.0,1.0,,,,,,,
,,,,,,,67d8270aba9f1c19f16caa6c,68442bf662fd7b9d3083b682,2025-06-07_14h13.41.959,shape_ratio,2024.1.5,Win32,59.88023952,684250e4f00cb30b92d1fa88,,,,,,,,,,,174.1697,174.6577,,,174.9029,175.4188,right,0.5046,,,,,,,,,0.45,,,,,,174.6577,174.9029,175.4189,"[0.01685617297821549,-0.1424355403506417]",4.0,"[-0.08117564575527195,-0.036677638491292804]",100.0,"[0.009115737395715097,0.17457786792483063]",4.0,"[-0.13757294883626084,-0.08592987037626845]",100.0,"[-0.03263475296454838,0.06476007606249974]",4.0,"[-0.11479036737492629,0.09291361637835921]",100.0,"[0.19094664294769748,-0.04403359142094071]",100.0,"[0.1217596170735722,-0.06739615554183773]",4.0,"[-0.13269909007888972,-0.004847895942648659]",4.0,"[0.1459251845651636,0.07171505021995503]",4.0,"[-0.03357898699543786,-0.14391598222050703]",100.0,"[-0.04808076732464691,0.14691292125717725]",100.0,"[0.12678204075802857,-0.010725185604431252]",100.0,"[0.05360177915485625,0.05750582567633781]",4.0,"[-0.08526977505841855,-0.09998149502263314]",4.0,"[0.05557270591654922,-0.0020740170506883867]",4.0,"[-0.07631645784061439,-0.1783465227022405]",4.0,"[0.1452782272761459,0.11228372361472816]",100.0,"[0.058888616551330306,0.15114969129942685]",4.0,"[0.07457631520745278,-0.1176478429455026]",4.0,"[0.12224198839518037,0.1454153579418376]",100.0,"[-0.10976587590674945,0.1543902002108055]",4.0,"[-0.05481038009071985,0.02787449536040095]",4.0,"[0.055983782868888464,-0.07761678459704319]",100.0,"[0.12644440648202337,-0.14715377720555664]",4.0,"[-0.17188730775243422,0.07938844517455086]",100.0,"[-0.026373136422333035,-0.0852117093381197]",4.0,"[0.02992532686359243,0.09004050889495038]",4.0,"[-0.17859039868704224,-0.04218057871285142]",4.0,"[-0.097094805036979,0.04762771440768943]",100.0,"[-0.027077440990005686,-0.02833225813105468]",100.0,"[-0.07870965714136223,0.11670334787131445]",100.0,"[0.02,0.02]",176.5194,0.0,20.0,20.0,126.0,1.0,,,,,,,
,,,,,,,67d8270aba9f1c19f16caa6c,68442bf662fd7b9d3083b682,2025-06-07_14h13.41.959,shape_ratio,2024.1.5,Win32,59.88023952,684250e4f00cb30b92d1fa88,,,,,,,,,,,176.52,177.0208,,,177.2713,177.7393,right,0.4642,,,,,,,,,0.5,,,,,,177.0208,177.2713,177.7393,"[0.0539813408861937,-0.07555519230672539]",100.0,"[-0.15335123704446596,-0.02255992496665153]",4.0,"[-0.02883534800699678,0.0609732724345407]",100.0,"[-0.11853093400537827,0.089308173157485]",100.0,"[0.0816382492929269,0.17419443511336555]",4.0,"[0.1097737494815843,0.018552309707424726]",4.0,"[0.14925404476958393,-0.04410056754769066]",100.0,"[-0.15217029230077506,-0.11965100687563637]",100.0,"[-0.006689285666810741,0.1700577720230254]",100.0,"[0.067337847599202,0.134156174056899]",4.0,"[-0.08673653537416277,0.1657871312579156]",100.0,"[0.07936338090419923,-0.1717815451784534]",100.0,"[-0.08759135008601542,-0.08233300289713129]",4.0,"[-0.1172604971600934,0.012436041009817406]",100.0,"[0.16707921982221785,0.057497716140775666]",100.0,"[-0.04237733198857618,0.11270272138143189]",4.0,"[0.033940941128271895,-0.16092734727959085]",100.0,"[-0.09549732211811027,-0.13360787963029452]",4.0,"[-0.02304948826181971,0.0009462422907716744]",4.0,"[-0.033943829024636586,-0.1486973548206327]",4.0,"[0.025941167475578474,-0.021863392051462163]",100.0,"[-0.10852862964378583,-0.04288748024186067]",4.0,"[-0.07377923956516286,0.04956346644137158]",100.0,"[0.1427204364805676,-0.13530972057978427]",4.0,"[-0.1321922570893207,0.13261603608079978]",100.0,"[-0.1493444524594199,0.050222659186146996]",4.0,"[0.15976814920299556,-0.09368527750308799]",100.0,"[-0.056980045931541504,-0.021415689088793256]",4.0,"[0.09718712034565258,-0.08573881813620743]",4.0,"[0.08492167328468729,0.06520691065299748]",4.0,"[0.03433410421764847,0.06981850119177467]",100.0,"[0.08643306952091208,-0.03759197491587029]",4.0,"[0.02,0.02]",178.8387,0.0,21.0,21.0,105.0,1.0,,,,,,,
,,,,,,,67d8270aba9f1c19f16caa6c,68442bf662fd7b9d3083b682,2025-06-07_14h13.41.959,shape_ratio,2024.1.5,Win32,59.88023952,684250e4f00cb30b92d1fa88,,,,,,,,,,,178.8394,179.3379,,,179.5914,180.1886,right,0.5905,,,,,,,,,0.5,,,,,,179.3379,179.5914,180.1887,"[-0.03452966197635816,0.15190007506932854]",4.0,"[0.08070495488994926,0.10079416262529621]",100.0,"[0.1723744766066218,-0.05427628759860837]",4.0,"[0.07274553122427103,-0.1327172898480172]",4.0,"[-0.0026159150487849625,0.050230318580112704]",4.0,"[0.18272601342339923,-0.006414398009297519]",100.0,"[0.021104856496328418,0.004907102029635565]",100.0,"[0.11328414369770305,-0.10850105611973848]",4.0,"[0.024361448178290706,-0.11055205911666256]",4.0,"[-0.06853380044583396,0.1834964180138321]",100.0,"[0.021206200390205217,0.09356579719346224]",4.0,"[0.16997612672959012,0.10302738496529572]",4.0,"[-0.053176275669112455,0.059264606241313855]",4.0,"[-0.04298533838773352,-0.17581624299608897]",4.0,"[0.1149015562589963,-0.023338956180244126]",4.0,"[0.06921305667544668,-0.05167267743645054]",100.0,"[-0.09282304281793434,-0.14627538475700108]",4.0,"[0.047210527944211926,0.16496186531634577]",100.0,"[-0.11654753234662374,-0.06790784287277886]",100.0,"[-0.15158834378432393,-0.04180681361849759]",100.0,"[-0.07454726637379305,-0.09610824769798886]",4.0,"[0.07116103142940759,0.00817402785909704]",100.0,"[-0.053063720301136735,0.003958918531290331]",4.0,"[-0.13599326178068347,-0.12969740428309964]",4.0,"[-0.14405004584253514,0.08172299022964982]",100.0,"[-0.1099165222695169,0.16246272375950993]",100.0,"[0.11136572397491998,-0.15622572107691704]",100.0,"[0.16987925847775273,0.048069112916748785]",100.0,"[-0.032942676894401696,-0.06613189441651816]",100.0,"[0.01142007872023644,0.13457827879325396]",4.0,"[-0.06950741591920753,0.10983627210058874]",100.0,"[0.014307542939089816,-0.15857940044173457]",100.0,"[0.02,0.02]",181.2897,0.0,22.0,22.0,102.0,1.0,,,,,,,
,,,,,,,67d8270aba9f1c19f16caa6c,68442bf662fd7b9d3083b682,2025-06-07_14h13.41.959,shape_ratio,2024.1.5,Win32,59.88023952,684250e4f00cb30b92d1fa88,,,,,,,,,,,181.2903,181.7903,,,182.0405,182.576,right,0.5199,,,,,,,,,0.6,,,,,,181.7903,182.0405,182.576,"[0.014944194047849446,-0.08012345559250718]",100.0,"[0.03278543717305123,-0.1946710337716616]",4.0,"[-0.15916689494560712,-0.02144724044617161]",100.0,"[-0.0751037494830791,-0.010911766208799663]",4.0,"[-0.1379533155738986,0.06266380345499994]",100.0,"[0.10386656233625129,-0.08852513100061929]",4.0,"[0.13425467420377257,0.10704821821578762]",4.0,"[-0.010397901485463538,0.039642846779280885]",100.0,"[-0.1541719702959042,0.11112212073898166]",100.0,"[-0.008326320844824209,-0.0009993717385000248]",100.0,"[-0.036303352749065404,0.14837634622695978]",100.0,"[0.09179533962403073,0.06390800134282502]",4.0,"[0.050148428366980816,0.011325379343473599]",4.0,"[0.14829687975037187,0.06371224668617839]",100.0,"[0.08717144680157735,0.12410827064103368]",4.0,"[0.12183407436698626,-0.012831584854794771]",100.0,"[-0.19873043454416386,-0.007977760167273655]",100.0,"[-0.044860052452390296,-0.13941689232650264]",100.0,"[-0.18310791380323388,0.061610893978989695]",100.0,"[-0.10306196415874869,0.08564190430833435]",4.0,"[-0.06682452007158585,-0.06980543026018204]",100.0,"[-0.11429494276511254,0.02805504091787497]",4.0,"[0.02469392747575213,-0.12023242811083344]",4.0,"[-0.035187491892803444,0.08772126430798413]",100.0,"[0.19724563707723813,0.017068449734701247]",4.0,"[0.047699606693055216,0.15158985825340476]",100.0,"[-0.0994885883900396,-0.17094015086490955]",100.0,"[0.16947151567074956,-0.10273500115940612]",100.0,"[-0.03229105686162846,0.1903379268209185]",100.0,"[0.10075395884014825,-0.16304363140777783]",4.0,"[0.1882477337043162,-0.06501089452562732]",100.0,"[-0.18973401241634985,-0.05142120078446387]",4.0,"[0.02,0.02]",183.674,0.0,23.0,23.0,44.0,1.0,,,,,,,
,,,,,,,67d8270aba9f1c19f16caa6c,68442bf662fd7b9d3083b682,2025-06-07_14h13.41.959,shape_ratio,2024.1.5,Win32,59.88023952,684250e4f00cb30b92d1fa88,,,,,,,,,,,183.6767,184.1728,,,184.4249,184.9404,right,0.5011,,,,,,,,,0.6,,,,,,184.1728,184.4249,184.9404,"[-0.1403696425369641,0.05389474474641925]",100.0,"[0.09187505530139746,-0.1053662334755477]",100.0,"[0.07242677503185792,-0.1441068955203864]",100.0,"[-0.14925683234748433,0.01353926020920912]",100.0,"[-0.18908305912655934,-0.045748363020643175]",4.0,"[-0.13722459376134755,0.1189406800003274]",100.0,"[-0.008858022898711553,0.17109412516394312]",100.0,"[0.15820263770614662,0.07525532733972545]",4.0,"[-0.09936128183428784,-0.061566635478591675]",4.0,"[0.014523508262873895,-0.07098377729203505]",100.0,"[0.046444246944867484,0.005579225370367483]",100.0,"[-0.06010667219348122,-0.14397018763105954]",4.0,"[-0.13601769989961568,-0.04192629373137391]",4.0,"[0.1485389729487538,0.029694553409703776]",100.0,"[-0.04661309402542518,0.15441442486372925]",4.0,"[-0.15134021791497804,-0.1166384662934157]",100.0,"[-0.06556901777074586,0.11438637036557728]",100.0,"[0.09014034263135717,-0.017704089838934723]",4.0,"[0.009441764077707178,0.05733197065359587]",100.0,"[0.0056278908716263865,-0.02382559323040749]",4.0,"[-0.0695493225985745,0.06964196847975067]",4.0,"[0.15181421449641158,-0.08800813798434634]",100.0,"[0.03490979413949351,0.1268519100783867]",4.0,"[-0.08617004417672679,0.016141973463412382]",100.0,"[-0.007782794768452597,0.10627973164144172]",100.0,"[-0.05711739976436667,-0.0328905178170825]",100.0,"[0.15005904161265363,-0.014706560598242283]",100.0,"[0.09565957237692496,0.12519333328173066]",100.0,"[0.11777051646167401,-0.16123232982666896]",4.0,"[-0.016080054223944283,-0.1702274594021632]",4.0,"[-0.10161059201718929,-0.15345149665284746]",100.0,"[0.032539336730416354,-0.12498183842396553]",4.0,"[0.02,0.02]",186.0403,0.0,24.0,24.0,50.0,1.0,,,,,,,
,,,,,,,67d8270aba9f1c19f16caa6c,68442bf662fd7b9d3083b682,2025-06-07_14h13.41.959,shape_ratio,2024.1.5,Win32,59.88023952,684250e4f00cb30b92d1fa88,,,,,,,,,,,186.0411,186.5404,,,186.7915,187.4571,left,0.6505,,,,,,,,,0.5,,,,,,186.5404,186.7915,187.4571,"[-0.16521892494120885,0.029210232152130786]",4.0,"[0.14308548959074996,0.09980757454558055]",4.0,"[0.052046493688862584,0.05099146060548464]",100.0,"[-0.10093876928719968,0.10439293402168952]",100.0,"[0.18307617771279153,0.058123789982027343]",4.0,"[-0.1231351839757093,-0.09455526387254615]",4.0,"[0.1883260656121109,-0.05825158151299036]",100.0,"[-0.17566474412309876,0.0691957702909779]",100.0,"[0.10368867549428513,-0.025723307686603476]",100.0,"[-0.04887770246231161,0.07244483626722698]",4.0,"[0.014941395985801671,-0.10466124879257034]",100.0,"[-0.07868234816112984,-0.033983417163569354]",4.0,"[0.009053803363150786,0.12672862150179198]",100.0,"[-0.05960296434325482,0.17352228929969996]",100.0,"[-0.11786968285569158,-0.015800030472763474]",4.0,"[-0.016861938386122873,0.16941780665621087]",100.0,"[-0.0031696567665487735,-0.1472228215609421]",100.0,"[-0.12969255391528964,0.13551449433246315]",4.0,"[0.1045201832467921,-0.1426317703664378]",4.0,"[-0.12180795849555742,-0.15310035623513407]",4.0,"[0.11522039632712751,0.02191072481725329]",100.0,"[0.11931255067276245,0.14611527811258102]",4.0,"[-0.04701283879339503,0.03145378533699835]",100.0,"[0.1566789207430717,-0.10264083553224893]",100.0,"[-0.1583884863901411,-0.06487355493222388]",4.0,"[-0.0985531836739739,0.03663999055986066]",4.0,"[0.06358682357442264,0.1077289021917403]",100.0,"[-0.04742252154928711,-0.13676665318404305]",100.0,"[-0.006816459442921289,0.044957132594989895]",4.0,"[-0.005391783717407092,-0.008948370508570195]",4.0,"[0.05538231204330691,0.0074931595544383755]",4.0,"[-0.0027534079305023803,-0.18733818536901384]",100.0,"[0.02,0.02]",188.5544,0.0,25.0,25.0,100.0,1.0,,,,,,,
,,,,,,,67d8270aba9f1c19f16caa6c,68442bf662fd7b9d3083b682,2025-06-07_14h13.41.959,shape_ratio,2024.1.5,Win32,59.88023952,684250e4f00cb30b92d1fa88,,,,,,,,,,,188.5554,189.057,,,189.3068,189.9909,right,0.6665,,,,,,,,,0.4,,,,,,189.057,189.3068,189.9909,"[0.15928114737969903,-0.09142490123413365]",100.0,"[-0.11501194993104714,-0.07658672122938093]",4.0,"[0.08365746807734155,-0.1602218615314469]",100.0,"[-0.07863390066772384,0.17546107941593933]",100.0,"[0.16007626013095583,0.06212867805630637]",4.0,"[-0.1557779653143521,-0.047980565775426434]",100.0,"[0.05287063539746897,-0.003716370453683691]",100.0,"[0.04873846839605513,0.09685282637539275]",100.0,"[0.010869251053029457,-0.10033860741203408]",4.0,"[-0.01233649689537675,-0.17195978817001628]",4.0,"[-0.12691935690086023,0.12419515204939308]",4.0,"[0.12056625133423224,-0.04824319483569133]",4.0,"[-0.07952600714179243,0.08514846377479889]",100.0,"[0.12100175366126383,0.14332543855194077]",4.0,"[0.12400163029624782,0.00026058337818580445]",100.0,"[-0.024430403668970136,0.13429024516716756]",4.0,"[0.037894800542085626,-0.1851639689643719]",4.0,"[0.07748077250609105,0.03751449453765052]",4.0,"[0.13320153478035118,-0.12349108291910779]",100.0,"[-0.061029983281937907,0.04892907077309193]",4.0,"[-0.11030368604449944,0.0575484394245737]",4.0,"[0.08336573670719297,0.1618086559230996]",4.0,"[0.051869322633446825,-0.08077607161516323]",100.0,"[-0.16796867896031922,0.10214238844527751]",100.0,"[-0.02158919222472137,-0.04809163730842466]",100.0,"[-0.09870182071415852,-0.12276484627409687]",4.0,"[0.17556932906403244,0.008619812998835946]",100.0,"[0.0046002017946307336,0.018812559898393092]",4.0,"[-0.08163043188119921,-0.007293638318109518]",4.0,"[-0.01345074488925835,0.0705107993200174]",4.0,"[0.12615722666523582,0.09318632957628195]",4.0,"[-0.1854239521380854,-0.019235162233418264]",4.0,"[0.02,0.02]",191.0891,0.0,26.0,26.0,155.0,1.0,,,,,,,
,,,,,,,67d8270aba9f1c19f16caa6c,68442bf662fd7b9d3083b682,2025-06-07_14h13.41.959,shape_ratio,2024.1.5,Win32,59.88023952,684250e4f00cb30b92d1fa88,,,,,,,,,,,191.0901,191.588,,,191.8395,192.3398,right,0.4866,,,,,,,,,0.9,,,,,,191.588,191.8395,192.3399,"[-0.08631034023930508,-0.045610855704627536]",100.0,"[0.042141705083653905,-0.16166746649778305]",100.0,"[-0.12089115248507355,0.02744461074818171]",100.0,"[-0.1409703540971447,-0.04820178251350721]",100.0,"[-0.03739909883547242,-0.18925401845512776]",100.0,"[0.16295738988537664,-0.032516793872882054]",100.0,"[0.08808866195878332,0.06105817528805844]",100.0,"[0.15768665187209296,0.01160560308633823]",100.0,"[-0.1787167072997377,-0.03311676021370385]",100.0,"[0.16100928435546447,0.08198420588345219]",100.0,"[-0.0084820073030671,0.025520469014084522]",4.0,"[0.08934193101983354,0.14580873288150015]",100.0,"[0.11405907560733809,-0.05507274751248617]",100.0,"[0.0006075610008124715,0.17515408187200807]",100.0,"[-0.017761783138787974,-0.020782663956376304]",100.0,"[0.03901155447888658,0.0928710165225643]",100.0,"[-0.06711816877976515,0.0142999513014861]",100.0,"[-0.09080377691757693,0.1275034139293525]",100.0,"[-0.02212156114291004,0.11514646353020969]",4.0,"[-0.0028201319809100303,0.07047551786320574]",100.0,"[0.03531486195324916,-0.08357108157835297]",100.0,"[-0.03641518842751509,-0.12111153404511998]",100.0,"[0.09029068875055703,-0.0952159896358409]",100.0,"[-0.09111256149178047,-0.1486474241679379]",100.0,"[-0.0703913241776316,0.18351057644084465]",100.0,"[-0.13895761909401042,0.1094019046815797]",100.0,"[-0.17908307954441008,-0.08396317710154723]",100.0,"[-0.10795395627951898,0.0806449926791221]",100.0,"[-0.07535081391044014,-0.09020035869145425]",100.0,"[-0.10646859922593704,-0.010318028565655512]",4.0,"[0.07888658337492423,0.002958618414671248]",100.0,"[0.16480177738465215,-0.09860442903919721]",100.0,"[0.02,0.02]",193.4393,0.0,27.0,27.0,20.0,1.0,,,,,,,
,,,,,,,67d8270aba9f1c19f16caa6c,68442bf662fd7b9d3083b682,2025-06-07_14h13.41.959,shape_ratio,2024.1.5,Win32,59.88023952,684250e4f00cb30b92d1fa88,,,,,,,,,,,193.4398,193.9404,,,194.1883,194.7729,right,0.5683,,,,,,,,,0.5,,,,,,193.9404,194.1883,194.773,"[-0.01778291160714619,0.09515225138368649]",100.0,"[0.13727263000574136,-0.1068484051150476]",100.0,"[-0.16093969048839213,-0.10591071141219471]",4.0,"[-0.09208567869539311,-0.16936607748045196]",4.0,"[-0.0976575745657887,-0.10288537874885643]",100.0,"[0.02241289157989062,0.013497827350009872]",100.0,"[-0.001315980164946451,-0.12729965615936922]",100.0,"[-0.12569768484727734,0.020873882142989138]",100.0,"[-0.1829214732775821,0.04283241140833252]",100.0,"[0.14793463453851352,0.06625807955810643]",4.0,"[-0.05128527560992679,0.06026510117453642]",4.0,"[0.06755024025940924,-0.1521231749024426]",100.0,"[0.12078760581281073,-0.14501956486662548]",100.0,"[0.040782142775497895,0.0954304622637434]",4.0,"[-0.035760270408770216,-0.0026114896823248076]",100.0,"[-0.1888402725308439,-0.057656946457255304]",4.0,"[0.17538595634665513,-0.07083226543275227]",100.0,"[-0.05271967036600822,0.18525948103473625]",4.0,"[0.0017565414085436194,0.052626238850297685]",4.0,"[-0.1370131582674187,-0.03684831601973252]",4.0,"[-0.07930892158155238,0.15102866619352306]",4.0,"[0.1577739149404176,0.01676792418894005]",4.0,"[-0.03307409189316072,-0.1903144712358615]",100.0,"[-0.009108717403285543,0.143369569613142]",4.0,"[-0.10038717758881467,0.06452039848681933]",4.0,"[0.07332903338892241,0.051577791394834364]",100.0,"[-0.12460781171900139,0.11672981414728442]",4.0,"[-0.048625302950914925,-0.04448079741588522]",100.0,"[-0.05101279361834586,-0.09984354409071394]",4.0,"[0.10613509376987589,0.0025449972273739315]",100.0,"[0.1469595092777852,0.13229146039006306]",4.0,"[0.09241722326289285,0.0895666420742366]",100.0,"[0.02,0.02]",195.8717,0.0,28.0,28.0,109.0,1.0,,,,,,,
,,,,,,,67d8270aba9f1c19f16caa6c,68442bf662fd7b9d3083b682,2025-06-07_14h13.41.959,shape_ratio,2024.1.5,Win32,59.88023952,684250e4f00cb30b92d1fa88,,,,,,,,,,,195.8723,196.3732,,,196.6227,197.1063,right,0.4723,,,,,,,,,0.45,,,,,,196.3732,196.6227,197.1063,"[-0.017920029539345572,0.15814711948848986]",100.0,"[0.11152570193102324,-0.11962297459243942]",4.0,"[0.09230210555450623,0.1645886001102591]",100.0,"[-0.0349199294538741,-0.15559558992012898]",4.0,"[0.06173944245283266,0.028893486030319143]",100.0,"[-0.024870696051231315,0.08942866962745645]",4.0,"[-0.0731471463136861,0.14485568529688878]",4.0,"[0.06525374977621966,-0.04586999744395968]",4.0,"[0.1567452172866007,-0.06272460577104048]",100.0,"[-0.054635113228893965,-0.028512900854307053]",100.0,"[-0.18778322512769297,0.05158219030614573]",100.0,"[-0.163343171431084,0.09633097029925781]",100.0,"[0.09363274045508455,-0.07807068349031909]",4.0,"[0.04916962802204114,-0.08284243897765746]",100.0,"[0.04538532884595206,-0.15192229403863314]",4.0,"[-0.06423999440468844,0.07589545828656026]",4.0,"[0.017834356536935825,0.10377040111373562]",4.0,"[-0.13077057599512107,0.1254600429332665]",4.0,"[-0.13888220638908744,0.005828762113348034]",100.0,"[0.1721442764269867,0.062186656023067624]",100.0,"[0.002414194154544592,-0.19246743872140606]",4.0,"[0.10499732967489929,-0.012184112298287425]",100.0,"[-0.13122947507919291,-0.10698463667855002]",100.0,"[0.12444961387373009,0.08659147626152722]",4.0,"[-0.1526548791051346,-0.03900049247695714]",4.0,"[0.01563022536976772,-0.017869387220669594]",100.0,"[-0.10178231273228319,0.03757529113113928]",4.0,"[0.04809324366325265,0.1894583058505858]",100.0,"[0.04606414683771249,0.06977069175908295]",4.0,"[-0.07616633864247177,0.005822641136642183]",4.0,"[-0.005862727591396764,0.050564745020539946]",4.0,"[-0.07440677749007775,-0.1677613625142142]",4.0,"[0.02,0.02]",198.2052,0.0,29.0,29.0,140.0,1.0,,,,,,,
,,,,,,,67d8270aba9f1c19f16caa6c,68442bf662fd7b9d3083b682,2025-06-07_14h13.41.959,shape_ratio,2024.1.5,Win32,59.88023952,684250e4f00cb30b92d1fa88,,,,,,,,,,,198.2063,198.7055,,,198.9562,199.3717,right,0.4094,,,,,,,,,0.5,,,,,,198.7055,198.9562,199.3718,"[-0.0019836576975508953,-0.1008788220362426]",100.0,"[-0.016202455459736396,-0.14101670964775326]",4.0,"[-0.1461852531619488,0.05204418095067078]",100.0,"[0.00086331487491363,0.011379070827915274]",100.0,"[-0.08921649661354282,0.13349275396012958]",4.0,"[0.09481736784309203,-0.04646745638928709]",4.0,"[0.01682610648343545,-0.18660881549361713]",4.0,"[0.08561239570208488,-0.09042408223947992]",4.0,"[0.13370407604517062,0.14873419299090507]",100.0,"[-0.03835238511717093,-0.0079368414352385]",100.0,"[0.07758135117333025,0.07436448368850658]",100.0,"[0.12444195414150666,0.002750524901262865]",100.0,"[-0.15947112368132838,-0.11764704529491687]",4.0,"[0.08096056265718246,-0.1563958902872307]",4.0,"[-0.1702447110556786,-0.04145127097969179]",100.0,"[-0.07402209705442653,0.027078445026385456]",100.0,"[0.072260703230337,0.16264502272364473]",4.0,"[-0.18675448152442217,0.056270323038780455]",4.0,"[-0.049960599096144,-0.17633808410286061]",4.0,"[-0.18874751939175163,-0.00017230954417312677]",100.0,"[-0.11796694360851184,-0.04648394173203385]",100.0,"[-0.017394608605438847,0.10948641131193176]",100.0,"[-0.10434495413649338,0.05962222421662877]",4.0,"[0.165481283774988,0.009949428536049985]",4.0,"[-0.054220198185435074,0.15715139320601362]",100.0,"[-0.06489558293726477,-0.05604225378687874]",100.0,"[-0.09493574468794765,-0.15298836886396852]",4.0,"[-0.11747794942345358,0.10032395781937681]",4.0,"[0.04963799397754709,0.0011828348392739544]",4.0,"[0.0456566458056,-0.0874469979453482]",100.0,"[0.0025042900719276975,-0.04499175046942851]",100.0,"[-0.11293969118264219,-0.10169098182243456]",4.0,"[0.02,0.02]",200.4719,0.0,30.0,30.0,111.0,1.0,,,,,,,
,,,,,,,67d8270aba9f1c19f16caa6c,68442bf662fd7b9d3083b682,2025-06-07_14h13.41.959,shape_ratio,2024.1.5,Win32,59.88023952,684250e4f00cb30b92d1fa88,,,,,,,,,,,200.4728,200.9636,,,201.2071,201.7735,right,0.5553,,,,,,,,,0.5,,,,,,200.9636,201.2071,201.7735,"[0.1141055354281133,-0.15326652800439877]",100.0,"[0.03698610120834196,-0.058941785453526484]",100.0,"[0.10667851919505865,-0.10647740664391456]",4.0,"[-0.15233608304316523,-0.074271852923693]",100.0,"[0.14356804445139654,-0.001178719416065766]",100.0,"[-0.07940713446433985,-0.07685827524938339]",4.0,"[-0.024228168822842122,0.11129592834332314]",4.0,"[0.07634065956368251,0.08278882685825593]",4.0,"[-0.010011974592461103,0.16557089410854714]",4.0,"[0.15274678501171013,-0.0865510316233174]",100.0,"[0.0037503581723984988,-0.18902209282381707]",4.0,"[-0.06389673865324207,0.028532127907408906]",4.0,"[-0.0807647145623127,-0.15155517433258156]",4.0,"[0.07262147479772822,0.18250751667276444]",100.0,"[0.07475624801158422,-0.16760494680056556]",4.0,"[0.19418174778903272,-0.03114561236137096]",100.0,"[-0.09985455534565409,0.1404097992882341]",4.0,"[-0.18999991423097834,-0.020269279594248228]",4.0,"[-0.012649564869966943,-0.13159559556599962]",100.0,"[-0.08151309015912774,-0.03266973487738975]",100.0,"[0.14221094827490818,0.1367298508106022]",100.0,"[-0.15949344716024355,0.055641938488737774]",100.0,"[-0.08049394980052856,0.1777324911348661]",4.0,"[-0.030152165588362017,-0.004852363215129815]",4.0,"[-0.02712598327030523,-0.08852436146942674]",100.0,"[0.020356912846974978,0.12087542333956645]",4.0,"[0.04920130820204226,-0.10472895453536793]",4.0,"[-0.02835659361622164,-0.04512486702411572]",100.0,"[0.05785339270350056,0.01021424299942435]",100.0,"[0.11305833818694953,-0.030003299357998378]",4.0,"[0.1793230777431354,0.028401613458608883]",100.0,"[0.14764316596137622,0.08089598735957688]",100.0,"[0.02,0.02]",202.8729,0.0,31.0,31.0,93.0,1.0,,,,,,,
,,,,,,,67d8270aba9f1c19f16caa6c,68442bf662fd7b9d3083b682,2025-06-07_14h13.41.959,shape_ratio,2024.1.5,Win32,59.88023952,684250e4f00cb30b92d1fa88,,,,,,,,,,,202.8738,203.3751,,,203.6227,204.1068,right,0.4798,,,,,,,,,0.1,,,,,,203.3751,203.6227,204.1069,"[0.12846458707495295,0.02108501165704589]",4.0,"[0.14095976686907494,0.13853338015151714]",4.0,"[0.021725723911682353,0.022692507028280583]",4.0,"[-0.07876119178690984,-0.08130318792642151]",4.0,"[0.0466717456074509,0.16418218355575945]",4.0,"[-0.07393347479511872,0.10828550903398486]",4.0,"[0.061165409750401564,0.05095785440854621]",4.0,"[-0.11788882705616201,-0.0030183927905871664]",4.0,"[0.13296910299185394,-0.14673184385891747]",4.0,"[-0.14090092702914764,0.0732182486751351]",4.0,"[-0.14331792177687833,-0.0839098984722493]",100.0,"[0.03307996602173257,-0.03887259686975981]",4.0,"[0.10218723468541241,0.06395727663318965]",4.0,"[-0.057997613578561626,0.15337886437519435]",4.0,"[0.09162450849843745,0.1443673313254935]",4.0,"[-0.012432101713430545,0.15063423576415857]",4.0,"[-0.010959752358759824,-0.13009862513454426]",4.0,"[0.1442205800162224,-0.029259430326227475]",4.0,"[0.07660154025980426,-0.1188521169889863]",4.0,"[0.09220140884325735,-0.03799347416508042]",4.0,"[0.05749701635433538,-0.08307677221476842]",4.0,"[0.002493278296218908,0.09646077234213868]",4.0,"[-0.05570325749856458,0.06384661188783328]",4.0,"[-0.1219179943710292,-0.04351772213029384]",4.0,"[0.0008915199921096977,-0.01334540143916538]",4.0,"[0.018503423043050412,-0.09741155306706603]",100.0,"[-0.053471675651035014,-0.17198588549130275]",4.0,"[-0.19730119509381855,-0.004981276610129649]",4.0,"[0.14317253586921092,0.058585574232488724]",4.0,"[-0.1840690255127601,-0.0700954293717256]",4.0,"[-0.03055085601574409,-0.09501337123695591]",100.0,"[-0.11717218127992743,0.1506622712648908]",4.0,"[0.02,0.02]",205.2075,0.0,32.0,32.0,187.0,1.0,,,,,,,
,,,,,,,67d8270aba9f1c19f16caa6c,68442bf662fd7b9d3083b682,2025-06-07_14h13.41.959,shape_ratio,2024.1.5,Win32,59.88023952,684250e4f00cb30b92d1fa88,,,,,,,,,,,205.2082,205.7082,,,205.9564,206.441,left,0.4649,,,,,,,,,0.4,,,,,,205.7083,205.9564,206.4411,"[-0.03437422675137931,0.054259033385274]",4.0,"[-0.08886285907264012,-0.11300847575800305]",4.0,"[-0.17629380446970808,-0.08530574240566713]",100.0,"[0.029627796488814164,-0.10089328401463883]",100.0,"[-0.17797327734259918,0.018856355537907026]",100.0,"[-0.12856354230757175,-0.0754121134420765]",4.0,"[0.10590456039983553,-0.1284699050326144]",4.0,"[0.06751309344458775,0.052108766339021464]",100.0,"[0.13304098839509254,0.08843229240393742]",100.0,"[0.1203836952341965,0.04601978136426756]",4.0,"[-0.08410240791358532,0.05444808612306492]",4.0,"[-0.010288352310307985,0.08871176317219352]",4.0,"[-0.10663542023565974,-0.0014402932795615502]",4.0,"[0.16410178165615655,-0.030518658284464584]",100.0,"[0.04005813051282267,0.009971213350178395]",100.0,"[-0.1571799722263809,0.06333233847274163]",4.0,"[0.023810830607165857,0.061415700101403174]",4.0,"[0.1318243959780571,-0.0039009765724102984]",4.0,"[0.04171963512220873,-0.036842341191474365]",100.0,"[0.03080269615679726,0.1967614369029138]",4.0,"[0.05033970608181816,-0.18881264352827828]",4.0,"[0.14964206728397358,-0.10433415038933185]",100.0,"[0.09141979896501702,-0.03613067250026892]",100.0,"[-0.004448597040789926,0.023129851505519567]",4.0,"[0.0831627327523657,-0.07844945003882611]",100.0,"[0.05831592099685755,-0.14822092102775877]",4.0,"[0.08917617922486366,0.17358075472439383]",4.0,"[0.16685383080529506,0.05225770309770348]",100.0,"[-0.020577122996748458,-0.1478092325788926]",4.0,"[-0.08064215373481617,-0.04897425537044193]",4.0,"[0.05086338993735943,0.11863023515379922]",100.0,"[-0.1606056851253305,-0.02923202939851618]",4.0,"[0.02,0.02]",207.5391,0.0,33.0,33.0,174.0,1.0,,,,,,,
,,,,,,,67d8270aba9f1c19f16caa6c,68442bf662fd7b9d3083b682,2025-06-07_14h13.41.959,shape_ratio,2024.1.5,Win32,59.88023952,684250e4f00cb30b92d1fa88,,,,,,,,,,,207.5397,208.0403,,,208.2911,208.66,right,0.3654,,,,,,,,,0.4,,,,,,208.0403,208.2911,208.66,"[0.12082174537210383,0.14924778188716317]",4.0,"[-0.00011670191055439034,0.1121556366063782]",4.0,"[-0.030616344632591202,0.1901395304824032]",100.0,"[0.1604701554349997,0.011810751748011295]",4.0,"[-0.10365778824273707,0.012919678271439868]",4.0,"[0.01641300364726141,0.04782647930448261]",100.0,"[0.16391413533993054,0.0707381081067929]",4.0,"[-0.11702432389952333,0.10792772679402914]",100.0,"[0.08457602248243246,-0.16774162495419523]",4.0,"[-0.1424008934832915,-0.06586711551407497]",100.0,"[0.06655764293116034,0.14044011258159667]",4.0,"[-0.05664253092157012,0.14028781504886514]",100.0,"[-0.0457505947697276,-0.11164249780798781]",4.0,"[0.05253139451528675,-0.00623279145597722]",4.0,"[-0.010161609026571762,0.1545806148018216]",4.0,"[0.09407679932418063,-0.02821980338290067]",4.0,"[-0.09690864931580027,-0.1559897930870673]",100.0,"[-0.10320221926685932,-0.05296599384714324]",100.0,"[-0.04274829277012515,-0.01812026905213958]",100.0,"[-0.004004741405104902,0.004208414027548953]",4.0,"[-0.04501399294625505,0.048630500066332814]",4.0,"[-0.1690907694354418,0.07919630418835491]",100.0,"[0.16252818592145507,-0.07664923565049718]",100.0,"[0.08741634353310193,0.09517195975932563]",4.0,"[0.017285995425607437,-0.08227442257056361]",4.0,"[-0.04415198808566508,-0.06157768082719746]",100.0,"[0.03965996584621162,0.17650512038118432]",100.0,"[0.11275773456682878,0.04591382878995711]",100.0,"[-0.1811460203019235,0.04024540004812439]",4.0,"[0.16894962889863024,-0.0336425273729858]",4.0,"[-0.11478039239402074,0.05719543927718734]",4.0,"[-0.14406735565889447,-0.018506542702686826]",4.0,"[0.02,0.02]",209.7602,0.0,34.0,34.0,171.0,1.0,,,,,,,
,,,,,,,67d8270aba9f1c19f16caa6c,68442bf662fd7b9d3083b682,2025-06-07_14h13.41.959,shape_ratio,2024.1.5,Win32,59.88023952,684250e4f00cb30b92d1fa88,,,,,,,,,,,209.7609,210.2592,,,210.5092,211.0791,left,0.5529,,,,,,,,,0.9,,,,,,210.2592,210.5092,211.0791,"[0.07931067458561905,0.0614111720886644]",100.0,"[0.05273706434726133,-0.018399303212032796]",4.0,"[-0.15827016395204313,0.08030918430480807]",100.0,"[-0.031146186586240424,0.18927464655750237]",100.0,"[0.03957150779043162,0.14536224364013509]",100.0,"[0.131228060967881,0.07512726666873037]",100.0,"[-0.1093914126271646,0.12040055639309756]",4.0,"[0.07956740808808414,0.15177187507127674]",100.0,"[-0.0047786667630674426,0.0007708280153358945]",100.0,"[-0.04978905870905723,0.14285885025767361]",100.0,"[-0.07944073502272965,-0.002494127638535723]",100.0,"[0.05508243912421579,-0.19109388009023326]",100.0,"[-0.15839185938116732,-0.11671890725119412]",100.0,"[-0.008607471267099234,-0.10488260024355062]",4.0,"[-0.1717204455281494,-0.04391578658441553]",100.0,"[0.11318362584114806,-0.15723109914544048]",100.0,"[0.04436548457922609,-0.08576545339822944]",100.0,"[0.1924916497611294,0.012985405136926385]",100.0,"[-0.13782568064435866,-0.06622218771191873]",100.0,"[0.08978303410916796,-0.07408047334923215]",100.0,"[-0.10792129982813894,0.07471802355205517]",100.0,"[-0.05034458559664449,0.05840318361480054]",100.0,"[-0.11378770463091972,-0.14169338666129888]",100.0,"[0.06868971556667508,-0.14603417054830037]",100.0,"[0.1549188485804108,-0.1049694607880764]",100.0,"[0.15258378151199462,0.03446851225268967]",100.0,"[0.11512437793157443,0.12408937763198764]",100.0,"[-0.18072693493016445,0.0044640637611967435]",100.0,"[-0.006646803165168896,0.0778547091917118]",100.0,"[-0.06660855834875402,-0.10691246781579057]",100.0,"[0.1036353413403218,0.0038489013876344715]",100.0,"[0.03919621349577549,0.03065424132223086]",100.0,"[0.02,0.02]",212.1759,0.0,35.0,35.0,23.0,1.0,,,,,,,
,,,,,,,67d8270aba9f1c19f16caa6c,68442bf662fd7b9d3083b682,2025-06-07_14h13.41.959,shape_ratio,2024.1.5,Win32,59.88023952,684250e4f00cb30b92d1fa88,,,,,,,,,,,212.1766,212.6761,,,212.9255,213.5784,left,0.6481,,,,,,,,,0.55,,,,,,212.6761,212.9254,213.5784,"[0.09632755257527793,-0.13812531790817514]",100.0,"[-0.047558896942050864,-0.07486631325581221]",100.0,"[-0.12697547743305287,0.14981737299102865]",100.0,"[-0.09944291061338863,-0.06184752070518505]",4.0,"[-0.07773507877683679,-0.14056675778361363]",100.0,"[0.06671912523631951,-0.10572452606809297]",100.0,"[0.1928452291837524,-0.04254504645906284]",100.0,"[0.04361516181705604,0.005515845011537315]",4.0,"[0.08821940007731396,0.08551233105798059]",100.0,"[0.08193652590314826,-0.058647903054756]",100.0,"[-0.1428603504928519,-0.027467002818138866]",100.0,"[-0.08044825430937128,0.14316557813586314]",4.0,"[0.011481658925793453,-0.0491452818864103]",100.0,"[-0.1209813287596391,0.043378723736205424]",100.0,"[-0.1357526892230555,0.09599036028532568]",4.0,"[0.029075984220924417,-0.08995748364039009]",4.0,"[-0.11959230272763734,-0.11754004756341167]",4.0,"[0.03649483814733547,0.0933820867894941]",4.0,"[-0.16919534989985527,-0.06092939206802209]",100.0,"[0.11461100391908323,0.14154025068241927]",4.0,"[-0.18769405188479008,0.025488328542359318]",100.0,"[-0.0910647006521641,-0.015524822906276972]",100.0,"[0.1266545988570208,-0.047888169635343716]",100.0,"[0.09305263626901783,0.04009399627770734]",100.0,"[0.0647068608690102,0.18631783405404106]",4.0,"[0.03855929555935205,-0.19397071398811047]",4.0,"[-0.042495783682952905,-0.006015691560004441]",4.0,"[0.0002288732941540526,0.1277654518326748]",4.0,"[0.1468574907432122,-0.08394971655728449]",4.0,"[-0.02691768524883063,-0.12487491635138392]",100.0,"[-0.03880418129476898,0.08811257248530696]",4.0,"[0.008972558114867182,0.19162636072097233]",100.0,"[0.02,0.02]",214.6765,0.0,36.0,36.0,86.0,1.0,,,,,,,
,,,,,,,67d8270aba9f1c19f16caa6c,68442bf662fd7b9d3083b682,2025-06-07_14h13.41.959,shape_ratio,2024.1.5,Win32,59.88023952,684250e4f00cb30b92d1fa88,,,,,,,,,,,214.6772,215.1764,,,215.4272,215.7618,right,0.3191,,,,,,,,,0.1,,,,,,215.1764,215.4272,215.7618,"[-0.11323884568476643,0.04685420736609042]",4.0,"[-0.12947281788139212,0.08750573523256817]",4.0,"[-0.07888441416924992,-0.00031213578457348225]",4.0,"[-0.027485143459151984,0.18003628177773165]",4.0,"[0.15830682363334003,-0.019561129621551508]",4.0,"[0.07017678448448483,0.13880770733229453]",4.0,"[-0.08299940003051215,-0.06972737842357933]",100.0,"[-0.19031985009665278,0.05055881027061723]",4.0,"[0.03568695718754176,-0.04269137060759549]",4.0,"[0.04567813460646095,-0.1113668058293667]",100.0,"[-0.025996938942675442,-0.0013028155513683385]",4.0,"[-0.16276764349564257,-0.02527988675781412]",4.0,"[0.11522079419138266,-0.03314792221663364]",4.0,"[-0.15074535804351338,-0.09047007069101633]",4.0,"[-0.020213797166228287,0.0986261877958874]",4.0,"[0.06165956517097761,-0.16510189839611608]",100.0,"[0.09448936515628119,0.06703211130953621]",4.0,"[-0.05786583467252241,-0.18197866538678711]",4.0,"[0.12938247307468803,0.0219455868205364]",4.0,"[0.027919731621848982,0.011316331082351595]",4.0,"[-0.012785306296185352,-0.08483129341643761]",4.0,"[0.11589277810676614,-0.12145781614132314]",4.0,"[0.07102219419779411,0.00030637788583185734]",4.0,"[0.1664051133600752,0.07668210423853579]",4.0,"[0.19554240375664764,0.03281791331703122]",4.0,"[0.13532017339242297,0.11509422701806331]",4.0,"[0.0013229255794029787,-0.19120593621575507]",4.0,"[-0.02333082265042284,0.05850400455847131]",4.0,"[-0.09693861732960915,0.14671626256273965]",4.0,"[0.012662947372282105,-0.1471191823825906]",4.0,"[0.046567482970630264,0.08575440197700492]",4.0,"[-0.04508595858535773,-0.11315785298634873]",4.0,"[0.02,0.02]",216.8598,0.0,37.0,37.0,190.0,1.0,,,,,,,
,,,,,,,67d8270aba9f1c19f16caa6c,68442bf662fd7b9d3083b682,2025-06-07_14h13.41.959,shape_ratio,2024.1.5,Win32,59.88023952,684250e4f00cb30b92d1fa88,,,,,,,,,,,216.8605,217.3598,,,217.612,217.9924,right,0.3656,,,,,,,,,0.4,,,,,,217.3598,217.6119,217.9924,"[-0.008528605884537016,0.19820764828884901]",100.0,"[-0.0994302007556116,-0.08267476387389767]",4.0,"[-0.04536423738612434,0.060726091439953445]",4.0,"[-0.03351426271899611,-0.05065880115190637]",4.0,"[-0.19987779026994262,0.00030318643127026976]",100.0,"[-0.1284176119953915,0.06055318869700352]",4.0,"[0.14272710636168057,0.021573461077221787]",4.0,"[0.052657761034437416,-0.005546634503539631]",100.0,"[-0.0936844142310816,0.11385446500681085]",100.0,"[0.14717223217759992,0.09521307921759058]",4.0,"[0.017933249328288416,-0.04365207922204021]",100.0,"[-0.1430041693823452,0.00764251700842317]",100.0,"[0.04024723860342329,0.19201436716849027]",100.0,"[0.1929552738558773,0.021585882977010456]",4.0,"[0.04762536200220292,-0.12391172146205688]",4.0,"[-0.07513066840954037,-0.0009637237014721877]",100.0,"[0.1930668061457106,-0.04100696199208658]",4.0,"[-0.028289210833284544,-0.18829101757938088]",100.0,"[0.007958385645264094,-0.10945552462479857]",4.0,"[0.08980272814274669,0.14810452945373287]",4.0,"[0.05537000821688094,-0.0844373124246863]",4.0,"[0.04696985350813526,0.05150146368996015]",4.0,"[-0.13544801780289753,-0.04820965080950455]",100.0,"[-0.12901990738065947,-0.11017424094739257]",100.0,"[0.005362962578085125,0.14958834664375142]",4.0,"[0.07569672221103013,-0.16824799673802307]",4.0,"[-0.03103165500339781,-0.006806560241318938]",4.0,"[0.10912032625956991,0.10842274345855628]",4.0,"[0.06161803676302429,0.1031091120672883]",100.0,"[-0.07377819544959814,-0.17157746868569101]",4.0,"[-0.06537366674140717,0.1551148258494342]",4.0,"[0.016061470860042976,0.08593328847422764]",100.0,"[0.02,0.02]",219.0939,0.0,38.0,38.0,157.0,1.0,,,,,,,
,,,,,,,67d8270aba9f1c19f16caa6c,68442bf662fd7b9d3083b682,2025-06-07_14h13.41.959,shape_ratio,2024.1.5,Win32,59.88023952,684250e4f00cb30b92d1fa88,,,,,,,,,,,219.0945,219.5931,,,219.8432,220.3949,right,0.5347,,,,,,,,,0.55,,,,,,219.5931,219.8432,220.3949,"[0.09873406080934909,0.10307451290607121]",4.0,"[0.08678966074499116,0.1425619006203452]",4.0,"[0.061800761836238324,-0.07160588203834575]",4.0,"[-0.043641821098652965,-0.14377940484781798]",100.0,"[0.024249821955997012,-0.03870135478670561]",4.0,"[-0.031161597824225507,0.0370837777809916]",100.0,"[0.15969768185045954,-0.09975611175701228]",100.0,"[0.11593975450892897,-0.06001169601781509]",100.0,"[0.06199685076397667,-0.15472507890311266]",4.0,"[-0.15521229140186765,0.06716088864336031]",100.0,"[0.04250774234757983,0.0638561698362434]",100.0,"[0.02176124746470759,0.11336805126188826]",100.0,"[0.06686087571239616,0.010045666077275375]",4.0,"[-0.10194728961797764,-0.12298249504804136]",100.0,"[0.024537375523282265,-0.18159329917717032]",4.0,"[-0.08894967464909993,-0.17221044744629985]",4.0,"[-0.07616999500048537,0.06129839503432619]",4.0,"[-0.0489923651492582,0.10833911746950937]",100.0,"[0.18035239170585343,-0.004251140275569136]",100.0,"[0.005973785810284963,0.15426099023253279]",100.0,"[0.0833776001045775,0.05380541103288581]",100.0,"[0.14442049294974937,0.12172238518339884]",100.0,"[0.056384127434883365,0.18015616310861995]",100.0,"[0.012377496928988633,0.023217960766916602]",100.0,"[-0.10181447002765041,-0.043430610168238765]",4.0,"[-0.05828078315010697,-0.10543826064314336]",4.0,"[-0.11501931199928325,0.036772245798684586]",100.0,"[-0.014678952906915428,0.19882922282042476]",4.0,"[-0.1557696535937622,-0.007085330868295322]",4.0,"[0.01823775476556741,-0.0802890696596456]",4.0,"[0.184931578992173,0.06734296837755721]",100.0,"[-0.06675496015519339,0.002236391126804066]",100.0,"[0.02,0.02]",221.4936,0.0,39.0,39.0,62.0,1.0,,,,,,,
,,,,,,,67d8270aba9f1c19f16caa6c,68442bf662fd7b9d3083b682,2025-06-07_14h13.41.959,shape_ratio,2024.1.5,Win32,59.88023952,684250e4f00cb30b92d1fa88,,,,,,,,,,,221.4942,221.9937,,,222.2444,222.596,left,0.3357,,,,,,,,,0.9,,,,,,221.9938,222.2443,222.5961,"[0.1639597573811165,-0.06844553727370858]",100.0,"[0.16318519256145322,-0.11219705358386929]",100.0,"[-0.01792658105446957,-0.19462887382640512]",100.0,"[-0.17223566273097515,0.016174953394992312]",100.0,"[-0.18636796724370427,0.056665838364023]",4.0,"[0.08084734892439747,-0.1736287019687107]",100.0,"[-0.05276202945580779,0.055838469212315535]",100.0,"[0.00013351206677637736,0.13114737302845378]",100.0,"[-0.11921686217383307,-0.05973933994358358]",100.0,"[0.03139096856736802,-0.18336094641963444]",4.0,"[0.060322090015629146,0.0414840881643714]",100.0,"[-0.056420780420459615,-0.09695934757553304]",100.0,"[-0.1980121369108523,-0.025102248996184174]",100.0,"[-0.03591289954826345,-0.054523953038459194]",100.0,"[-0.029048926555667896,-0.1374858970314091]",100.0,"[0.014923944271362627,-0.08798232924574408]",100.0,"[-0.018990487026502325,-0.013301442797568697]",100.0,"[-0.1216374418254926,0.04995409005431099]",100.0,"[0.11396663854959377,-0.11479288422644753]",100.0,"[0.10028384335686881,0.01596852510445167]",100.0,"[0.1992566256017552,0.010378382884682607]",4.0,"[-0.10191835816975713,-0.018221354904027695]",100.0,"[-0.07349112899719709,-0.15883499476235358]",100.0,"[-0.036601700713318745,0.11464415378203133]",100.0,"[-0.0896841268362446,0.1484187166698433]",100.0,"[-0.14456046877747927,-0.09553212252551163]",100.0,"[0.05609786662605996,-0.03560958255281845]",100.0,"[-0.00302103347350802,0.194130458449793]",100.0,"[-0.05836163873044444,0.1882059655824285]",100.0,"[-0.09475298174393253,-0.11985772750165026]",100.0,"[-0.08155614246846428,0.08445139126518124]",100.0,"[0.09224335236722021,0.10603503552044147]",100.0,"[0.02,0.02]",223.6947,0.0,40.0,40.0,13.0,1.0,,,,,,,
,,,,,,,67d8270aba9f1c19f16caa6c,68442bf662fd7b9d3083b682,2025-06-07_14h13.41.959,shape_ratio,2024.1.5,Win32,59.88023952,684250e4f00cb30b92d1fa88,,,,,,,,,,,223.6956,224.1949,,,224.4455,224.7436,left,0.2727,,,,,,,,,0.55,,,,,,224.195,224.4455,224.7436,"[-0.07084922959856349,-0.03614064159008957]",100.0,"[0.055190788460482795,0.18719346653974764]",100.0,"[0.17929397664229257,-0.03524207145054256]",100.0,"[0.03812954713129621,-0.18371374083599076]",100.0,"[-0.03796791468499619,0.17317382149193242]",4.0,"[-0.09196884431440337,0.1275263846928766]",100.0,"[0.015468848204293359,0.17961036539886252]",100.0,"[0.15400180443870345,0.05024772754442402]",100.0,"[0.056829043239441344,0.043066620587511165]",4.0,"[-0.046742174096689744,-0.10706680024368848]",100.0,"[-0.19708781103913176,0.018948277695737134]",4.0,"[0.10370272273113576,-0.04251402694211277]",100.0,"[-0.12037146967037414,-0.02088217412926106]",4.0,"[0.06206667184287247,-0.03489834816171478]",4.0,"[0.016455485463602953,-0.0504685273713139]",100.0,"[-0.128591201684548,-0.10237741389230201]",4.0,"[0.0972205730434037,0.15788316472202096]",100.0,"[0.08846570233755449,-0.1041353497643497]",4.0,"[0.15043555774953166,-0.06778002665022138]",4.0,"[-0.06817655437803104,-0.15083705076917345]",100.0,"[-0.1066204835264797,-0.1632002638841097]",4.0,"[0.031798552519056084,0.09726659097095992]",100.0,"[0.1147879473666206,0.07778460313915254]",4.0,"[-0.1851344908874929,0.05997898421103737]",100.0,"[-0.02558737452819807,0.0737416961945282]",4.0,"[0.13465025613746087,0.13466999673876368]",100.0,"[-0.14258229358949395,-0.057292814074197805]",4.0,"[-0.14030531679494784,0.13260529050943476]",100.0,"[-0.02225240657257312,-0.14600843784647494]",100.0,"[0.08764486384765124,0.007684018264978544]",100.0,"[0.19515307831090448,0.0248330805566233]",4.0,"[-0.16803552835150265,-0.018720695111645796]",4.0,"[0.02,0.02]",225.8457,0.0,41.0,41.0,67.0,1.0,,,,,,,
,,,,,,,67d8270aba9f1c19f16caa6c,68442bf662fd7b9d3083b682,2025-06-07_14h13.41.959,shape_ratio,2024.1.5,Win32,59.88023952,684250e4f00cb30b92d1fa88,,,,,,,,,,,225.8463,226.3441,,,226.5949,226.9968,left,0.3858,,,,,,,,,0.5,,,,,,226.3442,226.5949,226.9969,"[0.04516397236889996,-0.18668867554114296]",4.0,"[0.14701848759100955,0.0660304599139581]",4.0,"[0.17967820026851725,-0.027137215341092605]",4.0,"[-0.08460555628195658,-0.1327274777174967]",100.0,"[-0.10658265018121467,-0.05434808704782074]",100.0,"[0.006965399384344311,0.1567411504402807]",4.0,"[-0.042555420941242976,-0.12949931611721344]",100.0,"[-0.14583536413893258,-0.026167700524776887]",4.0,"[-0.07546028369452805,0.1022938781601704]",100.0,"[-0.10426838057744073,0.15420488094667048]",4.0,"[0.10020080292515443,0.06706272715721198]",4.0,"[-0.006349443760274087,-0.028511987080825318]",100.0,"[0.09991029687651481,0.141843512691156]",4.0,"[-0.1225536980908027,-0.09463311757173681]",4.0,"[0.052783507698609206,0.14644407573091167]",100.0,"[0.010147508052571525,0.11440565141812134]",100.0,"[-0.07388995799109928,0.019750647309540147]",4.0,"[0.04164864949305857,-0.0834453747719289]",100.0,"[-0.020582625549389517,0.08754431040910444]",100.0,"[-0.04527436862790116,-0.1906376188210617]",100.0,"[-0.035172092973958194,0.17218655762724347]",4.0,"[-0.15419241731148045,0.031124886392244436]",100.0,"[0.0035476945464539096,-0.1762186557852766]",100.0,"[-0.19036585515727042,-0.017497168645521716]",100.0,"[-0.11503197954712321,0.021308049652721664]",4.0,"[0.04282054972089182,0.18832272022996985]",100.0,"[0.10739196835416073,-0.13531181827573693]",100.0,"[-0.14751074319828844,0.11190516945323942]",4.0,"[0.14453934851265493,-0.09076098957258749]",100.0,"[0.18811105414125245,0.0266505837238815]",4.0,"[0.158659776751286,0.10674639104724999]",4.0,"[0.042752044974732575,-0.017051142471492614]",4.0,"[0.02,0.02]",228.0954,0.0,42.0,42.0,106.0,1.0,,,,,,,
,,,,,,,67d8270aba9f1c19f16caa6c,68442bf662fd7b9d3083b682,2025-06-07_14h13.41.959,shape_ratio,2024.1.5,Win32,59.88023952,684250e4f00cb30b92d1fa88,,,,,,,,,,,228.0961,228.5943,,,228.845,229.1613,right,0.3,,,,,,,,,0.4,,,,,,228.5943,228.845,229.1613,"[0.1290065879708593,-0.10543326621319418]",4.0,"[0.0396245640748104,-0.18422045424916494]",4.0,"[0.18477956893235967,0.014830138548912264]",4.0,"[0.019301222097207162,0.028351794503200026]",4.0,"[-0.04419883282958001,-0.05200600484196867]",4.0,"[0.04060292801998614,-0.03910298546274498]",100.0,"[-0.12529377885587017,-0.015099499941815118]",100.0,"[-0.06667267379428077,-0.09448672851592227]",4.0,"[0.15541043115457934,0.06846042584911458]",4.0,"[-0.14712217801923222,-0.06321043002972339]",4.0,"[-0.06928890699363859,-0.1469077214684428]",4.0,"[0.032522237365799886,-0.1084125885609655]",4.0,"[0.017640876168002542,0.19016452859399718]",4.0,"[0.0037603704641284413,-0.060076520824214996]",100.0,"[-0.0259523790853978,-0.004319666102637483]",4.0,"[0.02489230522565281,0.09747663382445318]",4.0,"[0.12490508344548712,0.13044542950553548]",4.0,"[0.059840675715939054,0.04715928986629118]",100.0,"[-0.11250339867660128,0.07642649798482806]",100.0,"[0.11555189259870935,0.04048830054391956]",4.0,"[0.10271050031642628,-0.060647388332104764]",100.0,"[-0.1461765083523447,0.1261679033878318]",100.0,"[0.11859906236255699,-0.006210122163969098]",100.0,"[-0.13093702548322173,-0.14036761494828162]",4.0,"[-0.18141435411341655,0.05544709731786155]",100.0,"[0.08779707413093538,-0.16289036063613196]",4.0,"[0.10505692599520815,0.08254685612329422]",100.0,"[-0.00921829108355666,-0.18167656192067588]",4.0,"[0.02960832968478539,0.1456300153356285]",100.0,"[-0.023306239543581794,0.1439462855586536]",100.0,"[-0.09352332134753533,0.1391435973402104]",4.0,"[-0.013341641216750334,-0.12846022369390586]",100.0,"[0.02,0.02]",230.263,0.0,43.0,43.0,162.0,1.0,,,,,,,
,,,,,,,67d8270aba9f1c19f16caa6c,68442bf662fd7b9d3083b682,2025-06-07_14h13.41.959,shape_ratio,2024.1.5,Win32,59.88023952,684250e4f00cb30b92d1fa88,,,,,,,,,,,230.2635,230.7589,,,230.9969,231.4313,right,0.4196,,,,,,,,,0.6,,,,,,230.759,230.9969,231.4313,"[0.12340399037984925,0.10566333950954399]",4.0,"[-0.055767173460944564,0.08704720525672062]",100.0,"[-0.003455061190813015,0.17432956821655057]",4.0,"[0.02348216299363578,-0.1348250280503586]",100.0,"[-0.0287114872669802,0.13790414863481765]",4.0,"[0.06304497569397596,-0.0938924319917424]",4.0,"[0.07581959205425731,-0.1575480034004709]",4.0,"[0.13292354626441097,-0.029065978133635265]",4.0,"[-0.03888538557278225,-0.09866853085627075]",4.0,"[0.10566520323234738,0.06272055952042452]",100.0,"[-0.13282298732794517,-0.12355729926746116]",100.0,"[0.05080851034128527,0.09384320507600623]",100.0,"[0.12924588646424964,-0.14329387062112314]",100.0,"[-0.011264903897547909,-0.0440316963653609]",100.0,"[0.19356007852464657,-0.021045813215623276]",100.0,"[0.1346898330829434,0.14735817552007022]",100.0,"[-0.06762795372068771,-0.1873444195272508]",100.0,"[0.0876709628431196,-0.03366263562973069]",4.0,"[-0.15329822026075332,0.06262281485049682]",4.0,"[-0.18638175998891546,-0.05585964703892744]",4.0,"[-0.01625398026584002,0.04765796900862296]",100.0,"[-0.09570335010293822,-0.028997373979560884]",100.0,"[-0.14794042292787132,-0.017324065090871938]",100.0,"[-0.053879994577000066,0.17535206251457058]",100.0,"[0.035035878683257374,-0.04324770600550675]",100.0,"[0.1879076374871684,0.03160090713560897]",4.0,"[-0.1331596853469914,-0.07465540381470682]",4.0,"[0.057384906916942084,0.18362596944134033]",100.0,"[-0.07667273361903354,-0.14654238724080013]",100.0,"[-0.06935012962225688,0.13474520404611023]",100.0,"[-0.13572412125777233,0.1356897958187705]",4.0,"[0.14203172213546927,0.04481896215316903]",100.0,"[0.02,0.02]",232.5295,0.0,44.0,44.0,37.0,1.0,,,,,,,
,,,,,,,67d8270aba9f1c19f16caa6c,68442bf662fd7b9d3083b682,2025-06-07_14h13.41.959,shape_ratio,2024.1.5,Win32,59.88023952,684250e4f00cb30b92d1fa88,,,,,,,,,,,232.5301,233.0294,,,233.2787,233.7505,right,0.4549,,,,,,,,,0.5,,,,,,233.0295,233.2786,233.7505,"[-0.08474973285496454,0.0020088938828803403]",4.0,"[-0.0024668275550030973,0.04282686877682404]",100.0,"[-0.0678001195220264,-0.15019730105881712]",100.0,"[0.029587001327295196,-0.1945388024138268]",100.0,"[-0.01768917110370996,-0.08944978564426768]",4.0,"[0.1324542186283141,-0.0860921801024349]",100.0,"[0.023339119821715215,0.17046291990865514]",100.0,"[0.05725576653345317,-0.00965583806110745]",100.0,"[-0.0904462432374435,0.05386578316111642]",100.0,"[0.15216681830278436,-0.04343186899485387]",100.0,"[-0.0645216469018174,-0.0910158012471515]",4.0,"[0.030100674036486356,0.0671506991468064]",4.0,"[0.09350204173432035,0.1311624487023514]",100.0,"[0.14028687925274955,0.06846413415861845]",4.0,"[0.0708256961158029,-0.08374946620518045]",4.0,"[-0.1544035857163565,0.037965054788893345]",4.0,"[-0.035655420733493925,0.08760111187651451]",4.0,"[-0.07579335431889656,0.12033411694195288]",100.0,"[-0.06776641109693604,-0.03866558695470489]",100.0,"[0.09894862298630872,-0.002856990478716902]",4.0,"[-0.06569547169768875,0.17338910951880507]",4.0,"[0.009245179128606788,-0.1372548060893444]",4.0,"[-0.12174955780559689,0.1331265133114544]",100.0,"[0.02143334330257575,-0.0539219877006083]",4.0,"[-0.038944678523086425,-0.007514717943194496]",4.0,"[-0.15536311208356843,0.08623100544625836]",4.0,"[-0.015326054644340862,-0.1796486571265123]",100.0,"[-0.1664200995921338,-0.058963877526941044]",100.0,"[-0.04670118374352539,0.04635079141385388]",4.0,"[0.1369567129575766,0.020628533102634274]",100.0,"[-0.12374593336412397,-0.019383780414091726]",4.0,"[0.011997780995850362,0.10756089809899415]",100.0,"[0.02,0.02]",234.8465,0.0,45.0,45.0,118.0,1.0,,,,,,,
,,,,,,,67d8270aba9f1c19f16caa6c,68442bf662fd7b9d3083b682,2025-06-07_14h13.41.959,shape_ratio,2024.1.5,Win32,59.88023952,684250e4f00cb30b92d1fa88,,,,,,,,,,,234.8471,235.346,,,235.5977,236.0656,right,0.4528,,,,,,,,,0.55,,,,,,235.346,235.5977,236.0656,"[0.12610212767072446,0.01164278881703675]",100.0,"[0.053915600266789605,0.15757602922186312]",4.0,"[-0.02796740531071002,0.18750970496052338]",4.0,"[-0.07834110292479249,-0.1798103414494826]",100.0,"[0.08238482101083473,-0.1215693726037716]",100.0,"[0.06870232290145635,-0.055381027335364756]",100.0,"[-0.12842445066928904,-0.11378640552559294]",4.0,"[0.1641559794335047,-0.00189128042505031]",4.0,"[0.13124069904484018,-0.1061714307892333]",4.0,"[-0.13945363153860413,-0.03774879668286351]",100.0,"[0.17168547946531704,-0.04942223816683628]",100.0,"[0.03648760322026789,0.021715394476836986]",100.0,"[-0.08973716179827942,0.10546648163160743]",100.0,"[-0.03567865310814577,-0.12045687412153586]",4.0,"[-0.04007681259450698,-0.01925384144536729]",100.0,"[-0.042963215516001504,0.10100443329087233]",100.0,"[0.056697772117920965,-0.17410559835938197]",100.0,"[-0.006015481914464207,-0.19578088585554582]",100.0,"[-0.06045212603188265,0.13826114320345084]",100.0,"[0.10437375323339912,0.08137903148105566]",100.0,"[-0.05078201605807623,0.048691451788268066]",4.0,"[-0.1821067392569988,-0.0015904015357260388]",4.0,"[-0.006325513731834085,-0.15086681270597227]",100.0,"[-0.13043586876628166,0.06685065305798757]",4.0,"[0.1464353699230123,0.06997319629499228]",100.0,"[0.018284222487721394,0.13237530898405855]",4.0,"[0.05475262987713798,0.11491245563942731]",4.0,"[0.0406838359915461,-0.09512816077000814]",100.0,"[-0.005014525392711932,-0.07493767707646273]",4.0,"[-0.1429796321725901,0.13595895699135702]",4.0,"[0.07774587197305921,-0.015395870681139586]",4.0,"[0.16999184205162507,-0.08996289541270913]",100.0,"[0.02,0.02]",237.16,0.0,46.0,46.0,76.0,1.0,,,,,,,
,,,,,,,67d8270aba9f1c19f16caa6c,68442bf662fd7b9d3083b682,2025-06-07_14h13.41.959,shape_ratio,2024.1.5,Win32,59.88023952,684250e4f00cb30b92d1fa88,,,,,,,,,,,237.1612,237.6634,,,237.9131,238.263,left,0.3333,,,,,,,,,0.9,,,,,,237.6634,237.9131,238.263,"[0.08696563174774107,-0.1452649028793394]",100.0,"[0.1295329530377475,-0.14683646077956677]",100.0,"[0.14181366867143916,-0.07883625987755366]",100.0,"[0.09369599717934123,0.10425743726814365]",100.0,"[-0.06219379504012737,0.05836588011260577]",4.0,"[-0.11521718948980698,0.002806378372994915]",100.0,"[0.13039469078434926,0.01166610892150537]",100.0,"[0.0030169728905968148,-0.10228634039909099]",100.0,"[-0.12762577823953383,0.04857721817962522]",100.0,"[0.005977092637535825,0.08462571791240645]",4.0,"[0.012432057629994542,0.16562970546709083]",100.0,"[-0.05529534706391948,-0.06796491596218078]",100.0,"[0.14736578559569463,0.10480678026266783]",4.0,"[-0.13435924460865045,0.11470575667685651]",100.0,"[-0.15817781804275313,-0.07553512054503016]",100.0,"[-0.09438217747752718,0.09825160524350156]",100.0,"[-0.19201417662371964,-0.041164978970968304]",100.0,"[-0.011728044483024181,0.19902077563592593]",100.0,"[0.015554557663530522,-0.02728242630551332]",100.0,"[-0.17259111955206308,0.0027769352195808968]",100.0,"[0.04604338603041444,-0.10352688106496105]",100.0,"[0.11656132243289533,0.14082465841370545]",100.0,"[-0.11058913575556333,-0.1402347602330065]",100.0,"[-0.07215319385666968,0.13335823877422587]",100.0,"[0.047277016521454454,-0.19408071113856945]",100.0,"[-0.006938557359839189,0.032793988701701415]",100.0,"[-0.09233808757115872,-0.04419827853494699]",100.0,"[0.05095771127869609,0.09203283180288334]",100.0,"[0.02861343502996901,0.01148261390693787]",100.0,"[-0.1815439508078663,0.08035151170984829]",100.0,"[-0.10009576989882323,-0.08463841055290841]",100.0,"[0.08563020854512021,-0.0392886833802166]",100.0,"[0.02,0.02]",239.3622,0.0,47.0,47.0,15.0,1.0,,,,,,,
,,,,,,,67d8270aba9f1c19f16caa6c,68442bf662fd7b9d3083b682,2025-06-07_14h13.41.959,shape_ratio,2024.1.5,Win32,59.88023952,684250e4f00cb30b92d1fa88,,,,,,,,,,,239.3626,239.863,,,240.1134,240.4802,right,0.3487,,,,,,,,,0.9,,,,,,239.8631,240.1133,240.4802,"[-0.02527191193365903,-0.02062768503718367]",100.0,"[-0.1215982274216205,0.10079128074604578]",100.0,"[0.17940142565616532,-0.05639782774316697]",100.0,"[0.16286847435599294,0.11305842453902407]",100.0,"[-0.03784321475745347,0.15259609327389584]",100.0,"[-0.18813305714329254,0.025129033614855086]",100.0,"[0.1320600823118701,0.024008852809592692]",100.0,"[-0.03470178846393496,-0.19117682604097883]",100.0,"[-0.0846719449834954,0.0808509095612893]",100.0,"[-0.16876185301520552,-0.08605382782764687]",100.0,"[0.10578126294414009,-0.08246941571920627]",100.0,"[-0.017321175320819185,0.050015744182427754]",100.0,"[-0.12260128802104628,0.006584176044377664]",100.0,"[-0.00146271008147175,0.11157907318686004]",100.0,"[0.05759070164648507,-0.14192095106731484]",100.0,"[-0.043045402384955994,-0.07512659916315394]",100.0,"[0.11154941778464285,0.059354260639896864]",100.0,"[-0.09685187619881516,0.1405748111794597]",100.0,"[-0.009735787723717975,-0.13212998165727577]",4.0,"[0.08792964761978853,0.11600046011794372]",100.0,"[-0.11405132267890651,-0.1624184195162769]",100.0,"[0.03762405078107488,0.000358435271364931]",100.0,"[0.013908967994542873,-0.19691739871664976]",100.0,"[-0.05440196759466843,-0.14316872617032098]",100.0,"[-0.13963391421105426,-0.11894438170228175]",100.0,"[-0.06054836173379948,0.04297974823512124]",4.0,"[0.07380931929341485,0.15528408892045037]",100.0,"[-0.09118839049637802,-0.052879391703073306]",4.0,"[-0.13430249159329663,0.05704282748450039]",100.0,"[0.12388873557050852,0.14734582841769492]",100.0,"[0.17182807469680964,-0.005776749174712751]",100.0,"[0.004300393303444966,-0.04802608823951745]",100.0,"[0.02,0.02]",241.5807,0.0,48.0,48.0,26.0,1.0,,,,,,,
,,,,,,,67d8270aba9f1c19f16caa6c,68442bf662fd7b9d3083b682,2025-06-07_14h13.41.959,shape_ratio,2024.1.5,Win32,59.88023952,684250e4f00cb30b92d1fa88,,,,,,,,,,,241.5817,242.0797,,,242.3331,242.7653,right,0.4183,,,,,,,,,0.1,,,,,,242.0801,242.333,242.7655,"[-0.14392393530299222,0.0012766528297950507]",4.0,"[-0.09606901513670649,0.014609254260835005]",4.0,"[0.13789004880313638,0.03381622408084479]",4.0,"[0.026938024730918456,0.0640973716168483]",4.0,"[0.09357788301633659,0.111018798054286]",4.0,"[0.04538785605440523,-0.01644365533265083]",4.0,"[-0.0624209786190109,0.10576760185500698]",4.0,"[0.1381844565714251,-0.05224676623553772]",4.0,"[-0.057873728691574367,-0.18069614279733584]",4.0,"[-0.013233752092286385,-0.13970455134076584]",4.0,"[0.15209778619658806,0.125386366496995]",4.0,"[-0.0917075239757734,0.13651524408745533]",4.0,"[-0.03484220641180244,-0.009536667456194565]",4.0,"[0.02791495319985432,-0.09859711114209967]",4.0,"[-0.06173833249447164,-0.11327848981411968]",4.0,"[-0.18087447536651835,-0.04830104188444502]",4.0,"[-0.0012949529639491122,0.12568919710250656]",4.0,"[-0.031628734048979944,-0.06788113267785902]",4.0,"[0.10154438223530701,-0.15129167703004295]",4.0,"[-0.011900001278146081,0.17004363416526178]",4.0,"[0.11877706798695595,-0.08898570820045335]",100.0,"[0.07168315039015755,0.05697630228649454]",100.0,"[0.059230336601266406,-0.1807401002497424]",4.0,"[0.16811337164989393,-0.10802535088198453]",100.0,"[-0.02497453500392131,0.04090504731409722]",4.0,"[-0.07764754387325333,0.17787136823528985]",4.0,"[0.19105015689546298,-0.04012525423271868]",4.0,"[0.06882142371900095,-0.07716093512721976]",4.0,"[-0.14400548206263827,0.05150279032455474]",4.0,"[0.09792943272480371,0.15382656519928545]",4.0,"[0.18277758361610139,0.005824851768499421]",4.0,"[-0.13137704243320047,-0.05233250093906134]",4.0,"[0.02,0.02]",243.865,0.0,49.0,49.0,193.0,1.0,,,,,,,
