right,left,explain.started,explain.stopped,key_resp_3.keys,key_resp_3.rt,key_resp_3.duration,participant,session,date,expName,psychopyVersion,OS,frameRate,study_id,explain_2.started,explain_2.stopped,key_resp_4.keys,key_resp_4.rt,key_resp_4.duration,explain_3.started,explain_3.stopped,key_resp_5.keys,key_resp_5.rt,key_resp_5.duration,fixation.started,fixation.stopped,practice.started,practice.stopped,response.started,response.stopped,key_resp.keys,feedback.started,feedback.stopped,trials_2.thisRepN,trials_2.thisTrialN,trials_2.thisN,trials_2.thisIndex,trials_2.ran,dot_ratio,key_resp.rt,key_resp.duration,explain_4.started,explain_4.stopped,key_resp_6.keys,key_resp_6.rt,key_resp_6.duration,dotDisplay.started,dotDisplay.stopped,ITI.started,polygon_1.pos,polygon_1.edges,polygon_2.pos,polygon_2.edges,polygon_3.pos,polygon_3.edges,polygon_4.pos,polygon_4.edges,polygon_5.pos,polygon_5.edges,polygon_6.pos,polygon_6.edges,polygon_7.pos,polygon_7.edges,polygon_8.pos,polygon_8.edges,polygon_9.pos,polygon_9.edges,polygon_10.pos,polygon_10.edges,polygon_11.pos,polygon_11.edges,polygon_12.pos,polygon_12.edges,polygon_13.pos,polygon_13.edges,polygon_14.pos,polygon_14.edges,polygon_15.pos,polygon_15.edges,polygon_16.pos,polygon_16.edges,polygon_17.pos,polygon_17.edges,polygon_18.pos,polygon_18.edges,polygon_19.pos,polygon_19.edges,polygon_20.pos,polygon_20.edges,polygon_21.pos,polygon_21.edges,polygon_22.pos,polygon_22.edges,polygon_23.pos,polygon_23.edges,polygon_24.pos,polygon_24.edges,polygon_25.pos,polygon_25.edges,polygon_26.pos,polygon_26.edges,polygon_27.pos,polygon_27.edges,polygon_28.pos,polygon_28.edges,polygon_29.pos,polygon_29.edges,polygon_30.pos,polygon_30.edges,polygon_31.pos,polygon_31.edges,polygon_32.pos,polygon_32.edges,dot_size,ITI.stopped,trials.thisRepN,trials.thisTrialN,trials.thisN,trials.thisIndex,trials.ran,break_2.started,break_2.stopped,trials_3.thisRepN,trials_3.thisTrialN,trials_3.thisN,trials_3.thisIndex,trials_3.ran
subject chose dot,subject chose diamond,0.0006,68.951,space,53.882,,67d985ecdc5a2f49e468bf75,6842bbfe9a181b1f33f34f93,2025-06-06_03h04.50.167,shape_ratio,2024.1.5,Win32,59.95203837,6842b561977af9ba9b0f87ca,,,,,,,,,,,,,,,,,,,,,,,,,,,,,,,,,,,,,,,,,,,,,,,,,,,,,,,,,,,,,,,,,,,,,,,,,,,,,,,,,,,,,,,,,,,,,,,,,,,,,,,,,,,,,,,,,
,,,,,,,67d985ecdc5a2f49e468bf75,6842bbfe9a181b1f33f34f93,2025-06-06_03h04.50.167,shape_ratio,2024.1.5,Win32,59.95203837,6842b561977af9ba9b0f87ca,68.9536,138.3507,space,39.3848,,,,,,,,,,,,,,,,,,,,,,,,,,,,,,,,,,,,,,,,,,,,,,,,,,,,,,,,,,,,,,,,,,,,,,,,,,,,,,,,,,,,,,,,,,,,,,,,,,,,,,,,,,,,,
,,,,,,,67d985ecdc5a2f49e468bf75,6842bbfe9a181b1f33f34f93,2025-06-06_03h04.50.167,shape_ratio,2024.1.5,Win32,59.95203837,6842b561977af9ba9b0f87ca,,,,,,138.3514,145.7044,space,4.3394,,,,,,,,,,,,,,,,,,,,,,,,,,,,,,,,,,,,,,,,,,,,,,,,,,,,,,,,,,,,,,,,,,,,,,,,,,,,,,,,,,,,,,,,,,,,,,,,,,,,,,,,
,,,,,,,67d985ecdc5a2f49e468bf75,6842bbfe9a181b1f33f34f93,2025-06-06_03h04.50.167,shape_ratio,2024.1.5,Win32,59.95203837,6842b561977af9ba9b0f87ca,,,,,,,,,,,145.9194,146.2129,146.2138,146.5398,146.5409,147.961,,147.9619,149.0515,0.0,0.0,0.0,0.0,1.0,0.2,,,,,,,,,,,,,,,,,,,,,,,,,,,,,,,,,,,,,,,,,,,,,,,,,,,,,,,,,,,,,,,,,,,,,,,,,,,,,,,,,,,,,,,,
,,,,,,,67d985ecdc5a2f49e468bf75,6842bbfe9a181b1f33f34f93,2025-06-06_03h04.50.167,shape_ratio,2024.1.5,Win32,59.95203837,6842b561977af9ba9b0f87ca,,,,,,,,,,,149.1014,149.5563,149.5566,149.9989,149.999,150.7494,left,150.7497,151.851,0.0,1.0,1.0,1.0,1.0,0.8,0.7326,,,,,,,,,,,,,,,,,,,,,,,,,,,,,,,,,,,,,,,,,,,,,,,,,,,,,,,,,,,,,,,,,,,,,,,,,,,,,,,,,,,,,,,
,,,,,,,67d985ecdc5a2f49e468bf75,6842bbfe9a181b1f33f34f93,2025-06-06_03h04.50.167,shape_ratio,2024.1.5,Win32,59.95203837,6842b561977af9ba9b0f87ca,,,,,,,,,,,,,,,,,,,,,,,,,,,,151.8523,156.7312,space,1.8561,,,,,,,,,,,,,,,,,,,,,,,,,,,,,,,,,,,,,,,,,,,,,,,,,,,,,,,,,,,,,,,,,,,,,,,,,,,,,,,,,,
,,,,,,,67d985ecdc5a2f49e468bf75,6842bbfe9a181b1f33f34f93,2025-06-06_03h04.50.167,shape_ratio,2024.1.5,Win32,59.95203837,6842b561977af9ba9b0f87ca,,,,,,,,,,,156.8849,157.2406,,,157.4737,158.9694,,,,,,,,,0.6,,,,,,,,157.242,157.4733,158.9727,"[-0.04954720665865626,0.05059467410100447]",100.0,"[-0.10050852111071476,0.09783274717045624]",100.0,"[0.1440738355433169,0.003563149753730407]",100.0,"[0.05498953317632514,-0.0863022856995975]",4.0,"[0.09532689615606295,0.05450051260278602]",4.0,"[-0.07785106880777418,-0.1536668546245207]",100.0,"[0.022478899965978558,0.019506115471303414]",100.0,"[0.0782657551512518,0.10186714896499384]",4.0,"[-0.11661092506432766,0.05733276003456202]",100.0,"[-0.10555342074788288,-0.006191763051286527]",4.0,"[-0.09939507214311087,-0.1037641689402759]",100.0,"[-0.03657591043855074,0.16767349459027736]",100.0,"[-0.053436448436629536,-0.10405168125299549]",4.0,"[0.08224987922166052,-0.016986092410466263]",100.0,"[0.045383807415424554,0.1537629241563442]",100.0,"[-0.059358722826792124,-0.013550900949790664]",4.0,"[0.09705230883132002,-0.09347294506923373]",100.0,"[-0.07190752325960287,0.13814071799642474]",100.0,"[-0.1618487809284781,-0.051640556454027174]",4.0,"[0.1274793991753652,-0.13593296818887493]",100.0,"[-0.18122224568173598,0.02901891347412593]",100.0,"[0.18346332139811225,0.039403018404796875]",100.0,"[-0.01328601665139241,-0.16150736857866047]",4.0,"[0.14040944981024076,0.08810601363181367]",4.0,"[-0.03951544511218937,-0.05611925016824767]",100.0,"[-0.023468741290468387,0.10755233872482703]",100.0,"[0.08386330237469246,0.16841640258317964]",100.0,"[-0.15518778428440397,-0.10689928978234339]",4.0,"[0.051931012866353446,0.0585421306193097]",4.0,"[-0.15899117854596403,0.1057932448314092]",4.0,"[0.009639174501935431,-0.06154949222042666]",100.0,"[0.022702975132915335,0.11252375662787625]",4.0,"[0.02,0.02]",160.0611,0.0,0.0,0.0,32.0,1.0,,,,,,,
,,,,,,,67d985ecdc5a2f49e468bf75,6842bbfe9a181b1f33f34f93,2025-06-06_03h04.50.167,shape_ratio,2024.1.5,Win32,59.95203837,6842b561977af9ba9b0f87ca,,,,,,,,,,,160.0632,160.5597,,,160.7833,161.07,left,,,,,,,,0.55,0.2708,,,,,,,160.5598,160.7832,161.0701,"[0.031406296704894865,0.111259303514758]",100.0,"[0.00544476923805463,0.15572364442348255]",100.0,"[-0.12553996921711943,-0.12435503122349016]",100.0,"[-0.00817921365946629,-0.05857875202653914]",4.0,"[0.0023524599684312994,0.07467067201538988]",4.0,"[-0.15259245414400163,0.10019634075987222]",4.0,"[-0.0847229561273996,0.016675241751162317]",100.0,"[-0.16338549039367262,-0.06952138849086745]",100.0,"[0.007939446229479221,0.19629714357174868]",100.0,"[-0.06620753803711182,0.09698929893003323]",4.0,"[0.06797981223166465,0.08266888231462514]",4.0,"[0.13273933472874475,-0.1471373493726443]",100.0,"[-0.030966520930621657,-0.01005998999067574]",100.0,"[-0.057610574090471295,-0.0560205031684797]",4.0,"[0.13582569894503765,-0.09626981883416452]",4.0,"[0.13642057053794565,0.029218264105884895]",4.0,"[-0.09418041937996068,0.16925042283381148]",4.0,"[0.06873159169233166,-0.061880306009539324]",100.0,"[-0.009125993500405447,-0.14287507335156754]",100.0,"[-0.12693234945026913,-0.04023345503679523]",100.0,"[-0.05809084495483227,-0.15230932694631885]",4.0,"[0.04709101460196247,0.005780715876575932]",100.0,"[0.15067200833690897,0.09626002233800585]",4.0,"[0.0947910714800899,-0.0008602015872180655]",100.0,"[-0.19134520597439636,0.04875788951463135]",100.0,"[-0.05555178489769377,0.05607031176384783]",100.0,"[-0.1236462356214256,0.06948335886182068]",100.0,"[0.17303872166937923,-0.012205522618551708]",4.0,"[0.07762191940550169,-0.11296290773828814]",100.0,"[0.1922956335694517,0.04226168372282322]",100.0,"[0.07640441720509827,-0.16081555400011074]",4.0,"[-0.08256744743808812,-0.09280456777412772]",4.0,"[0.02,0.02]",162.1659,0.0,1.0,1.0,61.0,1.0,,,,,,,
,,,,,,,67d985ecdc5a2f49e468bf75,6842bbfe9a181b1f33f34f93,2025-06-06_03h04.50.167,shape_ratio,2024.1.5,Win32,59.95203837,6842b561977af9ba9b0f87ca,,,,,,,,,,,162.1674,162.6614,,,162.9091,163.1357,right,,,,,,,,0.55,0.2142,,,,,,,162.6615,162.909,163.1359,"[-0.019222489777853364,-0.19257212165628487]",4.0,"[0.013768550724395453,0.19874387297068793]",4.0,"[-0.06387190831475183,0.0525912882895412]",100.0,"[-0.025014180582355036,-0.11743236834033888]",100.0,"[-0.08949801262613308,0.12098338172740171]",4.0,"[0.19629497939263196,-0.006901923068817694]",100.0,"[0.06904644403312929,0.14694452443485365]",100.0,"[0.023413990417311556,0.1471777863110239]",100.0,"[0.07831333818615874,-0.08412620999177302]",100.0,"[-0.17229561697480458,-0.0904931064511925]",100.0,"[-0.13682200638875489,0.11209705470945804]",4.0,"[-0.06525619013343284,0.0027653510148433315]",4.0,"[0.12478848789388164,-0.10008902688550171]",4.0,"[-0.17755429992507743,0.06252057927654689]",4.0,"[0.02166421858831268,0.022378538540024792]",100.0,"[-0.030871954667922717,-0.05465538164346931]",100.0,"[-0.09353839874670056,-0.15069304313351103]",4.0,"[0.13530070150369028,0.049357856885835]",100.0,"[-0.04053358685900087,-0.15689345055901244]",100.0,"[0.040613043789107746,-0.01863450595917962]",4.0,"[-0.11283213585407514,0.032662408531410135]",100.0,"[-0.12059228592618502,-0.03259697870243328]",100.0,"[-0.00841003774076078,0.08442262469147797]",4.0,"[0.1676143975355891,-0.08950461333716322]",100.0,"[0.011650183860423628,-0.04953945430593871]",4.0,"[0.08425771154262521,0.00845046606999431]",4.0,"[-0.19688741315599145,-0.02269041141555021]",100.0,"[-0.16223353666346627,0.015171155085934631]",4.0,"[0.11520143389687017,0.15635061890010343]",4.0,"[0.13383853863489317,0.10557564125558712]",100.0,"[-0.0433627291286831,0.16384056903739053]",100.0,"[-0.0839901087618622,-0.058083662160765]",100.0,"[0.02,0.02]",164.2358,0.0,2.0,2.0,84.0,1.0,,,,,,,
,,,,,,,67d985ecdc5a2f49e468bf75,6842bbfe9a181b1f33f34f93,2025-06-06_03h04.50.167,shape_ratio,2024.1.5,Win32,59.95203837,6842b561977af9ba9b0f87ca,,,,,,,,,,,164.2366,164.7365,,,164.9888,165.1385,left,,,,,,,,0.1,0.1367,,,,,,,164.7376,164.9886,165.1387,"[0.059614933914483234,-0.15460783128368916]",4.0,"[0.16262268248188758,0.09799941295520509]",4.0,"[0.03278753485677917,-0.01290567519296618]",4.0,"[0.1767412037398144,-0.07702804651598283]",4.0,"[-0.1441145518548861,-0.036829855494627924]",4.0,"[-0.017543659160967735,-0.07618705098344715]",4.0,"[-0.0702681363213812,0.021993981212431745]",4.0,"[-0.09289007263137071,-0.11966191360796456]",100.0,"[-0.024239873541392738,0.19217017010351917]",4.0,"[0.18179539540133002,0.06241617494411]",4.0,"[-0.13142836005744077,0.01570478084852466]",4.0,"[-0.022757591726999687,-0.17426660855694637]",100.0,"[0.08668272522215091,-0.12086131741303728]",4.0,"[0.04220582757455184,0.11500402846409077]",4.0,"[-0.18701485037129256,0.0434046662974973]",4.0,"[-0.18811511902792305,-0.0651596008650045]",4.0,"[0.06088625412483594,0.17637983920621061]",4.0,"[0.06492475179505326,-0.05412818829119401]",4.0,"[-0.14742058023902346,-0.12048345340259624]",4.0,"[-0.07787604543332369,-0.029238961260903536]",4.0,"[-0.054205775464900664,0.12950207060051103]",4.0,"[-0.12508685639964676,0.12305716967484294]",4.0,"[-0.10181987549635452,0.0874636857083834]",4.0,"[-0.00838429914215654,-0.015405519651198607]",100.0,"[-0.02343986115461071,0.039984683868751994]",4.0,"[0.12874924097161294,-0.15145277809883426]",4.0,"[-0.09112896539540498,0.14676584689790648]",4.0,"[0.10823485796480906,-0.029745683667112544]",4.0,"[0.11799671023953859,0.12893647355052107]",4.0,"[0.010938503427159076,-0.1342410459424469]",4.0,"[0.08410897848633547,0.0306987501794542]",4.0,"[0.13109589527655366,-0.07048940974419927]",4.0,"[0.02,0.02]",166.2282,0.0,3.0,3.0,187.0,1.0,,,,,,,
,,,,,,,67d985ecdc5a2f49e468bf75,6842bbfe9a181b1f33f34f93,2025-06-06_03h04.50.167,shape_ratio,2024.1.5,Win32,59.95203837,6842b561977af9ba9b0f87ca,,,,,,,,,,,166.2291,166.7229,,,166.9658,167.3804,left,,,,,,,,0.55,0.3979,,,,,,,166.723,166.9657,167.3808,"[0.059414626504614834,-0.1141486607677066]",4.0,"[0.006045282287510884,0.1711795382479546]",4.0,"[0.15201360239154102,-0.0851522758707003]",100.0,"[-0.0822880856410448,-0.16100520731836995]",4.0,"[0.053779099159677914,0.05350296333029223]",100.0,"[0.06880241685908492,0.011664931898227178]",100.0,"[0.07107418616656071,-0.0757182901348247]",100.0,"[-0.0618153682749878,0.16880895143916438]",100.0,"[-0.05167362302322074,0.03645795457709212]",4.0,"[0.012264312370819111,-0.09231056380040188]",100.0,"[-0.146844422788445,-0.10626058198077079]",4.0,"[-0.09669444220086977,0.13035325378999274]",4.0,"[0.008546342186401032,0.1259483716380178]",4.0,"[-0.15964202110265022,0.07921923932163646]",100.0,"[0.1333411305263948,0.13433131996061318]",100.0,"[-0.02488138457210883,-0.17574759432767573]",4.0,"[0.13655986120963806,0.04161313360209918]",4.0,"[0.16228039413083517,-0.039759040365446544]",100.0,"[0.12659556597004407,-0.014194821260591014]",4.0,"[0.06629468236190063,0.1634191210961631]",4.0,"[-0.1595076789252513,-0.06251325301164622]",4.0,"[-0.06160270782549571,-0.034341009389067235]",100.0,"[0.063555789813571,0.09276855952191315]",100.0,"[-0.1472278565269401,0.005949478378264318]",100.0,"[0.013714319517961827,0.06445268882181811]",4.0,"[-0.08497161861653901,0.07477784128910016]",100.0,"[-0.04694200347232156,-0.09381492247496548]",4.0,"[-0.008598695523603827,-0.029566623782364194]",100.0,"[0.10339898823949216,-0.17117353682793843]",100.0,"[0.1257901485753496,-0.13684193515482684]",100.0,"[0.04397334204372214,-0.15657928683282837]",100.0,"[-0.08931533062126108,-0.1089293836408515]",100.0,"[0.02,0.02]",168.476,0.0,4.0,4.0,69.0,1.0,,,,,,,
,,,,,,,67d985ecdc5a2f49e468bf75,6842bbfe9a181b1f33f34f93,2025-06-06_03h04.50.167,shape_ratio,2024.1.5,Win32,59.95203837,6842b561977af9ba9b0f87ca,,,,,,,,,,,168.4788,168.9699,,,169.2438,169.534,right,,,,,,,,0.6,0.276,,,,,,,168.9702,169.2437,169.5341,"[0.1731981328622372,0.053216272594772185]",100.0,"[-0.01360167118657561,0.032561249885928796]",100.0,"[-0.061496303380862864,-0.005313230012429698]",4.0,"[-0.12732365680762525,0.007639437257413544]",100.0,"[0.11243918504160778,-0.04737677636593929]",4.0,"[-0.0270572507175976,-0.16679718394176377]",100.0,"[0.012753771496497139,-0.13904843120214389]",100.0,"[0.1514733105078679,0.010099581026055349]",100.0,"[-0.10951384867047986,0.15338926684459242]",4.0,"[0.11404449286137622,-0.11784122476339103]",100.0,"[0.0019360406209968247,0.15180575402243374]",100.0,"[-0.10369458804866546,-0.15471916393140137]",4.0,"[0.11417307608470312,0.050153492522028394]",100.0,"[0.06388734017194368,0.08622934338629752]",100.0,"[-0.08872345779028691,-0.039939634320893404]",4.0,"[-0.18787422928516884,-0.06244849497648969]",100.0,"[0.01338841848630166,-0.08893948458409508]",4.0,"[0.022108790881683632,0.07948356008759692]",100.0,"[0.008341516018262642,-0.1855970531699848]",4.0,"[-0.1694564485807874,0.022812194373210973]",100.0,"[0.06253077192241788,0.1367360549025772]",4.0,"[0.193038897279766,0.014319779761562656]",4.0,"[-0.03124288601653628,-0.05740691928935503]",100.0,"[0.11678819096954997,0.15430598827178682]",100.0,"[0.16483113063326257,-0.053703857674758416]",4.0,"[-0.06599470748415937,-0.11132753060949369]",100.0,"[-0.11291690186521869,-0.0990084890048093]",100.0,"[-0.060836930784852056,0.16454220701844552]",100.0,"[0.06678638018387495,0.18310749324273937]",4.0,"[0.08022559267181849,-0.14661527942375602]",4.0,"[-0.15860338613162248,0.07776105754053082]",4.0,"[0.022831958209499233,-0.04165199125947708]",100.0,"[0.02,0.02]",170.6202,0.0,5.0,5.0,44.0,1.0,,,,,,,
,,,,,,,67d985ecdc5a2f49e468bf75,6842bbfe9a181b1f33f34f93,2025-06-06_03h04.50.167,shape_ratio,2024.1.5,Win32,59.95203837,6842b561977af9ba9b0f87ca,,,,,,,,,,,170.6214,171.1192,,,171.2816,171.5865,left,,,,,,,,0.55,0.2909,,,,,,,171.1193,171.2815,171.5867,"[-0.07921632792736572,-0.07092918085489675]",4.0,"[-0.06725759172245813,-0.18313043970246065]",4.0,"[-0.01057412880306246,0.13205715552827196]",100.0,"[-0.1818976194094741,-0.0011446088136531308]",100.0,"[0.12874224628363187,0.13003728638821843]",100.0,"[0.13110319592686545,0.012232137409747386]",4.0,"[0.09799717792776971,0.05593028177742898]",4.0,"[0.04484740320387747,-0.16185373682971466]",4.0,"[-0.06676211913523851,0.12470218442707742]",100.0,"[-0.06386781122376357,-0.027109600475227955]",100.0,"[-0.07972475445590484,-0.14072271900302707]",4.0,"[0.14395513608607316,0.08140978186694808]",4.0,"[-0.033569152714536414,0.1856022326953352]",4.0,"[0.01975437372841066,-0.027187258842104253]",100.0,"[0.14516420496521984,-0.07340581376499553]",4.0,"[-0.027018334412024454,-0.1219169166811722]",100.0,"[0.023851785473494463,0.03591022663545761]",4.0,"[-0.13250438005280413,0.06671268659331314]",100.0,"[0.19119374788715787,0.02438007165246223]",4.0,"[0.046177991204048,0.09957187355741394]",100.0,"[-0.08502508147653841,0.1695914787908059]",100.0,"[0.06885264396845313,0.1610600584907509]",4.0,"[-0.13180147852323623,-0.12120943209771029]",100.0,"[-0.17395663713537485,0.056725606009308205]",100.0,"[0.08867762913089636,-0.13119136785076232]",100.0,"[0.04841652892171109,-0.10566651439976013]",4.0,"[0.003046340658487596,-0.08036903422629786]",4.0,"[0.1808280860047005,-0.03572460751253666]",100.0,"[-0.13690738890050563,0.1347379272068544]",100.0,"[-0.07838411516268058,0.03743521939336318]",100.0,"[-0.022738045973287855,0.010448575075506993]",100.0,"[0.08889391603134134,0.10900612586979633]",100.0,"[0.02,0.02]",172.6819,0.0,6.0,6.0,88.0,1.0,,,,,,,
,,,,,,,67d985ecdc5a2f49e468bf75,6842bbfe9a181b1f33f34f93,2025-06-06_03h04.50.167,shape_ratio,2024.1.5,Win32,59.95203837,6842b561977af9ba9b0f87ca,,,,,,,,,,,172.6835,173.1763,,,173.4175,173.7496,right,,,,,,,,0.45,0.32,,,,,,,173.1764,173.4174,173.7499,"[-0.00523233644617018,-0.019757681647227257]",4.0,"[0.16448185535916968,0.08435138882787258]",100.0,"[-0.023959778362035177,-0.1411900655017075]",100.0,"[0.09954221523177524,0.03838259512587364]",4.0,"[0.14119867853372434,-0.023130188909119432]",4.0,"[0.12631539300939973,0.14922552793031754]",100.0,"[0.006569804755510094,0.11489932955821684]",4.0,"[-0.04543130249058874,0.16796754072395872]",100.0,"[0.023666254419859763,-0.11641600080068872]",4.0,"[-0.054472802384202615,-0.02023753633176802]",4.0,"[0.012238905894856522,0.04862007117359782]",4.0,"[-0.08723452018097051,-0.08403400718107439]",100.0,"[0.024607863028733305,-0.18628764473831558]",100.0,"[-0.07760236222942357,0.0813288369502089]",4.0,"[0.06280242195744358,0.07381299677932418]",100.0,"[0.022327848808882955,0.16993116608707412]",4.0,"[-0.11540627436305678,0.030058245649986957]",100.0,"[0.16213324534453205,0.04136341489074564]",100.0,"[0.1361322136039956,-0.1251711167481451]",4.0,"[0.05916779273924386,0.18607160080003451]",100.0,"[-0.13630048063959885,0.12057893253770788]",4.0,"[-0.1562870074510843,-0.016392138735972655]",4.0,"[0.033703087829740644,-0.06929621178420267]",4.0,"[-0.0736940816466584,0.1364139298017193]",100.0,"[0.06807838489233808,-0.0041040434583146665]",4.0,"[-0.049753470271940894,-0.06404478796678216]",4.0,"[-0.10895764121580011,-0.1428790821016708]",4.0,"[0.10264310279967097,0.09397232188219762]",100.0,"[0.08915304240517505,-0.054651597339180985]",4.0,"[-0.03598703055495727,0.025397111279547652]",100.0,"[-0.18300472544036064,-0.07110093165308666]",100.0,"[-0.15836191049964046,0.04085677757519427]",4.0,"[0.02,0.02]",174.8516,0.0,7.0,7.0,141.0,1.0,,,,,,,
,,,,,,,67d985ecdc5a2f49e468bf75,6842bbfe9a181b1f33f34f93,2025-06-06_03h04.50.167,shape_ratio,2024.1.5,Win32,59.95203837,6842b561977af9ba9b0f87ca,,,,,,,,,,,174.8554,175.3501,,,175.5141,175.6999,left,,,,,,,,0.9,0.1676,,,,,,,175.3502,175.514,175.7001,"[-0.037326220272048946,-0.15094914072128643]",100.0,"[-0.11771233832237137,0.0981409385492394]",100.0,"[0.030548534728342156,-0.0530354705267008]",4.0,"[0.15875302533718663,-0.09417675629657672]",100.0,"[-0.07392501522755417,-0.03414555037018127]",100.0,"[0.12908154080909837,0.029387554305269428]",100.0,"[-0.16637766033160084,0.014562911811452781]",100.0,"[-0.0797026145490614,0.1765891403546355]",100.0,"[0.01080364442915759,-0.18892773122715803]",100.0,"[-0.16039472652233905,-0.10928025405738394]",100.0,"[0.10808127813006213,-0.03240878033606956]",100.0,"[0.017530579716810397,0.0876841548514568]",4.0,"[0.04726003377553121,-0.1415231696223958]",100.0,"[-0.01892740058474193,0.1985330876654504]",100.0,"[-0.014610523649936927,0.008992350594325727]",100.0,"[-0.10031832165106973,0.04654119824366738]",100.0,"[0.11306383797774544,0.100839165042706]",100.0,"[-0.16774690807935858,0.07847820669012152]",100.0,"[-0.12123430077120585,0.1413885314021921]",100.0,"[0.05260203097149221,0.023124321125272664]",100.0,"[0.044301320084512895,0.1548599521202869]",100.0,"[-0.15005542320632922,-0.05249539131198391]",100.0,"[0.06367185280118734,-0.07957369982586801]",100.0,"[-0.10466115221175458,-0.14942526325473965]",100.0,"[-0.11968002843349604,0.001603924965679337]",4.0,"[0.17784191166404417,0.09107755263703238]",100.0,"[-0.01968277630574363,0.1344227718619068]",100.0,"[-0.03913975063777114,0.04131995064729009]",100.0,"[0.09293283381803799,0.05019984082372935]",100.0,"[-0.06060419969682744,-0.09402521732117171]",100.0,"[-0.033702844610502186,-0.19336981391850727]",100.0,"[-0.05480061896790668,0.0974417685383156]",100.0,"[0.02,0.02]",176.7994,0.0,8.0,8.0,3.0,1.0,,,,,,,
,,,,,,,67d985ecdc5a2f49e468bf75,6842bbfe9a181b1f33f34f93,2025-06-06_03h04.50.167,shape_ratio,2024.1.5,Win32,59.95203837,6842b561977af9ba9b0f87ca,,,,,,,,,,,176.8006,177.3001,,,177.5465,179.0499,,,,,,,,,0.1,,,,,,,,177.3003,177.5464,179.05,"[0.12063355746529156,0.01924908546474482]",100.0,"[0.10537302414883808,-0.15986680662116245]",4.0,"[-0.019869029321488284,0.0744744672809743]",4.0,"[0.020305766757350845,-0.01904456667361931]",4.0,"[-0.16097251408252328,0.07070509246894703]",4.0,"[-0.024601998272730834,0.17105662622799123]",4.0,"[0.10791785239955884,0.06460605960346799]",4.0,"[0.07152463728735568,0.03960645957721545]",4.0,"[-0.0018405329579701763,0.015522402735990525]",4.0,"[0.05359413977163916,-0.09096464417373838]",4.0,"[0.0733892873744777,0.1544242378640276]",4.0,"[0.027604493402327922,0.19079918227087997]",4.0,"[-0.08624940035398974,0.15496895962340307]",4.0,"[0.0007054753388972497,-0.13396055600141318]",4.0,"[0.1308391295238502,0.1432801633042769]",4.0,"[0.17841199681014638,-0.011940650481633536]",4.0,"[-0.06925712891247084,0.03459576241312111]",4.0,"[0.1314448013386574,-0.11112755939676786]",4.0,"[0.1740190843247495,0.040634438379966074]",4.0,"[-0.0641128849240594,-0.186114185087422]",4.0,"[0.017537560517314366,-0.07221453967158209]",4.0,"[0.061085484858252825,-0.018705187031127626]",100.0,"[-0.18281237233890923,-0.0032110491113437716]",4.0,"[-0.0192480062249616,-0.18263820652037385]",4.0,"[-0.12070760430844499,0.07640605146031505]",4.0,"[-0.13666089796674583,0.028229995447852894]",4.0,"[0.16843748288265925,0.08284551867761973]",4.0,"[0.02196683475054816,0.11651612126939222]",100.0,"[-0.14523086893012366,-0.05666740511174948]",4.0,"[-0.07722032741769756,0.08468761954115804]",4.0,"[-0.08005826904143128,-0.07777023131135263]",4.0,"[0.03718965586846197,-0.1739721134333713]",4.0,"[0.02,0.02]",180.1611,0.0,9.0,9.0,180.0,1.0,,,,,,,
,,,,,,,67d985ecdc5a2f49e468bf75,6842bbfe9a181b1f33f34f93,2025-06-06_03h04.50.167,shape_ratio,2024.1.5,Win32,59.95203837,6842b561977af9ba9b0f87ca,,,,,,,,,,,180.2385,180.6725,,,180.9809,181.0685,left,,,,,,,,0.5,0.0714,,,,,,,180.6726,180.9806,181.0686,"[0.06948672725769647,-0.006374684838910649]",4.0,"[-0.12785944515337322,-0.08993492468546317]",4.0,"[0.1301984083225567,-0.1435075027769239]",4.0,"[0.037252698145939914,-0.1768931561342682]",100.0,"[-0.029202528940958723,-0.10611540828257504]",100.0,"[-0.08549508209386782,0.10518435796344397]",4.0,"[-0.08974840082526203,-0.15519604629836647]",100.0,"[0.04381194983363876,-0.10944770925512375]",4.0,"[0.0066678271456466365,0.10356773143825988]",4.0,"[0.18572096738745447,-0.04019291476622547]",4.0,"[0.07955008710680933,0.06840644924354904]",100.0,"[-0.15594722166037694,0.10846179419134908]",100.0,"[0.13254016187299156,0.016950204639791955]",100.0,"[0.09050962815699015,-0.1618472010427324]",100.0,"[0.1851489580083879,0.013727411511821615]",4.0,"[-0.0977115687790433,0.007675917354171422]",100.0,"[-0.0661828514608048,0.061069388797626176]",100.0,"[-0.050370091212905,0.16173835375649695]",100.0,"[0.013475215173547623,-0.14214498853417756]",100.0,"[-0.014907937249795306,0.034266939794466426]",4.0,"[0.024652527352763815,-0.012715120624541353]",100.0,"[-0.13510863693013056,0.0346509808386721]",4.0,"[0.14222319183183674,0.07751267258900811]",100.0,"[0.12128375007213724,-0.08610896480603512]",100.0,"[-0.008919834020626863,-0.054645972026696625]",4.0,"[0.09087339741624843,0.12342041662241156]",4.0,"[-0.03530210182594566,0.08936922141247994]",4.0,"[0.05090209600058213,0.10205321488056208]",100.0,"[-0.16254272810998685,-0.04734041192851799]",4.0,"[-0.10554372243272706,0.15411079787260715]",4.0,"[-0.06350622645011038,-0.022387579928113795]",100.0,"[-0.021431146503634847,-0.007255684088950919]",4.0,"[0.02,0.02]",182.157,0.0,10.0,10.0,93.0,1.0,,,,,,,
,,,,,,,67d985ecdc5a2f49e468bf75,6842bbfe9a181b1f33f34f93,2025-06-06_03h04.50.167,shape_ratio,2024.1.5,Win32,59.95203837,6842b561977af9ba9b0f87ca,,,,,,,,,,,182.1592,182.6576,,,182.8129,183.1582,right,,,,,,,,0.4,0.3325,,,,,,,182.6577,182.8128,183.1583,"[-0.012184074361466495,0.13998310226776933]",4.0,"[-0.11796591626975464,-0.010151460585877774]",100.0,"[0.07651546414909928,0.10961370610450367]",4.0,"[0.0823790369768699,-0.11941960651035292]",100.0,"[-0.1408196311071678,-0.05764718147553488]",4.0,"[-0.008174796928027585,-0.019019858167737828]",100.0,"[-0.11414198085923914,-0.12698341924530504]",100.0,"[-0.027882543950101764,0.0809727911943196]",4.0,"[-0.11555856560138768,0.09539915665440737]",4.0,"[0.13728335610966022,0.10038997682340717]",100.0,"[0.014997054901005318,-0.08963867145261209]",4.0,"[0.02402372660985052,0.02831357232447606]",100.0,"[-0.1629923802626535,0.08259160855727855]",4.0,"[0.05788383516584145,-0.03598781477689859]",100.0,"[0.09461847484197691,0.03624628471068803]",100.0,"[0.06840370190081865,-0.1835310208148808]",4.0,"[-0.08934970091224001,0.018367842417650916]",4.0,"[0.17665687355811782,-0.054323500351071835]",4.0,"[0.06407434776580173,-0.08247569050377883]",4.0,"[-0.04443342321275199,-0.18777064903403362]",4.0,"[-0.048198388208507865,-0.03791867158464191]",100.0,"[0.031032344332170253,0.1936825958454955]",4.0,"[0.19394386052599916,-0.004540536446976613]",4.0,"[-0.18265622722939676,0.017364872723060674]",4.0,"[0.03827460156233307,0.15084912640339235]",4.0,"[-0.1455399462372562,0.1370010843861161]",100.0,"[-0.16052074209814485,-0.09895467290409952]",4.0,"[0.012649331792940062,-0.13124715865083336]",100.0,"[0.1384964032442421,-0.12961401333599312]",100.0,"[-0.029719957342671306,-0.11811029674543788]",4.0,"[0.06510771788819036,0.003895905759424588]",4.0,"[-0.08980013455434097,-0.053096546681277404]",100.0,"[0.02,0.02]",184.2516,0.0,11.0,11.0,158.0,1.0,,,,,,,
,,,,,,,67d985ecdc5a2f49e468bf75,6842bbfe9a181b1f33f34f93,2025-06-06_03h04.50.167,shape_ratio,2024.1.5,Win32,59.95203837,6842b561977af9ba9b0f87ca,,,,,,,,,,,184.2567,184.7579,,,184.9881,185.1185,left,,,,,,,,0.5,0.1197,,,,,,,184.7581,184.988,185.1186,"[-0.13477365429060778,0.060673311869845294]",100.0,"[0.010920128760714942,0.07242757949992376]",100.0,"[-0.014358338744016647,-0.09691345607044086]",4.0,"[-0.08324082488148847,0.025077582152276578]",100.0,"[0.14223554069383224,-0.03065879351822763]",100.0,"[-0.09765380336344093,0.17297938081795597]",4.0,"[-0.09480715336867063,-0.16473605272505912]",4.0,"[-0.15049055586796087,0.009207769941361963]",100.0,"[0.004068014849818756,-0.13368896474765682]",100.0,"[0.1264651362381282,0.04821664287699729]",4.0,"[-0.1279670388168843,-0.13377284772848252]",100.0,"[0.07811704003060269,-0.028793349852244073]",4.0,"[0.16933956585839122,0.02257451507063685]",100.0,"[-0.01211845322885937,-0.021346616469865843]",4.0,"[-0.0911249365298574,0.06957387740045722]",4.0,"[-0.04538672155729894,0.09868778228299552]",4.0,"[0.09665478481997179,-0.11145663570171854]",4.0,"[0.026506235574903416,-0.03631582295936466]",100.0,"[0.1841117801286369,-0.06580396811367403]",100.0,"[-0.0545656863864734,-0.07644869724206454]",4.0,"[-0.001865820209925126,0.17297342424285395]",100.0,"[0.08758708848270626,-0.15999661521012706]",100.0,"[0.053572600887175366,0.1345690477470649]",4.0,"[-0.18431728936726877,0.07305619871949122]",4.0,"[0.037182940254698434,0.007230922442446399]",4.0,"[0.05794135468825115,-0.09083870426493276]",4.0,"[0.07011908099454865,0.0475255457034351]",100.0,"[0.16802117096166522,0.08393582752924947]",4.0,"[-0.05284115876199834,-0.13190149927210543]",100.0,"[-0.05115250321543066,0.17171805472428692]",100.0,"[0.09357642737823872,0.15690983358539498]",100.0,"[-0.13243770010656658,-0.058685209740225654]",4.0,"[0.02,0.02]",186.2174,0.0,12.0,12.0,94.0,1.0,,,,,,,
,,,,,,,67d985ecdc5a2f49e468bf75,6842bbfe9a181b1f33f34f93,2025-06-06_03h04.50.167,shape_ratio,2024.1.5,Win32,59.95203837,6842b561977af9ba9b0f87ca,,,,,,,,,,,186.219,186.7158,,,186.963,187.0742,left,,,,,,,,0.55,0.0965,,,,,,,186.7159,186.9629,187.0743,"[-0.12547582725703998,0.04990308068392314]",100.0,"[0.0838061473518835,-0.048355267199122996]",4.0,"[0.06273485532173868,0.18851354707036827]",100.0,"[-0.10096275891371864,0.13544835713941147]",4.0,"[0.006651061891080522,-0.02590181901680157]",4.0,"[-0.10643318461648632,0.013262380871531197]",4.0,"[-0.14503379176237285,0.08732867407804658]",4.0,"[0.05641135411761554,0.018841773269053307]",100.0,"[-0.010335921122315633,0.14197909770411996]",4.0,"[-0.10228707997819912,-0.06658174757827234]",100.0,"[-0.08691592764042709,0.07229823462377619]",4.0,"[-0.028253978375979857,0.050152791879492446]",100.0,"[0.0012082512388301007,-0.09962795515550335]",4.0,"[-0.1748009311264322,-0.0601601523508184]",100.0,"[-0.03125457032771783,-0.15976401459268647]",100.0,"[0.09959852829369782,0.1665303771802731]",100.0,"[0.16406796555087486,0.08359753197385576]",4.0,"[-0.035601391129890914,-0.027911016431980875]",100.0,"[-0.07792837978872899,0.18336754676377195]",100.0,"[0.036660687604688824,-0.06460007295891057]",100.0,"[0.13918695489859226,0.018941939173299793]",100.0,"[0.014148175140445186,-0.15362164969963735]",4.0,"[0.1315323744834881,0.12084711630820674]",100.0,"[0.014074339495678961,0.07281336018259486]",4.0,"[-0.1499603783120992,-0.021077466559594308]",100.0,"[-0.18360143878733193,0.03120405458921538]",100.0,"[-0.07138453317836099,-0.10623120576574324]",4.0,"[0.1910431367463339,-0.021348749711066095]",4.0,"[0.06366917189429569,-0.1141388957349311]",100.0,"[-0.12217116914788569,-0.10716911443635876]",4.0,"[0.046093629776476304,0.11635492138365179]",100.0,"[0.09441882757218163,0.09562043761822875]",100.0,"[0.02,0.02]",188.1725,0.0,13.0,13.0,80.0,1.0,,,,,,,
,,,,,,,67d985ecdc5a2f49e468bf75,6842bbfe9a181b1f33f34f93,2025-06-06_03h04.50.167,shape_ratio,2024.1.5,Win32,59.95203837,6842b561977af9ba9b0f87ca,,,,,,,,,,,188.174,188.6715,,,188.9269,189.0099,left,,,,,,,,0.1,0.0684,,,,,,,188.673,188.9268,189.01,"[0.07636060539452369,0.0710945469060028]",4.0,"[0.09287625983575959,0.02583179826315096]",4.0,"[0.006542818003410037,0.1419815098255751]",4.0,"[0.0019915561956628056,0.07920674939315041]",4.0,"[-0.09414730725039139,0.0005235082921046118]",4.0,"[0.1618181629981927,-0.11272165721499716]",4.0,"[0.03217988961275381,0.18429338830393224]",4.0,"[-0.1391082189795221,-0.02178757884191835]",4.0,"[-0.054052557367973826,-0.12751245891392815]",4.0,"[0.1800035579846106,0.014953675349735556]",4.0,"[-0.026041777926467426,-0.04048917098670332]",4.0,"[-0.15826759484797465,0.0532468541421413]",4.0,"[0.16490896287898668,-0.024957503805293744]",4.0,"[0.08054129121600091,0.14791780198891732]",100.0,"[-0.004199142463176899,-0.17691724658070915]",4.0,"[-0.032332398604444576,0.05558400932647211]",100.0,"[0.0798690976513469,-0.17261668500158162]",4.0,"[-0.0692571725181408,-0.16482237604214653]",4.0,"[-0.14852232019014575,-0.12251847830877871]",4.0,"[-0.09793207471867359,0.10135360229333568]",4.0,"[-0.023893491042128023,0.17562001085726095]",4.0,"[0.027715571896744402,-0.08298287857439035]",4.0,"[-0.1188539239607692,0.04249307745101184]",4.0,"[0.030459181301805683,-0.03009259553657376]",4.0,"[-0.07721904852335384,-0.04985421291721653]",4.0,"[0.07081009946296557,-0.06729139621564646]",4.0,"[0.051365732336092415,-0.11905989925166383]",100.0,"[0.12092932184432119,0.10010651287683166]",4.0,"[-0.15462161826532822,0.10834554521471361]",4.0,"[0.04338990898975705,0.015595861877892869]",4.0,"[0.031285588339579444,-0.1961201796775559]",4.0,"[-0.1896962471009826,0.002478621592698389]",4.0,"[0.02,0.02]",190.1135,0.0,14.0,14.0,193.0,1.0,,,,,,,
,,,,,,,67d985ecdc5a2f49e468bf75,6842bbfe9a181b1f33f34f93,2025-06-06_03h04.50.167,shape_ratio,2024.1.5,Win32,59.95203837,6842b561977af9ba9b0f87ca,,,,,,,,,,,190.1142,190.6069,,,190.8487,190.9488,right,,,,,,,,0.55,0.085,,,,,,,190.607,190.8486,190.949,"[-0.11904079428742328,0.06594170202480236]",4.0,"[-0.058670196397830505,0.1687001733648583]",4.0,"[-0.16038594942937295,-0.07980285415944631]",100.0,"[-0.06117979585742612,-0.17011385744828614]",4.0,"[0.08232338122644266,-0.1701071025380815]",100.0,"[0.13323126307015912,-0.10503617026928128]",100.0,"[0.03535732875342125,0.0015298496046801805]",4.0,"[-0.1574470928879807,0.03541957730913062]",4.0,"[-0.020075323898883137,0.06248508010240855]",100.0,"[0.03825506557732094,0.11404367217554935]",4.0,"[-0.09689850638129327,-0.07174825342760549]",100.0,"[0.1747595091879473,-0.03066872929890249]",100.0,"[0.10092551856437432,0.08218282662881772]",100.0,"[0.08490027507263898,-0.0862688225753589]",4.0,"[-0.08338529451541148,-0.12571027736789664]",100.0,"[0.07859308425429479,-0.007384835302950538]",4.0,"[-0.04636084005442691,-0.10568179389982717]",100.0,"[-0.03739962097826696,0.10996163967961534]",100.0,"[0.02739197429102204,0.07515172790794884]",4.0,"[-0.022086907390150953,0.011403942757711361]",4.0,"[0.059796806324825896,0.03341523355616765]",100.0,"[0.031539176940789775,-0.03910753434050873]",100.0,"[0.16232192143455687,0.09573630361699832]",4.0,"[-0.1394746024443042,-0.040870815075298855]",100.0,"[-0.1783507062342659,-0.011158337183949886]",100.0,"[-0.07026798674300248,0.05992672433673673]",100.0,"[-0.04465997687097911,-0.031982299813567976]",4.0,"[-0.16511549678908696,0.0823203572268606]",4.0,"[0.02637656467531727,0.1962371857723837]",4.0,"[0.021583059838893633,-0.14212193209231178]",100.0,"[0.03587188776018508,-0.1936977526724108]",100.0,"[-0.10062417175342098,0.14259160561147502]",100.0,"[0.02,0.02]",192.0468,0.0,15.0,15.0,60.0,1.0,,,,,,,
,,,,,,,67d985ecdc5a2f49e468bf75,6842bbfe9a181b1f33f34f93,2025-06-06_03h04.50.167,shape_ratio,2024.1.5,Win32,59.95203837,6842b561977af9ba9b0f87ca,,,,,,,,,,,192.0476,192.5469,,,192.7282,192.9482,left,,,,,,,,0.6,0.2027,,,,,,,192.5469,192.728,192.9483,"[0.0055886699305760365,-0.055149523586069484]",100.0,"[0.06007733676217779,-0.07873630750528901]",4.0,"[0.00979242554722989,-0.14315690928162514]",100.0,"[-0.08242183993795753,-0.180258914649642]",100.0,"[-0.06713581584372695,-0.023302261192723356]",4.0,"[0.09216490940822639,0.08652743793224554]",100.0,"[0.1541978905475011,-0.03006724742895435]",100.0,"[0.017826713944456653,0.1067470911223418]",4.0,"[0.06479832891952057,-0.16944861489077834]",100.0,"[-0.08081735626360712,0.047404280761884694]",4.0,"[-0.17571347029402173,0.08440486276335239]",4.0,"[-0.0718577241039618,-0.11603337910595012]",4.0,"[-0.022751410309105404,0.050321954977314516]",4.0,"[0.10990970213332786,0.046556411189783056]",100.0,"[-0.05184921268748988,-0.07789637907048746]",100.0,"[-0.1134689263330384,0.16252671322583367]",4.0,"[0.06985482289798212,0.0015717686357879194]",100.0,"[0.12977641399420306,-0.06819985095231934]",100.0,"[0.11063918627384878,0.1456550047336337]",4.0,"[-0.06122901380158437,0.08318003327898309]",4.0,"[0.11001066030592857,-0.1595656529540847]",100.0,"[0.04027842609672448,0.17976676390014476]",100.0,"[-0.0747361260587403,0.14846098532704768]",100.0,"[-0.11711330537040497,0.09429240953464339]",100.0,"[-0.1539411230459382,0.012901329723096358]",100.0,"[0.012644913708444974,-0.09817299737479673]",100.0,"[-0.026760732110489262,0.1418849382234286]",4.0,"[0.033984738523260914,0.02301039058025411]",100.0,"[-0.13725297288875116,-0.07264858657465853]",4.0,"[0.08966862548263008,-0.04975217229929255]",4.0,"[-0.04993757426832539,0.18801933840052315]",100.0,"[-0.11316941036137315,-0.008951884448413126]",100.0,"[0.02,0.02]",194.0461,0.0,16.0,16.0,50.0,1.0,,,,,,,
,,,,,,,67d985ecdc5a2f49e468bf75,6842bbfe9a181b1f33f34f93,2025-06-06_03h04.50.167,shape_ratio,2024.1.5,Win32,59.95203837,6842b561977af9ba9b0f87ca,,,,,,,,,,,194.0482,194.5464,,,194.7918,194.8423,left,,,,,,,,0.9,0.035,,,,,,,194.5465,194.7917,194.8423,"[-0.11373602759088626,-0.11286729572875043]",100.0,"[-0.08082263662733372,-0.005642876502633854]",100.0,"[-0.02648792521712079,0.1749699302197298]",100.0,"[0.06902832061449082,-0.07068065758698037]",100.0,"[0.13961513157140912,0.10085441710452149]",4.0,"[-0.12462828822620733,-0.030813437898091264]",100.0,"[-0.04468820913564894,-0.10855698897034893]",100.0,"[-0.019252953878789,0.10232793567345584]",100.0,"[-0.16858583636226152,0.0053405439992888284]",100.0,"[-0.0005724364984015933,-0.11040132584317501]",100.0,"[-0.033360945106175,-0.0688252034826156]",100.0,"[-0.10753629570135834,0.032985395909381106]",100.0,"[-0.09974613008535586,0.11798272043995224]",100.0,"[0.09138628284037623,0.12295064888320897]",100.0,"[-0.024486014363666417,-0.021279298680434985]",100.0,"[0.18794237837679548,0.032390386891850094]",100.0,"[0.1313806486059628,-0.04084984244978976]",100.0,"[0.19285415793287272,-0.023148255757914266]",100.0,"[0.06587691351096747,-0.15652130133246484]",4.0,"[0.05333113911134758,0.10020457031523551]",100.0,"[-0.04960846428103753,0.1397007881355834]",100.0,"[-0.08036980891729478,-0.17770713734046903]",100.0,"[0.00948018295130265,-0.19777760439348815]",100.0,"[0.006139795831002883,0.06645819936886609]",100.0,"[-0.05130060244941476,0.0702576387864938]",100.0,"[-0.027622077179034747,0.028523973641946178]",100.0,"[-0.08435692866350888,-0.08185794372880711]",100.0,"[-0.18069084166144717,-0.06946620366857849]",100.0,"[0.17000767703570285,-0.07943942995285518]",100.0,"[0.11986613804643508,-0.14404861128009352]",4.0,"[0.041780298944071814,0.0324832147275926]",100.0,"[0.03153842944763923,-0.02367456960746805]",100.0,"[0.02,0.02]",195.941,0.0,17.0,17.0,22.0,1.0,,,,,,,
,,,,,,,67d985ecdc5a2f49e468bf75,6842bbfe9a181b1f33f34f93,2025-06-06_03h04.50.167,shape_ratio,2024.1.5,Win32,59.95203837,6842b561977af9ba9b0f87ca,,,,,,,,,,,195.9449,196.4378,,,196.6047,196.9064,right,,,,,,,,0.45,0.2821,,,,,,,196.4411,196.6045,196.9066,"[0.11750841175892686,0.015510346599338547]",4.0,"[0.1313081763720196,-0.10045683020267104]",4.0,"[-0.12827587744670632,0.032146138897254935]",100.0,"[-0.021569751735911077,-0.122268750379909]",4.0,"[0.18382237837319548,-0.0031806297234039565]",4.0,"[-0.0760255662112971,0.13792855838646406]",100.0,"[0.16933485170557697,0.08457376037398871]",4.0,"[0.05539164125842274,0.07958713285445099]",4.0,"[0.03318824032544461,-0.023833958917280833]",4.0,"[-0.08003489534621937,-0.07760871309376523]",4.0,"[0.04300616901622051,-0.12420425221451123]",4.0,"[-0.18653991441032203,-0.03170456469603904]",4.0,"[0.1427302447727409,0.0546790897597817]",100.0,"[-0.09551798831985625,-0.02866032005787041]",4.0,"[0.08383248342097428,-0.04748219171074024]",100.0,"[0.09956991765177164,0.13031527976766846]",4.0,"[-0.07191161590234212,-0.16807140300527304]",4.0,"[-0.14676088063107484,-0.05679975395587832]",4.0,"[0.06385985249156761,0.16684522930252083]",4.0,"[0.013395569780369923,-0.06433434773851934]",4.0,"[-0.005878569808668928,0.0025301985074703743]",4.0,"[-0.10111461275392246,0.08878960070120984]",4.0,"[0.007748571011821976,0.07901319597680144]",100.0,"[-0.03645081864246688,-0.0636496066866488]",100.0,"[-0.005127785857569043,0.13755618666436534]",100.0,"[-0.15042742391624517,-0.014284500492448643]",100.0,"[0.019984012677075037,0.18863946910438326]",100.0,"[0.15082511856795128,-0.05076133955431489]",100.0,"[-0.12333013298423025,-0.10413381861880626]",100.0,"[0.115571232906536,-0.15868416247675976]",100.0,"[0.042760203053270655,0.024864259640002384]",100.0,"[-0.1512050537151496,0.10077112011968634]",100.0,"[0.02,0.02]",198.0041,0.0,18.0,18.0,133.0,1.0,,,,,,,
,,,,,,,67d985ecdc5a2f49e468bf75,6842bbfe9a181b1f33f34f93,2025-06-06_03h04.50.167,shape_ratio,2024.1.5,Win32,59.95203837,6842b561977af9ba9b0f87ca,,,,,,,,,,,198.0061,198.4973,,,198.743,198.8443,left,,,,,,,,0.55,0.0879,,,,,,,198.4973,198.7429,198.8444,"[-0.07371583210238922,0.16204264008912436]",100.0,"[0.15655618310037303,0.05895819613481781]",4.0,"[0.16934918404306828,-0.046377086011182164]",100.0,"[-0.15447299623589458,0.05355036805968447]",100.0,"[0.15147815957588937,-0.08600320222303348]",4.0,"[0.052208175862492566,0.09190595005028296]",100.0,"[0.10043465722976697,0.0260912907547586]",100.0,"[-0.17302288394615375,0.016251293899071668]",100.0,"[-0.12262330402174543,-0.04075253617716019]",100.0,"[0.12588098737420705,-0.013456857207886322]",4.0,"[-0.03268083856009068,-0.1810929457802496]",100.0,"[-0.10970168818741474,-0.11169515461802064]",100.0,"[0.10330477120185642,0.12402430341940743]",100.0,"[0.002597354962809446,0.17020968395263059]",4.0,"[-0.17754037819144164,-0.037322984428448475]",100.0,"[-0.1340057850214321,0.11710933441299771]",100.0,"[0.19361626383304226,-0.01300303731580909]",4.0,"[0.06900998739145295,-0.10715657247895444]",4.0,"[0.04384288787802368,0.19265919140993076]",4.0,"[0.01574005339159152,-0.03396215926018913]",4.0,"[-0.09124075637974446,0.05588833172013162]",4.0,"[-0.02589825620140974,0.08224397514602762]",4.0,"[0.04002658842416417,0.13588850520485882]",100.0,"[-0.04495934956647864,0.008415973165632843]",4.0,"[-0.0684714460663204,-0.10104050304777888]",100.0,"[-0.1110782551249095,0.005167520695487083]",4.0,"[-0.07652694763725659,-0.16060618246868336]",4.0,"[0.016860366071193116,-0.12064715477831961]",100.0,"[0.004466372364333922,-0.19640322993951673]",100.0,"[0.0386299781120121,0.02371563405948978]",100.0,"[-0.14888941769392147,-0.12917538987156427]",4.0,"[-0.09503103129090064,0.10318716645805985]",100.0,"[0.02,0.02]",199.9444,0.0,19.0,19.0,79.0,1.0,,,,,,,
,,,,,,,67d985ecdc5a2f49e468bf75,6842bbfe9a181b1f33f34f93,2025-06-06_03h04.50.167,shape_ratio,2024.1.5,Win32,59.95203837,6842b561977af9ba9b0f87ca,,,,,,,,,,,199.9454,200.4335,,,200.6785,201.011,left,,,,,,,,0.1,0.3198,,,,,,,200.4336,200.6784,201.0111,"[0.1162512497075809,-0.13975574206561656]",4.0,"[-0.17945074994110638,-0.08018334044506056]",4.0,"[0.17255513073295997,-0.014133948225210163]",4.0,"[-0.10478074728683387,0.10486111452404717]",4.0,"[0.03730058640790196,-0.1717379943615888]",4.0,"[0.03222430307712892,0.09077787335793167]",4.0,"[0.007550348721329416,-0.11649107380202489]",4.0,"[-0.08792569586773932,0.007841903697699406]",4.0,"[0.017539474159788137,0.004080010055929569]",4.0,"[0.06757681800350437,-0.07975453655069321]",4.0,"[-0.1838568949631917,-0.03776466342849969]",4.0,"[0.12131448042130576,-0.08767178418350088]",4.0,"[-0.17093736631764508,0.022533308815313076]",4.0,"[-0.0029989104769743797,-0.06739702456169272]",4.0,"[0.13540865091646914,0.004419532116515847]",4.0,"[0.0858298098949106,-0.025221609860677688]",4.0,"[0.12637634250367827,-0.0387406421468302]",4.0,"[0.17245846090362443,0.06362680746402576]",4.0,"[0.10422053203919046,0.09501779968893949]",100.0,"[0.03147608115447696,0.17914825049121258]",100.0,"[-0.1492182416962104,0.12700992069840344]",4.0,"[-0.12676460644049897,-0.07559877851701309]",4.0,"[0.07527873145057824,0.055754224058249875]",4.0,"[-0.13517423007608628,-0.1250571957160762]",4.0,"[-0.0932029499132785,-0.1403778112331594]",4.0,"[-0.024271112877384385,0.05315450193331962]",100.0,"[-0.15088247450534564,0.07992742524243959]",4.0,"[0.17569437644965397,-0.060034836890417206]",4.0,"[0.07024948589039137,0.1528561023236172]",4.0,"[-0.12599626442237355,0.023937720880458015]",4.0,"[-0.031324657871237234,0.165022452289448]",4.0,"[-0.07749770721195537,-0.08193097655602348]",4.0,"[0.02,0.02]",202.1114,0.0,20.0,20.0,202.0,1.0,,,,,,,
,,,,,,,67d985ecdc5a2f49e468bf75,6842bbfe9a181b1f33f34f93,2025-06-06_03h04.50.167,shape_ratio,2024.1.5,Win32,59.95203837,6842b561977af9ba9b0f87ca,,,,,,,,,,,202.1126,202.6075,,,202.8618,203.1117,left,,,,,,,,0.5,0.2367,,,,,,,202.6076,202.8617,203.1118,"[0.06863620097871298,-0.06956693262869741]",4.0,"[-0.007232203153702901,0.09769088181207948]",100.0,"[0.11214707104046365,-0.02867540104655567]",4.0,"[0.027562795390157206,0.00472417831645217]",100.0,"[-0.12371874447525213,-0.025657757125034975]",100.0,"[-0.025702524097312572,-0.15727599394330338]",100.0,"[0.09811455677014767,-0.16438749038097278]",100.0,"[0.07356554687497356,0.07944631321413494]",4.0,"[-0.04474667019899596,-0.10681665329865832]",4.0,"[0.08517680529221046,0.14599030707122146]",4.0,"[-0.05056580559529267,0.11393959130427228]",100.0,"[-0.026963757221771058,0.15065366154496287]",100.0,"[-0.10346940507252007,0.011116965179720707]",4.0,"[0.07329477640533304,-0.12874905866725023]",100.0,"[-0.10286058219018444,0.06903760344643349]",4.0,"[0.13579359235657595,0.14216241010126593]",4.0,"[-0.08270028696830188,-0.07471946288565331]",100.0,"[-0.0698103848657363,-0.012186907434091551]",4.0,"[0.17133067637913352,-0.09869306298231596]",4.0,"[-0.18897082500879286,0.0336702330199433]",4.0,"[-0.16861941321537163,0.09548303570288756]",4.0,"[0.15576203572396335,0.031931348398175984]",4.0,"[-0.01344700714493158,-0.00482419517952978]",100.0,"[-0.12013663127500414,-0.15244578710965856]",4.0,"[0.015250937729248824,-0.126211993404958]",100.0,"[-0.15411118921586545,-0.12175594017385413]",4.0,"[0.16496136491519664,0.09928720232220695]",100.0,"[-0.13186330974463098,0.14155661341707992]",100.0,"[0.1379226443319858,-0.06885524292304479]",100.0,"[0.028025668191543833,-0.17668296399252298]",100.0,"[-0.17226372081099897,-0.05523058997548031]",100.0,"[-0.027995944755369786,-0.05542299971066486]",4.0,"[0.02,0.02]",204.2125,0.0,21.0,21.0,99.0,1.0,,,,,,,
,,,,,,,67d985ecdc5a2f49e468bf75,6842bbfe9a181b1f33f34f93,2025-06-06_03h04.50.167,shape_ratio,2024.1.5,Win32,59.95203837,6842b561977af9ba9b0f87ca,,,,,,,,,,,204.2131,204.7142,,,204.9588,205.0285,right,,,,,,,,0.55,0.019,,,,,,,204.7143,204.9587,205.0286,"[0.11786358334883253,-0.053317332094488364]",4.0,"[-0.047864929544374886,0.07959494742271093]",100.0,"[0.002290363242025729,0.025234956871975606]",4.0,"[0.17749020030819823,0.02008160047192083]",100.0,"[-0.18698217586547303,0.034556261222684556]",100.0,"[-0.07547732085356681,-0.18061271204614218]",100.0,"[-0.09007385669098585,-0.13859293113327736]",100.0,"[0.114104446784179,-0.14716791530950904]",4.0,"[0.0658978354789765,-0.12942524448952175]",100.0,"[-0.03803876607850789,0.12429813028647498]",4.0,"[-0.003421564338467844,-0.1015010759839252]",100.0,"[0.16632862345185503,-0.04328734733092695]",4.0,"[0.13747715293948481,0.014834064401409202]",100.0,"[-0.029974878747620108,-0.04691459079929515]",100.0,"[-0.13755768556788395,0.01694663565890215]",4.0,"[-0.007387983108146966,0.08611890296864291]",100.0,"[0.0554248636812468,-0.033090131482804375]",100.0,"[-0.11332492313022757,-0.09439168773710328]",100.0,"[0.14456719578125224,0.1349712820479079]",4.0,"[0.07845464342396515,0.14376092563825785]",100.0,"[-0.1382737602985741,0.06979211351381664]",4.0,"[-0.11198917518959091,0.14979907693341304]",100.0,"[-0.1630542093369073,-0.021431181532078777]",4.0,"[-0.08702773628293763,0.09447175999874774]",4.0,"[0.011367760690646765,-0.15797070326512855]",100.0,"[0.12227329537358832,-0.09308465415204202]",100.0,"[-0.09093947283977558,-0.01416297387507698]",4.0,"[-0.13182202749668992,0.11485488375423226]",100.0,"[-0.055786696552781706,-0.087025379114017]",100.0,"[0.0963442528797576,0.042797989174750396]",4.0,"[0.17583365238746246,0.06757731767937089]",4.0,"[0.02776051396559877,0.18632765047606203]",4.0,"[0.02,0.02]",206.1295,0.0,22.0,22.0,83.0,1.0,,,,,,,
,,,,,,,67d985ecdc5a2f49e468bf75,6842bbfe9a181b1f33f34f93,2025-06-06_03h04.50.167,shape_ratio,2024.1.5,Win32,59.95203837,6842b561977af9ba9b0f87ca,,,,,,,,,,,206.1308,206.6231,,,206.8695,206.9811,left,,,,,,,,0.4,0.0989,,,,,,,206.6233,206.8694,206.9812,"[-0.12927532268896563,0.06839809259316255]",100.0,"[0.1278890383131954,0.14422971585024855]",4.0,"[-0.17439335387113877,-0.07653297307987819]",4.0,"[-0.11923070920622257,0.11571281737214476]",100.0,"[-0.12817052240743348,-0.0821418954836556]",4.0,"[0.035406256710936335,0.06372934656549324]",100.0,"[-0.05763063324325645,-0.08072859634112406]",100.0,"[0.1118568585564958,-0.12844820165218557]",4.0,"[-0.17126226015227108,0.02821480505213406]",4.0,"[0.030904939615612644,0.12739794331396784]",4.0,"[0.143012360801044,-0.08132454996968996]",100.0,"[-0.013598142864855882,0.15364884348349914]",100.0,"[0.1416548761545972,0.09450356784885944]",4.0,"[-0.010224370202162464,0.07904148953881586]",4.0,"[0.18823347041987323,0.034525651704904264]",4.0,"[-0.08409225297812103,0.16864553539187332]",4.0,"[0.11620470593487812,-0.02944502410472971]",4.0,"[-0.003473191148304098,-0.015660189888336156]",4.0,"[0.022524507816953684,-0.17065409167347584]",4.0,"[-0.08825377822598081,-0.10839607085914686]",100.0,"[-0.14838517624982828,-0.025198947682739028]",4.0,"[-0.049946099290263814,0.05037131629599942]",4.0,"[0.04876986511746292,0.01299450016496189]",100.0,"[-0.09735777041388818,-0.05204920525320141]",4.0,"[-0.00749290002547576,0.029028349096324544]",100.0,"[-0.08433558325569909,0.08266247384297502]",100.0,"[-0.02482906278204125,-0.19011793402187008]",4.0,"[-0.07899919856521669,0.00355304293156171]",100.0,"[0.0614887579407988,0.0974276658276246]",100.0,"[-0.03912042734461303,-0.04189080190501784]",4.0,"[0.19115105409291988,-0.02334650574376163]",100.0,"[0.062476602516995675,-0.1412226715989601]",4.0,"[0.02,0.02]",208.0802,0.0,23.0,23.0,171.0,1.0,,,,,,,
,,,,,,,67d985ecdc5a2f49e468bf75,6842bbfe9a181b1f33f34f93,2025-06-06_03h04.50.167,shape_ratio,2024.1.5,Win32,59.95203837,6842b561977af9ba9b0f87ca,,,,,,,,,,,208.0813,208.5795,,,208.8251,208.9234,left,,,,,,,,0.5,0.0836,,,,,,,208.5795,208.8251,208.9235,"[-0.08532256183083634,-0.05834723642243057]",4.0,"[-0.14081708957892858,-0.11907055163738997]",4.0,"[-0.17951785808311096,-0.06596421082978846]",100.0,"[0.015410376679350364,-0.023960163022226987]",100.0,"[0.04155702654620956,0.19006017876680828]",100.0,"[-0.028875361066269357,0.181655330825979]",100.0,"[0.01651669373467522,0.020732276138226882]",4.0,"[-0.03703552705414926,-0.0765120777864791]",100.0,"[0.03872865539348126,-0.07534845841421661]",100.0,"[-0.008757001205694179,-0.1525990760572432]",4.0,"[-0.10273409937874566,0.004209594104969513]",4.0,"[-0.14882309217809014,-0.02113866881507367]",100.0,"[-0.12212018633453402,0.06461883039741526]",100.0,"[0.08685209347591422,-0.04274396424477817]",100.0,"[0.0604864015302458,0.015836856165282676]",100.0,"[0.000053432530869527055,0.11957884567310602]",4.0,"[0.015658873337312224,-0.1873211871650383]",4.0,"[0.17849268479315072,-0.038253306129517856]",4.0,"[-0.07208709996780208,-0.17990012553941076]",4.0,"[0.1337993276337088,-0.04244696000544213]",4.0,"[0.093944395268636,-0.09533116245028327]",4.0,"[0.16681540221629113,0.020442356334262165]",100.0,"[0.1641266999664403,0.06243844618150278]",100.0,"[0.07928260218627195,-0.15464652251498165]",4.0,"[0.07064614449398403,0.09569585933940405]",4.0,"[0.05457835296723772,0.13846151406958707]",4.0,"[-0.09923135145759636,0.10368979808274771]",4.0,"[-0.038691508855636964,0.01487509544335999]",100.0,"[-0.05147735243054701,0.12720263509360466]",100.0,"[-0.16198876454912334,0.058166501806257584]",4.0,"[0.023813102282469936,0.06115630306770342]",100.0,"[-0.05010338119346175,-0.031827967038235164]",100.0,"[0.02,0.02]",210.0282,0.0,24.0,24.0,102.0,1.0,,,,,,,
,,,,,,,67d985ecdc5a2f49e468bf75,6842bbfe9a181b1f33f34f93,2025-06-06_03h04.50.167,shape_ratio,2024.1.5,Win32,59.95203837,6842b561977af9ba9b0f87ca,,,,,,,,,,,210.0302,210.5387,,,210.7777,211.0311,right,,,,,,,,0.55,0.2379,,,,,,,210.5389,210.7775,211.0313,"[-0.17798685981603274,-0.03436563101940483]",4.0,"[-0.023026093523081135,-0.08953518317741554]",4.0,"[-0.038183790209143254,0.13038621334094175]",100.0,"[0.02225387423517472,0.03222818375634628]",100.0,"[0.03919473440405176,-0.1748673030210892]",100.0,"[-0.02497373134561098,0.018984575282034233]",100.0,"[-0.11027491781682838,-0.014483351526392258]",4.0,"[0.10128896940721503,0.11067307086793461]",100.0,"[-0.11353910053146261,0.060962398323324715]",100.0,"[-0.1541760150133343,0.04676444038198962]",4.0,"[0.029610876176988876,-0.08910750985906171]",100.0,"[0.1592744660476959,0.10870444255837815]",100.0,"[0.11797475972940989,-0.06829147149361027]",4.0,"[-0.06487218538015335,-0.1283756419937682]",4.0,"[0.06740561762331868,0.05181777140668767]",100.0,"[0.164085308194549,-0.06822175110150966]",100.0,"[0.06273425189655889,0.17333143372872423]",4.0,"[0.1570179505295147,-0.0015369205595586047]",100.0,"[-0.030479118827099937,0.17975379747646927]",100.0,"[0.08994964416203076,0.01768938210632775]",100.0,"[0.03884969289785069,-0.030723555339543407]",4.0,"[0.1315735263545025,-0.14937681304980902]",4.0,"[-0.007461602333654773,0.07338675881937051]",100.0,"[0.12897988553680695,0.05641722007206642]",4.0,"[-0.0417883977811633,-0.03722351687833276]",4.0,"[-0.1638964235212235,-0.09034408744354477]",100.0,"[-0.10415369671482654,-0.13996688395315945]",100.0,"[-0.054635701461222166,0.04838049248906279]",4.0,"[0.07504178154757528,-0.06172872902366388]",4.0,"[0.0729053802649893,-0.1179537847518058]",100.0,"[-0.06289053018424416,0.08933666616888375]",100.0,"[-0.01932145096745976,-0.1408517691760996]",4.0,"[0.02,0.02]",212.1249,0.0,25.0,25.0,81.0,1.0,,,,,,,
,,,,,,,67d985ecdc5a2f49e468bf75,6842bbfe9a181b1f33f34f93,2025-06-06_03h04.50.167,shape_ratio,2024.1.5,Win32,59.95203837,6842b561977af9ba9b0f87ca,,,,,,,,,,,212.1293,212.6311,,,212.8422,213.1328,left,,,,,,,,0.4,0.2774,,,,,,,212.6312,212.842,213.133,"[-0.09307644048354816,0.15290880164524107]",100.0,"[-0.05923114218405052,-0.047672706523790645]",4.0,"[-0.19139950914035658,-0.03395499983017079]",4.0,"[-0.032960385118870165,0.17909624792533832]",100.0,"[0.007664548808262814,0.10242206475486049]",4.0,"[0.0972350590072335,-0.02253565104007925]",4.0,"[-0.15464436349019425,-0.11348174074749558]",100.0,"[0.06406785631345324,-0.17124117034207803]",4.0,"[-0.020261176510146986,-0.07332394366665591]",100.0,"[0.057242453465094045,-0.11998677741891851]",4.0,"[-0.02519369742490698,-0.12237418857664611]",4.0,"[0.135286535129819,0.011790225475416067]",100.0,"[-0.15889234131784194,0.020269038009867856]",4.0,"[-0.11511988635676905,-0.06194104454167729]",100.0,"[0.11509397775490085,-0.13901853092007016]",100.0,"[-0.12385165842372788,0.08688893815940701]",4.0,"[0.09432285618193197,0.08256568729237844]",4.0,"[-0.00788112696729123,0.001239312202803827]",4.0,"[0.19845438698344076,-0.019511459027419353]",4.0,"[0.12882874535482933,-0.06185684330286498]",4.0,"[-0.18809815930800702,0.050744024565263876]",4.0,"[-0.06861026763941339,0.09299220801033115]",100.0,"[0.07135383277730813,-0.0752556833681976]",4.0,"[0.0351511903276545,0.021861797883425405]",100.0,"[0.025919070899691282,-0.09224520282013397]",4.0,"[0.013485980859791564,0.15211366366314585]",100.0,"[-0.03102210490044393,-0.18563731104071207]",100.0,"[-0.06772903192382207,0.01694117734167568]",4.0,"[-0.15064577394190043,-0.03395340692215354]",100.0,"[0.11892382089106862,0.1339944164279612]",4.0,"[0.03339583480393108,0.18957724955847904]",4.0,"[-0.06783292177492378,-0.11823685163555239]",100.0,"[0.02,0.02]",214.2347,0.0,26.0,26.0,152.0,1.0,,,,,,,
,,,,,,,67d985ecdc5a2f49e468bf75,6842bbfe9a181b1f33f34f93,2025-06-06_03h04.50.167,shape_ratio,2024.1.5,Win32,59.95203837,6842b561977af9ba9b0f87ca,,,,,,,,,,,214.2369,214.7286,,,214.9811,215.0804,left,,,,,,,,0.45,0.0853,,,,,,,214.7286,214.981,215.0805,"[-0.11559948284195247,-0.07308859700526214]",100.0,"[-0.11491926067360275,0.06671491258423418]",4.0,"[-0.11993903619321424,-0.13553311130009396]",4.0,"[0.15702384107192968,0.06126658239862758]",4.0,"[0.023036036073974597,0.027532703465747946]",100.0,"[0.05078950401472301,-0.14136355123683914]",100.0,"[0.06070407710680017,0.14294325645802294]",4.0,"[-0.17608358200395535,0.04654762133169168]",4.0,"[0.04202508766850225,-0.05330743903270968]",4.0,"[-0.13244140646425065,-0.009916243838591977]",4.0,"[-0.06994988868851142,-0.058275341105307694]",100.0,"[0.11187669581621318,0.03820136277557467]",100.0,"[0.10331822039949111,-0.13415752023615604]",100.0,"[-0.015978937875203526,-0.0721129905039621]",4.0,"[-0.19599155916868502,-0.02951200318958608]",100.0,"[0.057540566031522467,0.0889492094191467]",100.0,"[0.19017643075100338,-0.047334492890402376]",4.0,"[0.08565461914908054,-0.09802236703776249]",100.0,"[-0.030780148316947517,0.13392956919985677]",100.0,"[0.09968249935190136,0.11825085268046437]",4.0,"[-0.17837887494267404,-0.08895573964640603]",4.0,"[-0.12218225116809757,0.14057951823240172]",4.0,"[-0.003996967075453643,-0.1642958308798849]",4.0,"[0.07195450164750859,-0.013472114386202527]",4.0,"[-0.05633193155835209,0.0963311979597547]",100.0,"[0.1344110153763209,-0.014442967165741104]",4.0,"[-0.029190321444016152,0.0014705109146747662]",100.0,"[-0.07160266761072152,0.0400647684617157]",4.0,"[-0.017705935599138488,0.07468562265510402]",100.0,"[-0.04600690972683659,-0.1343014579659713]",4.0,"[0.01576565881516864,-0.10324332918407228]",4.0,"[0.04372241778560166,-0.18381379339590811]",100.0,"[0.02,0.02]",216.1791,0.0,27.0,27.0,139.0,1.0,,,,,,,
,,,,,,,67d985ecdc5a2f49e468bf75,6842bbfe9a181b1f33f34f93,2025-06-06_03h04.50.167,shape_ratio,2024.1.5,Win32,59.95203837,6842b561977af9ba9b0f87ca,,,,,,,,,,,216.184,216.6795,,,216.9266,218.4205,,,,,,,,,0.45,,,,,,,,216.6795,216.9265,218.4206,"[0.14698204935520368,0.04407761456138276]",100.0,"[-0.16721335051406822,0.0690527898978003]",4.0,"[0.051895372542638575,-0.15103548233426486]",4.0,"[0.16410434683928396,-0.04662632722737297]",100.0,"[0.054628997543612,-0.06910636391282739]",100.0,"[-0.09845559372132053,0.08708302465700175]",100.0,"[0.09642348024856028,0.038977191319326365]",4.0,"[-0.09904605789601806,-0.16877144766255375]",4.0,"[-0.03074209035436961,0.0007841756825340263]",4.0,"[-0.048711094472649194,-0.12257184092939674]",4.0,"[-0.051355638533541074,0.12086000562650356]",4.0,"[0.13560390937848021,-0.004408992869640215]",100.0,"[-0.18256172905681534,-0.012076870325633012]",4.0,"[-0.0733131230384671,0.1727116711083785]",4.0,"[0.10837923772910052,0.1412848751268845]",100.0,"[-0.015449281721340455,-0.07387486856037248]",4.0,"[0.12690559811708335,0.10310371273639768]",100.0,"[-0.02354657210446539,0.19670112619554517]",4.0,"[0.0658298758848351,0.171643514825056]",100.0,"[-0.12712989880361292,-0.04409675508714929]",100.0,"[0.0970011683522388,-0.021610800586726438]",100.0,"[-0.1474228155534432,-0.08063692358909591]",4.0,"[0.040321504742152514,-0.02809333004866524]",100.0,"[-0.0643310166020467,-0.0748155397739834]",100.0,"[-0.10374102192899234,0.04672700854103687]",4.0,"[0.01268873931942734,-0.18911265621437914]",4.0,"[0.0022138852413226906,0.06514667747072815]",100.0,"[0.032378023276260416,-0.11315174967462775]",4.0,"[-0.07584376724820997,-0.02004193142820972]",4.0,"[0.12811182334106352,-0.134118310465417]",4.0,"[-0.1079234054910734,-0.10056956159560401]",100.0,"[0.01836878051525085,0.1971507763780326]",4.0,"[0.02,0.02]",219.5162,0.0,28.0,28.0,145.0,1.0,,,,,,,
,,,,,,,67d985ecdc5a2f49e468bf75,6842bbfe9a181b1f33f34f93,2025-06-06_03h04.50.167,shape_ratio,2024.1.5,Win32,59.95203837,6842b561977af9ba9b0f87ca,,,,,,,,,,,219.5202,220.0133,,,220.2636,220.4463,left,,,,,,,,0.1,0.1679,,,,,,,220.0133,220.2635,220.4464,"[-0.09506854368940587,-0.07143466670576025]",4.0,"[0.03634299819839389,-0.06197926880980321]",4.0,"[-0.07123811709570134,-0.020806924725135]",100.0,"[-0.009707228211658498,-0.17960785143091093]",4.0,"[-0.11598061807676724,-0.03228313692300661]",4.0,"[-0.16539466321499624,-0.05122055662627122]",4.0,"[0.027516917541931172,0.07123378422025856]",4.0,"[0.05473735187384287,0.15738071354827995]",100.0,"[-0.005153584979018194,-0.000087261045331119]",100.0,"[0.05175429157536289,-0.19233676152073037]",4.0,"[0.07256425895624,-0.10583139761656718]",4.0,"[0.01718606069698071,0.13649532101913395]",4.0,"[0.11896821107440526,-0.1501159943250909]",4.0,"[-0.023731776579648863,0.07183735060466725]",4.0,"[0.16351507134887883,0.10010405761276563]",4.0,"[-0.07120356172358433,-0.11457836157381225]",4.0,"[0.11034421919030524,0.14820192457646814]",4.0,"[-0.0784807024716224,0.06613810206055012]",4.0,"[0.1441134480082129,-0.07673306596291124]",4.0,"[-0.13716191063033065,0.005559743220134689]",4.0,"[-0.04651429505304163,0.1369124598603807]",4.0,"[0.1401643484806547,0.00016220445865384035]",4.0,"[-0.043812453028951405,-0.14853116203355426]",4.0,"[-0.05002828262426944,0.023178289332578733]",4.0,"[0.17398409179279425,0.03771929297593068]",4.0,"[0.07734742542539001,0.07171441377828197]",4.0,"[-0.1815344728405099,0.0680388881786804]",4.0,"[0.1786842989196327,-0.0540437157384605]",4.0,"[0.018661561523636624,-0.1365506734617996]",4.0,"[-0.1814857826127386,0.011909566367097356]",4.0,"[-0.13060008193509642,0.10983505967270245]",4.0,"[0.038472918046893324,0.016371428267179286]",4.0,"[0.02,0.02]",221.5446,0.0,29.0,29.0,186.0,1.0,,,,,,,
,,,,,,,67d985ecdc5a2f49e468bf75,6842bbfe9a181b1f33f34f93,2025-06-06_03h04.50.167,shape_ratio,2024.1.5,Win32,59.95203837,6842b561977af9ba9b0f87ca,,,,,,,,,,,221.5467,222.0452,,,222.2977,222.4796,left,,,,,,,,0.4,0.1683,,,,,,,222.0453,222.2977,222.48,"[0.02583245554581617,0.11332395345551796]",100.0,"[0.10004996800750146,0.03252934060268693]",4.0,"[0.08137512770308383,0.1070344070333063]",100.0,"[0.15904737724004192,-0.0806795374308271]",100.0,"[-0.06955739238398774,0.1297831379085422]",4.0,"[0.0415996623844465,0.0055933202199649834]",4.0,"[0.015872065123523627,0.053935040932843445]",4.0,"[-0.11937884658134036,0.05397534280978177]",4.0,"[-0.03603569866135733,-0.06833635032585683]",4.0,"[-0.1356353481251741,0.12237692725136012]",4.0,"[0.18744788868271864,-0.04818833659053561]",100.0,"[0.0597103375777559,0.16369860479588944]",4.0,"[-0.050200344435397885,-0.15385727826448484]",4.0,"[-0.12766672593098347,-0.11745258538782588]",4.0,"[0.11716253751631739,-0.13898430464598382]",100.0,"[-0.04766809213825731,0.09314490682506021]",4.0,"[-0.0021954073421023815,-0.10736039108650469]",4.0,"[0.06539036127545941,-0.15971201544245237]",100.0,"[-0.0651041864613971,-0.11606207169838535]",100.0,"[0.16232575954272097,0.1104307089587452]",4.0,"[0.11865531838866754,0.1346618205320097]",100.0,"[0.088386108768755,-0.06267942131675845]",4.0,"[-0.11043329782121536,-0.16144652380087782]",4.0,"[-0.17359380007340033,-0.034248567241509126]",100.0,"[-0.06676344774091356,-0.0350793094147232]",100.0,"[0.1830856246799498,0.047007733306430544]",4.0,"[0.045553439332939726,-0.06032968939313621]",4.0,"[0.1394050620631226,-0.02658410847539736]",100.0,"[0.05997697771202265,0.06758273816072309]",100.0,"[-0.05481325360457207,0.18162144893452706]",100.0,"[-0.03177854485067198,0.030000007563812818]",4.0,"[0.17834237950297321,-0.0002299820019488159]",4.0,"[0.02,0.02]",223.5806,0.0,30.0,30.0,154.0,1.0,,,,,,,
,,,,,,,67d985ecdc5a2f49e468bf75,6842bbfe9a181b1f33f34f93,2025-06-06_03h04.50.167,shape_ratio,2024.1.5,Win32,59.95203837,6842b561977af9ba9b0f87ca,,,,,,,,,,,223.5815,224.0888,,,224.4097,225.8372,,,,,,,,,0.6,,,,,,,,224.0889,224.4092,225.8374,"[0.17609657313634272,-0.02679496166301219]",4.0,"[-0.04670533325923579,0.16758441891619508]",4.0,"[0.05501849820720754,0.017072863025686755]",4.0,"[-0.12798956395442787,0.14873828096745717]",4.0,"[0.002045842829698794,0.16926245916315533]",100.0,"[0.11576714288793441,0.007946297121286854]",4.0,"[0.16849203151032996,0.07682913693729126]",100.0,"[0.19562537810798372,0.009127266642660163]",100.0,"[-0.11229453905272557,0.10397195155251165]",100.0,"[0.05673163469781133,0.15105667633468384]",100.0,"[-0.10020593776149812,-0.10507800058887139]",100.0,"[-0.1455736946672934,-0.09986386940218366]",100.0,"[-0.09811487106586507,-0.14678309980978482]",4.0,"[-0.010086806472234209,-0.11760837573438448]",100.0,"[0.13681097679447643,-0.10248340545705038]",4.0,"[0.10004168957106058,-0.1206533965088176]",100.0,"[0.09343421429422975,-0.04815246969571643]",4.0,"[0.11564662541428687,0.1103699733390948]",100.0,"[-0.004818377392876849,-0.02297059156329514]",100.0,"[-0.03638653863505184,-0.18994411231439604]",100.0,"[0.03919640299685431,0.09419548261218362]",4.0,"[-0.10905718174617236,-0.05285553674614856]",100.0,"[0.01467977537717881,-0.058031946624058146]",100.0,"[0.01462121696799691,-0.18474832163258123]",100.0,"[-0.00599379603834006,0.11011970166339996]",100.0,"[-0.057600160776076534,-0.0457186989109427]",4.0,"[-0.043926611668394504,-0.08449807285826742]",4.0,"[-0.034146632202980816,0.02740795422189715]",4.0,"[0.09935717021872613,0.06028839332558316]",100.0,"[-0.15759966116571605,-0.051126749417985014]",100.0,"[-0.07653837973932198,0.00894147425041113]",4.0,"[-0.17026383516552754,0.034508646883112275]",100.0,"[0.02,0.02]",226.9418,0.0,31.0,31.0,52.0,1.0,,,,,,,
,,,,,,,67d985ecdc5a2f49e468bf75,6842bbfe9a181b1f33f34f93,2025-06-06_03h04.50.167,shape_ratio,2024.1.5,Win32,59.95203837,6842b561977af9ba9b0f87ca,,,,,,,,,,,226.9434,227.4317,,,227.6849,227.872,left,,,,,,,,0.9,0.1754,,,,,,,227.4318,227.6847,227.8721,"[-0.15045812002288772,0.04901506040910754]",100.0,"[0.02584833960433645,0.15312029574848524]",100.0,"[0.08952615474229948,0.06111025690942818]",100.0,"[0.02020428294991263,0.018151833258326845]",100.0,"[0.09325610368401202,0.10966138683934185]",100.0,"[0.09227818441457776,-0.17181079263132762]",100.0,"[0.0008439597784187412,0.05730819654879143]",100.0,"[-0.1409497372241245,-0.11272492876304119]",100.0,"[-0.1323917798045839,0.10409621106452954]",100.0,"[-0.13688538868957817,-0.018315314050654286]",100.0,"[-0.04527349500036922,0.15521771019745312]",100.0,"[-0.09275209525212987,0.06302468783936767]",4.0,"[0.10532115161559506,0.015850545071245246]",100.0,"[-0.09160686964954279,-0.0561850078622957]",100.0,"[0.0017599453623822934,0.10949663214924078]",4.0,"[-0.10174560833057883,0.16917079236961513]",100.0,"[0.15244110015908344,0.08453314751389092]",100.0,"[0.036285063248935386,-0.173592798037795]",100.0,"[0.05579079784666478,-0.10830340594892698]",100.0,"[0.005104729131820209,-0.0751317702807132]",100.0,"[0.10173824289182176,-0.10168633861627584]",100.0,"[0.11891383343424275,-0.0253590121495913]",100.0,"[0.046601720334751136,-0.0621110185800671]",100.0,"[-0.031122320063378225,0.016115581155129975]",100.0,"[-0.0625250311378444,-0.02179136716294502]",100.0,"[0.18641708246543706,-0.032181505867155374]",100.0,"[0.050716565126404545,0.11978784676683576]",100.0,"[0.07081768109223144,-0.022960239566494872]",4.0,"[-0.18753794246157401,0.02167516892401282]",100.0,"[-0.03837380700484944,-0.11207427650911952]",100.0,"[0.12906852620158116,0.15251339491584492]",100.0,"[-0.18959960837710052,-0.022397667748599137]",100.0,"[0.02,0.02]",228.9778,0.0,32.0,32.0,17.0,1.0,,,,,,,
,,,,,,,67d985ecdc5a2f49e468bf75,6842bbfe9a181b1f33f34f93,2025-06-06_03h04.50.167,shape_ratio,2024.1.5,Win32,59.95203837,6842b561977af9ba9b0f87ca,,,,,,,,,,,228.9794,229.4774,,,229.7259,229.8686,left,,,,,,,,0.55,0.1261,,,,,,,229.4774,229.7258,229.8687,"[0.15291029760113084,-0.09070774932877304]",100.0,"[0.12047296861997256,0.0963382157203422]",100.0,"[0.004642339183322431,0.003929905180742855]",100.0,"[0.19665227198290156,-0.011039117296052836]",4.0,"[-0.17422786978184937,-0.06692836136003745]",100.0,"[-0.1205900936677795,-0.0668372627421898]",100.0,"[-0.153653373893948,-0.027240838989803107]",100.0,"[-0.04299473447272133,-0.12230272922736071]",4.0,"[0.18525102060430687,-0.050599300136446035]",100.0,"[-0.03928888146228877,-0.01955313664862101]",4.0,"[0.02668287959819437,0.11782726494278288]",4.0,"[0.10578832539178055,0.03269229762321849]",4.0,"[0.011356271965527312,-0.08537417251793918]",100.0,"[-0.0032690109746822053,-0.03805122745711122]",100.0,"[0.12012019120022926,-0.02422362291767532]",4.0,"[0.0638906747926694,0.04317529623485121]",4.0,"[-0.12004337104982536,0.09061935597873501]",100.0,"[-0.05549296552559017,0.026970514290697124]",100.0,"[0.04588196963835743,-0.18178125805800072]",100.0,"[0.1356773466345985,-0.13496889649753838]",4.0,"[-0.056488957106350365,0.08720038441642823]",100.0,"[-0.00859239386880988,-0.16576140233759953]",100.0,"[-0.10154898554558729,-0.11665849290791819]",4.0,"[-0.042699679252961455,0.17129793999056414]",100.0,"[-0.013273161477767501,0.061317535708551016]",4.0,"[-0.1375711385600885,0.0429311743236398]",4.0,"[0.15591560249717168,-0.0052924536480419004]",4.0,"[0.04572952045604787,-0.03747379851347147]",100.0,"[-0.08043029741858994,-0.048534690730063695]",4.0,"[0.08641833354714672,-0.11949953364936985]",4.0,"[0.00794434173614662,0.1567743548526047]",100.0,"[-0.14461401171734417,0.13177925436605384]",100.0,"[0.02,0.02]",230.9657,0.0,33.0,33.0,64.0,1.0,,,,,,,
,,,,,,,67d985ecdc5a2f49e468bf75,6842bbfe9a181b1f33f34f93,2025-06-06_03h04.50.167,shape_ratio,2024.1.5,Win32,59.95203837,6842b561977af9ba9b0f87ca,,,,,,,,,,,230.9683,231.4617,,,231.7111,231.8729,left,,,,,,,,0.1,0.1494,,,,,,,231.4617,231.711,231.873,"[-0.1357576801730757,-0.03752477418746009]",4.0,"[0.17397695010229652,-0.0372313053912256]",4.0,"[0.11024996183869581,0.05805578935544936]",4.0,"[0.03207620748120196,0.07368595796045768]",4.0,"[0.005618027046353885,0.11281992973819166]",4.0,"[-0.04519788402215151,0.1629192727950451]",100.0,"[0.018258084288149706,0.015230122176923802]",4.0,"[-0.10973185667200938,0.007901937230625293]",4.0,"[-0.07735797050477303,0.039303616259708095]",4.0,"[0.17062586460841112,0.07398549006231617]",4.0,"[0.06902495448560549,-0.1271219933759437]",4.0,"[-0.16437126151389275,-0.06903959614734226]",4.0,"[-0.14367159890949815,-0.12001542882359874]",4.0,"[-0.04940007520631802,0.08073003999486779]",4.0,"[0.057816618695819055,-0.007044870027323818]",4.0,"[-0.13733861153383917,0.07865777170327239]",4.0,"[0.09761252928731537,0.12888575823245002]",4.0,"[0.1096912850084846,-0.12953612190268446]",4.0,"[-0.06272532037194384,-0.03267658946182714]",4.0,"[-0.0005129998135848902,-0.05799140521661542]",4.0,"[-0.045104950021202565,-0.1613788611002892]",4.0,"[0.07974415387591327,-0.05666996420831112]",4.0,"[0.020621425704891054,0.15668358778513744]",4.0,"[-0.09244443025906346,0.09132705936027714]",4.0,"[0.06783493680509062,0.16296548963965918]",4.0,"[-0.07238668503671872,-0.09276508394386274]",4.0,"[0.1326975435416392,0.016253316496226855]",100.0,"[0.015544616123057199,-0.10497915318539401]",4.0,"[-0.14932408535205266,0.027685170022144986]",4.0,"[0.01712244817829879,-0.19068541221488666]",4.0,"[0.0741383432561901,0.07702482573276617]",4.0,"[-0.18895428054881325,-0.0015739179147635522]",100.0,"[0.02,0.02]",232.9702,0.0,34.0,34.0,196.0,1.0,,,,,,,
,,,,,,,67d985ecdc5a2f49e468bf75,6842bbfe9a181b1f33f34f93,2025-06-06_03h04.50.167,shape_ratio,2024.1.5,Win32,59.95203837,6842b561977af9ba9b0f87ca,,,,,,,,,,,232.9713,233.4686,,,233.7257,233.8863,left,,,,,,,,0.9,0.1461,,,,,,,233.4688,233.7256,233.8864,"[0.024606024094545598,-0.0749683307672576]",100.0,"[0.040790613092173064,0.03670064780025066]",100.0,"[0.08120177295008484,-0.14174336630079523]",4.0,"[0.04379299964798096,0.13949600596097475]",100.0,"[-0.04195553443979574,-0.0373756232334237]",100.0,"[-0.07569506368200558,0.1512915491898264]",100.0,"[-0.1379211532045115,-0.1345211072586306]",100.0,"[-0.1281216933710269,0.14368537309955068]",100.0,"[-0.1957594785305965,0.03130457219434618]",100.0,"[-0.006022952790320123,-0.18779664758559728]",100.0,"[-0.024212042571017743,0.039845920264546086]",100.0,"[-0.004393657563131705,0.08855769054102319]",100.0,"[0.09212858681662023,0.09973909783910372]",100.0,"[-0.009740226135302316,0.18596671566109427]",100.0,"[0.13948210635624092,0.09709584720597803]",100.0,"[-0.08898325901188224,0.009929033177512337]",100.0,"[-0.03843145238954907,0.12963065882127608]",100.0,"[-0.13563474786343901,0.04594082187146174]",100.0,"[-0.14348290620098236,0.09787104967815541]",4.0,"[0.13108530488983935,-0.014951281003981968]",100.0,"[-0.19403856891036644,-0.034702922527664826]",100.0,"[0.07236014713434714,-0.01554836242543652]",100.0,"[-0.06664942408131488,-0.183245401817327]",100.0,"[0.11606458111827338,0.06331890125496571]",100.0,"[0.13496962271617005,-0.12075851815337116]",100.0,"[0.17540262720544134,-0.03609009775182249]",100.0,"[0.10043749598653322,0.16452349070832895]",100.0,"[-0.11101644051105189,-0.057374585522770735]",100.0,"[0.021154219548749176,-0.124171195272421]",4.0,"[-0.05565597536986576,-0.12408081285037359]",100.0,"[0.11166676511501632,-0.06932871042614701]",100.0,"[0.06690864901741227,-0.09742345695499625]",100.0,"[0.02,0.02]",234.9876,0.0,35.0,35.0,29.0,1.0,,,,,,,
,,,,,,,67d985ecdc5a2f49e468bf75,6842bbfe9a181b1f33f34f93,2025-06-06_03h04.50.167,shape_ratio,2024.1.5,Win32,59.95203837,6842b561977af9ba9b0f87ca,,,,,,,,,,,234.9885,235.4841,,,235.7238,235.8957,right,,,,,,,,0.55,0.1589,,,,,,,235.4843,235.7237,235.8958,"[-0.12574800679181775,0.14586199207629277]",4.0,"[0.11031773346543569,-0.12000855809195217]",4.0,"[0.024720326199369154,0.014463123425458834]",100.0,"[-0.12347913673494484,-0.04931874319912194]",100.0,"[0.0915782332269662,-0.0704444791504737]",100.0,"[0.08161002467543153,0.16428882851346535]",100.0,"[-0.10849719954123334,0.08351839842770248]",4.0,"[0.03363416462147813,0.16530219017166]",100.0,"[-0.01362775549965094,0.048869179997239956]",100.0,"[0.15765294769388613,-0.0844374598900055]",4.0,"[-0.17325784981460832,0.009572749410237287]",4.0,"[-0.09670509817962733,0.034607655712048664]",100.0,"[-0.15512214655295045,0.0748194499040738]",100.0,"[-0.030335550074364684,-0.09267707477099815]",4.0,"[-0.07139394448813026,-0.13395422326341327]",100.0,"[0.0645719387238011,0.03231138693189101]",4.0,"[0.17420810300173054,0.02153263557209725]",100.0,"[0.015936018164515352,-0.10368272530515779]",100.0,"[-0.039934046588615955,0.17429492579128988]",100.0,"[-0.02649788688645209,-0.01249227105870765]",100.0,"[0.0820080992036942,0.09330663454647858]",4.0,"[-0.18175971706157668,-0.03997896928207341]",4.0,"[0.028177621404711337,0.0772242743477805]",100.0,"[0.011171716101690274,-0.19864971114073895]",4.0,"[0.024263133655047165,-0.04250356485254085]",100.0,"[0.06106293232208835,-0.12144827157694697]",4.0,"[0.13417994625143245,0.10900239894765068]",4.0,"[0.12377230099255006,-0.013184205712450379]",4.0,"[-0.05862331266493885,0.05216375276135439]",100.0,"[0.12221968738671114,0.055934585604089336]",100.0,"[0.1928469179793855,-0.028662664155014984]",4.0,"[-0.002452667876812299,0.13002035097643652]",100.0,"[0.02,0.02]",236.9953,0.0,36.0,36.0,85.0,1.0,,,,,,,
,,,,,,,67d985ecdc5a2f49e468bf75,6842bbfe9a181b1f33f34f93,2025-06-06_03h04.50.167,shape_ratio,2024.1.5,Win32,59.95203837,6842b561977af9ba9b0f87ca,,,,,,,,,,,236.9964,237.4866,,,237.7297,237.9701,right,,,,,,,,0.5,0.2259,,,,,,,237.4867,237.7296,237.9702,"[0.04164940016316185,0.1552587953037504]",4.0,"[-0.02441075939411234,0.07533091151698935]",100.0,"[0.08206665220253576,-0.06974789103622384]",100.0,"[-0.054474781718019505,-0.05709051171799106]",4.0,"[0.15682670042376629,0.08560730097428615]",4.0,"[-0.09129530104707652,0.06734949434499748]",100.0,"[-0.13675477017627005,0.07419095353723286]",4.0,"[-0.1403514743440782,-0.11094785292717789]",100.0,"[-0.010062571302738044,-0.1384274824843938]",100.0,"[-0.18403176839372223,0.06973406254412552]",100.0,"[0.0299372129336219,0.062255960188067914]",4.0,"[0.08141082760693523,0.1102421866535897]",4.0,"[-0.026851410256820245,0.15673535628334725]",100.0,"[-0.07173361892846832,0.1362642487657496]",100.0,"[-0.19152934249475803,-0.04561131571848872]",4.0,"[0.1104037813223369,0.07683196871399724]",4.0,"[0.17898659313148343,0.00961720469323055]",4.0,"[0.04323628733310936,-0.15012258687436333]",100.0,"[0.07159358925112083,0.02241672032039183]",4.0,"[-0.1320413474477986,0.11840460251894802]",100.0,"[0.0185349649152601,-0.18364343953643172]",100.0,"[0.12191075926139068,0.015629314916288356]",4.0,"[0.14057642859446629,-0.09516179845232683]",100.0,"[0.018988612543244385,-0.05619177071232723]",4.0,"[0.024623903859532927,0.022504718364525313]",100.0,"[0.17677633006367827,-0.04303582926900222]",4.0,"[-0.1397288446162267,-0.03985532475512852]",100.0,"[0.10830987094986061,-0.12520725775439168]",100.0,"[-0.05273153835562722,0.01691036904715302]",4.0,"[0.08254114749816234,-0.02402413707275397]",100.0,"[-0.07903150150059893,-0.17442291428551474]",4.0,"[-0.024673653181951073,-0.022284055671483616]",4.0,"[0.02,0.02]",239.0625,0.0,37.0,37.0,100.0,1.0,,,,,,,
,,,,,,,67d985ecdc5a2f49e468bf75,6842bbfe9a181b1f33f34f93,2025-06-06_03h04.50.167,shape_ratio,2024.1.5,Win32,59.95203837,6842b561977af9ba9b0f87ca,,,,,,,,,,,239.0636,239.5621,,,239.8089,239.8413,left,,,,,,,,0.9,0.019,,,,,,,239.5621,239.8089,239.8414,"[-0.02747153470276929,-0.08393548616151295]",100.0,"[-0.015266792274775924,0.0539888597123764]",100.0,"[-0.1097057127140487,-0.10323850815691499]",100.0,"[0.08486751630175747,-0.09270535305939463]",100.0,"[0.0638403251952168,0.17677453440321253]",100.0,"[-0.027596992135199665,-0.13523257234907857]",100.0,"[0.08758474895859047,0.05985167916016914]",4.0,"[-0.10564799136837352,-0.04228158079776143]",100.0,"[0.010005314946010807,0.18946952938588651]",100.0,"[0.01336926997150223,0.011678173809304153]",100.0,"[-0.042349197164540865,0.009165974824803495]",100.0,"[-0.18737637881198477,-0.03239291605246202]",100.0,"[-0.07762193711727038,-0.07602193952330974]",4.0,"[0.06333215384345985,-0.16638680416954305]",100.0,"[0.19015605386400988,-0.04280479934463755]",100.0,"[0.1210171768778055,-0.14766729200998155]",100.0,"[-0.0630702712335605,0.11203297399899596]",100.0,"[-0.12289791187377598,0.028478027750012975]",100.0,"[0.012038971936953179,-0.10805371458819424]",100.0,"[0.046361350436938904,0.13078489721464223]",100.0,"[-0.147593881030982,-0.06862907101013191]",100.0,"[0.048610226157029306,-0.009549242299558757]",100.0,"[-0.12591086232029375,0.07447136626349632]",100.0,"[0.15474034544859797,0.019292639396010704]",4.0,"[-0.06346848320605664,0.05852014287808758]",100.0,"[0.13696146284401117,0.14085752537468185]",100.0,"[-0.13621028680906086,0.13625710847268382]",100.0,"[0.11360395955009285,-0.025378862571205193]",100.0,"[-0.08276491239123283,0.00417425438281092]",100.0,"[-0.09244312297107095,0.17677935210432316]",100.0,"[-0.18446936540053363,0.01942538005260337]",100.0,"[0.0985425701108674,0.1003765271355623]",100.0,"[0.02,0.02]",240.945,0.0,38.0,38.0,4.0,1.0,,,,,,,
,,,,,,,67d985ecdc5a2f49e468bf75,6842bbfe9a181b1f33f34f93,2025-06-06_03h04.50.167,shape_ratio,2024.1.5,Win32,59.95203837,6842b561977af9ba9b0f87ca,,,,,,,,,,,240.9461,241.4367,,,241.6827,241.8656,left,,,,,,,,0.4,0.1669,,,,,,,241.4368,241.6826,241.8658,"[-0.1314072073472388,-0.024666236460804583]",100.0,"[0.033833742475458395,0.04415144086885009]",4.0,"[-0.0979368933518598,0.1725308080275592]",100.0,"[-0.05184441369565021,-0.029295014533071685]",4.0,"[0.04259991270910335,-0.014630593154296281]",4.0,"[0.05890008189246085,-0.0627276304649695]",4.0,"[0.050297295677347184,0.18064312837956667]",100.0,"[0.10292073044285721,-0.1475976970069281]",100.0,"[-0.028515410763737616,0.09132492807939598]",4.0,"[0.19484710662381688,-0.0030851691140762853]",4.0,"[0.11143851299119566,-0.07848844361345698]",4.0,"[-0.1630402389953367,0.1020299623105536]",100.0,"[0.1660413352378618,-0.08213752691885008]",100.0,"[-0.17457887293344188,0.04509237234456072]",100.0,"[-0.10645735025685465,0.10532220936922633]",100.0,"[-0.017217302332095785,0.15559646376538666]",4.0,"[0.10063515664993172,0.09173144638253779]",100.0,"[0.10386791300602018,0.024723102558784713]",4.0,"[-0.01778197444769469,0.030824446101633075]",100.0,"[-0.07411380411599448,0.02773153854624142]",4.0,"[0.08143081239596002,-0.028763181228517627]",100.0,"[-0.06873994551732282,-0.10549455410144101]",4.0,"[-0.15056356518931116,-0.10251286676615172]",4.0,"[0.014576429104783266,-0.08210619877655519]",4.0,"[0.06476837023740445,-0.1203048417762962]",4.0,"[-0.06179939239273398,0.15414584156645622]",4.0,"[0.09057441207639189,0.1366728277511695]",4.0,"[0.1486495222801848,0.10265993542823683]",4.0,"[-0.17680038623925792,-0.012010226361450091]",100.0,"[-0.08651650260787148,-0.14873553389412264]",100.0,"[0.00984092279102443,-0.1492646005435191]",4.0,"[-0.02994901194919899,-0.16020659340658241]",4.0,"[0.02,0.02]",242.9756,0.0,39.0,39.0,177.0,1.0,,,,,,,
,,,,,,,67d985ecdc5a2f49e468bf75,6842bbfe9a181b1f33f34f93,2025-06-06_03h04.50.167,shape_ratio,2024.1.5,Win32,59.95203837,6842b561977af9ba9b0f87ca,,,,,,,,,,,242.9766,243.4689,,,243.7114,243.9127,right,,,,,,,,0.1,0.1864,,,,,,,243.4689,243.7113,243.9128,"[0.1707758082797537,-0.0749166189539089]",4.0,"[0.15107236558833637,0.11595063158908293]",4.0,"[-0.10117649237962384,-0.13405034671743435]",4.0,"[-0.1511706292296307,-0.02891684799308262]",4.0,"[0.006165645164217673,-0.14263213022540916]",4.0,"[0.19397482011616837,0.04302958555353704]",4.0,"[-0.18919107206064462,-0.0010450171366250638]",4.0,"[-0.05567219010480574,0.16987827335489494]",4.0,"[-0.09451477344543686,-0.04980535832051881]",4.0,"[0.08253221551059213,-0.07044047319064825]",4.0,"[-0.12322505885776339,0.02029360026726128]",4.0,"[0.01605752958597367,0.0012103982668569882]",4.0,"[0.05346676651953488,-0.1688650679375489]",4.0,"[-0.16604798934849663,-0.06743787986097752]",100.0,"[0.0346939141158973,0.17396362016075861]",4.0,"[0.19877943455044597,-0.004114348805919123]",4.0,"[0.10550464656272368,0.14774626714107753]",4.0,"[-0.1773472014481561,0.06599636100641794]",4.0,"[0.049726823478528595,0.08847710444946694]",100.0,"[-0.045979630735101494,-0.011226686721135219]",4.0,"[-0.021657447268860496,-0.05266713490734319]",4.0,"[-0.013446867848399607,0.1286516572345569]",4.0,"[-0.019619985687048914,0.1925370256105381]",4.0,"[-0.12525258026386443,0.13773890808254943]",4.0,"[-0.0868131343261374,-0.17932455223013463]",4.0,"[-0.05705392728913126,0.042748340885589334]",4.0,"[-0.022914904715275467,-0.09687158029753756]",4.0,"[0.1501080743252322,-0.1302124532283201]",100.0,"[-0.030124441437348815,-0.18257238123690392]",4.0,"[0.17871609130936994,0.08640861670121511]",4.0,"[0.004941235030511635,0.06707653667712735]",4.0,"[0.07522302855200338,0.003472592264689914]",4.0,"[0.02,0.02]",245.0088,0.0,40.0,40.0,181.0,1.0,,,,,,,
,,,,,,,67d985ecdc5a2f49e468bf75,6842bbfe9a181b1f33f34f93,2025-06-06_03h04.50.167,shape_ratio,2024.1.5,Win32,59.95203837,6842b561977af9ba9b0f87ca,,,,,,,,,,,245.0098,245.5111,,,245.7624,245.8789,right,,,,,,,,0.55,0.0999,,,,,,,245.5112,245.7622,245.8789,"[-0.03826592213388938,0.17591252155544163]",4.0,"[0.047638946676408445,0.12221545507294582]",4.0,"[0.01487628558044003,0.16577304700961376]",100.0,"[0.13871487151181808,0.08117155410401172]",100.0,"[-0.0563168024325378,-0.12243269972073675]",100.0,"[0.0698197733381115,-0.10737891727815185]",4.0,"[-0.18575052534540928,-0.02675681351602075]",100.0,"[0.04084134140342442,-0.028545131930183695]",100.0,"[0.0646621780569254,0.17178377852574017]",100.0,"[-0.059159809353863065,-0.05432010867404802]",100.0,"[-0.08178752805535398,0.15361124184415711]",100.0,"[0.13805639341419307,0.13656382480466442]",4.0,"[-0.11514761926672548,0.007849127621068796]",4.0,"[-0.09325993631649691,0.06676372848035045]",100.0,"[0.12336651039042842,-0.005395974551625892]",4.0,"[0.026398739954532784,-0.0775103246652247]",100.0,"[-0.1679092918222143,-0.0730076452671561]",100.0,"[0.07266650090699632,0.052421282455800286]",4.0,"[-0.18037734962378302,0.05148796271063191]",100.0,"[0.012733610701967319,-0.16645849301519322]",100.0,"[-0.022546376448817823,-0.14554972899029128]",100.0,"[-0.09893060612827799,-0.0815546956469799]",4.0,"[-0.002722789206586697,-0.04842702368360031]",100.0,"[-0.05010130804048528,0.11121349532557367]",4.0,"[0.14480203505127967,-0.09050738158504067]",100.0,"[-0.06691341349164615,-0.18261237990896778]",100.0,"[-0.013691531900007357,0.13096495739917544]",4.0,"[-0.013530284110985847,0.01508253916258307]",4.0,"[0.12198680920767864,0.03875434635156677]",100.0,"[0.11917444432469847,-0.05261682148115226]",4.0,"[0.16549643302310832,-0.051773033324426856]",4.0,"[-0.1358435099472443,-0.14648935050846426]",4.0,"[0.02,0.02]",246.9761,0.0,41.0,41.0,66.0,1.0,,,,,,,
,,,,,,,67d985ecdc5a2f49e468bf75,6842bbfe9a181b1f33f34f93,2025-06-06_03h04.50.167,shape_ratio,2024.1.5,Win32,59.95203837,6842b561977af9ba9b0f87ca,,,,,,,,,,,246.9768,247.4752,,,247.729,247.8505,left,,,,,,,,0.5,0.1049,,,,,,,247.4753,247.729,247.8506,"[0.09517667976826397,-0.0903843085060764]",100.0,"[0.05025884562167709,-0.10336217301153897]",4.0,"[0.08578626384414532,-0.04973552371341961]",100.0,"[-0.04299034186156662,-0.0861776346664275]",100.0,"[-0.03659789127545301,0.0013704931592146432]",4.0,"[-0.0718384989476007,0.0917037225678438]",100.0,"[0.05106499779294111,-0.15115441822730544]",4.0,"[-0.15714459879285544,-0.09216537133648042]",100.0,"[-0.13663376456761653,0.1030636892651188]",4.0,"[0.11574170214479769,0.13011955255483806]",4.0,"[0.013126684758809255,0.1745497927041141]",100.0,"[-0.15333114553587845,0.0026055782953700916]",4.0,"[0.1546680600071507,0.09969156844536792]",100.0,"[-0.14617595371074021,0.051722283219185185]",4.0,"[0.008411456802747413,-0.19064812585045532]",4.0,"[0.13192198091538296,0.04516630180430282]",4.0,"[0.07768589476945571,-0.008798687407964028]",100.0,"[-0.024282385848386153,0.08530589718585552]",4.0,"[-0.1893034149817639,-0.060974897337943666]",4.0,"[0.020116949476002656,-0.051409332811628225]",100.0,"[-0.10400964167779553,-0.04397591986870382]",4.0,"[0.014054506170759587,-0.12430504976442353]",100.0,"[0.13263134812469293,-0.0728851067488109]",100.0,"[-0.022455566455227356,-0.03920184172307826]",4.0,"[-0.0068582767044694974,0.13185869716016843]",4.0,"[-0.07609490930221265,0.04068616574076258]",4.0,"[0.10705934505962107,-0.15227728670124965]",100.0,"[-0.09376876299097262,-0.12063868903125373]",100.0,"[-0.19387786064239412,0.04025681626722769]",100.0,"[0.17212256743229296,-0.017691224190090244]",100.0,"[-0.08377270027156662,-0.16418382253923977]",100.0,"[0.07717119964237283,0.03629104404381221]",4.0,"[0.02,0.02]",248.9459,0.0,42.0,42.0,105.0,1.0,,,,,,,
,,,,,,,67d985ecdc5a2f49e468bf75,6842bbfe9a181b1f33f34f93,2025-06-06_03h04.50.167,shape_ratio,2024.1.5,Win32,59.95203837,6842b561977af9ba9b0f87ca,,,,,,,,,,,248.9507,249.4498,,,249.6638,249.9052,left,,,,,,,,0.5,0.2271,,,,,,,249.45,249.6636,249.9055,"[0.028443117616610697,-0.010684854988376458]",4.0,"[-0.07656512860325776,0.1578545508810918]",100.0,"[-0.031632086254983156,0.1297354220437645]",100.0,"[-0.14918126722457528,0.11259626988574385]",100.0,"[-0.050049313729424824,-0.030310901164203274]",4.0,"[0.13462382823859903,-0.012495380068817147]",4.0,"[-0.10950770424473012,-0.08552355210023714]",100.0,"[-0.0011431324382890722,0.19542954542931718]",4.0,"[0.1796806494101355,-0.005716342341275781]",4.0,"[0.09648138082871241,-0.12941579611934412]",4.0,"[-0.09852961065906085,0.06347969320744949]",100.0,"[0.043372621962017105,0.18564676451217169]",100.0,"[0.1450658594843919,0.10739550154976872]",100.0,"[0.0033951159806540118,0.0364788517889398]",4.0,"[0.1706138598056542,0.04237220671875709]",4.0,"[0.09398672197956444,-0.17464084798436527]",100.0,"[0.09040883016596707,0.04879888911370973]",100.0,"[-0.0012377338696509435,-0.1219409617958142]",4.0,"[-0.014442504676581615,-0.1628024998879203]",4.0,"[0.05064999219002324,-0.1096557229374697]",100.0,"[0.025237149676804793,0.09975403865408587]",100.0,"[0.010564039920528628,0.14376507463318308]",100.0,"[0.12279906481779912,0.072400853384471]",4.0,"[0.08303059798870767,-0.0607058095151448]",100.0,"[-0.1909339019596589,-0.025473155915134393]",4.0,"[0.05871148831043038,0.017103827328692523]",4.0,"[-0.10684536525607166,-0.04287459930710818]",4.0,"[-0.02893146597477525,0.012163596104006573]",100.0,"[0.08359377440653326,0.15050923965488508]",4.0,"[0.09081431603214794,0.0979916444279894]",100.0,"[0.14119069079319554,-0.05285122908029253]",4.0,"[-0.05463513189899242,-0.10087567737922676]",100.0,"[0.02,0.02]",251.0047,0.0,43.0,43.0,109.0,1.0,,,,,,,
,,,,,,,67d985ecdc5a2f49e468bf75,6842bbfe9a181b1f33f34f93,2025-06-06_03h04.50.167,shape_ratio,2024.1.5,Win32,59.95203837,6842b561977af9ba9b0f87ca,,,,,,,,,,,251.0062,251.5088,,,251.7559,252.2412,left,,,,,,,,0.5,0.4722,,,,,,,251.5089,251.7558,252.2416,"[0.13903795449433498,-0.03020076080724055]",4.0,"[0.1788950098207569,-0.0553918013924973]",4.0,"[0.0973229656301172,-0.058963404627335826]",100.0,"[-0.001237886010922234,-0.04319157928092867]",100.0,"[-0.1464068552258148,0.01442088942412755]",100.0,"[-0.10824623692905389,-0.11858954111825708]",100.0,"[-0.08923700513708259,0.05711234172957794]",4.0,"[0.009208066688919096,-0.15078357560597003]",4.0,"[0.10048738102200994,-0.12300832108008843]",100.0,"[-0.01891587382777614,0.04251419789055437]",100.0,"[-0.14096192028243795,0.06683194077444744]",4.0,"[-0.17048209210514945,-0.08926404645427903]",100.0,"[-0.10361946247427323,-0.022706346392163415]",100.0,"[0.058458587863182615,0.09595800768215951]",100.0,"[0.09999758997807796,0.09412715448872092]",100.0,"[-0.04146230313185315,-0.09735103662990201]",4.0,"[0.0906915631562874,-0.16742657346630185]",4.0,"[0.06886955716098545,0.13734231298694935]",100.0,"[-0.0808809700749604,0.17378532414413006]",4.0,"[-0.027193837314057202,-0.1915195517525788]",100.0,"[-0.12332991195692643,0.13802054408640385]",4.0,"[0.020550147651955293,0.06662200634799857]",4.0,"[-0.004022682110661173,0.19360199667610642]",100.0,"[0.12654981543213162,0.14483554546358085]",4.0,"[0.0806820981080811,-0.019821030487768614]",100.0,"[0.15930000436478542,0.10282822228921024]",4.0,"[-0.012071552669020703,0.10514944875788618]",4.0,"[0.07742728564251602,0.032932909465341643]",4.0,"[0.060004707862749605,-0.13154784733298092]",100.0,"[-0.084451928330878,-0.16409199846847222]",4.0,"[-0.09788406529896697,-0.0736462431350856]",4.0,"[0.1458765762771486,-0.13217648260637058]",100.0,"[0.02,0.02]",253.3432,0.0,44.0,44.0,115.0,1.0,,,,,,,
,,,,,,,67d985ecdc5a2f49e468bf75,6842bbfe9a181b1f33f34f93,2025-06-06_03h04.50.167,shape_ratio,2024.1.5,Win32,59.95203837,6842b561977af9ba9b0f87ca,,,,,,,,,,,253.3443,253.8434,,,254.0907,254.3831,left,,,,,,,,0.1,0.2694,,,,,,,253.8434,254.0907,254.3833,"[-0.16476447663149119,0.016847102628341618]",4.0,"[-0.002797714997905458,0.1543260117128725]",4.0,"[0.042188567685693644,-0.0014340548717372383]",100.0,"[0.046565023607529246,0.11115795085670278]",100.0,"[0.13756566954363678,0.12912225164777463]",4.0,"[0.06908036516567803,-0.11709274119014838]",100.0,"[-0.03646756899357203,-0.06388424832901439]",4.0,"[-0.002991273114208403,0.03505995989023442]",4.0,"[0.14232975255402233,-0.02338096303768454]",4.0,"[-0.08506604013335413,-0.1503820337550052]",4.0,"[-0.08017136000802579,-0.0054241800511047565]",4.0,"[-0.12647144398731996,0.11600947987680875]",4.0,"[0.03578323414446368,-0.14972441672303616]",4.0,"[0.06203169253002835,-0.07689881809376896]",4.0,"[0.16234536775343783,-0.06672100455033679]",4.0,"[0.016729244455495857,-0.1950909785929171]",4.0,"[0.015975117402959142,-0.09555132334180828]",4.0,"[-0.11040492274974056,-0.07528803045701836]",4.0,"[0.08937853984290085,0.04360309666249488]",4.0,"[0.16222814057720975,0.08479738736051033]",4.0,"[0.08633374791486262,0.09630454392960644]",4.0,"[0.1158514249285577,-0.08873552745716726]",4.0,"[-0.00993932774995025,0.07919324107893512]",4.0,"[0.04863139670584126,0.06926240303934923]",4.0,"[-0.17464683272676695,0.07711947064360156]",4.0,"[-0.1018675884409396,0.039601995040411134]",4.0,"[0.08543952030561373,0.16466220311538385]",4.0,"[-0.12354710231871427,-0.030079779026585693]",4.0,"[-0.1848961490172824,-0.029034650590002264]",4.0,"[0.02100580257578606,0.19424776694574766]",4.0,"[-0.08036702314104217,0.09908028113512037]",4.0,"[-0.162964750509926,-0.06668182484080021]",4.0,"[0.02,0.02]",255.4885,0.0,45.0,45.0,190.0,1.0,,,,,,,
,,,,,,,67d985ecdc5a2f49e468bf75,6842bbfe9a181b1f33f34f93,2025-06-06_03h04.50.167,shape_ratio,2024.1.5,Win32,59.95203837,6842b561977af9ba9b0f87ca,,,,,,,,,,,255.4894,255.9908,,,256.232,256.3357,left,,,,,,,,0.1,0.0891,,,,,,,255.9908,256.2319,256.3358,"[-0.18332416389382014,0.05676969039080041]",4.0,"[-0.09522569519688927,0.15273568549052963]",4.0,"[-0.08283464760339225,0.10378648625451593]",4.0,"[-0.0349493166636467,0.048040751995567]",100.0,"[-0.0727597765897455,-0.09643446967662642]",4.0,"[-0.019615058979925434,-0.09684528362522073]",4.0,"[0.15088817846146316,-0.01334470318592953]",4.0,"[-0.022501459950645272,-0.05181634466307057]",4.0,"[0.06782663438038056,-0.05565579779949772]",4.0,"[-0.1433239853399148,0.021640694487773025]",4.0,"[-0.06959523996545099,-0.040062255398484965]",4.0,"[0.09636143615340119,-0.1351127956236746]",4.0,"[-0.01295670217167158,0.09072261377646114]",4.0,"[-0.07972572629254092,0.01435694040491875]",4.0,"[0.10219535886089187,0.008511572107051106]",4.0,"[0.10476477692379177,-0.03563835310838984]",4.0,"[-0.022132259860291627,0.1799757684559638]",100.0,"[0.026728461792585412,-0.05449484444564074]",4.0,"[0.122530502210589,0.07206957265222913]",4.0,"[0.1887128446136557,0.02680560830846057]",4.0,"[-0.05936402332381083,-0.15220884573697338]",4.0,"[0.07215383180872134,0.1422233659550135]",4.0,"[-0.12931503766216512,0.07457560482935058]",4.0,"[-0.014055331607197604,-0.16615296143648497]",4.0,"[-0.13669482506705108,-0.1423237943416765]",4.0,"[0.029288391122068755,-0.12881847874901212]",4.0,"[-0.13052541766956552,-0.05155744204405344]",4.0,"[0.12975170109395381,0.14159807780067044]",4.0,"[0.1804065128578021,0.07194215249696019]",4.0,"[0.009709198196451796,0.14397031168081015]",4.0,"[-0.1766410914690368,-0.0624804159856274]",100.0,"[0.16100220369866716,-0.09098061159731365]",4.0,"[0.02,0.02]",257.44,0.0,46.0,46.0,207.0,1.0,,,,,,,
,,,,,,,67d985ecdc5a2f49e468bf75,6842bbfe9a181b1f33f34f93,2025-06-06_03h04.50.167,shape_ratio,2024.1.5,Win32,59.95203837,6842b561977af9ba9b0f87ca,,,,,,,,,,,257.4412,257.9424,,,258.1912,258.4068,left,,,,,,,,0.4,0.2005,,,,,,,257.9425,258.1911,258.407,"[0.019715915928625875,0.012240845324582134]",100.0,"[-0.1355128368413271,0.018118377694656865]",4.0,"[0.1308584616175398,-0.03376510621345122]",4.0,"[0.0113346330860398,0.05151381341046696]",4.0,"[-0.032396468454026335,-0.018679108574944828]",4.0,"[0.0983773683189839,-0.08209935619982454]",100.0,"[-0.04110652827436996,-0.0963565177251339]",4.0,"[0.08895854889067895,-0.1542995020701595]",100.0,"[-0.06207982863722308,0.03402313195633089]",100.0,"[-0.028413956827261336,0.19100349823141985]",100.0,"[0.11452157722718068,0.012944878486567602]",100.0,"[-0.011195223502549116,0.10591717047442602]",100.0,"[-0.0013529661004876492,-0.168816995985723]",4.0,"[-0.0215877789283401,0.14896808058588237]",4.0,"[0.020393051051198853,0.14980044160803344]",4.0,"[-0.1744147978264756,0.02816175332650935]",100.0,"[-0.10383284234608971,-0.1249364914437856]",4.0,"[-0.10414024784991967,0.16564432798682668]",4.0,"[0.07232330339177476,-0.04684745464585624]",100.0,"[0.08099556968398468,0.1574194117140353]",4.0,"[-0.17839106129293125,-0.03431440242647057]",4.0,"[0.11992224567060035,0.10184407211108325]",4.0,"[-0.06711898799402634,0.13455395494955963]",100.0,"[-0.1782767846696124,-0.08940553033586052]",4.0,"[0.06585673993725345,-0.11473440223874337]",4.0,"[0.14439280771377705,-0.11741551202819135]",100.0,"[-0.18429822785883587,0.07132405876125684]",4.0,"[0.05059703105323783,0.11873367095778205]",4.0,"[-0.0987137213638359,0.0002935003579555081]",4.0,"[0.03825965305474337,-0.07893767108263577]",100.0,"[-0.009621310032795314,-0.05966301875579623]",4.0,"[-0.07328161376380674,0.0734861391816278]",100.0,"[0.02,0.02]",259.5096,0.0,47.0,47.0,178.0,1.0,,,,,,,
,,,,,,,67d985ecdc5a2f49e468bf75,6842bbfe9a181b1f33f34f93,2025-06-06_03h04.50.167,shape_ratio,2024.1.5,Win32,59.95203837,6842b561977af9ba9b0f87ca,,,,,,,,,,,259.5108,260.0085,,,260.2577,260.3386,right,,,,,,,,0.4,0.0669,,,,,,,260.0086,260.2577,260.3388,"[0.10749052130968138,0.16613471569085483]",100.0,"[0.034091202371992736,0.19377771029850013]",100.0,"[0.03145563302651945,0.012273382549998412]",4.0,"[-0.10636009574894098,-0.06308221523882196]",4.0,"[-0.04773792368056527,-0.054129048150599594]",4.0,"[-0.026463921547784014,0.13146221945774497]",100.0,"[0.024391291058921825,-0.14971478252360057]",100.0,"[-0.06064345898128577,-0.10165749020199567]",4.0,"[0.12346456247661394,-0.03974959212194984]",4.0,"[0.09049173895468805,-0.10518585775235678]",4.0,"[-0.005927740332359103,-0.009422602979854778]",4.0,"[0.05031600570255676,-0.09348908119306325]",100.0,"[-0.10747362411946544,0.1317452820513857]",4.0,"[-0.06208042389324859,0.16767211552163908]",4.0,"[-0.17154777949617686,0.09314484615322319]",4.0,"[-0.043015269049528404,-0.19512707721265157]",4.0,"[0.1800877488693229,-0.0741661388225592]",4.0,"[-0.10015844779565448,0.07018941720162665]",100.0,"[0.07517933198506273,0.013593810557468541]",4.0,"[-0.15343285005111618,-0.040479796635059836]",4.0,"[-0.05957856734344433,0.10896925777349388]",4.0,"[-0.13774499581504118,-0.12069955038842783]",4.0,"[0.017595575233880542,0.10854329216785427]",100.0,"[0.11764449064613232,-0.15995784057287726]",100.0,"[-0.19690635032094328,-0.033238279176491546]",100.0,"[-0.12152598484570475,-0.006323731426528476]",4.0,"[0.13678299780706715,-0.10824851515021876]",4.0,"[0.03381404272594756,0.14703348517334835]",100.0,"[-0.11215431889313614,-0.1514705809840064]",100.0,"[0.1664150172862382,0.0221329877566972]",100.0,"[0.058719521638803895,-0.18317562301088344]",100.0,"[0.16321922402241487,-0.0327633652739344]",4.0,"[0.02,0.02]",261.4414,0.0,48.0,48.0,170.0,1.0,,,,,,,
,,,,,,,67d985ecdc5a2f49e468bf75,6842bbfe9a181b1f33f34f93,2025-06-06_03h04.50.167,shape_ratio,2024.1.5,Win32,59.95203837,6842b561977af9ba9b0f87ca,,,,,,,,,,,261.4422,261.9488,,,262.2099,262.5242,left,,,,,,,,0.45,0.2976,,,,,,,261.9493,262.2096,262.5245,"[0.0026990004218939495,0.18679734035077095]",100.0,"[0.0472651166623214,-0.06301643088027183]",4.0,"[-0.09380620877988938,-0.15845109901614604]",4.0,"[-0.12859675433931775,-0.010786170607118655]",4.0,"[0.17799429974018077,-0.07142492859030546]",4.0,"[0.034921872616334074,-0.11388806666493427]",100.0,"[-0.14290001536904712,-0.11986613504925411]",100.0,"[-0.10682542628845448,-0.050119833172653866]",4.0,"[0.09956763611486183,0.015759157656337657]",4.0,"[-0.005191904790440243,0.14607781724183327]",4.0,"[0.023059026699380824,0.04499750753402553]",4.0,"[0.09902730438669038,-0.1191132468488185]",100.0,"[0.15412882995865104,0.06370366153446871]",100.0,"[0.06506758558525,0.13519452239448385]",4.0,"[-0.18432535392510016,-0.028228451845905316]",4.0,"[-0.06329013741157406,0.1356865671236646]",4.0,"[0.1772020598738196,0.0011845514703049242]",4.0,"[0.0031048683076700242,-0.16632820296399006]",4.0,"[0.127353267707163,0.09650331247222438]",100.0,"[-0.04065989337668497,-0.1732578431149836]",100.0,"[-0.14461598940161255,0.12802023049853722]",100.0,"[-0.02374727726416145,0.09995744233167823]",100.0,"[0.06108316261498761,0.1859846225000879]",4.0,"[0.1329695290450344,-0.0378273451533415]",100.0,"[-0.07653395276673784,0.08140979588872757]",100.0,"[-0.09220171537942631,0.012386944395542982]",100.0,"[0.08628239288691124,0.06944572583144545]",100.0,"[-0.14913424728081254,-0.067959085759957]",4.0,"[-0.05489553059987884,-0.054749123530639036]",4.0,"[0.05427587293386312,-0.19027951893535186]",100.0,"[-0.009225782970147261,-0.06620868031785639]",4.0,"[-0.021834526155744632,-0.10763296245248079]",4.0,"[0.02,0.02]",263.6174,0.0,49.0,49.0,120.0,1.0,,,,,,,
