right,left,explain.started,explain.stopped,key_resp_3.keys,key_resp_3.rt,key_resp_3.duration,participant,session,date,expName,psychopyVersion,OS,frameRate,study_id,explain_2.started,explain_2.stopped,key_resp_4.keys,key_resp_4.rt,key_resp_4.duration,explain_3.started,explain_3.stopped,key_resp_5.keys,key_resp_5.rt,key_resp_5.duration,fixation.started,fixation.stopped,practice.started,practice.stopped,response.started,response.stopped,key_resp.keys,feedback.started,feedback.stopped,trials_2.thisRepN,trials_2.thisTrialN,trials_2.thisN,trials_2.thisIndex,trials_2.ran,dot_ratio,key_resp.rt,key_resp.duration,explain_4.started,explain_4.stopped,key_resp_6.keys,key_resp_6.rt,key_resp_6.duration,dotDisplay.started,dotDisplay.stopped,ITI.started,polygon_1.pos,polygon_1.edges,polygon_2.pos,polygon_2.edges,polygon_3.pos,polygon_3.edges,polygon_4.pos,polygon_4.edges,polygon_5.pos,polygon_5.edges,polygon_6.pos,polygon_6.edges,polygon_7.pos,polygon_7.edges,polygon_8.pos,polygon_8.edges,polygon_9.pos,polygon_9.edges,polygon_10.pos,polygon_10.edges,polygon_11.pos,polygon_11.edges,polygon_12.pos,polygon_12.edges,polygon_13.pos,polygon_13.edges,polygon_14.pos,polygon_14.edges,polygon_15.pos,polygon_15.edges,polygon_16.pos,polygon_16.edges,polygon_17.pos,polygon_17.edges,polygon_18.pos,polygon_18.edges,polygon_19.pos,polygon_19.edges,polygon_20.pos,polygon_20.edges,polygon_21.pos,polygon_21.edges,polygon_22.pos,polygon_22.edges,polygon_23.pos,polygon_23.edges,polygon_24.pos,polygon_24.edges,polygon_25.pos,polygon_25.edges,polygon_26.pos,polygon_26.edges,polygon_27.pos,polygon_27.edges,polygon_28.pos,polygon_28.edges,polygon_29.pos,polygon_29.edges,polygon_30.pos,polygon_30.edges,polygon_31.pos,polygon_31.edges,polygon_32.pos,polygon_32.edges,dot_size,ITI.stopped,trials.thisRepN,trials.thisTrialN,trials.thisN,trials.thisIndex,trials.ran,break_2.started,break_2.stopped,trials_3.thisRepN,trials_3.thisTrialN,trials_3.thisN,trials_3.thisIndex,trials_3.ran
subject chose diamond,subject chose dot,0.001,67.5916,space,52.5364,,67df19d8dfaa291bdd177c93,684428cccfb52ca9ec7bf8dd,2025-06-07_00h56.35.609,shape_ratio,2024.1.5,Win32,29.85074627,684250e4f00cb30b92d1fa88,,,,,,,,,,,,,,,,,,,,,,,,,,,,,,,,,,,,,,,,,,,,,,,,,,,,,,,,,,,,,,,,,,,,,,,,,,,,,,,,,,,,,,,,,,,,,,,,,,,,,,,,,,,,,,,,,
,,,,,,,67df19d8dfaa291bdd177c93,684428cccfb52ca9ec7bf8dd,2025-06-07_00h56.35.609,shape_ratio,2024.1.5,Win32,29.85074627,684250e4f00cb30b92d1fa88,67.5928,98.3548,space,0.7162,,,,,,,,,,,,,,,,,,,,,,,,,,,,,,,,,,,,,,,,,,,,,,,,,,,,,,,,,,,,,,,,,,,,,,,,,,,,,,,,,,,,,,,,,,,,,,,,,,,,,,,,,,,,,
,,,,,,,67df19d8dfaa291bdd177c93,684428cccfb52ca9ec7bf8dd,2025-06-07_00h56.35.609,shape_ratio,2024.1.5,Win32,29.85074627,684250e4f00cb30b92d1fa88,,,,,,98.3565,102.1472,space,0.7541,,,,,,,,,,,,,,,,,,,,,,,,,,,,,,,,,,,,,,,,,,,,,,,,,,,,,,,,,,,,,,,,,,,,,,,,,,,,,,,,,,,,,,,,,,,,,,,,,,,,,,,,
,,,,,,,67df19d8dfaa291bdd177c93,684428cccfb52ca9ec7bf8dd,2025-06-07_00h56.35.609,shape_ratio,2024.1.5,Win32,29.85074627,684250e4f00cb30b92d1fa88,,,,,,,,,,,102.2229,102.6793,102.6803,102.9055,102.9061,104.4097,,104.4102,105.5078,0.0,0.0,0.0,1.0,1.0,0.8,,,,,,,,,,,,,,,,,,,,,,,,,,,,,,,,,,,,,,,,,,,,,,,,,,,,,,,,,,,,,,,,,,,,,,,,,,,,,,,,,,,,,,,,
,,,,,,,67df19d8dfaa291bdd177c93,684428cccfb52ca9ec7bf8dd,2025-06-07_00h56.35.609,shape_ratio,2024.1.5,Win32,29.85074627,684250e4f00cb30b92d1fa88,,,,,,,,,,,105.5109,106.0074,106.0076,106.2421,106.2422,106.8758,right,106.8761,107.9704,0.0,1.0,1.0,0.0,1.0,0.2,0.6046,,,,,,,,,,,,,,,,,,,,,,,,,,,,,,,,,,,,,,,,,,,,,,,,,,,,,,,,,,,,,,,,,,,,,,,,,,,,,,,,,,,,,,,
,,,,,,,67df19d8dfaa291bdd177c93,684428cccfb52ca9ec7bf8dd,2025-06-07_00h56.35.609,shape_ratio,2024.1.5,Win32,29.85074627,684250e4f00cb30b92d1fa88,,,,,,,,,,,,,,,,,,,,,,,,,,,,107.9728,112.0649,space,1.0487,,,,,,,,,,,,,,,,,,,,,,,,,,,,,,,,,,,,,,,,,,,,,,,,,,,,,,,,,,,,,,,,,,,,,,,,,,,,,,,,,,
,,,,,,,67df19d8dfaa291bdd177c93,684428cccfb52ca9ec7bf8dd,2025-06-07_00h56.35.609,shape_ratio,2024.1.5,Win32,29.85074627,684250e4f00cb30b92d1fa88,,,,,,,,,,,112.1267,112.5684,,,112.7988,113.1649,right,,,,,,,,0.4,0.3544,,,,,,,112.5704,112.7986,113.1671,"[0.05263113584853963,-0.03958098989971423]",4.0,"[-0.022559710843220285,0.008715354275706296]",4.0,"[0.07719730664318507,0.1651949185837338]",100.0,"[-0.12309067657826672,-0.12112751706573856]",4.0,"[0.17291750683021695,-0.06017527127844115]",4.0,"[0.16885651143142894,0.05996358017065906]",100.0,"[-0.10454548408101579,0.15059646045195044]",100.0,"[-0.01784108087616712,-0.14349647753568415]",4.0,"[0.09948113541414581,-0.04343704293523385]",4.0,"[-0.06261719779791936,0.03830094892603751]",4.0,"[-0.07231847058018546,0.10050813337538403]",4.0,"[0.01818420070930982,0.16582114412791754]",100.0,"[0.11254630254702498,-0.14884704410403607]",100.0,"[0.08985022956291322,0.03233108244825445]",4.0,"[-0.06752894998263127,-0.01708447101870663]",100.0,"[0.05543700826427693,0.06957657642493853]",100.0,"[0.023948446083675398,-0.180242281088475]",4.0,"[-0.1162971087352437,-0.021699109147041536]",4.0,"[0.1048787616668188,0.1359175846379103]",100.0,"[-0.18400498064542725,0.03314802987221046]",100.0,"[0.16111120077670776,-0.10730186455350833]",100.0,"[-0.10659225124045371,0.05733268351754592]",4.0,"[-0.13886695861454018,0.03059790580252721]",4.0,"[0.048712387596127144,0.011781515980705426]",4.0,"[-0.13607225535010245,-0.08143549538837079]",4.0,"[0.14961771807189095,0.020714534756392473]",4.0,"[-0.0891539748278804,-0.07927224527777232]",4.0,"[0.005235860678631623,-0.05357199643657269]",100.0,"[-0.03423152479954267,-0.19056480693971503]",100.0,"[-0.008427522133321706,0.10358301940743193]",100.0,"[-0.058389954532594684,-0.11834519663299725]",4.0,"[-0.033509735936350794,0.16988613337573608]",4.0,"[0.02,0.02]",114.2615,0.0,0.0,0.0,165.0,1.0,,,,,,,
,,,,,,,67df19d8dfaa291bdd177c93,684428cccfb52ca9ec7bf8dd,2025-06-07_00h56.35.609,shape_ratio,2024.1.5,Win32,29.85074627,684250e4f00cb30b92d1fa88,,,,,,,,,,,114.2633,114.7607,,,114.9961,115.4615,left,,,,,,,,0.45,0.451,,,,,,,114.7611,114.996,115.4616,"[0.1415854711001996,-0.10841892490713227]",4.0,"[0.01918815539945432,-0.04695169859484137]",4.0,"[-0.18830221693982377,0.032959479336486894]",100.0,"[-0.10893168582465984,0.00996686619241295]",4.0,"[0.047090263306414235,0.05153582353568435]",4.0,"[-0.1302077131594064,-0.12762491706999418]",100.0,"[-0.029293074667970986,0.16665804702838474]",4.0,"[0.17503274264406518,0.08236954578735727]",100.0,"[-0.08983048664631835,0.10017166472790785]",100.0,"[-0.1533333810871268,0.10848619081219145]",4.0,"[0.09377801501381453,0.027943922630964676]",100.0,"[0.019531977925764454,0.1426710643447189]",4.0,"[-0.0015706866785616229,-0.1326313790199841]",100.0,"[-0.015419762366497326,0.020096954430786608]",4.0,"[0.06432245329817521,-0.027271038075159525]",100.0,"[-0.05068833102110105,0.1293453647587439]",4.0,"[0.06477139112193989,0.1417485021007222]",4.0,"[0.08550543810383476,0.17741786161609166]",100.0,"[0.12694669680425988,-0.03931024480224412]",100.0,"[-0.11950058595432601,0.06416123806477261]",4.0,"[0.13521364826986657,0.13665536978966134]",100.0,"[0.04595312477886729,-0.1328011052455065]",4.0,"[-0.09315339992080308,0.14253731183360377]",4.0,"[-0.0181476442806514,-0.1899265293479462]",100.0,"[0.11473284838813044,-0.14922076527571645]",100.0,"[0.09520586306457851,-0.0854589756965068]",100.0,"[0.030362903098152535,0.00664826366928393]",4.0,"[-0.0033679154703223735,0.19760004292612707]",4.0,"[-0.06274543531584822,-0.1127775398306117]",4.0,"[0.185275404700772,0.0007980159105852801]",100.0,"[-0.09808661908293329,-0.07935677794926578]",4.0,"[-0.13877403286721388,-0.04385518420798257]",4.0,"[0.02,0.02]",116.563,0.0,1.0,1.0,145.0,1.0,,,,,,,
,,,,,,,67df19d8dfaa291bdd177c93,684428cccfb52ca9ec7bf8dd,2025-06-07_00h56.35.609,shape_ratio,2024.1.5,Win32,29.85074627,684250e4f00cb30b92d1fa88,,,,,,,,,,,116.5643,117.0561,,,117.2899,117.5578,right,,,,,,,,0.55,0.255,,,,,,,117.0563,117.2899,117.558,"[0.19384588647041523,0.006895629366254249]",100.0,"[0.02002181257500595,-0.19520086987735086]",4.0,"[0.12234588500705727,0.07278075560993463]",4.0,"[0.045332101999387704,-0.0012973469153637735]",100.0,"[-0.07038843794198306,-0.16404246629258615]",4.0,"[-0.003419142101076281,0.05344499955277314]",4.0,"[0.14478757150069926,0.13673922982854117]",100.0,"[-0.14981316651286788,0.047312347880988585]",100.0,"[0.039404885933309576,-0.10143315013794874]",100.0,"[-0.14049291475992062,-0.010202376269745815]",4.0,"[0.020365311211342923,-0.15252286740191925]",100.0,"[-0.12193574815261347,-0.14376654472971628]",4.0,"[0.07410270846506312,0.18038430095554728]",4.0,"[-0.03655297470580239,0.16768570349392561]",4.0,"[-0.19270426922152173,0.039420939386549614]",100.0,"[0.08201039142736344,-0.15701006265901388]",4.0,"[-0.021201765152301932,-0.09487248288551717]",100.0,"[0.09431038205879054,-0.030679552872139262]",100.0,"[0.11490293250218116,-0.11616246667397406]",4.0,"[-0.05197533967496118,-0.06319122303604016]",4.0,"[-0.026499388807345984,0.11653737748309144]",100.0,"[-0.06571310968112175,0.002118466531917595]",100.0,"[-0.08065573266197373,0.12134714884753381]",100.0,"[0.029008498827721076,0.15456905351150813]",100.0,"[-0.005811531626867917,0.011588458002910312]",100.0,"[0.047686127176632884,0.05939678437659637]",4.0,"[0.1813867900427261,-0.06978353946358672]",100.0,"[-0.08354008876540585,0.17409915371678295]",4.0,"[-0.12033190435936322,0.09763875135624472]",100.0,"[-0.09563462825973972,-0.08984014372530633]",4.0,"[-0.10430391999671143,-0.03891936134849473]",100.0,"[-0.1605188594870143,0.0881032617942648]",100.0,"[0.02,0.02]",118.654,0.0,2.0,2.0,75.0,1.0,,,,,,,
,,,,,,,67df19d8dfaa291bdd177c93,684428cccfb52ca9ec7bf8dd,2025-06-07_00h56.35.609,shape_ratio,2024.1.5,Win32,29.85074627,684250e4f00cb30b92d1fa88,,,,,,,,,,,118.6553,119.1526,,,119.3866,119.6524,right,,,,,,,,0.6,0.2503,,,,,,,119.1527,119.3865,119.6525,"[0.1626901256049298,0.05040603495080524]",100.0,"[-0.13484362552530257,-0.11889024266215197]",4.0,"[0.1605831869889342,-0.025599121149369148]",4.0,"[0.03663021001328813,-0.11541855417537307]",100.0,"[-0.04841102686459336,-0.16011321919036353]",100.0,"[0.1352710932419394,0.10549017022763336]",4.0,"[-0.03943394543521225,0.020408633890784827]",100.0,"[0.09731842135279041,-0.018000685071901747]",4.0,"[0.06815553900405144,-0.08419195662340358]",4.0,"[-0.012002876036356847,-0.0631940104235047]",100.0,"[0.03689038556507456,-0.19646610751373356]",100.0,"[-0.008271250928857126,-0.18650591905310368]",4.0,"[-0.15624928361730317,0.10889872846372232]",100.0,"[0.07584719656398921,0.08041207483419507]",4.0,"[-0.05872958257832159,0.11519023362982077]",100.0,"[-0.17682702264006545,0.004304562357026888]",4.0,"[-0.06889319792671539,-0.033483098891959905]",100.0,"[0.030713530431858607,0.09922778968607887]",100.0,"[0.10084009313244989,0.161004627524033]",4.0,"[0.012637797500594464,0.04555495636812736]",4.0,"[-0.08667292043256299,0.029267282748130497]",100.0,"[-0.14275101302579876,0.05606209909825079]",4.0,"[-0.10357181372615223,0.07418961123899438]",4.0,"[0.05845050083379875,0.011943936196831092]",100.0,"[0.1276499673773777,-0.08847934974677364]",4.0,"[-0.11044394724724232,0.16004862652471286]",100.0,"[0.10540029711021243,-0.14924486060662043]",100.0,"[0.0563429254571768,0.14877089633072682]",100.0,"[-0.13360728051953324,0.008773740753027703]",100.0,"[0.0019342093645269495,0.1487710196376178]",100.0,"[0.19740550265703297,0.006617726277637696]",100.0,"[0.044723407840678485,-0.04208445964739178]",100.0,"[0.02,0.02]",120.7519,0.0,3.0,3.0,42.0,1.0,,,,,,,
,,,,,,,67df19d8dfaa291bdd177c93,684428cccfb52ca9ec7bf8dd,2025-06-07_00h56.35.609,shape_ratio,2024.1.5,Win32,29.85074627,684250e4f00cb30b92d1fa88,,,,,,,,,,,120.7533,121.2493,,,121.4837,121.6491,right,,,,,,,,0.4,0.1488,,,,,,,121.2496,121.4833,121.6492,"[0.11195977518266316,-0.11587266069866115]",100.0,"[-0.0056075196243713515,0.18391865800260898]",4.0,"[-0.0927558776928325,-0.09460274129245037]",100.0,"[0.017170007185161654,-0.1984812437042269]",4.0,"[0.19125791560929728,0.04052661975680376]",4.0,"[0.03973430550137203,0.09882089206006296]",4.0,"[0.09295432860954225,0.12180442966630338]",100.0,"[0.1098929826536752,-0.1614646566940583]",100.0,"[-0.031665041708636966,-0.06698727247365627]",100.0,"[-0.1304830686583526,-0.05240804135302656]",4.0,"[0.15243594802277594,0.10668119915237957]",4.0,"[-0.030468891834523833,0.05999019691145858]",100.0,"[-0.10805005628985961,0.10388604810870188]",4.0,"[-0.1113364148363478,0.16415271971126674]",4.0,"[0.16366142530086708,-0.06773458046181392]",100.0,"[-0.14394361030303285,0.04070681554434184]",100.0,"[0.11865396887733058,0.004277957774262187]",4.0,"[0.0354622301701778,-0.15109674144918558]",4.0,"[0.0527613801264487,0.18145388648978586]",100.0,"[-0.1157170556665198,-0.1537741681724338]",100.0,"[0.04040780825739405,0.048139392423302084]",4.0,"[0.06203476790118725,-0.05428630433730762]",4.0,"[-0.007489296649643517,0.10667117552322268]",100.0,"[-0.14543754837338915,-0.0014431359659203028]",4.0,"[-0.050592413941671424,0.13066217945850597]",100.0,"[0.04634117503307913,-0.0001530121061836421]",4.0,"[-0.18290396151358762,-0.0347680544282986]",100.0,"[0.18738861328191825,-0.00446306659193597]",4.0,"[0.15418149009041998,-0.11605289602468842]",4.0,"[-0.1854238765378861,0.008885174772827126]",4.0,"[-0.026754616474964563,-0.1949516859674743]",4.0,"[0.14060573343652297,0.048188907517938466]",4.0,"[0.02,0.02]",122.7465,0.0,4.0,4.0,151.0,1.0,,,,,,,
,,,,,,,67df19d8dfaa291bdd177c93,684428cccfb52ca9ec7bf8dd,2025-06-07_00h56.35.609,shape_ratio,2024.1.5,Win32,29.85074627,684250e4f00cb30b92d1fa88,,,,,,,,,,,122.7474,123.2467,,,123.4806,123.712,right,,,,,,,,0.9,0.2053,,,,,,,123.2469,123.4802,123.7122,"[0.029972407285223466,-0.16911330584664375]",100.0,"[-0.11344811548876112,0.14480008943647651]",100.0,"[0.10108668425983838,-0.1410081648555952]",100.0,"[-0.15720048041928905,-0.08381078989811556]",100.0,"[0.11484572396250058,-0.06637748808009773]",100.0,"[0.1631194164891716,-0.013996203500528624]",100.0,"[-0.003780901956697019,0.09808109847560172]",100.0,"[0.13534488436324604,0.06421802766313586]",100.0,"[0.04884307237305805,-0.06893048210549128]",100.0,"[0.02579947005380054,0.0088791627880284]",100.0,"[-0.045448652174796315,0.11425213436935233]",100.0,"[-0.12390556156885837,0.011018765823236343]",100.0,"[0.02455869142153629,0.0655698858442749]",100.0,"[-0.1321015175071476,0.09706894244152045]",100.0,"[0.03279480121205305,-0.0306985858325717]",4.0,"[-0.007120262834961418,-0.014835194935196904]",4.0,"[0.18270239458118046,-0.06557075033406133]",100.0,"[-0.01855808625604213,-0.1356449344085337]",100.0,"[0.06923597783809761,-0.113509872264832]",100.0,"[0.012567811443705614,-0.09800236774507254]",100.0,"[0.0963064938789162,0.020830986223619466]",100.0,"[-0.13019873127168463,-0.03205343110627056]",4.0,"[-0.06916711351130381,0.03437844159816819]",100.0,"[-0.12087029378281385,-0.12182006913389727]",100.0,"[-0.012595553716335644,-0.06555674852117109]",100.0,"[0.05289869760398372,0.18650825502887428]",100.0,"[0.11167167206970426,0.12376465267614584]",100.0,"[-0.10430189000881064,-0.07050854014224027]",100.0,"[-0.17102859138384494,0.03459167559334128]",100.0,"[-0.031249893921491315,0.1647734599554767]",100.0,"[-0.038198718371852465,-0.18043331202469343]",100.0,"[0.1557745840310975,-0.10525886352469711]",100.0,"[0.02,0.02]",124.811,0.0,5.0,5.0,2.0,1.0,,,,,,,
,,,,,,,67df19d8dfaa291bdd177c93,684428cccfb52ca9ec7bf8dd,2025-06-07_00h56.35.609,shape_ratio,2024.1.5,Win32,29.85074627,684250e4f00cb30b92d1fa88,,,,,,,,,,,124.812,125.3101,,,125.5448,125.8759,left,,,,,,,,0.5,0.3179,,,,,,,125.3101,125.5445,125.8762,"[0.059101747878932645,0.09429276028511555]",100.0,"[0.004216999025130085,-0.15463620678357134]",4.0,"[-0.0021354714159789617,0.11384245020103205]",100.0,"[0.07129161580644923,-0.08598789525461813]",100.0,"[0.18119519860121777,-0.02884471525761551]",100.0,"[-0.05164883754566069,0.18259273274369786]",100.0,"[-0.049397436455610955,0.1359607706631728]",4.0,"[-0.14547845003603688,0.01690046893037784]",4.0,"[-0.10416683792338488,-0.16012942124997057]",100.0,"[-0.09652579169094053,-0.004449552171088466]",4.0,"[-0.19606338744984655,-0.007948238834233595]",100.0,"[0.18612534561315244,0.06290315034083287]",4.0,"[0.12468656942458764,-0.10866471904481248]",4.0,"[0.13434596209961683,-0.03792739311208049]",4.0,"[0.09996401970360246,0.04991016094950528]",100.0,"[0.09121546515346057,0.13768671049006045]",4.0,"[-0.0438107483279027,-0.11833375715233418]",4.0,"[0.004142919807986471,0.05706461708804283]",100.0,"[0.15414419444458097,0.013595476331382417]",4.0,"[-0.008956574505547968,0.17916735044752016]",100.0,"[-0.11620667114476588,-0.10201770073894055]",4.0,"[-0.08748330917286025,-0.04671487169419025]",100.0,"[-0.017755453361069533,-0.007658472752827273]",100.0,"[0.03537532861594242,-0.12286281536024386]",4.0,"[-0.07104626748997567,-0.08380925481558846]",4.0,"[-0.18002438320199587,-0.04575509133807663]",4.0,"[0.09278315399217901,-0.013687211944504537]",100.0,"[-0.17613763871259797,0.08595629137321237]",100.0,"[-0.13598799505301062,-0.028469038506553683]",4.0,"[0.14114879276871448,0.06806156539932116]",100.0,"[-0.1028355127356434,0.16684064079700212]",100.0,"[0.058023463385899664,0.04489195070650316]",4.0,"[0.02,0.02]",126.9744,0.0,6.0,6.0,115.0,1.0,,,,,,,
,,,,,,,67df19d8dfaa291bdd177c93,684428cccfb52ca9ec7bf8dd,2025-06-07_00h56.35.609,shape_ratio,2024.1.5,Win32,29.85074627,684250e4f00cb30b92d1fa88,,,,,,,,,,,126.9757,127.4736,,,127.7068,128.0068,left,,,,,,,,0.5,0.2712,,,,,,,127.4738,127.7067,128.0069,"[-0.0496215937220046,0.17774615892568565]",4.0,"[-0.09347967923784166,0.0550216914072193]",4.0,"[0.020549404249488923,0.14450882267042747]",4.0,"[-0.09340402064746171,-0.11116461949372508]",100.0,"[-0.15485644524217276,0.051171749136301646]",4.0,"[-0.00864797247050163,-0.17233395890780268]",4.0,"[0.11424386225783913,0.14838476567497486]",100.0,"[0.1392647650375519,-0.08542916440006294]",4.0,"[-0.08884470960468366,0.12744883843880056]",4.0,"[-0.010813099512903051,-0.09275138714807278]",4.0,"[0.07640928742826221,-0.1645236628125244]",100.0,"[-0.11616500730135776,0.00006338993785853561]",100.0,"[-0.14594895547036704,0.09330014295317578]",100.0,"[0.04166006588201737,-0.19380415849613383]",4.0,"[-0.1683974084826352,-0.029549326951198874]",4.0,"[0.02989205999294633,-0.0953183554757948]",100.0,"[-0.04335826306923668,0.04700650569541859]",100.0,"[0.07500103072241737,0.030029336935011492]",4.0,"[0.1172941569938949,0.07638073315576875]",100.0,"[0.18919268504377582,-0.061847848217301785]",100.0,"[0.16608348384226812,0.011204961671982212]",100.0,"[-0.00888717946099942,0.011464360891367011]",4.0,"[0.09322911079141186,-0.05896809635088465]",100.0,"[-0.02890286674464284,-0.04474731160562107]",100.0,"[0.026208786775796463,-0.03155280059828371]",100.0,"[-0.10971954851664162,-0.15927758697460268]",100.0,"[-0.06880749391070794,-0.16961305728058823]",100.0,"[0.16714679899971427,0.057808307955542176]",4.0,"[-0.04529005399146093,-0.006062735774648013]",4.0,"[-0.1819261640919918,0.013886916935420766]",100.0,"[-0.006465890262819031,0.18771497983766167]",4.0,"[0.06349708578473177,0.1685750729200167]",4.0,"[0.02,0.02]",129.1045,0.0,7.0,7.0,99.0,1.0,,,,,,,
,,,,,,,67df19d8dfaa291bdd177c93,684428cccfb52ca9ec7bf8dd,2025-06-07_00h56.35.609,shape_ratio,2024.1.5,Win32,29.85074627,684250e4f00cb30b92d1fa88,,,,,,,,,,,129.1057,129.6038,,,129.8369,130.1359,right,,,,,,,,0.9,0.2765,,,,,,,129.6039,129.8368,130.136,"[-0.02565829957519632,0.15677482417380106]",100.0,"[0.07737269633346977,0.057474858010569285]",4.0,"[-0.034157011987185674,-0.10685446767372833]",100.0,"[-0.02826623863533591,0.11175471253294535]",100.0,"[0.07402482826676372,0.15889334623936047]",4.0,"[0.1329921655902515,-0.019097409293136434]",100.0,"[-0.07194557619572892,-0.17311094105139438]",100.0,"[-0.08771526494555068,0.17405247655736622]",100.0,"[0.08537346782305442,-0.1393196514700372]",100.0,"[-0.04784911342170014,0.02249515268460508]",100.0,"[-0.14428262225016514,0.10519039585424302]",100.0,"[-0.07029820169462923,0.05721944830142921]",100.0,"[0.09043851313643869,-0.06606779992206398]",100.0,"[0.1751699491186527,0.04213859259112086]",100.0,"[0.15686164029138833,-0.08021824371489683]",4.0,"[-0.19318624204251342,0.050634484240098414]",100.0,"[0.11599748086579932,0.02571037473338778]",100.0,"[-0.11146777833539091,-0.13589514537317499]",100.0,"[0.033440912774264614,-0.15952229010565877]",100.0,"[0.026790933044062788,0.1679335860113372]",100.0,"[0.014125437931659225,-0.02159577655618184]",100.0,"[-0.11198469323090868,0.07426665420203064]",100.0,"[0.04777741738861198,0.09335108344014528]",100.0,"[-0.18447364275073397,-0.027625031514190677]",100.0,"[-0.09184684016644534,0.11512627084948812]",100.0,"[-0.1240713421652287,0.013724340695790918]",100.0,"[0.018234037154683875,0.12387540571769005]",100.0,"[0.10611735577122004,0.10765927978204463]",100.0,"[-0.030273075463371525,-0.06359179353791718]",100.0,"[0.05118582295501763,0.024348047822157624]",100.0,"[0.049455372024012255,-0.0869321962063022]",100.0,"[0.14812446994790712,-0.1289472900504132]",100.0,"[0.02,0.02]",131.2333,0.0,8.0,8.0,7.0,1.0,,,,,,,
,,,,,,,67df19d8dfaa291bdd177c93,684428cccfb52ca9ec7bf8dd,2025-06-07_00h56.35.609,shape_ratio,2024.1.5,Win32,29.85074627,684250e4f00cb30b92d1fa88,,,,,,,,,,,131.2342,131.7337,,,131.967,132.3332,left,,,,,,,,0.45,0.3486,,,,,,,131.7341,131.9669,132.3333,"[-0.04993247190646612,0.07456855180875982]",100.0,"[0.028059955952512445,-0.10142525612812783]",4.0,"[0.11270082279669795,0.13181821047182168]",4.0,"[0.015790656864824216,-0.19359758186406772]",100.0,"[-0.07212401667045439,-0.13465541099152054]",100.0,"[0.07580817991868612,-0.05501037790134971]",100.0,"[-0.12429428111697406,-0.029570681731609694]",4.0,"[-0.16606617034524324,0.08609228262963808]",100.0,"[0.07288788581419475,0.184019737142901]",4.0,"[-0.08482525418232817,0.02299813325060448]",100.0,"[-0.042427098962532904,-0.06607939982773646]",4.0,"[-0.05602352003898437,-0.17686340627230268]",100.0,"[-0.0603762555955767,-0.017661226679708122]",4.0,"[0.1363250088425799,0.04852151102377337]",100.0,"[-0.01734208755654599,0.17687230340403717]",4.0,"[0.19509818927328365,0.004977681752730117]",100.0,"[0.16494024094182855,-0.04999761182527714]",4.0,"[-0.1848636968943388,-0.06376435349077815]",4.0,"[0.12323757221949633,-0.049896017574779725]",4.0,"[0.05379559406217214,-0.16735642531963385]",4.0,"[0.1240663601206502,-0.147487843440359]",4.0,"[-0.1370591287169269,-0.1188324674835896]",4.0,"[0.0350464460663988,-0.021306511067258616]",4.0,"[0.07785593775591289,-0.11381376974312846]",4.0,"[-0.13986371479491963,-0.07428566229249138]",4.0,"[0.19015321300841725,0.058312478290409614]",100.0,"[0.10389051443683636,0.08861184802449104]",4.0,"[-0.07393965079527873,0.16974193868170065]",100.0,"[-0.00386078779049468,-0.14301401756343324]",100.0,"[-0.16608262746917452,-0.0061392007960724025]",100.0,"[-0.10316074678912227,0.07253663626017318]",100.0,"[0.08946131354611693,0.007215087115170709]",4.0,"[0.02,0.02]",133.4309,0.0,9.0,9.0,142.0,1.0,,,,,,,
,,,,,,,67df19d8dfaa291bdd177c93,684428cccfb52ca9ec7bf8dd,2025-06-07_00h56.35.609,shape_ratio,2024.1.5,Win32,29.85074627,684250e4f00cb30b92d1fa88,,,,,,,,,,,133.432,133.9306,,,134.1656,134.5951,right,,,,,,,,0.5,0.4061,,,,,,,133.9306,134.1656,134.5952,"[-0.1327674722434299,-0.09420348680246289]",100.0,"[-0.02937660331149424,-0.1369579416428422]",100.0,"[0.07442365992517615,-0.13004574670174776]",4.0,"[0.1809588952634614,-0.05727475612239231]",4.0,"[-0.10658751306583246,0.06196927644948539]",4.0,"[-0.08541285783966153,0.15955152647286716]",4.0,"[-0.013954691631672277,-0.06313872905700041]",4.0,"[0.15210970594565718,0.10679033037686986]",100.0,"[-0.03763788258251064,0.15915580696293544]",4.0,"[0.04711432154155505,0.17395958087719607]",100.0,"[-0.17838498356943525,-0.061515891151122395]",4.0,"[-0.19387355427440403,-0.0002472979135600124]",4.0,"[0.02139171487630194,0.03204112239015549]",100.0,"[-0.15908755264803645,0.024652846225850785]",100.0,"[0.07244418216876294,-0.08598522521480848]",4.0,"[-0.08457642839451815,0.012629352456594628]",4.0,"[0.06949872218503368,0.011558543664435515]",100.0,"[0.10405541059358858,0.06590273700550268]",100.0,"[-0.008836497720348958,0.07879104606564075]",4.0,"[0.1308655224677654,0.15030437250371873]",4.0,"[0.006082934514586458,-0.17204377487319575]",100.0,"[-0.16052126235492037,0.0969892119190166]",100.0,"[-0.11966630008519456,-0.1566357371314708]",100.0,"[-0.05215206735206409,-0.18134160428092083]",4.0,"[-0.05952472032336542,-0.08908869923255568]",4.0,"[-0.06746940095668995,-0.0359753404725329]",100.0,"[0.005029373332887646,-0.010517684813781706]",4.0,"[0.19583117713367018,-0.0009397168941721036]",100.0,"[0.12451027244711536,0.0056863455527561895]",100.0,"[0.10157492383380848,-0.045576290067147966]",100.0,"[0.055858080713699146,0.11951668914631274]",100.0,"[0.008312955876059151,-0.11571067691951932]",4.0,"[0.02,0.02]",135.6942,0.0,10.0,10.0,95.0,1.0,,,,,,,
,,,,,,,67df19d8dfaa291bdd177c93,684428cccfb52ca9ec7bf8dd,2025-06-07_00h56.35.609,shape_ratio,2024.1.5,Win32,29.85074627,684250e4f00cb30b92d1fa88,,,,,,,,,,,135.6953,136.1924,,,136.4271,136.6329,left,,,,,,,,0.4,0.1723,,,,,,,136.1925,136.4271,136.6332,"[-0.03865223282426296,0.13903691364946807]",100.0,"[-0.0981206502642247,0.055602288829498345]",4.0,"[0.04475115761076676,-0.027817605415091273]",100.0,"[-0.04623678414021618,-0.1540206883035262]",4.0,"[0.018240637562930585,0.1762814501133542]",4.0,"[0.11371818170660643,-0.07938706264367078]",4.0,"[0.04214961192857112,-0.07676634744744536]",100.0,"[0.18141248938507318,0.06670979048227979]",100.0,"[0.14590619198458937,0.0031965543099806066]",4.0,"[0.0577763039698453,0.13265661907495235]",4.0,"[-0.07834078541194724,-0.058821780066962155]",100.0,"[0.10166985880134502,-0.015035917419832822]",100.0,"[-0.015064745749339041,0.07722092711367194]",100.0,"[0.11016931589843701,0.1418928579307418]",4.0,"[-0.015417766434168098,-0.10043073847521389]",4.0,"[-0.18253033328462479,-0.05135879275218823]",4.0,"[-0.017814231507117417,-0.04481421441197644]",100.0,"[-0.017313455701355333,-0.18459590089964456]",4.0,"[0.09831428289474221,-0.1242473433449172]",100.0,"[-0.06624445284110364,-0.10653200089321312]",100.0,"[-0.15965328692328473,-0.1045949346657675]",4.0,"[-0.1590086068099621,0.05014286961350945]",4.0,"[0.11748318879037081,0.052362420404079436]",4.0,"[-0.15656848360906986,0.10176019503077718]",4.0,"[0.05321847452806912,-0.1174453408670889]",4.0,"[-0.049434842814679844,0.008276335565926952]",4.0,"[0.05849118967141826,-0.1707977865096318]",4.0,"[-0.15768096861756753,-0.006816912928381349]",4.0,"[-0.09083890475240386,0.13516075810280911]",100.0,"[0.06014319629694293,0.07504894263869934]",100.0,"[-0.10968366440531434,-0.1654831547907283]",4.0,"[0.14246885748633353,-0.136937173590979]",100.0,"[0.02,0.02]",137.724,0.0,11.0,11.0,169.0,1.0,,,,,,,
,,,,,,,67df19d8dfaa291bdd177c93,684428cccfb52ca9ec7bf8dd,2025-06-07_00h56.35.609,shape_ratio,2024.1.5,Win32,29.85074627,684250e4f00cb30b92d1fa88,,,,,,,,,,,137.7253,138.2234,,,138.4571,138.5891,right,,,,,,,,0.55,0.1097,,,,,,,138.2234,138.457,138.5892,"[0.07604864292980837,0.13677217998215924]",100.0,"[-0.004297798140286032,0.12599584922633908]",100.0,"[-0.11475542517703086,0.005186052086867402]",100.0,"[-0.19158708296095983,-0.002743371962481146]",100.0,"[0.11700513029504808,-0.04533895407546135]",4.0,"[0.006251028017325074,0.03435216546904479]",100.0,"[-0.07901107999677186,0.16969579693796474]",100.0,"[-0.009336039170786483,-0.025660523699099942]",4.0,"[-0.03304602992965913,0.04192725529978695]",100.0,"[0.07884567083525895,0.07460930827933665]",4.0,"[0.10334298944231478,-0.15499241872498304]",4.0,"[0.13000062339999877,-0.11338037498036126]",4.0,"[-0.043491173305745624,0.1427627860104783]",100.0,"[0.12679624011952997,0.01808034456754146]",100.0,"[-0.052898245180483604,-0.04527822519535362]",4.0,"[0.029151365889143008,-0.08241360955015382]",4.0,"[0.173790409055814,0.022486796364833417]",4.0,"[-0.06318225804492898,0.0893002145795883]",100.0,"[-0.1530954174310273,0.08063939115007121]",4.0,"[-0.012311716932665308,-0.1570773234598303]",4.0,"[-0.13365556274876894,0.14376985119112085]",100.0,"[0.17091851880100722,-0.05253095523886155]",100.0,"[0.004364461503924701,0.1995466807542843]",4.0,"[-0.0544898542677517,-0.12729478324092738]",4.0,"[-0.16690260353623745,-0.08545339763667473]",100.0,"[0.0019264507860356148,-0.11960542390996114]",4.0,"[-0.11791958936867868,-0.09113419380841896]",100.0,"[0.15829007990277713,0.11928734979072787]",100.0,"[0.17023691199518287,0.06545070285032109]",4.0,"[0.0698408242975432,-0.08905107524670867]",100.0,"[0.01923150655479414,0.07440962290140139]",100.0,"[0.03893575688865305,-0.18966345041690116]",100.0,"[0.02,0.02]",139.6868,0.0,12.0,12.0,85.0,1.0,,,,,,,
,,,,,,,67df19d8dfaa291bdd177c93,684428cccfb52ca9ec7bf8dd,2025-06-07_00h56.35.609,shape_ratio,2024.1.5,Win32,29.85074627,684250e4f00cb30b92d1fa88,,,,,,,,,,,139.6876,140.1869,,,140.4201,140.5525,right,,,,,,,,0.1,0.1175,,,,,,,140.1871,140.4201,140.5526,"[0.14118398270980376,-0.08894375168140471]",4.0,"[-0.09279576926583634,0.16289768934496443]",4.0,"[-0.16645685009484598,-0.001159203659965037]",4.0,"[0.10407313404710045,0.03074850828029838]",100.0,"[0.018779042792715278,0.12720144700620853]",4.0,"[0.14769382295606467,0.08322176714247195]",4.0,"[0.13665484241972983,-0.04802597982456934]",4.0,"[-0.05553878450191819,-0.19027631532539357]",4.0,"[-0.10432545130032388,-0.16870819501765566]",4.0,"[-0.17664835487363753,-0.06928293251575944]",4.0,"[-0.0729176221805551,-0.11704234215942477]",4.0,"[-0.0567930690798631,0.09267280083100404]",4.0,"[0.1534724677918417,0.0016701902197983278]",4.0,"[-0.04839463655506108,-0.02579474079255433]",4.0,"[-0.010141805240596179,0.1797286780868566]",4.0,"[0.09240023918651113,-0.10397001100639912]",4.0,"[-0.18622142220436666,0.05571263594860176]",100.0,"[-0.08952782436106735,-0.011463112810264102]",4.0,"[-0.04153242390126563,0.05460417052070114]",4.0,"[0.10032783325642061,0.10389879001824677]",4.0,"[0.03827465186275132,-0.14078258886602696]",4.0,"[0.02183061612152503,-0.05145997423025495]",4.0,"[0.19544789781122182,-0.041172804015919516]",4.0,"[0.007316413736545112,0.049914350727455856]",4.0,"[0.1950301140235145,0.035748400908237575]",4.0,"[-0.0029483982258359446,0.09213622734815566]",100.0,"[0.002080481307854854,-0.178959214836698]",4.0,"[-0.1064914049267654,0.02751502449633926]",4.0,"[-0.06438926363171776,-0.07311043904541412]",4.0,"[0.06067811466257043,0.11541670475886225]",4.0,"[-0.135417417338516,-0.056277565331261326]",4.0,"[-0.1544981737040608,-0.12010618749321156]",4.0,"[0.02,0.02]",141.6514,0.0,13.0,13.0,183.0,1.0,,,,,,,
,,,,,,,67df19d8dfaa291bdd177c93,684428cccfb52ca9ec7bf8dd,2025-06-07_00h56.35.609,shape_ratio,2024.1.5,Win32,29.85074627,684250e4f00cb30b92d1fa88,,,,,,,,,,,141.6526,142.1494,,,142.3837,142.4828,left,,,,,,,,0.45,0.077,,,,,,,142.1495,142.3837,142.4828,"[-0.022712325188592942,-0.10219842395754716]",100.0,"[0.12881472276241354,0.061723359001360924]",4.0,"[-0.11775202595210109,0.11961084307611991]",100.0,"[0.13477619374024996,-0.0010657608397799155]",100.0,"[-0.0965184883143792,-0.10158935670579779]",4.0,"[-0.0145523458079902,-0.0550383545024714]",4.0,"[-0.00548664766205629,-0.17491701443866225]",100.0,"[0.07643257736967804,0.04723190844212667]",100.0,"[-0.1139552461853411,0.01684424414258572]",100.0,"[0.025695135342400754,-0.006979452636552208]",100.0,"[0.15685649386522804,-0.10626125849764666]",4.0,"[-0.08890809961519407,-0.15221830203300718]",4.0,"[-0.18333421565408367,-0.07249843213722605]",100.0,"[0.08665313586172478,0.11554636145606222]",4.0,"[0.031244579453197183,-0.15632653541612998]",100.0,"[-0.043311472748516204,0.12136980025884336]",4.0,"[-0.007113165464347429,0.1882919276939766]",4.0,"[0.0948638402976635,-0.08281923207135737]",4.0,"[-0.07927624826612142,0.14983941279510324]",4.0,"[0.03215842813882829,-0.07420014365955276]",4.0,"[0.1247790455719311,-0.05173453055537459]",4.0,"[-0.05030966957323529,-0.13227755810439237]",100.0,"[-0.17026367368096254,0.06462425003404165]",100.0,"[-0.08285511134366522,0.0431904196019256]",4.0,"[-0.13130727055294925,-0.12823251769399827]",4.0,"[0.1856244444524127,-0.0209836631996701]",4.0,"[-0.040654574704746066,0.012925546861161524]",4.0,"[0.05690980868178235,0.17755608644944532]",100.0,"[0.004171803321914979,0.11106549848297595]",100.0,"[0.08260207931434324,-0.1575074962566745]",100.0,"[-0.19421867029858134,-0.024261397968753387]",4.0,"[0.15770221310034513,0.10691992734376196]",4.0,"[0.02,0.02]",143.5816,0.0,14.0,14.0,122.0,1.0,,,,,,,
,,,,,,,67df19d8dfaa291bdd177c93,684428cccfb52ca9ec7bf8dd,2025-06-07_00h56.35.609,shape_ratio,2024.1.5,Win32,29.85074627,684250e4f00cb30b92d1fa88,,,,,,,,,,,143.5828,144.081,,,144.3141,144.5131,left,,,,,,,,0.6,0.1831,,,,,,,144.0811,144.314,144.5132,"[0.00895728426275019,-0.11153346841696196]",4.0,"[-0.02815610160690765,-0.13223963099393085]",100.0,"[-0.02974296737669577,-0.18854011500516535]",100.0,"[0.14233949575794774,0.11170195281452848]",100.0,"[0.027874523007848557,-0.01729968662185752]",100.0,"[-0.11839312075253983,0.07504071318204052]",4.0,"[0.0011212833203674071,0.0746228125307415]",4.0,"[-0.06377591571589977,0.1524758560974864]",100.0,"[0.07988552894171737,0.08129944873263018]",100.0,"[0.16635246129966375,-0.01585505087074512]",4.0,"[-0.14146080599404545,0.01877115395553272]",4.0,"[-0.03420066607412915,0.01857670354488209]",100.0,"[0.013538087939330767,-0.18250648304138534]",4.0,"[-0.16458303115230496,-0.07054555540941838]",100.0,"[0.07212870023345432,0.182875146233411]",100.0,"[0.030931005809888196,0.029912846882427954]",100.0,"[0.09343957656354761,-0.1748310373552644]",100.0,"[-0.010268443684443225,0.12466536040839397]",4.0,"[-0.1089599925150033,-0.03171082373098305]",100.0,"[-0.07707113170118766,-0.09492796549932316]",4.0,"[0.08524909106572084,0.008425932302605348]",100.0,"[0.13660121085976037,-0.09757457245989716]",4.0,"[0.06652038822177864,-0.05966490275216913]",100.0,"[0.12806274057040348,0.023618050482559716]",100.0,"[0.07996450844164922,0.132340595240776]",4.0,"[-0.05487411434853748,-0.05556407667797524]",100.0,"[-0.08351936540723992,0.005058860689818712]",100.0,"[-0.1422154442300192,-0.12372668587126394]",100.0,"[-0.18123907604905473,0.02501162868569087]",4.0,"[-0.016853803985842637,-0.022877366071163734]",4.0,"[0.057810228773298666,-0.11786275735978408]",100.0,"[0.1851111892924426,0.05172990892021477]",4.0,"[0.02,0.02]",145.6105,0.0,15.0,15.0,34.0,1.0,,,,,,,
,,,,,,,67df19d8dfaa291bdd177c93,684428cccfb52ca9ec7bf8dd,2025-06-07_00h56.35.609,shape_ratio,2024.1.5,Win32,29.85074627,684250e4f00cb30b92d1fa88,,,,,,,,,,,145.6113,146.11,,,146.345,147.5744,left,,,,,,,,0.1,1.208,,,,,,,146.1101,146.3449,147.5746,"[0.08374294934582868,0.169547688691049]",4.0,"[0.1062892988347245,0.08562994528519087]",4.0,"[0.053865473110726765,0.07586885002709273]",4.0,"[-0.13094534408048406,0.006963930007793882]",4.0,"[0.0133366282093338,-0.10953697716844457]",4.0,"[0.04039985444650447,-0.06806382590691037]",4.0,"[0.17998676302218708,0.0455627357175044]",4.0,"[0.007995311976031353,0.11719928958745658]",4.0,"[-0.02498283032133412,0.03671799609371876]",4.0,"[-0.13502679776348275,-0.10104461662495458]",4.0,"[0.10018747226721857,-0.12471146728041183]",100.0,"[-0.03770427106306931,0.12943410635214547]",4.0,"[0.1594472021593538,-0.010139343408973833]",4.0,"[-0.1806090441782973,-0.005647415666479768]",4.0,"[0.11481676279044249,-0.011483876830141243]",4.0,"[-0.09435124803815284,-0.10759909326069228]",4.0,"[-0.010743225286432463,-0.03292569012230274]",4.0,"[0.06194337910509061,0.11924592484222697]",4.0,"[-0.07582397801113885,0.05103052345193153]",4.0,"[-0.07103245240385497,-0.018785070058550863]",4.0,"[0.009171719450841128,0.009463904263041577]",4.0,"[0.06753901878936695,-0.019078537659983488]",4.0,"[0.02946079586744915,-0.19703850618278643]",4.0,"[-0.13287832019333048,-0.03905906961689033]",4.0,"[-0.06009424938299251,-0.17414347767261454]",4.0,"[0.016134351217507656,0.19834857576749138]",100.0,"[-0.11112869680627088,0.12533187980203706]",4.0,"[-0.1349017724845308,0.058346352526395286]",100.0,"[0.15122176950249386,0.10864290179969976]",4.0,"[0.09577780847906477,0.036966147774568255]",4.0,"[-0.021373587076976792,-0.08634225269473962]",4.0,"[0.11268272479531603,-0.08015635902625876]",4.0,"[0.02,0.02]",148.6726,0.0,16.0,16.0,205.0,1.0,,,,,,,
,,,,,,,67df19d8dfaa291bdd177c93,684428cccfb52ca9ec7bf8dd,2025-06-07_00h56.35.609,shape_ratio,2024.1.5,Win32,29.85074627,684250e4f00cb30b92d1fa88,,,,,,,,,,,148.6735,149.1716,,,149.4061,149.9044,right,,,,,,,,0.55,0.4692,,,,,,,149.1716,149.4059,149.9045,"[-0.0716943475725047,-0.06624630084924403]",100.0,"[-0.14772643504495941,-0.13379532914576248]",100.0,"[-0.08262067896028306,-0.14555328806079756]",4.0,"[0.1502089392575241,0.0996669023046911]",100.0,"[-0.1829203977258688,-0.04606190267433404]",100.0,"[0.11795802951419253,-0.079353390011009]",4.0,"[0.14142594188179225,0.012160240750808725]",4.0,"[0.06876785234553207,-0.007371190339437475]",100.0,"[-0.04434536917845021,-0.12922562610366783]",100.0,"[-0.1294924240404337,0.13069913279919154]",100.0,"[0.036828429109900376,0.09611573209581617]",100.0,"[0.11299950887557804,0.1428643607623287]",4.0,"[0.04403947345078508,-0.18414276044333935]",4.0,"[-0.03168549460269664,-0.026570603004830943]",4.0,"[-0.043437431749564916,0.07750116004871861]",4.0,"[0.11297983737151356,0.04762353307952707]",4.0,"[0.14919990691609392,-0.11792868322393893]",4.0,"[0.0673415470453288,-0.05420001388896375]",4.0,"[-0.07860958572682761,0.1401708609730947]",100.0,"[-0.013106015508306753,0.13085125500307274]",4.0,"[0.036222902709933204,-0.1161507940041086]",100.0,"[0.18592090423010962,-0.02431735439033699]",100.0,"[0.005900425917962627,-0.07871772211974956]",100.0,"[-0.14235569739740392,-0.0077759623149702]",4.0,"[0.010151881170317512,0.1640592957579253]",100.0,"[-0.1123606819737448,0.030796851629084344]",100.0,"[-0.05423514332452286,0.03161086907678181]",100.0,"[-0.14148218154524816,0.07163402756378942]",100.0,"[-0.08544944330905647,0.0755035526572967]",4.0,"[0.016272391662561426,-0.03965132973356702]",4.0,"[-0.07334950328670019,-0.01920140447710683]",100.0,"[0.15729146156781643,-0.055610456438870935]",100.0,"[0.02,0.02]",151.0027,0.0,17.0,17.0,78.0,1.0,,,,,,,
,,,,,,,67df19d8dfaa291bdd177c93,684428cccfb52ca9ec7bf8dd,2025-06-07_00h56.35.609,shape_ratio,2024.1.5,Win32,29.85074627,684250e4f00cb30b92d1fa88,,,,,,,,,,,151.0037,151.5016,,,151.7355,152.6667,right,,,,,,,,0.4,0.9024,,,,,,,151.5017,151.7354,152.6668,"[0.02176738409923809,0.00589563821746582]",4.0,"[0.0921779084598206,0.13496666970041396]",100.0,"[0.061357867460450265,-0.04555527514385254]",100.0,"[0.18956156403877567,0.03630750443086102]",100.0,"[-0.10895819138331155,-0.0884835506251526]",4.0,"[0.13978209948666923,0.1036368973227594]",100.0,"[-0.029928531854695732,0.011330102418402602]",4.0,"[-0.1209816825224865,0.02308201761174978]",100.0,"[-0.07965260761986105,-0.14250997788942754]",4.0,"[-0.04935548019920892,0.15352983635038905]",100.0,"[-0.011100501859002992,0.16943408590527306]",4.0,"[0.08764944347873556,0.009764716368378109]",100.0,"[0.017290733228999072,-0.16922719537278486]",100.0,"[0.1348038444118408,-0.08051055199982494]",4.0,"[0.0383591777872963,0.05011261959827153]",4.0,"[-0.11934074555701772,0.06772001880002951]",4.0,"[-0.06316733861996075,-0.09555411870940315]",4.0,"[-0.03328705097028811,0.05534128745229919]",4.0,"[-0.09402938198403642,0.16440161464332476]",4.0,"[-0.15251773254602455,0.1095088479850025]",100.0,"[0.0250139513214457,-0.07077320672749103]",4.0,"[-0.1879619797624818,-0.059782017928334125]",4.0,"[0.026391708191511036,0.10678539953606242]",100.0,"[-0.09197036857979557,0.09784546611574345]",4.0,"[-0.02784798341828684,0.11922251763287767]",4.0,"[-0.1632495449164432,-0.010619825323258326]",4.0,"[-0.15625844971759442,-0.11349528062931998]",4.0,"[0.06465034256571113,-0.1124743794004829]",4.0,"[-0.1811707423150156,0.03113936045306318]",4.0,"[0.12898430483296594,-0.14248925741525542]",100.0,"[0.08663704313323922,0.05977203355084926]",100.0,"[-0.11164510199800066,-0.035713153368376806]",100.0,"[0.02,0.02]",153.7647,0.0,18.0,18.0,152.0,1.0,,,,,,,
,,,,,,,67df19d8dfaa291bdd177c93,684428cccfb52ca9ec7bf8dd,2025-06-07_00h56.35.609,shape_ratio,2024.1.5,Win32,29.85074627,684250e4f00cb30b92d1fa88,,,,,,,,,,,153.7656,154.2636,,,154.4981,154.9299,right,,,,,,,,0.5,0.4095,,,,,,,154.2638,154.498,154.93,"[0.024351266308108892,-0.07292938511134532]",4.0,"[-0.10225653763372873,0.11538515796062908]",100.0,"[-0.04926809841782188,-0.15818351963360844]",4.0,"[0.1385251123406065,0.10536404613305193]",100.0,"[-0.024852054863320993,0.1680263135180131]",4.0,"[0.08871064049897306,0.03805661106210224]",100.0,"[-0.011138988140389801,-0.17459801505235262]",100.0,"[0.13256887431526987,0.14950789747284887]",4.0,"[0.1434764670716776,0.046474770522896953]",100.0,"[0.1203366718454402,-0.08076588724127806]",4.0,"[0.007830601215884902,0.02136084389030909]",4.0,"[-0.08243248582122031,0.028904531579958117]",4.0,"[-0.17034570492157208,0.08992737769344383]",4.0,"[0.09712569440218165,-0.0209013817747031]",100.0,"[-0.08605402872691575,0.15999355456728537]",100.0,"[-0.08937299811933254,-0.023599358254935896]",4.0,"[0.12452187247816132,-0.14050531018955859]",4.0,"[-0.17832493045197934,-0.06500633716941831]",100.0,"[0.09353041518468302,-0.16847107338080974]",4.0,"[-0.052837823401901615,0.056998706733037315]",4.0,"[0.010214127942645571,0.0912598837800137]",100.0,"[-0.03356575746636331,0.10131026049257866]",4.0,"[-0.06565911103049281,-0.08586741878948571]",100.0,"[-0.1752598145648423,0.011252489292621176]",4.0,"[-0.1280644192590118,-0.08125583860177163]",100.0,"[0.14838593215654247,-0.023608704736811696]",4.0,"[0.038649810728525955,-0.1718019441657432]",100.0,"[-0.00618444823619901,-0.02711130333979824]",100.0,"[0.056302263519103266,0.09174311927912576]",100.0,"[0.10624198257058703,0.07913116152081545]",4.0,"[0.036491004193525994,0.17652864746667093]",100.0,"[-0.12999356490345568,-0.02692748492095731]",100.0,"[0.02,0.02]",156.0278,0.0,19.0,19.0,106.0,1.0,,,,,,,
,,,,,,,67df19d8dfaa291bdd177c93,684428cccfb52ca9ec7bf8dd,2025-06-07_00h56.35.609,shape_ratio,2024.1.5,Win32,29.85074627,684250e4f00cb30b92d1fa88,,,,,,,,,,,156.0287,156.5271,,,156.7613,157.2262,left,,,,,,,,0.45,0.4411,,,,,,,156.5271,156.7611,157.2263,"[-0.11968098118461477,-0.01308231316138933]",100.0,"[0.19543415011549112,0.00849679300953325]",4.0,"[0.12699463779443446,0.08588323240600862]",100.0,"[-0.1481763217875989,-0.11798176194006893]",100.0,"[-0.0658939755571316,-0.07830090320341279]",4.0,"[0.06429341668666028,-0.05527960313344213]",100.0,"[-0.16979604679319116,-0.031995945644506]",4.0,"[0.003115886926424284,0.17796008688894094]",100.0,"[-0.009777013487176068,0.09699100009058048]",100.0,"[0.0826784099114509,0.01812496714357673]",100.0,"[0.09107242807364616,0.1503331103162798]",4.0,"[0.08186917891412965,-0.16815201275747169]",4.0,"[0.041356489796098926,0.16610767467188187]",100.0,"[0.16098929134018938,-0.06728677249433153]",4.0,"[-0.07950491993030612,0.011315440051152644]",4.0,"[-0.07649822559936569,0.1679698231891401]",100.0,"[-0.023170649323838714,0.14241098084985707]",100.0,"[-0.19395807182755584,0.017779369849481613]",4.0,"[0.1184646498677028,-0.026952353390260916]",4.0,"[0.021338561106909324,-0.07368780620435421]",4.0,"[-0.051940459213462443,-0.161258215965532]",4.0,"[-0.04911064087169104,0.06242982780820489]",100.0,"[-0.12735247308540587,0.07623996341815191]",100.0,"[0.0463398773171511,-0.18895664205885276]",4.0,"[0.16549076729577067,-0.025984055602105254]",4.0,"[-0.12015055741370001,-0.1554103001658193]",4.0,"[0.04258070314290866,-0.12307342153916433]",4.0,"[0.1084910122612364,-0.1274149000646557]",4.0,"[-0.15986312860003574,0.11393901465206463]",4.0,"[0.12365501522510242,-0.08524310129879391]",100.0,"[-0.16939152311900973,0.05438377498458108]",100.0,"[-0.11979298374987302,-0.05598041333244154]",4.0,"[0.02,0.02]",158.3239,0.0,20.0,20.0,135.0,1.0,,,,,,,
,,,,,,,67df19d8dfaa291bdd177c93,684428cccfb52ca9ec7bf8dd,2025-06-07_00h56.35.609,shape_ratio,2024.1.5,Win32,29.85074627,684250e4f00cb30b92d1fa88,,,,,,,,,,,158.3247,158.8236,,,159.0591,159.5224,left,,,,,,,,0.45,0.4305,,,,,,,158.8236,159.059,159.5225,"[-0.12028560377047272,-0.14134540978555946]",4.0,"[0.10784065256778602,-0.013561388255400613]",4.0,"[0.10593016494596698,0.12487149184871761]",4.0,"[0.025021679820805116,0.11854787553432534]",4.0,"[0.10215725428134377,0.04425608329233746]",100.0,"[0.07302639998111163,-0.13992578207497058]",4.0,"[-0.19709745655846608,-0.011345769465324234]",100.0,"[0.05685271135846367,0.08664713669794288]",4.0,"[0.15301519603998015,-0.007788856254257659]",100.0,"[0.026728022212361115,-0.09622338657011006]",4.0,"[-0.0962789392697756,-0.04200875637250253]",4.0,"[-0.053645915257387815,-0.012271257772277727]",100.0,"[-0.03187569738275518,-0.11342355178073875]",4.0,"[-0.12406437127049962,0.10170859575931931]",4.0,"[0.016353187072736673,0.0556343979158206]",100.0,"[-0.1625604867334279,-0.08131797763210609]",4.0,"[-0.10799120190437533,-0.09486461923554068]",100.0,"[-0.0802247448692131,0.023362831796252242]",100.0,"[-0.02234237484103111,0.02307121159025243]",4.0,"[-0.024623114662958745,0.16357509528120387]",4.0,"[0.17035151283737227,0.09826654102051664]",100.0,"[-0.15485292824452515,0.044487092198889217]",4.0,"[-0.13497956565065128,-0.013600385528382344]",100.0,"[0.09875492369608753,-0.10625676858668949]",100.0,"[-0.04962068615205959,0.12339618317241548]",100.0,"[0.046090950534490985,-0.009564907580809988]",100.0,"[-0.025217882539852503,-0.16059095526625333]",4.0,"[0.045269718886310345,0.17175847152745394]",4.0,"[-0.017731537316492522,-0.03504626500790637]",4.0,"[0.16544696989018742,0.040067564006951564]",100.0,"[0.144380687449702,-0.10088203177446563]",4.0,"[0.013983077466048698,-0.18034436545518515]",100.0,"[0.02,0.02]",160.6204,0.0,21.0,21.0,140.0,1.0,,,,,,,
,,,,,,,67df19d8dfaa291bdd177c93,684428cccfb52ca9ec7bf8dd,2025-06-07_00h56.35.609,shape_ratio,2024.1.5,Win32,29.85074627,684250e4f00cb30b92d1fa88,,,,,,,,,,,160.6214,161.1207,,,161.3539,161.7525,left,,,,,,,,0.5,0.3786,,,,,,,161.1208,161.3538,161.7525,"[-0.14981080416460846,-0.12562626434550447]",100.0,"[-0.025424392751334065,0.10877657643474868]",4.0,"[0.14613928787296632,-0.07049373962278623]",100.0,"[0.1511335871490007,0.10121531973434676]",4.0,"[-0.09421264240037673,-0.16437053365445345]",100.0,"[0.0683806790987836,-0.1387391677498382]",4.0,"[-0.0515248343520593,0.19084648631553347]",100.0,"[-0.0690654936543772,-0.01911833612514906]",100.0,"[-0.18614111674464576,-0.0023449057750588045]",100.0,"[-0.07382366219183034,0.059827130460411916]",4.0,"[-0.14020012034693777,0.004547935476745107]",100.0,"[-0.021822242638625634,-0.1758599035049088]",100.0,"[0.07092607681198844,-0.0453754930072577]",4.0,"[-0.08713735081301761,-0.09121575558780437]",100.0,"[-0.009594937866450078,0.1558612163367852]",4.0,"[0.0017819479302073372,0.030143476963581432]",100.0,"[-0.13442420715626574,0.06464164550814891]",4.0,"[-0.08805138570156142,0.1582172367552642]",100.0,"[-0.03637084478576624,-0.07540201604776697]",100.0,"[-0.12178918852001133,-0.0358542947582584]",100.0,"[0.12634949763396386,0.005858111674292294]",100.0,"[-0.09117031337924823,0.016682230482703484]",4.0,"[0.01911686110592701,0.09447805124568387]",100.0,"[-0.09843385537198926,0.09224310383129927]",4.0,"[-0.001957765417359941,0.1963977480786086]",4.0,"[0.10190088946997625,-0.07603353333486583]",4.0,"[-0.1552817544547893,0.12279955616538371]",4.0,"[-0.18637666719545862,0.06173193146421165]",4.0,"[0.03909517979319944,0.14540639523332213]",4.0,"[-0.1760741403054163,-0.05563108462570659]",4.0,"[0.13411736804466282,0.14275456992075133]",4.0,"[0.18913415321729157,0.010823141266933609]",100.0,"[0.02,0.02]",162.8517,0.0,22.0,22.0,108.0,1.0,,,,,,,
,,,,,,,67df19d8dfaa291bdd177c93,684428cccfb52ca9ec7bf8dd,2025-06-07_00h56.35.609,shape_ratio,2024.1.5,Win32,29.85074627,684250e4f00cb30b92d1fa88,,,,,,,,,,,162.8524,163.3514,,,163.5837,164.1818,right,,,,,,,,0.45,0.5736,,,,,,,163.3515,163.5836,164.1819,"[0.11845481177667241,0.03823806431160987]",4.0,"[0.12957202376542526,-0.09386064529244806]",100.0,"[0.17443143112699228,0.04858974636146681]",4.0,"[-0.0005732203928474347,-0.08397392910040787]",100.0,"[0.10815905356795676,-0.048668317593400665]",4.0,"[-0.018078526422074404,0.056450835514037956]",4.0,"[0.1823880310128355,-0.008898471504470356]",100.0,"[-0.18469790488137616,-0.06270356187068311]",100.0,"[0.11170759346069506,0.13923643502969898]",100.0,"[-0.18405313962707173,0.01756684623753927]",4.0,"[0.016169732420024733,-0.1427246502707413]",100.0,"[-0.0031416354279393674,0.19136255885770312]",4.0,"[-0.0777598699741681,-0.011145227466975728]",4.0,"[-0.11774825043765917,-0.046257726717421545]",4.0,"[-0.09825336238297931,-0.12869035052132455]",4.0,"[-0.059113718959630274,0.1669207908269162]",4.0,"[0.1226398343491891,-0.0057936391429107195]",4.0,"[-0.1034789955871673,0.021214106789999937]",4.0,"[-0.03656962692280039,-0.021030269298543992]",100.0,"[-0.14458552496977503,-0.12135347468442598]",100.0,"[0.05623582080388272,0.0771351772417722]",100.0,"[-0.11620861680411956,0.12616496706358557]",4.0,"[-0.057144371452189056,-0.15336916031618647]",100.0,"[0.05111980710211478,-0.02310741911520492]",100.0,"[0.10420771348413282,0.08774478782366604]",4.0,"[0.06593277740233693,0.15428735824993473]",100.0,"[0.020748565859687748,0.12064660339866017]",4.0,"[-0.0633236592400256,-0.06079224918729577]",4.0,"[-0.0304624060520121,-0.1834930724349748]",100.0,"[0.13037925307703851,-0.14235646834986007]",4.0,"[0.060877215098990495,-0.1309607089889795]",4.0,"[0.0324093498054398,-0.17930054974916726]",100.0,"[0.02,0.02]",165.2806,0.0,23.0,23.0,123.0,1.0,,,,,,,
,,,,,,,67df19d8dfaa291bdd177c93,684428cccfb52ca9ec7bf8dd,2025-06-07_00h56.35.609,shape_ratio,2024.1.5,Win32,29.85074627,684250e4f00cb30b92d1fa88,,,,,,,,,,,165.2816,165.7812,,,166.0133,166.5502,left,,,,,,,,0.45,0.5025,,,,,,,165.7813,166.0133,166.5503,"[-0.10971721514174078,-0.05957325030781264]",4.0,"[-0.08363424924584523,0.1251260329076388]",4.0,"[-0.12354055057743864,0.10824605883739563]",4.0,"[-0.0006234099641939837,-0.15456730707470395]",100.0,"[-0.0858904789481103,-0.0021018022843655158]",4.0,"[0.10806356586419562,-0.036644567672209555]",4.0,"[-0.06859343941410713,-0.12546362827952978]",4.0,"[0.04495998468422382,-0.1326706427917631]",100.0,"[0.10485257076784839,-0.14378833511052638]",4.0,"[-0.11787587866382068,-0.1103131013874953]",4.0,"[-0.09175621544327528,0.16763430516875333]",100.0,"[0.024768554927228875,0.006787766186726941]",4.0,"[0.16574789491749167,-0.05598784764134777]",4.0,"[0.1543811354444358,-0.004743676154806967]",100.0,"[0.01778740136986056,0.11246649071482996]",4.0,"[0.13808762978140354,0.04053452296000138]",4.0,"[0.07474679577763009,-0.07844886240353262]",100.0,"[0.04071864331864577,0.057637473023620954]",4.0,"[-0.1632059858471679,0.07876327833968289]",100.0,"[-0.13695785384610148,0.04012655989884985]",100.0,"[0.017600553066864724,-0.035047067369832735]",100.0,"[-0.16080780906586145,-0.07545479869277932]",100.0,"[0.035661908403394796,-0.18362749445241008]",100.0,"[-0.054884453420502105,-0.1817004576281928]",100.0,"[0.038818097749650796,0.14725002185337036]",4.0,"[-0.03281216405446966,0.04055870491295833]",4.0,"[-0.09856516688390604,0.06538711245952203]",4.0,"[0.13822126970018112,-0.10530896050978607]",4.0,"[-0.022117031884002766,0.1742617258866624]",100.0,"[0.1168469670622583,0.12757312462912465]",4.0,"[-0.1536794976024588,0.0024861529382542475]",100.0,"[-0.05337351945042891,-0.05426576186903751]",100.0,"[0.02,0.02]",167.6442,0.0,24.0,24.0,128.0,1.0,,,,,,,
,,,,,,,67df19d8dfaa291bdd177c93,684428cccfb52ca9ec7bf8dd,2025-06-07_00h56.35.609,shape_ratio,2024.1.5,Win32,29.85074627,684250e4f00cb30b92d1fa88,,,,,,,,,,,167.645,168.143,,,168.3767,168.8752,right,,,,,,,,0.55,0.478,,,,,,,168.1431,168.3766,168.8755,"[0.09017877174942757,0.17810875254681424]",100.0,"[0.1147121829821524,0.03961416903122759]",100.0,"[-0.18485983549522447,-0.06098751273538145]",4.0,"[0.13440711372856415,-0.14775789712176407]",100.0,"[0.023470832306021476,0.0442162519724068]",100.0,"[0.09619679898382336,-0.04263295976637807]",100.0,"[0.13094402956155818,-0.07473885320655389]",100.0,"[0.19065121227662327,-0.03333109961089265]",4.0,"[-0.11244325739681507,0.13329549491617496]",4.0,"[-0.02153748687177362,0.17317337325354223]",100.0,"[-0.04079899243509929,-0.02365333056171903]",4.0,"[0.17373518759451673,0.09420523101243264]",100.0,"[-0.19110619243940227,0.0456530022483261]",4.0,"[-0.03176233769264743,0.12113791436396662]",4.0,"[-0.05858693567999506,0.02148944285947711]",100.0,"[-0.017794028617362057,-0.1868938049314505]",4.0,"[0.01432787170711133,0.14950645328529638]",4.0,"[-0.13179314349599128,0.011327345621350004]",100.0,"[0.042947108515234284,0.18803050493552403]",100.0,"[0.06326654732360584,-0.18368802888917216]",4.0,"[0.08967760079346858,-0.09013438051951196]",100.0,"[0.024971178867530072,-0.16611199070462881]",100.0,"[-0.07207155213687956,-0.05772788761488909]",4.0,"[-0.012445623603377445,-0.06561296323450301]",4.0,"[-0.08920007976579868,-0.15075420190903788]",4.0,"[-0.07078537631373698,0.0891808992866398]",4.0,"[0.04719461609371041,-0.06976921500840595]",100.0,"[-0.1568345988434013,-0.12266046978067607]",100.0,"[0.08349291163133297,0.07423080874841267]",100.0,"[0.17865605993697653,-0.08439448771265211]",100.0,"[0.15253745317978165,-0.0077014165624052985]",4.0,"[-0.16265419855483365,0.08513816098509168]",100.0,"[0.02,0.02]",169.9734,0.0,25.0,25.0,71.0,1.0,,,,,,,
,,,,,,,67df19d8dfaa291bdd177c93,684428cccfb52ca9ec7bf8dd,2025-06-07_00h56.35.609,shape_ratio,2024.1.5,Win32,29.85074627,684250e4f00cb30b92d1fa88,,,,,,,,,,,169.9745,170.4724,,,170.7094,171.0061,right,,,,,,,,0.55,0.2797,,,,,,,170.4725,170.7094,171.0062,"[-0.11575770701805471,0.08051860956419366]",4.0,"[-0.059913091199848875,0.030589863243217795]",100.0,"[-0.011896122147380287,-0.19601327671092963]",4.0,"[-0.10788947507300634,-0.07157477267629596]",4.0,"[0.044742369673567074,0.11361888267730269]",4.0,"[0.040102933332122524,-0.13395055400512065]",100.0,"[0.08256395451822618,0.18010312447331805]",100.0,"[0.08871981050107955,-0.06358967963520724]",100.0,"[-0.01142084344733785,0.14302595183160635]",4.0,"[0.1263788326848244,0.010720725916000672]",100.0,"[0.17003531202671937,0.01304715874910438]",100.0,"[-0.12732799179380697,-0.005446079186223294]",100.0,"[0.042466485857079565,-0.019070741667389528]",4.0,"[-0.016633087969882165,-0.14791577316581378]",100.0,"[0.0032197658914188904,-0.09082894664686492]",100.0,"[-0.0312302592603827,0.18126624252345513]",100.0,"[-0.08419608268378663,-0.02759163892163059]",4.0,"[-0.09657478646884758,0.15167747791637515]",4.0,"[-0.06707382536534882,-0.06562583808819838]",100.0,"[-0.0763669196417059,0.10651732909365626]",100.0,"[-0.17171524911164365,-0.05197298621912606]",4.0,"[-0.0741530863683849,-0.1480228147284926]",4.0,"[0.056389151350313194,0.07464797187012613]",100.0,"[-0.022660396176603665,-0.015562189660208815]",100.0,"[0.09364212947263452,-0.15954383873083622]",4.0,"[-0.019477362690662227,0.056363522841127486]",100.0,"[-0.13714336935394517,-0.11245801104441623]",4.0,"[0.14300655694199085,-0.02745193710036369]",4.0,"[-0.14824282058499683,0.04109657007247237]",100.0,"[0.17823355753758316,-0.08682019818544137]",100.0,"[0.07443083796262137,0.007258674847730631]",100.0,"[0.12656460665204913,-0.12220555657422634]",4.0,"[0.02,0.02]",172.1028,0.0,26.0,26.0,64.0,1.0,,,,,,,
,,,,,,,67df19d8dfaa291bdd177c93,684428cccfb52ca9ec7bf8dd,2025-06-07_00h56.35.609,shape_ratio,2024.1.5,Win32,29.85074627,684250e4f00cb30b92d1fa88,,,,,,,,,,,172.1041,172.6026,,,172.8365,173.4676,right,,,,,,,,0.9,0.6068,,,,,,,172.6027,172.8364,173.4677,"[0.030842989771962422,-0.09720846047315296]",100.0,"[-0.06254603357403964,0.04787629282020273]",100.0,"[0.17437417977315273,0.07635113607169007]",100.0,"[-0.04551392990863338,0.11101318561422249]",100.0,"[-0.1765182191692046,-0.03948590092677958]",100.0,"[0.19288524341274732,0.0036020625461563446]",100.0,"[-0.010585582944556223,-0.14207819647673908]",100.0,"[0.10134295806369656,0.00209922656819783]",100.0,"[0.03750633719543095,-0.040457778050552506]",100.0,"[0.016336744351711344,0.12220802676429078]",4.0,"[-0.1762970971940826,0.020336358333146044]",100.0,"[0.0755895205466723,0.12977355563451362]",100.0,"[-0.10534546427038904,0.05688565427568908]",100.0,"[-0.11103259841556119,-0.030410202850988968]",100.0,"[0.0729835996725138,-0.17598959476725173]",100.0,"[0.0382795976160401,0.050721867929492306]",100.0,"[0.14961804694592654,-0.0689468472821641]",100.0,"[0.144537678714831,-0.011661254430790925]",100.0,"[-0.012103963833158551,-0.0013191860377119414]",100.0,"[-0.08916221722763024,-0.1656351817299089]",100.0,"[0.07838168792032132,0.0494955619042507]",100.0,"[-0.1508749571756969,0.07427798063260942]",100.0,"[-0.10093150242119198,0.1611771990381345]",100.0,"[0.14428696914996708,-0.1333653487062681]",4.0,"[0.08473779704053269,-0.12539071491539605]",100.0,"[-0.04937898794119995,-0.08136598636919773]",100.0,"[0.049953996668821485,0.18040925570350166]",100.0,"[0.09525377565746335,0.08598918786735818]",100.0,"[-0.16611926171188476,-0.0914556035836994]",100.0,"[-0.06747470665111216,-0.0301583661030452]",100.0,"[-0.11598328834277548,0.11068586128175537]",4.0,"[-0.01262677250306233,0.15101489549167113]",100.0,"[0.02,0.02]",174.5651,0.0,27.0,27.0,18.0,1.0,,,,,,,
,,,,,,,67df19d8dfaa291bdd177c93,684428cccfb52ca9ec7bf8dd,2025-06-07_00h56.35.609,shape_ratio,2024.1.5,Win32,29.85074627,684250e4f00cb30b92d1fa88,,,,,,,,,,,174.5664,175.0652,,,175.3005,176.7627,left,,,,,,,,0.1,1.4394,,,,,,,175.0655,175.3001,176.7627,"[-0.01123875609940681,0.09608866753274078]",4.0,"[-0.11813912046366369,-0.0037955417709463965]",100.0,"[-0.06874429145360657,0.073601760616023]",4.0,"[-0.01676386738248009,-0.13320333514342123]",4.0,"[0.16934657417232885,0.04349813441541942]",4.0,"[0.08790770641844568,-0.1009351700471344]",4.0,"[0.16159987120137825,-0.013234983491111432]",4.0,"[-0.043134284202307915,-0.1759791580684962]",4.0,"[-0.10018393560789764,0.10357397116545372]",4.0,"[0.03965508411062213,-0.15461274362843047]",4.0,"[-0.01602455964682406,0.007619817429312896]",4.0,"[0.14180050175463982,-0.1014770377741237]",4.0,"[-0.11551902369968872,-0.14799918116841984]",4.0,"[-0.08217645404987778,0.17787024126010012]",4.0,"[0.01359285932041701,-0.191714964505152]",100.0,"[-0.14303191497003423,-0.11858883803368772]",4.0,"[0.12156062843933359,-0.0007523608137832195]",4.0,"[-0.14177852400433844,0.1172990558566425]",4.0,"[-0.03587647527161469,-0.029430645353055344]",4.0,"[-0.16153610585247327,-0.08195278797577754]",4.0,"[0.07155605048069445,-0.019303297953958517]",4.0,"[-0.07430891865004735,-0.10476342777261059]",4.0,"[0.009064778272987,-0.10020602507492087]",100.0,"[0.037740374543552516,0.15554573537298438]",4.0,"[-0.1756148192856513,0.06306167332002577]",4.0,"[0.0755552107831167,0.1091201907268115]",4.0,"[0.08764622124458611,-0.17546705597134749]",4.0,"[0.12534589198522836,0.0747709119810811]",4.0,"[0.08738352348669025,0.1712173824279802]",4.0,"[-0.11158058672618656,-0.06726689661942793]",4.0,"[0.0022119266694546444,0.04949445709339445]",4.0,"[-0.01091213690858143,0.18911273134436002]",4.0,"[0.02,0.02]",177.8604,0.0,28.0,28.0,207.0,1.0,,,,,,,
,,,,,,,67df19d8dfaa291bdd177c93,684428cccfb52ca9ec7bf8dd,2025-06-07_00h56.35.609,shape_ratio,2024.1.5,Win32,29.85074627,684250e4f00cb30b92d1fa88,,,,,,,,,,,177.8621,178.3601,,,178.6096,179.8907,right,,,,,,,,0.55,1.264,,,,,,,178.3603,178.6092,179.8911,"[-0.029298830804803,0.045042575008625345]",100.0,"[-0.1672204828270466,0.09715924715334838]",100.0,"[0.07323085963060794,-0.12320542532955697]",100.0,"[-0.1813103676345851,0.031457471389078354]",4.0,"[-0.0008759187987386848,-0.07730346958061557]",100.0,"[0.016923167650335212,0.049339096047750976]",4.0,"[0.16444727300823808,-0.04567349734907295]",100.0,"[0.11097879067013293,0.15882895346084977]",4.0,"[-0.10368211827304998,-0.016077881196114256]",100.0,"[0.045286054149201616,0.09443967582066193]",100.0,"[0.043071981952319205,0.16471152688229052]",100.0,"[-0.033585768816509,0.1568227419980235]",4.0,"[0.17779400012332083,-0.0905751437673832]",100.0,"[-0.09244553489482936,-0.1767441885883449]",100.0,"[0.011630175735778266,-0.12410393758397176]",4.0,"[0.08721079472187718,-0.06948351213806284]",4.0,"[-0.07215619079179668,0.17836158278184608]",4.0,"[-0.03678768924828472,-0.11405412386405525]",100.0,"[-0.055604266657463895,-0.035952972492034975]",4.0,"[0.02205962489276314,-0.04171201948271182]",4.0,"[0.06933650712438455,-0.18642381094368762]",4.0,"[0.14262451983794008,0.0768444131401662]",4.0,"[-0.09257314732654882,-0.10874838940354517]",4.0,"[0.047519736296524596,0.009145073097031215]",100.0,"[0.19151768924326346,0.020347303190960144]",100.0,"[-0.11770113588429432,0.1569998118812435]",4.0,"[0.14304213805634047,-0.11056304087544448]",100.0,"[0.18293583817450187,0.0782448842118178]",4.0,"[-0.04589839487166015,-0.19175708045198872]",100.0,"[-0.15970567722312606,-0.04070221212387789]",100.0,"[0.09764839509406216,0.04432463820998046]",100.0,"[-0.0019499807982571254,-0.0025229739923305107]",100.0,"[0.02,0.02]",180.9884,0.0,29.0,29.0,74.0,1.0,,,,,,,
,,,,,,,67df19d8dfaa291bdd177c93,684428cccfb52ca9ec7bf8dd,2025-06-07_00h56.35.609,shape_ratio,2024.1.5,Win32,29.85074627,684250e4f00cb30b92d1fa88,,,,,,,,,,,180.9896,181.4877,,,181.7226,182.2547,right,,,,,,,,0.5,0.5062,,,,,,,181.4877,181.7219,182.2548,"[-0.16237041101011307,0.051337551053786123]",100.0,"[-0.05795776216866635,0.14538240372340078]",100.0,"[-0.012312124254508882,0.15874767711320237]",100.0,"[-0.12715054455585884,0.13455611788784827]",100.0,"[-0.05253715180659359,0.1870314218043398]",4.0,"[0.007445553322067466,-0.03375693575948217]",4.0,"[0.09563048448219505,0.10377789201836841]",4.0,"[0.1098985885832214,0.013105025208297278]",4.0,"[0.17014177590841217,0.045022495912258806]",100.0,"[-0.0915860687431351,-0.14938977923172939]",4.0,"[-0.13107234753329108,-0.06090533463025964]",100.0,"[0.06544819225181946,-0.1728325995423448]",100.0,"[0.05413067156260742,0.14529792855501317]",4.0,"[0.10204381822248126,0.060190997220456406]",100.0,"[0.05780475600484537,-0.09119949708372]",4.0,"[-0.018327972282800753,-0.1395878074127329]",100.0,"[-0.06855170948322675,-0.07720123814197602]",100.0,"[-0.13032023110521407,-0.020502273032783618]",100.0,"[-0.018967229656888233,-0.08331821059614133]",4.0,"[0.17618572042009495,-0.025576135052942532]",4.0,"[-0.1157491914714601,0.0793232752234983]",4.0,"[0.09633076067837458,-0.052633193409958964]",100.0,"[-0.17053858361513619,-0.052336716616577884]",4.0,"[0.10597679022918746,-0.10429779288515474]",100.0,"[0.1653787514004277,-0.08098462734837647]",100.0,"[0.16154008924838426,0.09378274322348329]",4.0,"[-0.05576567006420158,-0.0020570884358598394]",4.0,"[0.00596256238122178,0.0164053417643056]",4.0,"[0.11726800997026166,0.1405126362181741]",4.0,"[-0.16232660955391817,-0.10931572256992306]",100.0,"[-0.049161435154728074,0.05388437063067894]",100.0,"[-0.020121545231464616,-0.197454284592725]",4.0,"[0.02,0.02]",183.3523,0.0,30.0,30.0,101.0,1.0,,,,,,,
,,,,,,,67df19d8dfaa291bdd177c93,684428cccfb52ca9ec7bf8dd,2025-06-07_00h56.35.609,shape_ratio,2024.1.5,Win32,29.85074627,684250e4f00cb30b92d1fa88,,,,,,,,,,,183.3534,183.8504,,,184.0849,184.8514,right,,,,,,,,0.9,0.7377,,,,,,,183.8504,184.0847,184.8515,"[0.08626592813408991,-0.09100762265970266]",100.0,"[0.08353514616969165,0.11687430227191073]",100.0,"[0.16641291442693962,-0.007861454185227185]",100.0,"[-0.15178358707305944,0.071640303048653]",100.0,"[0.03888539458655019,0.15688922465304683]",100.0,"[-0.12645609804677763,-0.04017523794817514]",100.0,"[-0.06971861708479513,0.06981080213264436]",100.0,"[0.09268633102314394,0.04874993986391959]",100.0,"[0.04231833742847208,0.0029286138617432168]",100.0,"[-0.09187842990737971,-0.09353833625676887]",100.0,"[0.18948424263961966,0.04038094423779585]",100.0,"[-0.10296693542684193,0.00931729140225298]",4.0,"[-0.1625324125754068,0.0312672960610922]",100.0,"[-0.06256001219535703,-0.01479254305445845]",100.0,"[-0.04068555707537311,0.128863023995082]",100.0,"[0.13245772909938314,0.03222932390112346]",100.0,"[-0.0628554266325588,-0.17780041472100208]",100.0,"[-0.04900270474815278,-0.0955991420908188]",100.0,"[0.03698558320341904,-0.10589624488737509]",4.0,"[-0.19446874958429505,-0.04376588310685871]",100.0,"[-0.10827951624485409,0.08232389626548813]",100.0,"[-0.009559324568940446,-0.16584068102497543]",100.0,"[-0.12449632521813794,0.12855354367310168]",100.0,"[0.004696855901564679,0.042279318907853226]",100.0,"[0.1727624473582181,-0.04976149743956647]",100.0,"[0.04815794161931438,-0.193276077273429]",100.0,"[0.16888587658208476,-0.10349717036518416]",100.0,"[0.15365647332369506,0.08268258316944405]",100.0,"[-0.1717481026418923,-0.09410712508418052]",100.0,"[0.03893698695881889,0.06487748023851393]",100.0,"[-0.010885400940088125,0.15838173373458042]",100.0,"[0.12586407022839616,-0.1270350659560645]",4.0,"[0.02,0.02]",185.9477,0.0,31.0,31.0,23.0,1.0,,,,,,,
,,,,,,,67df19d8dfaa291bdd177c93,684428cccfb52ca9ec7bf8dd,2025-06-07_00h56.35.609,shape_ratio,2024.1.5,Win32,29.85074627,684250e4f00cb30b92d1fa88,,,,,,,,,,,185.9484,186.4467,,,186.6816,187.4169,left,,,,,,,,0.4,0.7218,,,,,,,186.4468,186.6813,187.4171,"[-0.093852462089103,-0.08879905233005292]",100.0,"[-0.134078688517663,-0.14309100142514977]",4.0,"[-0.14793896539893803,0.12739129400286378]",100.0,"[-0.062295566167559754,0.16600375785515797]",100.0,"[-0.1381301716919843,0.07337730908324543]",100.0,"[0.16113160931577605,-0.06263883914583634]",4.0,"[0.06690217605320542,0.07104027192321785]",4.0,"[-0.0461040097066267,-0.12979465366957058]",4.0,"[0.0794349671740667,-0.14290036923576316]",4.0,"[0.1662634112970931,0.09042823316747498]",100.0,"[0.07799238364722581,-0.001030159582349928]",4.0,"[-0.025033166983758237,-0.1907379173662593]",100.0,"[-0.17667666559435796,-0.037608849632295736]",4.0,"[0.004653729850343451,-0.1072000600908724]",100.0,"[-0.14153643480013461,0.02031628108248903]",100.0,"[-0.047826018179194095,0.09347330676564572]",4.0,"[0.01827080012113977,-0.14848166407593377]",100.0,"[0.11403220669924599,-0.04166988652313208]",4.0,"[0.18496218243485774,-0.00526807057988195]",100.0,"[0.04843772059863879,-0.03419161339095578]",4.0,"[0.007887477125364716,0.07172190727024608]",4.0,"[-0.12650051091917652,-0.02795387075394473]",4.0,"[0.1318581896902165,-0.0009056200322177483]",4.0,"[0.016044418404455973,0.013248723818228137]",4.0,"[-0.02097257745759499,-0.014645683830800933]",4.0,"[0.0444941996225426,0.11347029063619646]",100.0,"[0.06470719753274423,0.15502850750575478]",4.0,"[0.11743711125042355,-0.0926351917851371]",100.0,"[-0.007443012996333953,0.12220778221496306]",4.0,"[-0.08609601546792152,0.008959467032808373]",4.0,"[-0.07977109857942015,-0.16712055238542012]",4.0,"[-0.16374327834045413,-0.09909536715959438]",100.0,"[0.02,0.02]",188.5101,0.0,32.0,32.0,156.0,1.0,,,,,,,
,,,,,,,67df19d8dfaa291bdd177c93,684428cccfb52ca9ec7bf8dd,2025-06-07_00h56.35.609,shape_ratio,2024.1.5,Win32,29.85074627,684250e4f00cb30b92d1fa88,,,,,,,,,,,188.5116,189.0101,,,189.2433,190.7408,,,,,,,,,0.5,,,,,,,,189.0102,189.2432,190.7413,"[0.06365658628027622,-0.13950601464388532]",4.0,"[0.14893784454308295,-0.07209529636101929]",100.0,"[-0.09367455516430288,-0.08600335295364825]",100.0,"[0.09875803180164724,-0.06357774650307654]",4.0,"[-0.06536022708655143,0.09582088391902648]",4.0,"[0.10107215532456475,-0.1623928944696578]",100.0,"[-0.045457435038294046,0.13756110429397525]",100.0,"[0.005145169022180769,0.025329993321494635]",100.0,"[0.026099115877954892,0.19027492033319626]",4.0,"[-0.13565992387455347,-0.11440737772942229]",100.0,"[-0.05054295275088485,-0.16732474694632302]",4.0,"[-0.1661651586250428,0.0721561615485488]",4.0,"[0.1152503551205601,0.026434148361373755]",100.0,"[0.12140998174119134,0.10960019861993382]",4.0,"[0.1425767158918857,0.05732918450050171]",4.0,"[0.06085689746239353,0.13931880379030262]",100.0,"[0.16823834980507005,-0.017853364624363283]",4.0,"[0.03365074943207697,-0.06654657654067384]",100.0,"[-0.10891879985032286,0.04913797366015574]",100.0,"[0.01173898290904414,0.11695799383692379]",4.0,"[-0.1477833462331731,0.014652877209675359]",100.0,"[-0.09817858703994566,-0.007623695215603938]",4.0,"[-0.05805493240369226,0.1909302420096985]",100.0,"[-0.07065845901708737,-0.12081601617468912]",4.0,"[0.06486516540012761,-0.03915177696135034]",100.0,"[0.00981023988867176,-0.10417787803592903]",4.0,"[-0.19061858114789357,0.02080041354640684]",100.0,"[-0.18562211754040586,-0.031943680406729]",4.0,"[-0.1337006700833723,-0.029400976621865693]",4.0,"[0.004490747756454687,-0.1660857518836156]",100.0,"[0.07276308789923235,0.18478999540314148]",100.0,"[0.12106161688579456,-0.10838883043521055]",4.0,"[0.02,0.02]",191.8394,0.0,33.0,33.0,117.0,1.0,,,,,,,
,,,,,,,67df19d8dfaa291bdd177c93,684428cccfb52ca9ec7bf8dd,2025-06-07_00h56.35.609,shape_ratio,2024.1.5,Win32,29.85074627,684250e4f00cb30b92d1fa88,,,,,,,,,,,191.8404,192.3375,,,192.5726,192.9041,right,,,,,,,,0.6,0.3117,,,,,,,192.3376,192.5725,192.9042,"[0.05201956292957811,0.09316325746128114]",100.0,"[-0.10094637533822684,0.07165058831245588]",4.0,"[-0.08301478957160652,-0.14711543386544296]",4.0,"[-0.08711093750549546,-0.09720811118288102]",100.0,"[-0.06181532874145423,-0.0067460498553760006]",4.0,"[-0.00848036165793295,-0.19734245880668067]",4.0,"[0.06454734845403166,0.04278187123210703]",100.0,"[-0.0010753025637322462,0.16826344783492098]",4.0,"[0.020898822563863412,0.022595937735708525]",4.0,"[0.13071851227623568,-0.10085474514419555]",100.0,"[0.15633046735039782,0.029039974701870506]",100.0,"[0.14218495031625042,0.10953844043328474]",4.0,"[0.10551053576664852,0.1696577781189344]",4.0,"[0.006285112462850527,-0.10709362900696279]",100.0,"[-0.011240965042544758,0.0842664566304731]",100.0,"[-0.12762520156531498,-0.052449811415521776]",100.0,"[-0.0971624609721931,0.15305094416267645]",100.0,"[0.0752443346670937,-0.10185395349066877]",4.0,"[-0.17739179930444812,-0.0015910906657338251]",100.0,"[0.0786527334394041,0.12982111579851507]",100.0,"[-0.014353195098661413,0.0437958344361745]",100.0,"[-0.10223351968982551,0.028767867408151942]",100.0,"[0.05584515946930171,-0.18953811714827326]",4.0,"[-0.16526749736347127,-0.06777172220320271]",100.0,"[0.03649489664743315,-0.07418997612775786]",100.0,"[-0.014664042647513097,-0.050509947978897934]",100.0,"[-0.16917285691915862,0.04049054477308572]",100.0,"[0.106640890619363,-0.13481244211949697]",4.0,"[0.13118858261503785,-0.017804312639729748]",4.0,"[-0.02036967635775806,-0.14786008628518243]",100.0,"[0.15419466026374776,-0.05996037400288064]",4.0,"[-0.08518356052468293,0.11456927561603834]",100.0,"[0.02,0.02]",194.0022,0.0,34.0,34.0,51.0,1.0,,,,,,,
,,,,,,,67df19d8dfaa291bdd177c93,684428cccfb52ca9ec7bf8dd,2025-06-07_00h56.35.609,shape_ratio,2024.1.5,Win32,29.85074627,684250e4f00cb30b92d1fa88,,,,,,,,,,,194.0032,194.5013,,,194.735,195.1681,left,,,,,,,,0.55,0.4044,,,,,,,194.5014,194.7349,195.1683,"[-0.18108837501414787,0.047105971095159675]",100.0,"[0.06075997369604007,-0.1131783859486425]",4.0,"[-0.1108203784197825,-0.11770618773400605]",4.0,"[0.1595132700511564,-0.11703899035789561]",4.0,"[0.16234659173920019,0.06072392688040015]",100.0,"[0.022437606034047902,0.15106219343305796]",100.0,"[-0.10126143467652031,0.11223503565006387]",100.0,"[0.08966054785965435,0.14669102083180346]",100.0,"[0.020162318770609457,0.004079257959887025]",100.0,"[-0.13453409544179246,0.14282936694536155]",4.0,"[0.1443866814222174,-0.023229664886603697]",100.0,"[-0.1413673643402789,0.037648222207166786]",4.0,"[-0.02664182891427698,-0.05198802606073346]",100.0,"[0.013306062555334916,-0.09719556461993414]",4.0,"[-0.11073679115871164,0.005100312263960941]",100.0,"[0.027933258628939785,0.06129426803093577]",4.0,"[-0.15701266514767798,-0.006930729577625194]",100.0,"[-0.19270431024232776,-0.02759780243214977]",4.0,"[-0.16672701605489246,-0.10829087057469504]",4.0,"[-0.019498067637029732,0.18064843370068928]",100.0,"[-0.029783306111811382,0.10959961638448716]",100.0,"[-0.0345654874852283,0.03750502182673796]",100.0,"[0.10684896537518206,0.020241632872621013]",100.0,"[0.15729631646345638,-0.061268611500947874]",4.0,"[-0.060660386984830485,-0.022787301594683014]",4.0,"[-0.04963903037438223,-0.1649018770032881]",100.0,"[-0.0714626830337475,0.17818865500819756]",100.0,"[0.03865633544943267,-0.19171836123473945]",100.0,"[0.06954324120477212,-0.06308944754416015]",100.0,"[-0.10994100407268727,0.07230392260499828]",4.0,"[0.08002774632500734,-0.1738527199529295]",4.0,"[-0.10704168002330855,-0.04532476384091918]",4.0,"[0.02,0.02]",196.2653,0.0,35.0,35.0,84.0,1.0,,,,,,,
,,,,,,,67df19d8dfaa291bdd177c93,684428cccfb52ca9ec7bf8dd,2025-06-07_00h56.35.609,shape_ratio,2024.1.5,Win32,29.85074627,684250e4f00cb30b92d1fa88,,,,,,,,,,,196.267,196.7645,,,196.9979,197.3644,right,,,,,,,,0.4,0.3379,,,,,,,196.7646,196.9979,197.3646,"[-0.05530985563035168,-0.059401450805208436]",4.0,"[0.09564914664664131,0.04280547171933819]",100.0,"[0.026865751749208,0.18781198412585332]",100.0,"[-0.10564457321759854,0.10743887387151539]",4.0,"[0.011950827857949726,-0.04095196919255566]",4.0,"[-0.14666140949527953,0.12663782242033217]",4.0,"[0.01906451743998816,0.11153424483219197]",100.0,"[0.16856251970507233,-0.03335208304623365]",100.0,"[-0.1114364065626518,0.05213749274450674]",4.0,"[0.0028319195667406744,0.05068369968238616]",100.0,"[-0.12352606179336148,-0.09891924392798154]",100.0,"[0.06344266713552685,-0.16180902687748694]",100.0,"[0.03942514637596754,0.018181595790226754]",100.0,"[-0.01925131827226382,-0.18626094304020765]",100.0,"[-0.06739580959158684,0.038885777262104244]",4.0,"[-0.11264983266374563,0.15006931573818333]",4.0,"[0.10864072912310596,-0.15053678248877506]",4.0,"[0.10601555424638567,-0.01898412272641834]",4.0,"[-0.04999153239124089,-0.1356619143048301]",4.0,"[0.17671109214926917,0.019360371204817046]",4.0,"[0.1108519206223279,-0.08404851495144998]",100.0,"[-0.17186750623117034,-0.08212841150058227]",100.0,"[-0.18298636672544502,0.007392873577687619]",100.0,"[-0.05928894618261721,0.18499534927459055]",4.0,"[0.10158793368327526,0.09824465172873606]",4.0,"[0.020846933297661657,-0.08505540414743167]",4.0,"[0.05727841735019898,0.13539472486653423]",4.0,"[-0.036991655929353225,-0.017392939456130588]",4.0,"[-0.0457665204376508,0.08346512391531606]",100.0,"[0.1617332047358361,0.0942104967318937]",4.0,"[-0.10380644616642427,-0.04725366051828331]",4.0,"[0.06963992977161766,-0.07330901083012518]",4.0,"[0.02,0.02]",198.4618,0.0,36.0,36.0,163.0,1.0,,,,,,,
,,,,,,,67df19d8dfaa291bdd177c93,684428cccfb52ca9ec7bf8dd,2025-06-07_00h56.35.609,shape_ratio,2024.1.5,Win32,29.85074627,684250e4f00cb30b92d1fa88,,,,,,,,,,,198.4631,198.961,,,199.195,199.6275,right,,,,,,,,0.1,0.4063,,,,,,,198.9611,199.1948,199.6275,"[-0.06276315112039872,-0.032287744285431734]",100.0,"[-0.1605465911355631,0.0035816538347568545]",4.0,"[-0.011905295211213621,-0.19122041344072901]",4.0,"[0.08452744611656353,0.04632163243582571]",4.0,"[-0.10046789179736368,0.12985441336609918]",4.0,"[-0.07894422741707173,-0.15916375083102915]",4.0,"[0.01074511733340434,-0.02744454976238726]",4.0,"[0.09759957287723453,-0.021053569292074602]",4.0,"[0.04120928314170218,-0.07176865657277522]",4.0,"[-0.02284432977532845,-0.07919022165151766]",4.0,"[-0.07263823787711182,0.0942573452772028]",4.0,"[0.011185031980399648,0.1828048819763848]",4.0,"[0.16066877330678445,-0.011203236729904878]",4.0,"[0.1033483271646538,0.12084229541655199]",4.0,"[0.145035519225341,0.07666819478158741]",4.0,"[-0.14236694020562274,-0.04460262270104767]",4.0,"[-0.14685936018053658,0.10882428669322683]",4.0,"[0.14504165831103574,-0.06786213894222731]",100.0,"[-0.1392638562894602,0.04229591196589993]",4.0,"[-0.07718488703628797,0.04486664678389875]",4.0,"[0.07115002333562678,-0.11881855936892208]",100.0,"[0.11830635536755171,-0.15440998348566012]",4.0,"[0.05544455020958978,0.09525620658669363]",4.0,"[0.022944525372136877,0.1358780279759108]",4.0,"[-0.11956462340141197,-0.15109758336118578]",4.0,"[-0.05912767507002511,-0.11499140729185997]",4.0,"[-0.024702974365927787,0.05013066703930754]",4.0,"[0.044271100836212704,0.03075260371861993]",4.0,"[-0.07179919164465384,0.18344349731426884]",4.0,"[-0.02974536126872802,-0.005550757833789953]",4.0,"[-0.1664452854100275,-0.11016445298549364]",4.0,"[-0.035409110604428425,0.1481431330336279]",4.0,"[0.02,0.02]",200.7248,0.0,37.0,37.0,185.0,1.0,,,,,,,
,,,,,,,67df19d8dfaa291bdd177c93,684428cccfb52ca9ec7bf8dd,2025-06-07_00h56.35.609,shape_ratio,2024.1.5,Win32,29.85074627,684250e4f00cb30b92d1fa88,,,,,,,,,,,200.7259,201.2243,,,201.4576,202.0238,left,,,,,,,,0.5,0.538,,,,,,,201.2244,201.4575,202.024,"[0.12974606579343761,0.1440683787624158]",4.0,"[-0.007510668533209718,-0.10703266542214486]",100.0,"[-0.13081400802941154,0.1333704239665761]",100.0,"[0.13497803486186014,-0.0743744899795093]",4.0,"[-0.10718300692209115,-0.04817258402457374]",100.0,"[-0.05678896931655527,0.05938002246042234]",4.0,"[0.03625362772738486,-0.0903697462286734]",100.0,"[0.09098458248861482,0.16876842945436693]",100.0,"[0.19345712800981424,0.015592239613811816]",4.0,"[-0.1529114500235586,0.006032259183543618]",4.0,"[0.0881676758157494,0.10613930840524137]",100.0,"[0.03114306987846329,-0.016048271268326867]",100.0,"[-0.02579679618490493,-0.17279182584561664]",4.0,"[-0.05410270953396118,-0.010732725067528584]",4.0,"[0.05598607496636951,-0.1837157489605784]",4.0,"[0.016801017445290087,0.09731581327949605]",4.0,"[-0.04310030353058396,0.1870428537733292]",100.0,"[-0.06158088508741476,-0.05519909459258698]",4.0,"[-0.11226973302866758,-0.09966755415902102]",4.0,"[-0.09318968482997224,0.01674028538245943]",4.0,"[-0.18252628059118176,0.03482256152648075]",4.0,"[0.09456293520127572,-0.030601113028867782]",100.0,"[0.13107445816701763,0.0536196823124597]",100.0,"[-0.07216083135821655,0.12737810211715234]",4.0,"[0.051406715911008385,-0.13649109748186508]",100.0,"[0.027604421395982726,0.16981891392371712]",4.0,"[-0.11183261915440962,0.08776764381160107]",100.0,"[0.032525147119458545,0.0482146346978704]",100.0,"[-0.08446751297435358,0.17538473856289435]",4.0,"[-0.11480212499646805,-0.16167022478183155]",100.0,"[-0.007809823267309889,0.008689558095206149]",100.0,"[-0.010597812234964749,-0.05026260799874937]",100.0,"[0.02,0.02]",203.1209,0.0,38.0,38.0,97.0,1.0,,,,,,,
,,,,,,,67df19d8dfaa291bdd177c93,684428cccfb52ca9ec7bf8dd,2025-06-07_00h56.35.609,shape_ratio,2024.1.5,Win32,29.85074627,684250e4f00cb30b92d1fa88,,,,,,,,,,,203.1229,203.6197,,,203.8544,204.2527,left,,,,,,,,0.1,0.3828,,,,,,,203.6198,203.8543,204.2527,"[-0.14886014885211477,-0.002346987864108345]",4.0,"[-0.051892029895349946,0.12514197854983627]",4.0,"[0.17204321822503385,0.05620514829617902]",4.0,"[0.1338078175161856,0.0859136367070156]",4.0,"[0.06928141946696786,-0.06127329904646683]",4.0,"[0.090016656000554,-0.1660822371658802]",4.0,"[-0.1505464488717272,-0.06787089730435167]",4.0,"[-0.018352912519431153,0.021145902815694836]",4.0,"[0.10846103820357152,0.0018270791757916056]",4.0,"[-0.014235633693975519,0.10581936494147932]",100.0,"[-0.06493456306828009,-0.1271449494916984]",4.0,"[0.04487791613256395,-0.17869845115556143]",4.0,"[0.05930927557648877,0.18207113176659642]",4.0,"[-0.15807853249940682,0.11949442857904054]",4.0,"[-0.1065352265101912,-0.09287837856820563]",4.0,"[0.10993269886468532,-0.09774821436863224]",100.0,"[-0.13789173991545434,0.06432365998438103]",4.0,"[0.026151868329075897,0.029694986792458068]",4.0,"[0.03860198284237661,-0.0929616221078098]",4.0,"[-0.018475265370507254,-0.12583696044927523]",4.0,"[0.05302363020364684,0.0697605230510041]",4.0,"[0.10209518228646272,0.12909995222913304]",4.0,"[0.19662933708572747,0.00509502105986546]",4.0,"[-0.11089463531565515,-0.14607403895845888]",4.0,"[-0.07497380418390501,0.006032313791664136]",4.0,"[-0.1087421262622565,0.12496442008466448]",4.0,"[-0.18486018989924916,0.03456510355937998]",4.0,"[-0.002588374673739998,0.18412662585473494]",4.0,"[-0.0610619762952977,0.17439469748331926]",100.0,"[0.16255204845503834,-0.05037416286233305]",4.0,"[0.00862163175283726,0.1410866945435386]",4.0,"[-0.07488939699801878,-0.06633703759110457]",4.0,"[0.02,0.02]",205.3511,0.0,39.0,39.0,198.0,1.0,,,,,,,
,,,,,,,67df19d8dfaa291bdd177c93,684428cccfb52ca9ec7bf8dd,2025-06-07_00h56.35.609,shape_ratio,2024.1.5,Win32,29.85074627,684250e4f00cb30b92d1fa88,,,,,,,,,,,205.3521,205.8497,,,206.0872,206.6156,right,,,,,,,,0.9,0.4961,,,,,,,205.8498,206.087,206.6157,"[0.0762459353248264,0.13162440113157023]",100.0,"[-0.06489746351924279,0.14179961012136175]",100.0,"[0.13402151068726276,-0.1295438383911765]",100.0,"[-0.08034492618419004,-0.06142719661329448]",100.0,"[-0.13104694281677862,0.01742971250184491]",100.0,"[0.11460442569420973,0.04346813684361079]",100.0,"[-0.18605037364712906,-0.0480657680001389]",100.0,"[0.09762274323751766,-0.04661454011432545]",100.0,"[-0.020048537646116825,0.02224353882693949]",4.0,"[-0.11047593151112708,-0.03245835866515282]",100.0,"[0.16551132303660016,-0.00824004235433707]",100.0,"[0.13812814114763816,-0.07698553327552986]",100.0,"[0.0528290875882208,-0.006178861835976118]",100.0,"[-0.04082708723196648,0.10768776440674054]",100.0,"[-0.18344488797996036,0.0742444548376784]",100.0,"[0.016235570054432703,-0.16409519808841852]",100.0,"[0.02443837414393545,-0.07728741607589482]",100.0,"[0.0629499494926813,0.07023260143014207]",100.0,"[-0.146360390948267,0.12284504842820043]",4.0,"[0.059687353784336775,-0.18324842238487377]",100.0,"[-0.13895629326812,-0.06988750246994878]",100.0,"[0.04067103011748883,0.1582247392811107]",100.0,"[0.11639222112247577,0.1321374369371475]",100.0,"[-0.06778822978838389,0.04305590129193735]",100.0,"[-0.11807520225980903,0.16030766589237624]",100.0,"[0.18269894408580575,0.03248717860888893]",100.0,"[-0.069983562959204,-0.12357622190048505]",100.0,"[-0.012446720008304588,-0.119578864926592]",100.0,"[0.10757951551024586,-0.005549993095904665]",100.0,"[-0.004569071329139445,0.1951161142333931]",4.0,"[-0.03973467915026508,-0.18546466613185644]",100.0,"[-0.07788509964174356,-0.16782774651734592]",100.0,"[0.02,0.02]",207.7143,0.0,40.0,40.0,28.0,1.0,,,,,,,
,,,,,,,67df19d8dfaa291bdd177c93,684428cccfb52ca9ec7bf8dd,2025-06-07_00h56.35.609,shape_ratio,2024.1.5,Win32,29.85074627,684250e4f00cb30b92d1fa88,,,,,,,,,,,207.7155,208.2126,,,208.4489,208.9122,right,,,,,,,,0.55,0.4459,,,,,,,208.2127,208.4488,208.9123,"[0.001630759075376349,-0.13619662902373247]",100.0,"[-0.0317709072242618,0.0362417974040632]",4.0,"[-0.17374210612738664,-0.039023270134524016]",4.0,"[0.12526642306711336,0.016154448539948844]",4.0,"[0.15528493197119642,-0.025881243439675128]",100.0,"[-0.02405862479689671,-0.19743874134166317]",4.0,"[0.042472879821655166,0.19129646504854844]",4.0,"[-0.007544233450880671,-0.07885726622445402]",100.0,"[0.10115521227992312,0.11256853861800771]",4.0,"[-0.14412909953760167,0.1280880918978845]",100.0,"[0.08118153468659138,0.0067661319292250275]",4.0,"[-0.06151648005620172,0.15912813891751745]",4.0,"[0.07226888036373298,-0.13908082193284316]",100.0,"[0.028959002566283698,0.12235939495167794]",100.0,"[-0.0016383514959586098,0.0699579859094406]",100.0,"[-0.06449603936181769,-0.051726660808312924]",100.0,"[0.04145154462894773,0.05637065329297833]",100.0,"[-0.0017845069761268666,0.1646906535136535]",4.0,"[-0.03736748352222453,-0.11279935932177859]",4.0,"[-0.07995167817911411,0.03887553562058722]",4.0,"[-0.09671262489033089,-0.08146396844493614]",100.0,"[0.14639783582034105,0.06499031312073783]",100.0,"[0.05509574771423208,-0.17812809957886752]",100.0,"[0.1183119512742572,-0.11353274069167556]",100.0,"[-0.11736162974930313,0.06645889697402865]",4.0,"[-0.12325118055276453,-0.13424887380614148]",100.0,"[0.11067331209792974,0.15146369076661417]",4.0,"[0.04197957677200799,-0.06398819163781193]",100.0,"[-0.1916861285403973,0.026891008909509777]",4.0,"[-0.07333210303128407,0.1017526587440735]",100.0,"[0.1084362542296732,-0.0482355793166791]",100.0,"[-0.14144452313882314,0.018404941712712005]",100.0,"[0.02,0.02]",210.0105,0.0,41.0,41.0,60.0,1.0,,,,,,,
,,,,,,,67df19d8dfaa291bdd177c93,684428cccfb52ca9ec7bf8dd,2025-06-07_00h56.35.609,shape_ratio,2024.1.5,Win32,29.85074627,684250e4f00cb30b92d1fa88,,,,,,,,,,,210.0115,210.5096,,,210.7427,211.0758,left,,,,,,,,0.9,0.3015,,,,,,,210.5097,210.7427,211.076,"[0.1693047231070915,0.046055131622426755]",100.0,"[-0.0650478019371368,0.10577826976211717]",4.0,"[0.08797436270566864,-0.16542459206677437]",100.0,"[0.039001026734361496,0.07599189042522744]",100.0,"[0.10086107202002342,-0.09056710324621801]",100.0,"[-0.008755430602837525,0.13336791588381758]",100.0,"[-0.058327047887698595,0.050853203728089096]",100.0,"[-0.01862864123641733,-0.06765674305108786]",100.0,"[0.19541876024991373,0.008984839292133945]",100.0,"[-0.12004008732363408,-0.09149852983563436]",100.0,"[0.06308722107212701,0.1856328828402656]",100.0,"[-0.056309117084295646,-0.18914985545082177]",4.0,"[-0.14837868909911917,0.03530454816250877]",100.0,"[0.05771831659320212,-0.009765843679227539]",100.0,"[0.061666409283680106,0.03335316991053798]",100.0,"[-0.08340131613945807,-0.15217965387460755]",100.0,"[0.1368430585565879,0.08809154470420034]",100.0,"[-0.07707542455776645,-0.10719116474757727]",100.0,"[-0.05241802705402395,0.1447222873882626]",100.0,"[0.09018851828010051,0.08969958173071471]",100.0,"[-0.04532630069301791,-0.015624956554783872]",100.0,"[0.051596689268626275,-0.05547038340269143]",100.0,"[-0.11915841631212011,0.10368503336076224]",100.0,"[0.0038734472890933048,0.015361471872172787]",100.0,"[-0.016676194285751792,-0.13072074528697708]",100.0,"[0.08814881643689093,0.1347828992902123]",100.0,"[0.013700023967346108,0.17791475181228936]",4.0,"[0.035035408590419814,-0.11308578802191685]",100.0,"[0.14253260916371147,0.0014500356341515285]",100.0,"[0.016341527702221914,-0.18604538224624562]",100.0,"[-0.14583320990115883,-0.12268671409393349]",100.0,"[-0.1645204257396881,-0.009165437483903704]",100.0,"[0.02,0.02]",212.1738,0.0,42.0,42.0,9.0,1.0,,,,,,,
,,,,,,,67df19d8dfaa291bdd177c93,684428cccfb52ca9ec7bf8dd,2025-06-07_00h56.35.609,shape_ratio,2024.1.5,Win32,29.85074627,684250e4f00cb30b92d1fa88,,,,,,,,,,,212.175,212.6731,,,212.9064,213.8775,right,,,,,,,,0.6,0.939,,,,,,,212.6731,212.9063,213.8777,"[-0.020625820165834738,0.004717429048244562]",4.0,"[0.10966026690118288,-0.14872347843204725]",100.0,"[0.1156238079410413,-0.0023203897560296854]",100.0,"[-0.12352819860492292,0.0692314512972028]",100.0,"[-0.16351589069083497,0.0037415915236743494]",100.0,"[-0.0034053915235664712,-0.16995553813174855]",100.0,"[0.14806596477068143,0.09399456674803815]",100.0,"[0.18692543823528868,-0.05383841748068835]",4.0,"[0.10807677745380158,0.14016217772998338]",4.0,"[0.18300665484448903,0.00019642118803545446]",100.0,"[-0.04318253293534507,-0.07065363006639486]",100.0,"[0.03099511853727206,-0.07839728681977405]",100.0,"[-0.10349745719979837,-0.028693859594796214]",100.0,"[-0.125673510163214,-0.10132168742880228]",4.0,"[0.11131355971149638,-0.09789487226587568]",4.0,"[-0.029215629679316273,0.14739418065409116]",4.0,"[-0.04425553286672707,0.18853787850024004]",4.0,"[0.05415863062889657,-0.11187947855446789]",4.0,"[-0.03209466376920489,0.048189487436315945]",4.0,"[-0.16685212228788215,-0.044721441572682805]",100.0,"[0.024260956874997953,0.16696730607950122]",100.0,"[0.056778241153277384,-0.16379348334899715]",100.0,"[0.06488368898667313,0.06013764633191287]",100.0,"[-0.09579254948229966,0.019303255852874592]",4.0,"[-0.05007912983502981,-0.11683251218282764]",100.0,"[0.05074730172753652,-0.03073835074605719]",100.0,"[-0.0025649435584497,0.08759720425587411]",100.0,"[-0.1694283163739795,0.09553585508127513]",4.0,"[-0.117218868490249,0.16096152589048038]",4.0,"[-0.17861300964683294,0.0484767063439864]",100.0,"[-0.12296751535545028,-0.1449068852791819]",4.0,"[-0.0727503345756575,0.15983732467288084]",100.0,"[0.02,0.02]",214.9686,0.0,43.0,43.0,44.0,1.0,,,,,,,
,,,,,,,67df19d8dfaa291bdd177c93,684428cccfb52ca9ec7bf8dd,2025-06-07_00h56.35.609,shape_ratio,2024.1.5,Win32,29.85074627,684250e4f00cb30b92d1fa88,,,,,,,,,,,214.9694,215.4687,,,215.7024,215.9672,left,,,,,,,,0.6,0.236,,,,,,,215.4688,215.7023,215.9673,"[-0.09316173881162342,-0.14665623213112164]",100.0,"[0.07706654186852357,0.05828904027382149]",100.0,"[0.03529016887569361,-0.19317679203031554]",100.0,"[-0.11412310746382255,0.01297507431969669]",4.0,"[0.0004502440741435203,-0.1672533863911783]",4.0,"[-0.13076697389446756,0.07150404238155925]",100.0,"[0.11466775831604206,-0.14276518482106437]",100.0,"[0.06563967866762785,-0.08023747098984009]",4.0,"[-0.09515715898383148,-0.08206301056137505]",100.0,"[0.0626296257397593,-0.12402783819962776]",100.0,"[-0.04862000944229363,-0.1368326692122821]",100.0,"[-0.02848170893327788,0.016228367698628027]",100.0,"[0.10068093480684316,0.025553250733169972]",4.0,"[-0.03547339289651126,0.10199984866338947]",100.0,"[0.16563436140744933,0.010562320923125463]",100.0,"[0.018022430528793865,0.1627894033875364]",4.0,"[-0.09364905564071806,0.10616356840446059]",4.0,"[0.0541462246147694,0.1304686906271349]",4.0,"[0.17094586156070676,-0.04421444090915534]",100.0,"[-0.13324410858910296,-0.037987540808177706]",100.0,"[-0.01742434148850954,-0.09282492277526466]",4.0,"[-0.07306037929863524,-0.030464045080435855]",100.0,"[-0.03701906549947237,0.1632934299881604]",100.0,"[0.013957074126940354,-0.12235874329254295]",4.0,"[0.00850899516799498,-0.015861949310636694]",100.0,"[0.16156817588764996,0.0907960712190731]",100.0,"[0.1238705945860428,-0.028102401498464977]",4.0,"[0.09120388621962923,0.09940264068521333]",4.0,"[-0.07883836563905587,0.17785062183308117]",100.0,"[0.07027319624209122,-0.16947454229276487]",4.0,"[0.024210210272657434,0.027347146502842663]",100.0,"[0.026673220722878293,-0.06565560338856022]",4.0,"[0.02,0.02]",217.0659,0.0,44.0,44.0,53.0,1.0,,,,,,,
,,,,,,,67df19d8dfaa291bdd177c93,684428cccfb52ca9ec7bf8dd,2025-06-07_00h56.35.609,shape_ratio,2024.1.5,Win32,29.85074627,684250e4f00cb30b92d1fa88,,,,,,,,,,,217.0673,217.5652,,,217.7995,219.2288,left,,,,,,,,0.9,1.4026,,,,,,,217.5653,217.7993,219.2289,"[-0.1367257144831232,-0.016337346387727773]",4.0,"[0.06967944313905355,0.04449458156377885]",100.0,"[-0.060972101616052356,0.017913003491270653]",100.0,"[0.09436872425838205,-0.05613805935283492]",100.0,"[0.09119535031361348,0.08032691788267558]",100.0,"[0.024796397599666047,-0.19384050961520075]",100.0,"[0.09701352384537125,-0.15623997506788323]",100.0,"[0.017755173277968786,0.17609371453755054]",100.0,"[0.008917325226331978,-0.13368721937714895]",100.0,"[-0.02001351143838566,-0.16277945676204467]",4.0,"[0.1865184164343133,0.03390450544459235]",100.0,"[-0.1441459577428095,-0.0847622862421208]",100.0,"[-0.013117887675965976,0.04287863379732253]",100.0,"[-0.07028816404585478,-0.0900522919247393]",100.0,"[-0.09519117560867706,-0.1693650674252726]",100.0,"[-0.11130902405218861,-0.12011307420499577]",100.0,"[-0.12729712668431187,0.14787501935867667]",100.0,"[-0.03414020601513222,0.1447817125501636]",100.0,"[-0.08987427016302126,0.11433822481795278]",100.0,"[0.02218729088023248,0.007915320971610622]",100.0,"[0.1302547577344909,-0.07637515676828194]",100.0,"[-0.15310205120909437,0.0799419818699762]",100.0,"[0.1713501474136788,-0.016045827728780278]",100.0,"[-0.03735681913916063,-0.040825917562832825]",100.0,"[0.07518995473486711,0.1662924928673168]",100.0,"[-0.10097321887793309,0.06108885663518891]",100.0,"[0.08311403482700817,-0.011491922854630101]",100.0,"[-0.09544336634244849,-0.02340743987825791]",100.0,"[-0.17910822399018242,-0.05716168259368712]",100.0,"[0.1276709432748728,0.10745026636088942]",100.0,"[-0.0038507053447220073,-0.0906803281833665]",4.0,"[0.16474053486510704,-0.10880125983457793]",100.0,"[0.02,0.02]",220.3276,0.0,45.0,45.0,10.0,1.0,,,,,,,
,,,,,,,67df19d8dfaa291bdd177c93,684428cccfb52ca9ec7bf8dd,2025-06-07_00h56.35.609,shape_ratio,2024.1.5,Win32,29.85074627,684250e4f00cb30b92d1fa88,,,,,,,,,,,220.3287,220.8268,,,221.0601,222.0918,right,,,,,,,,0.45,1.0029,,,,,,,220.8269,221.06,222.092,"[-0.1308503730248524,-0.017318254214524414]",100.0,"[-0.08676579342585632,-0.07801118382139181]",100.0,"[0.04711526650301514,-0.10215596832094223]",4.0,"[-0.0957246547963244,-0.1657564483395416]",4.0,"[-0.04371297686889212,-0.03673546062415613]",100.0,"[0.1165070879993375,-0.11981758774900088]",4.0,"[-0.1438397077205855,0.023687988007191563]",100.0,"[-0.0325951386221641,0.01731995152778087]",100.0,"[-0.08044110235112208,0.037942726978146143]",100.0,"[0.010226215808787052,-0.03852814818169744]",4.0,"[0.10621840984430707,0.16478793818667556]",4.0,"[-0.04847411652596135,-0.10669083535132742]",100.0,"[0.17401047137287914,0.0122041842271794]",4.0,"[-0.0946116477475784,0.12027341877106137]",100.0,"[0.08644742775546217,0.10321427047261258]",4.0,"[-0.15767047592253894,-0.12247907710228455]",100.0,"[-0.019104150782817346,0.19042098716453093]",100.0,"[0.12306385145637037,0.052543719667424396]",4.0,"[0.06564402770988931,-0.04548069097022173]",4.0,"[-0.18999132612614789,-0.006236886535523447]",100.0,"[0.025630390079437963,0.08272987405951393]",100.0,"[0.0840705124179166,0.03930111497069781]",4.0,"[-0.011111120394025929,-0.12694071495646533]",4.0,"[-0.08946292875176984,-0.01668151722648974]",4.0,"[0.018351988326141936,0.17145954871202584]",4.0,"[-0.09242410118253203,0.16116902799589383]",4.0,"[0.04940375998101924,-0.15445395109392324]",100.0,"[0.17268928962371047,-0.05984836129002679]",4.0,"[-0.008799718580956982,-0.17356716362241065]",4.0,"[0.1193502368061048,-0.046572019599377734]",4.0,"[-0.16011504676111069,-0.07488390715332183]",100.0,"[0.04014369769104633,0.12600795106427448]",4.0,"[0.02,0.02]",223.1889,0.0,46.0,46.0,148.0,1.0,,,,,,,
,,,,,,,67df19d8dfaa291bdd177c93,684428cccfb52ca9ec7bf8dd,2025-06-07_00h56.35.609,shape_ratio,2024.1.5,Win32,29.85074627,684250e4f00cb30b92d1fa88,,,,,,,,,,,223.1899,223.6881,,,223.9221,224.9541,right,,,,,,,,0.6,1.011,,,,,,,223.6882,223.922,224.9542,"[0.10338456376073117,0.03304937909402759]",4.0,"[0.020498124150137482,0.05088802657500623]",4.0,"[0.01744744008589128,-0.16146480474814714]",100.0,"[-0.18532595946263442,-0.05124156587905666]",100.0,"[0.09349034023719278,0.10344692497127998]",4.0,"[0.06442375204714999,0.18091651982832282]",4.0,"[-0.06647894225607344,0.10190083911523751]",100.0,"[0.09820959493337839,-0.08406760185199627]",100.0,"[-0.1685255129478418,-0.005658001481177196]",4.0,"[-0.11958983573894881,-0.1293707972632513]",100.0,"[-0.1210234820645844,0.03915119957235804]",100.0,"[-0.08817215594155098,-0.15837422925575692]",4.0,"[0.1109509937121914,0.162375808333954]",4.0,"[-0.0636249263414687,-0.06511428615501919]",100.0,"[0.011922539810142603,0.10236852123813424]",4.0,"[0.04780313462885139,-0.12665392163857053]",100.0,"[0.08303959110909048,-0.15707306387327516]",4.0,"[-0.17706583215010863,0.07648299572529102]",4.0,"[0.11691566060219388,-0.02981962125747016]",100.0,"[-0.020659734750058674,-0.049856127370540355]",100.0,"[0.04913804812526835,-0.015907695312476974]",100.0,"[0.13829158986357487,-0.08092995274600476]",4.0,"[0.1928144410016114,-0.044037642452236625]",100.0,"[-0.033738019096279194,0.0521713821723097]",4.0,"[0.12807840138719337,-0.12779364769509322]",100.0,"[0.02248291459714266,-0.050375627947233236]",100.0,"[-0.029515056125019395,0.18057529467549804]",100.0,"[-0.19646061727268782,0.022985377526371496]",100.0,"[0.1382501108784331,0.120090015116726]",100.0,"[-0.02879546783939061,-0.17194103091882623]",100.0,"[0.035234803966751944,0.1516039959964368]",100.0,"[0.14378295878994538,0.029370334866278297]",4.0,"[0.02,0.02]",226.0515,0.0,47.0,47.0,46.0,1.0,,,,,,,
,,,,,,,67df19d8dfaa291bdd177c93,684428cccfb52ca9ec7bf8dd,2025-06-07_00h56.35.609,shape_ratio,2024.1.5,Win32,29.85074627,684250e4f00cb30b92d1fa88,,,,,,,,,,,226.0526,226.5505,,,226.7846,227.7837,left,,,,,,,,0.9,0.9797,,,,,,,226.5505,226.7846,227.7838,"[0.17555190684867417,-0.008476986750616084]",100.0,"[-0.005525581345035905,-0.03635529614778469]",100.0,"[-0.13606962884087873,-0.027112902212811596]",100.0,"[-0.06930135688269591,-0.04891921547931094]",100.0,"[0.04689878666809794,-0.15438020466031202]",100.0,"[0.030073497980593167,0.012850944965736981]",100.0,"[0.13198455819495394,-0.1205309995282826]",100.0,"[-0.08980961675614772,0.11918189312029505]",100.0,"[-0.09015972017449805,0.16024023832211004]",100.0,"[0.03937458012660546,0.054015605068390406]",100.0,"[-0.17652288147650796,0.05962801182699609]",100.0,"[0.0659853712482184,0.12892876945582477]",100.0,"[-0.05782686154634507,0.06861572307768735]",4.0,"[-0.05200248063539374,-0.14861172907732392]",100.0,"[0.09180999435698177,0.07871112773536446]",100.0,"[0.1368140971508783,0.03694552024484159]",100.0,"[-0.002998525619768836,0.0661626965767311]",100.0,"[0.10734004854617428,-0.046275373892468566]",100.0,"[-0.021156266083235054,0.1531060998403658]",100.0,"[-0.17890100355124366,0.016602102285341702]",4.0,"[-0.03594328857528131,0.03230716387335848]",100.0,"[0.062170614719346005,0.18251361318051396]",100.0,"[0.14613802880892732,0.0830511003779059]",100.0,"[0.07265552934920712,-0.023759334097106132]",100.0,"[-0.11801145192945932,0.04949000466521272]",100.0,"[-0.18360934058956957,-0.07490703558152546]",100.0,"[0.11487322753319537,-0.0025221881828348326]",100.0,"[0.024968620438205344,0.15781366122617085]",4.0,"[-0.054925585403020206,0.18019455039607832]",100.0,"[-0.11742307639059957,-0.12199608401485712]",100.0,"[0.02408604458815184,-0.10240194358084116]",100.0,"[0.035482289190602465,-0.04768829077580933]",100.0,"[0.02,0.02]",228.8808,0.0,48.0,48.0,4.0,1.0,,,,,,,
,,,,,,,67df19d8dfaa291bdd177c93,684428cccfb52ca9ec7bf8dd,2025-06-07_00h56.35.609,shape_ratio,2024.1.5,Win32,29.85074627,684250e4f00cb30b92d1fa88,,,,,,,,,,,228.8821,229.3801,,,229.6134,230.0453,right,,,,,,,,0.55,0.4117,,,,,,,229.3802,229.6133,230.0455,"[0.18501936130982258,-0.0006858264557328415]",100.0,"[-0.08069868690187199,0.08344544423841758]",100.0,"[-0.0837869298307431,-0.025827001407053757]",100.0,"[-0.10050310276994046,0.16787651248533694]",4.0,"[0.13927833577999166,0.043489186621421136]",4.0,"[0.12307085146178495,0.15718276188837957]",100.0,"[0.08267168438180189,-0.0516868177265323]",4.0,"[0.0961592469066977,0.0871798520623689]",100.0,"[0.008516967613541449,0.033342779215320424]",100.0,"[0.0694487403297316,0.14651688028544654]",100.0,"[0.058232056455110134,-0.17041334985441395]",100.0,"[-0.12732629387269673,0.06537594747474634]",100.0,"[-0.05910710646235792,0.17279523151154336]",4.0,"[-0.08251374112508587,0.01785429019863836]",100.0,"[-0.020414066463431232,0.08221983496862022]",4.0,"[0.15662612676514076,0.10603874727663669]",4.0,"[-0.01926905404487344,0.19268436331427158]",100.0,"[-0.1765337428102244,0.09213183636779215]",4.0,"[-0.016507526630303908,-0.050940492544396206]",100.0,"[0.00437343221509259,0.15470215723437364]",100.0,"[0.06161720884803645,0.051984693462185594]",4.0,"[0.1437528042142665,-0.050078023774322966]",100.0,"[0.09525251162189066,-0.006111814289581683]",4.0,"[-0.16833802966708036,0.05249623946379115]",4.0,"[-0.041457328499494184,0.1304657188790416]",100.0,"[-0.04501120346312424,-0.15374307321282263]",4.0,"[-0.16946667148087113,-0.014880392103727241]",4.0,"[0.09311008055899989,-0.14945579786049626]",100.0,"[-0.008015759185290919,-0.1383257115695951]",4.0,"[-0.10079595629541804,-0.13910818614521306]",100.0,"[-0.15900033474852604,-0.07962632159511096]",100.0,"[0.03838107327287177,0.08946488166292137]",4.0,"[0.02,0.02]",231.144,0.0,49.0,49.0,65.0,1.0,,,,,,,
