right,left,explain.started,explain.stopped,key_resp_3.keys,key_resp_3.rt,key_resp_3.duration,participant,session,date,expName,psychopyVersion,OS,frameRate,study_id,explain_2.started,explain_2.stopped,key_resp_4.keys,key_resp_4.rt,key_resp_4.duration,explain_3.started,explain_3.stopped,key_resp_5.keys,key_resp_5.rt,key_resp_5.duration,fixation.started,fixation.stopped,practice.started,practice.stopped,response.started,response.stopped,key_resp.keys,feedback.started,feedback.stopped,trials_2.thisRepN,trials_2.thisTrialN,trials_2.thisN,trials_2.thisIndex,trials_2.ran,dot_ratio,key_resp.rt,key_resp.duration,explain_4.started,explain_4.stopped,key_resp_6.keys,key_resp_6.rt,key_resp_6.duration,dotDisplay.started,dotDisplay.stopped,ITI.started,polygon_1.pos,polygon_1.edges,polygon_2.pos,polygon_2.edges,polygon_3.pos,polygon_3.edges,polygon_4.pos,polygon_4.edges,polygon_5.pos,polygon_5.edges,polygon_6.pos,polygon_6.edges,polygon_7.pos,polygon_7.edges,polygon_8.pos,polygon_8.edges,polygon_9.pos,polygon_9.edges,polygon_10.pos,polygon_10.edges,polygon_11.pos,polygon_11.edges,polygon_12.pos,polygon_12.edges,polygon_13.pos,polygon_13.edges,polygon_14.pos,polygon_14.edges,polygon_15.pos,polygon_15.edges,polygon_16.pos,polygon_16.edges,polygon_17.pos,polygon_17.edges,polygon_18.pos,polygon_18.edges,polygon_19.pos,polygon_19.edges,polygon_20.pos,polygon_20.edges,polygon_21.pos,polygon_21.edges,polygon_22.pos,polygon_22.edges,polygon_23.pos,polygon_23.edges,polygon_24.pos,polygon_24.edges,polygon_25.pos,polygon_25.edges,polygon_26.pos,polygon_26.edges,polygon_27.pos,polygon_27.edges,polygon_28.pos,polygon_28.edges,polygon_29.pos,polygon_29.edges,polygon_30.pos,polygon_30.edges,polygon_31.pos,polygon_31.edges,polygon_32.pos,polygon_32.edges,dot_size,ITI.stopped,trials.thisRepN,trials.thisTrialN,trials.thisN,trials.thisIndex,trials.ran,break_2.started,break_2.stopped,trials_3.thisRepN,trials_3.thisTrialN,trials_3.thisN,trials_3.thisIndex,trials_3.ran
subject chose diamond,subject chose dot,0.0,19.815,space,4.809,,67e1881ee6545fb8e1e7ade8,6844293b0701eca7405afcb9,2025-06-07_05h02.02.722,shape_ratio,2024.1.5,Win32,59.95203837,684250e4f00cb30b92d1fa88,,,,,,,,,,,,,,,,,,,,,,,,,,,,,,,,,,,,,,,,,,,,,,,,,,,,,,,,,,,,,,,,,,,,,,,,,,,,,,,,,,,,,,,,,,,,,,,,,,,,,,,,,,,,,,,,,
,,,,,,,67e1881ee6545fb8e1e7ade8,6844293b0701eca7405afcb9,2025-06-07_05h02.02.722,shape_ratio,2024.1.5,Win32,59.95203837,684250e4f00cb30b92d1fa88,19.816,526.416,space,476.58,,,,,,,,,,,,,,,,,,,,,,,,,,,,,,,,,,,,,,,,,,,,,,,,,,,,,,,,,,,,,,,,,,,,,,,,,,,,,,,,,,,,,,,,,,,,,,,,,,,,,,,,,,,,,
,,,,,,,67e1881ee6545fb8e1e7ade8,6844293b0701eca7405afcb9,2025-06-07_05h02.02.722,shape_ratio,2024.1.5,Win32,59.95203837,684250e4f00cb30b92d1fa88,,,,,,526.417,547.51,space,18.074,,,,,,,,,,,,,,,,,,,,,,,,,,,,,,,,,,,,,,,,,,,,,,,,,,,,,,,,,,,,,,,,,,,,,,,,,,,,,,,,,,,,,,,,,,,,,,,,,,,,,,,,
,,,,,,,67e1881ee6545fb8e1e7ade8,6844293b0701eca7405afcb9,2025-06-07_05h02.02.722,shape_ratio,2024.1.5,Win32,59.95203837,684250e4f00cb30b92d1fa88,,,,,,,,,,,547.536,548.026,548.026,548.279,548.279,549.775,,549.775,550.875,0.0,0.0,0.0,1.0,1.0,0.8,,,,,,,,,,,,,,,,,,,,,,,,,,,,,,,,,,,,,,,,,,,,,,,,,,,,,,,,,,,,,,,,,,,,,,,,,,,,,,,,,,,,,,,,
,,,,,,,67e1881ee6545fb8e1e7ade8,6844293b0701eca7405afcb9,2025-06-07_05h02.02.722,shape_ratio,2024.1.5,Win32,59.95203837,684250e4f00cb30b92d1fa88,,,,,,,,,,,550.876,551.374,551.375,551.626,551.626,551.76,right,551.761,552.858,0.0,1.0,1.0,0.0,1.0,0.2,0.117,,,,,,,,,,,,,,,,,,,,,,,,,,,,,,,,,,,,,,,,,,,,,,,,,,,,,,,,,,,,,,,,,,,,,,,,,,,,,,,,,,,,,,,
,,,,,,,67e1881ee6545fb8e1e7ade8,6844293b0701eca7405afcb9,2025-06-07_05h02.02.722,shape_ratio,2024.1.5,Win32,59.95203837,684250e4f00cb30b92d1fa88,,,,,,,,,,,,,,,,,,,,,,,,,,,,552.858,610.11,space,54.23,,,,,,,,,,,,,,,,,,,,,,,,,,,,,,,,,,,,,,,,,,,,,,,,,,,,,,,,,,,,,,,,,,,,,,,,,,,,,,,,,,
,,,,,,,67e1881ee6545fb8e1e7ade8,6844293b0701eca7405afcb9,2025-06-07_05h02.02.722,shape_ratio,2024.1.5,Win32,59.95203837,684250e4f00cb30b92d1fa88,,,,,,,,,,,610.143,610.626,,,610.878,611.076,left,,,,,,,,0.55,0.184,,,,,,,610.626,610.877,611.076,"[-0.12483339476737634,-0.022046182572257374]",4.0,"[-0.12400196275759313,0.07699074576261997]",100.0,"[-0.08349528290727416,-0.0947227435688512]",100.0,"[0.06684689328023555,-0.009180342342476515]",4.0,"[-0.12684675453125588,-0.06553231536388454]",100.0,"[-0.026963783208069275,-0.04472157516667397]",4.0,"[0.0302111151643332,-0.1460788966483092]",4.0,"[-0.16796567669029483,0.07800254840424185]",100.0,"[-0.15843078061484192,0.00888913786142331]",100.0,"[-0.10543170261088596,0.15747714123150788]",4.0,"[0.08552842601689879,0.034967188504755525]",4.0,"[0.11838777173439086,-0.07920898680525625]",100.0,"[-0.031589670172758516,-0.1779352311204049]",4.0,"[0.09261343042126072,-0.15984680637353146]",4.0,"[0.08148287060248546,0.10140032854286257]",100.0,"[-0.1137929659330915,0.027176025749817676]",4.0,"[0.023203292056092874,0.12811777267946453]",100.0,"[0.12678073164316428,-0.12843543412430738]",100.0,"[-0.11375337204305408,-0.16137500832893384]",4.0,"[0.17171481826094168,-0.08493483817877488]",4.0,"[-0.004861637979309177,0.0867823966291708]",100.0,"[-0.03281757136541125,0.13836614718188167]",4.0,"[0.11264230389213634,-0.02824530505368064]",100.0,"[-0.13403116788545327,-0.11584519119391072]",100.0,"[-0.03185401589475385,0.032105352659772476]",4.0,"[0.1644262313738066,0.009334012314949952]",4.0,"[0.19252949468949485,0.052579470798304544]",100.0,"[-0.18083101666157358,-0.05067456803842094]",100.0,"[0.07084386361985966,0.14448763663823003]",100.0,"[0.13490658538004638,0.08707575262310904]",100.0,"[0.12540668676285494,0.14975054925619785]",100.0,"[0.03263197850867777,-0.052667215065207044]",100.0,"[0.02,0.02]",612.175,0.0,0.0,0.0,62.0,1.0,,,,,,,
,,,,,,,67e1881ee6545fb8e1e7ade8,6844293b0701eca7405afcb9,2025-06-07_05h02.02.722,shape_ratio,2024.1.5,Win32,59.95203837,684250e4f00cb30b92d1fa88,,,,,,,,,,,612.176,612.675,,,612.928,613.375,left,,,,,,,,0.45,0.435,,,,,,,612.675,612.928,613.375,"[0.14897433976047325,-0.045742709004999285]",4.0,"[-0.14651445824897347,0.03537244543595453]",4.0,"[0.11744976672431326,0.12933036936056505]",4.0,"[0.10557729690428289,-0.05037550604420248]",4.0,"[-0.12688134957875746,-0.15152486811300214]",100.0,"[-0.03706854163976344,-0.115735083480118]",100.0,"[0.022321417874074014,0.10389134093283701]",4.0,"[0.040642821533533664,-0.19130364388013324]",100.0,"[0.06727931816884417,0.06338235456048813]",100.0,"[0.19130569598940322,0.02310982137869794]",100.0,"[0.12289112323343135,-0.011993208473917745]",4.0,"[0.1670416815300868,-0.10728466035871816]",100.0,"[0.054605650417042594,-0.06008141166726154]",100.0,"[0.024214183905575577,0.02788063865676182]",100.0,"[0.11126232883509696,-0.1163529630505643]",4.0,"[0.02824403395847118,0.16776471289814288]",4.0,"[0.08106028481354402,0.14607673380874173]",4.0,"[-0.0945794946698922,-0.06751700578549222]",4.0,"[-0.10398188188844748,0.1532974339566968]",100.0,"[-0.09331931531407231,0.058001567688207245]",4.0,"[0.07552949184780797,-0.1579936892880588]",4.0,"[-0.06631546321655879,0.027598200467255293]",100.0,"[-0.017286930791043504,0.1244287480672399]",4.0,"[-0.01833427682196306,0.06668323395780808]",100.0,"[-0.065053669947041,0.18697920287821676]",4.0,"[0.14226628494173157,0.05521919215590965]",4.0,"[-0.08111460583582752,-0.13382580179223444]",100.0,"[-0.011331215319226142,-0.017581530340767208]",100.0,"[-0.15113134282488763,-0.0951802739935693]",4.0,"[-0.05397698070943173,0.10699980384470095]",4.0,"[0.06383705934750952,-0.011851094651952273]",4.0,"[-0.1837829008574688,-0.022301538646726123]",100.0,"[0.02,0.02]",614.475,0.0,1.0,1.0,146.0,1.0,,,,,,,
,,,,,,,67e1881ee6545fb8e1e7ade8,6844293b0701eca7405afcb9,2025-06-07_05h02.02.722,shape_ratio,2024.1.5,Win32,59.95203837,684250e4f00cb30b92d1fa88,,,,,,,,,,,614.475,614.974,,,615.225,615.808,left,,,,,,,,0.6,0.567,,,,,,,614.975,615.225,615.808,"[-0.06832022475720634,0.06001280574259571]",4.0,"[-0.07599865626750414,-0.004059029025856159]",100.0,"[0.05161627843647671,0.19188577204325885]",100.0,"[0.08269334799674011,-0.0969686412302186]",4.0,"[0.1638393006393167,-0.021940193317730807]",4.0,"[-0.09450453984380515,-0.1574236738289445]",100.0,"[0.011635815136807422,0.1721211724336883]",100.0,"[-0.09329604390902899,0.10911264155562306]",100.0,"[0.05296308769391419,-0.12601038350699403]",4.0,"[-0.03065256099530891,0.11008478237638684]",4.0,"[0.12685490878798136,0.12770120182530148]",100.0,"[0.1560337917561816,0.0338422597441532]",100.0,"[0.15997320644475635,-0.08249832067353621]",4.0,"[-0.008122200452099172,-0.18229309377469616]",4.0,"[0.034157313214688484,0.13425207304196962]",4.0,"[-0.18932797872237023,-0.06407331830616607]",4.0,"[-0.04789822013656521,-0.1253844931909293]",100.0,"[-0.13690432216723916,0.0894759575205707]",100.0,"[0.07514248441025331,0.02876848834505213]",100.0,"[0.07671472600768293,-0.170561750475243]",100.0,"[-0.015081411330059594,0.01802200368343089]",100.0,"[-0.1513830965123278,-0.11358484270878681]",100.0,"[-0.1855798902046458,0.07355701561435044]",4.0,"[0.0875447293745017,0.13774938127840064]",4.0,"[-0.09034215338658971,0.1573707938586208]",4.0,"[0.16107196359720186,0.0850094692453304]",4.0,"[-0.07048312083892394,-0.09179773921755469]",100.0,"[-0.1123564132346266,0.04945166166244709]",100.0,"[0.12743828490850098,-0.04046669241051577]",100.0,"[-0.12343975696445417,-0.012376036071828186]",100.0,"[0.004122662800067521,-0.029914436662085347]",100.0,"[-0.17713902602100212,-0.02308559151095466]",100.0,"[0.02,0.02]",616.908,0.0,2.0,2.0,39.0,1.0,,,,,,,
,,,,,,,67e1881ee6545fb8e1e7ade8,6844293b0701eca7405afcb9,2025-06-07_05h02.02.722,shape_ratio,2024.1.5,Win32,59.95203837,684250e4f00cb30b92d1fa88,,,,,,,,,,,616.908,617.407,,,617.658,617.94,right,,,,,,,,0.1,0.272,,,,,,,617.407,617.657,617.94,"[-0.14567908683729125,0.009977379842006123]",4.0,"[-0.05775826169801172,-0.03873321152115231]",4.0,"[-0.009784836319085215,-0.15475224039816002]",4.0,"[0.006298794169359093,0.05730011318905241]",4.0,"[-0.10999189980830298,0.10907424187001018]",100.0,"[0.16434590877652203,-0.024617798138490115]",4.0,"[-0.02739655931857097,-0.09947215402817278]",4.0,"[0.09587853219747465,-0.02986772032741107]",100.0,"[0.00003138700170915838,0.1563655995678167]",4.0,"[-0.09969196142836008,-0.16196791197117294]",4.0,"[0.0781915784365712,0.04347677699954539]",4.0,"[0.11187639008419689,0.07538465931354729]",4.0,"[-0.18184250570789723,0.07110334250470086]",4.0,"[0.09546663899577226,-0.10121237153411432]",4.0,"[0.1676355337739259,0.0893881474804346]",4.0,"[0.16486948145991626,-0.07894666055415571]",4.0,"[0.044844291674130864,-0.025562129574169024]",4.0,"[0.07828230875146582,-0.13928631313172724]",4.0,"[-0.0635000919752891,-0.18396676152450198]",4.0,"[-0.10167154298349163,-0.08413011251427227]",4.0,"[0.06649143203691701,-0.07352562444010892]",4.0,"[-0.1605331151664806,0.10587636502798004]",4.0,"[-0.11944401259285192,0.05216241753222113]",4.0,"[-0.0869216392965913,-0.005344143473152866]",4.0,"[-0.06389301611882844,0.18722207818783776]",4.0,"[-0.03702971304627108,0.12760288518558638]",4.0,"[0.013830781947066982,-0.11573984442865777]",4.0,"[0.06889144212121037,0.08326730944849821]",4.0,"[-0.16176684503455682,-0.04684344317762189]",4.0,"[-0.010449146862066222,-0.00037685544569168543]",4.0,"[-0.06296455742314189,0.028402460983438325]",100.0,"[0.13473218962325947,0.1310593307505642]",4.0,"[0.02,0.02]",619.041,0.0,3.0,3.0,190.0,1.0,,,,,,,
,,,,,,,67e1881ee6545fb8e1e7ade8,6844293b0701eca7405afcb9,2025-06-07_05h02.02.722,shape_ratio,2024.1.5,Win32,59.95203837,684250e4f00cb30b92d1fa88,,,,,,,,,,,619.041,619.54,,,619.791,620.607,left,,,,,,,,0.9,0.799,,,,,,,619.54,619.791,620.607,"[-0.18772761645300526,0.044423805986010895]",4.0,"[0.10348567520111254,-0.12168992235283872]",100.0,"[-0.1293276487226464,-0.14570367449739666]",100.0,"[0.17491416285024503,0.01694163256984865]",100.0,"[-0.05875518498261763,0.18947919735321828]",100.0,"[0.0521642658355087,-0.03939929267913666]",100.0,"[-0.01759884583221025,-0.1688957258015345]",100.0,"[0.04804315900118641,0.06617460512827297]",100.0,"[0.10193516444878459,-0.07075739985094695]",100.0,"[0.16687059649753297,0.10560800833309043]",100.0,"[-0.09704364932735264,-0.07674734089010557]",100.0,"[0.12931673609040603,0.05443567704657336]",100.0,"[-0.017309989386156233,-0.11302552516480593]",100.0,"[-0.17403083182403908,-0.02461121230707795]",100.0,"[0.005768204834684388,0.050941233029285826]",100.0,"[-0.04929895228397665,-0.08598406993415766]",100.0,"[-0.12117587917533802,0.13745345736636244]",100.0,"[0.13412442929843119,-0.026344501638926772]",100.0,"[0.023141611339276374,0.09772832113839003]",100.0,"[-0.10941383857500321,-0.0065527986364394]",100.0,"[-0.10873140225863698,0.09057005765462059]",100.0,"[-0.023880299729480105,0.11727140908352747]",100.0,"[-0.0853401304274488,-0.12212005995800283]",100.0,"[-0.035055667170715676,0.04882701094536337]",100.0,"[-0.05695693818422846,-0.007957172124852696]",100.0,"[0.11267155681572877,0.15605060898069117]",4.0,"[0.057644407785155775,0.02291061612375623]",100.0,"[0.045535612860484624,-0.1744437455209043]",4.0,"[0.10103638809017236,0.10531643769868543]",100.0,"[0.14288969007360927,-0.09411763475199428]",100.0,"[0.061993338958146633,0.1867598284535313]",100.0,"[-0.1642492633587103,-0.08849651901766074]",100.0,"[0.02,0.02]",621.706,0.0,4.0,4.0,0.0,1.0,,,,,,,
,,,,,,,67e1881ee6545fb8e1e7ade8,6844293b0701eca7405afcb9,2025-06-07_05h02.02.722,shape_ratio,2024.1.5,Win32,59.95203837,684250e4f00cb30b92d1fa88,,,,,,,,,,,621.708,622.207,,,622.457,622.689,right,,,,,,,,0.1,0.219,,,,,,,622.207,622.457,622.689,"[-0.12177915272429272,-0.0005695815253442927]",4.0,"[0.04431490306974364,-0.16068799561594022]",100.0,"[-0.02067728003630218,-0.0359817075116715]",100.0,"[0.04526093561213696,-0.06094019892298196]",4.0,"[0.1356542386035035,-0.09209775500687305]",4.0,"[0.0013703667579389803,0.07603462569718832]",4.0,"[0.1686240214435005,0.05113867659460984]",4.0,"[-0.16682111782847278,0.04519831257084345]",4.0,"[0.18965823152970013,0.004427102677484724]",4.0,"[0.004811753316863619,-0.13203649718175428]",4.0,"[0.16103257306001748,-0.03431635277885703]",4.0,"[-0.09017490538734697,0.03133614842277507]",4.0,"[0.025720668587562535,0.006376491583156402]",4.0,"[0.12380131604481982,-0.0023386014976062076]",4.0,"[0.12131263735597955,-0.14714985625653162]",4.0,"[0.048839164092938994,0.08310701485110582]",4.0,"[-0.17257028889805856,0.08585103081038704]",4.0,"[-0.17599694910600397,-0.009954043515441638]",4.0,"[0.11195005302459192,0.14961893961994652]",4.0,"[-0.13270317993956032,0.14012444021122847]",4.0,"[-0.05849001085079806,-0.15892164177331194]",4.0,"[-0.09239147203890509,0.0834498005594331]",4.0,"[-0.069180411391266,-0.0163125552492653]",4.0,"[-0.0066878511377096985,-0.18943573880532977]",4.0,"[-0.07283052534252044,-0.10638828893695898]",4.0,"[0.09398747707393625,-0.0897988516847933]",4.0,"[0.17560575917683333,-0.07460671033726313]",100.0,"[-0.03566133253618294,0.05901040227321215]",4.0,"[0.09456199537246579,0.03821417737899441]",4.0,"[0.15352521067547623,0.10383127385794692]",4.0,"[0.0559084759866932,0.12858315030790027]",4.0,"[-0.044649438556929544,0.12474297313576357]",4.0,"[0.02,0.02]",623.789,0.0,5.0,5.0,182.0,1.0,,,,,,,
,,,,,,,67e1881ee6545fb8e1e7ade8,6844293b0701eca7405afcb9,2025-06-07_05h02.02.722,shape_ratio,2024.1.5,Win32,59.95203837,684250e4f00cb30b92d1fa88,,,,,,,,,,,623.79,624.289,,,624.539,625.071,left,,,,,,,,0.4,0.517,,,,,,,624.289,624.539,625.072,"[-0.14424338092077493,0.002617110834043523]",4.0,"[-0.029842360061340206,0.03405811823502543]",4.0,"[0.0783172607637492,0.012600463401086136]",100.0,"[-0.023457686533717114,0.0945456655919695]",100.0,"[0.16100742694860018,-0.10688930975836403]",4.0,"[-0.08064469255020246,0.1620521763186364]",100.0,"[0.16904471413065775,0.02477627305855601]",4.0,"[-0.17582610185577624,0.09360235169040237]",4.0,"[-0.08643390210038879,0.0846129498135505]",100.0,"[0.1517807954136217,0.09769673608335296]",100.0,"[0.10409960435926696,0.11698636910718199]",100.0,"[0.13111784807296523,0.06017523120094061]",100.0,"[0.006039611705499318,-0.1946333117621221]",4.0,"[0.02993509536195465,0.09759572455332241]",4.0,"[0.003089243496391019,0.13574663928833494]",4.0,"[0.04811088524517793,-0.053674891750919135]",4.0,"[0.050873484538584056,0.15107895199372368]",4.0,"[-0.06188851749599089,-0.1741319586798167]",4.0,"[0.13072536192785492,-0.014763021801109779]",100.0,"[-0.038808753865306196,-0.09592130236604329]",4.0,"[0.08713798425702361,-0.04321097922483553]",4.0,"[-0.13201811163061583,0.04575707561886649]",4.0,"[-0.12396859344473139,-0.15501899764035024]",100.0,"[0.09323482187936183,-0.11622353411618677]",4.0,"[-0.09386872237115869,-0.10497886238794904]",4.0,"[0.024637851364776576,-0.12475156594893343]",4.0,"[0.01915209868196909,0.03585296430688357]",4.0,"[-0.08524643842789743,0.014145771503678914]",100.0,"[-0.05453104337682464,0.12293699560098047]",100.0,"[-0.12923178393165058,0.09227921255093913]",4.0,"[-0.028695746280501276,0.16293465734203647]",100.0,"[-0.05269854393956907,-0.01686867107236619]",100.0,"[0.02,0.02]",626.171,0.0,6.0,6.0,167.0,1.0,,,,,,,
,,,,,,,67e1881ee6545fb8e1e7ade8,6844293b0701eca7405afcb9,2025-06-07_05h02.02.722,shape_ratio,2024.1.5,Win32,59.95203837,684250e4f00cb30b92d1fa88,,,,,,,,,,,626.172,626.672,,,626.922,627.554,left,,,,,,,,0.1,0.616,,,,,,,626.672,626.922,627.554,"[-0.10296290148082146,0.16257292729507472]",4.0,"[-0.08739109242462029,-0.002520220837110842]",100.0,"[0.13419219085346656,0.11109343011297076]",4.0,"[0.16743046997702693,-0.06426319131724084]",4.0,"[0.09344407120622962,0.07835829303122133]",4.0,"[0.047906690374215306,-0.16429866711908966]",4.0,"[-0.06843280672746851,-0.046031156514321867]",4.0,"[-0.03744659514508086,0.07572894828107093]",4.0,"[0.19165331896709964,-0.007190133658080072]",100.0,"[-0.06378884638891773,-0.10847537261144857]",4.0,"[0.05015945800454952,0.11504648922088316]",4.0,"[0.14348638172407274,0.023901587385581777]",4.0,"[0.026657277049085052,-0.02426204787890388]",4.0,"[0.08970283956110067,-0.15781748178077254]",4.0,"[-0.15400741609269147,-0.024009135382075948]",4.0,"[0.04096553273543589,-0.09518902967065662]",4.0,"[-0.10024117386307037,0.07796795763384558]",4.0,"[-0.006482432283652526,0.19916142874928175]",100.0,"[0.05422843457005558,-0.05702488157477446]",4.0,"[-0.009018881417622858,-0.0010892389847105028]",4.0,"[-0.11309217999937708,0.02937391278580522]",4.0,"[0.03354964973542355,0.059593714386648206]",4.0,"[-0.17618597333424124,0.07427541051311393]",4.0,"[0.09356615072625304,0.03207649951364396]",4.0,"[-0.01190832114091587,-0.18336241388512764]",4.0,"[-0.018868369025260692,-0.08885837320582911]",4.0,"[0.10577613963443937,-0.061040151728616834]",4.0,"[-0.007250695954150414,0.04937530201023047]",4.0,"[0.14714701142419753,-0.10633791713267608]",4.0,"[0.11100151012365686,0.16397818196686031]",4.0,"[-0.1768918693334688,-0.0732309570218018]",4.0,"[-0.07622743077133197,0.13221373820414317]",4.0,"[0.02,0.02]",628.654,0.0,7.0,7.0,181.0,1.0,,,,,,,
,,,,,,,67e1881ee6545fb8e1e7ade8,6844293b0701eca7405afcb9,2025-06-07_05h02.02.722,shape_ratio,2024.1.5,Win32,59.95203837,684250e4f00cb30b92d1fa88,,,,,,,,,,,628.655,629.154,,,629.404,629.838,right,,,,,,,,0.55,0.418,,,,,,,629.154,629.404,629.838,"[-0.009762612204625917,0.17320114120778274]",4.0,"[0.03993656070093424,-0.001407727604500917]",100.0,"[-0.01774388129160133,-0.1453504439935874]",100.0,"[-0.06644965116972111,-0.18501707169201712]",100.0,"[0.1295128243258003,0.008257912136150847]",100.0,"[-0.13826239471487467,-0.03641136049434925]",100.0,"[-0.06479007090245573,0.16278618704247777]",4.0,"[-0.06666464903888213,0.049793367555173704]",4.0,"[0.042354345109579555,-0.062200244310027915]",4.0,"[-0.09252041559557819,-0.03638508093836249]",100.0,"[0.15536998380830125,-0.05154565928608183]",100.0,"[-0.10860858593127795,-0.1424041747893148]",100.0,"[0.12543545527472472,0.053756501676335326]",100.0,"[0.014961678480721188,-0.09804128267143124]",4.0,"[-0.07204454715624457,-0.09515307592291124]",4.0,"[-0.18283434991062225,0.0793891641995213]",100.0,"[0.16603372668457994,0.03003055004301499]",4.0,"[-0.15942588651182932,0.02194995151205026]",4.0,"[-0.19270532964260492,-0.02334679266751725]",100.0,"[0.04927895945721332,0.1451332653428141]",100.0,"[0.014180529642526179,0.09728010058924948]",4.0,"[0.00794124497499298,0.03466835948436362]",100.0,"[0.08532524142444678,-0.08424832033436837]",100.0,"[0.07034135358270355,0.02489491054697166]",100.0,"[0.11734918430965799,-0.15938331474767897]",4.0,"[-0.020717893867997217,-0.014220200006163572]",100.0,"[-0.05679086097330893,-0.057433694722682664]",100.0,"[-0.09194210438740073,0.13252858435036852]",4.0,"[0.052332063656521405,-0.13686203903871133]",4.0,"[-0.1728565766401261,-0.08490283993905962]",4.0,"[0.14495478817656493,0.11765168430867431]",4.0,"[0.021491606086944462,-0.1739206304598972]",100.0,"[0.02,0.02]",630.937,0.0,8.0,8.0,69.0,1.0,,,,,,,
,,,,,,,67e1881ee6545fb8e1e7ade8,6844293b0701eca7405afcb9,2025-06-07_05h02.02.722,shape_ratio,2024.1.5,Win32,59.95203837,684250e4f00cb30b92d1fa88,,,,,,,,,,,630.938,631.436,,,631.688,632.454,left,,,,,,,,0.45,0.75,,,,,,,631.436,631.687,632.454,"[-0.027807433441663112,0.00901974344368063]",4.0,"[0.07867660579252778,0.17853730621013786]",4.0,"[-0.17923528680849185,-0.009775770967883273]",4.0,"[-0.12148729242903787,-0.14025252197238558]",4.0,"[-0.07801476067980713,0.16775959979102945]",100.0,"[-0.15814838008504523,0.04638069646350113]",100.0,"[0.13890965277403197,0.1281991132673662]",4.0,"[0.11986472612029622,0.0599855120810973]",100.0,"[0.0756028673981638,-0.17952586273662624]",100.0,"[-0.029522415587096926,0.0636531001332297]",100.0,"[-0.008219609356631892,-0.06816866993912354]",4.0,"[-0.11352741725779031,-0.005061175734126647]",4.0,"[0.09967422837918302,-0.0321243022568044]",100.0,"[-0.10177136185880385,0.03383862824974905]",4.0,"[-0.16486745572256595,-0.04765847622139608]",4.0,"[-0.004106564982849103,0.1490251827285809]",4.0,"[-0.10181338320953669,-0.09965207754534841]",4.0,"[-0.11559517459695885,0.0847127806024289]",4.0,"[0.043538993693672,0.049034731700247726]",4.0,"[-0.005719550310677662,-0.15444228891807898]",100.0,"[0.17183940880490312,-0.023693549901149243]",100.0,"[0.022760820297474168,-0.18625040193099962]",4.0,"[0.06016227153037606,-0.055958215811579094]",100.0,"[0.10380259466747048,-0.1184484075440176]",4.0,"[0.14358861806335557,-0.08139493722259432]",4.0,"[-0.062044731935888726,0.03906443237372543]",100.0,"[-0.17835366773482894,0.0832578151831994]",100.0,"[0.018158930257539098,-0.01236709237952216]",4.0,"[-0.04399314664618302,-0.03333108684030873]",100.0,"[0.04728107769085629,-0.1459348606907775]",4.0,"[0.00774195315459147,-0.10937170980957037]",100.0,"[-0.0997155800789477,-0.04297956763078667]",100.0,"[0.02,0.02]",633.555,0.0,9.0,9.0,121.0,1.0,,,,,,,
,,,,,,,67e1881ee6545fb8e1e7ade8,6844293b0701eca7405afcb9,2025-06-07_05h02.02.722,shape_ratio,2024.1.5,Win32,59.95203837,684250e4f00cb30b92d1fa88,,,,,,,,,,,633.556,634.054,,,634.304,634.936,right,,,,,,,,0.55,0.619,,,,,,,634.054,634.304,634.936,"[-0.14009572389564345,0.026527802243613004]",4.0,"[-0.04406350442938902,-0.1373826003871417]",100.0,"[-0.18347811358239968,-0.01996213879717175]",100.0,"[0.0706425987103059,-0.12721678836691497]",4.0,"[0.0907802215612509,-0.044560744417635266]",100.0,"[-0.11759777669134938,-0.030103267908836783]",4.0,"[0.12556413157150048,0.08988148650456271]",100.0,"[0.034113912844811974,0.1772025166834082]",4.0,"[0.02590731113007135,-0.07738361723265832]",100.0,"[-0.029890072144787935,-0.17540460507069017]",100.0,"[-0.03467392335112457,0.06641151697117537]",100.0,"[-0.026153356979498117,0.10644550005335923]",4.0,"[-0.09397649599019403,0.13431201843215615]",100.0,"[0.14622033148140254,0.05155817101742059]",4.0,"[-0.03919076574784584,0.19126891788516154]",100.0,"[-0.1416751534734313,0.1375149915817919]",4.0,"[0.17146111227241473,0.08327835580640734]",4.0,"[0.10760014802256125,0.027407167971639765]",4.0,"[-0.1636582991357184,-0.06733431317372811]",100.0,"[0.008413864031192413,0.013777543813948344]",4.0,"[-0.05452539103185867,-0.09584658476206338]",100.0,"[0.12375226302832666,-0.11032567910982577]",100.0,"[-0.10429784259712294,0.07518060948193576]",100.0,"[0.0727892456886041,0.07065076324033248]",100.0,"[-0.02718970821534731,-0.03317052510158446]",100.0,"[0.058471577189705054,-0.17024661711267436]",4.0,"[-0.10307844612997161,0.01040549022370624]",100.0,"[-0.09740190530519573,-0.11611703342953128]",4.0,"[0.14888117189290867,-0.07546253101757018]",4.0,"[0.06696101641646361,-0.08437820287007095]",100.0,"[0.1690464775761709,-0.04013402311224591]",100.0,"[0.10801329121074749,0.16027782195612977]",4.0,"[0.02,0.02]",636.035,0.0,10.0,10.0,81.0,1.0,,,,,,,
,,,,,,,67e1881ee6545fb8e1e7ade8,6844293b0701eca7405afcb9,2025-06-07_05h02.02.722,shape_ratio,2024.1.5,Win32,59.95203837,684250e4f00cb30b92d1fa88,,,,,,,,,,,636.036,636.535,,,636.786,637.252,left,,,,,,,,0.9,0.451,,,,,,,636.535,636.786,637.252,"[0.17238533612618442,-0.09690820856840601]",100.0,"[0.03430526850369338,0.18299376902093142]",100.0,"[-0.15040758124638057,-0.010705196661434067]",100.0,"[-0.08421212696495156,0.1441221981772798]",100.0,"[0.013296565358762799,-0.09982616057021594]",100.0,"[-0.13061888395007265,0.09079988382504504]",100.0,"[0.05081452617919413,0.04733215652974642]",100.0,"[-0.04726645867015397,0.18129249359971747]",100.0,"[0.026848521997963355,0.09834583039807059]",4.0,"[-0.00813192504145942,0.034995511193628016]",100.0,"[0.06744706577220744,-0.13323909315179083]",4.0,"[-0.14118042050941815,-0.13260277933061246]",100.0,"[-0.10550181193655919,-0.005026281282341847]",100.0,"[0.09195784763910471,0.08646779586674685]",100.0,"[0.06905484346133124,-0.0879847399728803]",100.0,"[-0.04209132953495854,-0.09483099423262045]",100.0,"[-0.08115630222907767,-0.11289552694019475]",100.0,"[-0.05038050337687526,-0.14078337208476133]",100.0,"[-0.19170885314231648,-0.04390359556022403]",100.0,"[0.13113379385620205,-0.0011794113622118436]",100.0,"[0.03341748902472097,-0.06481340709923282]",100.0,"[-0.07228205210328181,0.065656791197398]",100.0,"[-0.07112890049560612,-0.18157438853157434]",100.0,"[0.15895171298236874,0.06683216245579737]",100.0,"[-0.024428167067873575,-0.006852069506929058]",100.0,"[0.1297090436430706,0.11917248873381983]",100.0,"[0.184917869931377,0.03324290515219806]",100.0,"[-0.11095575730594454,-0.07342856832461397]",100.0,"[0.11446331536470093,-0.11341344018554354]",100.0,"[0.13693560259760537,-0.049474978746917454]",4.0,"[0.0168906477171178,0.13745716168563887]",100.0,"[0.09279116398950159,-0.03932189950319721]",100.0,"[0.02,0.02]",638.352,0.0,11.0,11.0,14.0,1.0,,,,,,,
,,,,,,,67e1881ee6545fb8e1e7ade8,6844293b0701eca7405afcb9,2025-06-07_05h02.02.722,shape_ratio,2024.1.5,Win32,59.95203837,684250e4f00cb30b92d1fa88,,,,,,,,,,,638.353,638.852,,,639.102,639.436,right,,,,,,,,0.5,0.319,,,,,,,638.852,639.102,639.436,"[0.12490475658640082,-0.1471294838772139]",4.0,"[0.03371191565905986,-0.01331286436855325]",100.0,"[0.1422800518454939,0.03964210365011135]",100.0,"[-0.12745515660264745,0.08032695844269126]",100.0,"[-0.019004716990959913,0.0887704391783039]",100.0,"[0.18812589657042536,-0.03802486621322904]",100.0,"[-0.05041395293153491,-0.0646782446302311]",4.0,"[0.14799504709397587,-0.0926408098489461]",100.0,"[-0.19572281561490518,0.019573401735989288]",4.0,"[0.11509652265953052,0.09660743506934774]",4.0,"[-0.00841575716315719,-0.09465676838618553]",100.0,"[-0.11512781317481438,0.15169877734364323]",100.0,"[0.12024357307426739,-0.05550436070303052]",100.0,"[-0.037244453901710696,0.15837870972058044]",4.0,"[0.06677776134112269,-0.10572757120091619]",4.0,"[-0.1607991064387591,-0.018688710740021028]",4.0,"[0.09930060441577851,0.15932674056377535]",4.0,"[0.007284606801592501,0.15678148395911085]",100.0,"[-0.07859758096902957,-0.1471463993702438]",4.0,"[-0.03124914523154636,-0.002110527416387817]",4.0,"[-0.07219137271643768,0.1194782908408222]",4.0,"[-0.1171030319547555,-0.059264955025601335]",4.0,"[0.003375859489056281,0.19691390822961846]",4.0,"[-0.16467666904376493,-0.11178547458151046]",100.0,"[-0.1819054782902832,0.06011843521443577]",4.0,"[0.1692221462095686,0.06993694000536614]",4.0,"[0.049862585531085205,0.13312721879931233]",100.0,"[0.04432440684333238,-0.06221579379508113]",100.0,"[0.09863208018589695,0.0015465255605299013]",100.0,"[0.024781979506965444,0.04116050496262903]",4.0,"[0.15133255565652617,-0.009440665627576401]",100.0,"[0.05610017657288436,0.09213772835569022]",100.0,"[0.02,0.02]",640.535,0.0,12.0,12.0,90.0,1.0,,,,,,,
,,,,,,,67e1881ee6545fb8e1e7ade8,6844293b0701eca7405afcb9,2025-06-07_05h02.02.722,shape_ratio,2024.1.5,Win32,59.95203837,684250e4f00cb30b92d1fa88,,,,,,,,,,,640.541,641.034,,,641.286,641.801,right,,,,,,,,0.1,0.5,,,,,,,641.034,641.286,641.801,"[-0.09571156263928687,0.07727873759695177]",4.0,"[0.025675657158261565,0.07483344432439253]",4.0,"[-0.1600094604422347,-0.11407995631690764]",4.0,"[-0.13210632246363688,0.14916994713488185]",4.0,"[-0.13508860641401077,-0.14703445279290403]",4.0,"[0.0492627247805072,-0.010365235365931074]",4.0,"[-0.10707975998688347,0.005890422853567651]",4.0,"[-0.10363260286664298,-0.07914794572763728]",100.0,"[-0.16899791273568218,0.08911940512984871]",4.0,"[0.04604936735921122,-0.16410359093491186]",4.0,"[-0.022503724407861306,0.18430348213478268]",4.0,"[-0.19133564828256172,0.03540325706684173]",4.0,"[-0.06318822241939405,-0.12552627058552815]",4.0,"[0.11692349286664706,0.11441913531052818]",4.0,"[0.12138166253518844,0.15615259047702268]",4.0,"[0.18753982039847397,0.0266323072122789]",4.0,"[0.06650486910644925,-0.11912443668156207]",4.0,"[0.15402452942490144,-0.007295528283606632]",4.0,"[0.0791129782872735,0.0998478463184946]",4.0,"[0.05785809493706267,0.047984132801960684]",4.0,"[0.1109971443632855,-0.1401571151756736]",4.0,"[0.020931783717092776,0.14212292283913586]",4.0,"[-0.010309343085927014,-0.11955602186246]",100.0,"[0.14409071136337215,-0.09613076574486508]",4.0,"[-0.01962125209129161,0.11187177088825155]",4.0,"[-0.040736078194444476,-0.06251234999365254]",4.0,"[-0.0025437781108408187,0.004396041569620104]",4.0,"[-0.14092667650895266,-0.05685773531296021]",4.0,"[0.113379473320459,-0.01795585673745181]",4.0,"[0.0971534581244051,0.023695711804602938]",4.0,"[-0.055417739002687316,-0.16599386737442667]",100.0,"[0.15881633776648743,0.08394587708194935]",4.0,"[0.02,0.02]",642.9,0.0,13.0,13.0,184.0,1.0,,,,,,,
,,,,,,,67e1881ee6545fb8e1e7ade8,6844293b0701eca7405afcb9,2025-06-07_05h02.02.722,shape_ratio,2024.1.5,Win32,59.95203837,684250e4f00cb30b92d1fa88,,,,,,,,,,,642.901,643.401,,,643.651,644.05,right,,,,,,,,0.1,0.384,,,,,,,643.401,643.651,644.051,"[0.1899703342566969,-0.01587371325188236]",4.0,"[-0.07224177217790081,0.09861560624514087]",4.0,"[-0.10689226048344595,0.051770604957639355]",4.0,"[0.11128927947671194,-0.02128186417468953]",4.0,"[-0.11485105956463108,0.13379187011714655]",4.0,"[-0.016990480646515503,0.06373896253511441]",4.0,"[0.11113355096968401,-0.122386864888511]",4.0,"[-0.07293783484607558,-0.12321658536291692]",4.0,"[-0.15085331128533525,0.03145267169312228]",4.0,"[0.06073690413343781,0.17258651896996086]",4.0,"[0.07103534880331787,0.1282198001807294]",4.0,"[-0.10109858610742496,-0.038759299493149164]",4.0,"[0.04944222266532461,0.03267861295553437]",4.0,"[-0.03104396923358426,0.1902479339334226]",4.0,"[0.15345363325088748,0.05149324980219073]",4.0,"[0.14983298815276214,0.11973624719999712]",4.0,"[0.006146122640640461,0.1309462873551735]",100.0,"[0.039743011182623716,-0.07994359326335657]",4.0,"[-0.15346426019659007,-0.0526060761641583]",100.0,"[0.0906865075952807,-0.16121619203978413]",4.0,"[0.02553551686151923,-0.034213802423037315]",4.0,"[0.02158861202554507,0.08020535082948695]",4.0,"[-0.08319550747586989,0.016257932781177997]",4.0,"[0.08429787704976358,0.05497097829662162]",4.0,"[-0.12036652027608825,-0.15782365608677348]",4.0,"[-0.01253200145374956,-0.08798413122927065]",4.0,"[0.1590665991247021,-0.10710011307276264]",4.0,"[0.07802449405375772,-0.05107931661099297]",4.0,"[-0.06613274558544258,0.05872783786598248]",4.0,"[0.07530975550779295,-0.00109656750867927]",4.0,"[-0.05544754715451092,-0.08545325666594791]",4.0,"[0.0308725253913215,-0.1649564725035347]",100.0,"[0.02,0.02]",645.15,0.0,14.0,14.0,202.0,1.0,,,,,,,
,,,,,,,67e1881ee6545fb8e1e7ade8,6844293b0701eca7405afcb9,2025-06-07_05h02.02.722,shape_ratio,2024.1.5,Win32,59.95203837,684250e4f00cb30b92d1fa88,,,,,,,,,,,645.151,645.65,,,645.9,646.266,left,,,,,,,,0.9,0.351,,,,,,,645.65,645.9,646.266,"[0.0072816142868277174,0.18333244909563684]",100.0,"[0.14122245001514774,-0.02324488354830304]",100.0,"[-0.04756733433387486,0.09213865357497555]",100.0,"[0.06274467120251385,-0.045215327591853156]",100.0,"[-0.12585289893135504,-0.14539433247774783]",100.0,"[-0.08118292884960379,0.14750862936774262]",100.0,"[-0.03729145117607965,0.047885028456007145]",100.0,"[0.036703931273232356,0.10600311726572591]",100.0,"[0.15501246423281598,0.030102004653035388]",100.0,"[0.1796072252841144,0.07270245097636083]",4.0,"[0.1028809355171458,-0.07436110174361373]",4.0,"[0.08216875313088136,-0.16826390225148327]",100.0,"[0.07004828055720819,0.0373906335850006]",100.0,"[-0.036829963076189506,-0.12724750882255656]",100.0,"[-0.19182945033182605,-0.03613675186273541]",100.0,"[-0.07465774444800188,-0.08745725530290674]",100.0,"[0.012577469134165574,-0.03193635266593861]",100.0,"[-0.05408287302770474,-0.05235274122719917]",100.0,"[-0.183938565214587,0.007810905496419191]",100.0,"[-0.06704814478441302,-0.17140091197663657]",100.0,"[0.10443534826894678,0.1345075415797572]",100.0,"[0.09201688070010343,0.17571955064862899]",100.0,"[-0.15807586306126334,-0.08914968893828219]",100.0,"[0.016768655505231732,-0.099558251890714]",100.0,"[-0.07575424004428699,0.028348050867929492]",100.0,"[0.017659497378588972,0.07035456350230064]",100.0,"[-0.14406219155520095,0.09332811134906961]",100.0,"[0.1537846115009003,-0.12376455201843095]",4.0,"[0.021749457384628246,-0.15004516789142958]",100.0,"[0.0641062758629883,-0.12303605441256382]",100.0,"[0.15497741305588578,-0.07172428076219832]",100.0,"[0.1052483546945021,0.06065862573665843]",100.0,"[0.02,0.02]",647.373,0.0,15.0,15.0,9.0,1.0,,,,,,,
,,,,,,,67e1881ee6545fb8e1e7ade8,6844293b0701eca7405afcb9,2025-06-07_05h02.02.722,shape_ratio,2024.1.5,Win32,59.95203837,684250e4f00cb30b92d1fa88,,,,,,,,,,,647.373,647.866,,,648.116,648.382,left,,,,,,,,0.9,0.251,,,,,,,647.866,648.116,648.382,"[0.07903245502815971,0.00203568581774577]",100.0,"[-0.14964340243966767,-0.044396629752183225]",100.0,"[0.16391526317400834,0.07672091034091037]",100.0,"[0.035162438819685476,-0.09492266757568384]",100.0,"[-0.01591498477673255,-0.0677172416602026]",100.0,"[-0.10028477659779786,-0.14651137195430675]",100.0,"[-0.004958595243406927,0.06807024368186777]",100.0,"[0.09164152457383079,0.16388155231131124]",100.0,"[0.1820376564334153,-0.004978832530579481]",4.0,"[0.019583386313250968,-0.13416140903680607]",100.0,"[0.13906842083502471,-0.07022517410093754]",100.0,"[-0.0760743728856487,0.1456149955862998]",100.0,"[0.02847498466021877,0.1256237409335427]",100.0,"[-0.10398981361873733,0.10089668691622344]",100.0,"[0.12393415788626223,0.04172423677044439]",100.0,"[-0.1670149303802852,0.08208418311337477]",100.0,"[-0.12637669268105656,0.03376202879235787]",100.0,"[0.15019818075822805,-0.11003974076094006]",100.0,"[-0.04853505803162707,0.09539587018536344]",100.0,"[0.08502663721081694,-0.18082160564018035]",100.0,"[0.12431568300938949,0.09407969177230191]",100.0,"[-0.19092783061452884,-0.00926968587800798]",100.0,"[0.01984174800661153,-0.19862681349814312]",100.0,"[0.053630306512557756,0.06617303683742908]",100.0,"[0.09758504702606716,-0.0679173213161564]",100.0,"[-0.025125816948711077,-0.14701464388552554]",100.0,"[-0.06053499247322733,-0.005971281233899228]",4.0,"[0.018247901773824085,0.0007006228333942355]",100.0,"[-0.145558692405381,-0.09473242719894959]",100.0,"[0.045451128925079826,0.18857695306027947]",100.0,"[-0.09002849465059441,0.05431330378097617]",100.0,"[0.004643483377458881,0.18211233215689315]",4.0,"[0.02,0.02]",649.483,0.0,16.0,16.0,27.0,1.0,,,,,,,
,,,,,,,67e1881ee6545fb8e1e7ade8,6844293b0701eca7405afcb9,2025-06-07_05h02.02.722,shape_ratio,2024.1.5,Win32,59.95203837,684250e4f00cb30b92d1fa88,,,,,,,,,,,649.483,649.982,,,650.232,650.682,left,,,,,,,,0.6,0.438,,,,,,,649.982,650.232,650.682,"[-0.019819825435827002,0.04800306076716971]",100.0,"[-0.10340711498489606,0.08699639589279937]",100.0,"[0.1859971787595335,-0.05751565932071022]",4.0,"[0.12620284546947305,0.02534718631401329]",100.0,"[-0.08212288268810032,0.1408614606226499]",100.0,"[-0.1298118783243139,0.0009802039277742214]",4.0,"[-0.04216076807756803,0.1734507865052435]",4.0,"[0.08219058450219471,0.07772140123791747]",100.0,"[0.001957064910796429,-0.15674585912333958]",100.0,"[-0.16472246582579017,0.03740115667195877]",4.0,"[0.04697586365589308,-0.018444166275172785]",100.0,"[-0.010116576271566433,0.1043949005549716]",4.0,"[-0.08792137973359701,-0.10692061330230358]",100.0,"[0.04560500727353331,-0.11310099871829506]",100.0,"[-0.12401967972238274,-0.08851836496416624]",100.0,"[-0.027576612701764126,-0.06204956774039867]",100.0,"[-0.04732557335492797,-0.14798044297938723]",4.0,"[-0.13823143467623422,0.13480456689015544]",100.0,"[0.08472812678769039,0.013917445838495976]",4.0,"[-0.04971117718774177,0.0014039759358758326]",4.0,"[0.04401739081332622,0.1783797303346313]",4.0,"[0.13574561406923277,-0.04835782463713321]",100.0,"[0.1982930519946947,0.025055915476201628]",100.0,"[0.02190929441153165,-0.07831011519486088]",4.0,"[-0.08840023602236328,0.02954544416368682]",100.0,"[0.08880136500329416,-0.16802367617449204]",4.0,"[0.08684233725841378,-0.05524062322161006]",4.0,"[0.15914479709267637,0.11456638047340689]",100.0,"[0.05245774597967505,0.04038840875516507]",100.0,"[0.09375418498602399,0.1698053634246533]",4.0,"[0.011121598035425121,0.005401287005140339]",100.0,"[0.13453356740082031,-0.1404356619098943]",100.0,"[0.02,0.02]",651.782,0.0,17.0,17.0,32.0,1.0,,,,,,,
,,,,,,,67e1881ee6545fb8e1e7ade8,6844293b0701eca7405afcb9,2025-06-07_05h02.02.722,shape_ratio,2024.1.5,Win32,59.95203837,684250e4f00cb30b92d1fa88,,,,,,,,,,,651.782,652.281,,,652.531,652.831,right,,,,,,,,0.1,0.283,,,,,,,652.281,652.531,652.831,"[-0.019966726713729156,0.01191224289563097]",4.0,"[0.054407710435754694,-0.13009735409390202]",4.0,"[-0.008940726722123768,-0.07813769789286369]",4.0,"[-0.03582400587515523,-0.13560952224867123]",4.0,"[-0.16100230381701935,0.1062261959196168]",4.0,"[0.15265454163577133,0.12387149513682046]",4.0,"[0.05434109486916858,-0.05550617300730766]",4.0,"[0.005088890399602937,0.09860454120657462]",4.0,"[-0.10398653886876517,0.13896174567380937]",4.0,"[-0.19835960797328622,0.018813717438211607]",4.0,"[0.16911334851934026,-0.044645982475054774]",100.0,"[-0.07019476168145923,0.04538205011476483]",4.0,"[0.0411271084126046,0.140355530114983]",4.0,"[0.13888110860829003,-0.09891406138791774]",4.0,"[-0.1563979124727544,-0.10380682807590966]",4.0,"[0.08257902320196149,0.012028039824317445]",4.0,"[0.1720094997127834,0.030827735133685585]",4.0,"[0.11950874110661021,-0.025658552787710575]",4.0,"[0.025382472848226305,0.05827537807059902]",4.0,"[0.09836320399323191,-0.1415040418684571]",4.0,"[0.10620468268409179,0.12475628340293228]",4.0,"[-0.1828588102240705,0.058760177903763006]",4.0,"[-0.03559316338997986,0.07951945568612637]",4.0,"[-0.11572521181585106,-0.00678601402866853]",4.0,"[0.05889350001163605,0.1789851723350031]",4.0,"[-0.07065663954676274,-0.04102146940972989]",4.0,"[-0.0595426740580723,0.17903887760462409]",4.0,"[-0.03549105829639277,0.13572040158028822]",4.0,"[-0.1292015437569935,0.031609619032371326]",4.0,"[-0.10701275405646303,-0.1279518846758561]",100.0,"[-0.15190677763301497,-0.03114609250063534]",100.0,"[-0.004578593919292731,-0.1872704791904686]",4.0,"[0.02,0.02]",653.931,0.0,18.0,18.0,198.0,1.0,,,,,,,
,,,,,,,67e1881ee6545fb8e1e7ade8,6844293b0701eca7405afcb9,2025-06-07_05h02.02.722,shape_ratio,2024.1.5,Win32,59.95203837,684250e4f00cb30b92d1fa88,,,,,,,,,,,653.931,654.431,,,654.681,655.097,left,,,,,,,,0.5,0.4,,,,,,,654.431,654.681,655.097,"[-0.01043771224979162,0.1180073027093747]",100.0,"[-0.13106858367665922,-0.03466143748245846]",100.0,"[-0.0179562690697402,0.009998600726429243]",100.0,"[0.18245402264898003,0.03686293951705899]",4.0,"[0.09136672839602124,-0.009728607235177945]",100.0,"[-0.07790687875699352,0.13418219982106752]",100.0,"[-0.1132893252910955,-0.12396372787649655]",4.0,"[-0.07152854097497234,-0.015602236082172401]",100.0,"[-0.05748182884006709,0.18144177451871124]",4.0,"[-0.13467244886322477,0.06917265556891536]",100.0,"[0.019722841412322705,0.07702187564407315]",4.0,"[0.00036507938593352367,0.17645254224253046]",4.0,"[0.029955661880349472,-0.10148937307644378]",100.0,"[0.12202136587131161,0.041870947291228096]",4.0,"[-0.07500294299756684,0.06875961808691085]",100.0,"[0.05435765232413697,-0.18975802103873077]",4.0,"[0.07956255502413305,-0.07740068157321209]",4.0,"[-0.07199155790591544,-0.08521162465312335]",4.0,"[-0.14346860849883697,0.13170682480048856]",100.0,"[-0.148691360402371,-0.08550851592851423]",4.0,"[-0.019701501996575155,-0.10588722588821681]",100.0,"[0.07991748095368537,0.044640118335332116]",4.0,"[0.06540796943483923,0.08371633802253922]",100.0,"[0.043912179134875585,-0.011524788188342815]",4.0,"[0.1318017658824824,0.0005567063842843396]",100.0,"[0.18765057830040868,-0.003462438311826718]",4.0,"[0.06525442054861004,0.15310927433436525]",4.0,"[0.11868097746920181,-0.149378252229889]",100.0,"[-0.042764838283298974,-0.16099064161830623]",4.0,"[0.006695667911756108,-0.06361257074914994]",100.0,"[-0.02941540685343897,0.07509990373785615]",4.0,"[-0.17034519368045542,0.03150736855698749]",100.0,"[0.02,0.02]",656.197,0.0,19.0,19.0,118.0,1.0,,,,,,,
,,,,,,,67e1881ee6545fb8e1e7ade8,6844293b0701eca7405afcb9,2025-06-07_05h02.02.722,shape_ratio,2024.1.5,Win32,59.95203837,684250e4f00cb30b92d1fa88,,,,,,,,,,,656.198,656.697,,,656.949,657.564,left,,,,,,,,0.45,0.602,,,,,,,656.697,656.949,657.564,"[0.028385157596243268,-0.12841991044912457]",4.0,"[-0.032751983705600056,0.0431183265338588]",100.0,"[0.08285746144420002,-0.13084539150208943]",4.0,"[-0.08789413690150466,-0.08608621421045128]",4.0,"[0.020579801037064978,0.17299832278539728]",4.0,"[0.07509986710020465,0.0385017258348976]",100.0,"[0.16625232393457323,-0.05126549663877355]",100.0,"[0.0021014621895484283,0.020207727649706853]",4.0,"[0.024003370294457933,0.07493333049915445]",4.0,"[0.1376268030904311,0.10932997237768717]",4.0,"[-0.044202584330116965,0.12186019752045325]",100.0,"[-0.04090098400528703,-0.11884629667754455]",4.0,"[-0.14395544431132118,-0.0357862504861444]",4.0,"[-0.013048480710219136,-0.08579557363731882]",100.0,"[-0.16540360367980175,0.08649762566889549]",100.0,"[0.044601808389678685,-0.1680535857430876]",100.0,"[-0.027410080522835317,-0.008444149015471318]",4.0,"[0.10236308728687202,0.07502090435352159]",100.0,"[-0.01774505427905863,-0.1578179753031367]",4.0,"[0.046230414729856915,-0.053847752026174665]",100.0,"[-0.09303659530335358,0.06733084599093139]",100.0,"[0.13171133719296782,0.033890014788715755]",4.0,"[0.17105932326904771,-0.005598724951786652]",100.0,"[-0.13727216979384133,0.12481615622919891]",4.0,"[-0.09331838055134602,0.17378881261119797]",4.0,"[0.1455739696408928,-0.12477179379664309]",4.0,"[0.0710717371820227,-0.0873441826562195]",100.0,"[-0.052764120841957265,0.07915979594510543]",4.0,"[0.18674894484251975,0.032253246795321565]",4.0,"[0.18152874835341867,0.08160504848240185]",100.0,"[0.12524200445116257,-0.043977936873065906]",100.0,"[-0.07404407965769534,-0.18559018187018825]",4.0,"[0.02,0.02]",658.663,0.0,20.0,20.0,139.0,1.0,,,,,,,
,,,,,,,67e1881ee6545fb8e1e7ade8,6844293b0701eca7405afcb9,2025-06-07_05h02.02.722,shape_ratio,2024.1.5,Win32,59.95203837,684250e4f00cb30b92d1fa88,,,,,,,,,,,658.663,659.163,,,659.413,660.096,left,,,,,,,,0.5,0.667,,,,,,,659.163,659.413,660.096,"[-0.09076740545964626,0.028754844197484693]",100.0,"[-0.09958732348157169,-0.12581678939782134]",100.0,"[-0.01669251065941051,-0.0041140386711166895]",4.0,"[0.1897233609547929,-0.046440191286385636]",100.0,"[0.12791754869973476,-0.07476746606873695]",4.0,"[-0.04999240159981859,0.08784261316523317]",100.0,"[0.06332406825156427,0.09368069592608075]",100.0,"[0.04297301585834263,0.1862651286061065]",100.0,"[0.09600853686479893,0.0033592834309907]",4.0,"[-0.10960416870560037,-0.029245676751361763]",4.0,"[0.17998334843015387,0.01816909170241987]",100.0,"[0.1323147800897689,0.062195040415277125]",100.0,"[-0.005844909166442027,0.058831706287486574]",4.0,"[-0.09998787072527031,0.13768114941980003]",4.0,"[-0.13600350464295727,0.04057095105071313]",100.0,"[-0.0019297591500994336,0.18756781794254684]",4.0,"[-0.018865021117669967,-0.1715513281564512]",4.0,"[0.16215441843827536,-0.10142959129668887]",100.0,"[0.09792148538704651,0.1597666032230448]",4.0,"[0.024488691326138307,-0.06170671039661148]",100.0,"[-0.10630330609657943,-0.07833467768925617]",4.0,"[0.013026643493947667,-0.10735755581220142]",4.0,"[0.013539942691639542,0.13090967225773745]",4.0,"[-0.02280175329861754,-0.056343961672535074]",4.0,"[0.059096034887452124,-0.0953279125975431]",100.0,"[0.13655272211106578,0.11920000622083152]",100.0,"[-0.060841303134823964,-0.027272232038075786]",100.0,"[0.03083486926827757,-0.15436860438075004]",4.0,"[-0.10823660776045038,0.0981696917202326]",4.0,"[-0.05338744517221323,0.13168235779676946]",100.0,"[-0.16291024320008698,-0.054813143328556746]",4.0,"[-0.04335708826336954,0.03709676844265544]",100.0,"[0.02,0.02]",661.196,0.0,21.0,21.0,93.0,1.0,,,,,,,
,,,,,,,67e1881ee6545fb8e1e7ade8,6844293b0701eca7405afcb9,2025-06-07_05h02.02.722,shape_ratio,2024.1.5,Win32,59.95203837,684250e4f00cb30b92d1fa88,,,,,,,,,,,661.196,661.696,,,661.946,662.596,right,,,,,,,,0.4,0.632,,,,,,,661.696,661.946,662.596,"[0.12274145759912779,0.03033738198263463]",4.0,"[0.09854014416049489,-0.14280867902408934]",4.0,"[0.02301576033234543,-0.10543136223763983]",100.0,"[0.06667839080965171,-0.08859529475689534]",4.0,"[-0.028781428831030735,0.0307522979940315]",100.0,"[-0.1674506450216875,0.0022584245539575424]",100.0,"[-0.11836852297536939,-0.11202218922966134]",100.0,"[0.15399505068811714,-0.023541727531967864]",100.0,"[-0.151666625768145,-0.08222810311803312]",4.0,"[-0.02870106436178136,-0.17405119139952574]",100.0,"[-0.1045605269915524,0.1560623786404328]",4.0,"[-0.1802596242031264,0.08023037016375233]",4.0,"[0.07262262386919092,0.10363888663479401]",4.0,"[-0.08083097948926617,0.08614627701140022]",4.0,"[-0.0004853054497076619,0.19607110065415764]",4.0,"[-0.02648502593999928,0.13745056727193036]",100.0,"[-0.10147432016190276,0.046543139780228414]",100.0,"[0.14912234097891397,-0.09874650921522939]",100.0,"[-0.07347054785628085,0.016512764453327444]",4.0,"[-0.1405859806057571,0.1385928651827561]",4.0,"[0.026734332061214422,-0.050849086899433675]",4.0,"[0.031192326925106435,0.10543388031430281]",4.0,"[0.055080636831811275,0.039425922670291574]",4.0,"[0.023669243543050264,-0.1728135630171308]",4.0,"[0.1650689832476629,0.0493261143313374]",100.0,"[-0.00526638080428769,-0.017673253782669877]",4.0,"[0.15165418367686836,0.10139097987305183]",100.0,"[-0.05115435147542264,-0.05125185017576353]",4.0,"[0.12554082306186673,0.07084539389569536]",4.0,"[0.09775568614116863,-0.0267194288592566]",4.0,"[-0.02626748406686496,-0.11222340222376456]",100.0,"[-0.12926916483103162,-0.04357104770546637]",100.0,"[0.02,0.02]",663.699,0.0,22.0,22.0,151.0,1.0,,,,,,,
,,,,,,,67e1881ee6545fb8e1e7ade8,6844293b0701eca7405afcb9,2025-06-07_05h02.02.722,shape_ratio,2024.1.5,Win32,59.95203837,684250e4f00cb30b92d1fa88,,,,,,,,,,,663.7,664.195,,,664.446,665.128,left,,,,,,,,0.6,0.669,,,,,,,664.195,664.446,665.128,"[-0.010841872334098925,-0.10401211310760751]",100.0,"[-0.12193480387938999,0.1237765258739251]",4.0,"[0.05621504511057695,-0.060415369872517964]",100.0,"[0.1802836377458812,0.03692467297196692]",100.0,"[-0.010477468738841835,-0.15985331226072183]",100.0,"[-0.07351428869201587,0.12794018643686741]",100.0,"[0.04846641407085946,-0.13367310700045693]",100.0,"[0.0712405688525375,0.06363441824561798]",100.0,"[0.12582337662995088,-0.01082767211002079]",4.0,"[0.040905302827595254,-0.0026781871528239487]",4.0,"[-0.04293781023600868,0.027980325212436107]",4.0,"[-0.08568908159170091,0.02235620690794892]",4.0,"[-0.021748415926551044,0.1705866911035639]",100.0,"[0.14330396011971147,0.0853246687799603]",100.0,"[-0.1088762521759107,-0.04938302192766135]",4.0,"[-0.06677673965057851,-0.12593877751040244]",4.0,"[-0.1520757038159496,-0.1193062347749237]",4.0,"[0.10060395528341759,-0.12499138222876577]",4.0,"[0.11577190378064298,-0.07309601770946843]",100.0,"[-0.16257420017193058,0.03208655132635405]",100.0,"[0.19805563328170336,-0.002152485344061623]",4.0,"[0.0727304438804288,0.16760603024261647]",4.0,"[0.002792386022129101,0.026726849831473703]",100.0,"[-0.07158463160643169,-0.02794353364386857]",100.0,"[-0.12878307320302199,-0.0016119829792287975]",100.0,"[-0.015799062632624247,-0.04401338314693221]",4.0,"[-0.026183669890360795,0.11835000041498511]",100.0,"[0.012021156380759847,0.14293488710135124]",100.0,"[0.1345947084335454,0.1453149095211347]",100.0,"[0.026798014406388418,0.06254784669017101]",100.0,"[0.1776772541394993,-0.07561079641067098]",4.0,"[-0.11947446464850064,0.06799285044164532]",100.0,"[0.02,0.02]",666.227,0.0,23.0,23.0,34.0,1.0,,,,,,,
,,,,,,,67e1881ee6545fb8e1e7ade8,6844293b0701eca7405afcb9,2025-06-07_05h02.02.722,shape_ratio,2024.1.5,Win32,59.95203837,684250e4f00cb30b92d1fa88,,,,,,,,,,,666.228,666.728,,,666.978,667.544,right,,,,,,,,0.45,0.555,,,,,,,666.728,666.978,667.544,"[-0.011655925819203094,-0.16707398581048127]",100.0,"[0.019362531842654667,0.18656515257622244]",4.0,"[-0.15971333131325652,0.003763436972790585]",4.0,"[-0.07730652913483368,0.055765324111825394]",100.0,"[0.019536850874188362,-0.11344195189263816]",4.0,"[0.017462049357785683,0.07856182821141679]",100.0,"[0.03648591687161895,-0.03961914172959629]",100.0,"[0.164929645605029,0.1054499373863979]",100.0,"[0.18604221910484525,0.03897456049631871]",4.0,"[-0.05599697044508651,-0.12273229630397266]",100.0,"[0.021225710149852913,0.12745947349224981]",4.0,"[-0.046342588687233115,0.14691847568413677]",100.0,"[-0.07365178770710532,-0.06742731189218562]",4.0,"[0.10265744227619879,-0.14970835249634262]",100.0,"[0.16228521940199525,-0.019889454205970478]",4.0,"[0.14371190708743492,0.040488115424153835]",100.0,"[-0.1403895834692281,-0.05374284326369513]",100.0,"[0.06907914337296989,0.1070200422282263]",4.0,"[-0.012979111154271361,0.020745364332750364]",4.0,"[-0.1212691877908889,0.09718880779147866]",100.0,"[-0.16350796220641214,0.05218624972181083]",4.0,"[-0.023199299585536636,-0.08621387492664905]",4.0,"[-0.019866778576629867,-0.03141555386872105]",4.0,"[-0.03805231779929851,0.10609480021525794]",100.0,"[-0.09577025734046019,0.1491879747969156]",4.0,"[0.05208307344089854,-0.16874915094036147]",4.0,"[-0.11722789874693372,0.018848798805945012]",4.0,"[0.06727447487184543,-0.10584710428950436]",4.0,"[-0.05606351340011885,0.1895521453146405]",100.0,"[0.10152708625141281,-0.04667400794554142]",4.0,"[0.0263919191607757,0.03628110806807082]",100.0,"[-0.05687228643775345,0.013842466744533086]",4.0,"[0.02,0.02]",668.644,0.0,24.0,24.0,129.0,1.0,,,,,,,
,,,,,,,67e1881ee6545fb8e1e7ade8,6844293b0701eca7405afcb9,2025-06-07_05h02.02.722,shape_ratio,2024.1.5,Win32,59.95203837,684250e4f00cb30b92d1fa88,,,,,,,,,,,668.644,669.143,,,669.394,670.095,left,,,,,,,,0.6,0.685,,,,,,,669.143,669.394,670.095,"[-0.05899930062180472,-0.11078146292541749]",100.0,"[0.17934573900599668,-0.07777597498185337]",4.0,"[-0.0030996935632983916,0.11665076528507971]",100.0,"[0.011404379441909347,-0.16111107578482037]",4.0,"[0.0742738323839128,-0.14859437614805718]",4.0,"[-0.11385706231101625,-0.10930440193966329]",100.0,"[-0.08200419560166516,0.17734354811309228]",100.0,"[-0.10951941793137344,0.1255631831451366]",4.0,"[0.02738463305206796,-0.018106995023220086]",100.0,"[-0.043589260683479444,0.004922301670104976]",100.0,"[-0.059291424959714165,0.12240132554919735]",100.0,"[0.054876532933331786,0.1899377876702681]",100.0,"[-0.08087781624329504,-0.015774134763713105]",4.0,"[0.11224666946241743,0.15154178166265134]",4.0,"[-0.1310226265017312,-0.043573153126331136]",100.0,"[0.04843514544129596,-0.17970749515793943]",100.0,"[0.07273755845193854,0.07207270589140506]",4.0,"[0.13370633593083592,0.10045029444766881]",4.0,"[-0.17438084853968105,0.06769018844521325]",100.0,"[-0.021381100075010828,-0.054073490110821125]",100.0,"[0.11282969358828505,-0.10937447648614292]",4.0,"[0.07782222880779803,0.005899866690207944]",100.0,"[0.032269080731207336,-0.11305668290373005]",4.0,"[-0.009418328921514292,-0.10018605159311389]",100.0,"[0.07947705180583672,-0.04729173100228238]",4.0,"[0.1347341427092701,-0.07017414664704053]",100.0,"[0.16331205175245306,-0.0312774831479137]",100.0,"[-0.19266771871405902,-0.018947102597653788]",100.0,"[-0.0967068685684067,0.033680488395563736]",4.0,"[-0.1312502362021029,0.06939121263454388]",4.0,"[-0.15312954420526978,0.1274095744222647]",100.0,"[0.017270730078435763,0.07724712600923829]",100.0,"[0.02,0.02]",671.193,0.0,25.0,25.0,44.0,1.0,,,,,,,
,,,,,,,67e1881ee6545fb8e1e7ade8,6844293b0701eca7405afcb9,2025-06-07_05h02.02.722,shape_ratio,2024.1.5,Win32,59.95203837,684250e4f00cb30b92d1fa88,,,,,,,,,,,671.199,671.693,,,671.944,672.493,right,,,,,,,,0.1,0.534,,,,,,,671.693,671.944,672.493,"[-0.09715913112463097,-0.034326281013405076]",4.0,"[-0.05302123894757175,-0.09706269129518925]",100.0,"[-0.018771087399338103,0.11227749351309542]",4.0,"[-0.10451438429197402,0.026864264798475923]",4.0,"[0.07761466637734485,0.035353426990789694]",4.0,"[-0.0001847087348084915,-0.11856785514627469]",4.0,"[0.16518474960083432,-0.06055291857698056]",4.0,"[0.08819337753768643,-0.1690970105044586]",4.0,"[0.12841689692931918,0.017378025516851126]",4.0,"[-0.14278025862010588,0.012105290121307517]",4.0,"[-0.1439120889058778,-0.07430416781942138]",4.0,"[0.08228644981595563,-0.030543412554548822]",4.0,"[0.02636989447895078,0.10079126420949372]",4.0,"[-0.1654437996264411,-0.03279252087614795]",4.0,"[0.05981067067134347,0.15308272802919584]",4.0,"[0.046766879182888306,-0.15582448665913493]",4.0,"[0.07303856679032027,-0.07377926651400211]",4.0,"[-0.16402422790885599,0.07557465674764133]",4.0,"[-0.09174418789787635,0.1341956372068741]",4.0,"[-0.08014048433043469,0.18280546539677964]",4.0,"[0.1140473893586263,0.08351462537393761]",4.0,"[0.1580718759811359,-0.10600040404734062]",4.0,"[0.11571083428605669,-0.08064336544841268]",4.0,"[0.01602122065265081,0.15651103117144918]",4.0,"[0.07353056901418119,0.08356633662143527]",4.0,"[-0.009066189692033698,-0.16665991008902947]",4.0,"[0.04320173533801245,-0.10083378964562269]",4.0,"[0.19545843771089416,0.026076672419258286]",100.0,"[-0.07906690462389848,-0.14814083841531595]",100.0,"[0.03292673187054552,-0.0024770173998295486]",4.0,"[-0.015249960793532687,-0.07563426803880939]",4.0,"[-0.053508388845669594,0.06053521149957736]",4.0,"[0.02,0.02]",673.593,0.0,26.0,26.0,191.0,1.0,,,,,,,
,,,,,,,67e1881ee6545fb8e1e7ade8,6844293b0701eca7405afcb9,2025-06-07_05h02.02.722,shape_ratio,2024.1.5,Win32,59.95203837,684250e4f00cb30b92d1fa88,,,,,,,,,,,673.593,674.092,,,674.343,674.958,right,,,,,,,,0.5,0.605,,,,,,,674.092,674.343,674.959,"[-0.05622029948481763,0.08706535293812502]",4.0,"[0.07940086824096292,0.11762859906866474]",100.0,"[0.011444694295771758,-0.1277091874681951]",100.0,"[0.006057314194777471,0.13338407655004103]",100.0,"[0.02236948586041348,-0.06652666514934556]",4.0,"[-0.01801951462233356,0.03757311803526424]",100.0,"[-0.06273055540993601,-0.1390327066404527]",4.0,"[0.14795061349922478,0.008277849109417005]",100.0,"[0.12234381694429612,0.1000886721201163]",4.0,"[-0.1708025101978181,0.05316419123583746]",4.0,"[0.09304522115710694,-0.012698290173465977]",4.0,"[0.149165451495859,-0.08684662337768627]",4.0,"[-0.11110753632775218,0.1628705946293005]",4.0,"[0.04449396240705966,-0.1540713533202326]",4.0,"[0.09916197729435657,-0.07355251409224778]",100.0,"[0.16318653579289946,0.11185451403479564]",4.0,"[-0.0009782283589367515,-0.023437236689981898]",100.0,"[0.17598559591653426,-0.05231536630844007]",4.0,"[-0.14885294784451109,-0.07418384055984846]",100.0,"[-0.17820163067086622,-0.0027520858161809696]",100.0,"[0.029177182540745965,0.04877165639262015]",100.0,"[0.07764074592527853,0.1781778429676227]",4.0,"[0.11665706655591374,0.15340590562604975]",100.0,"[-0.09154141296860219,0.11535554267300525]",100.0,"[0.04039696381330628,-0.018715434758042594]",4.0,"[-0.14148841489325342,-0.03296506391831127]",100.0,"[-0.11491419685529096,-0.15107896343849775]",100.0,"[0.017641164579968272,0.18104687017429563]",100.0,"[-0.12146544271664883,0.02308636210022464]",4.0,"[-0.0008367600923175836,0.07699249806206557]",4.0,"[-0.04367326443273991,-0.0504219281381234]",4.0,"[0.07001678040555052,0.060965454952810465]",100.0,"[0.02,0.02]",676.058,0.0,27.0,27.0,110.0,1.0,,,,,,,
,,,,,,,67e1881ee6545fb8e1e7ade8,6844293b0701eca7405afcb9,2025-06-07_05h02.02.722,shape_ratio,2024.1.5,Win32,59.95203837,684250e4f00cb30b92d1fa88,,,,,,,,,,,676.059,676.558,,,676.809,677.142,right,,,,,,,,0.55,0.324,,,,,,,676.558,676.809,677.142,"[0.09649694737030218,-0.0732394918828941]",4.0,"[-0.11428097042096787,-0.08772666460389614]",100.0,"[-0.10350049114496768,0.1037191719056418]",100.0,"[-0.11959669281292845,-0.1479923423626283]",100.0,"[0.08256965782500694,0.17642336722413804]",4.0,"[-0.06528047731820402,0.08161854248352957]",4.0,"[0.03291424403547095,-0.0393455651807938]",4.0,"[0.0023654284970241733,-0.11220614870407904]",100.0,"[0.13907321303273626,-0.0455921739896003]",100.0,"[-0.1687534891030896,-0.05089752854316804]",4.0,"[-0.10711337788638894,-0.043769109276850474]",4.0,"[-0.07430506337975326,-0.08435819233310335]",100.0,"[0.09291571354719776,-0.16161077788058656]",4.0,"[0.056123366389834645,0.07518598484660453]",100.0,"[-0.12564897606972095,0.050327638610797795]",100.0,"[0.12280658010980915,0.09122625399323114]",100.0,"[0.06918368643750045,-0.007010120635475269]",4.0,"[-0.08494764355501823,0.17716839761711586]",100.0,"[0.0904258389371843,0.11944698902260392]",100.0,"[-0.026690533196085605,0.16272165369480585]",100.0,"[0.029767114356367096,0.13767543374971644]",100.0,"[-0.014782522251761326,0.028652451220535127]",100.0,"[-0.13225573225882498,0.13438127884459847]",4.0,"[0.03823686946578421,-0.13170496634718684]",4.0,"[0.1833205954981535,0.05695874387873833]",100.0,"[-0.0593389098742543,-0.00022290895937384985]",4.0,"[-0.03525585559346286,-0.1345565334743057]",100.0,"[-0.014732102332898778,0.09888890193349606]",4.0,"[0.1381176440907909,-0.08585375261699434]",4.0,"[0.030881403354004577,-0.18255513507870494]",100.0,"[-0.15681180461162786,0.02524028121801418]",4.0,"[0.1515526836449403,0.025954696578759578]",100.0,"[0.02,0.02]",678.241,0.0,28.0,28.0,66.0,1.0,,,,,,,
,,,,,,,67e1881ee6545fb8e1e7ade8,6844293b0701eca7405afcb9,2025-06-07_05h02.02.722,shape_ratio,2024.1.5,Win32,59.95203837,684250e4f00cb30b92d1fa88,,,,,,,,,,,678.242,678.741,,,678.991,679.54,left,,,,,,,,0.55,0.538,,,,,,,678.741,678.991,679.54,"[0.013354881293152302,0.00929983789252328]",100.0,"[0.003958082012656446,0.06302857909670209]",100.0,"[-0.02076736252929153,-0.07997898772118384]",100.0,"[-0.11936280656660782,-0.06277761304215021]",100.0,"[-0.09381099888940282,-0.15761055440272956]",100.0,"[0.12443992883479356,0.06282292127952686]",100.0,"[0.017363710878917596,-0.1489421147729495]",4.0,"[-0.07965202581887448,0.1298983656391085]",100.0,"[0.15991002471708865,-0.04848816875400399]",100.0,"[-0.15182109799214674,0.0442586168516515]",4.0,"[-0.03831201251788932,0.09296462676800374]",4.0,"[0.10277063710469951,-0.11188988384204289]",100.0,"[-0.15507282607354828,-0.1237741329811825]",100.0,"[0.14630767307585998,0.11602765056154217]",100.0,"[0.16463725739752808,0.0503698348829396]",4.0,"[-0.07003466182422156,-0.10435933718177869]",100.0,"[-0.027438938021231114,0.024193722975978854]",4.0,"[0.1845395893443203,-0.0006855055749917336]",4.0,"[-0.1424893404078127,0.10717750739625627]",4.0,"[-0.05101965832156821,-0.03680912081929928]",100.0,"[-0.1713700645199992,-0.05522816451666137]",4.0,"[-0.015451586471896886,0.186236768736715]",100.0,"[0.0023298117631770686,0.14011489436338498]",4.0,"[-0.02681768038071299,-0.18683193486387142]",100.0,"[0.0595092859144885,0.05466761842575997]",100.0,"[-0.07180237811723368,0.17542418483089728]",100.0,"[-0.19184185584468755,0.0179930421574472]",4.0,"[0.05657792843088462,0.12143544687766115]",4.0,"[-0.08372430165202867,0.02102648700511962]",4.0,"[0.009169509154751742,-0.03692747522230461]",4.0,"[-0.11982149897635863,0.15108534177319316]",100.0,"[0.11933192967215984,-0.07312747068642694]",4.0,"[0.02,0.02]",680.64,0.0,29.0,29.0,72.0,1.0,,,,,,,
,,,,,,,67e1881ee6545fb8e1e7ade8,6844293b0701eca7405afcb9,2025-06-07_05h02.02.722,shape_ratio,2024.1.5,Win32,59.95203837,684250e4f00cb30b92d1fa88,,,,,,,,,,,680.641,681.14,,,681.39,681.757,left,,,,,,,,0.4,0.356,,,,,,,681.14,681.39,681.757,"[-0.06188096985500775,0.16999944774456519]",4.0,"[0.16917470481415042,-0.014232796391478637]",100.0,"[0.04511888338093507,0.17441492783619134]",100.0,"[0.004633656586751962,-0.013005742913565831]",4.0,"[0.06517916195339869,-0.158262906195419]",4.0,"[-0.09129983013498356,-0.10367066722737577]",4.0,"[0.06592388515650066,0.04176822589428588]",4.0,"[0.12650150797825588,-0.11815908187577055]",4.0,"[-0.14699965905565188,-0.12020669836145928]",100.0,"[-0.0865039260790131,0.05138326070786326]",100.0,"[0.06847142359108416,-0.0932574085820973]",4.0,"[-0.17205864131667778,-0.05817973926792277]",4.0,"[0.10768942505271321,-0.1561055596398141]",100.0,"[0.008624405154779054,-0.15844377911740234]",100.0,"[-0.058849201339276916,-0.014885349860047832]",4.0,"[-0.13565053569710336,-0.023479567849498912]",4.0,"[0.1326992215277397,-0.07354177153608732]",100.0,"[-0.11441690515864877,0.14282363923011396]",100.0,"[-0.01234150644231096,0.06856282093891332]",4.0,"[0.09330520060434332,0.0779176434375669]",4.0,"[0.029197680802379382,0.06002117106915763]",4.0,"[-0.05880035813535558,0.10109154379143687]",100.0,"[0.17569834349376187,0.08081169556794679]",4.0,"[0.1334894779453857,0.010048821107985545]",100.0,"[0.025197853780839902,-0.09266836675763017]",4.0,"[-0.1415231576189736,0.10267816606102277]",100.0,"[-0.1647270455492808,0.0699461969804844]",4.0,"[0.040554187400700624,0.007536332220789819]",100.0,"[-0.17428062266223218,0.026418936584224978]",100.0,"[0.10394978343930887,0.15689679589864763]",4.0,"[0.017859477770206543,0.10334261707200658]",4.0,"[-0.07081473876539424,-0.15938501055382162]",4.0,"[0.02,0.02]",682.857,0.0,30.0,30.0,168.0,1.0,,,,,,,
,,,,,,,67e1881ee6545fb8e1e7ade8,6844293b0701eca7405afcb9,2025-06-07_05h02.02.722,shape_ratio,2024.1.5,Win32,59.95203837,684250e4f00cb30b92d1fa88,,,,,,,,,,,682.857,683.357,,,683.607,683.79,left,,,,,,,,0.9,0.168,,,,,,,683.357,683.607,683.79,"[-0.135369595071157,0.09064003647423416]",100.0,"[0.05800489851213289,0.03326773838070273]",100.0,"[0.17580463368410598,0.03099380429975029]",100.0,"[0.07211372811946178,-0.014296847596246828]",4.0,"[-0.18493255376773907,-0.0004751929715283916]",100.0,"[0.031361515818839815,-0.03785731578329972]",100.0,"[0.0340664317993537,-0.1903339712259401]",4.0,"[-0.1057327944589175,-0.1411160905396244]",100.0,"[0.10508795291995945,0.0920702267030563]",100.0,"[0.06544273777726767,0.0765672242423745]",100.0,"[0.1092824466603328,-0.12899726710428314]",100.0,"[-0.034880170688870456,-0.061669282076515314]",100.0,"[-0.16139764418536728,-0.0625953845703874]",100.0,"[-0.0804637585027623,-0.061066026185091785]",100.0,"[0.0028137551467767932,-0.12175697733002742]",100.0,"[0.0630497017030492,-0.15368456212594847]",100.0,"[0.015870187932289354,0.15170686109188847]",100.0,"[-0.09141914853673042,0.14132210933017628]",100.0,"[0.11267116182170507,-0.009732555216507292]",100.0,"[-0.13443961914195413,0.00025695853879755]",100.0,"[-0.11908277427706923,-0.040302194187084334]",100.0,"[0.012926992867500176,0.07652078841599451]",100.0,"[-0.11307424415166302,0.04961176980192184]",100.0,"[-0.044564882271868354,-0.013370755396987235]",100.0,"[-0.09477802109973156,0.013644951983858344]",100.0,"[0.1546443128556634,0.0942148547241613]",100.0,"[0.08393331014129023,0.15637128559258764]",100.0,"[-0.06532781295474323,0.10094006687376396]",100.0,"[0.054423260369976266,0.1210238439618124]",100.0,"[0.16381801445676264,-0.010381100640461926]",100.0,"[-0.03518331606080534,0.05678195962545792]",100.0,"[0.14075423840396645,0.13365697509961763]",4.0,"[0.02,0.02]",684.889,0.0,31.0,31.0,3.0,1.0,,,,,,,
,,,,,,,67e1881ee6545fb8e1e7ade8,6844293b0701eca7405afcb9,2025-06-07_05h02.02.722,shape_ratio,2024.1.5,Win32,59.95203837,684250e4f00cb30b92d1fa88,,,,,,,,,,,684.889,685.389,,,685.64,686.039,right,,,,,,,,0.4,0.383,,,,,,,685.389,685.64,686.039,"[-0.04000818544412088,-0.07505361941040335]",4.0,"[-0.12002044915528175,0.06976416949807987]",4.0,"[0.0232764568810295,0.18006238616534664]",4.0,"[-0.1753468704865311,-0.0220284605394092]",4.0,"[-0.04284871387148218,0.06117375898902634]",100.0,"[-0.0736928966285956,0.0034172862293538105]",4.0,"[0.0640722734763881,-0.18345262318596217]",4.0,"[-0.09703559936937736,-0.14272031327910847]",100.0,"[0.02026269124736323,-0.15912049073515006]",100.0,"[0.01970179086214945,-0.010283325866671857]",4.0,"[0.09812592667245437,-0.11990362190731647]",4.0,"[0.1391771043410066,0.11310975988069191]",100.0,"[-0.12896245721814084,-0.045206991787574154]",4.0,"[0.060741333815564895,0.09507062447889493]",4.0,"[-0.07290171326902183,-0.180691735588277]",100.0,"[-0.0777556119890209,0.1619194657915422]",100.0,"[0.09880130327402518,0.16823675886569406]",4.0,"[0.08326960743690016,-0.06391133770750913]",4.0,"[-0.03687730646225724,0.1399242834679617]",100.0,"[0.05145752880353583,0.04333633772882781]",4.0,"[0.1678093716880245,-0.029262256002231642]",100.0,"[0.11527803113015218,0.06700985265627228]",4.0,"[-0.17065591562102914,0.06561433248976571]",4.0,"[-0.03177813548953467,-0.16742654826168807]",4.0,"[0.14470067581228452,0.00494741792307358]",4.0,"[0.15650379612876208,-0.11227559679610581]",100.0,"[-0.0910456617006724,-0.09377024454228843]",100.0,"[-0.11506439322308801,-0.0036297236123820696]",100.0,"[0.16929409300978426,-0.0734040691342283]",100.0,"[-0.15323986524077518,-0.1203599453804162]",4.0,"[0.1269620917651948,-0.046577264349501275]",100.0,"[-0.08169289406964836,0.09698413846366155]",4.0,"[0.02,0.02]",687.139,0.0,32.0,32.0,175.0,1.0,,,,,,,
,,,,,,,67e1881ee6545fb8e1e7ade8,6844293b0701eca7405afcb9,2025-06-07_05h02.02.722,shape_ratio,2024.1.5,Win32,59.95203837,684250e4f00cb30b92d1fa88,,,,,,,,,,,687.139,687.639,,,687.889,688.205,left,,,,,,,,0.9,0.3,,,,,,,687.639,687.889,688.206,"[-0.08537593671289212,-0.027005691366488647]",100.0,"[-0.1565497397882324,0.07287488370665418]",4.0,"[0.0685899213789601,0.12424299779777201]",4.0,"[0.1258607916580813,-0.06386733101931005]",100.0,"[-0.07572141044442014,-0.17856603991189107]",100.0,"[-0.04082051906003281,-0.06302542314698312]",100.0,"[-0.00507527949348808,0.1547423055420349]",100.0,"[0.08395746670485796,0.06862927306970995]",100.0,"[0.1318077325787077,0.031961259564654274]",100.0,"[-0.11062439489056812,0.0077901763661576045]",100.0,"[-0.055441518385313464,0.13044866444552483]",100.0,"[-0.0695046868799965,0.07504496915037878]",100.0,"[-0.10805271165839216,-0.10990775584332353]",100.0,"[0.14821918341898552,0.09725986297043589]",100.0,"[-0.02921785691069139,-0.005730590587841867]",100.0,"[-0.1743141955578367,-0.008687011119254575]",100.0,"[-0.055524909654036364,-0.13060700130081512]",100.0,"[-0.17197234068344203,-0.06177796881945444]",100.0,"[0.029669447176556053,-0.08231933305915468]",100.0,"[0.0810297948403978,0.006500998373111732]",100.0,"[0.05755066673259996,-0.18511727207152315]",100.0,"[0.07021342393801999,-0.12192875902687549]",100.0,"[0.04071950799346181,0.06426788500974305]",100.0,"[0.16290966141483307,-0.09722368684350997]",100.0,"[-0.15327187561325015,-0.11801038906747174]",100.0,"[0.03435016610058504,0.18709726294691012]",100.0,"[0.17773443218505536,0.04503521151404205]",100.0,"[-0.03028136763462048,-0.1693836397414126]",4.0,"[0.03887561875166644,0.0055505289409917115]",100.0,"[0.05891748287425081,-0.029448883436556734]",100.0,"[-0.11283731559109678,0.1087926359462606]",100.0,"[0.10913615757466827,0.1451783467572439]",100.0,"[0.02,0.02]",689.305,0.0,33.0,33.0,8.0,1.0,,,,,,,
,,,,,,,67e1881ee6545fb8e1e7ade8,6844293b0701eca7405afcb9,2025-06-07_05h02.02.722,shape_ratio,2024.1.5,Win32,59.95203837,684250e4f00cb30b92d1fa88,,,,,,,,,,,689.306,689.805,,,690.055,690.672,right,,,,,,,,0.6,0.601,,,,,,,689.805,690.055,690.672,"[-0.1539957353780643,0.06994471742564083]",4.0,"[-0.16368458164850636,-0.03973440978988732]",100.0,"[0.023009769718072778,0.08279295196226423]",100.0,"[0.10530042959772473,-0.04548670474793112]",100.0,"[-0.0626753763845698,0.13256080779746432]",4.0,"[0.08127850907990229,0.0793526932187863]",4.0,"[0.005423182636447243,-0.16662293321977253]",100.0,"[0.07718789462842969,-0.0014274081975557472]",4.0,"[-0.0661837430629153,0.0182998042019908]",4.0,"[0.03860146770193244,-0.04214259688508288]",4.0,"[-0.11717001106214922,-0.15645119873730678]",4.0,"[-0.1292494328105221,-0.014617296779985835]",100.0,"[0.09480647085629719,-0.12393967018614328]",100.0,"[-0.10615503362081012,0.07988274994613086]",4.0,"[-0.05970712930066654,-0.10624685792768127]",100.0,"[0.15203817539805656,-0.0903492935983168]",100.0,"[-0.0895165124467347,-0.03891892945751818]",4.0,"[-0.03505993724973845,-0.009910051234413419]",100.0,"[0.11416213684798976,0.12523131738464693]",100.0,"[0.1488454732672276,0.04834055158026639]",100.0,"[0.08946646204484748,0.17171762761894882]",100.0,"[-0.004205939625602009,0.1649057485558521]",100.0,"[-0.04755910370587406,-0.05676122944572311]",4.0,"[0.00677933062256754,0.12612144847900947]",100.0,"[0.19743691787187367,0.03107749356242873]",100.0,"[-0.11706731086792287,-0.07405418568924996]",4.0,"[0.039150278607056346,-0.12544686222493906]",100.0,"[0.029221298446487236,0.005080773396361134]",100.0,"[0.06923752608724981,-0.07196239471439318]",4.0,"[-0.023927807012624584,0.046724949985489574]",100.0,"[0.05727876008293092,0.11659443645446625]",100.0,"[0.15384762060448515,0.1142469564181471]",4.0,"[0.02,0.02]",691.771,0.0,34.0,34.0,58.0,1.0,,,,,,,
,,,,,,,67e1881ee6545fb8e1e7ade8,6844293b0701eca7405afcb9,2025-06-07_05h02.02.722,shape_ratio,2024.1.5,Win32,59.95203837,684250e4f00cb30b92d1fa88,,,,,,,,,,,691.772,692.272,,,692.521,692.754,right,,,,,,,,0.55,0.22,,,,,,,692.272,692.521,692.754,"[-0.16029592783035507,0.022077383989524954]",4.0,"[-0.1257141484661966,0.10248895196427074]",100.0,"[-0.004257046391139016,-0.14100372251266396]",100.0,"[-0.12650118199139218,-0.10030590205041814]",4.0,"[-0.04888633333037862,0.011804741365225059]",4.0,"[-0.10514231050016762,-0.16164580747709276]",100.0,"[0.12711917518344065,0.05323596873497394]",4.0,"[0.12924749765840182,-0.1146753801977476]",100.0,"[0.054559091161403075,-0.1184953866270349]",100.0,"[0.09263820410532007,-0.019493906759369246]",4.0,"[0.0830709424526644,0.15027529498469966]",4.0,"[0.00018692611674384665,0.046957783646272844]",100.0,"[-0.11507932324986529,0.009686407347162924]",4.0,"[0.08464696214306897,0.07574464107403157]",4.0,"[-0.05414010555831635,-0.13544588776874564]",4.0,"[-0.01195972471511271,0.15259598172355276]",100.0,"[0.10733293259219173,0.11579135309185513]",4.0,"[-0.04668446149325435,-0.035287058692762656]",100.0,"[0.013900521181375709,-0.18661466742533728]",4.0,"[-0.15439250510643757,0.07036868453140496]",100.0,"[0.038321291356099,0.064379379328656]",100.0,"[-0.062268172205869936,0.054916746574840435]",4.0,"[0.1992540159386061,-0.014221256609173647]",100.0,"[0.0837111042751522,-0.16593820430221937]",100.0,"[0.1461330083519061,0.10132744585873492]",100.0,"[0.060604270494212735,0.015774916788188553]",100.0,"[-0.1700931543355926,-0.05732272763638149]",100.0,"[0.16083732798308653,-0.02806486878672509]",100.0,"[-0.06635874948235951,0.1591187141326204]",100.0,"[0.035223938262602325,0.1139577918637237]",100.0,"[-0.1278928073006666,-0.03293575665258769]",4.0,"[-0.08855772664466173,0.1204522916598422]",4.0,"[0.02,0.02]",693.854,0.0,35.0,35.0,88.0,1.0,,,,,,,
,,,,,,,67e1881ee6545fb8e1e7ade8,6844293b0701eca7405afcb9,2025-06-07_05h02.02.722,shape_ratio,2024.1.5,Win32,59.95203837,684250e4f00cb30b92d1fa88,,,,,,,,,,,693.854,694.353,,,694.604,694.954,right,,,,,,,,0.5,0.34,,,,,,,694.353,694.604,694.954,"[0.08440338233493243,0.15469755378009653]",4.0,"[-0.1558131361371808,-0.024767297698970975]",4.0,"[-0.022009172986654647,0.18814913842508327]",100.0,"[-0.08272968532595336,0.09471283437661787]",100.0,"[-0.12578397354266885,0.029412560710830895]",100.0,"[0.038919641014635575,0.03476738877856315]",4.0,"[0.12533898017571296,0.0021650413514116883]",100.0,"[-0.08345362550204294,-0.0034241629770721685]",100.0,"[-0.0709760362531854,-0.08882072579512638]",4.0,"[-0.09130217814737693,0.15118351105539915]",100.0,"[-0.19005965280346016,0.04257162401684329]",4.0,"[0.03602672194104604,-0.08942238048538598]",4.0,"[-0.023200699695222992,0.10162904445375517]",4.0,"[0.11752816985718854,0.07908888271103848]",100.0,"[-0.06435761906509492,-0.16500821921295458]",4.0,"[-0.13877120730055806,0.09012522711527433]",100.0,"[0.1524359989726398,0.10388720656577369]",4.0,"[-0.13016000753910115,-0.1423994272559777]",100.0,"[0.050804750543949395,-0.1711425838768483]",4.0,"[0.1250483713863629,-0.13838667422782805]",4.0,"[0.16277826505788867,-0.09720015201659263]",100.0,"[0.11209206370711357,-0.03962652749145572]",100.0,"[0.05650644882638331,0.1061200348040395]",100.0,"[-0.11114354368620406,-0.06560270588048729]",4.0,"[0.18479568339843844,0.042959015035827025]",4.0,"[-0.029552661318314057,-0.014402491741853428]",4.0,"[0.07522056899318566,-0.0029049333787129223]",4.0,"[-0.07886211076310173,0.054293542483208494]",100.0,"[0.01652985056272091,0.13976368476568282]",4.0,"[-0.047651247732219466,0.02300819816141137]",100.0,"[0.07618127718091415,-0.1104471093383511]",100.0,"[0.02504356929237827,-0.03302093422042385]",100.0,"[0.02,0.02]",696.053,0.0,36.0,36.0,106.0,1.0,,,,,,,
,,,,,,,67e1881ee6545fb8e1e7ade8,6844293b0701eca7405afcb9,2025-06-07_05h02.02.722,shape_ratio,2024.1.5,Win32,59.95203837,684250e4f00cb30b92d1fa88,,,,,,,,,,,696.053,696.553,,,696.804,697.286,left,,,,,,,,0.6,0.466,,,,,,,696.553,696.804,697.286,"[0.12993478487428683,0.07130692142533819]",4.0,"[0.18844721871019454,0.019623220486714076]",4.0,"[-0.13027618196734075,0.04095935062160908]",100.0,"[0.028142488030976142,-0.13993473627510203]",100.0,"[0.17624073205061802,0.09075738880021508]",100.0,"[-0.015055277965441202,-0.15812078036229069]",4.0,"[0.13476760450624226,-0.128930439553485]",100.0,"[-0.15572071786433073,0.1040725554815591]",100.0,"[-0.1858389055886433,0.011248441858116109]",100.0,"[-0.06942535793817475,-0.15385013360005445]",100.0,"[-0.0589014209362135,-0.08316828462702903]",100.0,"[0.020128572480866705,0.018295170292102526]",4.0,"[0.006786709712445834,0.14934771363228505]",4.0,"[0.05218030039589519,-0.06583001600398528]",100.0,"[0.07548173728328916,0.15403128749666378]",100.0,"[0.04473339408819494,-0.014398153230224585]",4.0,"[-0.05551256359737099,-0.02172792710743364]",4.0,"[-0.09398198142627336,0.12161674662729298]",100.0,"[-0.12916673115571484,-0.06117120063436609]",4.0,"[0.06692856857636832,0.06239218511539998]",100.0,"[-0.07760267616185065,0.06519709697259929]",100.0,"[0.09577600806892995,-0.06934031634196004]",100.0,"[0.10741438839044333,0.11172357790907585]",100.0,"[0.056001710180296094,-0.10692077219442603]",100.0,"[0.10294639113778273,0.012048303604326425]",100.0,"[-0.11116708106611391,-0.14696388537283253]",4.0,"[-0.171343093828973,-0.07509657415711685]",4.0,"[0.0883675681755573,-0.17337436575025628]",100.0,"[-0.09586496267420551,-0.020859398960994677]",4.0,"[-0.04603942570480154,0.09036260646927775]",4.0,"[-0.04156118664908234,0.030196300690002394]",4.0,"[-0.057824641376507696,0.18164170808930138]",100.0,"[0.02,0.02]",698.386,0.0,37.0,37.0,36.0,1.0,,,,,,,
,,,,,,,67e1881ee6545fb8e1e7ade8,6844293b0701eca7405afcb9,2025-06-07_05h02.02.722,shape_ratio,2024.1.5,Win32,59.95203837,684250e4f00cb30b92d1fa88,,,,,,,,,,,698.387,698.886,,,699.136,699.369,right,,,,,,,,0.1,0.22,,,,,,,698.886,699.136,699.369,"[-0.12220827662083983,0.14578844629100624]",4.0,"[-0.014779762563780224,0.10618629208072723]",4.0,"[0.056738487116131824,0.0889481889912829]",4.0,"[0.1391245702889318,-0.12160356316141034]",4.0,"[0.0023188046028724996,0.17161650075051707]",4.0,"[0.01807678431074221,-0.19909710648474033]",4.0,"[-0.1486024103368072,-0.04400164442864166]",4.0,"[-0.04592114295300333,-0.17757145616022718]",4.0,"[0.11869092362943064,0.10385810946693973]",4.0,"[-0.0820539870470474,0.05632259465552995]",4.0,"[0.008902479149778875,-0.12043179258644804]",4.0,"[-0.10103174055620281,0.09355130800756521]",4.0,"[0.04269622864015737,-0.07280004572412636]",4.0,"[-0.022996197745491866,-0.06585984981571599]",4.0,"[0.05429015783496004,0.01384812592221216]",4.0,"[0.1672066623622658,-0.043575890523133355]",4.0,"[-0.17358514592337584,0.005476887398465376]",100.0,"[0.07411517492979151,-0.13234222642599988]",4.0,"[-0.07889737325736142,0.1554366299366997]",4.0,"[-0.14048280920458983,0.03254935943172441]",4.0,"[-0.11939931546514816,-0.08546067431269255]",100.0,"[-0.07326016909185773,-0.08289992882212606]",4.0,"[0.09105024052631981,0.03926367141305292]",100.0,"[0.07230436073038435,-0.043852033173211936]",4.0,"[-0.037975690498616745,0.06234384436903992]",4.0,"[-0.03692237357669685,0.19573929345002292]",4.0,"[0.16423073371517624,0.09223244768916683]",4.0,"[-0.09768932422411386,-0.03941793714738417]",4.0,"[-0.008128416872793755,-0.027495104063990944]",4.0,"[0.1113139316757738,-0.07833201273908079]",4.0,"[0.06959743227310193,0.17342074728953288]",4.0,"[0.18259341349168293,0.05631222208393571]",4.0,"[0.02,0.02]",700.468,0.0,38.0,38.0,197.0,1.0,,,,,,,
,,,,,,,67e1881ee6545fb8e1e7ade8,6844293b0701eca7405afcb9,2025-06-07_05h02.02.722,shape_ratio,2024.1.5,Win32,59.95203837,684250e4f00cb30b92d1fa88,,,,,,,,,,,700.468,700.969,,,701.219,701.735,right,,,,,,,,0.5,0.499,,,,,,,700.969,701.219,701.735,"[0.18337555711465994,0.07039511105578908]",100.0,"[0.06487862264871104,0.11210644280106918]",100.0,"[0.02631514918297361,-0.045668977449129705]",100.0,"[-0.07761416209583316,0.1185263959946274]",4.0,"[0.14144789387939685,-0.12555587099588386]",100.0,"[0.020335002652370638,-0.10336301193257832]",100.0,"[0.08885434411920544,0.17067709806655088]",4.0,"[0.07437458106449818,0.03127187153210383]",4.0,"[-0.16607315871620912,-0.016456275453401222]",4.0,"[0.026975615206989385,0.07848058523278809]",4.0,"[-0.15965912382428293,0.08409937294889594]",100.0,"[-0.01622304846514151,0.1937156694351426]",100.0,"[-0.07114882736803706,0.16883684914911876]",4.0,"[-0.1031841675316583,0.05194111013212979]",100.0,"[-0.09024355193739672,0.0006368145292276566]",4.0,"[-0.12401703401780288,0.14679557313770045]",100.0,"[-0.08212235592806853,-0.18123471659243115]",100.0,"[-0.051296655633819264,-0.13443897577376365]",100.0,"[0.16847051360290813,-0.05337482094682712]",4.0,"[-0.1326816621448267,-0.044488117495521035]",100.0,"[-0.02376624520119851,0.1157336314807609]",100.0,"[0.025000304746313116,-0.1751446735069728]",4.0,"[0.08698602802925749,-0.019563691286407857]",100.0,"[-0.049795684575171834,0.01958323033827045]",4.0,"[-0.10514735747005534,-0.14137854238463365]",4.0,"[0.085289884700086,-0.06140528552212456]",100.0,"[-0.027730241901440123,-0.028774609372041467]",4.0,"[0.1765292032061414,-0.00467332262373147]",4.0,"[-0.15252420162266714,0.024859616318683636]",4.0,"[0.140583902221719,0.12010271959451739]",4.0,"[0.1066955458467889,-0.09817710627122939]",4.0,"[0.09814514715095997,-0.14936236938367523]",100.0,"[0.02,0.02]",702.835,0.0,39.0,39.0,116.0,1.0,,,,,,,
,,,,,,,67e1881ee6545fb8e1e7ade8,6844293b0701eca7405afcb9,2025-06-07_05h02.02.722,shape_ratio,2024.1.5,Win32,59.95203837,684250e4f00cb30b92d1fa88,,,,,,,,,,,702.835,703.335,,,703.591,703.785,right,,,,,,,,0.6,0.18,,,,,,,703.335,703.591,703.785,"[0.07365576519609814,-0.03721394405079553]",4.0,"[-0.0684622213987683,-0.14439353411645892]",4.0,"[-0.04300832498057063,0.14804192222227489]",100.0,"[-0.1937285385407315,0.04402212823056713]",100.0,"[0.005067531908646691,0.10617205750566369]",100.0,"[-0.016782754981572705,0.060748107320351366]",100.0,"[-0.04355602455969993,-0.10820519740285167]",4.0,"[0.14348895367387485,-0.11737494772079332]",4.0,"[0.05666510889044443,0.09874136686537172]",100.0,"[0.10500016987291026,0.16427334548652425]",100.0,"[0.0936902211781063,-0.128726223302375]",100.0,"[-0.12450873834382001,-0.09606561280947562]",4.0,"[-0.025006839728942992,-0.037937265189758235]",100.0,"[0.19332679319431342,-0.02415752342569724]",4.0,"[-0.005858698688428197,-0.1924584040834857]",100.0,"[0.16750866907884004,0.07270300339707883]",100.0,"[-0.1849066783204671,-0.0033173792388260263]",4.0,"[0.12816021964059296,0.03679678576413993]",4.0,"[-0.14089929634658993,0.07283853027831301]",100.0,"[0.026442342122449114,0.1419060346354672]",4.0,"[0.05447907503201614,0.04803719442352911]",100.0,"[-0.04808518845320173,0.02235978621830148]",4.0,"[0.09555785837608749,0.11983280038285425]",100.0,"[-0.0649393465549561,-0.05082102447795661]",100.0,"[-0.10775078338846593,-0.16079732699562627]",100.0,"[0.015738898046935478,-0.0682372055846064]",4.0,"[-0.05579765136391901,0.19051633664815196]",4.0,"[-0.06982218404217973,0.09726495197176839]",100.0,"[0.0586288649033767,-0.0999311413777304]",100.0,"[-0.14071320977170002,0.0027625859628020006]",100.0,"[0.14336080482739516,0.1199355406250792]",4.0,"[0.03426963369746948,-0.020000211815144064]",100.0,"[0.02,0.02]",704.884,0.0,40.0,40.0,52.0,1.0,,,,,,,
,,,,,,,67e1881ee6545fb8e1e7ade8,6844293b0701eca7405afcb9,2025-06-07_05h02.02.722,shape_ratio,2024.1.5,Win32,59.95203837,684250e4f00cb30b92d1fa88,,,,,,,,,,,704.89,705.384,,,705.636,706.034,left,,,,,,,,0.9,0.386,,,,,,,705.385,705.636,706.034,"[0.1487324455431185,0.014684057070474193]",100.0,"[0.11979866677465836,0.15954587035968276]",100.0,"[-0.1492635164060385,-0.03831409597807393]",100.0,"[0.0048284395977494735,0.04758610064277605]",100.0,"[0.03356727156275339,-0.029376903594598745]",4.0,"[-0.19815952692849687,-0.024841997057996924]",100.0,"[-0.028959470511302477,-0.12551297358537444]",100.0,"[-0.16329683410454382,0.008072619079195794]",100.0,"[0.049067178999176106,0.1885846679866684]",100.0,"[-0.09137629064885518,0.10419737826328736]",100.0,"[0.19753430026452184,0.007136622405883675]",4.0,"[0.13509124960457186,-0.10337372880479724]",100.0,"[0.06448864131194526,0.0464571329577709]",100.0,"[0.10281151691652457,-0.04063311466831128]",100.0,"[-0.05179487265580338,0.011830872508668508]",100.0,"[0.1602585210369435,0.11086773976405204]",100.0,"[-0.03251041552139711,0.1968235808267657]",100.0,"[0.0070547078039237,-0.19601298760284902]",100.0,"[-0.11179255944276631,-0.013180936358228288]",100.0,"[-0.03811986349618466,0.08797772165757035]",100.0,"[0.07265747507357029,-0.07339876947902703]",100.0,"[0.17786778531271194,-0.05397859332902691]",4.0,"[0.005212073085626956,0.09278400538073311]",100.0,"[0.1730240103480724,0.06682960585935922]",100.0,"[-0.04305591722626356,-0.06018569032841105]",100.0,"[0.09436240181378347,-0.13726950255373666]",100.0,"[-0.09378582749579227,-0.08253986031525416]",100.0,"[-0.16410804685163938,0.07964645141935102]",100.0,"[-0.08852609664230653,0.030234769065556725]",100.0,"[-0.058969050554188794,0.15167959517783586]",100.0,"[0.10256333334917005,0.0670720433042143]",100.0,"[0.014923762496426997,-0.093765697013807]",100.0,"[0.02,0.02]",707.134,0.0,41.0,41.0,17.0,1.0,,,,,,,
,,,,,,,67e1881ee6545fb8e1e7ade8,6844293b0701eca7405afcb9,2025-06-07_05h02.02.722,shape_ratio,2024.1.5,Win32,59.95203837,684250e4f00cb30b92d1fa88,,,,,,,,,,,707.134,707.633,,,707.884,708.4,left,,,,,,,,0.6,0.503,,,,,,,707.633,707.884,708.4,"[0.04458573572921102,-0.10661331971351494]",100.0,"[0.057732095263156306,0.1767850755224415]",100.0,"[0.1260888678176795,0.023647356385002788]",4.0,"[0.14081843182914972,0.0966312775323662]",100.0,"[0.004643159419971605,0.17162683174050955]",4.0,"[-0.09022562569287804,0.02681029644905147]",4.0,"[-0.1081453079427662,0.129505203726324]",100.0,"[-0.1049996657035145,-0.16284708249017393]",100.0,"[-0.13817560291692968,-0.015855255032988555]",4.0,"[0.030472531960421594,0.009570708886348702]",100.0,"[0.18062398496233129,0.07895092883615991]",4.0,"[-0.033895452784718096,0.15132284731474682]",100.0,"[0.07998626154530447,-0.026300727335781215]",100.0,"[-0.18265833974917015,-0.04383049823131375]",100.0,"[-0.0298365109828834,-0.16713129220132272]",4.0,"[-0.08184736768208835,-0.12961051249754588]",100.0,"[0.15288978566335765,-0.11085421500259253]",100.0,"[0.023283659115464036,-0.17916859967423604]",100.0,"[0.0828489991809493,0.027136086749847143]",100.0,"[-0.012487678492707242,-0.1307765031610739]",100.0,"[-0.1003655846246507,0.06773003679881648]",100.0,"[0.10115898218381295,0.06394687669963163]",100.0,"[-0.012003087270454646,-0.08679074398849741]",100.0,"[0.19556098149660353,0.006123429081909526]",4.0,"[-0.19372607935830677,0.040829439125172874]",4.0,"[-0.0723493565382502,0.18447947041618265]",100.0,"[0.13271585913417633,-0.02788705608299668]",4.0,"[0.18824517350137399,-0.05477834527572858]",4.0,"[0.06447293292297566,0.08169183907079582]",4.0,"[-0.024461055218713133,0.07463152650227017]",4.0,"[-0.05001975886917731,-0.04134472575271995]",100.0,"[0.03622958321191821,-0.05328466836436717]",4.0,"[0.02,0.02]",709.499,0.0,42.0,42.0,31.0,1.0,,,,,,,
,,,,,,,67e1881ee6545fb8e1e7ade8,6844293b0701eca7405afcb9,2025-06-07_05h02.02.722,shape_ratio,2024.1.5,Win32,59.95203837,684250e4f00cb30b92d1fa88,,,,,,,,,,,709.5,709.999,,,710.251,710.583,right,,,,,,,,0.45,0.319,,,,,,,709.999,710.25,710.583,"[-0.03529396912646311,0.037412765202898005]",100.0,"[-0.0005916781766724315,-0.15236378640830542]",100.0,"[0.08636288594209382,-0.1676518780016693]",4.0,"[0.08075630428858907,0.05655771164639165]",4.0,"[-0.07035345159160389,-0.14240737563189784]",100.0,"[0.07448214014303765,-0.007029066050690139]",100.0,"[0.1287603267487595,0.10299084026670367]",4.0,"[0.07661151229929122,0.1689692070736637]",4.0,"[0.15101522945943566,0.053357584711798384]",4.0,"[-0.05402374932838041,0.14882091149026047]",100.0,"[0.01865653389579595,0.019910337403484545]",100.0,"[-0.049639681591334944,0.07751976352582889]",100.0,"[0.13355278582893812,-0.1349699007899669]",100.0,"[0.022105644658110345,0.0640207280307994]",4.0,"[0.01680498395543254,0.13276211795604043]",4.0,"[-0.026553608613119676,-0.1871565467852695]",4.0,"[-0.09742890576540054,0.0830824065112016]",4.0,"[-0.07715088234092685,-0.02602090495548217]",4.0,"[-0.18035000730815356,-0.028414996373406828]",4.0,"[0.18221573351819514,-0.006111295542422844]",4.0,"[0.07329547396271813,-0.09956229979381175]",100.0,"[-0.04746781752466124,-0.08415380327333256]",100.0,"[-0.15842708027831365,0.06222673744783152]",4.0,"[0.17117036104037975,-0.054261332797424]",4.0,"[-0.08331996837611477,0.039231196377129775]",4.0,"[0.06548021268800583,0.10892699296934738]",4.0,"[-0.1529439093881308,0.01538301387667498]",4.0,"[0.012666976373480075,-0.03511313538671926]",100.0,"[0.19647769260917505,0.03444617860105289]",4.0,"[-0.0863763745397292,0.1794035953254461]",100.0,"[0.13699846480348568,-0.012726897166967715]",100.0,"[0.03624338605927112,-0.18619956704463472]",100.0,"[0.02,0.02]",711.683,0.0,43.0,43.0,143.0,1.0,,,,,,,
,,,,,,,67e1881ee6545fb8e1e7ade8,6844293b0701eca7405afcb9,2025-06-07_05h02.02.722,shape_ratio,2024.1.5,Win32,59.95203837,684250e4f00cb30b92d1fa88,,,,,,,,,,,711.683,712.182,,,712.432,712.833,right,,,,,,,,0.45,0.385,,,,,,,712.182,712.432,712.833,"[0.14620299285147245,0.03434468051474643]",100.0,"[-0.05248528449625775,0.19235942799875444]",100.0,"[0.017052262800896313,0.00951968563398191]",100.0,"[-0.12357405898171162,0.13399139139515578]",100.0,"[0.07248077022876917,-0.17810720061369398]",100.0,"[0.023040512731470942,0.10348475129968679]",100.0,"[0.0794703029487083,-0.04166931115811351]",4.0,"[-0.015094702580024435,0.16349020390633434]",4.0,"[0.0002050372962094332,-0.1568810097150512]",4.0,"[-0.09290429441281417,-0.10024946634222495]",100.0,"[-0.07950052764110355,0.0551017520610861]",100.0,"[0.07145171790698153,0.03369872862825051]",4.0,"[-0.1467318650028137,-0.0037196332044281454]",4.0,"[0.03773072148476095,0.1728090102014473]",4.0,"[0.10230504534619007,0.12583559170964784]",4.0,"[0.17882052231561457,-0.012368264771932775]",4.0,"[0.13965910299205062,-0.05037520581123209]",100.0,"[-0.10910487112797826,0.09037891294144275]",100.0,"[0.05380901986150195,-0.010290889788174626]",100.0,"[0.1572338747861673,0.12251479294137206]",4.0,"[-0.0991436690580689,-0.05184701169024744]",4.0,"[-0.1789657270458589,0.06868512769256202]",4.0,"[-0.0526664152422644,-0.15002595402644556]",100.0,"[-0.09155222726900748,0.007723375565540596]",4.0,"[0.002542158472569862,-0.10625764045206063]",100.0,"[-0.05090388521744012,-0.08921843822695236]",4.0,"[-0.157715082951944,-0.09330162460816507]",4.0,"[0.1561156016596521,-0.10861319936707271]",4.0,"[-0.046337493331619954,0.11511755932900568]",4.0,"[0.1101126305676579,0.016992409598207036]",4.0,"[0.013245211178156106,-0.03899590930929746]",4.0,"[0.07245512481194638,0.09868437487699887]",100.0,"[0.02,0.02]",713.932,0.0,44.0,44.0,125.0,1.0,,,,,,,
,,,,,,,67e1881ee6545fb8e1e7ade8,6844293b0701eca7405afcb9,2025-06-07_05h02.02.722,shape_ratio,2024.1.5,Win32,59.95203837,684250e4f00cb30b92d1fa88,,,,,,,,,,,713.933,714.431,,,714.683,714.982,right,,,,,,,,0.5,0.285,,,,,,,714.431,714.683,714.982,"[-0.13322870848281002,0.011025216928487432]",100.0,"[0.07989083982116936,-0.12082866639301401]",4.0,"[0.08801375302024475,0.08196213536586683]",100.0,"[0.1345491668710752,-0.12361875484005229]",4.0,"[0.16068225275303827,-0.017308099506722865]",4.0,"[-0.17569327372617452,0.08981828716210283]",100.0,"[-0.1255049994356214,0.09759571781291966]",100.0,"[-0.07362517383478956,0.01053114883981129]",4.0,"[0.11430061835008516,0.1285494084689248]",100.0,"[0.10890862194659637,-0.02891463594774942]",100.0,"[-0.0742506145638564,0.12187984696051993]",100.0,"[-0.1724916035511813,-0.09888816991035845]",4.0,"[0.059391492111544764,-0.009554732246643065]",4.0,"[0.057936119029553625,0.15176682926541546]",4.0,"[0.1718874027916956,-0.09974714732126005]",4.0,"[0.04927654365543919,0.0563252721900652]",4.0,"[-0.09186492917286489,-0.14871522299390033]",4.0,"[-0.04883362046541863,-0.11048842934429248]",4.0,"[-0.061350490704333065,-0.03144926109580569]",100.0,"[-0.14004352405670434,-0.05780774375244567]",100.0,"[0.030996923684467072,-0.06197886988853384]",100.0,"[-0.09035760363001355,-0.07459496552877644]",100.0,"[-0.023101473711781912,-0.14497142095177415]",4.0,"[0.13424441358465103,0.05533768396409782]",4.0,"[0.0014076926719281799,0.18225475381166384]",4.0,"[-0.19594608201699018,0.019048350496685636]",100.0,"[0.08584502575556824,-0.16276968646683415]",100.0,"[-0.01707441814311439,0.012040121745425255]",100.0,"[0.04406219553437381,-0.1549930397328134]",100.0,"[-0.11700411666470473,0.15422418638528906]",4.0,"[0.0080206750977569,-0.19240268957939644]",4.0,"[-0.07763594461562613,0.058494954506215245]",100.0,"[0.02,0.02]",716.081,0.0,45.0,45.0,112.0,1.0,,,,,,,
,,,,,,,67e1881ee6545fb8e1e7ade8,6844293b0701eca7405afcb9,2025-06-07_05h02.02.722,shape_ratio,2024.1.5,Win32,59.95203837,684250e4f00cb30b92d1fa88,,,,,,,,,,,716.081,716.581,,,716.831,717.128,right,,,,,,,,0.9,0.287,,,,,,,716.581,716.831,717.128,"[-0.18820579038908752,0.014215304173621084]",100.0,"[0.11881343712732444,0.024407194997482656]",100.0,"[0.03978708506993474,0.11612406621559597]",100.0,"[-0.16828481588839161,0.10400159519754375]",100.0,"[-0.11748750560922815,-0.13509225748482587]",100.0,"[0.14865473808372826,0.10888994473326417]",100.0,"[0.02118616846589437,0.046515160074851174]",100.0,"[-0.005105135947419278,-0.013032806854357024]",100.0,"[-0.008574000540337901,-0.1606409067125291]",100.0,"[-0.13084608371666875,0.14011873715439518]",100.0,"[-0.10732139922033317,0.014682991338234077]",100.0,"[0.03582099433304611,-0.12182383692854067]",100.0,"[-0.014235287461521723,0.10007391801250422]",100.0,"[0.06276537340808398,0.010280300146820322]",100.0,"[0.10837753733495702,0.1636146449416775]",100.0,"[-0.044440734699427345,0.188653954232326]",100.0,"[0.003044755447531122,0.1718743278762279]",100.0,"[-0.05045543742436968,-0.09785416880010843]",4.0,"[0.186172550344233,0.04675349209997411]",100.0,"[0.12648243973849999,-0.03502525706245589]",100.0,"[0.16683565850213825,-0.10303339834683094]",4.0,"[-0.11795541763204538,0.10151982291432998]",4.0,"[0.037151161175801306,-0.19008080746552472]",100.0,"[-0.056286250424662704,0.07350799931602696]",100.0,"[0.06322490071892124,0.16669657793308965]",100.0,"[0.12710920477801851,0.06799796601418401]",100.0,"[0.1284789687966649,-0.11940748690013596]",100.0,"[-0.17553199400738528,-0.07090665117622352]",100.0,"[0.01377132950689194,-0.05471271454048988]",100.0,"[0.10101404316405858,0.12194686392968568]",100.0,"[-0.12457488718830949,-0.021944829508594985]",100.0,"[0.07264637446491658,-0.06392454140024306]",100.0,"[0.02,0.02]",718.231,0.0,46.0,46.0,12.0,1.0,,,,,,,
,,,,,,,67e1881ee6545fb8e1e7ade8,6844293b0701eca7405afcb9,2025-06-07_05h02.02.722,shape_ratio,2024.1.5,Win32,59.95203837,684250e4f00cb30b92d1fa88,,,,,,,,,,,718.232,718.731,,,718.981,719.267,left,,,,,,,,0.4,0.268,,,,,,,718.731,718.981,719.267,"[0.09873268401589078,-0.16297019315216596]",4.0,"[-0.052492252643693886,0.06660391742466808]",4.0,"[-0.14999234586513074,0.09166179547216305]",100.0,"[-0.06971110278964442,-0.05135003372193981]",4.0,"[-0.09971565044876225,0.05432023576996048]",100.0,"[-0.14472364581224104,-0.08533076370947613]",100.0,"[0.12270535558174224,-0.03683506321283655]",4.0,"[0.16955126755949146,0.03655828874000675]",100.0,"[0.037170991270548355,-0.09427232413855048]",4.0,"[-0.05312455751406537,-0.0878553510326615]",100.0,"[-0.07101339768209397,0.11258455421898735]",100.0,"[-0.0020218934623846673,0.08316346712823904]",4.0,"[-0.0648868534447014,0.17751258905251616]",4.0,"[-0.13570465092863787,0.13099230343457688]",100.0,"[0.07726226968787146,0.1106618029089905]",100.0,"[0.011395614124650724,-0.1432793206315535]",4.0,"[-0.09147719180756583,-0.10316350746310243]",4.0,"[0.14685882801432232,0.0031064874457787106]",4.0,"[-0.1371009285959579,-0.12733209782106036]",100.0,"[0.03652881513651395,0.17532258594360056]",4.0,"[-0.09761226824404197,-0.1497058900606925]",4.0,"[0.06506099252592068,-0.012234493204359672]",100.0,"[0.14092917301380606,0.1285372083210549]",4.0,"[-0.19426066548094242,-0.015862736897116515]",4.0,"[0.17152658760850717,-0.039787093859556935]",4.0,"[-0.017369028775890496,0.011795654487564089]",4.0,"[-0.19360501406212802,0.04786490512752766]",100.0,"[0.09793315722444389,0.16770208470703424]",100.0,"[-0.07212656782214383,-0.1848252802380591]",4.0,"[0.1502394125073525,0.0874029401598959]",4.0,"[-0.026090271893394735,-0.0401456938706248]",4.0,"[0.11561894056165345,-0.07823742805719931]",100.0,"[0.02,0.02]",720.363,0.0,47.0,47.0,152.0,1.0,,,,,,,
,,,,,,,67e1881ee6545fb8e1e7ade8,6844293b0701eca7405afcb9,2025-06-07_05h02.02.722,shape_ratio,2024.1.5,Win32,59.95203837,684250e4f00cb30b92d1fa88,,,,,,,,,,,720.364,720.863,,,721.114,721.513,left,,,,,,,,0.45,0.383,,,,,,,720.863,721.114,721.513,"[0.18958178024691708,0.04745709137292252]",100.0,"[-0.14772977093624087,0.08502503981326288]",4.0,"[0.032665553934970934,-0.0905046839088182]",100.0,"[-0.07677522187590642,-0.03923491130183432]",100.0,"[0.15193175745862278,0.1230391678636411]",4.0,"[0.04759405787505668,0.1566708187668794]",4.0,"[0.11163938628347478,-0.09480839024967717]",4.0,"[0.1061888755377017,0.032065061916925826]",4.0,"[-0.1115724301736313,-0.09833076967380465]",100.0,"[-0.10024265752536357,0.004286064621095175]",4.0,"[-0.13682673965991318,-0.05467173556766841]",4.0,"[-0.0013257591073506806,0.14826610379069735]",4.0,"[0.041212038669666,-0.045635538713455756]",100.0,"[0.06723099689913307,-0.004997117064023492]",4.0,"[-0.12965247771019134,-0.1349637721729896]",4.0,"[0.141599931475677,0.05306013764128815]",4.0,"[0.15893299395901664,-0.06625570149875662]",100.0,"[0.04831907676878291,0.10027425544335805]",4.0,"[0.0866177531954342,0.06900320016680628]",4.0,"[-0.1962862289192235,0.03142432952841002]",100.0,"[0.019555605878245327,-0.12912530370416483]",100.0,"[-0.054699032995735954,-0.11301914733331253]",100.0,"[-0.008608048863226492,-0.09873806158615135]",100.0,"[-0.10159335425674478,0.10512860641359606]",4.0,"[0.009155568492965933,0.05643617443835077]",4.0,"[0.05984554913858824,-0.1597637991522832]",100.0,"[-0.057513776758303985,0.08691639494317227]",100.0,"[0.1479694700613135,-0.018740980443922854]",100.0,"[-0.08572186418457252,-0.1744080956663119]",4.0,"[0.10855061894862586,-0.038134288596044855]",100.0,"[-0.1282418587080424,0.04149048783926355]",4.0,"[-0.04658055357761223,-0.16536779238136903]",4.0,"[0.02,0.02]",722.613,0.0,48.0,48.0,120.0,1.0,,,,,,,
,,,,,,,67e1881ee6545fb8e1e7ade8,6844293b0701eca7405afcb9,2025-06-07_05h02.02.722,shape_ratio,2024.1.5,Win32,59.95203837,684250e4f00cb30b92d1fa88,,,,,,,,,,,722.613,723.113,,,723.363,724.312,right,,,,,,,,0.6,0.934,,,,,,,723.113,723.363,724.312,"[-0.023942405095971037,-0.003713891023134031]",4.0,"[0.19152804075618213,-0.0459326525841322]",100.0,"[-0.0880750440133649,-0.07309485431365591]",100.0,"[-0.10029971125244394,-0.005681748256897801]",4.0,"[0.13893092649969227,0.023462876701081048]",100.0,"[0.06231427671739034,0.12218447778837202]",100.0,"[-0.012262005636958498,-0.17336463594575166]",4.0,"[-0.09673090827027776,-0.14006902800602525]",100.0,"[-0.07933625531708227,0.04791201544800046]",100.0,"[-0.1725585109978218,0.06055869741114047]",100.0,"[0.10502507362453549,0.048902044598566015]",4.0,"[-0.0633214048909359,-0.031645226918621136]",4.0,"[0.11299184002992382,-0.027423957694752192]",4.0,"[-0.14169314043047335,0.10764197131265914]",100.0,"[0.02186042536724241,-0.03605728379988755]",100.0,"[0.11809150259115264,0.11871300515938932]",4.0,"[-0.023969105324238453,0.05502746917325072]",4.0,"[0.05654422412271711,-0.01395534627722855]",100.0,"[-0.15175175985445843,0.022168938663563065]",100.0,"[-0.0033041424209899815,-0.07976456138008245]",100.0,"[0.04756042012263046,0.07166692212617545]",4.0,"[0.05623419585169567,-0.14598557494155442]",100.0,"[-0.034559791680833056,0.1873551423565428]",4.0,"[0.15256404673014076,0.07833055840151326]",100.0,"[-0.06758962253536002,0.15144352431995642]",4.0,"[-0.18707998550901866,-0.030447868118712484]",100.0,"[0.09632732798468038,-0.1746587901680796]",100.0,"[0.04265286941214181,0.029679215469301766]",100.0,"[-0.04363609586033385,0.11386782378051644]",100.0,"[0.09327776329822034,0.17482028310249773]",100.0,"[0.13805573684012667,-0.12507413505526385]",4.0,"[0.14599348755632163,-0.05352862786037589]",4.0,"[0.02,0.02]",725.412,0.0,49.0,49.0,46.0,1.0,,,,,,,
