right,left,explain.started,explain.stopped,key_resp_3.keys,key_resp_3.rt,key_resp_3.duration,participant,session,date,expName,psychopyVersion,OS,frameRate,study_id,explain_2.started,explain_2.stopped,key_resp_4.keys,key_resp_4.rt,key_resp_4.duration,explain_3.started,explain_3.stopped,key_resp_5.keys,key_resp_5.rt,key_resp_5.duration,fixation.started,fixation.stopped,practice.started,practice.stopped,response.started,response.stopped,key_resp.keys,key_resp.rt,key_resp.duration,feedback.started,feedback.stopped,trials_2.thisRepN,trials_2.thisTrialN,trials_2.thisN,trials_2.thisIndex,trials_2.ran,dot_ratio,explain_4.started,explain_4.stopped,key_resp_6.keys,key_resp_6.rt,key_resp_6.duration,dotDisplay.started,dotDisplay.stopped,ITI.started,polygon_1.pos,polygon_1.edges,polygon_2.pos,polygon_2.edges,polygon_3.pos,polygon_3.edges,polygon_4.pos,polygon_4.edges,polygon_5.pos,polygon_5.edges,polygon_6.pos,polygon_6.edges,polygon_7.pos,polygon_7.edges,polygon_8.pos,polygon_8.edges,polygon_9.pos,polygon_9.edges,polygon_10.pos,polygon_10.edges,polygon_11.pos,polygon_11.edges,polygon_12.pos,polygon_12.edges,polygon_13.pos,polygon_13.edges,polygon_14.pos,polygon_14.edges,polygon_15.pos,polygon_15.edges,polygon_16.pos,polygon_16.edges,polygon_17.pos,polygon_17.edges,polygon_18.pos,polygon_18.edges,polygon_19.pos,polygon_19.edges,polygon_20.pos,polygon_20.edges,polygon_21.pos,polygon_21.edges,polygon_22.pos,polygon_22.edges,polygon_23.pos,polygon_23.edges,polygon_24.pos,polygon_24.edges,polygon_25.pos,polygon_25.edges,polygon_26.pos,polygon_26.edges,polygon_27.pos,polygon_27.edges,polygon_28.pos,polygon_28.edges,polygon_29.pos,polygon_29.edges,polygon_30.pos,polygon_30.edges,polygon_31.pos,polygon_31.edges,polygon_32.pos,polygon_32.edges,dot_size,ITI.stopped,trials.thisRepN,trials.thisTrialN,trials.thisN,trials.thisIndex,trials.ran,break_2.started,break_2.stopped,trials_3.thisRepN,trials_3.thisTrialN,trials_3.thisN,trials_3.thisIndex,trials_3.ran
subject chose diamond,subject chose dot,0.0006,44.5016,space,29.3668,0.1076,67f2f4b9769f12d21471a6b9,68442936e73deea808342887,2025-06-07_14h04.23.961,shape_ratio,2024.1.5,Win32,48.30917874,684250e4f00cb30b92d1fa88,,,,,,,,,,,,,,,,,,,,,,,,,,,,,,,,,,,,,,,,,,,,,,,,,,,,,,,,,,,,,,,,,,,,,,,,,,,,,,,,,,,,,,,,,,,,,,,,,,,,,,,,,,,,,,,,,
,,,,,,,67f2f4b9769f12d21471a6b9,68442936e73deea808342887,2025-06-07_14h04.23.961,shape_ratio,2024.1.5,Win32,48.30917874,684250e4f00cb30b92d1fa88,44.5019,96.3797,space,21.8579,,,,,,,,,,,,,,,,,,,,,,,,,,,,,,,,,,,,,,,,,,,,,,,,,,,,,,,,,,,,,,,,,,,,,,,,,,,,,,,,,,,,,,,,,,,,,,,,,,,,,,,,,,,,,
,,,,,,,67f2f4b9769f12d21471a6b9,68442936e73deea808342887,2025-06-07_14h04.23.961,shape_ratio,2024.1.5,Win32,48.30917874,684250e4f00cb30b92d1fa88,,,,,,96.38,103.0403,space,3.6521,,,,,,,,,,,,,,,,,,,,,,,,,,,,,,,,,,,,,,,,,,,,,,,,,,,,,,,,,,,,,,,,,,,,,,,,,,,,,,,,,,,,,,,,,,,,,,,,,,,,,,,,
,,,,,,,67f2f4b9769f12d21471a6b9,68442936e73deea808342887,2025-06-07_14h04.23.961,shape_ratio,2024.1.5,Win32,48.30917874,684250e4f00cb30b92d1fa88,,,,,,,,,,,103.1843,103.5764,103.5769,103.8146,103.8149,104.8589,right,0.9579,,104.8592,105.9312,0.0,0.0,0.0,1.0,1.0,0.8,,,,,,,,,,,,,,,,,,,,,,,,,,,,,,,,,,,,,,,,,,,,,,,,,,,,,,,,,,,,,,,,,,,,,,,,,,,,,,,,,,,,,,
,,,,,,,67f2f4b9769f12d21471a6b9,68442936e73deea808342887,2025-06-07_14h04.23.961,shape_ratio,2024.1.5,Win32,48.30917874,684250e4f00cb30b92d1fa88,,,,,,,,,,,105.9327,106.4409,106.4412,107.0763,107.0764,108.2179,,,,108.2179,109.3344,0.0,1.0,1.0,0.0,1.0,0.2,,,,,,,,,,,,,,,,,,,,,,,,,,,,,,,,,,,,,,,,,,,,,,,,,,,,,,,,,,,,,,,,,,,,,,,,,,,,,,,,,,,,,,
,,,,,,,67f2f4b9769f12d21471a6b9,68442936e73deea808342887,2025-06-07_14h04.23.961,shape_ratio,2024.1.5,Win32,48.30917874,684250e4f00cb30b92d1fa88,,,,,,,,,,,,,,,,,,,,,,,,,,,,109.3351,114.5419,space,2.1833,,,,,,,,,,,,,,,,,,,,,,,,,,,,,,,,,,,,,,,,,,,,,,,,,,,,,,,,,,,,,,,,,,,,,,,,,,,,,,,,,,
,,,,,,,67f2f4b9769f12d21471a6b9,68442936e73deea808342887,2025-06-07_14h04.23.961,shape_ratio,2024.1.5,Win32,48.30917874,684250e4f00cb30b92d1fa88,,,,,,,,,,,114.6228,115.0774,,,115.4094,116.0396,right,0.6091,,,,,,,,,0.45,,,,,,115.0797,115.4092,116.0404,"[0.08348445084435004,-0.010443989001987506]",100.0,"[0.047189708614802005,0.15051803288900442]",100.0,"[-0.07537153906984678,-0.07513569115897496]",4.0,"[-0.05033061767039779,0.17620195054608986]",4.0,"[-0.1968852490950579,0.00044243977847002264]",100.0,"[-0.1697627157095768,-0.0747014221785673]",100.0,"[-0.1624005459637273,0.11429931196477483]",4.0,"[0.14429340957624195,0.0786796591431915]",4.0,"[-0.08616260050997104,-0.1182754645043699]",4.0,"[-0.020761191440085473,0.14650533266415622]",4.0,"[-0.0239138060290916,-0.18846762305657783]",4.0,"[-0.03049270154640542,-0.11422857054397725]",100.0,"[-0.00864632038128926,0.017579598280670693]",100.0,"[0.13818662635918627,-0.0722195874444696]",100.0,"[0.126607470708708,-0.024185072839548002]",100.0,"[-0.06682183278800899,-0.1788987219297364]",4.0,"[-0.14253663169397288,-0.1345726632523144]",4.0,"[0.13379138015468686,0.12334548157355348]",4.0,"[-0.10493721716413167,0.16678270767285444]",4.0,"[0.02220216310020088,-0.16799080645044076]",4.0,"[0.06654215737910683,0.08277650315844932]",100.0,"[-0.13763699916680736,0.028801991799256386]",100.0,"[0.04915975525016772,-0.13518330211206003]",100.0,"[0.12860511024198115,-0.1427259877943984]",4.0,"[-0.004529692556751808,-0.02681572949230102]",100.0,"[0.18719251577283086,0.0052269029435064234]",4.0,"[-0.09627447097272955,0.09724547016336128]",4.0,"[-0.05680966155644925,0.005308041401595414]",4.0,"[-0.022694349268930297,0.06973640744486871]",100.0,"[-0.04594816120806108,0.10663063939901204]",100.0,"[-0.11817984959052748,-0.06877512373957219]",4.0,"[-0.10265369186952776,-0.15735205147952533]",4.0,"[0.02,0.02]",117.1386,0.0,0.0,0.0,137.0,1.0,,,,,,,
,,,,,,,67f2f4b9769f12d21471a6b9,68442936e73deea808342887,2025-06-07_14h04.23.961,shape_ratio,2024.1.5,Win32,48.30917874,684250e4f00cb30b92d1fa88,,,,,,,,,,,117.14,117.659,,,117.8371,118.6256,left,0.7458,,,,,,,,,0.9,,,,,,117.6591,117.8369,118.6259,"[-0.029804043904472752,-0.0052215336089334605]",100.0,"[0.015614349408663786,-0.05612747273363759]",100.0,"[0.08979918751311136,-0.09960278104870128]",100.0,"[-0.07543542404469766,-0.024795315067988485]",100.0,"[-0.11792428001282865,0.03913778883526552]",100.0,"[-0.08264377518460587,-0.06876369276577776]",4.0,"[-0.18434665525268687,0.02172427288897843]",100.0,"[0.08923405164567555,0.06477132564560513]",100.0,"[-0.022491930415996442,0.08006801008302035]",100.0,"[0.1486403890201923,0.02488926352861276]",100.0,"[-0.01356159775863934,-0.1440958484241303]",4.0,"[0.05640154863922964,-0.16573856681820218]",100.0,"[0.06151360586990689,0.0958965737616273]",100.0,"[-0.17905469776332186,-0.07566479629288107]",100.0,"[-0.05109109362429638,0.029150260830791398]",100.0,"[0.14096125036364002,0.07052131339284023]",100.0,"[0.18290361222115953,-0.0669111568299198]",100.0,"[0.06551321420607252,-0.02573496728480632]",100.0,"[0.04863625938362749,0.175192248801414]",100.0,"[-0.16139493004071187,0.06459847587884814]",100.0,"[0.19719754607916315,0.0011348991523674663]",100.0,"[-0.014835742318103945,0.16171737373265022]",100.0,"[-0.14603882030783746,-0.030967838580568875]",100.0,"[0.13274115728542393,-0.051786985630279614]",100.0,"[-0.19127465130269589,-0.02282628416459281]",100.0,"[-0.07493990691354814,0.07871295909512456]",100.0,"[0.1406707790653903,0.11453492334379602]",100.0,"[0.15864863844147845,-0.10211481739193418]",100.0,"[-0.15295239975578712,-0.12736220597015274]",100.0,"[0.03806118092735682,0.054743170802901975]",100.0,"[-0.05150605591976094,-0.13089513710718512]",4.0,"[-0.1292685002707107,0.11609620953187359]",100.0,"[0.02,0.02]",119.6877,0.0,1.0,1.0,8.0,1.0,,,,,,,
,,,,,,,67f2f4b9769f12d21471a6b9,68442936e73deea808342887,2025-06-07_14h04.23.961,shape_ratio,2024.1.5,Win32,48.30917874,684250e4f00cb30b92d1fa88,,,,,,,,,,,119.6882,120.1529,,,120.3354,121.091,right,0.6848,,,,,,,,,0.1,,,,,,120.153,120.3353,121.091,"[0.05242353176926384,0.14000511793591092]",4.0,"[0.16541647889144798,-0.006634348212884155]",4.0,"[0.10806278889843417,-0.1395622471324145]",4.0,"[0.023234177266767363,0.1723747054637127]",4.0,"[-0.010186753175704097,0.13162765532263357]",4.0,"[-0.05806402959725764,-0.11173748259721988]",100.0,"[0.1416941022101156,0.031237057648430013]",4.0,"[0.1667939760663097,0.0937658219845853]",4.0,"[0.12525646782044766,0.0828814335129117]",4.0,"[-0.09986275248991175,-0.06604214604235607]",4.0,"[0.10722466543889488,0.14551284978338172]",4.0,"[-0.15134222617364865,-0.11444384814829688]",4.0,"[0.011374154240764227,-0.18897177612115382]",4.0,"[-0.037697402842897874,0.17691501652148278]",4.0,"[-0.07013899353087127,0.13122305239274418]",4.0,"[0.04456310630487238,-0.1498118021191535]",100.0,"[0.13119981764644653,-0.10528944600365103]",4.0,"[-0.18035863218182713,-0.06490686682952812]",4.0,"[-0.10327002006986734,0.1580662140788071]",4.0,"[-0.11117599932596897,0.01257121835614926]",4.0,"[-0.04066346782842811,0.07672209408092169]",4.0,"[-0.012502572384227114,0.018288448881292847]",4.0,"[0.01892022146451514,-0.0977786016830706]",4.0,"[-0.13402465110736478,0.08756746307932811]",4.0,"[0.17514496956728967,-0.06708405945214208]",4.0,"[-0.16742859810959257,0.06406296996183226]",4.0,"[0.08955187697137607,0.03651927787819147]",4.0,"[-0.137450574183408,-0.0384716465529307]",4.0,"[0.13605865153698296,-0.052645779681347774]",4.0,"[-0.049547260251225286,-0.19274490731750016]",4.0,"[0.0152803242995041,-0.057267298885121894]",4.0,"[0.07501965063899742,-0.006905569157073142]",100.0,"[0.02,0.02]",122.1828,0.0,2.0,2.0,204.0,1.0,,,,,,,
,,,,,,,67f2f4b9769f12d21471a6b9,68442936e73deea808342887,2025-06-07_14h04.23.961,shape_ratio,2024.1.5,Win32,48.30917874,684250e4f00cb30b92d1fa88,,,,,,,,,,,122.1837,122.6537,,,122.9116,123.7343,left,0.7855,,,,,,,,,0.5,,,,,,122.6538,122.9115,123.7343,"[0.05295202135940196,-0.1316042488095916]",4.0,"[0.1625666974391503,-0.08904691115089018]",4.0,"[0.05911049778648216,-0.03297699759976428]",100.0,"[-0.022929710212383787,-0.09017227366845826]",100.0,"[-0.1486387500496224,0.08400169183089394]",4.0,"[0.0812260743230518,0.036089244960572434]",4.0,"[-0.03469962110111551,0.1511807424679021]",100.0,"[0.02670144798991199,0.09996333628440558]",4.0,"[0.060399050910553184,0.162792165174386]",4.0,"[-0.062079087974320414,-0.060828382410370405]",100.0,"[0.13151608719480512,0.03775771827363853]",4.0,"[-0.10273546865464007,0.056475024436516176]",4.0,"[0.09045557407781858,-0.0729257625384281]",100.0,"[-0.059845274626330804,0.03423152626846468]",4.0,"[-0.14852025206283806,-0.10636691485284236]",100.0,"[0.010615889533984863,-0.01073908123319971]",100.0,"[0.03220566571462734,-0.17158402213526205]",4.0,"[-0.03321503106497288,-0.1412685002387586]",4.0,"[-0.09977902506242735,0.09706827677938117]",100.0,"[0.02057669883817445,0.18571839109223692]",100.0,"[0.13316727602017694,-0.020255648714279637]",100.0,"[-0.09123902321583391,0.0005522355374870486]",4.0,"[-0.1611163313650328,-0.02298857620708265]",100.0,"[-0.023406006965674072,0.06291948955592153]",100.0,"[0.09630706314897702,-0.1408331205146699]",100.0,"[-0.09813464685115565,-0.16029595120996654]",4.0,"[-0.0007085809586841827,0.02936630993498418]",4.0,"[-0.18828536507586313,0.01536510373372291]",100.0,"[0.12537803578994622,0.0969283013912534]",100.0,"[-0.12096647743334529,0.13877594833370258]",100.0,"[0.16746306551390383,0.08810810554876436]",4.0,"[-0.04836332668881522,-0.1893074514093638]",4.0,"[0.02,0.02]",124.8139,0.0,3.0,3.0,106.0,1.0,,,,,,,
,,,,,,,67f2f4b9769f12d21471a6b9,68442936e73deea808342887,2025-06-07_14h04.23.961,shape_ratio,2024.1.5,Win32,48.30917874,684250e4f00cb30b92d1fa88,,,,,,,,,,,124.8149,125.3,,,125.5606,126.601,right,1.0074,,,,,,,,,0.1,,,,,,125.3,125.5606,126.6011,"[0.11439325090847276,-0.14316077217303813]",4.0,"[0.0948418257898016,-0.014177804351253391]",4.0,"[-0.10333667682453081,-0.17090270670898514]",4.0,"[-0.036005007990814276,-0.19049789851970422]",4.0,"[-0.053022811020143494,-0.13332624104146046]",100.0,"[0.02118428839595304,-0.1933302866833004]",4.0,"[-0.15616255853611588,-0.03060035961644797]",4.0,"[-0.01536123983439355,0.03945228927355431]",4.0,"[-0.10841722157632414,-0.021917625571220192]",4.0,"[-0.14063879828708253,-0.08722235402859038]",100.0,"[-0.1351359002842947,0.031060273972634393]",4.0,"[0.01289208121112655,-0.0007313676403365906]",4.0,"[-0.18919862037514829,0.007194179343682461]",100.0,"[-0.00605548259067341,0.101811857677051]",4.0,"[0.029980919027192476,0.1699741478682167]",4.0,"[-0.06822705158329447,0.11936472943214443]",4.0,"[0.12331329411689929,0.13918355579438763]",4.0,"[0.06273107538902484,-0.13725065217867596]",4.0,"[0.113957905890337,0.03750233544092232]",4.0,"[-0.07945806123352035,-0.0701756084508993]",4.0,"[-0.0465612818016239,-0.01347950645614005]",4.0,"[-0.018366537043043488,0.18558352065618217]",4.0,"[-0.05755815364889788,0.06171711283472561]",4.0,"[0.05256682621759619,0.048096964318139084]",4.0,"[-0.11798658158736114,0.1386019256350295]",4.0,"[0.1561454609799834,0.0380191966079304]",4.0,"[0.16034406361382292,0.0861878893191986]",4.0,"[0.10060766704011383,-0.0982870472523852]",4.0,"[0.11965853418581338,0.09238116619823662]",4.0,"[0.14926062467406487,-0.06432052225805505]",4.0,"[-0.16292183828197584,0.06987319866578397]",4.0,"[-0.01882746639044797,-0.08528104682559813]",4.0,"[0.02,0.02]",127.6765,0.0,4.0,4.0,189.0,1.0,,,,,,,
,,,,,,,67f2f4b9769f12d21471a6b9,68442936e73deea808342887,2025-06-07_14h04.23.961,shape_ratio,2024.1.5,Win32,48.30917874,684250e4f00cb30b92d1fa88,,,,,,,,,,,127.6771,128.1736,,,128.6862,129.1247,right,0.4222,,,,,,,,,0.55,,,,,,128.1736,128.6861,129.1247,"[-0.1551773234263849,-0.005893776734610184]",100.0,"[-0.15914313378698364,0.08350154903686222]",100.0,"[0.1691588250640939,0.05354614227229078]",100.0,"[0.09350871270399504,0.00835676861434623]",100.0,"[-0.01867867583190433,0.17806416611934406]",100.0,"[-0.06391407675201106,-0.08371847337776757]",100.0,"[-0.06678705350794872,-0.008004239122768937]",100.0,"[-0.15028228884566502,-0.06344817599975955]",100.0,"[0.1639123540639366,-0.03825447730457406]",4.0,"[-0.10015386052278075,-0.1463367552306001]",100.0,"[0.06200353468408806,-0.1604331946854499]",4.0,"[-0.10848793866384979,0.13390191157277165]",100.0,"[-0.059768760029294876,0.04955369955028611]",4.0,"[0.07966845084510259,-0.09350652319166104]",4.0,"[0.14428697739577903,-0.10798021486915374]",100.0,"[0.13596203913088564,0.12838145762629868]",100.0,"[0.026647730850314136,-0.19642003632796565]",4.0,"[0.08347816726104786,0.06500401586730166]",4.0,"[0.05473137980115995,0.11861663734169182]",4.0,"[-0.11051805662640725,-0.10581884704626184]",4.0,"[-0.06305576166315639,0.17062244190789558]",100.0,"[0.0382443559828269,0.05413517713441189]",4.0,"[0.018790903885429026,-0.03743936947142452]",100.0,"[0.023670667568446428,-0.0979443009749068]",4.0,"[-0.13168312465157161,0.036348860217604397]",100.0,"[-0.1021800531053733,0.08179999848997031]",4.0,"[-0.012513018237986688,-0.0780884652641546]",4.0,"[-0.026976190953865786,0.10661808508914145]",100.0,"[0.001957391406998858,0.021045264381853484]",100.0,"[0.12674251417168747,0.06397952973588207]",4.0,"[-0.018904778726699788,-0.01853639608624292]",4.0,"[0.06889989013367945,-0.03935410548829496]",100.0,"[0.02,0.02]",130.2358,0.0,5.0,5.0,76.0,1.0,,,,,,,
,,,,,,,67f2f4b9769f12d21471a6b9,68442936e73deea808342887,2025-06-07_14h04.23.961,shape_ratio,2024.1.5,Win32,48.30917874,684250e4f00cb30b92d1fa88,,,,,,,,,,,130.2366,130.7189,,,130.9819,131.5135,right,0.5068,,,,,,,,,0.6,,,,,,130.7189,130.9819,131.5135,"[0.15802780121978452,0.11403554592493036]",100.0,"[-0.03956877466684538,-0.15038702470851548]",4.0,"[-0.10761721118198134,0.146748068616362]",100.0,"[-0.0451000066056088,-0.04554667092263577]",100.0,"[-0.04162304688016805,0.11516306821151782]",100.0,"[-0.08623997681436606,-0.11868665291518025]",100.0,"[-0.1050658024062535,-0.009511956876641884]",4.0,"[0.19446148749589454,0.038389537495372765]",100.0,"[0.0663072331662846,-0.15318451558361448]",100.0,"[0.031677604116321534,-0.05838361137111747]",100.0,"[0.1963709706350066,-0.0043729796693677365]",100.0,"[-0.00955528253573868,-0.01378178646687438]",100.0,"[0.011763591404538398,0.1738941753688999]",100.0,"[0.035563795377764815,0.02826963857616736]",100.0,"[0.06521993925305818,-0.09695530155705287]",4.0,"[0.1407461886642775,-0.06329253642994435]",100.0,"[-0.15879839461842005,0.017435577817180203]",100.0,"[0.07580363825790956,0.012180402955452387]",4.0,"[0.10259042018144622,-0.11498726649422138]",100.0,"[-0.0901502205993127,0.10887670566819975]",4.0,"[0.08115506073258219,-0.0302466173540479]",100.0,"[-0.14800103693143893,0.10466163921442025]",100.0,"[0.006124495267459959,0.06509396683252615]",4.0,"[0.0029570404624702255,-0.19469304925825595]",4.0,"[0.042005049145186324,0.09407873071728456]",4.0,"[0.09756901899993868,0.173257118086963]",4.0,"[-0.0635587038864734,0.1627687397165486]",100.0,"[-0.13554889578546303,-0.11936272556734095]",4.0,"[0.01117587563736146,-0.14017930749579094]",100.0,"[0.12579141504937585,0.04824350488310286]",4.0,"[-0.009684557405756468,-0.09533766300975259]",4.0,"[-0.08974108682853717,0.027859798790163696]",4.0,"[0.02,0.02]",132.5967,0.0,6.0,6.0,45.0,1.0,,,,,,,
,,,,,,,67f2f4b9769f12d21471a6b9,68442936e73deea808342887,2025-06-07_14h04.23.961,shape_ratio,2024.1.5,Win32,48.30917874,684250e4f00cb30b92d1fa88,,,,,,,,,,,132.5976,133.1173,,,133.3572,133.9909,right,0.5981,,,,,,,,,0.5,,,,,,133.1173,133.3572,133.991,"[0.11898150741599074,-0.09090932551206427]",100.0,"[-0.11152853744899116,-0.10781436587965045]",100.0,"[-0.13152620978686683,0.12702757358499048]",4.0,"[0.06575587418565443,0.04510813638089741]",4.0,"[-0.1544444124307003,-0.07714191796470773]",100.0,"[0.002146960530863047,0.19453904713489253]",100.0,"[-0.01069800531930054,-0.13926949430882724]",4.0,"[0.05024603478497783,0.10067447815307339]",4.0,"[0.05466776385978135,-0.04485635908693345]",4.0,"[-0.06066804887340302,0.03371089936558987]",100.0,"[0.0054367737956970965,-0.19386094702745665]",4.0,"[-0.10849073746546747,0.04567576461334502]",4.0,"[-0.01976347139341006,-0.053371462393937016]",100.0,"[0.11647930929440475,-0.033517852318057303]",4.0,"[-0.14609900151849087,0.02318962052158947]",4.0,"[-0.19304845098752213,-0.048238526771397644]",4.0,"[-0.05482786306943012,0.17132282697870502]",4.0,"[0.04568953092798216,0.19403838619284194]",100.0,"[0.043935467788087906,-0.10704123017258511]",100.0,"[0.020602652663907383,-0.004260889815473916]",100.0,"[-0.09025682082048538,0.11615807381016001]",4.0,"[-0.06809703422569428,0.07464594167748373]",4.0,"[0.186405967971428,0.02982580412148753]",100.0,"[0.1570289433003203,-0.11086638231389359]",4.0,"[-0.06594314024098881,-0.14671820381529344]",100.0,"[-0.11357717095506571,-0.15633528502435537]",100.0,"[-0.16599356557484435,0.08336814367142038]",4.0,"[-0.07359884466834675,-0.025288150619638548]",100.0,"[-0.11908117711789984,-0.006321511375384226]",100.0,"[0.08408112590052703,-0.007110472019355742]",100.0,"[0.015904561948251697,0.15267949366864553]",100.0,"[0.10304526886292,-0.14883994429251485]",4.0,"[0.02,0.02]",135.0817,0.0,7.0,7.0,98.0,1.0,,,,,,,
,,,,,,,67f2f4b9769f12d21471a6b9,68442936e73deea808342887,2025-06-07_14h04.23.961,shape_ratio,2024.1.5,Win32,48.30917874,684250e4f00cb30b92d1fa88,,,,,,,,,,,135.0826,135.5634,,,135.7664,136.3808,right,0.5441,,,,,,,,,0.5,,,,,,135.5635,135.7661,136.3809,"[-0.07686501844068079,0.1456067208355323]",4.0,"[0.1843625555018034,-0.013697916700106502]",4.0,"[0.12773067382719164,-0.14459184476401804]",4.0,"[-0.05945214781634737,0.045376413033606074]",4.0,"[-0.07622224066022987,-0.09299214680808912]",100.0,"[0.013335343489167909,-0.1880391602389648]",100.0,"[-0.13287226598494106,-0.14633489869762245]",100.0,"[0.038213509090310696,0.009580279202876891]",4.0,"[-0.04503427175762729,-0.15697274188402605]",100.0,"[-0.09577505867977919,-0.17549032351679733]",4.0,"[-0.15970991743816315,0.08893347916948464]",100.0,"[0.10702489611892455,0.0735905596605463]",100.0,"[0.15062373186908162,0.07394188485973834]",4.0,"[-0.027311945841385,0.0776534259373677]",100.0,"[0.12756791859964922,-0.0973818401216592]",4.0,"[0.07806935419668178,-0.02805388728654861]",4.0,"[0.008824154993670584,0.03777217166230539]",4.0,"[0.009336938733633329,0.12585351011945992]",4.0,"[0.1692352192507958,-0.07490020656076597]",100.0,"[0.11149825417954129,0.1609960266746751]",100.0,"[-0.18414388710531782,-0.07167759136579809]",100.0,"[0.017367915786002375,0.19002461159301332]",100.0,"[-0.007929513443018649,-0.12867592645027456]",100.0,"[0.06925285384017157,-0.18376747087510698]",4.0,"[-0.11883936191449108,0.02708112960743358]",4.0,"[-0.13200542580151992,0.13162160525329017]",4.0,"[-0.06353075799261944,0.1016895435072156]",100.0,"[0.04679983957645753,-0.13641350837230568]",100.0,"[0.06920000598310604,0.04668082429533712]",4.0,"[-0.0363303192477493,-0.0519483206718262]",100.0,"[-0.09838255280343695,-0.04084082213406449]",4.0,"[0.06703663613397746,0.13940866297146737]",100.0,"[0.02,0.02]",137.4379,0.0,8.0,8.0,115.0,1.0,,,,,,,
,,,,,,,67f2f4b9769f12d21471a6b9,68442936e73deea808342887,2025-06-07_14h04.23.961,shape_ratio,2024.1.5,Win32,48.30917874,684250e4f00cb30b92d1fa88,,,,,,,,,,,137.4383,137.9249,,,138.1552,138.5984,left,0.422,,,,,,,,,0.45,,,,,,137.9249,138.1551,138.5985,"[-0.015119208324776033,0.16604688786750796]",100.0,"[-0.08670731016777769,-0.13861102277522785]",100.0,"[0.13090832515351386,0.025619671164818964]",4.0,"[-0.18501164476706008,0.06612858511953704]",4.0,"[0.13297246225377704,0.0855826520992834]",4.0,"[-0.14196411454105914,0.010133914214240793]",4.0,"[0.03672377719394663,-0.18992466899168206]",4.0,"[-0.18457112277792545,-0.026431421030328004]",100.0,"[0.1698001904242198,0.015059228172732867]",100.0,"[-0.07123404827921277,0.07428333697029654]",4.0,"[0.07452409936210576,0.14315901257971653]",100.0,"[-0.07313582545418426,-0.03375720387312848]",4.0,"[0.025388168766203055,0.10525454528659318]",4.0,"[0.06786076353960231,-0.05753106821289687]",4.0,"[0.1385575954629664,0.1421988425821943]",100.0,"[-0.0014074173829092729,-0.13575097652588916]",4.0,"[-0.17840257919599434,-0.06707072926772667]",100.0,"[0.183933897448456,-0.026978194302988246]",100.0,"[-0.012557017181843336,0.052130126866816735]",4.0,"[-0.14166741120509863,0.11359684167027889]",100.0,"[0.12784675768092815,-0.08157221694901605]",4.0,"[0.05986531329460049,-0.10656557050586682]",4.0,"[0.09353980128010088,0.07786541095590217]",4.0,"[0.07163724176195277,0.042546933638572454]",4.0,"[0.020910853114726385,-0.00791901081007596]",100.0,"[0.11588981354487751,-0.12478103576623162]",100.0,"[-0.1309143007216793,-0.04430925320642839]",4.0,"[-0.090879655106417,0.03576041790269788]",100.0,"[0.09575870678194648,0.0023206079164679763]",4.0,"[-0.04589831091537128,-0.1695383998457562]",100.0,"[0.04815835785967946,0.1741664730970454]",4.0,"[-0.0703342307439542,0.12038505465912926]",100.0,"[0.02,0.02]",139.6937,0.0,9.0,9.0,146.0,1.0,,,,,,,
,,,,,,,67f2f4b9769f12d21471a6b9,68442936e73deea808342887,2025-06-07_14h04.23.961,shape_ratio,2024.1.5,Win32,48.30917874,684250e4f00cb30b92d1fa88,,,,,,,,,,,139.6943,140.1764,,,140.4109,140.9895,right,0.5472,,,,,,,,,0.9,,,,,,140.1764,140.4109,140.9895,"[0.07094423119363487,0.05919319647118017]",100.0,"[-0.10848704082556872,-0.049516119604098276]",100.0,"[0.052091877542284844,-0.03805019233852582]",100.0,"[-0.19559558864558174,-0.010020028363628183]",100.0,"[0.1607946653451858,0.11628194026306]",100.0,"[-0.007565515707904295,0.01550681890791632]",4.0,"[0.1897715311584383,-0.0400938113653606]",4.0,"[-0.1406092192848421,-0.07802549100925846]",100.0,"[0.07521763508968424,-0.0975579626084137]",100.0,"[0.018233989203321147,0.19402339988082673]",100.0,"[0.07563961197547067,0.1186156777767481]",100.0,"[-0.043967267046559594,-0.10614835119451514]",100.0,"[-0.12270316165384794,-0.1560371248971716]",100.0,"[-0.011735604260879561,-0.16237045467033134]",100.0,"[-0.12305729047389388,0.11360408880533508]",100.0,"[-0.03832610375320839,0.09068447172661939]",100.0,"[-0.11023779615771778,0.017314641151203194]",100.0,"[0.1207567332149801,-0.09642653629229307]",100.0,"[0.13375463573534677,-0.034367274774860894]",100.0,"[-0.044426931921539854,0.16907779597375674]",100.0,"[-0.06628850762061787,-0.17257796188628569]",4.0,"[-0.002182499587192613,0.11456560588311324]",100.0,"[0.025279542568879054,-0.1942177877430433]",100.0,"[0.027955928474489147,-0.1318909944019353]",100.0,"[-0.0006608865223374919,-0.04955364557817343]",100.0,"[-0.06491682507749358,-0.06618291500737583]",100.0,"[0.12792624808529401,0.14967610738792564]",100.0,"[0.08020892814917906,0.17122307466149342]",100.0,"[-0.1437341721412822,-0.12123473565343036]",100.0,"[0.0016052758295897766,0.061050075785937484]",100.0,"[-0.09336959391067978,0.16551823833486182]",100.0,"[0.10072025040517348,-0.16305473463038106]",100.0,"[0.02,0.02]",142.0719,0.0,10.0,10.0,25.0,1.0,,,,,,,
,,,,,,,67f2f4b9769f12d21471a6b9,68442936e73deea808342887,2025-06-07_14h04.23.961,shape_ratio,2024.1.5,Win32,48.30917874,684250e4f00cb30b92d1fa88,,,,,,,,,,,142.0725,142.5541,,,142.8011,143.2922,right,0.4704,,,,,,,,,0.1,,,,,,142.5542,142.8011,143.2923,"[-0.1299957587769229,0.03103369712367402]",4.0,"[-0.11884200046130766,-0.06744733297769794]",100.0,"[0.0688863481540175,-0.014713134641954138]",4.0,"[0.03607532524050241,0.09318009094469132]",4.0,"[0.03782333842136919,-0.19036462166789986]",4.0,"[0.021179354428264244,0.13237859370446284]",4.0,"[0.09935572727719204,-0.08284982776065933]",100.0,"[-0.058255766282896214,0.117428731755218]",4.0,"[0.17555048055822017,0.028006065667879523]",4.0,"[-0.04475166995735849,-0.14911897049574327]",4.0,"[-0.026534567026957504,0.17627293550646733]",4.0,"[0.10416145753807053,0.06481126864156322]",4.0,"[-0.10253889557927115,0.12027135545950954]",4.0,"[0.03355593325701011,0.19589237400886703]",4.0,"[-0.1273246341773885,-0.13504236118649118]",4.0,"[-0.003025439652885897,-0.1476097458512628]",4.0,"[0.005061759984404501,-0.01963954028897415]",4.0,"[-0.09158432279952014,-0.0060963957323474285]",4.0,"[-0.014881333491356737,0.03843964304339444]",4.0,"[0.1380511058584458,0.006484898582818606]",4.0,"[-0.0017783590374486347,-0.062242019360113636]",4.0,"[0.11793874391439842,0.11212721933905825]",4.0,"[0.15237637566037643,-0.10226475703873202]",4.0,"[0.07401244171531093,0.025786208296170895]",4.0,"[-0.07454301712326193,0.06596886515460913]",4.0,"[0.15788350724978328,0.1014112458186116]",4.0,"[-0.17401181948697428,0.04631790095198714]",4.0,"[0.045139601438366476,-0.1449859778515962]",100.0,"[0.05593850214722141,-0.07521842213762057]",4.0,"[-0.16077315637807793,0.09510957000620239]",4.0,"[0.19101585836163543,-0.019699594340832467]",4.0,"[0.15679143431909817,-0.040628448958585084]",4.0,"[0.02,0.02]",144.3709,0.0,11.0,11.0,205.0,1.0,,,,,,,
,,,,,,,67f2f4b9769f12d21471a6b9,68442936e73deea808342887,2025-06-07_14h04.23.961,shape_ratio,2024.1.5,Win32,48.30917874,684250e4f00cb30b92d1fa88,,,,,,,,,,,144.3719,144.86,,,145.1194,145.6428,right,0.495,,,,,,,,,0.1,,,,,,144.86,145.1194,145.643,"[0.14896797738327894,0.07117608017779085]",4.0,"[0.047954241909177006,0.16953821760330434]",4.0,"[0.1613125242396825,-0.027189325477673502]",4.0,"[0.10545701704830039,-0.16084931180391163]",4.0,"[0.0583013093586853,0.08896901187747537]",4.0,"[0.010925475918684365,-0.12274470225733314]",4.0,"[-0.10577789342942572,-0.08338080491683224]",4.0,"[0.03521653654489604,0.051161870135386596]",4.0,"[0.10489951350627959,0.06809076889108884]",4.0,"[-0.13937218932398168,0.03927800560745048]",4.0,"[0.17522668607885544,0.03540585469486639]",4.0,"[0.10549556795045105,-0.1066399861704613]",4.0,"[-0.09178105561531853,0.004545742459145801]",100.0,"[0.16444032206556194,0.11101793777691418]",100.0,"[-0.0275872122566116,0.05041717588053865]",4.0,"[-0.10358612194430306,0.07811915047095803]",4.0,"[-0.07077804187984466,0.18450778265340498]",4.0,"[0.018952631433354742,-0.037537973022207974]",4.0,"[-0.016500274877602205,-0.19591174330891792]",4.0,"[-0.034914430138174864,-0.035380614706334024]",4.0,"[-0.12913516002708733,0.15003691431940308]",4.0,"[-0.06391255921622578,-0.18749551795384564]",4.0,"[-0.03372407483327698,-0.07867364946534107]",4.0,"[-0.1942967740819248,0.008627628525470037]",4.0,"[-0.0717641279275969,0.11128580612829475]",4.0,"[-0.03673630819153309,0.16191118323110107]",4.0,"[0.11489719842927294,0.1577556387013202]",4.0,"[0.13660711164754133,0.01633753164048772]",4.0,"[0.02017337663907596,-0.16536658922277722]",4.0,"[0.006815286127367396,0.12519168810484352]",100.0,"[0.1134440350962658,-0.059784371053022006]",4.0,"[-0.12369673463054073,-0.11923680259179749]",4.0,"[0.02,0.02]",146.7362,0.0,12.0,12.0,185.0,1.0,,,,,,,
,,,,,,,67f2f4b9769f12d21471a6b9,68442936e73deea808342887,2025-06-07_14h04.23.961,shape_ratio,2024.1.5,Win32,48.30917874,684250e4f00cb30b92d1fa88,,,,,,,,,,,146.7366,147.2361,,,147.4751,147.9968,left,0.4887,,,,,,,,,0.6,,,,,,147.2362,147.4749,147.9968,"[-0.12209495013448105,0.09547883022752492]",100.0,"[0.06612533631358103,-0.12753996274474075]",100.0,"[0.026578249599454713,0.15413733943690172]",4.0,"[-0.0407602023809554,-0.10200028919540788]",100.0,"[0.013254205252775554,-0.031544667905180575]",4.0,"[0.09367001812662898,0.16906911408570524]",100.0,"[0.1035810773600226,-0.07187145452600219]",100.0,"[0.11350796744778167,0.10351843820364441]",4.0,"[0.14371693453195492,-0.015173342690607564]",4.0,"[-0.1736612611044489,-0.09100466260492442]",4.0,"[0.020519255620319535,0.08027671185112653]",100.0,"[-0.03458407278909326,0.02154372117144672]",100.0,"[0.08295346310346094,-0.029897493746659873]",4.0,"[-0.1420494228649988,-0.008883463475558158]",100.0,"[0.06007710010492968,-0.17567062789190085]",100.0,"[-0.09579933318253447,-0.14643269293537545]",4.0,"[-0.055537641478015654,0.09102194737075696]",4.0,"[-0.04767003064726129,0.1555445976960471]",4.0,"[0.015624344505076318,-0.1236118450933436]",100.0,"[0.03587200408589438,0.016667065684140465]",4.0,"[-0.11842725509963824,-0.06209102861071683]",100.0,"[0.08453172898938247,0.024830060494416144]",100.0,"[-0.1685320576084011,0.1029308659490745]",100.0,"[-0.18060083806817812,0.05210638690199444]",4.0,"[-0.09036220828020418,0.12377343715705408]",100.0,"[-0.05248644601219306,-0.022853743386500282]",100.0,"[0.05936559521303038,0.11570431164047242]",100.0,"[-0.0843414552828001,0.028024758912388953]",4.0,"[0.12611332060328367,0.14179409370106136]",100.0,"[-0.18341438379636868,-0.03688715758229493]",100.0,"[0.1786733545676512,0.062204131807905606]",100.0,"[0.028153131393783015,-0.08038570999124203]",4.0,"[0.02,0.02]",149.0764,0.0,13.0,13.0,40.0,1.0,,,,,,,
,,,,,,,67f2f4b9769f12d21471a6b9,68442936e73deea808342887,2025-06-07_14h04.23.961,shape_ratio,2024.1.5,Win32,48.30917874,684250e4f00cb30b92d1fa88,,,,,,,,,,,149.0774,149.5754,,,149.8084,150.348,right,0.5078,,,,,,,,,0.5,,,,,,149.5755,149.8083,150.3481,"[0.07484922285396073,0.1729649750125178]",100.0,"[-0.09352233545340471,0.06673387771302254]",100.0,"[-0.14810344141025591,0.017926950892438363]",100.0,"[-0.18525346423214473,-0.06190067376440783]",4.0,"[-0.15128004930760663,0.09948333057216348]",100.0,"[-0.0874529706262075,0.00555098926566139]",4.0,"[0.08505967673466101,-0.039461573313413524]",4.0,"[0.1091610533171602,0.08669380758264027]",100.0,"[-0.039679047729946966,-0.05776774692339034]",4.0,"[-0.03835453255051,0.16934963216379376]",100.0,"[0.04878962988938258,0.020334984048258762]",4.0,"[-0.12177182405074412,-0.09305519806832574]",100.0,"[0.18990257757751625,-0.023996821026446347]",4.0,"[0.1042724644740143,-0.12513619526240155]",100.0,"[0.16320343519005542,-0.10441518430701972]",4.0,"[0.12332972384870987,-0.08986885212931117]",100.0,"[0.035326421097944274,-0.07030559442615138]",4.0,"[-0.09142570912262223,0.14869377741590864]",100.0,"[-0.1008199534440204,-0.16568326977686765]",4.0,"[0.05110978001691342,-0.1426459515072812]",4.0,"[0.06009717448273312,0.11924954855469053]",100.0,"[-0.0034857737443924927,-0.13614945340329065]",100.0,"[-0.0605492315276229,-0.15376506854884026]",4.0,"[-0.05360480889252455,0.11427686089869793]",4.0,"[0.09080525147883235,0.028192965596250077]",4.0,"[0.02382655498242096,-0.030655109899971274]",100.0,"[0.031186709273167627,0.17078364581034258]",4.0,"[0.02664656399509838,0.05712489262644437]",4.0,"[0.16374452766383737,0.09670836795495277]",100.0,"[0.1838273815552712,0.01587954080859257]",4.0,"[-0.1630324654406212,-0.10405008341510215]",100.0,"[0.1824322408514867,0.057698417594442136]",100.0,"[0.02,0.02]",151.4359,0.0,14.0,14.0,100.0,1.0,,,,,,,
,,,,,,,67f2f4b9769f12d21471a6b9,68442936e73deea808342887,2025-06-07_14h04.23.961,shape_ratio,2024.1.5,Win32,48.30917874,684250e4f00cb30b92d1fa88,,,,,,,,,,,151.4363,151.9206,,,152.1733,153.4897,right,1.2789,0.0001,,,,,,,,0.1,,,,,,151.9206,152.1733,153.4897,"[-0.03385175473539576,-0.01409204557600068]",4.0,"[0.029766625495410346,-0.18476122345337306]",100.0,"[0.10699407788937022,0.08904482483798351]",4.0,"[0.07023924908619625,-0.13596128219104234]",4.0,"[-0.15380834473441518,0.05886727220998937]",4.0,"[0.05959495958140166,0.11850117610135276]",4.0,"[0.10585049778857848,-0.10639062306942637]",100.0,"[0.04113496822007801,0.15615186796439517]",4.0,"[-0.01826718269233263,-0.17750672890305796]",4.0,"[-0.08050837764933412,-0.13437775227394763]",100.0,"[-0.1447222582109356,0.001512836220479031]",4.0,"[0.02529733296224137,-0.012359532603682076]",4.0,"[0.07193076948025753,0.04478545295931805]",4.0,"[-0.03837982478607146,0.1601095706670389]",4.0,"[0.15392797219707027,0.03495051235443578]",4.0,"[-0.017920880217669664,0.044079812118743344]",4.0,"[-0.08890720198629314,-0.02602516430055244]",4.0,"[0.028262072977731274,0.060991768889618006]",4.0,"[-0.09239676058493729,0.15455457560701208]",4.0,"[-0.0815250187953528,0.06673241912383836]",4.0,"[-0.1594513045507196,-0.07879445229037653]",4.0,"[0.010954342020560627,0.11469282184857033]",4.0,"[0.19671493485474936,-0.016882011746978638]",4.0,"[0.14562138355028564,-0.1165566468184308]",4.0,"[0.15799654901079793,0.08355967136424958]",4.0,"[-0.0017954201032459093,-0.12192824698373272]",4.0,"[-0.14961500900805777,-0.1254415517969899]",4.0,"[-0.04917577128249786,-0.09314926265689401]",4.0,"[0.09701951996342592,-0.1657005057542781]",4.0,"[0.14958018056867575,-0.07125849151271724]",4.0,"[-0.10119063709749247,-0.09351125188367622]",4.0,"[-0.1387967625603847,0.0972749616269215]",4.0,"[0.02,0.02]",154.5939,0.0,15.0,15.0,194.0,1.0,,,,,,,
,,,,,,,67f2f4b9769f12d21471a6b9,68442936e73deea808342887,2025-06-07_14h04.23.961,shape_ratio,2024.1.5,Win32,48.30917874,684250e4f00cb30b92d1fa88,,,,,,,,,,,154.5948,155.072,,,155.3206,155.8191,right,0.4667,,,,,,,,,0.4,,,,,,155.072,155.3206,155.8193,"[0.10642491170678894,-0.07891220362691832]",100.0,"[0.10177276467755982,0.08844607126061298]",100.0,"[0.031122535965402504,-0.18686109203394605]",100.0,"[0.06761533896231929,-0.14199286996315005]",4.0,"[0.06322621067174188,0.15619198237740525]",4.0,"[0.11944984508162755,0.05048496516460598]",100.0,"[-0.029384809267241824,0.030953201827490548]",4.0,"[-0.043482198469426254,0.18475724820608644]",4.0,"[-0.07963975156855346,-0.024970303806754808]",100.0,"[-0.03207696222528388,0.09785780740064219]",4.0,"[-0.12580538461559282,0.11880183464990822]",4.0,"[-0.09326513842728518,0.02454516809620108]",4.0,"[-0.1283050769868204,-0.06036755024525465]",100.0,"[-0.1213933276207819,0.06876816736734337]",4.0,"[-0.16904664108581735,0.0496326821374492]",4.0,"[0.017924381759391074,0.17072232472032756]",4.0,"[-0.19386182886304582,-0.04523372376319176]",100.0,"[0.024213843848831636,-0.057861936363431024]",4.0,"[-0.052420322565059706,-0.16962179193720767]",4.0,"[0.13289327923531183,-0.0402041472281114]",100.0,"[0.006065491185664818,-0.1387539356536565]",100.0,"[0.1658362915231488,0.06130654710103203]",100.0,"[-0.06030268852049424,0.12883862434371302]",100.0,"[0.049998415637319035,0.08582879025789299]",4.0,"[0.17968906307062454,-0.057431815805373786]",4.0,"[0.050408861376982486,0.02693881734266156]",100.0,"[0.06436817497626907,-0.0639933689973453]",4.0,"[-0.03692310814467134,-0.07119710815484352]",4.0,"[-0.058962993457557816,-0.11121929320509517]",4.0,"[-0.15681873201790444,0.006600577093489972]",4.0,"[0.029414475018549643,-0.010257609190487767]",100.0,"[-0.11164221926553342,-0.13462146529652536]",4.0,"[0.02,0.02]",156.929,0.0,16.0,16.0,151.0,1.0,,,,,,,
,,,,,,,67f2f4b9769f12d21471a6b9,68442936e73deea808342887,2025-06-07_14h04.23.961,shape_ratio,2024.1.5,Win32,48.30917874,684250e4f00cb30b92d1fa88,,,,,,,,,,,156.9299,157.467,,,157.7021,158.0772,left,0.3496,,,,,,,,,0.55,,,,,,157.467,157.702,158.0773,"[-0.08748508730863003,0.000861082845189534]",4.0,"[-0.019271633808810636,0.10682660120649498]",4.0,"[-0.1206502992522479,-0.1306346012817706]",4.0,"[-0.020401858245434987,-0.08555669511202155]",4.0,"[-0.12986416653817645,0.13370454471094018]",4.0,"[-0.02198305953160907,0.1566387411225387]",100.0,"[0.12034503089192006,0.13175821208407662]",100.0,"[0.163453229882365,-0.06327801450882377]",4.0,"[-0.1737466713638328,-0.05362840789996645]",4.0,"[0.16152219432071693,0.025285160543633937]",100.0,"[-0.06286241522413673,0.06605434940106822]",100.0,"[0.15592605316755379,-0.020899479233044277]",100.0,"[-0.15089309652161584,0.055677112116644306]",4.0,"[0.1466094705631413,-0.1045833959275895]",100.0,"[-0.0118462405998534,-0.011142585705391918]",100.0,"[-0.16852707120863747,0.0079466997636961]",100.0,"[0.09289960460984188,0.09792868627547378]",4.0,"[-0.08384095697817014,0.1682110606523198]",100.0,"[-0.012423030983258414,0.05462534309267141]",100.0,"[-0.14161118805333986,-0.08819871224574273]",100.0,"[0.0701247894680796,-0.10426609401329533]",100.0,"[-0.09656623624035979,-0.0765292407867643]",100.0,"[0.0678128190690259,0.14021991868986827]",100.0,"[-0.05547506864961809,-0.13391857398232165]",4.0,"[0.030374478370982377,0.017334144614247152]",4.0,"[-0.11546748599755509,0.08324919729298978]",100.0,"[0.0223022592334155,-0.16699856813233765]",4.0,"[0.061115602263888125,-0.021788138088520804]",100.0,"[-0.09371898670007206,-0.16544037941971868]",100.0,"[0.029148285237901826,0.15218907378981517]",4.0,"[0.014887572547900067,-0.0660368733346057]",4.0,"[0.10022083741552527,-0.06131315438842672]",100.0,"[0.02,0.02]",159.1611,0.0,17.0,17.0,65.0,1.0,,,,,,,
,,,,,,,67f2f4b9769f12d21471a6b9,68442936e73deea808342887,2025-06-07_14h04.23.961,shape_ratio,2024.1.5,Win32,48.30917874,684250e4f00cb30b92d1fa88,,,,,,,,,,,159.163,159.6687,,,159.9024,160.5801,left,0.6471,,,,,,,,,0.9,,,,,,159.6688,159.9023,160.5803,"[0.0027862307568821,-0.005601248757700203]",100.0,"[0.05573302049076327,-0.06611667159293667]",100.0,"[-0.023541382516049775,0.16330663887070562]",100.0,"[0.027326760711923147,-0.11919959419523136]",4.0,"[0.1670147545122838,0.027769374722566156]",100.0,"[0.10341322337962414,0.0454950645961414]",4.0,"[-0.06617873563181267,0.103472250758306]",100.0,"[-0.06852495805666292,0.16653753300587815]",100.0,"[0.016951316936295348,0.1554466779324121]",100.0,"[-0.05768290725019652,0.04416186922420981]",100.0,"[0.06384882166832434,0.09016599373378115]",100.0,"[0.09729703542486834,-0.13881418135180923]",4.0,"[-0.14593028220388524,-0.07021547451977199]",100.0,"[0.009142193218581507,0.05287742024675374]",100.0,"[0.1280707705751232,-0.051006071155735494]",100.0,"[-0.18648056416082473,-0.07006709040762675]",100.0,"[-0.17363641231577714,0.022874770056491047]",100.0,"[-0.13203018177955644,0.10584449113328874]",100.0,"[-0.02364816978335419,-0.12760554726162443]",100.0,"[-0.11930720926422296,-0.10552581840434998]",100.0,"[0.033120226091430414,-0.16077537324214308]",100.0,"[-0.08190018391182796,-0.011304574714996796]",100.0,"[-0.053185966162790324,-0.19191353462449465]",100.0,"[0.161080989643419,0.0917935864337431]",100.0,"[-0.000028177017480085045,-0.0480406558789038]",100.0,"[0.0005359679438465135,0.10059937553410403]",100.0,"[-0.09767591033337823,0.07317387718638683]",100.0,"[0.18520687374991865,-0.016921508656227675]",100.0,"[-0.09558913618134575,-0.057791331355641455]",100.0,"[-0.01211509542717017,-0.0881635264621352]",100.0,"[0.06558391743019865,0.15425860630221333]",100.0,"[0.16198443281863859,-0.1082361136602706]",100.0,"[0.02,0.02]",161.639,0.0,18.0,18.0,0.0,1.0,,,,,,,
,,,,,,,67f2f4b9769f12d21471a6b9,68442936e73deea808342887,2025-06-07_14h04.23.961,shape_ratio,2024.1.5,Win32,48.30917874,684250e4f00cb30b92d1fa88,,,,,,,,,,,161.6399,162.1376,,,162.3734,163.2945,right,0.8867,,,,,,,,,0.45,,,,,,162.1376,162.3733,163.2945,"[0.016750762873915154,-0.1008823554298569]",4.0,"[0.07724720178462564,0.18068641055800377]",100.0,"[-0.15526655814168255,0.06255149397484248]",4.0,"[0.15429474908265442,-0.038156295617610754]",100.0,"[0.0768128330323393,-0.08250837891099545]",100.0,"[-0.060840707700217586,-0.11174710557107902]",100.0,"[0.012201405883490741,-0.021100599261355133]",100.0,"[-0.023437303385436533,-0.14740992230861866]",100.0,"[-0.09454774898316831,-0.04456995404390846]",4.0,"[-0.001238545714925324,0.0180092122827073]",4.0,"[0.023338568686611938,-0.19319099482768]",4.0,"[-0.024578687633853864,-0.07041115981586026]",100.0,"[0.10550648331074795,-0.0062321748964648165]",4.0,"[-0.014258263542384637,0.12358102598304453]",4.0,"[0.019168851925340773,0.15686730997679948]",4.0,"[0.12120198204760955,0.10753111554359641]",4.0,"[-0.08662754261784356,-0.00429990674201806]",4.0,"[-0.0366653370050264,0.07708062388834296]",100.0,"[0.12841253706374056,0.14912048782832557]",4.0,"[0.16803001324144543,0.0019030927651107524]",4.0,"[0.09740405305191782,-0.13257973496734657]",4.0,"[0.06708422607491416,0.08869934548949285]",100.0,"[-0.01132877072875501,0.1955971016443844]",100.0,"[-0.10589579628100933,-0.09606744176425511]",4.0,"[-0.16425513326780863,-0.10894674904512155]",4.0,"[0.1726895548773176,-0.08063516248834339]",4.0,"[0.014954347754657546,0.08991917078628858]",100.0,"[-0.07800568927589052,0.12753986448387913]",100.0,"[0.0734672271733756,0.03398893701666563]",100.0,"[-0.10935483365215448,-0.141881172740371]",100.0,"[0.06537387522550107,0.1379159680673673]",4.0,"[0.17901640095999632,0.05599806317628387]",4.0,"[0.02,0.02]",164.3704,0.0,19.0,19.0,133.0,1.0,,,,,,,
,,,,,,,67f2f4b9769f12d21471a6b9,68442936e73deea808342887,2025-06-07_14h04.23.961,shape_ratio,2024.1.5,Win32,48.30917874,684250e4f00cb30b92d1fa88,,,,,,,,,,,164.3709,164.8495,,,165.0745,165.7409,left,0.6322,,,,,,,,,0.9,,,,,,164.8495,165.0744,165.7409,"[-0.13570837458563817,0.05161611626042756]",4.0,"[0.14863689815762343,-0.0825697193928423]",100.0,"[0.11203747857842968,0.14107368130778403]",100.0,"[0.039724797151442656,0.03912164452682737]",100.0,"[0.020258801854890124,0.15966837858983052]",100.0,"[-0.009659543957981027,-0.05508897569211131]",100.0,"[0.04114377350129741,-0.014722893447057718]",100.0,"[0.08662908228233955,-0.015772650199254425]",100.0,"[0.08017736731579593,-0.0807421223029954]",100.0,"[0.16706958157722981,0.01585210359088167]",100.0,"[-0.08629522801292439,-0.033877319910539085]",100.0,"[0.09164076116865433,-0.12350181799072324]",100.0,"[0.04327188791127758,0.11640530053531324]",100.0,"[-0.017085303276478097,0.0008253612047676705]",100.0,"[-0.011463811602133969,-0.10269350271275011]",100.0,"[-0.1294199390859545,0.1449606951885486]",100.0,"[-0.07583301041313473,0.17069338543930224]",100.0,"[0.09432653729346437,0.032074215041112915]",100.0,"[-0.10432185577612739,0.0024035587874346597]",100.0,"[-0.010290489734422103,0.11821438830491746]",100.0,"[0.14432045045799755,-0.042472782070308746]",100.0,"[-0.10397292886298376,-0.10260996680423771]",100.0,"[-0.036256344234919684,0.037354739623992696]",100.0,"[0.12521002434485384,-0.14837185681366105]",100.0,"[-0.04967464353390402,0.13927661057343327]",100.0,"[0.15688980687764228,0.07207581661003792]",100.0,"[-0.07986707923900428,0.0899083191782052]",4.0,"[-0.16097582975565658,-0.08937801520473461]",100.0,"[-0.1435124944872568,-0.03483042455496787]",100.0,"[-0.09489938669498887,-0.14584644989884565]",100.0,"[-0.03693395075479606,-0.1750424346033982]",4.0,"[0.10591000995411588,0.07598035134383771]",100.0,"[0.02,0.02]",166.787,0.0,20.0,20.0,10.0,1.0,,,,,,,
,,,,,,,67f2f4b9769f12d21471a6b9,68442936e73deea808342887,2025-06-07_14h04.23.961,shape_ratio,2024.1.5,Win32,48.30917874,684250e4f00cb30b92d1fa88,,,,,,,,,,,166.7875,167.2861,,,167.5374,167.9715,right,0.3863,,,,,,,,,0.4,,,,,,167.2862,167.5374,167.9715,"[0.04554365258716773,-0.03340006231675543]",4.0,"[0.13249783364137108,0.01085510303765953]",100.0,"[0.07286458811124526,0.0785368108621487]",4.0,"[-0.008238416683544863,0.0601116782528746]",100.0,"[0.1114042703120003,0.09703823180615463]",100.0,"[-0.14178559498717405,-0.104910499908479]",4.0,"[-0.06322969122405475,0.09151011169188836]",100.0,"[0.0034726128739753196,0.14380246098484406]",4.0,"[0.0887070452365097,0.14030652318756504]",4.0,"[0.11505552247239444,0.04980338187320747]",4.0,"[-0.12952105243744658,0.11674419322113694]",100.0,"[0.17478301347685443,-0.0699429192562917]",4.0,"[-0.008684375092230693,0.19489485001016701]",4.0,"[-0.0503598141648682,0.01454990279912225]",4.0,"[0.08646250203047089,-0.006608498337540047]",100.0,"[-0.18211813191765222,-0.013192295164451516]",100.0,"[-0.03878435832698333,-0.08703852167381468]",4.0,"[0.011519182746710138,0.007202835006242529]",4.0,"[0.10384030908839567,-0.09658283301762194]",4.0,"[-0.05182695434814242,0.19090540064163475]",4.0,"[0.008912752582095038,-0.065204110702367]",100.0,"[0.04423189001976891,-0.12441014939698504]",4.0,"[0.04042494632569923,0.16822329388799961]",4.0,"[-0.0933259476368746,0.03570277905383226]",100.0,"[0.13671261868315315,-0.12589383540772722]",4.0,"[0.03502463477286056,0.11867137986211955]",100.0,"[-0.11145326642681504,-0.009957034148528538]",4.0,"[-0.05367467016840474,0.15081865236726072]",100.0,"[0.05510419879873006,-0.18054504284969544]",4.0,"[-0.11348039239426588,-0.07315784472531109]",100.0,"[-0.010974165134334983,-0.13642560814231622]",100.0,"[0.0949400109987451,-0.1446611754601292]",4.0,"[0.02,0.02]",169.0523,0.0,21.0,21.0,169.0,1.0,,,,,,,
,,,,,,,67f2f4b9769f12d21471a6b9,68442936e73deea808342887,2025-06-07_14h04.23.961,shape_ratio,2024.1.5,Win32,48.30917874,684250e4f00cb30b92d1fa88,,,,,,,,,,,169.0533,169.5237,,,169.7638,170.4376,left,0.642,,,,,,,,,0.6,,,,,,169.5238,169.7638,170.4377,"[-0.06130318741748447,-0.12191146918297578]",100.0,"[0.14484478436958284,0.10215937784690951]",100.0,"[-0.1168273134057395,-0.029621994389526715]",4.0,"[-0.03301717675425516,-0.1580056061125964]",100.0,"[-0.12055769353838734,0.030497854543415012]",4.0,"[0.13958319244114498,0.006912623569620289]",100.0,"[0.027638782025730384,0.15191241877684164]",100.0,"[0.05946382872044274,0.12364814319536797]",100.0,"[0.1834579932001101,0.056403387634784426]",100.0,"[0.03809270930553757,-0.02307321204830224]",100.0,"[-0.1956409234573626,-0.01870679384461331]",100.0,"[-0.10881915628475665,0.16407954823083487]",4.0,"[0.1778277530513674,-0.07876820991907488]",100.0,"[-0.10169771394980694,-0.16008329263361612]",4.0,"[-0.04457296363491632,-0.04832207747917574]",100.0,"[0.10648027469515338,-0.08935465665016058]",4.0,"[-0.07420676869560609,0.08709444993352544]",4.0,"[-0.021313653122608224,0.01511959415822946]",100.0,"[0.053232275763823195,-0.10987817373290278]",4.0,"[0.04301168976901892,-0.18531590466296735]",4.0,"[-0.16672693192675886,-0.0857273030470858]",100.0,"[-0.031125995535933957,0.0713555668230382]",100.0,"[-0.06001493361059663,0.0422804618658466]",4.0,"[0.07864065190561065,0.054145489439032274]",100.0,"[0.0758995323671517,-0.16030966533585925]",100.0,"[0.03706557189527818,0.042835065970672645]",4.0,"[0.07802070946167275,0.0037240652345900405]",4.0,"[0.12847778345635236,0.053881203872552866]",4.0,"[-0.18843213473425155,0.06316851989402465]",100.0,"[0.00576115732078591,0.1966699874913562]",100.0,"[0.12350579611242114,0.15014683553891522]",100.0,"[0.13559132977351063,-0.1286541408917457]",4.0,"[0.02,0.02]",171.5592,0.0,22.0,22.0,48.0,1.0,,,,,,,
,,,,,,,67f2f4b9769f12d21471a6b9,68442936e73deea808342887,2025-06-07_14h04.23.961,shape_ratio,2024.1.5,Win32,48.30917874,684250e4f00cb30b92d1fa88,,,,,,,,,,,171.5598,172.1153,,,172.1646,172.9486,right,0.7668,,,,,,,,,0.1,,,,,,172.1153,172.1646,172.9487,"[0.022842073560961962,0.18478448264013653]",4.0,"[-0.05580122536609729,0.16956627635216828]",4.0,"[0.03984558835325727,-0.11725053586995088]",4.0,"[-0.0864319295240084,0.025248600998647758]",100.0,"[0.11573604955104724,0.11207761445827517]",4.0,"[-0.1374293027284117,-0.011325375131878]",4.0,"[0.16817897922407082,-0.031945319734357734]",4.0,"[0.0136197796260419,-0.04739500711939037]",100.0,"[0.15605763121218727,-0.07120710425154173]",4.0,"[-0.052761918952691916,0.07239887726755853]",4.0,"[-0.023779065160754054,-0.11879548709346713]",4.0,"[-0.08327111083253261,-0.04903132940994022]",4.0,"[-0.06389506732789677,-0.11583533596208523]",4.0,"[-0.11041287217760656,-0.11636069165202056]",4.0,"[-0.04565356387729441,-0.15705677364305615]",4.0,"[0.12993176250507005,0.04453635009869039]",4.0,"[-0.08279253394186722,0.12066953102601098]",4.0,"[-0.1547341867002334,0.06065163802695431]",4.0,"[0.07278648664766886,-0.16181186250486698]",4.0,"[0.10153411249530538,-0.0462272836864189]",100.0,"[0.16652929169978178,0.07600534844940877]",4.0,"[-0.041766035255463636,-0.06893301411307926]",4.0,"[-0.14256751601457124,0.11449285392397093]",4.0,"[0.18868526164578078,0.012535531598476549]",4.0,"[0.06388670764955726,-0.018180461780809815]",4.0,"[0.09217191879918235,0.06548317842133401]",4.0,"[-0.023774595179722805,0.12487673546443857]",4.0,"[-0.01773371998142265,-0.004779266357284749]",4.0,"[-0.15759664591533076,-0.10565593821719912]",4.0,"[0.14222345473248613,-0.13458220037016297]",4.0,"[0.01717142296769389,0.12442506094570964]",4.0,"[-0.013989519292920655,0.06054323699013048]",4.0,"[0.02,0.02]",174.0397,0.0,23.0,23.0,195.0,1.0,,,,,,,
,,,,,,,67f2f4b9769f12d21471a6b9,68442936e73deea808342887,2025-06-07_14h04.23.961,shape_ratio,2024.1.5,Win32,48.30917874,684250e4f00cb30b92d1fa88,,,,,,,,,,,174.0406,174.5586,,,174.826,175.6585,left,0.7913,,,,,,,,,0.4,,,,,,174.5586,174.826,175.6585,"[0.14205585733069748,-0.06461897763128566]",100.0,"[-0.059113564529429646,0.043003510028323304]",100.0,"[0.058136623115179246,0.1705387547594902]",100.0,"[0.044014312915928895,-0.08823202868610341]",4.0,"[0.12148614756308393,0.01415449449347268]",4.0,"[-0.07997235758371836,-0.11905964948762475]",4.0,"[-0.004970413043155409,-0.03784883130314323]",100.0,"[-0.1732055927060954,0.007337399986707293]",4.0,"[0.05770633118547746,0.10561645162105772]",100.0,"[-0.008368210768733416,-0.09391992037726306]",4.0,"[0.0038795599832433005,-0.16422347734848822]",100.0,"[0.17805907441787253,0.08487991265877749]",100.0,"[0.010714516462668728,0.002397803317721617]",4.0,"[-0.01681858086285586,0.17680743175958633]",4.0,"[-0.10661214690191813,0.059740748507381314]",100.0,"[-0.04234882106754901,-0.13372165989484938]",4.0,"[0.09585612672385872,0.0556966889291762]",4.0,"[-0.15025432299196242,0.07863744006735737]",100.0,"[0.08512687293891719,-0.07189979753796541]",100.0,"[0.06603713492141129,-0.015368416806003152]",4.0,"[-0.021623470360562523,0.12998481427832795]",4.0,"[-0.13370113113003645,0.015412510531667164]",4.0,"[-0.16396653011968948,-0.1057066589656488]",4.0,"[-0.10411838646687559,0.1360789633805562]",4.0,"[0.04546064062029313,0.02240262779227046]",100.0,"[-0.043757883749466556,0.09498530176770756]",100.0,"[0.12253778841102901,0.11932255181308708]",100.0,"[-0.1628989116285578,-0.03933833946420602]",4.0,"[0.1596986362669807,-0.11345947092194812]",4.0,"[0.04707929914047275,-0.1296070203957086]",4.0,"[-0.11731816953693695,-0.15362631461388737]",4.0,"[0.17620455387348286,0.030560446516987933]",4.0,"[0.02,0.02]",176.7733,0.0,24.0,24.0,155.0,1.0,,,,,,,
,,,,,,,67f2f4b9769f12d21471a6b9,68442936e73deea808342887,2025-06-07_14h04.23.961,shape_ratio,2024.1.5,Win32,48.30917874,684250e4f00cb30b92d1fa88,,,,,,,,,,,176.7743,177.2428,,,177.5043,178.1904,right,0.6539,,,,,,,,,0.6,,,,,,177.2429,177.5043,178.1904,"[-0.052834167082985876,-0.0504500294671198]",100.0,"[0.1889090530046228,-0.024128063173356227]",4.0,"[0.09607524054858677,0.04494152400228871]",100.0,"[0.025238988187074776,-0.10134188024929323]",4.0,"[0.028728786767925087,-0.15225249972172328]",4.0,"[0.1666065693043984,0.05754778193891326]",100.0,"[0.04025347813795021,-0.03426086678157523]",100.0,"[-0.05742932177949366,0.06944864546167806]",100.0,"[0.07507742494858481,-0.12166217102239993]",4.0,"[-0.15014215110683787,0.10050756977434833]",100.0,"[-0.06857699135767231,-0.11549570337921944]",100.0,"[-0.1011228675944197,-0.16918108382530644]",100.0,"[-0.08687854342107959,0.15329106167396545]",100.0,"[0.15023270382745205,-0.09364932798530627]",4.0,"[-0.013603577128712177,0.10142084790227418]",100.0,"[-0.01557107484169817,-0.097292388884652]",4.0,"[0.08921968151244478,0.16362256708461034]",100.0,"[0.027907434674728438,0.012224892392936452]",100.0,"[-0.18117573250431826,-0.045413399211851765]",100.0,"[0.0932760439641063,-0.06374341517836914]",4.0,"[-0.04846775366918162,0.01546677111356698]",4.0,"[-0.08381005240196825,-0.0241028698094273]",4.0,"[0.14931702791632476,0.10589351765951764]",100.0,"[0.0857479589410791,-0.16136301382469612]",4.0,"[-0.17927632000670868,-0.0008368584743190843]",4.0,"[0.1500259186516592,-0.014009211833041584]",100.0,"[0.12576694858355,-0.14006897234007523]",4.0,"[-0.13094571578798767,-0.07344772087416455]",100.0,"[-0.13483459618524596,-0.022909230616027332]",100.0,"[-0.003472686132434389,0.16874851557346618]",4.0,"[-0.13631242212963252,0.06265336261836098]",100.0,"[-0.047866392853116904,0.19117306077467572]",100.0,"[0.02,0.02]",179.2923,0.0,25.0,25.0,39.0,1.0,,,,,,,
,,,,,,,67f2f4b9769f12d21471a6b9,68442936e73deea808342887,2025-06-07_14h04.23.961,shape_ratio,2024.1.5,Win32,48.30917874,684250e4f00cb30b92d1fa88,,,,,,,,,,,179.2933,179.7672,,,179.9704,180.543,right,0.4866,,,,,,,,,0.1,,,,,,179.7672,179.9704,180.543,"[-0.00893386105255896,0.0847989908539937]",4.0,"[0.09651088890009496,0.13504139387958805]",4.0,"[-0.07603778661988037,-0.06768342644099117]",4.0,"[-0.06578562980633433,0.06939852592677415]",4.0,"[-0.020099954896256086,-0.13379462967867542]",4.0,"[0.09676867031711116,-0.16959808639466453]",4.0,"[-0.10745756666263495,-0.13946456874346008]",100.0,"[-0.006283805445230247,-0.0899332011026574]",4.0,"[0.11134831994451819,-0.07160390718384047]",100.0,"[0.017649270350204544,0.05208220298232459]",4.0,"[0.013850485665989856,-0.005727653777274971]",4.0,"[0.14974532798288376,-0.054337347105778526]",4.0,"[-0.14500884351358284,0.10998364404042099]",4.0,"[-0.03007698793926669,0.12139944887694797]",4.0,"[0.052278200302871405,0.09230284040559482]",4.0,"[-0.1469077825097602,-0.0030580263375705272]",4.0,"[0.053260622965151,0.17252910861251944]",4.0,"[0.06955205270834405,0.013555586612087646]",4.0,"[0.1903631687468842,-0.02068493558043571]",4.0,"[0.1062629502882111,-0.11269637859050119]",4.0,"[-0.09256590777065657,0.00819804208110317]",4.0,"[0.1451536481599185,-0.007912018105805118]",4.0,"[0.1481131431090937,-0.13317473481041064]",4.0,"[0.046031204799623415,-0.10559811074782209]",4.0,"[-0.03559475808378274,0.19352177265779294]",4.0,"[0.09450810148930307,0.07127876087527771]",4.0,"[0.15463536329389152,0.10455962854650193]",4.0,"[-0.031975469664553904,0.001512242437486264]",4.0,"[0.019322495658271027,-0.052326921775636075]",4.0,"[0.17953769986471754,0.027011179158699005]",4.0,"[0.011334684024184152,0.19950820883858417]",4.0,"[-0.11616420705459539,-0.053434009593182175]",100.0,"[0.02,0.02]",181.6302,0.0,26.0,26.0,187.0,1.0,,,,,,,
,,,,,,,67f2f4b9769f12d21471a6b9,68442936e73deea808342887,2025-06-07_14h04.23.961,shape_ratio,2024.1.5,Win32,48.30917874,684250e4f00cb30b92d1fa88,,,,,,,,,,,181.6311,182.1175,,,182.3589,183.0831,right,0.6897,,,,,,,,,0.4,,,,,,182.1176,182.3589,183.0831,"[-0.06006741037916396,0.13716467296901516]",100.0,"[-0.005241064434210298,0.1533877655603711]",4.0,"[-0.024724234728343623,-0.029062172777966504]",100.0,"[-0.027722664049037903,0.0662778351066683]",4.0,"[0.03464163679989105,-0.06217598122003897]",100.0,"[0.040418725657505324,-0.018108300982776483]",4.0,"[0.07392217957541883,0.017925458017549783]",4.0,"[0.071041125292122,-0.186816794906344]",100.0,"[0.03284489548209027,-0.11545501507864725]",4.0,"[-0.18282323186814323,-0.03228430007393145]",4.0,"[0.0629355863141906,0.08773134553901094]",100.0,"[-0.08431829694938371,0.06742865875206444]",4.0,"[0.11993383339465748,0.012410397005196477]",100.0,"[-0.1134085932684245,-0.08379854339427456]",4.0,"[0.013556439090200713,0.19058371199893237]",4.0,"[-0.04248287179935433,-0.16200085178014625]",4.0,"[0.10692446819405704,0.13567879783873202]",100.0,"[-0.0934826088464756,-0.17005861783026355]",100.0,"[0.017345189573147367,-0.1777922965936295]",4.0,"[-0.14405423952834,0.12925908511529102]",100.0,"[-0.11397035551429462,0.014835777510188998]",100.0,"[0.11262335566304019,-0.09621072942135542]",4.0,"[-0.1450067936065859,0.0800072480137785]",4.0,"[0.11387150914773153,-0.1567031754723709]",4.0,"[0.1711786585857321,-0.015654705889014242]",4.0,"[0.11367047532007096,-0.04259574229423488]",4.0,"[-0.11677797026929491,-0.13081041328528284]",4.0,"[0.14539451805460396,-0.07012102347970546]",100.0,"[-0.04386482463462986,-0.07640453463499652]",4.0,"[-0.10939054748883065,0.10111605578694884]",100.0,"[-0.04946506359419832,0.1861656598595411]",100.0,"[0.15311426620489593,0.07019233784698446]",4.0,"[0.02,0.02]",184.16,0.0,27.0,27.0,165.0,1.0,,,,,,,
,,,,,,,67f2f4b9769f12d21471a6b9,68442936e73deea808342887,2025-06-07_14h04.23.961,shape_ratio,2024.1.5,Win32,48.30917874,684250e4f00cb30b92d1fa88,,,,,,,,,,,184.1609,184.6588,,,184.9183,185.3874,right,0.4233,,,,,,,,,0.1,,,,,,184.6589,184.918,185.3876,"[-0.04129817512720862,-0.0960124012236453]",4.0,"[-0.09667827734963158,0.1552651060632982]",4.0,"[0.13707737657849237,0.04531828576528815]",4.0,"[-0.003920490877377173,0.19624133133137142]",4.0,"[0.007689865911626877,0.11274894297003683]",4.0,"[-0.13762277475527945,-0.0234318307658945]",4.0,"[0.047066545534474515,-0.05606426565542567]",4.0,"[0.05409875537638953,0.17623550473994518]",4.0,"[-0.06555112621005593,0.04214718845544969]",4.0,"[-0.10989389229231045,0.009672963834110183]",4.0,"[-0.0823923210396407,0.09028196161977504]",4.0,"[0.04530516334069592,-0.09953945267944696]",4.0,"[0.02275380493852499,0.004293461740324409]",4.0,"[-0.16068045284146307,0.01889755676704193]",100.0,"[0.1929726091160745,-0.03596660042146653]",4.0,"[0.0014621741182843666,-0.1072389448716663]",4.0,"[0.06329071415153437,-0.13685851670948534]",4.0,"[-0.039333415539662867,0.13206348188852854]",4.0,"[0.07562721948825754,0.031173713193865436]",4.0,"[-0.13081299195595422,-0.10571995095750003]",4.0,"[-0.046177455263362144,-0.14893304852814562]",4.0,"[0.08381491958905989,-0.02530081605814063]",4.0,"[-0.12778015401712084,0.11473820605615166]",4.0,"[-0.012396884978536638,0.03901926249027912]",4.0,"[0.1633957678606808,-0.08605196730768051]",4.0,"[0.12876506578861951,-0.11861483882294734]",100.0,"[0.03180509667914929,-0.17240714074636995]",4.0,"[0.13644748993381117,-0.047285762504404735]",100.0,"[-0.14630817451947611,-0.06642784068209856]",4.0,"[0.1025818636681639,-0.15230509511019602]",4.0,"[-0.129435734578997,0.06332843172770744]",4.0,"[0.1696486198375842,0.014027473331290324]",4.0,"[0.02,0.02]",186.472,0.0,28.0,28.0,183.0,1.0,,,,,,,
,,,,,,,67f2f4b9769f12d21471a6b9,68442936e73deea808342887,2025-06-07_14h04.23.961,shape_ratio,2024.1.5,Win32,48.30917874,684250e4f00cb30b92d1fa88,,,,,,,,,,,186.4728,186.9673,,,187.1959,187.8359,left,0.6235,,,,,,,,,0.6,,,,,,186.9674,187.1958,187.8359,"[0.17055254848947987,0.08250378740877995]",100.0,"[-0.016246482570110028,-0.06716474859860175]",100.0,"[-0.1008681754955843,-0.09536583567600619]",4.0,"[0.07363979601840812,0.02014538197240462]",4.0,"[-0.11969418994823286,0.12513658680843207]",4.0,"[-0.11418952049922271,0.08344717053665647]",100.0,"[0.10338660352707298,-0.062012412460997195]",100.0,"[-0.055780335684140425,-0.041848932549064424]",100.0,"[-0.024809749328721663,-0.16163946612262955]",4.0,"[0.18161934375355718,0.030542218679250027]",4.0,"[0.057536915441787906,0.1672580695353877]",100.0,"[0.0621070746678303,-0.07757474357446272]",100.0,"[0.015892783780967507,0.0031965897181541673]",100.0,"[0.09385074640697005,0.08287903012446]",100.0,"[0.020581546145749887,0.1382709331064399]",4.0,"[-0.1070072184532345,-0.000883668123435441]",100.0,"[-0.10848294355857167,-0.138617597387818]",100.0,"[0.14961765807321273,-0.030494888737394782]",4.0,"[0.18730916867324682,-0.06781927998590165]",100.0,"[-0.1383629703826171,-0.07089048487310129]",4.0,"[0.023764012692166426,0.0685626965365701]",4.0,"[0.05725589549678016,-0.17346429741338573]",100.0,"[-0.18191889544732257,-0.01377865812974533]",100.0,"[0.13795914939863557,0.13228090815116866]",4.0,"[-0.17148312246928638,-0.09352532739708734]",100.0,"[-0.055561535550978786,0.16966858595217518]",100.0,"[0.027260760121836355,-0.11632917321137708]",100.0,"[-0.1715194115955979,0.02937720535122551]",100.0,"[0.11645878393020066,-0.00035460098476066207]",4.0,"[-0.050926126570873705,-0.09536765915419232]",4.0,"[-0.03280482607701956,0.1281164658325272]",100.0,"[-0.047491491680068956,0.053944387661036715]",4.0,"[0.02,0.02]",188.9242,0.0,29.0,29.0,33.0,1.0,,,,,,,
,,,,,,,67f2f4b9769f12d21471a6b9,68442936e73deea808342887,2025-06-07_14h04.23.961,shape_ratio,2024.1.5,Win32,48.30917874,684250e4f00cb30b92d1fa88,,,,,,,,,,,188.9247,189.419,,,189.6509,190.3063,right,0.6076,,,,,,,,,0.5,,,,,,189.419,189.6509,190.3064,"[0.15177164680925878,0.10877088725243052]",100.0,"[-0.015208871627347359,0.05912267951378181]",4.0,"[-0.04911233690628538,-0.04523454231008162]",4.0,"[0.16108546667792534,-0.08902056062685866]",100.0,"[-0.1584246776582564,-0.11061717031908119]",100.0,"[0.015130414190528296,-0.0007642321322683185]",4.0,"[-0.03814790893391954,-0.18641074527102583]",100.0,"[0.13435956153066417,-0.02745141626079897]",100.0,"[0.18214991960692523,0.03401702801935086]",4.0,"[-0.08259564764412919,-0.1077951604246938]",4.0,"[-0.11489052200759842,0.05219118819021393]",100.0,"[-0.05444434822005654,0.017514267005078184]",4.0,"[0.0887277273197751,0.013458138205729565]",100.0,"[-0.056504200218440215,0.12263005198342986]",100.0,"[0.14414782885920543,0.04957318088876197]",100.0,"[0.029416019022379333,0.19715161962890065]",100.0,"[-0.17791142976719704,0.026091999757390603]",4.0,"[-0.11068941627480727,-0.034988455139189564]",4.0,"[-0.1483712528672601,-0.07110719791903383]",4.0,"[0.053883528303945764,-0.057849798489668855]",4.0,"[0.1848686283825057,-0.012405336241679974]",4.0,"[-0.01865230642596987,0.17645744273378483]",4.0,"[-0.11899014464283582,0.1270548899784693]",100.0,"[0.045420829381450534,0.12662960312285204]",100.0,"[0.09172827870876778,-0.10113032824407282]",100.0,"[0.049086667068400265,-0.12705119467691045]",4.0,"[-0.03567482493592547,-0.11915058887860987]",100.0,"[0.1049116150678005,-0.1602364838804884]",100.0,"[-0.17167805300674013,-0.021864993056218255]",4.0,"[-0.16146777104057347,0.10197354415516262]",4.0,"[-0.11745517063529423,-0.14582922731644998]",4.0,"[0.09352222246602702,0.07630851573364891]",100.0,"[0.02,0.02]",191.4106,0.0,30.0,30.0,119.0,1.0,,,,,,,
,,,,,,,67f2f4b9769f12d21471a6b9,68442936e73deea808342887,2025-06-07_14h04.23.961,shape_ratio,2024.1.5,Win32,48.30917874,684250e4f00cb30b92d1fa88,,,,,,,,,,,191.4116,191.9084,,,192.1676,192.8906,right,0.6927,,,,,,,,,0.55,,,,,,191.9084,192.1676,192.8907,"[0.19695655283894709,0.00934966907576973]",4.0,"[0.1283631555829571,0.07888065782047318]",100.0,"[-0.1772043959420958,-0.06919394737398038]",100.0,"[-0.047591041600996156,-0.02415586157352163]",4.0,"[-0.11377141692358246,0.12784279697110598]",4.0,"[-0.023313216019576914,-0.19239236237476026]",100.0,"[-0.05053615326050925,0.1366952680344181]",100.0,"[-0.14741519834060082,0.07875296909627415]",100.0,"[0.020304814890809184,0.13492408394374214]",4.0,"[0.12447576385443868,-0.04476858322845065]",100.0,"[0.10926070218222786,-0.16244758516026003]",100.0,"[0.055619668698353525,-0.010380606951020856]",4.0,"[0.09458327448637843,0.10360297825910716]",100.0,"[-0.007139532777310082,0.10075395425938423]",100.0,"[0.06682404810762803,0.06931826011034291]",4.0,"[-0.1226569139304519,0.0454914272998937]",100.0,"[0.0906246784548517,0.15007281163687275]",4.0,"[0.11708443240775615,-0.10648721248781633]",4.0,"[-0.1717318733258564,-0.009364220240517827]",4.0,"[-0.006558121715223998,0.044611356960146537]",100.0,"[-0.004273424603865538,-0.07020280509548975]",100.0,"[0.09403779373225157,-0.07142955912191215]",4.0,"[0.06775035303967572,-0.12651513878931003]",4.0,"[-0.03776932070376616,0.07426039337920294]",100.0,"[-0.08161196217987383,0.08074359050063884]",100.0,"[-0.009399289337882626,0.19226972840676188]",4.0,"[0.07095291780543816,-0.17930866348518548]",100.0,"[0.005961475140133012,-0.008449107196612737]",4.0,"[0.019356256413041187,-0.13526054827091114]",100.0,"[-0.0976236659902315,-0.13472498224982374]",100.0,"[0.016653629176737895,-0.18480677945200144]",4.0,"[-0.12028748050811879,0.005040332144974966]",100.0,"[0.02,0.02]",193.9769,0.0,31.0,31.0,75.0,1.0,,,,,,,
,,,,,,,67f2f4b9769f12d21471a6b9,68442936e73deea808342887,2025-06-07_14h04.23.961,shape_ratio,2024.1.5,Win32,48.30917874,684250e4f00cb30b92d1fa88,,,,,,,,,,,193.9778,194.4653,,,194.6902,195.3547,right,0.6186,,,,,,,,,0.45,,,,,,194.4654,194.6901,195.3548,"[0.14404773562403003,-0.1311882211650694]",4.0,"[-0.06186808747749823,0.06373353917830876]",4.0,"[0.07746628292962612,0.0915554045333152]",100.0,"[-0.14247533136524781,0.06428410957412399]",100.0,"[-0.11050711679072102,-0.15813953376359136]",100.0,"[-0.19186971766349398,0.02953147465218637]",4.0,"[-0.05628112313148441,-0.05567640259719093]",100.0,"[-0.13728504974669978,-0.07049107365918968]",4.0,"[0.14373601161467586,0.07067098306167174]",100.0,"[0.0034635104381212822,-0.14190954331927666]",4.0,"[0.004244514824868444,-0.050675412975353405]",4.0,"[-0.04567276733469337,0.1367941355528435]",4.0,"[-0.04203434946351612,0.1950666356269365]",4.0,"[0.11247021710980945,-0.10151982018173526]",4.0,"[-0.09973077002980278,0.130479951624965]",100.0,"[-0.16822770129224485,-0.029661971153052198]",100.0,"[0.13722106801282064,0.13934573264620756]",4.0,"[0.04477612440073241,0.1386553323859118]",4.0,"[0.16671197733951443,-0.09724723110780677]",100.0,"[0.11499830014587772,-0.007243957028926804]",4.0,"[0.06306427938036484,-0.14962256258020165]",4.0,"[-0.02265907223689227,0.031408747598098016]",4.0,"[-0.07156825972722171,-0.185626095253465]",100.0,"[0.07151069338322093,0.036485239824877516]",4.0,"[0.04155046556775982,-0.018158260833306825]",100.0,"[-0.03181210438334998,-0.09975968966762484]",4.0,"[0.0034802944738235213,0.0926425017858338]",100.0,"[0.03852379375086347,0.05939070774644519]",4.0,"[0.04734788298764501,0.1855802010175357]",100.0,"[0.16775593512149883,-0.017603430186597505]",100.0,"[-0.09389074814491219,-0.10805970421052528]",100.0,"[-0.03151744938931198,-0.18986334624765822]",4.0,"[0.02,0.02]",196.4555,0.0,32.0,32.0,144.0,1.0,,,,,,,
,,,,,,,67f2f4b9769f12d21471a6b9,68442936e73deea808342887,2025-06-07_14h04.23.961,shape_ratio,2024.1.5,Win32,48.30917874,684250e4f00cb30b92d1fa88,,,,,,,,,,,196.456,196.9489,,,197.183,197.6968,right,0.4734,,,,,,,,,0.1,,,,,,196.949,197.183,197.6968,"[-0.11107411552555659,0.1394348238259498]",4.0,"[-0.14544566410779403,-0.09073167779567484]",4.0,"[0.07818428394086972,0.1609022757055848]",4.0,"[0.10760772514304458,0.003934081837876608]",4.0,"[0.040053211023569166,-0.017144671036132892]",4.0,"[0.021874829835750138,0.10045983416017504]",4.0,"[0.037272479891778836,-0.184019260344028]",4.0,"[-0.035368181264207946,-0.07543185122896663]",4.0,"[-0.02125807394726824,-0.1314446496193353]",4.0,"[-0.11273713276718976,-0.11476018271176447]",4.0,"[0.09562997475930438,-0.11652209294580453]",4.0,"[0.12991832856008137,-0.07273396874205054]",4.0,"[0.19627804103074648,-0.0082545186833634]",4.0,"[0.13995110532529967,0.02917179937201907]",4.0,"[-0.08297687315505908,0.08251955573891079]",4.0,"[-0.18701151911592198,-0.00921541693265468]",4.0,"[0.06222302064733769,0.10780979792543413]",4.0,"[-0.11646751396518205,-0.05631177166580137]",100.0,"[0.1512636283419576,0.08720779590761096]",4.0,"[-0.05032823501736931,-0.034293270010370004]",100.0,"[0.005181957574150928,0.027405704229917515]",4.0,"[0.0999850670261992,-0.16198798202117548]",4.0,"[-0.041456435804897177,0.02410139126013408]",4.0,"[-0.07510349414024278,-0.17858166548249235]",100.0,"[0.046213370835231166,0.18960606679844808]",4.0,"[-0.12299021623899509,0.015367045108180103]",4.0,"[-0.0061180379128802035,0.14697009075656828]",4.0,"[0.09586026473530676,0.07470782009838128]",4.0,"[0.05333438055297462,-0.08430090242927958]",4.0,"[0.06398392550459418,-0.14166834759779312]",4.0,"[0.09615958269759224,-0.05014426054511164]",4.0,"[-0.039816222555195895,0.17050962648684584]",4.0,"[0.02,0.02]",198.8019,0.0,33.0,33.0,202.0,1.0,,,,,,,
,,,,,,,67f2f4b9769f12d21471a6b9,68442936e73deea808342887,2025-06-07_14h04.23.961,shape_ratio,2024.1.5,Win32,48.30917874,684250e4f00cb30b92d1fa88,,,,,,,,,,,198.8031,199.281,,,199.5161,200.2859,left,0.7464,,,,,,,,,0.55,,,,,,199.2811,199.5161,200.286,"[0.1078737399508289,-0.11487925217468054]",100.0,"[-0.18590609818157,-0.022575537627378125]",4.0,"[-0.06269240100780028,-0.11903491024886895]",4.0,"[-0.007775087204056149,0.11441261895764997]",100.0,"[0.010738582069389227,-0.14479879501755333]",100.0,"[0.16530471262831006,-0.06521020583594667]",4.0,"[0.10926696680124377,0.10864712135869438]",100.0,"[-0.026161163218144188,-0.03587030380690035]",4.0,"[0.16791662376404815,0.02013186640796903]",100.0,"[-0.0030407962194036603,0.005648953368851938]",100.0,"[0.028787234880111354,0.17346826994731415]",100.0,"[0.008977225868201662,-0.09780624914926217]",4.0,"[0.06155077752006922,0.0600478012566653]",100.0,"[0.09561702054507798,-0.040835757963432036]",100.0,"[-0.0945392076030782,0.014578432339388016]",4.0,"[0.14914467021168262,0.12417995108070383]",4.0,"[-0.09237978359958975,0.056820918387382215]",100.0,"[0.054048506430765614,-0.18844408885704428]",100.0,"[-0.11690496061838307,-0.03558421516922442]",100.0,"[-0.12782936832817904,0.12239990159161382]",4.0,"[-0.15936049566056312,0.07150853322086186]",4.0,"[-0.0833122123126711,0.12553432949015234]",4.0,"[0.13600823727478947,0.07284649433357694]",100.0,"[-0.09709997787365114,-0.1546568100258745]",4.0,"[0.08271841802615033,0.005931485039587057]",4.0,"[-0.11258738395313417,-0.10220530454741099]",4.0,"[0.013561884676966163,-0.04173846721223149]",100.0,"[-0.15914193223307374,0.022549248657934295]",100.0,"[0.13423567189469962,-0.02097624119299322]",4.0,"[0.06484328602239751,-0.08881645026171048]",100.0,"[-0.19492090200830342,0.04318758467224968]",100.0,"[-0.03477545381865444,0.14482809159644822]",100.0,"[0.02,0.02]",201.3908,0.0,34.0,34.0,64.0,1.0,,,,,,,
,,,,,,,67f2f4b9769f12d21471a6b9,68442936e73deea808342887,2025-06-07_14h04.23.961,shape_ratio,2024.1.5,Win32,48.30917874,684250e4f00cb30b92d1fa88,,,,,,,,,,,201.3916,201.8761,,,202.1202,202.6175,right,0.4696,,,,,,,,,0.4,,,,,,201.8762,202.1201,202.6175,"[0.04165289652492413,-0.07520085319784449]",4.0,"[-0.16379793924865668,0.06479360556007795]",4.0,"[-0.110726665122622,-0.07891892539503736]",100.0,"[0.008980899951337468,0.014527007274242715]",4.0,"[0.034517245314136594,0.10358866336285164]",4.0,"[-0.16026597818278024,-0.06962843684674688]",4.0,"[0.1971989003148542,-0.009807608208276095]",100.0,"[0.13690680844600295,-0.008553217858896834]",100.0,"[0.03471094611719021,-0.12540713434641956]",4.0,"[0.07917052678753754,-0.15664910991203243]",100.0,"[0.01231373775835704,0.14149578291293927]",4.0,"[0.0746945211025508,0.07089295075683037]",4.0,"[0.0928675967324685,-0.09053673042793252]",100.0,"[-0.08612048492309912,0.07644610834955744]",100.0,"[-0.027600452922955848,-0.0866718368771657]",4.0,"[0.057694409618712646,-0.03445897168653015]",100.0,"[-0.1364134286299131,-0.010327823282533915]",4.0,"[-0.10578481656359386,-0.1504272804809663]",4.0,"[0.005129156379035942,-0.038390659583701116]",4.0,"[-0.18160752730795626,0.00718303416839441]",100.0,"[0.038770256807717646,0.19205829728268287]",100.0,"[0.13462155530694492,0.11535884330164173]",4.0,"[0.16859641822591842,-0.07707995180295509]",4.0,"[-0.09818668397764324,0.016979793340047247]",4.0,"[-0.033121980727114746,-0.15317041428262584]",4.0,"[-0.00852738271798746,-0.19117365330279343]",100.0,"[-0.046642196374829276,-0.0020376216017002047]",4.0,"[-0.0660110632432269,0.15252116183441145]",4.0,"[-0.03393823015165311,0.189413710500415]",100.0,"[-0.12111477488760468,0.10709077032220408]",100.0,"[0.12977736922618086,-0.12364441396132375]",100.0,"[-0.02825280272323492,0.03588174305045728]",4.0,"[0.02,0.02]",203.7187,0.0,35.0,35.0,166.0,1.0,,,,,,,
,,,,,,,67f2f4b9769f12d21471a6b9,68442936e73deea808342887,2025-06-07_14h04.23.961,shape_ratio,2024.1.5,Win32,48.30917874,684250e4f00cb30b92d1fa88,,,,,,,,,,,203.7195,204.206,,,204.4399,205.1735,left,0.7065,,,,,,,,,0.6,,,,,,204.2062,204.4398,205.1735,"[0.16355628551735804,0.07708825064927932]",100.0,"[0.09278325950027032,-0.04249737537993261]",100.0,"[-0.09125600151498184,0.09482166260114176]",100.0,"[0.022807409442510945,-0.0586709266029054]",100.0,"[0.048087145665269226,-0.01910071016704805]",4.0,"[0.0955838399252378,0.15567300662700073]",4.0,"[-0.08643437659709191,-0.0998471251861068]",100.0,"[0.10381089747901108,-0.16533935226893323]",100.0,"[-0.11409720820490622,0.15613582335247242]",4.0,"[0.12009738543248367,-0.10739196645410407]",4.0,"[0.04221629083122934,0.08907044649835148]",4.0,"[-0.02588956462596035,-0.011547490395384618]",100.0,"[0.14332717335725356,0.11954854875052487]",4.0,"[-0.12575392624143272,-0.0030226183997792066]",100.0,"[-0.04445413045943991,0.13958647688478315]",100.0,"[-0.008037643362896483,0.0360897947356395]",100.0,"[0.10333428574749001,0.044590311410154806]",4.0,"[-0.008714058445303843,0.10920764364140735]",100.0,"[0.0009118795333814503,0.17602389942166616]",4.0,"[-0.03378321714579516,-0.0595123085881433]",100.0,"[0.16845425511493878,-0.023493597541850722]",4.0,"[0.01436253910390309,-0.15847731556462655]",100.0,"[0.030383334201016337,0.05077711903035831]",4.0,"[0.024596386886063953,0.14244591800440032]",100.0,"[-0.07173346547008021,-0.15605018721800695]",100.0,"[0.18195108500301804,0.021940076942808393]",100.0,"[0.0033649471808543936,-0.1102720487297372]",100.0,"[0.14443323168095398,0.036184766467318503]",4.0,"[-0.18198391076414783,-0.020603058651644576]",100.0,"[0.09530935336034985,0.0021519829650020975]",100.0,"[0.09153884478810967,0.10471833355871757]",4.0,"[-0.12340529708579005,0.06218266083471776]",4.0,"[0.02,0.02]",206.2702,0.0,36.0,36.0,44.0,1.0,,,,,,,
,,,,,,,67f2f4b9769f12d21471a6b9,68442936e73deea808342887,2025-06-07_14h04.23.961,shape_ratio,2024.1.5,Win32,48.30917874,684250e4f00cb30b92d1fa88,,,,,,,,,,,206.271,206.7502,,,207.0871,207.5694,left,0.4609,,,,,,,,,0.9,,,,,,206.7503,207.087,207.5695,"[-0.06931485782505015,-0.04067436502451929]",100.0,"[-0.056939939386118556,0.08550284190455067]",100.0,"[-0.02556590940791134,-0.07900888751364532]",100.0,"[-0.06900450736706368,0.009648709899931766]",100.0,"[-0.0026731179426144943,0.1392155106201125]",4.0,"[-0.10336369587597968,0.08412174391443462]",100.0,"[0.1408927578024129,-0.0370867302173359]",100.0,"[-0.12480867001770944,0.02293857685146946]",100.0,"[0.16175798608046577,0.02909611196780235]",100.0,"[0.05127991762697407,-0.07727911946462153]",100.0,"[-0.008711906366373673,-0.15545806624749095]",100.0,"[-0.10307013942971807,-0.1053288407624736]",100.0,"[-0.08457917630952635,0.17884218344341357]",100.0,"[0.18203529376516447,-0.025141952806808313]",100.0,"[0.09042011455753927,0.08737414303756966]",100.0,"[0.12415045296233587,0.1103366357831506]",100.0,"[-0.15753944831480957,-0.10446897350372765]",100.0,"[0.01715577330742755,0.03609498252528512]",100.0,"[0.03790401308159938,-0.035695768568117174]",100.0,"[-0.16792227754269373,0.03494940267857914]",100.0,"[0.157725883864349,-0.08486080026282526]",100.0,"[0.13645345758390487,-0.13628348071726484]",4.0,"[0.10919757113574967,0.015448670546433035]",4.0,"[-0.0032580231590827523,0.07340470596035892]",100.0,"[-0.1090284978748128,0.13606165290069855]",100.0,"[-0.17317379528448257,-0.017584150292218142]",100.0,"[0.10829493374119703,-0.062423873148017624]",100.0,"[0.07605499048166188,-0.17121130553229544]",100.0,"[0.08577905513818287,0.15387173322910314]",100.0,"[0.034072346919639236,0.18953147420351654]",100.0,"[-0.04504573418836972,-0.17867287205623816]",100.0,"[-0.033226846009347034,-0.1226948170503151]",100.0,"[0.02,0.02]",208.6705,0.0,37.0,37.0,14.0,1.0,,,,,,,
,,,,,,,67f2f4b9769f12d21471a6b9,68442936e73deea808342887,2025-06-07_14h04.23.961,shape_ratio,2024.1.5,Win32,48.30917874,684250e4f00cb30b92d1fa88,,,,,,,,,,,208.6713,209.1691,,,209.418,210.0727,left,0.6344,,,,,,,,,0.55,,,,,,209.1691,209.418,210.0727,"[-0.0953919079376479,-0.10793262518427213]",100.0,"[0.13709328676898763,0.08251807699498288]",100.0,"[-0.08062157739215996,0.10284822880730593]",100.0,"[0.08023836935201378,-0.0269282185152824]",4.0,"[0.07664766821090219,0.0632972368693716]",100.0,"[-0.04110197105852406,0.13359361393368738]",100.0,"[-0.15445769486375546,-0.12618527021399628]",100.0,"[0.04739750857900888,0.16185646180956176]",4.0,"[0.17530382128369104,-0.03249271222464741]",100.0,"[-0.11632124289534768,0.1592499298342653]",100.0,"[-0.16225397369885655,0.02709621120001984]",4.0,"[0.1802041195499478,0.06642873917225268]",100.0,"[0.039484127079770524,0.10595868470430234]",4.0,"[-0.1298011947455552,0.09751836534453125]",100.0,"[-0.13252601915495132,-0.0054212977966272445]",4.0,"[-0.039664276317804295,-0.0304746519593233]",100.0,"[0.007892977462760119,-0.0520520248907942]",4.0,"[-0.04995901158530373,-0.14085250399984103]",100.0,"[0.13006115416736616,-0.012986475905666843]",4.0,"[0.028775121171921603,-0.14705806149336664]",4.0,"[0.13449297674206953,-0.13434723825273356]",100.0,"[-0.0032782074241288657,0.17146327600406647]",100.0,"[-0.18143906336232146,-0.03287839965693014]",4.0,"[0.0944480680278339,-0.1687802684439061]",4.0,"[-0.05061048482378949,0.015540791353167372]",100.0,"[-0.010057179109469246,0.05778717485590382]",4.0,"[-0.019519812925442345,-0.19760345943997773]",4.0,"[-0.030596315725397394,0.09382338728986106]",100.0,"[0.036292977721994565,-0.18915880529179172]",4.0,"[0.030621005837810956,0.04499538043488741]",100.0,"[-0.04928513272596847,0.174191726659744]",4.0,"[-0.10640285204949626,0.047118160039207324]",100.0,"[0.02,0.02]",211.1431,0.0,38.0,38.0,66.0,1.0,,,,,,,
,,,,,,,67f2f4b9769f12d21471a6b9,68442936e73deea808342887,2025-06-07_14h04.23.961,shape_ratio,2024.1.5,Win32,48.30917874,684250e4f00cb30b92d1fa88,,,,,,,,,,,211.1441,211.6351,,,211.8972,212.7029,right,0.7777,,,,,,,,,0.45,,,,,,211.6352,211.8972,212.7029,"[0.03546548399639152,0.1283129169098949]",100.0,"[0.1634379450442106,-0.003282403044528332]",4.0,"[-0.012618877856949401,0.18553291105713926]",100.0,"[-0.15938566292917353,0.015270238175856583]",100.0,"[-0.15274862253888633,0.0948411720371057]",4.0,"[-0.07204767367399603,-0.128795995645048]",100.0,"[-0.014167578366207172,0.11344154035692768]",100.0,"[0.0394264007974384,-0.002770926578180079]",4.0,"[-0.017784881650929996,-0.14182132263564212]",100.0,"[-0.05800809857559302,0.1003725852509886]",100.0,"[0.1490468287485773,0.09622983126992951]",4.0,"[-0.03967238055850284,0.008301224470530702]",100.0,"[0.016256981237049058,-0.0591183823118201]",4.0,"[-0.11017632768720226,0.11625730948085179]",4.0,"[-0.10135255351085296,0.15581963278645578]",4.0,"[0.031280290035653725,0.18564771172817573]",4.0,"[0.0411691715273611,-0.1545363801089016]",100.0,"[-0.08459332711230567,-0.001045003104387635]",4.0,"[0.09511025257096759,-0.05124966598170548]",4.0,"[0.09605005187692153,0.0918724512137654]",100.0,"[0.07254263016743402,0.03620631227723547]",4.0,"[0.15777423087299094,0.04503278670390916]",4.0,"[0.1118624528195862,0.025871128792046675]",4.0,"[-0.057262895799452214,0.162750768082617]",4.0,"[-0.14137067602879821,-0.029826340930442414]",100.0,"[-0.16163103195291326,-0.08577845408604712]",4.0,"[-0.031281066299347585,-0.08661314046312413]",100.0,"[-0.11750462756298809,-0.11960005749318577]",4.0,"[-0.1908738789879436,0.050759158051796816]",4.0,"[0.01842302357652662,0.05952104421464527]",100.0,"[0.09394228707205828,0.13603642359872484]",100.0,"[-0.09175827353941525,-0.07579993489400998]",4.0,"[0.02,0.02]",213.8052,0.0,39.0,39.0,138.0,1.0,,,,,,,
,,,,,,,67f2f4b9769f12d21471a6b9,68442936e73deea808342887,2025-06-07_14h04.23.961,shape_ratio,2024.1.5,Win32,48.30917874,684250e4f00cb30b92d1fa88,,,,,,,,,,,213.806,214.3041,,,214.5524,215.4871,left,0.9062,,,,,,,,,0.5,,,,,,214.3042,214.5523,215.4872,"[-0.059646495479638954,0.0402884845777471]",4.0,"[0.07261370567967529,-0.1449429817415657]",100.0,"[0.14163544924543292,-0.12109524243224667]",100.0,"[-0.004056531871295099,0.19884709167195394]",4.0,"[-0.007855649203773794,0.04844832346723828]",4.0,"[-0.08065783612304117,-0.008612051925160772]",4.0,"[-0.05915263096939835,-0.08945486655717053]",4.0,"[-0.12552057670423053,0.09205608854423485]",100.0,"[-0.10868065898219034,-0.069352596146483]",100.0,"[0.093352949499863,0.1324360907544579]",100.0,"[-0.1669328552736111,0.0017671218547379993]",4.0,"[0.15192458034852407,0.12479550449872331]",100.0,"[0.09642924111971998,-0.01243927321425017]",100.0,"[-0.10984988899041778,-0.11400934264877516]",100.0,"[-0.04811557770317048,0.1128830401243932]",100.0,"[-0.15649003452719637,-0.05171052337783212]",100.0,"[-0.012990308043570766,0.00025201239015348366]",100.0,"[0.06552529605374416,0.18237324232891947]",100.0,"[-0.06588898814475988,-0.1588443810329863]",100.0,"[0.0353199952082735,0.1542412156234417]",4.0,"[-0.170379866573907,0.05913069930108897]",4.0,"[0.11905969592615082,0.07878175111315637]",100.0,"[-0.03254303275608517,-0.1873470799184633]",4.0,"[-0.02921830538736409,-0.13086705050239514]",4.0,"[-0.12725710113057853,0.04621320571149337]",100.0,"[0.15920962278456313,-0.006596619057595488]",4.0,"[-0.0010531001264185527,0.09034156222716921]",4.0,"[-0.015565009138007756,0.14247344965431374]",4.0,"[0.06150418809497476,-0.03298139818327246]",4.0,"[0.153112406589584,-0.05623500319403862]",4.0,"[0.08888637433320931,0.03151984228648149]",100.0,"[-0.10733749299689607,0.14188739706904802]",4.0,"[0.02,0.02]",216.5748,0.0,40.0,40.0,101.0,1.0,,,,,,,
,,,,,,,67f2f4b9769f12d21471a6b9,68442936e73deea808342887,2025-06-07_14h04.23.961,shape_ratio,2024.1.5,Win32,48.30917874,684250e4f00cb30b92d1fa88,,,,,,,,,,,216.5753,217.1023,,,217.3524,217.8756,left,0.4952,,,,,,,,,0.9,,,,,,217.1024,217.3523,217.8757,"[0.13592248123437745,0.04937131356260783]",100.0,"[-0.0580537012048312,0.11219124288810133]",100.0,"[0.08562433027641518,0.03284587610332494]",100.0,"[-0.13185224768124876,0.016089197295181913]",100.0,"[0.1697651832594861,0.10211639250856877]",100.0,"[0.14334292282408906,-0.006271159938466395]",100.0,"[0.08928405240399336,-0.05054881948067702]",100.0,"[-0.0659749650248662,-0.08239678839102364]",100.0,"[-0.015091412241124109,-0.05866703448576786]",100.0,"[0.020324098126286834,0.019526954490568866]",100.0,"[0.024687399480625875,-0.024724874886015456]",100.0,"[-0.026389801508168238,0.043490056991944456]",100.0,"[0.08983044690482715,0.09627983629171101]",4.0,"[-0.13634122960229197,-0.06648961848479919]",100.0,"[0.05845971837647714,0.15309596201460937]",100.0,"[0.002317666249311151,0.17052736817829936]",100.0,"[-0.1786492775775594,0.04269557363387337]",100.0,"[-0.1286533124119456,0.11119816826761976]",4.0,"[-0.12863062770765957,-0.15255196086708075]",4.0,"[0.03539349999273872,-0.08464437394111318]",100.0,"[0.1911379855834653,0.043188540266182754]",100.0,"[-0.05234284643962463,0.0017198192039188363]",100.0,"[0.1872343973272132,-0.05406284133680644]",100.0,"[0.03745111704980152,-0.1561699878079092]",100.0,"[-0.07171753005937828,0.17532462054437153]",100.0,"[0.1458403307991316,-0.0968410146585797]",100.0,"[0.00844699694959854,0.09355569491996864]",100.0,"[-0.09183192638941026,-0.13335493438919527]",100.0,"[-0.03513072707684005,-0.17444294980175187]",100.0,"[-0.016909914139088315,-0.10184253217614075]",100.0,"[0.053873998227080167,0.0670537235519063]",100.0,"[0.13543590623483182,0.13572583688764467]",100.0,"[0.02,0.02]",218.9658,0.0,41.0,41.0,23.0,1.0,,,,,,,
,,,,,,,67f2f4b9769f12d21471a6b9,68442936e73deea808342887,2025-06-07_14h04.23.961,shape_ratio,2024.1.5,Win32,48.30917874,684250e4f00cb30b92d1fa88,,,,,,,,,,,218.9666,219.4703,,,219.7,220.244,right,0.5048,,,,,,,,,0.1,,,,,,219.4704,219.6999,220.244,"[0.1695642649027756,-0.06593745124271903]",4.0,"[-0.058497464761335015,0.07906371111497329]",4.0,"[0.045998681213664135,-0.0466406279932937]",4.0,"[0.17958724182763502,-0.004528149694383073]",100.0,"[-0.1270022139129573,-0.023035178419915116]",4.0,"[0.09238951559319643,-0.029810629756948273]",4.0,"[0.13519415242906313,-0.11730290276568599]",4.0,"[0.16862660535202884,0.07562420480326293]",4.0,"[-0.08098297643515825,-0.017639589984732636]",4.0,"[0.12784682298841754,-0.006288283804270066]",4.0,"[0.04621951054164251,0.16217340467560162]",100.0,"[-0.019034652859464426,0.19228809289117502]",4.0,"[-0.18031447490708807,-0.036968737017090136]",4.0,"[-0.040810805047896574,-0.04028163667545491]",4.0,"[0.05137750444435997,0.09984594760267305]",4.0,"[-0.1428600620674588,0.0500175433241758]",4.0,"[-0.07638076019493109,-0.09119519891491752]",4.0,"[0.03965785657933019,-0.17776793581246209]",100.0,"[-0.1688929058893121,0.0037554935320925375]",4.0,"[-0.02185423272793376,0.0010577676600126678]",4.0,"[-0.009379201267191592,0.13513467830036444]",4.0,"[-0.06100878237018899,-0.13479641784717586]",4.0,"[0.0908419129597599,0.16310859684939566]",4.0,"[0.06206111068969621,-0.14230503045429524]",4.0,"[-0.11929382213924425,0.1469785112809434]",4.0,"[0.122316478381172,0.1382788347480719]",4.0,"[0.056251206980448484,0.040291233582089386]",4.0,"[-0.10062767867042627,0.08720091154708212]",4.0,"[-0.041726165567362375,-0.18559485464960448]",4.0,"[-0.07377156333486887,0.12983235330490053]",4.0,"[0.1507009941374478,0.03021804840901475]",4.0,"[0.10631446198831432,0.08462565864476242]",4.0,"[0.02,0.02]",221.3327,0.0,42.0,42.0,209.0,1.0,,,,,,,
,,,,,,,67f2f4b9769f12d21471a6b9,68442936e73deea808342887,2025-06-07_14h04.23.961,shape_ratio,2024.1.5,Win32,48.30917874,684250e4f00cb30b92d1fa88,,,,,,,,,,,221.3335,221.8324,,,222.1211,222.871,right,0.6989,,,,,,,,,0.4,,,,,,221.8324,222.121,222.8711,"[-0.021486914814296865,0.04279113378413687]",4.0,"[-0.1577379629991348,-0.07495844526026692]",4.0,"[0.1891000070834172,0.05251823390626064]",100.0,"[-0.05409203704319077,-0.08493497243456992]",100.0,"[-0.13564295452161224,-0.13859477392502062]",4.0,"[-0.12290350863537536,0.13339438533438447]",4.0,"[-0.14981472609217134,-0.011037605982943056]",4.0,"[0.13360073319736457,0.05219830547088526]",4.0,"[-0.062424984366436065,0.18407152447289926]",100.0,"[-0.05987285718982792,-0.18323730749920222]",4.0,"[0.0539482269546702,-0.0038600181651952904]",100.0,"[-0.15178416230463293,0.057033983114237255]",100.0,"[0.033983208408454535,0.10814765410556208]",4.0,"[0.007631246003748059,-0.10496764085696031]",100.0,"[-0.0038143366160738584,0.08545110171634919]",100.0,"[0.0551324773630744,-0.1559549905616852]",100.0,"[0.0680503783194719,-0.09150306529489771]",4.0,"[-0.005794523624468767,-0.025291182351582477]",100.0,"[0.10326567654485003,-0.11975391118851769]",4.0,"[0.06630049753249756,0.07002513720334061]",4.0,"[0.07035902218272526,0.13073825619687518]",4.0,"[-0.10722720605519345,-0.11022694261832813]",4.0,"[-0.0054086229661118885,-0.16978289259505155]",4.0,"[-0.005141306496544317,0.15827932645988602]",4.0,"[0.1586689686182655,-0.0979523392012917]",100.0,"[0.13980160750482212,0.10371406113688682]",100.0,"[-0.08834290942623543,0.021068418932911198]",4.0,"[0.1590001376335423,-0.057879643647332654]",4.0,"[0.03407566059265918,0.16811807837221263]",4.0,"[0.13374243475254827,-0.021188094315963614]",100.0,"[0.09426268723316808,0.16316885899616432]",4.0,"[-0.07017272246350591,-0.019237091494301608]",100.0,"[0.02,0.02]",223.9091,0.0,43.0,43.0,178.0,1.0,,,,,,,
,,,,,,,67f2f4b9769f12d21471a6b9,68442936e73deea808342887,2025-06-07_14h04.23.961,shape_ratio,2024.1.5,Win32,48.30917874,684250e4f00cb30b92d1fa88,,,,,,,,,,,223.9095,224.4103,,,224.6748,225.6962,right,0.9974,,,,,,,,,0.55,,,,,,224.4104,224.6748,225.6962,"[-0.042490693790918424,-0.0720300723786163]",4.0,"[-0.050875567958023116,0.17919727071718877]",100.0,"[-0.026016063866339582,0.07447587260423376]",100.0,"[0.08842397372749257,0.005296139791632471]",4.0,"[0.14464671368597024,0.0437590811778609]",100.0,"[0.11770181925822613,-0.038402355619589205]",4.0,"[0.017490471213196804,-0.09625382939280654]",100.0,"[-0.1036623659395069,0.037701198155671335]",100.0,"[0.05220226145222584,-0.13092462777769082]",4.0,"[0.13120168551656217,-0.13241666557108037]",4.0,"[-0.11397574484824002,-0.148045051491412]",100.0,"[-0.07547482277765165,0.13799602683068746]",100.0,"[0.1289279018124327,0.12822870004149692]",4.0,"[0.17395904251587563,0.07586867913412444]",4.0,"[-0.07680994135938844,-0.01202280294228413]",4.0,"[-0.023884442764964008,-0.00823043658925041]",4.0,"[0.06963319394745678,-0.043779702357831296]",100.0,"[0.04497953706179692,0.19079477222761218]",100.0,"[0.0844603016249787,0.14586713624103392]",4.0,"[0.0914399364292276,0.10546350906101369]",100.0,"[0.04651593564605941,0.12909431575529381]",100.0,"[0.013723932091201943,0.08888300325527869]",100.0,"[-0.10258283736921076,-0.08877238569743066]",4.0,"[-0.1561262204017648,0.11718876327159894]",100.0,"[-0.11500261408668493,0.08913622962678873]",4.0,"[-0.01697505096434116,-0.1910331923493467]",100.0,"[0.013351766314646787,-0.15749529480981614]",4.0,"[-0.14024531949821425,-0.06677095425736254]",100.0,"[-0.16174740366818166,-0.017394727164188824]",100.0,"[0.18179226494058834,-0.08330207671732974]",100.0,"[-0.005258780334572638,0.13022167364958584]",100.0,"[-0.1488227398492124,0.05613409120970343]",4.0,"[0.02,0.02]",226.7875,0.0,44.0,44.0,83.0,1.0,,,,,,,
,,,,,,,67f2f4b9769f12d21471a6b9,68442936e73deea808342887,2025-06-07_14h04.23.961,shape_ratio,2024.1.5,Win32,48.30917874,684250e4f00cb30b92d1fa88,,,,,,,,,,,226.7885,227.2396,,,227.4711,228.3054,right,0.792,,,,,,,,,0.55,,,,,,227.2396,227.4709,228.3055,"[-0.07428853484262977,-0.11949816429859964]",4.0,"[0.049256843369814826,0.03308393255694162]",100.0,"[0.03382938640572181,0.18654992156458966]",4.0,"[0.0535810646288943,0.07410353405466441]",100.0,"[0.0934231115878139,-0.05510593929512651]",4.0,"[-0.11737276663108855,-0.006161549921493147]",4.0,"[0.05260184541235959,-0.03891257934288456]",100.0,"[0.06693484925755203,-0.13818391902902033]",100.0,"[-0.0536597415495617,0.007446728845101991]",4.0,"[-0.022042028430448925,0.150039280504764]",4.0,"[-0.009685429170320822,0.05865130250575905]",100.0,"[-0.11769128783889658,0.035512348259712216]",4.0,"[-0.12086103619994101,-0.07526096056909053]",100.0,"[0.08888793592100135,0.0506935122139272]",100.0,"[-0.09127693694938535,0.15480206420619383]",100.0,"[-0.004686264235718309,-0.06066846799174259]",100.0,"[-0.07557942405846062,-0.16987617558507387]",4.0,"[0.15408745516188235,-0.09809306610562452]",100.0,"[-0.1489365183942556,0.06775702110782565]",4.0,"[-0.0570118454125762,-0.061397578635624055]",4.0,"[0.06737297007258218,0.16078235531910523]",4.0,"[-0.11325619480932181,-0.1480915570526636]",100.0,"[0.014253910113450032,0.12539528411638792]",100.0,"[-0.051610968194993154,0.07515144038883671]",100.0,"[0.12906038101734005,0.0020519755604844593]",4.0,"[-0.009015409457403261,-0.17323828666357913]",100.0,"[-0.0956807520603771,0.10873890664714836]",100.0,"[0.13839726499399407,0.11445248892378591]",4.0,"[-0.1720807821559766,-0.08956272127707408]",100.0,"[0.09394206615551938,0.09454915798470592]",100.0,"[0.15355519440094165,0.0540135806225783]",100.0,"[0.12306992483768432,-0.12778521135081014]",4.0,"[0.02,0.02]",229.3836,0.0,45.0,45.0,79.0,1.0,,,,,,,
,,,,,,,67f2f4b9769f12d21471a6b9,68442936e73deea808342887,2025-06-07_14h04.23.961,shape_ratio,2024.1.5,Win32,48.30917874,684250e4f00cb30b92d1fa88,,,,,,,,,,,229.3846,229.8754,,,230.1102,230.887,left,0.7465,,,,,,,,,0.4,,,,,,229.8755,230.1102,230.8871,"[0.009622120985583554,0.19798427828137413]",4.0,"[0.1304031409424231,-0.10344004848510464]",4.0,"[-0.14739832420024065,-0.0029786407697612854]",100.0,"[-0.09572261969874174,0.1452306895027759]",100.0,"[-0.1454908325107372,0.10071545259273643]",100.0,"[-0.12717460895627572,-0.07752594098393653]",4.0,"[-0.09422765881021716,0.09873723652536795]",100.0,"[0.16467514403909614,-0.015295610022399922]",4.0,"[0.12777520742515136,0.03465429159763933]",4.0,"[0.17685872468288605,0.05459982020439621]",100.0,"[0.056703016270108514,-0.10796408568723571]",4.0,"[0.06648455560891155,0.15017634205182318]",4.0,"[0.014679221945817335,0.016301543175487845]",4.0,"[0.052669437639452414,0.1124808123445321]",4.0,"[-0.1682427471829976,-0.03812052554876888]",100.0,"[0.08920008354048982,-0.061952914898150774]",100.0,"[-0.05569945598571776,-0.16433146679773283]",4.0,"[0.06975284622575513,0.048294670714523424]",100.0,"[0.17419794261697258,-0.07693329479347537]",4.0,"[-0.1633567706328352,0.045384008423354036]",4.0,"[-0.05757098062962208,-0.04976567268346536]",4.0,"[0.0036279708409946328,-0.068677390241463]",4.0,"[-0.08333798986216498,-0.11609818939848612]",4.0,"[-0.04678856966483767,0.03481812315747533]",100.0,"[0.01772579030892338,0.1415071898690378]",4.0,"[-0.0036360710862244215,-0.11846051979506554]",4.0,"[-0.05295083881112688,0.16081883254998475]",100.0,"[0.1569335186289985,0.11890738901435961]",100.0,"[0.09499530548558126,-0.0040239823435304556]",100.0,"[-0.16369087299246876,-0.09453777898920347]",100.0,"[0.12293363703345095,0.09208246118694674]",4.0,"[-0.037402393377189244,0.09539887377907741]",4.0,"[0.02,0.02]",231.9384,0.0,46.0,46.0,174.0,1.0,,,,,,,
,,,,,,,67f2f4b9769f12d21471a6b9,68442936e73deea808342887,2025-06-07_14h04.23.961,shape_ratio,2024.1.5,Win32,48.30917874,684250e4f00cb30b92d1fa88,,,,,,,,,,,231.9392,232.3773,,,232.6042,233.3502,left,0.6695,,,,,,,,,0.55,,,,,,232.3773,232.6041,233.3502,"[-0.054947610194781095,-0.06924197496769866]",100.0,"[0.045930045775499806,0.18466435030752545]",100.0,"[-0.06557248096946472,0.11822317937891025]",4.0,"[0.09955571619667974,-0.15163777110514096]",100.0,"[-0.12725720928110537,0.047481843749048215]",100.0,"[-0.05305882243748956,-0.14027667158529292]",4.0,"[-0.1687969277867302,-0.08883321880334227]",4.0,"[0.07293652101190266,-0.09274413301849535]",100.0,"[0.02236136355053624,0.05122619803261198]",4.0,"[0.014290451130435663,-0.028630492269398428]",100.0,"[0.07860454614665237,0.0930965935575634]",100.0,"[0.04180326151372211,0.1089168096136212]",4.0,"[0.10501528387034369,-0.031668402114948]",4.0,"[0.031429445176335044,-0.13695497866339976]",100.0,"[0.12861225494445896,0.07548908314090381]",100.0,"[-0.1018454937648267,-0.1233367188481082]",4.0,"[-0.15788792626037496,0.0052878243160510855]",100.0,"[-0.004570245173202193,0.1957772148304519]",4.0,"[-0.14250026277398828,-0.1339782761385437]",100.0,"[0.15052296706877122,-0.027574619254383807]",4.0,"[-0.02432627661372463,0.14012265019194942]",100.0,"[0.08687199622693655,0.042365996131962985]",100.0,"[-0.11886143149203057,0.11910586477364625]",100.0,"[0.11448456470843506,-0.07587505144856738]",100.0,"[0.05339993320698719,-0.03844193024466072]",4.0,"[0.10041019027010407,0.1716696374486585]",100.0,"[-0.05299229507511234,-0.0007043648724161206]",4.0,"[0.05419584497183276,-0.17333182501651828]",4.0,"[-0.005835425297643527,0.09404493126814407]",100.0,"[-0.09435660680085699,0.07847483940573305]",4.0,"[0.17838422725440606,0.01643302676668672]",4.0,"[0.18364815806951393,0.07785240528466825]",100.0,"[0.02,0.02]",234.4398,0.0,47.0,47.0,87.0,1.0,,,,,,,
,,,,,,,67f2f4b9769f12d21471a6b9,68442936e73deea808342887,2025-06-07_14h04.23.961,shape_ratio,2024.1.5,Win32,48.30917874,684250e4f00cb30b92d1fa88,,,,,,,,,,,234.4407,234.9318,,,235.1645,235.9388,right,0.7079,,,,,,,,,0.5,,,,,,234.9319,235.1644,235.9389,"[0.020189607374533684,0.07550938187620235]",4.0,"[0.18636774233325962,0.049760506358049135]",100.0,"[-0.10016271936095753,-0.07013868197176634]",100.0,"[-0.11575880132252037,-0.025682502332055917]",4.0,"[-0.12004649142625835,-0.15582736769115732]",4.0,"[0.12619345713845445,-0.04553127228039813]",4.0,"[-0.022220555902266077,0.04812813904597074]",4.0,"[-0.0743909732559695,-0.011714055423830751]",100.0,"[-0.05822361770242945,0.07217061143237045]",100.0,"[-0.09669762469787473,0.11139446175727817]",4.0,"[-0.034370568192970484,0.1060330025044006]",100.0,"[0.010102383153623605,-0.004722904530442491]",4.0,"[0.13141336626131545,0.03663691041630904]",4.0,"[-0.12609352725527712,0.1549777983170779]",4.0,"[0.06623449017845297,0.002978565220331518]",4.0,"[0.014336410385136864,0.12148708685073958]",100.0,"[0.15467403631810334,-0.10252541797444228]",100.0,"[-0.141898376536311,-0.06000238670184623]",100.0,"[0.08749369730322527,0.12361098072144214]",4.0,"[-0.023108303430525574,-0.1328302377663362]",4.0,"[0.0544282580939604,0.18254747192277457]",4.0,"[-0.18524167185391435,0.02099711029206463]",100.0,"[0.10363039277731971,0.16547636501455146]",100.0,"[0.09219785021315056,-0.1285209368243502]",100.0,"[-0.17443110240656776,0.07946539656416693]",100.0,"[-0.060980304522885734,0.14922329427789122]",100.0,"[0.05163485322091787,-0.11252042737026023]",100.0,"[-0.016646471441632737,0.1612345233906411]",4.0,"[0.014390248478244898,0.19821921765843895]",100.0,"[-0.010384819400447122,-0.09061993108618961]",4.0,"[0.1147304064259397,-0.003372182387934758]",100.0,"[0.02716728078556355,-0.18542676583528442]",4.0,"[0.02,0.02]",237.0338,0.0,48.0,48.0,104.0,1.0,,,,,,,
,,,,,,,67f2f4b9769f12d21471a6b9,68442936e73deea808342887,2025-06-07_14h04.23.961,shape_ratio,2024.1.5,Win32,48.30917874,684250e4f00cb30b92d1fa88,,,,,,,,,,,237.0346,237.5543,,,237.8018,238.465,left,0.6117,,,,,,,,,0.5,,,,,,237.5544,237.8018,238.4651,"[0.14725837520395801,-0.0029664083484667926]",4.0,"[0.00274773172084619,-0.1562508340283153]",100.0,"[-0.05322975726799406,-0.14322550512828033]",4.0,"[-0.02726920777066861,0.04382736750331053]",100.0,"[-0.12982377237664147,-0.022345976276216956]",4.0,"[-0.1048074546444633,-0.05819810987516007]",4.0,"[0.10403911399447385,0.0652993096882996]",4.0,"[0.13679482460534262,0.10322344543414502]",4.0,"[0.08625893195744949,-0.03953757595698288]",100.0,"[-0.027903882272842174,-0.1823995142701178]",100.0,"[-0.09362606213371348,0.10239629941515534]",4.0,"[0.0461435338467904,-0.02979821814386818]",100.0,"[0.0791113434364374,0.14714220388889931]",4.0,"[0.17874936031814254,0.08289600748303348]",4.0,"[-0.1579024717753703,0.02383655246247522]",4.0,"[0.012301142247561276,-0.09602247057181446]",100.0,"[-0.10717158345032572,-0.12880976541406997]",4.0,"[0.04437147976161969,-0.16446582018833236]",100.0,"[-0.03270743768597189,0.1493361806876634]",4.0,"[0.007571471032171372,0.011754371318543679]",4.0,"[0.10552561987067222,-0.08530448376615068]",4.0,"[0.05192856501614282,-0.1112521354847094]",4.0,"[0.009213447752643631,0.09252383758671821]",100.0,"[0.14517720026787595,-0.07677862375146172]",100.0,"[-0.11980154394605506,0.14519201601166964]",100.0,"[0.19128714321913634,0.008322420368682125]",100.0,"[-0.0052867159450973545,-0.04629629831326023]",100.0,"[0.11172522294255113,-0.14591735594983163]",100.0,"[-0.06264906984587608,-0.08157112929897543]",100.0,"[0.15591399074057827,0.03610078330824832]",100.0,"[-0.0647821283461133,0.021026557204517]",100.0,"[-0.007639909880974668,0.18993305646748385]",4.0,"[0.02,0.02]",239.5532,0.0,49.0,49.0,105.0,1.0,,,,,,,
