right,left,explain.started,explain.stopped,key_resp_3.keys,key_resp_3.rt,key_resp_3.duration,participant,session,date,expName,psychopyVersion,OS,frameRate,study_id,explain_2.started,explain_2.stopped,key_resp_4.keys,key_resp_4.rt,key_resp_4.duration,explain_3.started,explain_3.stopped,key_resp_5.keys,key_resp_5.rt,key_resp_5.duration,fixation.started,fixation.stopped,practice.started,practice.stopped,response.started,response.stopped,key_resp.keys,feedback.started,feedback.stopped,trials_2.thisRepN,trials_2.thisTrialN,trials_2.thisN,trials_2.thisIndex,trials_2.ran,dot_ratio,explain_4.started,explain_4.stopped,key_resp_6.keys,key_resp_6.rt,key_resp_6.duration,dotDisplay.started,dotDisplay.stopped,key_resp.rt,key_resp.duration,ITI.started,polygon_1.pos,polygon_1.edges,polygon_2.pos,polygon_2.edges,polygon_3.pos,polygon_3.edges,polygon_4.pos,polygon_4.edges,polygon_5.pos,polygon_5.edges,polygon_6.pos,polygon_6.edges,polygon_7.pos,polygon_7.edges,polygon_8.pos,polygon_8.edges,polygon_9.pos,polygon_9.edges,polygon_10.pos,polygon_10.edges,polygon_11.pos,polygon_11.edges,polygon_12.pos,polygon_12.edges,polygon_13.pos,polygon_13.edges,polygon_14.pos,polygon_14.edges,polygon_15.pos,polygon_15.edges,polygon_16.pos,polygon_16.edges,polygon_17.pos,polygon_17.edges,polygon_18.pos,polygon_18.edges,polygon_19.pos,polygon_19.edges,polygon_20.pos,polygon_20.edges,polygon_21.pos,polygon_21.edges,polygon_22.pos,polygon_22.edges,polygon_23.pos,polygon_23.edges,polygon_24.pos,polygon_24.edges,polygon_25.pos,polygon_25.edges,polygon_26.pos,polygon_26.edges,polygon_27.pos,polygon_27.edges,polygon_28.pos,polygon_28.edges,polygon_29.pos,polygon_29.edges,polygon_30.pos,polygon_30.edges,polygon_31.pos,polygon_31.edges,polygon_32.pos,polygon_32.edges,dot_size,ITI.stopped,trials.thisRepN,trials.thisTrialN,trials.thisN,trials.thisIndex,trials.ran,break_2.started,break_2.stopped,trials_3.thisRepN,trials_3.thisTrialN,trials_3.thisN,trials_3.thisIndex,trials_3.ran
subject chose dot,subject chose diamond,0.0005,53.0681,space,38.0426,,682ce4f0aaf6e240215469e7,68399dd73428fd1d0ba673c1,2025-05-30_08h02.15.575,shape_ratio,2024.1.5,Win32,62.89308176,683853e18dae57a2147b65e0,,,,,,,,,,,,,,,,,,,,,,,,,,,,,,,,,,,,,,,,,,,,,,,,,,,,,,,,,,,,,,,,,,,,,,,,,,,,,,,,,,,,,,,,,,,,,,,,,,,,,,,,,,,,,,,,,
,,,,,,,682ce4f0aaf6e240215469e7,68399dd73428fd1d0ba673c1,2025-05-30_08h02.15.575,shape_ratio,2024.1.5,Win32,62.89308176,683853e18dae57a2147b65e0,53.0692,126.0497,space,42.9727,,,,,,,,,,,,,,,,,,,,,,,,,,,,,,,,,,,,,,,,,,,,,,,,,,,,,,,,,,,,,,,,,,,,,,,,,,,,,,,,,,,,,,,,,,,,,,,,,,,,,,,,,,,,,
,,,,,,,682ce4f0aaf6e240215469e7,68399dd73428fd1d0ba673c1,2025-05-30_08h02.15.575,shape_ratio,2024.1.5,Win32,62.89308176,683853e18dae57a2147b65e0,,,,,,126.051,130.7204,space,1.6593,,,,,,,,,,,,,,,,,,,,,,,,,,,,,,,,,,,,,,,,,,,,,,,,,,,,,,,,,,,,,,,,,,,,,,,,,,,,,,,,,,,,,,,,,,,,,,,,,,,,,,,,
,,,,,,,682ce4f0aaf6e240215469e7,68399dd73428fd1d0ba673c1,2025-05-30_08h02.15.575,shape_ratio,2024.1.5,Win32,62.89308176,683853e18dae57a2147b65e0,,,,,,,,,,,130.7864,131.2245,131.2255,131.4761,131.4764,132.9677,,132.9681,134.0664,0.0,0.0,0.0,0.0,1.0,0.2,,,,,,,,,,,,,,,,,,,,,,,,,,,,,,,,,,,,,,,,,,,,,,,,,,,,,,,,,,,,,,,,,,,,,,,,,,,,,,,,,,,,,,,,
,,,,,,,682ce4f0aaf6e240215469e7,68399dd73428fd1d0ba673c1,2025-05-30_08h02.15.575,shape_ratio,2024.1.5,Win32,62.89308176,683853e18dae57a2147b65e0,,,,,,,,,,,134.0677,134.5655,134.5659,134.8146,134.8147,136.3116,,136.3117,137.4106,0.0,1.0,1.0,1.0,1.0,0.8,,,,,,,,,,,,,,,,,,,,,,,,,,,,,,,,,,,,,,,,,,,,,,,,,,,,,,,,,,,,,,,,,,,,,,,,,,,,,,,,,,,,,,,,
,,,,,,,682ce4f0aaf6e240215469e7,68399dd73428fd1d0ba673c1,2025-05-30_08h02.15.575,shape_ratio,2024.1.5,Win32,62.89308176,683853e18dae57a2147b65e0,,,,,,,,,,,,,,,,,,,,,,,,,,137.4119,144.739,space,4.3095,,,,,,,,,,,,,,,,,,,,,,,,,,,,,,,,,,,,,,,,,,,,,,,,,,,,,,,,,,,,,,,,,,,,,,,,,,,,,,,,,,,,
,,,,,,,682ce4f0aaf6e240215469e7,68399dd73428fd1d0ba673c1,2025-05-30_08h02.15.575,shape_ratio,2024.1.5,Win32,62.89308176,683853e18dae57a2147b65e0,,,,,,,,,,,144.7923,145.2539,,,145.4958,145.7106,left,,,,,,,,0.5,,,,,,145.2568,145.4958,0.1992,,145.7111,"[-0.13893377994379272,-0.0780571921659101]",100.0,"[0.14138029784436354,0.13884419456183686]",4.0,"[-0.05509941781124241,0.01891823040732154]",4.0,"[-0.14915794955366715,-0.1229513143212132]",4.0,"[0.1255048702256771,-0.04483213347002156]",4.0,"[0.06328119393333315,-0.13530312275113868]",4.0,"[0.09753428862388767,-0.012447399934774813]",100.0,"[0.16067164461748584,0.058017218930697154]",4.0,"[-0.038442354468336014,-0.14330511078816308]",100.0,"[0.04206009051428536,0.07616724585935176]",4.0,"[0.11912635719779606,-0.08897355482074916]",4.0,"[-0.15787878229115,0.11173966846351023]",100.0,"[-0.024849275766403073,0.1089446723574243]",4.0,"[-0.09838926081212418,-0.06603300616169722]",100.0,"[-0.15785784267592706,-0.03067600807167727]",4.0,"[0.02835556568321893,0.17243064668275498]",100.0,"[-0.10795883228193116,0.10021817316269918]",100.0,"[-0.09839521766175376,0.058938331557597395]",100.0,"[0.10373774704902075,0.1211995359846897]",100.0,"[0.00738233336143305,-0.013613854477214192]",100.0,"[0.002661194748089307,-0.1445356420463431]",4.0,"[-0.004598914863899077,-0.07496177304305304]",100.0,"[-0.14393177562821413,0.06589859809421528]",100.0,"[0.11495826480316806,0.043407136866815986]",4.0,"[0.08116533033071759,0.17808656992832597]",100.0,"[0.056187346465751346,0.007301645145277556]",100.0,"[-0.0586702513898665,0.17129071486567526]",4.0,"[0.17045259151637993,-0.006778024119674698]",100.0,"[-0.061365566621110215,-0.04243382237964564]",4.0,"[0.0759677123603848,-0.18243207863670977]",4.0,"[0.021938552307973737,-0.1827534376419597]",4.0,"[0.05481743236641274,0.11996327072600174]",100.0,"[0.02,0.02]",146.8085,0.0,0.0,0.0,111.0,1.0,,,,,,,
,,,,,,,682ce4f0aaf6e240215469e7,68399dd73428fd1d0ba673c1,2025-05-30_08h02.15.575,shape_ratio,2024.1.5,Win32,62.89308176,683853e18dae57a2147b65e0,,,,,,,,,,,146.8091,147.3045,,,147.555,147.7359,left,,,,,,,,0.5,,,,,,147.3047,147.555,0.1705,,147.7371,"[-0.06117882226900014,-0.13185879208402343]",4.0,"[0.1441294938026584,0.05294588662293453]",100.0,"[-0.033689531611108305,0.1685622497117077]",4.0,"[0.017238963114404475,0.16334221244209038]",100.0,"[-0.047359521917269824,0.0651688269655983]",4.0,"[0.03916024163536571,-0.11983420048628138]",4.0,"[0.09939384863689739,0.07467270237949201]",100.0,"[0.13940914767154003,0.12734731617182923]",4.0,"[0.06461948922039461,-0.003276691050907035]",100.0,"[0.17907188505370264,-0.08522907791470388]",4.0,"[-0.19791510307833246,0.010001822974399025]",100.0,"[-0.12505895374804782,0.0615670723527844]",100.0,"[-0.1255338806087397,-0.08616317321631461]",4.0,"[-0.007888052584938512,0.01086493406486982]",4.0,"[-0.07755338849826056,0.17922397326905262]",4.0,"[-0.08713752675942586,-0.00921361136020776]",4.0,"[-0.03700015469254028,0.10387228829307223]",4.0,"[-0.02562449149241145,-0.047916391166648045]",100.0,"[0.08307312747960276,-0.173111327549856]",4.0,"[0.10882367916075106,-0.07321055804597683]",100.0,"[0.12148532947211853,-0.15203461834265938]",100.0,"[-0.1335507025166565,-0.12758861015984113]",4.0,"[0.06688103128898332,0.12822327074894058]",4.0,"[-0.15354363120408823,-0.01847610449015946]",4.0,"[0.10967961308234474,0.017737097447201776]",100.0,"[-0.003200186534226763,-0.19496631006773363]",100.0,"[-0.059876323038558776,-0.1869162946358016]",4.0,"[-0.12252754188871688,0.10908967937521316]",100.0,"[0.006855554138745365,0.1033005038639149]",100.0,"[-0.010262108177894915,-0.12843229375585133]",100.0,"[-0.025867211213968653,-0.08927062973749535]",100.0,"[0.05939326932866998,0.18408141585092305]",100.0,"[0.02,0.02]",148.8342,0.0,1.0,1.0,102.0,1.0,,,,,,,
,,,,,,,682ce4f0aaf6e240215469e7,68399dd73428fd1d0ba673c1,2025-05-30_08h02.15.575,shape_ratio,2024.1.5,Win32,62.89308176,683853e18dae57a2147b65e0,,,,,,,,,,,148.8347,149.3334,,,149.5854,149.8512,right,,,,,,,,0.1,,,,,,149.3335,149.5853,0.2568,,149.8513,"[-0.05357136027206845,-0.04643438540715265]",4.0,"[0.06158767437519582,-0.0413583806865873]",4.0,"[0.04231987363722981,-0.08980446646602779]",4.0,"[0.039551369257442445,0.06190612331514376]",4.0,"[-0.1399695499046478,0.051229689039451104]",4.0,"[-0.041469356639322504,0.14892686336121858]",4.0,"[-0.009291812005684979,-0.13876945074360736]",100.0,"[0.09666750804789709,0.08950440416866963]",4.0,"[0.06041522185408823,0.14856992348768974]",4.0,"[-0.10721356529709092,0.1422823576089592]",4.0,"[0.10252520825999376,0.0427679026287182]",4.0,"[-0.1122522565641539,0.016879096514463135]",4.0,"[-0.13426781888232572,-0.12315154892692806]",4.0,"[0.026197495240694164,0.013699040695521797]",4.0,"[0.11795055582480249,-0.10358622332975803]",4.0,"[0.179411031857848,0.05324545280123229]",4.0,"[-0.00552260082084763,-0.06638254451793191]",4.0,"[0.14209776541403396,0.11547353669320617]",4.0,"[-0.18015825108497152,0.011904819251778647]",4.0,"[-0.14491299061765373,0.1279840816212465]",4.0,"[-0.0171738798903318,0.1812751494483317]",4.0,"[-0.15980102884207528,-0.044901740762961766]",4.0,"[-0.040974446151876065,0.033192469710112596]",4.0,"[-0.08215735795043981,0.08659716985947254]",4.0,"[0.041479368809916435,-0.17316131876427343]",4.0,"[0.16104634541821888,-0.05657087342344027]",4.0,"[-0.005711448867952441,-0.17975798818416014]",4.0,"[0.12659939846903928,-0.01169625220149017]",4.0,"[-0.015922891441354177,-0.024507240060031812]",100.0,"[0.011750107406498733,0.15258678738506853]",4.0,"[0.09513018048984263,-0.15839401401385808]",100.0,"[-0.08839348442161934,-0.09026121525795014]",4.0,"[0.02,0.02]",150.9492,0.0,2.0,2.0,195.0,1.0,,,,,,,
,,,,,,,682ce4f0aaf6e240215469e7,68399dd73428fd1d0ba673c1,2025-05-30_08h02.15.575,shape_ratio,2024.1.5,Win32,62.89308176,683853e18dae57a2147b65e0,,,,,,,,,,,150.9501,151.4502,,,151.698,151.9492,left,,,,,,,,0.9,,,,,,151.4503,151.6979,0.2375,,151.9494,"[-0.12755317748776376,-0.02559679185749016]",100.0,"[-0.06781236104988432,0.07645380152425199]",100.0,"[-0.17812432774501935,-0.04604696742819836]",100.0,"[-0.09924500627747437,0.020985963236964434]",100.0,"[0.12814672623628995,0.15156114925473282]",100.0,"[0.10515255438794839,0.1182717180458172]",100.0,"[-0.12883434366177582,0.11456247618897793]",100.0,"[-0.08941179740661108,-0.10552219592960953]",100.0,"[0.14706135833266798,-0.10718275639314831]",100.0,"[0.0043357956187202815,0.09058838577785101]",100.0,"[0.05199946538805329,-0.1453310281205983]",100.0,"[0.18284999976691518,-0.028857536613720904]",100.0,"[0.009178008766670685,-0.16357780427597554]",100.0,"[-0.03617159020958406,0.14757458760450395]",100.0,"[0.1694150825911544,0.009464114529081524]",100.0,"[0.12490999546100737,-0.14373099909346804]",100.0,"[0.07400307411736963,-0.024299912243768096]",100.0,"[-0.08202150169861765,0.17844391866531883]",4.0,"[0.03809248060966579,0.17387828861846708]",4.0,"[0.12144192811781458,0.02130739463098457]",100.0,"[-0.0938415836746975,-0.05787179183882785]",100.0,"[-0.032300578037146914,-0.17842374154796095]",100.0,"[0.052809337512550895,-0.07877579572382565]",4.0,"[-0.028557465442302307,-0.11469101715779134]",100.0,"[-0.16968590437474537,0.048216244334330575]",100.0,"[0.010121637195463938,0.019427897145800874]",100.0,"[0.10017604036376802,-0.07893523203631507]",100.0,"[0.1339526373711036,-0.016734933829049448]",100.0,"[-0.022339974848248338,0.053845515684220094]",100.0,"[0.045894240653314274,-0.18796020558704096]",100.0,"[0.07894877795001128,0.01807104967141547]",100.0,"[0.1741713035282086,-0.07420703042022604]",100.0,"[0.02,0.02]",153.0462,0.0,3.0,3.0,5.0,1.0,,,,,,,
,,,,,,,682ce4f0aaf6e240215469e7,68399dd73428fd1d0ba673c1,2025-05-30_08h02.15.575,shape_ratio,2024.1.5,Win32,62.89308176,683853e18dae57a2147b65e0,,,,,,,,,,,153.0472,153.5457,,,153.796,153.9637,left,,,,,,,,0.9,,,,,,153.5458,153.796,0.1581,,153.9638,"[0.18581869449749253,0.026569515510547988]",100.0,"[-0.09630875063721735,-0.09147087129490114]",100.0,"[-0.06526536041250926,-0.05281086186747208]",100.0,"[0.17040128636497903,-0.09535874594027066]",100.0,"[-0.18589798449451694,-0.01039572746185615]",100.0,"[-0.16145019304074934,0.022572116573868782]",100.0,"[0.03012055901870014,-0.08876421845344823]",100.0,"[0.1302064641331942,-0.05359375854518279]",100.0,"[-0.11755500502786374,0.1564123386549848]",100.0,"[-0.10477413849393409,-0.15860979703160055]",100.0,"[-0.016784695511484315,0.13952315195503479]",100.0,"[-0.012994177961264402,-0.05935595541592004]",100.0,"[-0.01094161762407115,-0.1662215544548489]",100.0,"[0.026676815303104454,0.18330444267305276]",100.0,"[0.06991516048335689,0.0809286237475561]",100.0,"[-0.08853253278314491,0.11548269529955879]",100.0,"[0.06594935571322406,-0.03755926341721895]",100.0,"[-0.03517131187794646,-0.021904252250764172]",100.0,"[0.025254856526351316,0.11871387077102918]",4.0,"[0.18942043646185514,-0.05867421460795329]",100.0,"[-0.05636125327003973,0.03471297160469076]",100.0,"[0.09109391461858757,0.00044761519452691807]",100.0,"[0.13500298465156232,0.0608941810066494]",100.0,"[-0.16986153889493968,0.10107763534068066]",100.0,"[0.07853241191332673,-0.18134659831023045]",100.0,"[0.12369632865895289,0.1524909616203131]",100.0,"[0.08020107973971924,-0.07631002269209633]",4.0,"[-0.1222484474233183,-0.017673305273665653]",100.0,"[0.13120759434577797,-0.12228779897042776]",4.0,"[0.07859316727930177,0.17776307055201784]",100.0,"[-0.04022396514150569,-0.10994126544241858]",100.0,"[0.01348997083497543,0.05310565954548892]",100.0,"[0.02,0.02]",155.0608,0.0,4.0,4.0,23.0,1.0,,,,,,,
,,,,,,,682ce4f0aaf6e240215469e7,68399dd73428fd1d0ba673c1,2025-05-30_08h02.15.575,shape_ratio,2024.1.5,Win32,62.89308176,683853e18dae57a2147b65e0,,,,,,,,,,,155.0614,155.5603,,,155.8107,155.977,right,,,,,,,,0.4,,,,,,155.5604,155.8107,0.1508,,155.9772,"[-0.06611464829751368,0.009511362324327833]",100.0,"[0.03232774094313034,-0.18723557901942142]",4.0,"[-0.16259746704703007,-0.09001744978774674]",100.0,"[0.0934634108872027,-0.15366981963812035]",4.0,"[-0.10487561428965644,-0.05089024311104631]",4.0,"[0.16469893036445388,0.055879923442981295]",100.0,"[-0.14721864309061308,0.08751994225659494]",100.0,"[0.06313950749826262,-0.10020565011013222]",100.0,"[-0.01398007365382986,0.13477463661258837]",100.0,"[-0.05905635958854108,0.16477756687532244]",100.0,"[-0.04289138995646497,-0.12282368806557435]",4.0,"[-0.04099210041495853,-0.03729572157959666]",100.0,"[0.06744652628075784,0.07522275424974614]",4.0,"[-0.18055523134260845,-0.017913068733104043]",4.0,"[-0.08613605490491037,-0.10739179816413856]",4.0,"[-0.061645058859176,0.11265880826279838]",100.0,"[0.19415047406790673,-0.023274307126048107]",4.0,"[0.15259360372556816,-0.011079854828248234]",100.0,"[0.08209006835987363,0.013774988774893743]",4.0,"[0.1161556665748803,0.09271636848821846]",4.0,"[-0.11752922687384804,0.1384737672329889]",4.0,"[0.04178610025170265,0.02787754983509516]",4.0,"[0.06992280527448748,-0.045487998564143484]",4.0,"[0.1687546325671584,-0.054513979476798535]",4.0,"[0.026033900381878222,0.1265158434884624]",4.0,"[-0.13906369534668928,-0.13313103034715174]",100.0,"[0.01897052449008761,-0.028598462594297117]",4.0,"[0.0031176179497071936,0.03857440658821661]",100.0,"[-0.09593415529798231,-0.1663248886848236]",4.0,"[0.07860070111729145,0.14276350641760824]",4.0,"[0.02403551196722836,-0.12606152429522627]",4.0,"[0.09591018773368887,-0.07647415797672175]",100.0,"[0.02,0.02]",157.0754,0.0,5.0,5.0,166.0,1.0,,,,,,,
,,,,,,,682ce4f0aaf6e240215469e7,68399dd73428fd1d0ba673c1,2025-05-30_08h02.15.575,shape_ratio,2024.1.5,Win32,62.89308176,683853e18dae57a2147b65e0,,,,,,,,,,,157.0759,157.5747,,,157.8258,158.0087,left,,,,,,,,0.45,,,,,,157.5747,157.8258,0.1676,,158.0087,"[-0.08677810472702122,0.07421566973530169]",4.0,"[-0.17086280501114695,0.05434435900729325]",100.0,"[-0.023084299352196226,-0.06917143067968468]",100.0,"[0.15961072927518305,-0.01183310441015523]",4.0,"[-0.09145330130579167,0.16230010664875194]",4.0,"[-0.1234375815414343,-0.030568639418606675]",4.0,"[0.11844537324077375,-0.09126209269487123]",100.0,"[0.010345242227644304,-0.033336692863288796]",100.0,"[0.14163908088871166,0.13866987153029856]",100.0,"[-0.17061398230842958,-0.03934443588207576]",4.0,"[0.08143145985200682,-0.047385937773193866]",4.0,"[0.027856447308866387,-0.16533972838547192]",100.0,"[-0.06534885642855391,-0.17853996648414114]",4.0,"[-0.013913365151234078,-0.15719997701217625]",100.0,"[-0.014673447685903833,0.05024246357393507]",4.0,"[-0.031023859846665527,0.17232409066176213]",4.0,"[0.10325339598112512,-0.14208845396728578]",4.0,"[-0.16176319716009083,0.10798087590358037]",4.0,"[0.12883903670740335,0.04650347575309814]",4.0,"[-0.14382254292100635,-0.10300581548548458]",4.0,"[0.10106830020470783,0.11450223349586724]",100.0,"[0.046382198431085944,-0.08649908772133696]",100.0,"[0.06278000583764816,-0.18651539128125016]",100.0,"[0.09928923785244334,-0.008591553621153351]",100.0,"[0.03944602135636721,0.029889659304921778]",4.0,"[0.060414273200682586,0.17188172433583399]",100.0,"[0.17704850252885934,0.08617853761078577]",100.0,"[-0.07498105634161428,-0.11384833001132218]",100.0,"[0.18677849222751897,-0.049586465876113595]",4.0,"[0.0117426100356803,0.08684661435045413]",4.0,"[0.06176169007458801,0.06317062782802142]",4.0,"[-0.0828079963435449,-0.018766850082555173]",4.0,"[0.02,0.02]",159.1069,0.0,6.0,6.0,120.0,1.0,,,,,,,
,,,,,,,682ce4f0aaf6e240215469e7,68399dd73428fd1d0ba673c1,2025-05-30_08h02.15.575,shape_ratio,2024.1.5,Win32,62.89308176,683853e18dae57a2147b65e0,,,,,,,,,,,159.1075,159.6069,,,159.8571,159.9396,right,,,,,,,,0.9,,,,,,159.607,159.8569,0.0724,,159.9396,"[-0.06693190961970406,-0.09946642250673028]",100.0,"[0.08131475937338019,-0.15019090710323862]",4.0,"[-0.00999074056853767,0.15575432187361832]",100.0,"[0.09686470523681365,0.1146167315267501]",4.0,"[-0.12855855728600063,0.11749288540901516]",100.0,"[0.020369346608095005,0.12090076002804867]",100.0,"[0.12489078338008824,0.15011133625012493]",100.0,"[0.024258034589781263,-0.19699458520671878]",100.0,"[-0.08895890399114506,-0.17033037543678314]",100.0,"[0.026620832104759583,-0.03369561173689518]",100.0,"[0.12694363599360856,0.035359924408186874]",100.0,"[0.1697347639509913,0.09403500170857522]",100.0,"[0.012785560876780584,0.05048481949837592]",100.0,"[-0.04728057110236038,0.1924109941540775]",100.0,"[-0.14639465866065957,-0.12165187690324897]",100.0,"[-0.05803679699127156,0.010124757159403365]",100.0,"[0.16648528409930044,-0.015810143440053766]",100.0,"[0.11582830035171028,-0.04766450347971622]",100.0,"[-0.05698339205658884,0.09831133041867966]",4.0,"[0.07610937257817137,-0.10160895676720304]",100.0,"[-0.1035443229465209,-0.05254104784048619]",100.0,"[-0.03480888840315145,-0.13881692571755158]",100.0,"[-0.013870178406889578,0.08872416612518429]",100.0,"[-0.1026188100657997,0.16501879020169363]",100.0,"[-0.17403333151690667,0.029535689980619784]",100.0,"[-0.12181101018690957,0.032792078502569766]",100.0,"[-0.03623676397488012,-0.05433645455467272]",100.0,"[0.19015820179874698,-0.06088113452781982]",100.0,"[0.06848580020466033,0.17445394018596427]",100.0,"[0.0027090566282194375,0.008885811981272584]",100.0,"[0.006705845325341517,-0.09368210271318912]",100.0,"[0.061089889755438845,0.04325064242667805]",100.0,"[0.02,0.02]",161.0382,0.0,7.0,7.0,8.0,1.0,,,,,,,
,,,,,,,682ce4f0aaf6e240215469e7,68399dd73428fd1d0ba673c1,2025-05-30_08h02.15.575,shape_ratio,2024.1.5,Win32,62.89308176,683853e18dae57a2147b65e0,,,,,,,,,,,161.0387,161.5377,,,161.7796,161.8462,left,,,,,,,,0.1,,,,,,161.5378,161.7795,0.0509,,161.8463,"[0.042855528318856244,0.08682557360290528]",4.0,"[-0.02327660524786158,0.026837825304553257]",4.0,"[0.0025948247702749275,-0.025834857225345925]",4.0,"[0.06916177971062804,-0.03448823669255223]",4.0,"[-0.0488915980836471,0.11439977726328633]",4.0,"[0.16385363141553916,0.014129023854810567]",4.0,"[0.04905128405630322,0.01673288014557779]",4.0,"[-0.1133792895969139,-0.0903285177834679]",4.0,"[0.11700531083854622,-0.03248720235958528]",4.0,"[-0.13400026745303653,-0.008051664083712533]",4.0,"[0.06821241939914809,0.1377379245617468]",4.0,"[-0.04095932912053932,-0.08909845358082369]",100.0,"[0.03518200392433701,-0.16154699878010423]",4.0,"[-0.006682092703053357,0.15172062285155977]",4.0,"[0.09665629999566536,-0.06698246388337664]",4.0,"[-0.08420632669041847,-0.016978125991173494]",4.0,"[0.039800917378323336,0.18761243269974212]",4.0,"[0.1067583445150387,-0.1481356752072822]",4.0,"[0.16225235454386838,-0.08765212468874815]",100.0,"[-0.010063475861726475,0.19465546902725256]",4.0,"[-0.14525768613346035,0.05322292027709256]",4.0,"[0.13299673754012567,0.09170789575062152]",100.0,"[0.05634290294597537,-0.10348893279270517]",4.0,"[-0.07780518927440663,-0.13229841706228737]",4.0,"[-0.09671629470138443,0.04354246585678724]",4.0,"[0.09685444765105189,0.03592439021898358]",4.0,"[0.17738335033739022,-0.050354352414732496]",4.0,"[0.13551736916684706,0.14575361098668954]",4.0,"[-0.059336652218512476,-0.17014643753866363]",4.0,"[-0.14334385732662275,0.09996300125716161]",4.0,"[-0.15757646778440318,-0.11853454764994088]",4.0,"[0.028035494616599425,-0.06215381203116704]",4.0,"[0.02,0.02]",162.9443,0.0,8.0,8.0,200.0,1.0,,,,,,,
,,,,,,,682ce4f0aaf6e240215469e7,68399dd73428fd1d0ba673c1,2025-05-30_08h02.15.575,shape_ratio,2024.1.5,Win32,62.89308176,683853e18dae57a2147b65e0,,,,,,,,,,,162.9447,163.44,,,163.6953,163.7775,right,,,,,,,,0.9,,,,,,163.44,163.6953,0.0673,,163.7775,"[-0.08554438539541133,0.0562565396936069]",100.0,"[-0.17551930206959815,-0.0006989024733246089]",100.0,"[0.1854605728555022,0.06642615725252256]",100.0,"[0.12877357530392208,0.10932681326366064]",100.0,"[-0.11399469033274835,-0.010400072709946938]",100.0,"[0.14468235772177063,-0.07950976623007021]",100.0,"[0.054893922089043416,-0.039854075740767235]",100.0,"[0.08368112557207763,0.11902292597057679]",100.0,"[0.1303410820018308,-0.14351406249323065]",100.0,"[0.13696500355606087,0.020785697308072212]",4.0,"[0.06424839372450625,-0.188303691614896]",100.0,"[-0.13970074779630864,-0.04251077545722365]",100.0,"[0.1848206110539102,-0.03326681300088149]",100.0,"[-0.05750915663596036,-0.02196367814069336]",100.0,"[-0.08985832967358279,0.16573043932334303]",100.0,"[-0.14190814849537,0.08347577862781329]",100.0,"[-0.17192363709251546,-0.08571188581029793]",100.0,"[0.019876495504750184,0.17698776832675128]",100.0,"[-0.10224891888161483,0.11377913383822266]",100.0,"[0.0006418765381625717,-0.1331580194620542]",100.0,"[0.0569894783988992,-0.10324121416180562]",100.0,"[-0.061182120429378636,0.09529785999158784]",100.0,"[-0.12507027474593402,-0.09563685405738488]",100.0,"[0.06771424133235844,0.015120633158229]",100.0,"[0.10088949814726135,-0.013172945921941775]",100.0,"[0.008143110079142219,0.013202471108992381]",100.0,"[0.014155052060665915,0.11783694062696243]",100.0,"[-0.054177683038339065,-0.12218061042917222]",4.0,"[-0.026946911309761668,-0.16212280943779367]",4.0,"[-0.11590454957655213,-0.13852731253225412]",100.0,"[-0.040963997704223085,0.13746858857128827]",100.0,"[0.10183683346523593,0.0731357783146307]",100.0,"[0.02,0.02]",164.8755,0.0,9.0,9.0,10.0,1.0,,,,,,,
,,,,,,,682ce4f0aaf6e240215469e7,68399dd73428fd1d0ba673c1,2025-05-30_08h02.15.575,shape_ratio,2024.1.5,Win32,62.89308176,683853e18dae57a2147b65e0,,,,,,,,,,,164.876,165.3716,,,165.6258,165.7744,left,,,,,,,,0.4,,,,,,165.3716,165.6258,0.1315,,165.7744,"[-0.05622585591572385,0.00810941696842807]",100.0,"[0.14324081054097157,-0.03188720703041496]",4.0,"[-0.19740588958151142,-0.015543612985777845]",4.0,"[-0.09536195694839107,-0.09600559065246435]",100.0,"[0.07062736756652113,0.009043713438934668]",100.0,"[0.006294373693068473,0.0645712589594473]",100.0,"[-0.18009088710078164,0.061991294048625134]",4.0,"[0.0548626031806959,0.14745460166822777]",4.0,"[0.12074880129994568,-0.08312056563692224]",4.0,"[0.0419507158405347,-0.12423897968254076]",4.0,"[-0.11257824008950898,0.09550486785595809]",4.0,"[-0.08765631009895003,-0.01761485696167332]",4.0,"[-0.0013321377255047146,0.11882796933468694]",100.0,"[-0.16788078616020505,0.01829761385058348]",4.0,"[0.09333382591721831,-0.028855913114888256]",4.0,"[-0.0902062876581919,0.048510819478097336]",100.0,"[0.1148531404038484,0.1322545722307605]",4.0,"[0.04880266326234133,0.08647994189577055]",4.0,"[-0.06093533188600788,0.15968377082177684]",4.0,"[-0.08841219231236322,-0.16271389423572488]",100.0,"[0.09901225495959419,0.0661131678688403]",100.0,"[-0.15906179766003767,-0.10135925285838332]",4.0,"[-0.05212760142166251,-0.1290813334929945]",100.0,"[0.10929337164246451,0.026861037948680326]",100.0,"[0.1436576252798049,0.10124415719950723]",4.0,"[-0.14999088249896567,-0.022296339801023444]",100.0,"[-0.04723250339352925,-0.17260336976298218]",4.0,"[0.15071320802182378,0.051508511776639364]",4.0,"[0.007564797013501843,-0.08254029286930012]",4.0,"[0.13497141641326393,-0.14540172723300535]",100.0,"[0.07554822623277274,-0.09947820675487944]",4.0,"[0.009463496410550802,-0.02052211946871811]",100.0,"[0.02,0.02]",166.8701,0.0,10.0,10.0,167.0,1.0,,,,,,,
,,,,,,,682ce4f0aaf6e240215469e7,68399dd73428fd1d0ba673c1,2025-05-30_08h02.15.575,shape_ratio,2024.1.5,Win32,62.89308176,683853e18dae57a2147b65e0,,,,,,,,,,,166.8708,167.3733,,,167.6235,167.7072,right,,,,,,,,0.5,,,,,,167.3733,167.6234,0.0675,,167.7072,"[-0.14688707945459178,-0.03748536285336313]",100.0,"[0.14607474373759535,0.08439560360575966]",4.0,"[0.1580943640145717,-0.044106066390718714]",4.0,"[0.1783807131091653,0.014495996287718832]",100.0,"[0.13008539802370375,0.01913599215426473]",4.0,"[-0.15451723350250013,0.07820427558358872]",100.0,"[-0.09646574376743293,0.02847315986840136]",4.0,"[0.10555161601619088,0.08211613528058993]",4.0,"[0.04764431213909899,-0.16288623849451697]",100.0,"[-0.07879041712489317,-0.176369652779753]",4.0,"[0.04521410123040796,0.168089153070104]",100.0,"[0.00579738134363453,-0.19649169731958255]",100.0,"[-0.05397246469249944,0.09055047529022922]",100.0,"[0.024580918765269626,0.008994888510923203]",4.0,"[0.06080405398140648,0.1012371625738861]",4.0,"[-0.11228912602346346,0.11091346296397699]",100.0,"[-0.016877500220377213,0.17558197039220763]",100.0,"[-0.013677189262198157,0.024417287567835715]",100.0,"[0.03322294801789668,-0.06539320543758254]",4.0,"[0.018693262177403077,0.0849275841250248]",100.0,"[0.08265685843155424,0.026811238589010238]",4.0,"[0.1063651724998997,0.1413697467890476]",100.0,"[-0.16150714184700726,-0.0781708263977133]",4.0,"[0.13915525576781365,-0.1398369758183089]",4.0,"[-0.03144707969535937,-0.03393487642083132]",100.0,"[0.08600530184509701,-0.14580479350016567]",100.0,"[-0.0800957591335336,0.13629852480601354]",100.0,"[-0.03724793775303816,-0.07594849784750403]",4.0,"[0.003101297489016772,-0.10113060200697063]",4.0,"[-0.1818192136273738,0.01084943910525354]",4.0,"[0.005996505428447932,0.12712874355992246]",4.0,"[-0.11879962113361912,0.1540547487119422]",100.0,"[0.02,0.02]",168.8037,0.0,11.0,11.0,104.0,1.0,,,,,,,
,,,,,,,682ce4f0aaf6e240215469e7,68399dd73428fd1d0ba673c1,2025-05-30_08h02.15.575,shape_ratio,2024.1.5,Win32,62.89308176,683853e18dae57a2147b65e0,,,,,,,,,,,168.8041,169.3008,,,169.5391,169.7349,left,,,,,,,,0.6,,,,,,169.3008,169.5391,0.1806,,169.735,"[-0.12817886250516078,-0.12197888979216008]",100.0,"[0.08774259717553881,-0.166376130998521]",4.0,"[-0.028349534771417394,0.11373855588927682]",4.0,"[0.15176820157666096,0.0506300066577557]",100.0,"[0.06880332508593785,-0.007033426161037076]",100.0,"[0.1208994066409764,-0.13900187640932163]",4.0,"[0.07227342009872964,0.13800276542412176]",4.0,"[0.05493127357909326,-0.12319111864650333]",100.0,"[-0.19583061045444433,-0.025802183825119698]",100.0,"[0.00573112172807848,-0.0038757553841504205]",4.0,"[-0.05168861746657696,0.16514637129400628]",100.0,"[0.13095739553867278,0.10507137166703677]",100.0,"[0.10753642452689947,0.06947498855567624]",4.0,"[-0.1332774247329027,0.018037612379059844]",4.0,"[0.17300464609570956,-0.0031093045761233446]",100.0,"[-0.1033281214329824,-0.15686473781074287]",4.0,"[0.018979081189230567,0.12955064604304178]",4.0,"[-0.1864238268448101,0.06066153038746501]",100.0,"[-0.1101836356995984,0.11410664374715368]",100.0,"[0.07885738262929802,-0.06964095320918294]",100.0,"[-0.08270994494319805,0.035213904103840385]",100.0,"[-0.004933924205593671,-0.1286911155046585]",100.0,"[-0.11494636777374242,-0.019147139816949148]",4.0,"[-0.18171860420552122,-0.07415533876200284]",100.0,"[0.03220955832239653,-0.08752947092210521]",100.0,"[0.14208125997950816,-0.07115066748867722]",4.0,"[-0.037616831698285384,-0.04498763272026334]",4.0,"[0.11773249932596327,0.014798149271180694]",100.0,"[-0.1367515667960242,0.08240089800912032]",100.0,"[0.10436420435384626,-0.027080676608420902]",4.0,"[0.01332771891418696,0.07966458917254]",100.0,"[-0.09140022040012091,-0.09210383570712559]",100.0,"[0.02,0.02]",170.8288,0.0,12.0,12.0,36.0,1.0,,,,,,,
,,,,,,,682ce4f0aaf6e240215469e7,68399dd73428fd1d0ba673c1,2025-05-30_08h02.15.575,shape_ratio,2024.1.5,Win32,62.89308176,683853e18dae57a2147b65e0,,,,,,,,,,,170.8292,171.3357,,,171.5789,171.7458,right,,,,,,,,0.5,,,,,,171.3358,171.5788,0.1537,,171.7459,"[0.10323677173405722,-0.1145516633389232]",4.0,"[-0.03376764996230257,0.04761874758596702]",100.0,"[0.1255143850711454,-0.15052521692993565]",4.0,"[0.014286782093901633,-0.06994023826246715]",100.0,"[-0.1523018841523672,-0.11636127958238879]",4.0,"[0.06764915844035603,-0.07062194030966701]",4.0,"[-0.08491305504889053,0.10838762499073393]",4.0,"[0.03242696994822704,0.07222423951024537]",4.0,"[-0.0014058729108112243,-0.18100521735087594]",100.0,"[-0.1559187199762159,0.04405182020151022]",100.0,"[0.01776256548317761,-0.00022790991273867006]",100.0,"[0.16912021044663425,-0.032072283121373654]",100.0,"[-0.019215085266601744,0.19326075270129453]",4.0,"[-0.07469072163361815,-0.03725829735619942]",100.0,"[-0.06580081627884458,-0.09942034680313312]",100.0,"[0.09103734273100754,-0.005646092210365628]",4.0,"[0.024053333708287106,0.11503792303104737]",4.0,"[0.11729141071421091,0.09211972082657807]",4.0,"[-0.01892768177273835,-0.1360357990375361]",100.0,"[0.07928105710408012,0.16244900888169053]",4.0,"[-0.13153148502218356,-0.022552600416985716]",4.0,"[0.14036953173335123,-0.06750190688929376]",4.0,"[0.05186854146915191,-0.19252209783183385]",100.0,"[-0.18068454489237062,0.012583793177743456]",100.0,"[0.02520457933271519,-0.13552032134177686]",100.0,"[-0.13112640975611403,0.09852995689522834]",100.0,"[-0.10181866530497538,0.1712557187152668]",100.0,"[-0.15766247462671415,-0.07619839351485164]",4.0,"[-0.17415239048005854,0.0901095669547567]",100.0,"[0.19267852154284645,0.04184487288672352]",4.0,"[-0.0986160418106388,-0.14570279092234664]",100.0,"[-0.13332837260312327,0.13977539703292696]",4.0,"[0.02,0.02]",172.8441,0.0,13.0,13.0,108.0,1.0,,,,,,,
,,,,,,,682ce4f0aaf6e240215469e7,68399dd73428fd1d0ba673c1,2025-05-30_08h02.15.575,shape_ratio,2024.1.5,Win32,62.89308176,683853e18dae57a2147b65e0,,,,,,,,,,,172.8444,173.3431,,,173.5934,173.727,left,,,,,,,,0.6,,,,,,173.3432,173.5934,0.1213,,173.727,"[0.10586970956547424,-0.16165884853257778]",4.0,"[0.00624851288144406,0.06888868230421286]",4.0,"[0.011171955771193306,-0.13761803586398247]",100.0,"[0.06784221570351609,-0.08595122801158726]",4.0,"[-0.08896986437922408,0.16261986860712155]",4.0,"[0.05567820243733821,-0.15109414947582234]",100.0,"[-0.015901041313643546,0.17037808297321774]",4.0,"[-0.1541583296315579,0.1251555658657531]",100.0,"[0.1431732206140984,-0.05475801393728372]",100.0,"[-0.046212273389648104,0.029707175780282147]",100.0,"[-0.08149537117047699,-0.029114402977799946]",100.0,"[-0.09997743348902212,0.10192461069681892]",100.0,"[0.07373129688547446,-0.03917855885710599]",100.0,"[-0.08382991744931263,0.04683117861475812]",4.0,"[0.1414235841662265,0.012346430372753287]",100.0,"[0.0029942561409253797,-0.07416397191907112]",4.0,"[-0.1497182319462382,-0.014302605782729799]",100.0,"[-0.03739007556957203,-0.18897784213027283]",100.0,"[-0.043042947855308517,-0.06307070759143328]",100.0,"[0.08935928458539424,0.013379576013024818]",100.0,"[-0.1646303428540189,-0.08377234147405252]",4.0,"[0.09601162732289274,-0.12276498483055165]",100.0,"[-0.08345583099758504,-0.17773076457955145]",100.0,"[-0.05981173415595617,-0.10216105725299675]",100.0,"[-0.1255566443139958,-0.10257205534639086]",4.0,"[-0.17284820540708765,0.07063491852321982]",100.0,"[0.07447167698193073,0.10085547887355391]",4.0,"[-0.04051302994874961,-0.015173147277419278]",100.0,"[-0.016910938709138793,0.11676755550355918]",100.0,"[0.053012075816125805,0.03869274205191825]",4.0,"[0.1633984676762791,0.10286719312642646]",4.0,"[0.12849665692796203,0.13882096945373196]",4.0,"[0.02,0.02]",174.8251,0.0,14.0,14.0,40.0,1.0,,,,,,,
,,,,,,,682ce4f0aaf6e240215469e7,68399dd73428fd1d0ba673c1,2025-05-30_08h02.15.575,shape_ratio,2024.1.5,Win32,62.89308176,683853e18dae57a2147b65e0,,,,,,,,,,,174.8257,175.3246,,,175.575,175.7758,right,,,,,,,,0.55,,,,,,175.3247,175.5749,0.1864,,175.7758,"[0.061251490573109,0.04082635880661338]",100.0,"[-0.03434134000939909,0.15904701261596302]",100.0,"[0.0007294794968599772,-0.04895298167105073]",100.0,"[-0.10974449016133524,0.14764895184218807]",100.0,"[-0.1873749448752075,0.012477825093821398]",100.0,"[0.06196011600720699,-0.10882915158531065]",4.0,"[0.13084199485512515,-0.003609143835157439]",100.0,"[0.17817999814409877,0.061576150663827545]",100.0,"[-0.012988856845300094,-0.12499991246953822]",4.0,"[0.02343619181094322,0.15385733869970486]",4.0,"[0.06355495263275603,0.15404113014955576]",100.0,"[0.12571857178243512,-0.1502978437325249]",4.0,"[-0.165991624299121,-0.023042254057814803]",4.0,"[-0.14692228416739572,-0.08770157066784001]",4.0,"[-0.08079323304047777,-0.05156036863762646]",100.0,"[-0.10146772351276002,0.04259818458148682]",4.0,"[-0.03299120313647542,-0.008416029914613926]",100.0,"[0.12057710505386039,0.12302906508924481]",100.0,"[-0.10608833374896134,-0.10621876945233642]",4.0,"[-0.12429642633137766,0.09434797513183743]",100.0,"[-0.05892410097399842,0.09931076984856602]",4.0,"[0.16337136751107728,0.10859433138114395]",100.0,"[-0.05423966137277223,-0.13951403213308763]",100.0,"[0.07776526811394119,-0.036925521279619324]",4.0,"[0.1772589627242014,-0.06880289875795997]",100.0,"[0.04640416299383071,-0.15679940758757702]",4.0,"[-0.010501830917817798,0.0645244899115001]",4.0,"[0.12010570048028862,0.052523734157589895]",100.0,"[-0.03259794318008412,-0.07390737701557228]",4.0,"[0.004291290335588396,0.18961806755700453]",4.0,"[-0.12859681329719935,-0.14494597404520604]",100.0,"[0.13290452706811565,-0.08737947482542141]",100.0,"[0.02,0.02]",176.8733,0.0,15.0,15.0,66.0,1.0,,,,,,,
,,,,,,,682ce4f0aaf6e240215469e7,68399dd73428fd1d0ba673c1,2025-05-30_08h02.15.575,shape_ratio,2024.1.5,Win32,62.89308176,683853e18dae57a2147b65e0,,,,,,,,,,,176.8737,177.3728,,,177.6234,177.8233,left,,,,,,,,0.4,,,,,,177.3728,177.6233,0.1849,,177.8234,"[-0.0537245347297054,0.01071330329371241]",4.0,"[0.1645125873341536,-0.08558475491237534]",4.0,"[-0.16368193960064165,-0.08002504985535672]",4.0,"[0.07689737548202924,0.06771546515195145]",4.0,"[0.12399563195905594,0.15004271744968725]",4.0,"[0.06659235864171832,-0.16885315042716098]",100.0,"[0.07219252246258041,0.14216057479498118]",4.0,"[-0.040515015335453215,0.08790002622587864]",4.0,"[-0.12315992629845617,-0.12209904840983687]",4.0,"[0.04442153877928234,0.18027944367632107]",4.0,"[0.05593586860437044,0.015850814511694337]",100.0,"[0.019281645829533334,-0.021752674772238124]",4.0,"[-0.019422452049652237,-0.08740551160682106]",100.0,"[-0.0893751093790773,-0.1604944466920942]",4.0,"[-0.16072309688484196,-0.03507858418015435]",100.0,"[0.08951354714311532,-0.1058787559452269]",4.0,"[-0.026980413780668257,0.04966259833205437]",4.0,"[-0.09188421911453337,-0.022732721765466035]",100.0,"[0.024265107554771462,0.08017808448855529]",100.0,"[0.16792855283094868,0.10102759617497149]",4.0,"[-0.17828761622121092,0.08043041070764392]",100.0,"[-0.10442173708728475,-0.06582815740473845]",4.0,"[-0.09946578736725588,0.14921631772962335]",100.0,"[0.10884872148497347,-0.028757344371814757]",100.0,"[0.13705965585817417,0.04605037671269326]",100.0,"[-0.11018862175378373,0.1070161066995891]",4.0,"[0.1929008023950923,0.02421850681612234]",100.0,"[-0.0350676040095559,0.17908668805252703]",4.0,"[-0.07796928085184088,-0.11241344472596507]",4.0,"[-0.15644795481101978,0.03688104844733573]",100.0,"[-0.11625338656159934,0.04053521891853743]",4.0,"[0.01682603438492867,0.03525025410440997]",100.0,"[0.02,0.02]",178.9209,0.0,16.0,16.0,151.0,1.0,,,,,,,
,,,,,,,682ce4f0aaf6e240215469e7,68399dd73428fd1d0ba673c1,2025-05-30_08h02.15.575,shape_ratio,2024.1.5,Win32,62.89308176,683853e18dae57a2147b65e0,,,,,,,,,,,178.9214,179.4202,,,179.6705,179.7548,right,,,,,,,,0.4,,,,,,179.4202,179.6705,0.0674,,179.7549,"[-0.040464396925113964,-0.17915240895760431]",100.0,"[-0.1237210477836815,0.0984714182971022]",4.0,"[0.17654322981767656,0.07106326366577001]",100.0,"[-0.1699552426175642,0.08366997204953512]",100.0,"[-0.12738483475943513,-0.09811774284526917]",4.0,"[-0.13904646896149345,-0.037648831422472495]",4.0,"[-0.10044926029706135,-0.0001121263861721478]",4.0,"[0.051752494473924444,0.1400978088393723]",4.0,"[0.03379130807005259,0.05498301948797829]",100.0,"[0.17267474472319003,-0.1007863453951848]",100.0,"[-0.07121587983791729,0.16665721224322438]",4.0,"[-0.06986155849319567,0.11078844691684761]",4.0,"[0.041163735162280356,0.0009682904638160394]",100.0,"[0.07178091733038731,-0.17763221290337766]",4.0,"[0.10265827160449585,-0.09363376901191393]",4.0,"[-0.020610330532485923,-0.04894246911756585]",4.0,"[-0.019941554922710165,-0.1357110253629059]",100.0,"[-0.18280886544293942,-0.004283969882079528]",100.0,"[0.13250984322082196,-0.035342837402874104]",4.0,"[0.14576915165953036,0.11876753584982765]",4.0,"[-0.01607721652356173,0.06365615931752733]",4.0,"[-0.0893839403759696,0.06280241760039283]",100.0,"[0.08790881922581326,-0.05276140076972539]",4.0,"[-0.03811482080029863,-0.0013283979216886456]",4.0,"[0.12895496329580122,-0.12701187531413904]",100.0,"[0.022730237296080143,-0.07345220106636989]",100.0,"[0.10616762365909754,0.04762173610196354]",100.0,"[0.016728168751574103,0.16382686540547128]",100.0,"[-0.010634981752921303,0.12035177710859127]",4.0,"[0.003411456376710626,0.02703459311105996]",4.0,"[0.06379833196657597,-0.10462017718251355]",4.0,"[0.14561114461610974,0.021065145646629323]",4.0,"[0.02,0.02]",180.8528,0.0,17.0,17.0,173.0,1.0,,,,,,,
,,,,,,,682ce4f0aaf6e240215469e7,68399dd73428fd1d0ba673c1,2025-05-30_08h02.15.575,shape_ratio,2024.1.5,Win32,62.89308176,683853e18dae57a2147b65e0,,,,,,,,,,,180.8533,181.3523,,,181.6021,181.8357,left,,,,,,,,0.9,,,,,,181.3523,181.6021,0.2205,,181.8358,"[-0.11746443230720874,-0.010373185092792636]",4.0,"[0.1057272848171237,-0.011184263980949549]",100.0,"[0.10181023440723945,0.11269163482005544]",100.0,"[-0.0946829628176841,-0.08671074128179794]",100.0,"[-0.08674282986756687,0.06573080961718923]",100.0,"[-0.07323041518790534,-0.17579015264482437]",100.0,"[0.023472493281292094,-0.033986412700553734]",100.0,"[-0.0030473374881122574,-0.08402982755545271]",100.0,"[-0.006667356020905172,-0.19369130367512252]",100.0,"[0.0286915631291738,0.033192746865255716]",100.0,"[0.1866750055784972,-0.040499136266410204]",100.0,"[0.0670096262353377,0.14404941855274925]",100.0,"[0.1684150338061494,-0.0939425487446744]",4.0,"[-0.050942014912320845,-0.14188965834681763]",100.0,"[0.04353167509403826,-0.08814818109917294]",100.0,"[-0.13859610790615956,0.049050472666373725]",100.0,"[0.06211228775724381,0.07780901512029875]",100.0,"[0.08156040588170012,-0.16267605570411647]",100.0,"[-0.11416863222970534,0.15721820805179848]",100.0,"[0.11592594766072083,-0.12700752174966984]",100.0,"[-0.07115839824974293,0.004514728431828189]",100.0,"[0.01672333016652009,0.10781029004976105]",100.0,"[-0.0978233043166314,0.1148633977507378]",100.0,"[-0.08293123840793877,-0.041451986756439685]",100.0,"[-0.022714692924436092,0.13234781549420835]",100.0,"[-0.06023527455615938,0.18395827025521136]",100.0,"[0.12808190801369884,0.06907169276851448]",100.0,"[-0.12156650864381796,-0.13359336941859068]",100.0,"[-0.02808284780425138,-0.026564954437953408]",4.0,"[-0.007847594999110499,0.19644785707560436]",100.0,"[0.06788268346034369,-0.04139937809005605]",100.0,"[-0.16821934978012007,-0.03758302058368513]",100.0,"[0.02,0.02]",182.9337,0.0,18.0,18.0,21.0,1.0,,,,,,,
,,,,,,,682ce4f0aaf6e240215469e7,68399dd73428fd1d0ba673c1,2025-05-30_08h02.15.575,shape_ratio,2024.1.5,Win32,62.89308176,683853e18dae57a2147b65e0,,,,,,,,,,,182.9341,183.4331,,,183.6839,183.8513,right,,,,,,,,0.5,,,,,,183.4331,183.6838,0.1515,,183.8514,"[0.040144640777692094,0.04622253333982412]",4.0,"[-0.06239330590057436,0.05528209102547751]",100.0,"[0.13550628344709983,0.1343979401197896]",100.0,"[-0.15499097754455157,0.04381383238210672]",4.0,"[-0.1030728835071437,0.13032536741310058]",4.0,"[0.13617150950347628,0.07992350050669057]",4.0,"[-0.12315884748887423,-0.14545152740023345]",100.0,"[-0.052354115076514746,-0.148636056741842]",4.0,"[-0.03043618325613901,0.19271802597978596]",4.0,"[0.012832957844373709,0.1726742162179043]",4.0,"[-0.10292908324063771,0.01858137688119973]",100.0,"[0.005578606572506155,-0.12025739461382468]",4.0,"[0.04333704939402361,-0.0529409211725059]",100.0,"[0.019895134396109876,0.10087129133309247]",4.0,"[-0.08593028446672048,0.09094351193958573]",100.0,"[0.16273125645233733,0.018988496060650926]",4.0,"[-0.15687503526190982,-0.06711725847614698]",100.0,"[0.025754627281071304,-0.19494721843156942]",4.0,"[0.04900762145823214,-0.09994389976705387]",4.0,"[0.1264669654186521,-0.12354777360779759]",100.0,"[0.15058303710125892,-0.08358409631560816]",100.0,"[0.13394242282843907,-0.03592499704330645]",100.0,"[-0.14195173499683725,-0.01929565253216255]",100.0,"[-0.08130669857880268,-0.021602568367840688]",4.0,"[-0.015158232057048212,-0.034952207443037245]",100.0,"[0.06353608193672738,0.1726069037927266]",4.0,"[0.18347228093640586,-0.0473144475330347]",4.0,"[0.08647508818596093,0.09446947902503006]",4.0,"[-0.19179312675075494,0.010620225020095188]",100.0,"[0.10374977027990726,0.0083611162307199]",100.0,"[0.0985126647756116,-0.1605591670419496]",100.0,"[-0.12753488238663777,0.0763468217019747]",100.0,"[0.02,0.02]",184.9484,0.0,19.0,19.0,110.0,1.0,,,,,,,
,,,,,,,682ce4f0aaf6e240215469e7,68399dd73428fd1d0ba673c1,2025-05-30_08h02.15.575,shape_ratio,2024.1.5,Win32,62.89308176,683853e18dae57a2147b65e0,,,,,,,,,,,184.9487,185.4484,,,185.6978,185.8655,left,,,,,,,,0.6,,,,,,185.4484,185.6978,0.1517,,185.8655,"[0.00048515911733821367,0.11489977654611501]",4.0,"[-0.008043838925505238,-0.17620323426131207]",100.0,"[0.026834009157806257,-0.14030465165191575]",100.0,"[-0.1365638379990511,0.01882240019665215]",4.0,"[0.1088394710544027,-0.07523233565095652]",100.0,"[-0.0661138884791801,-0.10836544271837634]",100.0,"[0.16779295333307692,0.03934622298558807]",100.0,"[-0.042253309071344426,-0.0661098618096828]",100.0,"[0.05365870336067759,0.060141814145532074]",100.0,"[-0.012804260711231558,0.04550028883732644]",4.0,"[-0.07328945162266876,-0.026626954496565988]",4.0,"[0.06689828774480061,-0.013954042371037596]",4.0,"[0.13780582238243108,0.1270460547983021]",100.0,"[-0.06949526059857578,0.02747389595396807]",100.0,"[-0.06412323049694046,-0.15396324405501607]",4.0,"[-0.14894531879166564,0.06431841970384507]",100.0,"[-0.15911480558974217,0.1037253290063507]",4.0,"[-0.0007195312944003029,0.1661533732858614]",4.0,"[0.11114287846924832,0.09228413486158425]",100.0,"[-0.008672265150695158,-0.029390988546144074]",100.0,"[0.07604671267459019,0.13493132065961694]",100.0,"[0.06898800297043486,-0.08516286017545327]",100.0,"[-0.08949907521470775,0.13164312192259126]",100.0,"[0.021706600981115133,-0.06892613813445787]",100.0,"[-0.1804879885387852,-0.044305052446520464]",4.0,"[0.11449017197147651,0.043760351159553595]",4.0,"[0.19709222419585903,-0.0007883153578934685]",100.0,"[-0.07710249145304801,0.17516604072535963]",4.0,"[0.14498956791641168,-0.04952645669893641]",4.0,"[-0.12586644003046568,-0.034618998104949256]",100.0,"[-0.12323444767726359,-0.13364317877708182]",4.0,"[-0.06095158837803606,0.0936575042980222]",100.0,"[0.02,0.02]",186.9632,0.0,20.0,20.0,57.0,1.0,,,,,,,
,,,,,,,682ce4f0aaf6e240215469e7,68399dd73428fd1d0ba673c1,2025-05-30_08h02.15.575,shape_ratio,2024.1.5,Win32,62.89308176,683853e18dae57a2147b65e0,,,,,,,,,,,186.9636,187.4629,,,187.7134,187.8135,right,,,,,,,,0.55,,,,,,187.4629,187.7134,0.0846,,187.8136,"[-0.023797880254912838,0.11320284230951949]",4.0,"[0.17814963619754173,-0.08461975123660745]",100.0,"[0.05433505396383827,-0.06815833870676237]",4.0,"[0.013311235101898244,0.08224551042896208]",100.0,"[0.03331341425782128,0.14921565057648012]",100.0,"[-0.009172457522246056,0.16294140449501637]",4.0,"[0.046933751548569616,-0.008509013501978694]",100.0,"[-0.0010317911290711858,0.013660461426586102]",100.0,"[-0.09991385316104073,0.03722239076949156]",100.0,"[0.10245286179764665,-0.05503344281704067]",4.0,"[0.09420924108343631,-0.09812474219164441]",100.0,"[0.08562640159037066,0.11343973246361458]",100.0,"[-0.1686117698272683,0.004163205968178397]",100.0,"[-0.06917306942479833,-0.05835371112251057]",100.0,"[0.18604999976813355,0.07026158729901033]",100.0,"[0.10002524054498321,0.009542345086881874]",4.0,"[0.13384566664520467,-0.08355708795173517]",4.0,"[0.15595286967067543,-0.030826622631470874]",100.0,"[-0.0653085510432344,0.1612781353919675]",100.0,"[-0.11285442889328777,0.09237818317925876]",100.0,"[0.150100563651517,0.050320182000857125]",100.0,"[-0.07698634001521451,-0.11233293301607922]",4.0,"[-0.11812151620525325,-0.15395238217529003]",100.0,"[-0.06250700980605821,0.012246881106592701]",4.0,"[-0.13687712575165573,-0.032712583345759876]",4.0,"[-0.03294335354537039,-0.10081819547441269]",4.0,"[0.01782743226311126,-0.180574779931131]",4.0,"[-0.010079956213106285,-0.04129773411079484]",100.0,"[0.0589216489092936,-0.14560601420241384]",100.0,"[0.07388849293854338,0.05012817833617712]",4.0,"[-0.15658929782958464,-0.08104026024114352]",4.0,"[-0.1616994364048407,0.0839224427392034]",4.0,"[0.02,0.02]",188.9116,0.0,21.0,21.0,86.0,1.0,,,,,,,
,,,,,,,682ce4f0aaf6e240215469e7,68399dd73428fd1d0ba673c1,2025-05-30_08h02.15.575,shape_ratio,2024.1.5,Win32,62.89308176,683853e18dae57a2147b65e0,,,,,,,,,,,188.912,189.4112,,,189.661,189.7448,left,,,,,,,,0.9,,,,,,189.4113,189.661,0.0684,,189.7448,"[0.1362932769585818,-0.004431059328979013]",100.0,"[-0.014896635545259235,0.0712795908703763]",100.0,"[-0.0673872594372421,-0.11250901386183136]",100.0,"[-0.1196142733803161,-0.01190080135172894]",100.0,"[-0.14007005884024046,-0.12256966614896969]",4.0,"[0.007924924684467254,-0.049285135157528706]",100.0,"[0.09441921636861027,-0.025671836735227715]",100.0,"[-0.09886004333019667,-0.08368523443843041]",4.0,"[0.09884412186890305,0.10658450021260256]",100.0,"[-0.015068779664600804,0.1874802259834305]",100.0,"[0.143233400161673,-0.11295017637265416]",100.0,"[-0.07689865970471732,0.10270052566250853]",100.0,"[-0.07479668707300052,-0.15543590645780753]",100.0,"[0.08935776611573812,-0.12240360141709451]",100.0,"[-0.09376224773043146,0.04226309712792667]",4.0,"[0.10592280561425257,0.05519324678169068]",100.0,"[-0.018024466307023104,-0.13171389498856736]",100.0,"[-0.14195549065528643,0.02260078100241977]",100.0,"[-0.16791955529248193,-0.03732785268985796]",100.0,"[-0.049307251862187436,0.15964269173827186]",100.0,"[0.034473423802065355,0.1569312802623291]",100.0,"[0.046621855829305975,-0.09094412012356347]",100.0,"[0.14139687358976538,0.12487912139076918]",100.0,"[0.1918809805723424,0.05403354863153247]",100.0,"[-0.05904956627298627,-0.026077641162909667]",100.0,"[0.08349744233633306,0.1627593442184104]",100.0,"[-0.027489631885334247,-0.17254494395271372]",100.0,"[0.04543600719436585,-0.003136786190074396]",100.0,"[0.1783930242415298,-0.03838934170944741]",100.0,"[-0.14555140109291964,0.11771780536227887]",100.0,"[0.00545352056985518,-0.09059999097741267]",100.0,"[0.03823778301529477,0.06417243113218221]",100.0,"[0.02,0.02]",190.8427,0.0,22.0,22.0,13.0,1.0,,,,,,,
,,,,,,,682ce4f0aaf6e240215469e7,68399dd73428fd1d0ba673c1,2025-05-30_08h02.15.575,shape_ratio,2024.1.5,Win32,62.89308176,683853e18dae57a2147b65e0,,,,,,,,,,,190.8432,191.3426,,,191.5927,191.86,right,,,,,,,,0.6,,,,,,191.3427,191.5926,0.2501,,191.8602,"[0.16253162573010668,-0.051146483536164536]",4.0,"[-0.058748666123851885,0.13158237616996948]",100.0,"[-0.13080211916888096,0.07542104615147752]",4.0,"[0.0409840482797234,0.05511088743846073]",100.0,"[0.016578682080216855,0.17501332645786696]",100.0,"[-0.03853419435866363,0.06289741367938981]",4.0,"[-0.08291109595471452,-0.16151469855002876]",100.0,"[0.032129742837094924,-0.007614947497615286]",100.0,"[0.007224866583578884,0.07825440891685138]",100.0,"[0.021343462973610443,-0.18370683067708257]",100.0,"[-0.10361711880132027,-0.019710429521816387]",4.0,"[-0.0695541387943443,-0.04401498888939608]",100.0,"[0.08759800774619755,-0.06695657665723692]",100.0,"[-0.059180133408555505,-0.08801282375987314]",4.0,"[-0.03369069864132185,-0.1866219500096603]",100.0,"[0.13740355343062005,0.0018229712715023482]",100.0,"[-0.007873770374821044,0.13217946148208853]",100.0,"[-0.18649240700779543,-0.03869472669547405]",100.0,"[-0.13902831163284796,0.12680778512644295]",4.0,"[-0.13231548285293643,-0.12956532121982745]",4.0,"[0.029497983240299726,-0.10681012200096866]",100.0,"[0.006618363594499816,-0.07122268789395711]",4.0,"[-0.1574599268855703,-0.09745120678507177]",100.0,"[0.162779104029957,0.11533572504777825]",4.0,"[0.06468732379615291,0.1312493288996429]",4.0,"[0.13357854325722363,0.06496266951710433]",100.0,"[0.09082656051799527,-0.13614318457228453]",100.0,"[-0.18180768046225412,0.03076129800475131]",4.0,"[0.17669910922562657,0.01111625655845225]",100.0,"[0.07962077334583517,0.07723504400690333]",100.0,"[0.1635659532295203,-0.11172000674167566]",4.0,"[0.04776662893216992,-0.15225786124062604]",4.0,"[0.02,0.02]",192.9576,0.0,23.0,23.0,34.0,1.0,,,,,,,
,,,,,,,682ce4f0aaf6e240215469e7,68399dd73428fd1d0ba673c1,2025-05-30_08h02.15.575,shape_ratio,2024.1.5,Win32,62.89308176,683853e18dae57a2147b65e0,,,,,,,,,,,192.958,193.4571,,,193.7077,193.7907,left,,,,,,,,0.4,,,,,,193.4572,193.7077,0.0671,,193.7907,"[-0.07509970822186154,-0.0035095793131581445]",4.0,"[0.027866443473648677,-0.08202612353383991]",100.0,"[-0.06703888930781877,-0.15950943830337985]",4.0,"[-0.13424830161747195,-0.1303515869098421]",4.0,"[0.07845142684328718,0.09988531449223279]",4.0,"[-0.026177541146271723,-0.10471183906674739]",100.0,"[0.17863951253190175,-0.011259920336448027]",4.0,"[0.1401089181124415,0.020574865271926673]",100.0,"[-0.10799331170075688,-0.07224149746391145]",4.0,"[0.1529512625289973,-0.08878530209748564]",4.0,"[0.026677355998321942,0.08333412761073379]",100.0,"[-0.03063872491405052,-0.03618541555572501]",4.0,"[-0.15219950486366612,0.12588143135703941]",4.0,"[-0.1701411271336788,-0.10305825900012516]",4.0,"[0.11120294185065314,-0.009079985701446722]",100.0,"[-0.10646826053534143,0.04335029156772772]",4.0,"[0.018349248482890525,0.1433820805277058]",100.0,"[-0.09147850556237999,-0.12323097285036881]",4.0,"[0.07883924031367325,-0.11094893809141006]",100.0,"[0.07319937811932441,-0.027546410645928263]",100.0,"[0.13696852886696942,-0.14205162287918258]",4.0,"[-0.18834594135552232,-0.06378321550514468]",100.0,"[-0.01788458906497495,0.08663829665383245]",4.0,"[0.06415114371527553,0.05319119327980923]",4.0,"[-0.005302732254156601,0.046882896712619596]",100.0,"[-0.13454140342461723,-0.034528613155698995]",4.0,"[-0.049963209275706945,0.1525103238987074]",100.0,"[-0.007585332651776045,0.17801124148223374]",4.0,"[-0.15137358722993266,0.04821037798722856]",4.0,"[0.15759339752399187,0.0820353480331228]",4.0,"[0.034421893761074275,-0.17369024937944655]",100.0,"[0.0061000743153722965,-0.004529379673284894]",100.0,"[0.02,0.02]",194.8892,0.0,24.0,24.0,154.0,1.0,,,,,,,
,,,,,,,682ce4f0aaf6e240215469e7,68399dd73428fd1d0ba673c1,2025-05-30_08h02.15.575,shape_ratio,2024.1.5,Win32,62.89308176,683853e18dae57a2147b65e0,,,,,,,,,,,194.8896,195.3882,,,195.6384,195.8376,right,,,,,,,,0.6,,,,,,195.3883,195.6383,0.1882,,195.8377,"[-0.05510548191098227,0.18349755526842587]",4.0,"[-0.04420340134959351,-0.08403788532502295]",4.0,"[-0.1704137863671141,0.016398068538210134]",100.0,"[-0.02458920878740911,-0.04491640324818966]",4.0,"[0.09205890712996485,0.1287058960424306]",4.0,"[-0.08461150944899601,-0.13252653736308825]",100.0,"[0.00019360400516478098,-0.09158209561093796]",100.0,"[0.01492932701250529,0.15208847249724006]",100.0,"[-0.10794124185179022,-0.012457699872813687]",100.0,"[0.10664981737684294,0.011287505688132924]",100.0,"[0.01813737289157766,-0.13456840650224755]",4.0,"[-0.04236916161646985,0.039390182998756136]",100.0,"[-0.07771711929265364,0.1021421509425432]",4.0,"[0.14769939751741581,0.0009747702209219385]",100.0,"[-0.11499155045382314,-0.06439627875084551]",4.0,"[0.05289314740248886,-0.11297826866744463]",4.0,"[0.15911519135271182,0.040482156937151424]",4.0,"[-0.13883166673032857,0.11000132556205591]",100.0,"[-0.154356735070644,-0.11469109281784441]",4.0,"[-0.10951028003529142,0.07107353586438513]",100.0,"[0.16327932136711773,0.08473394676663626]",4.0,"[0.09047454395454592,-0.03506156491469302]",4.0,"[0.08191370494445474,0.059962088877069386]",100.0,"[0.0009053031971163351,0.04399332510298918]",100.0,"[0.1584018382813582,-0.040610725156959675]",100.0,"[0.015225472040712855,0.19283605674501256]",100.0,"[-0.0620850628774751,-0.17110364913117448]",100.0,"[0.15167632640481007,-0.12125752706230274]",4.0,"[-0.08740419522209442,0.0376294215397929]",100.0,"[0.10820517469432278,-0.1272630396441338]",100.0,"[-0.12142999114226179,-0.15028880338022185]",100.0,"[-0.18082267854369966,0.07128647189090276]",100.0,"[0.02,0.02]",196.9355,0.0,25.0,25.0,51.0,1.0,,,,,,,
,,,,,,,682ce4f0aaf6e240215469e7,68399dd73428fd1d0ba673c1,2025-05-30_08h02.15.575,shape_ratio,2024.1.5,Win32,62.89308176,683853e18dae57a2147b65e0,,,,,,,,,,,196.936,197.436,,,197.6862,197.8357,left,,,,,,,,0.5,,,,,,197.436,197.686,0.1357,,197.836,"[-0.1940757611147101,-0.03838369698823758]",100.0,"[0.0443387825410261,0.08466766951813418]",4.0,"[-0.08677728693974777,-0.1559581627421571]",4.0,"[0.07679500655370844,-0.11386512208709022]",4.0,"[0.05369060658684833,0.17678073336526462]",100.0,"[-0.03243317683381917,0.11149519337388314]",4.0,"[-0.001744361780960777,-0.15036363127114544]",100.0,"[0.18990157532235707,-0.02726382136824468]",100.0,"[0.09346645444787931,0.0930451945942316]",100.0,"[-0.07876266180296253,0.13942783082951166]",4.0,"[-0.07500870157673067,-0.07207580267134318]",4.0,"[0.17122740157934266,-0.09339750321145161]",100.0,"[0.17195399970226535,0.016401058755824795]",4.0,"[-0.06891115140778321,0.005900618540529621]",4.0,"[0.12301898341465899,0.0041168346335456315]",4.0,"[0.0549307728227026,-0.15873576898919994]",4.0,"[-0.031952911005878104,0.05535957148014362]",100.0,"[-0.13230900500623255,-0.05966002072407741]",100.0,"[-0.15276828692750657,0.012065946242318316]",4.0,"[-0.007863596072197417,-0.08481595112937644]",4.0,"[0.1869398896269073,0.05464836473906424]",100.0,"[0.10888127155615336,-0.08118252018815017]",4.0,"[0.12026750991776569,0.12754362815383619]",100.0,"[0.15942161801393698,0.10435077239306415]",4.0,"[0.043051508326643326,-0.012676332309688794]",4.0,"[-0.012996170599434725,0.018030230934538975]",100.0,"[-0.005489393549146508,0.1886436814187165]",100.0,"[-0.15507307004621076,0.06377126417925226]",100.0,"[0.0872661105736594,0.05348965285335889]",100.0,"[-0.1033852694930008,-0.01765156083484474]",100.0,"[0.0333754715097672,0.13126518971830903]",100.0,"[-0.1811032874542969,-0.08175316910408445]",4.0,"[0.02,0.02]",198.9337,0.0,26.0,26.0,98.0,1.0,,,,,,,
,,,,,,,682ce4f0aaf6e240215469e7,68399dd73428fd1d0ba673c1,2025-05-30_08h02.15.575,shape_ratio,2024.1.5,Win32,62.89308176,683853e18dae57a2147b65e0,,,,,,,,,,,198.9344,199.4337,,,199.6845,199.7673,right,,,,,,,,0.9,,,,,,199.4338,199.6844,0.0675,,199.7673,"[0.1541360246703241,0.06615918990533369]",100.0,"[0.018284344249717394,0.17193045953416036]",100.0,"[0.0013453391795405715,0.09225115439761783]",100.0,"[-0.08322317571713245,-0.1705486112990385]",100.0,"[0.17826160626328486,0.01313787279068999]",100.0,"[0.12370746568022965,-0.10632059461498035]",100.0,"[0.0811846411112285,-0.059567210211780214]",100.0,"[-0.05303237178337057,-0.11500755444097148]",100.0,"[0.15709162259667622,-0.06952821559927999]",100.0,"[-0.05922363085173534,0.0768274978406836]",100.0,"[0.11054948760211078,0.1610268305963428]",100.0,"[-0.0872004497031935,-0.02014059257697829]",100.0,"[0.03947021607555813,-0.10639645785341452]",4.0,"[-0.12825985356147573,-0.12181332876955499]",100.0,"[0.03869343465446769,0.018337618645391345]",100.0,"[-0.14393717255471505,-0.07361235175957244]",100.0,"[-0.010440562732746505,-0.033425562058066384]",100.0,"[-0.16599926271382906,0.0064602033408933815]",100.0,"[0.0913160510396126,-0.14224630526962345]",100.0,"[-0.12199318859715522,0.1277733540643613]",100.0,"[-0.12090875584577888,0.05921510779824668]",100.0,"[-0.00373474649906004,-0.18491921613850323]",100.0,"[-0.08116211662762779,0.01943710457578656]",100.0,"[-0.05833775713015885,0.17141467371903144]",100.0,"[0.113851276307793,0.07113696366917087]",4.0,"[-0.009885427166368522,-0.09183470334081034]",4.0,"[0.19171281631700954,-0.049120177510662576]",100.0,"[0.028985858369320827,-0.1575711742534879]",100.0,"[-0.18850284379060223,0.05350228886140404]",100.0,"[0.1270560752423349,0.0252498410545618]",100.0,"[0.0769671588717006,-0.011975528469163131]",100.0,"[-0.043476677602603514,0.0025312602532345514]",100.0,"[0.02,0.02]",200.866,0.0,27.0,27.0,11.0,1.0,,,,,,,
,,,,,,,682ce4f0aaf6e240215469e7,68399dd73428fd1d0ba673c1,2025-05-30_08h02.15.575,shape_ratio,2024.1.5,Win32,62.89308176,683853e18dae57a2147b65e0,,,,,,,,,,,200.8666,201.3658,,,201.6078,201.7389,left,,,,,,,,0.1,,,,,,201.3659,201.6071,0.1159,,201.7389,"[-0.15997077610461183,0.01995979315171789]",4.0,"[-0.07883638164711602,-0.10974624788584156]",4.0,"[-0.14982056784401554,-0.05472369855965715]",4.0,"[-0.12869526745028445,0.07579809680725429]",100.0,"[0.05379573509926044,-0.008338361087789188]",4.0,"[-0.06401388208089423,0.11844671180524868]",4.0,"[-0.04084137736767921,0.06591139273475444]",4.0,"[-0.18213969761149884,-0.025376280278853632]",4.0,"[0.03858450524270816,-0.13301888446662408]",4.0,"[-0.11625164865252018,-0.004226374670436857]",4.0,"[0.035769563131530804,-0.0653996695264429]",4.0,"[0.14921782962868305,-0.060308143654641246]",4.0,"[0.1106046705304232,-0.10411340893410466]",4.0,"[-0.006340569589100522,-0.17030909336016045]",4.0,"[0.05668992308542404,0.17651728750267587]",4.0,"[-0.02530407275909245,-0.058503720045528125]",4.0,"[-0.0155135476338119,-0.119467916087136]",4.0,"[-0.0938728394523967,-0.17389164146123295]",4.0,"[0.013908752162044935,0.1561383102240799]",4.0,"[0.1127481476585167,-0.007039477183356402]",4.0,"[0.05097347339714487,0.06123407288983097]",4.0,"[-0.060021971162242324,0.18177664352071604]",4.0,"[0.10442816469329566,0.04931974478213306]",4.0,"[-0.1450450097359021,0.12317126100798594]",4.0,"[0.19379991700694943,-0.039030289804487105]",4.0,"[0.04816659224517598,0.11522123208040565]",4.0,"[0.16944336278951158,0.05185694257646489]",100.0,"[-0.0029535267752776725,0.08741532320322545]",4.0,"[-0.08010440600420428,0.018509411614270666]",4.0,"[-0.06500080267408793,-0.07068953688078594]",4.0,"[-0.12209147439236893,-0.09916776408191609]",100.0,"[-0.1823993695144303,0.05648826617752318]",4.0,"[0.02,0.02]",202.8386,0.0,28.0,28.0,203.0,1.0,,,,,,,
,,,,,,,682ce4f0aaf6e240215469e7,68399dd73428fd1d0ba673c1,2025-05-30_08h02.15.575,shape_ratio,2024.1.5,Win32,62.89308176,683853e18dae57a2147b65e0,,,,,,,,,,,202.8391,203.3385,,,203.5804,203.6484,right,,,,,,,,0.4,,,,,,203.3385,203.5803,0.0507,,203.6484,"[-0.0352804277853458,0.19299308019540276]",100.0,"[-0.060374363140380735,-0.14158670926651667]",4.0,"[-0.08337282709059125,0.025703334982322204]",4.0,"[0.002213224332691154,0.13388678878691013]",4.0,"[-0.06965529282815015,-0.024550661135923718]",4.0,"[0.03511533961377677,-0.15744220622104987]",100.0,"[0.10535823843393995,0.11116340282034064]",100.0,"[0.05577506313717912,0.1884789041328095]",4.0,"[-0.1544154471259382,-0.07706925182040307]",4.0,"[-0.14953628935532767,0.0014206280832142675]",4.0,"[0.025564008134893314,-0.007759889990402108]",100.0,"[0.04731827403280875,0.0706152700187171]",100.0,"[-0.14434095551622084,0.09167016819106694]",4.0,"[-0.12082130082997002,-0.1359495703389385]",4.0,"[0.0008774377679206473,-0.05051507131661473]",4.0,"[0.094309229905594,-0.11120156754085128]",100.0,"[-0.059453128683640395,-0.09946592365519881]",4.0,"[0.13517231859020243,-0.0013594622144096145]",100.0,"[-0.03333815114882634,0.05994410441955108]",100.0,"[-0.03893872651307499,0.14271732267400936]",4.0,"[0.017292914174997887,-0.19441715375714508]",4.0,"[-0.07761415635768092,0.18196067112270456]",4.0,"[0.07425308841377459,-0.1757094557161097]",4.0,"[0.00015250138514008894,-0.0947116414161064]",100.0,"[-0.18890244659400174,0.030713228043412543]",100.0,"[-0.08827465508405574,0.0791292767544111]",4.0,"[-0.007589168420804933,0.020786838551904458]",100.0,"[0.18246109806384664,-0.07905649761945571]",100.0,"[0.06620227803556686,0.1403314423423687]",4.0,"[0.052959642087487706,-0.11945682702922139]",4.0,"[0.10515420610227424,0.06518116710585302]",100.0,"[0.09286101606780427,-0.017349142389085425]",4.0,"[0.02,0.02]",204.7456,0.0,29.0,29.0,171.0,1.0,,,,,,,
,,,,,,,682ce4f0aaf6e240215469e7,68399dd73428fd1d0ba673c1,2025-05-30_08h02.15.575,shape_ratio,2024.1.5,Win32,62.89308176,683853e18dae57a2147b65e0,,,,,,,,,,,204.7461,205.245,,,205.4865,205.6204,left,,,,,,,,0.9,,,,,,205.2451,205.4865,0.1176,,205.6205,"[-0.13438976123789007,-0.08234933059018158]",100.0,"[0.11518304506017464,-0.018485652343387782]",4.0,"[-0.15793440658212732,0.081475959366553]",100.0,"[0.09908371773996906,-0.16491279613662274]",100.0,"[-0.08600856580122526,-0.11417964214127475]",100.0,"[-0.17127915026397036,-0.04348500187035693]",100.0,"[0.021625660563364676,-0.003651331538066394]",100.0,"[-0.09758474759829054,0.16640772206643478]",4.0,"[-0.005034889574967579,0.09217020286917486]",100.0,"[0.08334487349601218,0.08759843252620213]",100.0,"[0.178421435843641,0.03472591083768419]",100.0,"[-0.028099244607885262,0.020511426867132948]",100.0,"[-0.0013748839186272265,-0.15848442146873196]",100.0,"[-0.007549255577319463,0.14249339775511585]",100.0,"[0.03813976886652605,0.03573010710544282]",100.0,"[-0.12009687215562347,-0.03355605907709686]",100.0,"[-0.10086093961784132,0.010571213948526382]",100.0,"[-0.10793794874404056,0.07468266750601539]",100.0,"[0.039400190178503755,0.15322938185886117]",100.0,"[-0.1454008672698908,0.12662429208961182]",100.0,"[0.08271814805788338,-0.07623659043259172]",100.0,"[-0.046410214590311756,0.1903521008097846]",4.0,"[0.004899308277986265,0.1828020216584613]",100.0,"[0.0358689274577012,0.1088796257748777]",100.0,"[-0.13077529706636135,-0.13193451329473146]",100.0,"[0.1448195572697258,-0.08513168383356856]",100.0,"[0.17710639143780307,-0.0558624162477847]",100.0,"[-0.14749301896722003,0.019005567965513337]",100.0,"[-0.041267701938500656,-0.05173233560005688]",100.0,"[0.1320503444765084,0.10352643312034446]",100.0,"[0.1249193268391066,0.044104333140035284]",100.0,"[0.07827282339910319,0.00037874031754900805]",100.0,"[0.02,0.02]",206.7144,0.0,30.0,30.0,6.0,1.0,,,,,,,
,,,,,,,682ce4f0aaf6e240215469e7,68399dd73428fd1d0ba673c1,2025-05-30_08h02.15.575,shape_ratio,2024.1.5,Win32,62.89308176,683853e18dae57a2147b65e0,,,,,,,,,,,206.7154,207.2158,,,207.4685,207.7166,right,,,,,,,,0.4,,,,,,207.216,207.4684,0.2324,,207.7167,"[-0.10290359651586807,0.05372331926673979]",100.0,"[0.15022882805540663,-0.11082707237891234]",4.0,"[0.033104229790667836,-0.19536295688867397]",100.0,"[-0.004130096898008314,-0.15690210247900538]",4.0,"[-0.07214195795864473,0.16094198990396028]",100.0,"[-0.026119521671013977,0.15554763337970934]",4.0,"[0.10262891471656631,0.12061409398170542]",4.0,"[0.0531454742555901,-0.13675884443560618]",4.0,"[0.1775048990468698,-0.007709841444551263]",100.0,"[0.10883583929572396,-0.02175440136630083]",100.0,"[-0.0802808958781835,-0.1178512918537477]",100.0,"[0.04250403466986359,0.03437975315721645]",4.0,"[-0.0227660631090496,-0.054223586329168225]",4.0,"[-0.05101656890585866,-0.004130887733945455]",4.0,"[0.1173909051120286,-0.1496941097995367]",4.0,"[0.02105438033652046,0.18386444084595577]",100.0,"[-0.15064834601533425,0.01921004617553126]",4.0,"[-0.07411114957901783,-0.17745558646440146]",4.0,"[-0.12099188335765343,-0.1249253084595745]",100.0,"[-0.16827460729982355,-0.09185973025988252]",4.0,"[0.1433418499901174,0.12163295315027997]",4.0,"[-0.09388736452696783,-0.04029600576687875]",4.0,"[-0.14250626202832983,-0.04271445871049285]",4.0,"[-0.1648381916839484,0.08297980833482549]",4.0,"[0.03191589873598957,-0.07397096613263435]",4.0,"[0.05796907636833978,0.09561762587185489]",4.0,"[0.06082161047856337,-0.013015555405242444]",100.0,"[0.12204828661131917,0.017826622819056975]",4.0,"[-0.1490766161353185,0.12532052077841355]",100.0,"[0.14496452769325688,0.05959115332860157]",100.0,"[-0.04949890705110807,-0.08502714753633525]",100.0,"[0.10439063512388876,0.16410892359798174]",100.0,"[0.02,0.02]",208.8144,0.0,31.0,31.0,158.0,1.0,,,,,,,
,,,,,,,682ce4f0aaf6e240215469e7,68399dd73428fd1d0ba673c1,2025-05-30_08h02.15.575,shape_ratio,2024.1.5,Win32,62.89308176,683853e18dae57a2147b65e0,,,,,,,,,,,208.8147,209.314,,,209.5662,209.8158,left,,,,,,,,0.45,,,,,,209.314,209.5662,0.2339,,209.816,"[0.08768269654131743,0.1605998465758784]",4.0,"[-0.09324979421049424,0.08672029022403939]",100.0,"[-0.01704480234731937,0.02633139526049274]",100.0,"[0.10497736448722313,-0.03784931277943085]",100.0,"[-0.15456326498224593,0.08887230272279335]",4.0,"[-0.0871374376862494,0.010537849703371903]",100.0,"[-0.029568952509710787,-0.13671586219882448]",4.0,"[0.10199420965867934,0.09088605772082932]",4.0,"[0.16575725027082722,-0.10282374794196465]",100.0,"[0.17263683612757796,0.08480155731205716]",4.0,"[-0.11372183097962196,-0.158207766282363]",100.0,"[0.015335476452709648,0.0025819986823686666]",4.0,"[-0.15015082816101502,-0.05483629517823962]",4.0,"[-0.022307229945245078,0.06674010926548474]",100.0,"[0.05879964264599081,-0.057611876615109164]",4.0,"[-0.07568417998346193,-0.050895275698554544]",4.0,"[0.02321590705617733,-0.19648373544552045]",4.0,"[0.1005326059581375,-0.14403270951026595]",4.0,"[-0.0850982228998825,0.14371579344605587]",100.0,"[0.15149806379834102,0.03355972505118412]",4.0,"[-0.13353556203290076,0.035070655263218564]",100.0,"[0.02462182753214548,0.17083716999045304]",4.0,"[0.07244740440264254,-0.18192237523457114]",100.0,"[0.037341125451542584,0.07488401399462057]",100.0,"[0.07090229515914177,-0.11655071426732948]",4.0,"[-0.17822456672934398,-0.014661305149317948]",4.0,"[0.0906080466044509,0.0028217716412789594]",4.0,"[0.0008504140004961059,-0.08319674964296622]",4.0,"[-0.11662111674449112,-0.025070656613116787]",4.0,"[-0.045563666374614085,0.10367583366813364]",100.0,"[0.18108026685090112,-0.026533237531973786]",100.0,"[-0.1531910323259895,-0.11009525083897424]",100.0,"[0.02,0.02]",210.9104,0.0,32.0,32.0,129.0,1.0,,,,,,,
,,,,,,,682ce4f0aaf6e240215469e7,68399dd73428fd1d0ba673c1,2025-05-30_08h02.15.575,shape_ratio,2024.1.5,Win32,62.89308176,683853e18dae57a2147b65e0,,,,,,,,,,,210.9108,211.4127,,,211.6559,211.8222,right,,,,,,,,0.55,,,,,,211.4128,211.6559,0.1567,,211.8222,"[0.07569213164269453,0.14902758045753814]",100.0,"[-0.001653596118429689,0.18746067976208522]",100.0,"[-0.18497033825874964,0.016927405110351765]",100.0,"[-0.11427618949309917,0.163725102672276]",100.0,"[0.12715219939479355,-0.14754847406454494]",4.0,"[-0.035659853545174855,-0.029029871840925196]",4.0,"[-0.08595056106989503,-0.0756485223973911]",4.0,"[0.09467267552929706,0.08898926601865424]",100.0,"[0.024463372481791007,-0.13325383335008079]",4.0,"[-0.03247868709134808,0.043031757474316215]",4.0,"[0.11816866013112189,0.1527104167308492]",4.0,"[0.1529968719184859,-0.04749830023961926]",100.0,"[-0.0813881290751128,0.10415403206268808]",100.0,"[0.16914289461445778,0.09708997847823228]",4.0,"[-0.03101038294663427,-0.09473319407583589]",4.0,"[0.07984428175701008,-0.08209024179421213]",4.0,"[0.026293263050993526,-0.18554293040256578]",100.0,"[0.038469546971835834,-0.06365148504193827]",100.0,"[0.05239188765090289,0.07473206099183059]",100.0,"[-0.07014953737897164,-0.11750979259389323]",4.0,"[-0.10611416413337622,0.045116074039095934]",4.0,"[-0.12197943577900851,0.09802619777516823]",100.0,"[-0.12422257717633518,-0.0238071810291249]",4.0,"[0.009296513410153947,0.05155589855716465]",100.0,"[-0.0065132757084388725,0.1394991900751816]",100.0,"[0.1863636359198845,-0.022519649695226848]",100.0,"[0.023754022027491162,0.002941886103379198]",4.0,"[-0.01617757393186143,0.08641703597162775]",4.0,"[0.08255400666931306,-0.03402742591935696]",100.0,"[-0.07070574538890802,0.16347907337328002]",100.0,"[0.06812904519191319,-0.14243169764929656]",100.0,"[-0.0321714123623577,-0.14923889122386239]",100.0,"[0.02,0.02]",212.9211,0.0,33.0,33.0,83.0,1.0,,,,,,,
,,,,,,,682ce4f0aaf6e240215469e7,68399dd73428fd1d0ba673c1,2025-05-30_08h02.15.575,shape_ratio,2024.1.5,Win32,62.89308176,683853e18dae57a2147b65e0,,,,,,,,,,,212.9215,213.4197,,,213.6709,213.7549,left,,,,,,,,0.9,,,,,,213.4198,213.6704,0.0676,,213.7551,"[0.03498511047740116,-0.08380069089003962]",100.0,"[-0.05401309477993036,0.14494083159717952]",100.0,"[0.07092993119139476,0.07877342692437665]",100.0,"[-0.049159055011902195,-0.17900399029571742]",4.0,"[0.04035112246378057,0.16462177442621617]",100.0,"[-0.0014083200370087557,0.054355885990648306]",100.0,"[0.18316271153856245,-0.0020186607893502304]",4.0,"[0.12661278442138174,-0.14250962143751286]",100.0,"[0.0046899129532288674,-0.14583042251915385]",100.0,"[0.10235667178324359,-0.07249772464254897]",100.0,"[0.09352208907515346,-0.16738004156002914]",100.0,"[-0.06611231696443513,0.02662631822082803]",100.0,"[-0.14809475665676347,0.07146233772377492]",100.0,"[0.011893352939840859,0.13593808525863996]",100.0,"[-0.009281633008076306,-0.04688275989124599]",100.0,"[-0.09674441616312614,-0.15877126549424733]",100.0,"[-0.1464415299073185,-0.04422447666728979]",100.0,"[-0.18254143781692794,0.0019289243430816727]",100.0,"[-0.019630390257881238,-0.10366386218493663]",100.0,"[-0.1026777912417594,-0.00765223097717895]",100.0,"[0.011557308022986221,-0.19003747530660456]",100.0,"[0.02962752809825383,0.09606291489041102]",100.0,"[-0.07676065480839797,-0.0657744317446634]",100.0,"[0.11292389181738945,0.12875904898424506]",100.0,"[-0.031921436030853755,-0.010308107866825423]",4.0,"[0.1296447298651211,-0.002126018123763874]",100.0,"[-0.02733929132557852,0.10382776524074024]",100.0,"[0.11533700122647841,0.035244433416836994]",100.0,"[-0.12005343133227249,-0.09909196449387614]",100.0,"[0.07462304250313308,0.017027471048923156]",100.0,"[-0.16457331662424077,-0.09154276915409464]",100.0,"[0.15271391671363413,0.10523765672254311]",100.0,"[0.02,0.02]",214.852,0.0,34.0,34.0,24.0,1.0,,,,,,,
,,,,,,,682ce4f0aaf6e240215469e7,68399dd73428fd1d0ba673c1,2025-05-30_08h02.15.575,shape_ratio,2024.1.5,Win32,62.89308176,683853e18dae57a2147b65e0,,,,,,,,,,,214.8526,215.3516,,,215.6021,215.6688,right,,,,,,,,0.9,,,,,,215.3517,215.6021,0.05,,215.6689,"[-0.025109552667808354,-0.1390527014408518]",100.0,"[-0.1581001529000135,0.08860655660115702]",100.0,"[0.04791146226629409,-0.09948828425466338]",4.0,"[-0.036438909006996645,-0.06209728720812067]",100.0,"[0.0581579930345874,0.004199196585418662]",100.0,"[-0.15614925211278638,0.02350304394002925]",100.0,"[0.06258285116113485,-0.056705935510109974]",100.0,"[0.08458760659206102,0.0860711894162591]",100.0,"[0.030850919319359262,0.07701901933556525]",100.0,"[-0.11050698056880448,-0.08453745834187278]",4.0,"[0.10445666758754694,-0.1177344811140237]",100.0,"[0.024016613411231007,0.12827303145455551]",100.0,"[-0.18741472091443598,-0.024915244793681072]",100.0,"[-0.03049448470834429,0.17843827340835033]",100.0,"[-0.08998685579624292,0.060272140098943175]",100.0,"[-0.03612481848905984,0.01040661155446416]",100.0,"[0.16768566828685738,0.06825449942492429]",100.0,"[-0.09980264116846004,0.0008737891894262054]",100.0,"[-0.1153775723005068,0.1479128623625513]",4.0,"[0.0028637011833923458,-0.0930703396684312]",100.0,"[0.0961419063880125,0.027014975219712627]",100.0,"[-0.04761988444462383,0.11139693480052403]",100.0,"[0.07148118330672858,0.1822899504234048]",100.0,"[0.16654344856700284,0.023198715076420986]",100.0,"[0.11808940044801984,0.11946550268451347]",100.0,"[0.05601590717780551,-0.16154117342818078]",100.0,"[-0.0921828722980224,-0.1320151551872663]",100.0,"[0.11075737251541745,-0.16539283993661635]",100.0,"[0.01421569420801655,-0.047034778759413934]",100.0,"[0.10647847032643751,-0.05478154269828659]",100.0,"[-0.020255260243527192,0.06258260939392919]",100.0,"[-0.19019325449068392,0.04906957661909382]",100.0,"[0.02,0.02]",216.7675,0.0,35.0,35.0,14.0,1.0,,,,,,,
,,,,,,,682ce4f0aaf6e240215469e7,68399dd73428fd1d0ba673c1,2025-05-30_08h02.15.575,shape_ratio,2024.1.5,Win32,62.89308176,683853e18dae57a2147b65e0,,,,,,,,,,,216.768,217.2673,,,217.5163,217.667,right,,,,,,,,0.45,,,,,,217.2673,217.5163,0.1343,,217.667,"[0.06405501195700536,0.058352588882886684]",4.0,"[-0.009511482769499069,-0.16071244799594797]",100.0,"[0.1447454215500325,0.05878864260950064]",100.0,"[-0.0911748771589152,0.10360341368961923]",4.0,"[0.06817904937205088,-0.04034536080834505]",100.0,"[-0.15238134195264574,-0.07099317650029258]",4.0,"[-0.13027452186175,0.08727839798752328]",4.0,"[0.00043624728214322026,0.09314970188366671]",4.0,"[-0.01697753752897175,0.02657389566064945]",4.0,"[-0.07000435408410877,-0.10460153456121069]",4.0,"[0.010174373085565128,0.14143559386116528]",100.0,"[0.10316172135428348,-0.01862245601016856]",4.0,"[-0.11289835827474466,-0.11749830424629372]",100.0,"[0.05459470959051174,0.14331642103537592]",4.0,"[-0.13867944320766784,0.03778709729936878]",100.0,"[0.1524673049128979,-0.029045007426731745]",4.0,"[-0.063598466065806,0.037829826426134625]",4.0,"[0.06877078506715598,-0.1807026425269607]",4.0,"[-0.08214816850819626,0.17221978262910356]",100.0,"[0.13171980165204944,-0.07549565655673704]",4.0,"[0.13794719971312397,0.13610566562065085]",100.0,"[-0.053372042623150366,0.12456159274524854]",4.0,"[-0.0532377994016081,-0.15977234727193548]",100.0,"[0.09617915726505444,0.15075171084924777]",4.0,"[-0.17889620725850194,0.02571454873727927]",100.0,"[-0.011566081763477034,-0.022497907305340206]",100.0,"[0.11177615800949943,-0.13093274880165479]",4.0,"[-0.11642987259438278,-0.16113123241869243]",100.0,"[-0.007650844529997878,-0.08691102351947733]",100.0,"[0.11201035411573952,0.02791885778216532]",4.0,"[0.17387947863193637,0.012453077389862423]",4.0,"[-0.01320917374763639,0.1836471698236315]",100.0,"[0.02,0.02]",218.7648,0.0,36.0,36.0,138.0,1.0,,,,,,,
,,,,,,,682ce4f0aaf6e240215469e7,68399dd73428fd1d0ba673c1,2025-05-30_08h02.15.575,shape_ratio,2024.1.5,Win32,62.89308176,683853e18dae57a2147b65e0,,,,,,,,,,,218.7653,219.2653,,,219.515,219.6322,left,,,,,,,,0.1,,,,,,219.2654,219.515,0.1006,,219.6324,"[-0.11408006080612379,0.09400939866204454]",4.0,"[-0.03576191137154683,-0.05735960979564621]",4.0,"[-0.11536979844385928,-0.052011308952547436]",4.0,"[0.051645043371293206,-0.083910481470285]",4.0,"[0.08365233329689653,-0.031321489835190654]",4.0,"[0.0833647116544361,0.06724560126702511]",4.0,"[0.05281668297010621,0.15811995887469715]",4.0,"[-0.07746969913987853,0.1488088209105142]",4.0,"[0.19304098744380066,-0.029167954145889623]",4.0,"[0.09573269366679889,0.007123489619275305]",4.0,"[-0.06825685610239474,-0.15849241951368764]",4.0,"[0.004053901276384202,0.09198300381288768]",4.0,"[-0.12692841746739203,-0.09709003742026369]",4.0,"[-0.06211929263037556,0.07129408866316861]",4.0,"[0.1364403634701511,0.06124220596411176]",4.0,"[0.10561133027593936,0.12438210214242927]",100.0,"[0.13843672111373465,0.00043652273282224446]",4.0,"[-0.039422992165092416,0.13475773991418882]",4.0,"[0.047954458187467804,-0.1355159549179953]",4.0,"[0.024485794965984388,-0.03215892799696429]",4.0,"[0.037755120225916844,0.05419323502890763]",4.0,"[-0.025182114996454612,-0.17673190466388025]",4.0,"[-0.10895850575468115,0.004495006915620918]",4.0,"[-0.12983611949644716,0.15189124616235597]",100.0,"[0.13747345892120347,-0.06125027202586274]",4.0,"[-0.016651969845837448,0.014331768686813514]",4.0,"[-0.016427299384701454,-0.13148993331015763]",4.0,"[0.041744145554177645,-0.18439719392111562]",4.0,"[-0.0025636873766150224,0.19308366136620067]",4.0,"[-0.16840302142330374,-0.025345098827092963]",4.0,"[-0.1578857882460457,0.03027363988848575]",100.0,"[0.1816252747523911,0.025131029059279403]",4.0,"[0.02,0.02]",220.7292,0.0,37.0,37.0,181.0,1.0,,,,,,,
,,,,,,,682ce4f0aaf6e240215469e7,68399dd73428fd1d0ba673c1,2025-05-30_08h02.15.575,shape_ratio,2024.1.5,Win32,62.89308176,683853e18dae57a2147b65e0,,,,,,,,,,,220.7296,221.2287,,,221.4708,221.5377,right,,,,,,,,0.5,,,,,,221.2288,221.4708,0.0507,,221.5377,"[-0.10156000787120228,0.10493987951923531]",4.0,"[0.02123529847938226,-0.15628989281896863]",100.0,"[-0.15147332104697234,-0.06628695397208008]",4.0,"[0.0359519836057762,0.13995342320041623]",100.0,"[-0.1308146822895432,-0.11830405961812147]",100.0,"[0.06730179556639897,0.10749437342138568]",100.0,"[-0.1530163406659374,0.032126533546011526]",4.0,"[-0.013875076616601052,0.18685060763433078]",4.0,"[-0.05305469700004302,-0.05541465142526151]",100.0,"[-0.05080955330082769,-0.17041903047643286]",100.0,"[0.07121251525982078,-0.09643283328015467]",4.0,"[0.1519440376650052,-0.03361100401565997]",100.0,"[-0.13009020831898047,0.07452453589071036]",4.0,"[-0.10020017585247785,-0.1506231434480842]",4.0,"[0.12130862028149153,0.012001615493004424]",4.0,"[-0.040147185658128776,0.0243747831751422]",4.0,"[-0.01591629880678854,-0.11071306261729948]",4.0,"[0.15395280219035634,-0.09167434936286153]",100.0,"[0.11760270326735381,0.11772902893744343]",100.0,"[-0.05853706213589714,0.09773893215455545]",4.0,"[-0.061630390165228845,-0.010621800428606758]",100.0,"[0.05039540976469479,0.054596492719422185]",100.0,"[0.1900380453162736,-0.054310312055675714]",100.0,"[0.030723568118963457,-0.0459318800235774]",100.0,"[-0.08679727861959195,0.17054047692300286]",4.0,"[0.02978709504030851,0.18377047119854198]",4.0,"[0.17290057989790955,0.019126191009481496]",4.0,"[-0.02301142255305791,0.13264860134194095]",4.0,"[0.10757544343894135,-0.0672442251171646]",100.0,"[0.09150224468539384,-0.13267493477605766]",4.0,"[-0.08982420125915819,0.059806139523247585]",100.0,"[0.1731623076356403,0.09031524561309996]",100.0,"[0.02,0.02]",222.6359,0.0,38.0,38.0,100.0,1.0,,,,,,,
,,,,,,,682ce4f0aaf6e240215469e7,68399dd73428fd1d0ba673c1,2025-05-30_08h02.15.575,shape_ratio,2024.1.5,Win32,62.89308176,683853e18dae57a2147b65e0,,,,,,,,,,,222.6365,223.1336,,,223.3774,223.5778,left,,,,,,,,0.6,,,,,,223.1337,223.3773,0.1839,,223.5778,"[-0.10551720881911514,0.09513973026641445]",100.0,"[0.10109567079008602,0.07112385830180519]",100.0,"[0.19023114674006128,0.05192774508657349]",4.0,"[0.03891667568488962,0.12966610384156652]",100.0,"[-0.1076155806209514,-0.14326806057666203]",4.0,"[0.15659118444878864,-0.11749936815143813]",100.0,"[-0.06337831089943177,0.1578774571817974]",100.0,"[0.14917683405460921,0.005639379515492985]",100.0,"[-0.059743327095047885,-0.07887102734515179]",100.0,"[0.00930355110792018,0.018858466056438098]",4.0,"[0.04208288898620651,0.18133011452360825]",100.0,"[0.013738316679686339,-0.1022755112842549]",4.0,"[0.01614100323129321,0.0680237813239661]",100.0,"[-0.12791168300177091,0.13630378022191109]",100.0,"[-0.0013179995374177028,-0.18857777253038846]",4.0,"[-0.1631929740910686,-0.02322329446171379]",100.0,"[-0.06198377990285976,0.011064958234580792]",100.0,"[0.09487878161883613,-0.11830820399474389]",4.0,"[-0.06585550103711921,-0.18720597745359194]",4.0,"[0.06705192967251714,-0.03181626339434439]",100.0,"[0.10122284825085132,-0.06270782273634187]",4.0,"[0.06292383716459589,-0.15021818679769153]",4.0,"[-0.177559919093071,0.060839290454074234]",4.0,"[0.1636513793580373,0.09433421320651192]",100.0,"[-0.11076441000226206,0.01593386756606765]",4.0,"[0.0607871473056291,0.06936664568618359]",100.0,"[-0.14043035713686847,-0.08744047109174939]",100.0,"[0.12633772901648382,0.15010138142992527]",100.0,"[-0.0020142477558772022,-0.046910946153191364]",100.0,"[0.03982202884927843,-0.06517792646558938]",4.0,"[-0.1870138632192825,0.01438713409421432]",4.0,"[-0.06807875060041402,-0.029625020932259775]",100.0,"[0.02,0.02]",224.676,0.0,39.0,39.0,47.0,1.0,,,,,,,
,,,,,,,682ce4f0aaf6e240215469e7,68399dd73428fd1d0ba673c1,2025-05-30_08h02.15.575,shape_ratio,2024.1.5,Win32,62.89308176,683853e18dae57a2147b65e0,,,,,,,,,,,224.6764,225.1751,,,225.4173,225.5169,right,,,,,,,,0.4,,,,,,225.1752,225.4171,0.0835,,225.5169,"[-0.06342494649410524,-0.033852070042421294]",4.0,"[0.012803454662646784,-0.0036938174385485784]",100.0,"[0.05266543331944322,0.1724672832445079]",4.0,"[-0.11203786357241083,0.06430003143991621]",4.0,"[0.0778989477346316,-0.11929813310246494]",4.0,"[0.1671316514100423,-0.03802401074968279]",100.0,"[-0.015807138171707286,0.11936359750149989]",4.0,"[0.07168788586914199,0.08242023656310474]",4.0,"[-0.18532113935894265,0.06458529010059724]",4.0,"[-0.047143338572245536,0.16712394885769666]",100.0,"[-0.05777847306291719,-0.12518477706546718]",100.0,"[0.1700635760910417,0.0226103340696919]",100.0,"[-0.0732314887008295,0.018025851239560756]",4.0,"[0.050432720717202645,-0.020533953223362107]",4.0,"[-0.05540514851103513,0.10165335370818386]",4.0,"[-0.09687233881087323,0.12222493320299395]",4.0,"[0.14630621624093493,0.08545649756863578]",4.0,"[-0.0700959537549271,-0.1799207109304971]",100.0,"[0.016564887217245205,0.14564223974165122]",100.0,"[-0.10373538737254748,-0.12601905434268498]",4.0,"[-0.1691174681374987,0.005847820241020854]",100.0,"[-0.13681493458881083,-0.09377858799247717]",100.0,"[0.039059183093052764,-0.17717944566301916]",100.0,"[-0.14951590327391484,0.1049433794554026]",4.0,"[-0.13556306754252428,-0.04797230888087467]",100.0,"[0.09003965133133186,0.15255959985227086]",4.0,"[0.11186624742633727,-0.06818737175688944]",4.0,"[-0.0011288667938997472,-0.14440252757528801]",4.0,"[0.034678124307761356,-0.08777439179789663]",100.0,"[0.11326123325315136,-0.0035370078569567404]",100.0,"[0.00011703995111743625,-0.0422295697416585]",4.0,"[-0.034112767243541106,0.05890620097677056]",4.0,"[0.02,0.02]",226.6162,0.0,40.0,40.0,159.0,1.0,,,,,,,
,,,,,,,682ce4f0aaf6e240215469e7,68399dd73428fd1d0ba673c1,2025-05-30_08h02.15.575,shape_ratio,2024.1.5,Win32,62.89308176,683853e18dae57a2147b65e0,,,,,,,,,,,226.6173,227.1128,,,227.3669,227.4281,left,,,,,,,,0.55,,,,,,227.1128,227.3669,0.0468,,227.4287,"[0.09475194819111575,-0.014808430071230222]",100.0,"[0.06913861260271086,0.07087261810454491]",100.0,"[0.15218024473249694,-0.03009670757697225]",100.0,"[-0.09035886729769736,-0.023436118524262552]",100.0,"[-0.1358460364956852,-0.07597870604034043]",4.0,"[0.06752058966280135,0.01814517381980881]",100.0,"[-0.10522449336541746,0.15292994328436652]",4.0,"[-0.15205262811189038,0.07749107196655446]",100.0,"[0.08653594156609161,-0.09465522989990252]",100.0,"[0.010237180412529833,0.11372624299906922]",100.0,"[-0.006354052114689592,0.03098600451920726]",100.0,"[-0.023844658404847303,-0.05029311424953552]",4.0,"[0.19475521798893253,-0.030447982210932388]",100.0,"[-0.18025273699014727,0.0011892611278918489]",4.0,"[-0.039192392396027724,0.14651267648340852]",4.0,"[0.027244834341013963,-0.10658294959412684]",100.0,"[-0.04611210739673928,0.10149951009012606]",100.0,"[0.05410310528612709,-0.0337732538612269]",100.0,"[0.053590710612512964,0.12004090518898936]",4.0,"[0.06518307527640635,-0.18126950323508623]",4.0,"[-0.024398648875299172,0.19006836295305485]",4.0,"[-0.17970231913250378,-0.08690430747839707]",4.0,"[-0.0655804173426893,0.04642740871917724]",100.0,"[0.15281984925251874,0.08998344899306]",4.0,"[0.06781676155580116,0.18752184678970207]",100.0,"[0.010183733833693894,-0.16386682597555466]",4.0,"[-0.07516230954765545,-0.0902778972367202]",4.0,"[-0.06785615092338564,-0.13379252820184204]",4.0,"[0.13881347605062425,-0.07617969522720894]",100.0,"[-0.13138022838346197,-0.03401726328525146]",100.0,"[-0.0933790666448104,-0.17311859507025432]",4.0,"[-0.029296553240006455,-0.0100443174757478]",100.0,"[0.02,0.02]",228.5264,0.0,41.0,41.0,79.0,1.0,,,,,,,
,,,,,,,682ce4f0aaf6e240215469e7,68399dd73428fd1d0ba673c1,2025-05-30_08h02.15.575,shape_ratio,2024.1.5,Win32,62.89308176,683853e18dae57a2147b65e0,,,,,,,,,,,228.5268,229.0278,,,229.28,229.3435,right,,,,,,,,0.1,,,,,,229.0278,229.2798,0.0468,,229.3435,"[-0.09805531880501028,-0.04750837072943865]",4.0,"[-0.025578737119981265,0.11046048202757422]",4.0,"[0.013363440718563666,-0.1528006296361687]",4.0,"[0.19514490485997654,-0.0037436590503819012]",4.0,"[0.07970436164731023,-0.13384233442877205]",4.0,"[-0.040170743633661105,-0.10711851426298617]",4.0,"[0.14397527911500088,0.04989553680650911]",4.0,"[-0.18647566516032946,0.020592516885313585]",100.0,"[-0.16143834093581708,0.07170559215362117]",4.0,"[-0.15754999605300787,-0.022901180501203877]",4.0,"[0.1624205418389204,-0.0547367832788505]",100.0,"[0.05104519585226596,0.1082792629926421]",4.0,"[0.10992118207397676,0.1391136397554836]",4.0,"[0.010582791217320038,0.13555517228463465]",4.0,"[-0.0018828020094930592,0.0012347623954238086]",4.0,"[-0.1367411898331235,-0.057892410725902864]",4.0,"[0.034760829576314434,-0.06328912965791787]",4.0,"[-0.014015174008010759,-0.19184107094001884]",100.0,"[0.14861362507288722,0.1070493945648167]",4.0,"[0.09392317890680144,0.04091342379231109]",4.0,"[-0.036221093845915604,-0.03560415535876677]",4.0,"[0.1527001411952215,0.010803625988052326]",4.0,"[-0.1158309526459887,0.1254988115672596]",4.0,"[0.10147313199227893,-0.0662294788629429]",4.0,"[0.008936151175965676,0.04557565450128947]",4.0,"[-0.08769327737357331,0.04162824310268804]",4.0,"[-0.030006297895200585,0.03240953878672762]",4.0,"[-0.04286124192541643,0.1585072451942828]",4.0,"[0.10953831218922207,-0.1672251939035]",4.0,"[0.15093672610048167,-0.10341436931187926]",4.0,"[0.06734477819784394,-0.17977634725615108]",4.0,"[0.18653481948180675,0.03910671373401986]",4.0,"[0.02,0.02]",230.4448,0.0,42.0,42.0,182.0,1.0,,,,,,,
,,,,,,,682ce4f0aaf6e240215469e7,68399dd73428fd1d0ba673c1,2025-05-30_08h02.15.575,shape_ratio,2024.1.5,Win32,62.89308176,683853e18dae57a2147b65e0,,,,,,,,,,,230.4453,230.9416,,,231.1859,231.3708,left,,,,,,,,0.5,,,,,,230.9416,231.1858,0.1672,,231.371,"[-0.06706566773114632,-0.13702965805027512]",4.0,"[0.04919933531669341,0.1545811649403851]",4.0,"[-0.1899329554478884,-0.01007226665863437]",100.0,"[0.1549672911132657,-0.00252041538333931]",4.0,"[-0.11625131632691403,0.15448684103392155]",4.0,"[-0.018086923023341687,-0.19185218142203678]",100.0,"[-0.0787153742557322,0.0376888549181421]",100.0,"[0.12128529123995352,0.14603334834159132]",100.0,"[0.011308543865675412,-0.06190958836040121]",4.0,"[0.058249824812915886,-0.13844253368231743]",4.0,"[-0.16153540960176818,-0.09784584932080911]",4.0,"[-0.13210496711316436,-0.0383018347641434]",4.0,"[-0.0793827910175262,-0.02946156904896393]",4.0,"[0.04972168060363109,0.021026870187354583]",100.0,"[0.021590370856032565,0.10595709371764667]",100.0,"[0.060573705352218565,-0.0648399920858284]",100.0,"[0.17685907595061362,-0.08019473741017638]",4.0,"[0.00887979701012565,0.05373678372223593]",4.0,"[-0.13900589167268096,0.04268610375224526]",100.0,"[0.13217678518270068,0.0652968283221258]",100.0,"[0.1547103339277793,-0.1144658700319761]",100.0,"[-0.18746914743860577,0.06627644517067857]",4.0,"[0.0862014350702266,0.10890569784795684]",100.0,"[-0.0015471639568008302,0.16466174104086245]",100.0,"[0.007885060175678773,-0.10225390066273247]",100.0,"[-0.10388962387111662,0.07690558956844246]",4.0,"[-0.13076491765184176,0.11509264863440602]",4.0,"[0.07940835790773827,-0.020666754603016535]",100.0,"[0.03776675795158309,0.19518102839292312]",4.0,"[0.16686125636585417,0.0913238084926509]",100.0,"[-0.03586529306533125,-0.03674979643084562]",4.0,"[-0.062333542673991785,-0.09456797485038365]",100.0,"[0.02,0.02]",232.4694,0.0,43.0,43.0,113.0,1.0,,,,,,,
,,,,,,,682ce4f0aaf6e240215469e7,68399dd73428fd1d0ba673c1,2025-05-30_08h02.15.575,shape_ratio,2024.1.5,Win32,62.89308176,683853e18dae57a2147b65e0,,,,,,,,,,,232.4706,232.969,,,233.218,233.3182,right,,,,,,,,0.6,,,,,,232.969,233.218,0.0834,,233.3182,"[0.08536745467716957,-0.1302333077916591]",100.0,"[-0.02574888234455419,0.025154120788729258]",100.0,"[-0.10197354687199732,0.021148926487431986]",4.0,"[-0.0816000309987416,-0.12176368576176419]",100.0,"[0.07546069053006091,0.05152464087635201]",100.0,"[-0.1263868430501774,-0.08639962145343145]",100.0,"[-0.15276301518844745,-0.0398648473935604]",4.0,"[0.06153088674669691,-0.0385002236358581]",4.0,"[-0.07949429232172246,-0.06004075836852195]",100.0,"[0.07841295706862639,0.14331335539739345]",100.0,"[0.17404374032624695,0.07599519616365481]",4.0,"[0.11555271681338818,-0.07463668485583447]",100.0,"[0.03861544488301086,-0.15454264205423573]",4.0,"[-0.026924506852425843,-0.15133909048304187]",100.0,"[0.018303710904854196,-0.031931065918965794]",100.0,"[-0.06741209015530368,0.09712864832273921]",4.0,"[0.03998846428080825,0.03221955242056992]",100.0,"[0.08439130036590807,-0.17812165422609239]",4.0,"[-0.019456640854702074,-0.08027877753319455]",100.0,"[0.11133346530578021,0.032296948179978094]",4.0,"[-0.05375583938961895,0.1867640318313811]",100.0,"[0.1550180332401116,0.038856265896784675]",4.0,"[-0.15832866931896153,0.11682561210852693]",100.0,"[-0.03968616206195408,0.14047737501656887]",100.0,"[-0.19920005306112082,0.002412993882262323]",4.0,"[0.010031875893881197,-0.1957289161183657]",100.0,"[-0.04001493536713913,-0.043094179245909595]",100.0,"[-0.15634383929077422,0.07590899418734005]",4.0,"[0.055441955603226366,-0.09523670740346887]",4.0,"[-0.17767089023331067,-0.08595154049657842]",100.0,"[0.024331589166513422,0.0711309787416321]",4.0,"[-0.10675098692963664,-0.15795303183099674]",100.0,"[0.02,0.02]",234.4164,0.0,44.0,44.0,37.0,1.0,,,,,,,
,,,,,,,682ce4f0aaf6e240215469e7,68399dd73428fd1d0ba673c1,2025-05-30_08h02.15.575,shape_ratio,2024.1.5,Win32,62.89308176,683853e18dae57a2147b65e0,,,,,,,,,,,234.4173,234.9162,,,235.1656,235.2828,left,,,,,,,,0.4,,,,,,234.9162,235.1656,0.1005,,235.2829,"[0.06046254422005112,0.045512268040158566]",4.0,"[-0.14320011874629052,0.0922574614762339]",4.0,"[-0.1772804615263946,0.01929518883629741]",4.0,"[0.03429994086803688,0.1399135346630611]",4.0,"[-0.061297908364343325,0.13387040035015682]",4.0,"[0.12362567324162249,0.08188281596558496]",100.0,"[-0.07181993910430981,0.02010343309466477]",100.0,"[0.018956042108541307,0.02198186101019354]",100.0,"[0.007419600328208702,-0.1908925026499305]",4.0,"[-0.12908955849433,-0.12406735334059302]",4.0,"[-0.16012871239123458,-0.03567005026901402]",100.0,"[0.02571077573141034,-0.12556462240821253]",100.0,"[-0.06814519646252772,0.07564095317859361]",4.0,"[0.08038805061275607,0.1347450100142798]",4.0,"[0.1626966261063511,-0.07306145024913122]",4.0,"[0.17048239016805505,0.05809828314641655]",4.0,"[-0.06872721288142698,-0.10297684845825215]",4.0,"[0.11092476538617098,-0.05620896324047598]",4.0,"[0.008211362763614763,-0.02716118482538023]",4.0,"[-0.10072554602324375,-0.030139994594139886]",100.0,"[0.1685576397350512,0.011533936489931283]",4.0,"[0.09394641642239934,0.018370287825136083]",4.0,"[0.10678023417568232,-0.15161337586881213]",100.0,"[0.005259708414893039,0.06199161136429713]",4.0,"[-0.13059569049804684,-0.07702992320647752]",100.0,"[-0.10516520715155062,0.1279733663404996]",100.0,"[-0.05604803897866562,-0.14749444610619997]",4.0,"[0.05150683305987563,-0.1769275667776984]",100.0,"[-0.009290965531380773,0.19348318897823621]",4.0,"[0.05073733222268309,-0.022611884278386625]",100.0,"[0.12523484903765988,0.13308960768016118]",100.0,"[-0.1418517958696565,0.05165237725368592]",100.0,"[0.02,0.02]",236.3813,0.0,45.0,45.0,164.0,1.0,,,,,,,
,,,,,,,682ce4f0aaf6e240215469e7,68399dd73428fd1d0ba673c1,2025-05-30_08h02.15.575,shape_ratio,2024.1.5,Win32,62.89308176,683853e18dae57a2147b65e0,,,,,,,,,,,236.3823,236.8808,,,237.1311,237.2651,right,,,,,,,,0.5,,,,,,236.8808,237.1311,0.1174,,237.2652,"[0.05929895659027123,0.1675645968023027]",4.0,"[0.11393360168121508,0.03678147274508426]",100.0,"[-0.16558181156946541,0.09157340978887771]",100.0,"[-0.06420860837646969,0.06723479798543937]",100.0,"[0.19593910546250823,0.015003948015910751]",100.0,"[-0.09282220823554467,-0.004885008173634646]",100.0,"[0.15942823069128428,0.039356511340169265]",4.0,"[0.15927041413455287,-0.037503241277744244]",100.0,"[-0.13927649961545577,-0.12369678059651049]",4.0,"[-0.029542187448997934,0.0035455099724311075]",100.0,"[-0.0997072285097989,0.10336455592021265]",4.0,"[0.05567311218032904,-0.042716279564924575]",4.0,"[-0.040459475758235754,-0.18483576735487844]",100.0,"[0.06581191631961596,0.05960056847090808]",100.0,"[0.012666284136352781,-0.13939762872396452]",100.0,"[0.07572243298761297,-0.08610786027946794]",100.0,"[0.001096187741705965,-0.0823895759851266]",100.0,"[0.06713143800172425,0.10195815848380003]",4.0,"[0.03365559281932267,-0.005554510704732159]",4.0,"[-0.11740980311335257,0.05502210028684802]",100.0,"[-0.06084254314726921,0.17765448826490507]",4.0,"[0.08720243283722175,-0.1284874122717059]",4.0,"[0.12549573192673716,0.08734866202030718]",100.0,"[-0.007914598673572141,-0.04196218868229416]",4.0,"[0.12273093766252191,0.1490851291379607]",100.0,"[0.11280287934898504,-0.008467346799783925]",4.0,"[0.005588593538709815,0.03951959832467331]",100.0,"[-0.09326277759359572,-0.14869254500731685]",4.0,"[0.15884268205743474,0.12141861039996503]",4.0,"[-0.050927896297586615,0.11465909578115627]",4.0,"[-0.1289653533224151,-0.03657334077739595]",4.0,"[0.05511300430909308,-0.18357262532953852]",4.0,"[0.02,0.02]",238.3626,0.0,46.0,46.0,118.0,1.0,,,,,,,
,,,,,,,682ce4f0aaf6e240215469e7,68399dd73428fd1d0ba673c1,2025-05-30_08h02.15.575,shape_ratio,2024.1.5,Win32,62.89308176,683853e18dae57a2147b65e0,,,,,,,,,,,238.363,238.8622,,,239.1123,239.263,left,,,,,,,,0.5,,,,,,238.8622,239.1121,0.1341,,239.2631,"[0.011179894963965306,0.01925695775746326]",4.0,"[-0.07415957416666659,0.014340752544344786]",100.0,"[-0.009581859957892945,-0.10314270130563273]",100.0,"[0.04111782779276944,0.14531637216976204]",4.0,"[0.09238126727935,0.1583079098167469]",4.0,"[-0.02757284792859662,-0.00036205166580672454]",4.0,"[-0.019377759458852017,0.13881741355329905]",4.0,"[-0.06409408073127969,0.1290795466406601]",4.0,"[0.15004710059538104,-0.0013776565110254577]",100.0,"[0.05706254563015175,0.09308295590163883]",100.0,"[-0.09635443008175361,-0.06520690324978602]",100.0,"[0.07432338304252108,-0.05326903264911775]",100.0,"[0.13024496341400912,-0.15049990725892312]",4.0,"[0.1343310487195275,-0.10992527780486129]",4.0,"[-0.17017941962845698,-0.043368758161640056]",4.0,"[0.042312952552793735,-0.1372353460573127]",4.0,"[0.1406889906480396,0.0495991373155256]",100.0,"[0.15301938556597794,-0.07210553610099606]",4.0,"[0.10165253111044088,0.022315813238415264]",4.0,"[-0.13321059824025824,-0.10405369544457213]",100.0,"[-0.07817988381167984,-0.10175042513669438]",100.0,"[-0.05542745882135204,-0.036910258553913916]",100.0,"[0.04950667216213615,-0.18285067201791222]",4.0,"[0.08183736778586825,-0.1475474397138854]",100.0,"[0.1515306691956018,0.10724090093010183]",100.0,"[-0.18546627765328066,0.007767246725296221]",100.0,"[0.021972787830719848,-0.048071012567230106]",100.0,"[-0.13451223998812106,0.1129811915054988]",4.0,"[-0.014424117419940465,-0.1975634831716854]",100.0,"[-0.07147204121487542,0.06806483275892224]",4.0,"[0.0530143527070999,0.03195665298927007]",100.0,"[-0.13568917845269354,0.06323304237131211]",4.0,"[0.02,0.02]",240.3607,0.0,47.0,47.0,92.0,1.0,,,,,,,
,,,,,,,682ce4f0aaf6e240215469e7,68399dd73428fd1d0ba673c1,2025-05-30_08h02.15.575,shape_ratio,2024.1.5,Win32,62.89308176,683853e18dae57a2147b65e0,,,,,,,,,,,240.3612,240.8598,,,241.1019,241.2844,right,,,,,,,,0.6,,,,,,240.8599,241.1019,0.1662,,241.2844,"[-0.181638029857752,0.048394234769283326]",100.0,"[-0.1460857005320698,0.026874401194814036]",100.0,"[0.08667692127156089,-0.049438366230170006]",100.0,"[0.00021197743376342402,0.1489134222181218]",100.0,"[-0.12159432998099097,0.10400339874295504]",100.0,"[-0.016866258988681417,-0.0722162211555829]",100.0,"[-0.06693843205855678,-0.057378614497958086]",4.0,"[0.19043632203350255,0.011649238251122315]",100.0,"[0.151991681650988,-0.05148645672371068]",100.0,"[-0.04258328284408862,0.04333309115369901]",4.0,"[-0.07223365719665067,-0.12198714991815844]",4.0,"[-0.1333332730541659,-0.09817276040445949]",100.0,"[-0.1475563289365049,-0.05478414774589471]",4.0,"[0.12826621188629264,0.11065439178638511]",100.0,"[0.0322750226279949,-0.11523808718235322]",100.0,"[-0.015659470789781672,0.10680867898087942]",4.0,"[0.07032585819027855,-0.1459152731592013]",100.0,"[0.186636865787362,0.05283744266783908]",100.0,"[-0.02724547282786397,0.19481273883895484]",100.0,"[0.1277642906103939,-0.000041892052860968205]",4.0,"[-0.08867998959349116,-0.0014065408336003664]",100.0,"[-0.04351601334803419,-0.17018012538543037]",4.0,"[-0.06238835344797944,0.16984365851709574]",4.0,"[0.05515620353693177,0.1557762469137339]",4.0,"[0.042229682842043155,0.035524517981182134]",4.0,"[-0.1250728237111556,-0.15417168881467008]",4.0,"[0.03275974734318748,-0.18624710710731554]",4.0,"[0.08450233634214491,0.011519979630792668]",100.0,"[-0.19986345180440532,-0.0024646038470385345]",100.0,"[0.1416615373799924,0.05773742595534159]",100.0,"[-0.0029517616886804397,-0.14750272234956807]",100.0,"[0.07174192878129491,0.07841819436549963]",4.0,"[0.02,0.02]",242.383,0.0,48.0,48.0,50.0,1.0,,,,,,,
,,,,,,,682ce4f0aaf6e240215469e7,68399dd73428fd1d0ba673c1,2025-05-30_08h02.15.575,shape_ratio,2024.1.5,Win32,62.89308176,683853e18dae57a2147b65e0,,,,,,,,,,,242.3835,242.8827,,,243.1335,243.3134,left,,,,,,,,0.9,,,,,,242.8829,243.1334,0.1642,,243.3135,"[-0.1169314463177947,-0.08773478114554624]",100.0,"[-0.16170624202445616,-0.08531219923323036]",100.0,"[0.16610249808483352,-0.06210994430848156]",100.0,"[0.07010571338472973,0.004079748519208355]",100.0,"[-0.05259741618944573,-0.14246962276967762]",100.0,"[-0.05639175421929735,0.16718855926539397]",100.0,"[0.09923942682091465,-0.07934563892624066]",4.0,"[-0.12379980031960054,0.15076359268860381]",100.0,"[-0.07807225790878795,0.013201160075739769]",100.0,"[-0.041623607760856655,-0.02219547488100302]",100.0,"[-0.11593178635203256,-0.1338061599488726]",100.0,"[0.027812065973632633,-0.17192401296737536]",100.0,"[0.021911292549169452,0.13318572930850858]",4.0,"[0.04745334649333349,-0.07025216713143448]",100.0,"[-0.0924049962850179,0.11207598819522736]",100.0,"[-0.1555899110981613,0.03939317488394591]",4.0,"[-0.028544889136772108,0.06729892202491272]",100.0,"[-0.020472287433022866,-0.19536106361245104]",100.0,"[-0.06700614236249491,-0.18818414326000804]",100.0,"[0.09369035292884795,0.09743563696089033]",100.0,"[0.007728968011139409,0.04087240901254346]",100.0,"[0.13727671258355673,0.012444688022875726]",100.0,"[0.05800122548960821,0.055648645085377806]",100.0,"[-0.128229316025118,-0.021759291442413554]",100.0,"[-0.009657707868484215,-0.14180886610433951]",100.0,"[0.12423460428246885,-0.13970175943749974]",100.0,"[0.09515959431558274,-0.03485643872326484]",100.0,"[0.1059562678493488,0.15416888549278646]",100.0,"[-0.03582011208672527,0.020485561660489097]",100.0,"[0.19099573196220507,-0.016649832299605816]",100.0,"[0.06378515413247988,0.17338532148933414]",100.0,"[0.015952446332684875,0.09139510189683753]",100.0,"[0.02,0.02]",244.4112,0.0,49.0,49.0,28.0,1.0,,,,,,,
