right,left,explain.started,explain.stopped,key_resp_3.keys,key_resp_3.rt,key_resp_3.duration,participant,session,date,expName,psychopyVersion,OS,frameRate,study_id,explain_2.started,explain_2.stopped,key_resp_4.keys,key_resp_4.rt,key_resp_4.duration,explain_3.started,explain_3.stopped,key_resp_5.keys,key_resp_5.rt,key_resp_5.duration,fixation.started,fixation.stopped,practice.started,practice.stopped,response.started,response.stopped,key_resp.keys,feedback.started,feedback.stopped,trials_2.thisRepN,trials_2.thisTrialN,trials_2.thisN,trials_2.thisIndex,trials_2.ran,dot_ratio,key_resp.rt,key_resp.duration,explain_4.started,explain_4.stopped,key_resp_6.keys,key_resp_6.rt,key_resp_6.duration,dotDisplay.started,dotDisplay.stopped,ITI.started,polygon_1.pos,polygon_1.edges,polygon_2.pos,polygon_2.edges,polygon_3.pos,polygon_3.edges,polygon_4.pos,polygon_4.edges,polygon_5.pos,polygon_5.edges,polygon_6.pos,polygon_6.edges,polygon_7.pos,polygon_7.edges,polygon_8.pos,polygon_8.edges,polygon_9.pos,polygon_9.edges,polygon_10.pos,polygon_10.edges,polygon_11.pos,polygon_11.edges,polygon_12.pos,polygon_12.edges,polygon_13.pos,polygon_13.edges,polygon_14.pos,polygon_14.edges,polygon_15.pos,polygon_15.edges,polygon_16.pos,polygon_16.edges,polygon_17.pos,polygon_17.edges,polygon_18.pos,polygon_18.edges,polygon_19.pos,polygon_19.edges,polygon_20.pos,polygon_20.edges,polygon_21.pos,polygon_21.edges,polygon_22.pos,polygon_22.edges,polygon_23.pos,polygon_23.edges,polygon_24.pos,polygon_24.edges,polygon_25.pos,polygon_25.edges,polygon_26.pos,polygon_26.edges,polygon_27.pos,polygon_27.edges,polygon_28.pos,polygon_28.edges,polygon_29.pos,polygon_29.edges,polygon_30.pos,polygon_30.edges,polygon_31.pos,polygon_31.edges,polygon_32.pos,polygon_32.edges,dot_size,ITI.stopped,trials.thisRepN,trials.thisTrialN,trials.thisN,trials.thisIndex,trials.ran,break_2.started,break_2.stopped,trials_3.thisRepN,trials_3.thisTrialN,trials_3.thisN,trials_3.thisIndex,trials_3.ran
subject chose dot,subject chose diamond,0.0003,191.5046,space,176.4992,,682fc5d8cd077835a5ca6610,6842bad77dafeaad49e0dd09,2025-06-06_05h56.35.954,shape_ratio,2024.1.5,MacIntel,56.81818182,6842b561977af9ba9b0f87ca,,,,,,,,,,,,,,,,,,,,,,,,,,,,,,,,,,,,,,,,,,,,,,,,,,,,,,,,,,,,,,,,,,,,,,,,,,,,,,,,,,,,,,,,,,,,,,,,,,,,,,,,,,,,,,,,,
,,,,,,,682fc5d8cd077835a5ca6610,6842bad77dafeaad49e0dd09,2025-06-06_05h56.35.954,shape_ratio,2024.1.5,MacIntel,56.81818182,6842b561977af9ba9b0f87ca,191.5047,251.6051,space,30.0894,,,,,,,,,,,,,,,,,,,,,,,,,,,,,,,,,,,,,,,,,,,,,,,,,,,,,,,,,,,,,,,,,,,,,,,,,,,,,,,,,,,,,,,,,,,,,,,,,,,,,,,,,,,,,
,,,,,,,682fc5d8cd077835a5ca6610,6842bad77dafeaad49e0dd09,2025-06-06_05h56.35.954,shape_ratio,2024.1.5,MacIntel,56.81818182,6842b561977af9ba9b0f87ca,,,,,,251.6052,260.7395,space,6.1321,,,,,,,,,,,,,,,,,,,,,,,,,,,,,,,,,,,,,,,,,,,,,,,,,,,,,,,,,,,,,,,,,,,,,,,,,,,,,,,,,,,,,,,,,,,,,,,,,,,,,,,,
,,,,,,,682fc5d8cd077835a5ca6610,6842bad77dafeaad49e0dd09,2025-06-06_05h56.35.954,shape_ratio,2024.1.5,MacIntel,56.81818182,6842b561977af9ba9b0f87ca,,,,,,,,,,,260.7519,261.2361,261.2364,261.4775,261.4776,262.9755,,262.9757,264.0746,0.0,0.0,0.0,0.0,1.0,0.2,,,,,,,,,,,,,,,,,,,,,,,,,,,,,,,,,,,,,,,,,,,,,,,,,,,,,,,,,,,,,,,,,,,,,,,,,,,,,,,,,,,,,,,,
,,,,,,,682fc5d8cd077835a5ca6610,6842bad77dafeaad49e0dd09,2025-06-06_05h56.35.954,shape_ratio,2024.1.5,MacIntel,56.81818182,6842b561977af9ba9b0f87ca,,,,,,,,,,,264.0749,264.5765,264.5765,264.8283,264.8283,265.6575,right,265.6575,266.7611,0.0,1.0,1.0,1.0,1.0,0.8,0.8056,0.0007,,,,,,,,,,,,,,,,,,,,,,,,,,,,,,,,,,,,,,,,,,,,,,,,,,,,,,,,,,,,,,,,,,,,,,,,,,,,,,,,,,,,,,
,,,,,,,682fc5d8cd077835a5ca6610,6842bad77dafeaad49e0dd09,2025-06-06_05h56.35.954,shape_ratio,2024.1.5,MacIntel,56.81818182,6842b561977af9ba9b0f87ca,,,,,,,,,,,,,,,,,,,,,,,,,,,,266.7614,283.8945,space,14.1168,,,,,,,,,,,,,,,,,,,,,,,,,,,,,,,,,,,,,,,,,,,,,,,,,,,,,,,,,,,,,,,,,,,,,,,,,,,,,,,,,,
,,,,,,,682fc5d8cd077835a5ca6610,6842bad77dafeaad49e0dd09,2025-06-06_05h56.35.954,shape_ratio,2024.1.5,MacIntel,56.81818182,6842b561977af9ba9b0f87ca,,,,,,,,,,,283.9025,284.3991,,,284.6289,285.3146,right,,,,,,,,0.6,0.6663,0.0,,,,,,284.3993,284.6289,285.315,"[-0.08811328595834657,-0.13365380038278074]",4.0,"[0.0029006414510215684,0.098093399249053]",100.0,"[0.15150676645077912,0.12317535556367659]",100.0,"[-0.02572749357429864,0.16081447841529944]",4.0,"[-0.1266865858622106,0.08924849620499398]",100.0,"[-0.08580799343985328,-0.04938678598989163]",100.0,"[-0.10370765669119728,0.1670270498994998]",100.0,"[0.00023144367565693466,-0.17444384829981863]",4.0,"[-0.1516763434429798,-0.03382931877624767]",100.0,"[-0.06173211605364248,0.026800086422052075]",4.0,"[0.09357565543158301,-0.046352542109087534]",100.0,"[0.14837020065056664,-0.13406025750010792]",4.0,"[0.13215894089380356,0.04317706315570854]",4.0,"[0.09381318638427084,-0.16931158038637664]",100.0,"[-0.06674010756873545,0.08762623595042353]",100.0,"[-0.00544606603957028,0.19805051807347115]",100.0,"[-0.025436945457569714,-0.06400099120924252]",100.0,"[0.07056690701422094,0.07635871242409535]",100.0,"[0.10968741082105615,0.15337437950855728]",100.0,"[-0.16065569697182164,0.02951031017626345]",100.0,"[0.10493500438220375,-0.12644453693542154]",4.0,"[0.041639142695890356,0.007225229081211943]",4.0,"[-0.05243892252150283,-0.020241695670553034]",100.0,"[0.01649532613303431,-0.07023586272059298]",100.0,"[0.1739850115890567,-0.08101112548790493]",4.0,"[0.09257826408419355,0.03265801827069184]",4.0,"[-0.18792664312155385,-0.009537421767971978]",4.0,"[-0.1498569597659988,0.12651775766297924]",4.0,"[0.07007571355004712,-0.09871252825895019]",100.0,"[-0.17928150324052755,-0.08674264992953983]",4.0,"[-0.08382695817413388,0.1239390191115905]",100.0,"[0.16450438552130653,0.07319069688426198]",100.0,"[0.02,0.02]",286.4089,0.0,0.0,0.0,48.0,1.0,,,,,,,
,,,,,,,682fc5d8cd077835a5ca6610,6842bad77dafeaad49e0dd09,2025-06-06_05h56.35.954,shape_ratio,2024.1.5,MacIntel,56.81818182,6842b561977af9ba9b0f87ca,,,,,,,,,,,286.4093,286.8984,,,287.1467,287.4242,left,,,,,,,,0.4,0.2587,0.0,,,,,,286.8984,287.1467,287.4242,"[-0.019016923942121483,0.032223175105646325]",100.0,"[0.07000478819824396,0.07315779792179648]",100.0,"[0.13409731218021045,-0.024967617843818613]",4.0,"[-0.08859642702717216,-0.12760435440783574]",100.0,"[0.047230039662636523,0.037468427460154594]",4.0,"[-0.026681825165917442,-0.1229612023713059]",4.0,"[-0.1374532091272486,0.0224179839032443]",4.0,"[-0.07381470728551419,-0.1657221046444396]",100.0,"[0.04504692371993991,-0.07308065787557487]",100.0,"[-0.06699718167065143,0.1708262661327773]",100.0,"[-0.03724752716324397,0.10835887255811183]",4.0,"[0.022327456989137934,0.0032018746774647097]",4.0,"[0.1769325812680473,0.035970890584456176]",4.0,"[0.08955008318633342,0.1525154919619288]",100.0,"[0.17086050439318762,0.08057946319056557]",100.0,"[0.0026804963866617106,0.13793331366881503]",4.0,"[-0.08746011230878824,-0.002222497454335658]",4.0,"[-0.12659721798701803,0.06450115703229825]",100.0,"[-0.16585090878688144,-0.09659340613679225]",4.0,"[0.07676600057560982,-0.17827871521237273]",4.0,"[-0.19066277677218765,-0.012708859626122981]",4.0,"[0.10942414009673461,0.06171439381457115]",4.0,"[0.08398882089426243,-0.0018093119843932178]",4.0,"[0.09365588281920217,-0.0975291704433183]",100.0,"[-0.08437106264661282,-0.06582144655421962]",4.0,"[0.00647428302121361,-0.17442601724102252]",100.0,"[-0.15133822811266903,-0.025591600759817586]",4.0,"[-0.1847637002483227,0.027587585569659494]",100.0,"[-0.042090795125986166,-0.19500530872163063]",4.0,"[0.1776330008309558,-0.02231620455385104]",4.0,"[0.008817287470791378,-0.046299014170756214]",4.0,"[0.04868407636034795,0.1563437050930294]",100.0,"[0.02,0.02]",288.5268,0.0,1.0,1.0,156.0,1.0,,,,,,,
,,,,,,,682fc5d8cd077835a5ca6610,6842bad77dafeaad49e0dd09,2025-06-06_05h56.35.954,shape_ratio,2024.1.5,MacIntel,56.81818182,6842b561977af9ba9b0f87ca,,,,,,,,,,,288.527,289.0116,,,289.2529,289.4499,right,,,,,,,,0.4,0.1776,0.0001,,,,,,289.0117,289.2529,289.45,"[0.013729944196133662,-0.14586721743027775]",100.0,"[0.06689577288189746,0.11149055945837742]",4.0,"[-0.01911975032736924,-0.002830156498471701]",100.0,"[-0.0524159019978242,-0.1317232025064121]",4.0,"[-0.09535074823375644,-0.10177542900376586]",4.0,"[0.07986644002536342,0.007551317015510325]",100.0,"[0.1358563333679335,-0.1251269912582827]",4.0,"[-0.17220966304723345,0.03284545580895726]",4.0,"[0.013374351142288292,0.16742869424552229]",4.0,"[-0.0073837573852788925,0.12138860093783255]",100.0,"[0.14583224417155452,-0.08236566346784545]",4.0,"[-0.0025869136149380668,-0.045458847775433756]",4.0,"[0.11079078236127902,-0.039338820545173944]",4.0,"[-0.17352179719953192,-0.056389310240627474]",4.0,"[0.11331502796032747,0.1513499168991266]",100.0,"[0.1616482169428894,-0.006197747946499976]",100.0,"[-0.08914584259007892,0.14598963848313573]",4.0,"[0.05917425569015474,0.17623814534983143]",4.0,"[-0.0011456948461480143,-0.08618258055863767]",4.0,"[-0.06854882880000963,0.07086685817927477]",100.0,"[0.06320921916790186,-0.07196626852802382]",4.0,"[-0.1644769495693726,0.10579365771467489]",4.0,"[-0.08606572507001553,-0.03853839046453426]",100.0,"[-0.13540142752210027,-0.08286123099094785]",100.0,"[-0.1018238620260517,0.010154091005561977]",100.0,"[-0.03969437690483758,-0.1808034261678594]",4.0,"[0.06465443744486654,0.05252967016069185]",4.0,"[-0.09110739442495756,-0.15997811820400515]",4.0,"[-0.0568247672587813,0.11309113549379649]",4.0,"[-0.04255640008827033,-0.05439264547731906]",100.0,"[0.08689346660845246,-0.14682009140576258]",100.0,"[-0.10869210647146992,0.06811629489294894]",100.0,"[0.02,0.02]",290.5494,0.0,2.0,2.0,174.0,1.0,,,,,,,
,,,,,,,682fc5d8cd077835a5ca6610,6842bad77dafeaad49e0dd09,2025-06-06_05h56.35.954,shape_ratio,2024.1.5,MacIntel,56.81818182,6842b561977af9ba9b0f87ca,,,,,,,,,,,290.5496,291.0495,,,291.2958,291.4913,left,,,,,,,,0.1,0.1761,0.0,,,,,,291.0495,291.2958,291.4913,"[0.035967678901295846,0.08218939279288537]",4.0,"[0.0033242488649251607,-0.12270839097339306]",4.0,"[-0.06787989640931041,-0.17562739659906337]",4.0,"[0.16621779534595227,-0.02671702409694442]",4.0,"[0.10210678536980003,-0.09315429636558621]",4.0,"[-0.17620591448187475,0.04817087667787813]",4.0,"[-0.0697606556381333,0.02557570418663485]",4.0,"[-0.14608871288503916,0.09680444516490101]",4.0,"[-0.19229376712309723,-0.01710523726134738]",4.0,"[-0.0425258845326957,0.09754558359425727]",4.0,"[-0.023462310425206922,0.13957479295824834]",4.0,"[0.04732461992459823,-0.028223480526049654]",4.0,"[-0.056321910918223056,-0.12490304676282057]",4.0,"[0.08329190910391163,-0.16383677393380475]",4.0,"[0.013452181944609296,0.19615813847407196]",4.0,"[-0.16959761370109433,-0.06880317631625363]",4.0,"[0.06956656284131307,0.13182482836293563]",4.0,"[0.153199167073851,0.04443533482698944]",4.0,"[-0.054000644264144325,0.17048595985526593]",4.0,"[-0.07767797009844551,0.13280952784689223]",4.0,"[0.006393224670377453,-0.19339338486495802]",4.0,"[-0.10478140537785502,0.16316452289740718]",4.0,"[0.06584619968754891,0.030480416003699034]",4.0,"[0.10366140025193178,-0.043620909589163245]",100.0,"[-0.014073083612665576,-0.0067159951604030725]",100.0,"[-0.10034618035873495,-0.012924235336879263]",4.0,"[-0.12479475043205153,0.027045946211166075]",4.0,"[0.13389718305319848,-0.14495554674721195]",4.0,"[0.13403135588498707,0.14307986253382607]",100.0,"[-0.12033694084756508,-0.15720904426864438]",4.0,"[0.0892552297745823,0.17569815159233554]",4.0,"[0.1730874694093528,-0.0866430837507441]",4.0,"[0.02,0.02]",292.5913,0.0,3.0,3.0,191.0,1.0,,,,,,,
,,,,,,,682fc5d8cd077835a5ca6610,6842bad77dafeaad49e0dd09,2025-06-06_05h56.35.954,shape_ratio,2024.1.5,MacIntel,56.81818182,6842b561977af9ba9b0f87ca,,,,,,,,,,,292.5914,293.0911,,,293.3424,293.5815,left,,,,,,,,0.45,0.2196,0.0001,,,,,,293.0911,293.3424,293.5815,"[-0.1513078685445522,0.05788347237715858]",4.0,"[-0.11630167624281511,-0.06941694101677978]",4.0,"[0.07756681794194234,0.16630018386344714]",100.0,"[-0.14464945613621144,-0.02668105394868439]",4.0,"[-0.0751545247436759,0.10871148513329033]",100.0,"[0.04145871883975712,0.08757497693679538]",100.0,"[-0.023177700017991555,0.10615872526886044]",4.0,"[-0.16612122607620136,-0.1102896984199959]",4.0,"[0.03692018184896122,-0.1610555423307331]",4.0,"[-0.09400937006410114,-0.15872474697255426]",4.0,"[0.15548183459301648,-0.014350427087794307]",100.0,"[-0.07366183808462398,0.06007521491835397]",4.0,"[0.04245326063994557,-0.07602873594720284]",4.0,"[-0.19338282960073852,0.0024435036862162926]",100.0,"[0.0423033610388242,-0.03179423881454645]",4.0,"[0.09066850309936011,0.09694394838724939]",100.0,"[-0.06677039065208329,0.14842127182084727]",4.0,"[0.19272943323862188,0.01844845367330856]",100.0,"[0.041409833242088065,0.14595097212407965]",100.0,"[0.09114657942739128,-0.06625302644769768]",100.0,"[-0.026536780619153336,-0.08195038737207853]",100.0,"[-0.0130066871710946,0.022755643092611657]",100.0,"[0.0891728340174743,-0.005961711344298927]",4.0,"[0.1229671111769313,0.1302880658273302]",4.0,"[-0.07567750830895999,-0.05927535935845586]",4.0,"[0.0013985246844158878,0.17096436929869446]",100.0,"[-0.0858391675500142,0.016699516108289958]",4.0,"[0.09417750402873648,-0.12591127807901972]",4.0,"[0.0029698650907119296,-0.1971338178938189]",100.0,"[0.15715727488688405,-0.07492313285302782]",4.0,"[-0.015258284399741518,-0.13119898883009787]",4.0,"[0.07611126493419612,0.03519472986210478]",100.0,"[0.02,0.02]",294.6841,0.0,4.0,4.0,146.0,1.0,,,,,,,
,,,,,,,682fc5d8cd077835a5ca6610,6842bad77dafeaad49e0dd09,2025-06-06_05h56.35.954,shape_ratio,2024.1.5,MacIntel,56.81818182,6842b561977af9ba9b0f87ca,,,,,,,,,,,294.6843,295.1867,,,295.4258,295.5647,left,,,,,,,,0.55,0.1197,0.0001,,,,,,295.1868,295.4257,295.5647,"[0.023249794946588367,-0.14145703439227603]",100.0,"[-0.05964271733237472,0.131668541997874]",100.0,"[0.15165535210672515,-0.11451276546973663]",100.0,"[0.10537408910472702,0.10837739054415527]",100.0,"[-0.09826436666520676,-0.07130995898371202]",100.0,"[-0.01304135519915032,-0.18309173572759266]",100.0,"[0.05888322821242728,0.023418333146343877]",4.0,"[0.11035471428598524,-0.07892690157137398]",100.0,"[0.047259269922159716,-0.05859918978867999]",4.0,"[-0.15901231424949278,0.055287852050385236]",4.0,"[0.17335273936702686,0.08793904961408809]",100.0,"[0.08455506323157652,-0.17738960041557314]",4.0,"[0.09676135149692631,0.052746058752215344]",100.0,"[-0.0975213267132698,-0.12784095777181556]",4.0,"[0.0695258536760644,0.14987856482674022]",100.0,"[0.00941445027124136,0.06808014150466171]",100.0,"[0.1405620315816566,-0.04540389530105408]",100.0,"[-0.10934362062663394,0.13928561410154763]",100.0,"[0.024063904460776595,0.1934701471546932]",4.0,"[-0.03793945638162285,-0.06951250036075114]",100.0,"[-0.022464393985364893,0.17941887399368853]",100.0,"[-0.020357304921622407,0.014551341478479925]",4.0,"[-0.17047022384191038,-0.0004983372063073273]",4.0,"[0.1911492164162499,-0.021331022836218513]",100.0,"[0.18185512675491605,-0.06259991808826372]",4.0,"[0.026929800429500977,-0.016811051001720204]",100.0,"[0.13529006840844707,0.06532326342590614]",4.0,"[-0.02903656335254682,0.10086765987272879]",4.0,"[0.07951531149867928,-0.025279520264293844]",4.0,"[-0.08955511955431411,0.02763096135236528]",4.0,"[-0.015140039504970773,-0.032080180041477585]",4.0,"[-0.1047262617999525,0.0873394584592736]",100.0,"[0.02,0.02]",296.6694,0.0,5.0,5.0,82.0,1.0,,,,,,,
,,,,,,,682fc5d8cd077835a5ca6610,6842bad77dafeaad49e0dd09,2025-06-06_05h56.35.954,shape_ratio,2024.1.5,MacIntel,56.81818182,6842b561977af9ba9b0f87ca,,,,,,,,,,,296.6695,297.1688,,,297.3985,298.9033,,,,,,,,,0.1,,,,,,,,297.1688,297.3984,298.9034,"[-0.10967461567230243,-0.05358224998395019]",4.0,"[-0.0006821534216300585,0.0093495888096753]",4.0,"[0.16977085960036253,-0.0023162468215560924]",4.0,"[-0.09799776836298649,-0.001001693599265692]",100.0,"[-0.1205796266805363,0.13628821948305916]",4.0,"[-0.06648198247345512,-0.10427296961428933]",4.0,"[0.015678747884748736,0.17836227900325777]",4.0,"[0.0383563576057277,-0.11361983726928293]",4.0,"[-0.1528160306460208,0.0387027303955872]",4.0,"[-0.1569346550895596,0.08685463065395216]",4.0,"[0.1330853928836875,0.07044451507215059]",4.0,"[0.17236206927244374,0.04351251188794077]",4.0,"[-0.03522274932653766,0.04702649556293187]",4.0,"[0.07090073896880926,0.04085697334829048]",100.0,"[0.011301125320394085,0.06266584450530172]",4.0,"[0.057531032768866334,0.17748797753589837]",4.0,"[0.10986788377651095,0.11233763729908108]",4.0,"[-0.07420246397873634,0.15931412383945723]",4.0,"[0.0581359901524788,-0.002142290107106362]",4.0,"[-0.08299164178570521,-0.1716811996915854]",4.0,"[-0.05194530611595334,0.11102965866543758]",4.0,"[0.012679818286524662,-0.04466545157577435]",4.0,"[0.16410571092456738,-0.09993036207802874]",4.0,"[-0.07785759301033388,0.06825632759873879]",100.0,"[-0.06560811555267007,-0.057027576239754484]",4.0,"[0.07235507157281076,-0.07579266020422093]",4.0,"[-0.054772701023671586,-0.0020735706232880677]",4.0,"[0.02649735709379283,0.1068914597386546]",4.0,"[0.024816794162763743,-0.17763988256296695]",4.0,"[-0.16431964512676664,-0.08059948810806321]",4.0,"[0.10041669650803765,-0.035944671931813325]",4.0,"[-0.03495226588522526,-0.172411887983141]",4.0,"[0.02,0.02]",299.993,0.0,6.0,6.0,195.0,1.0,,,,,,,
,,,,,,,682fc5d8cd077835a5ca6610,6842bad77dafeaad49e0dd09,2025-06-06_05h56.35.954,shape_ratio,2024.1.5,MacIntel,56.81818182,6842b561977af9ba9b0f87ca,,,,,,,,,,,299.9931,300.4961,,,300.7436,301.1265,right,,,,,,,,0.5,0.3638,0.0,,,,,,300.4962,300.7436,301.1265,"[-0.1072932197964746,0.09195523969976895]",4.0,"[-0.04109662620016466,0.18036380937035068]",100.0,"[0.006618728623735345,-0.024617170094473406]",100.0,"[0.05095866606613026,-0.04827022070142469]",100.0,"[0.14188176868897,-0.14084622311073808]",100.0,"[-0.008574625124189807,0.09227487384588698]",100.0,"[-0.005163875232857582,-0.08126819667634026]",100.0,"[0.1600985928142011,-0.004313262045413007]",4.0,"[-0.055038856676378464,0.11386461339969792]",4.0,"[0.12005942331140872,0.09636074644451482]",100.0,"[-0.045495115981578294,0.026339134801588292]",4.0,"[0.10062174475715716,0.04463431653413353]",100.0,"[-0.1487695287874758,-0.0392902799046319]",100.0,"[0.0469957615741993,0.16827224561157555]",4.0,"[0.08376568955075125,0.14138213153561738]",100.0,"[0.06935528927562015,0.09172568871614528]",4.0,"[-0.13595494283490744,0.03894695081004119]",4.0,"[-0.16634201427946965,-0.08221422832950949]",4.0,"[-0.1711183138969078,0.06213787941587199]",100.0,"[0.174479090920578,-0.05237713734918472]",4.0,"[0.03038157739069787,0.04919974007470403]",4.0,"[-0.00826886302956974,-0.127990724175792]",100.0,"[0.1648638780789914,0.0707517122241523]",100.0,"[-0.08048074651583176,-0.1746327420421507]",4.0,"[-0.10974751405964478,-0.1262263921059326]",4.0,"[0.11385508488776722,-0.0685468397900611]",100.0,"[-0.09015070178049381,0.14373697045730094]",4.0,"[0.007802666025093658,0.1797394795846514]",4.0,"[-0.19327033878068914,-0.04358243340279074]",100.0,"[-0.07581675518727403,-0.011233768844917318]",4.0,"[0.09166064981006483,-0.005810279228341606]",4.0,"[0.07132714288961968,-0.09962820364366409]",100.0,"[0.02,0.02]",302.229,0.0,7.0,7.0,97.0,1.0,,,,,,,
,,,,,,,682fc5d8cd077835a5ca6610,6842bad77dafeaad49e0dd09,2025-06-06_05h56.35.954,shape_ratio,2024.1.5,MacIntel,56.81818182,6842b561977af9ba9b0f87ca,,,,,,,,,,,302.2291,302.7284,,,302.9753,303.0953,left,,,,,,,,0.4,0.1003,0.0001,,,,,,302.7284,302.9753,303.0954,"[0.08080795137114687,-0.11882841516227911]",4.0,"[-0.1884352481936259,-0.025149222852967154]",100.0,"[0.04072274214315603,0.1281769550005757]",100.0,"[-0.03070055976927682,-0.01913982750607025]",4.0,"[-0.12967099377884633,-0.08583783873733067]",4.0,"[-0.10569447872836273,0.11830004664254151]",100.0,"[0.1730786465008819,-0.01778081597664598]",4.0,"[0.1424331247721499,0.05241091374684611]",100.0,"[0.14929891802857628,-0.07690667928788587]",100.0,"[-0.01576617477344722,-0.06420903571133268]",4.0,"[-0.03526291737659748,-0.1136779220235236]",4.0,"[-0.08760373369187766,-0.04220945836594874]",100.0,"[0.03550215159936287,-0.11499468850461472]",4.0,"[-0.11620402412669728,0.07687071013700754]",4.0,"[-0.08789192428448014,0.044032913242331065]",4.0,"[0.029265504768864716,-0.07378867700821132]",4.0,"[0.13046558085083707,0.007154599280455208]",100.0,"[-0.009367129348894377,0.12054484604379516]",4.0,"[-0.08793706681597709,-0.08772942846536592]",4.0,"[0.025362195783056523,-0.013065983082968552]",4.0,"[0.14538884219575918,0.09376205808043682]",4.0,"[-0.05414011673308709,0.19152808417278583]",100.0,"[0.045237736056480425,0.07917953204068873]",4.0,"[-0.03220259317599388,0.07600858519314396]",4.0,"[-0.06605298511111782,-0.17874554676857948]",4.0,"[0.10063501659402628,0.08050652097577263]",4.0,"[0.08466055398109935,0.12262695936330552]",4.0,"[0.07800457075608751,0.17377330046030573]",100.0,"[-0.15209529718973255,0.04882321252159341]",100.0,"[-0.0018888651842019321,0.03353114688247513]",100.0,"[-0.04219038943394765,0.03222699209228876]",100.0,"[0.08835619546885577,0.03937714642337682]",100.0,"[0.02,0.02]",304.1986,0.0,8.0,8.0,169.0,1.0,,,,,,,
,,,,,,,682fc5d8cd077835a5ca6610,6842bad77dafeaad49e0dd09,2025-06-06_05h56.35.954,shape_ratio,2024.1.5,MacIntel,56.81818182,6842b561977af9ba9b0f87ca,,,,,,,,,,,304.1987,304.6829,,,304.9231,305.2467,right,,,,,,,,0.5,0.3007,0.0,,,,,,304.6829,304.9231,305.2468,"[-0.06871578620260081,-0.01143385852027134]",100.0,"[-0.17462719377906416,-0.018311694220363526]",4.0,"[-0.02810911679910843,0.15505340436789755]",100.0,"[-0.12456484593995859,-0.038201360110891744]",100.0,"[0.1715583495643481,-0.076653070574177]",100.0,"[0.17192474530414462,0.06321521514824058]",100.0,"[-0.14642338256450826,0.10570574383504043]",100.0,"[-0.02838405919822524,0.07524556843032168]",4.0,"[0.12418825596068375,0.10312223333234623]",4.0,"[0.09518697545735572,-0.013849517694383286]",4.0,"[0.09018204924432792,-0.09162715622296817]",4.0,"[-0.08881382853142657,0.14361705909048755]",4.0,"[0.06555949576258166,0.02180617211688656]",4.0,"[-0.1563617661016335,-0.08817874170351195]",4.0,"[0.08531282725617365,0.06678649967097472]",4.0,"[0.01539343193668693,-0.021672316902214984]",100.0,"[0.11474714387941395,-0.054924942589462025]",100.0,"[0.000569540784121771,0.18366887720952843]",4.0,"[0.08590903855088627,0.1696055134864735]",100.0,"[-0.09568149337472619,0.07632105177192476]",4.0,"[-0.12761256405796625,-0.12071953761422655]",100.0,"[0.12250856101719056,0.02348486593928982]",100.0,"[-0.08334651659337751,-0.16496809703359408]",100.0,"[0.07516366589819268,-0.1824049790710294]",4.0,"[-0.008281339754333393,-0.09726808324738619]",4.0,"[0.07869040935039302,0.11436838454185215]",4.0,"[0.13828833722914297,-0.11410844371260846]",100.0,"[-0.15699021004780214,0.060377246937900454]",4.0,"[0.05491144493882355,-0.14321717514308455]",100.0,"[-0.08726348159562199,-0.08065894019475929]",100.0,"[0.03894961818986048,-0.08375433458741313]",100.0,"[-0.0073085545932760594,0.03646909501397028]",4.0,"[0.02,0.02]",306.3344,0.0,9.0,9.0,117.0,1.0,,,,,,,
,,,,,,,682fc5d8cd077835a5ca6610,6842bad77dafeaad49e0dd09,2025-06-06_05h56.35.954,shape_ratio,2024.1.5,MacIntel,56.81818182,6842b561977af9ba9b0f87ca,,,,,,,,,,,306.3345,306.8322,,,307.074,307.3159,right,,,,,,,,0.45,0.2185,0.0001,,,,,,306.8323,307.074,307.316,"[0.04268748109924821,0.15955501706958872]",4.0,"[-0.12293334225017596,-0.05567146982048528]",4.0,"[-0.09058276152843371,0.11658654460286022]",100.0,"[-0.0611029933477454,0.04615755285632667]",4.0,"[-0.033804789018995106,0.16966675297013148]",100.0,"[0.04276830736756991,-0.018686825185038704]",4.0,"[0.19331842639749267,0.017005047745218684]",4.0,"[0.17281690647639397,0.09010373622113876]",4.0,"[-0.08136820157872865,-0.056095495120837224]",4.0,"[0.08153082847484813,-0.029359127568593654]",4.0,"[-0.19070721450363473,0.028213494065248833]",100.0,"[-0.008732753136117455,0.06599017525559794]",100.0,"[0.19758224853563822,-0.02291422690843407]",100.0,"[-0.18098651013501835,-0.042318931172199876]",4.0,"[-0.03050603140616758,-0.12076950440760259]",100.0,"[-0.0893780521870251,-0.0129815586677351]",100.0,"[0.00018913543065009764,0.14343464233444617]",4.0,"[0.07653687609582892,-0.07916367688504196]",100.0,"[-0.1374369212273987,0.05110610668952543]",4.0,"[0.03923430428970527,-0.1007509565032562]",4.0,"[-0.12412070980623224,0.15102015746310068]",100.0,"[-0.15026866648127052,0.006068158649354528]",4.0,"[0.0027165140354932114,0.18911505932575257]",4.0,"[-0.006941095072021323,-0.04837558872712617]",4.0,"[0.009450614700777932,-0.19525885978368593]",4.0,"[-0.13506500834415763,0.10070011584711767]",100.0,"[0.09686906853834315,0.1707057389224828]",100.0,"[0.1599561606138747,-0.07926167887264217]",4.0,"[0.10440637098282259,0.04598319580292815]",100.0,"[-0.10997526404067909,-0.12147712754733325]",100.0,"[0.09079381533366644,-0.15012773939769253]",100.0,"[-0.05767258647066394,0.09172591450460264]",4.0,"[0.02,0.02]",308.3994,0.0,10.0,10.0,128.0,1.0,,,,,,,
,,,,,,,682fc5d8cd077835a5ca6610,6842bad77dafeaad49e0dd09,2025-06-06_05h56.35.954,shape_ratio,2024.1.5,MacIntel,56.81818182,6842b561977af9ba9b0f87ca,,,,,,,,,,,308.3996,308.8832,,,309.1262,309.3698,left,,,,,,,,0.55,0.2248,0.0,,,,,,308.8832,309.1262,309.3699,"[-0.0156297662710638,0.09928209576126254]",100.0,"[-0.1808233242372722,-0.059631292306027296]",4.0,"[0.12732870734456841,-0.13160943551498935]",4.0,"[0.030417857781871307,-0.036661947485414514]",100.0,"[-0.022057519709023792,0.17135502367628072]",100.0,"[0.04163746366490649,0.13620119980932557]",100.0,"[-0.013604393465236416,-0.07943958145820987]",100.0,"[0.13624608817472933,0.028200631649903215]",100.0,"[-0.10800055380894767,0.019155539708898474]",4.0,"[0.09518754996880188,-0.10044205604285462]",4.0,"[-0.05193150555583043,-0.0066552100830741725]",100.0,"[0.026135722542945983,-0.18658677610820987]",4.0,"[-0.15246392437396508,0.0316803752324608]",4.0,"[0.07553172636926081,0.010911443502313704]",100.0,"[0.03518580881201212,0.053988807467352226]",100.0,"[0.1092919186588869,0.13091338579957676]",4.0,"[0.04609024633202631,0.19266790027840897]",4.0,"[0.11176774178971746,-0.025636347775836264]",4.0,"[-0.07489035731761762,-0.04199190892719779]",100.0,"[-0.05109518211302624,0.07841129015294586]",4.0,"[-0.09338267562777984,0.06117813767725724]",100.0,"[-0.13002532706685133,0.11016677129680558]",4.0,"[-0.09749493519310957,0.14846833925151234]",100.0,"[0.045497095414428056,-0.0864395699303769]",100.0,"[-0.03568683416959179,-0.11497182910109703]",100.0,"[0.16691283028493756,-0.10552448360080567]",100.0,"[-0.14245733160876672,-0.011930926822317948]",4.0,"[0.1487796331917413,0.10323960076034133]",4.0,"[-0.1570439055704935,-0.10229884437405444]",100.0,"[-0.016017337445041517,0.05273716835502241]",4.0,"[-0.0032903630777739766,-0.012595174744883761]",100.0,"[0.1875714439203419,-0.037840572868964625]",100.0,"[0.02,0.02]",310.4798,0.0,11.0,11.0,87.0,1.0,,,,,,,
,,,,,,,682fc5d8cd077835a5ca6610,6842bad77dafeaad49e0dd09,2025-06-06_05h56.35.954,shape_ratio,2024.1.5,MacIntel,56.81818182,6842b561977af9ba9b0f87ca,,,,,,,,,,,310.48,310.984,,,311.2203,311.2825,left,,,,,,,,0.9,0.0431,0.0001,,,,,,310.9841,311.2202,311.2825,"[-0.11283245839186559,0.10525814310135227]",100.0,"[0.1600791569831549,-0.00605933023787386]",100.0,"[0.0413807497605687,0.06925223202231377]",4.0,"[-0.18949553074866696,-0.03696556005860119]",100.0,"[0.18295032792527546,-0.05366623118975418]",100.0,"[0.1664242981402111,0.039674160230714454]",100.0,"[0.1056311056390647,-0.020029456283372545]",100.0,"[-0.07804039655217852,-0.1755443867652297]",100.0,"[0.024609432174158202,-0.04518059472295304]",100.0,"[-0.09804709398386723,0.007768113762505557]",100.0,"[0.08526796705350433,0.11947989674490604]",4.0,"[0.147536656073126,-0.10878683434823147]",4.0,"[0.03791260670683666,-0.0031064626912252697]",100.0,"[0.054454837895067006,-0.11632361220437012]",100.0,"[-0.12627522331216118,-0.12518646113002915]",100.0,"[-0.02223676804232443,-0.02487189955960443]",100.0,"[-0.1615670921626057,0.07986476877277382]",100.0,"[0.06540801498273745,-0.05428524181074314]",100.0,"[-0.08106799660693575,-0.03079700315955879]",100.0,"[-0.051175649677375534,0.11135458470699858]",100.0,"[-0.010331370653917336,0.14690605508196794]",100.0,"[0.11072081749147802,0.15084366222362786]",100.0,"[-0.031534600659936685,-0.09959419684540353]",100.0,"[0.06200750518349946,-0.18106190011127993]",100.0,"[0.10501303456741555,-0.1414442101285018]",100.0,"[0.15384235878870414,0.12413504627125135]",100.0,"[-0.10654842846187039,0.16601763307769543]",100.0,"[-0.15537002556476343,-0.009250015895328716]",100.0,"[-0.14899044143606063,-0.07627683583005195]",100.0,"[-0.061896643995646886,0.06486784372148321]",100.0,"[0.09080348370952836,0.027423849160119283]",100.0,"[0.14089076317143198,0.08220053387213726]",100.0,"[0.02,0.02]",312.3827,0.0,12.0,12.0,10.0,1.0,,,,,,,
,,,,,,,682fc5d8cd077835a5ca6610,6842bad77dafeaad49e0dd09,2025-06-06_05h56.35.954,shape_ratio,2024.1.5,MacIntel,56.81818182,6842b561977af9ba9b0f87ca,,,,,,,,,,,312.3829,312.8675,,,313.1149,313.1533,left,,,,,,,,0.6,0.0191,0.0001,,,,,,312.8676,313.1149,313.1533,"[-0.07820790163479706,-0.07480805669055021]",4.0,"[0.08679749146081688,0.05371489990448308]",100.0,"[-0.17935024304642308,-0.02245143621411832]",4.0,"[0.07045363876578357,-0.05733806068259388]",4.0,"[0.12836640680153846,0.027505402251842472]",100.0,"[-0.17579839982763928,0.027549292815605603]",4.0,"[-0.06426860178193058,-0.17858955332093443]",100.0,"[-0.06447611909302024,0.03169210422110096]",100.0,"[-0.11604294912294524,0.15585942102337935]",100.0,"[0.15131168147363347,-0.09773348292511366]",4.0,"[0.025030387515169755,-0.15094262011780285]",4.0,"[0.14400018721255262,0.1385821644926103]",100.0,"[0.06351149624448811,0.11474375237992139]",100.0,"[0.05637786010817137,0.008594940663000457]",100.0,"[0.053248956479990624,0.1905082776710194]",100.0,"[0.08435601994226599,-0.15714053835479563]",4.0,"[0.016438788632834187,0.07177565333434828]",100.0,"[-0.026322803262353926,-0.16382982908542823]",100.0,"[-0.07221324582323942,0.1312021218434645]",100.0,"[-0.023875672324060036,-0.09347302217233655]",100.0,"[0.1583408638058279,0.09178666361771079]",4.0,"[-0.0624508303984519,0.0720076762480959]",100.0,"[-0.12265782134866021,0.04414824918142894]",4.0,"[-0.0409916937111097,0.17016078838896526]",100.0,"[-0.016634459311287573,-0.005580204069667469]",4.0,"[0.17846179177493965,-0.041001079136733565]",4.0,"[0.18194951087992833,-0.0007232760248993357]",100.0,"[-0.13169985765550737,-0.08637632595913021]",4.0,"[0.030934903750320136,-0.0757425782579337]",4.0,"[0.004454078207546771,0.030681221182462925]",100.0,"[0.0956697791027772,-0.020705555313227507]",100.0,"[-0.14776204966012882,0.12739044624294657]",100.0,"[0.02,0.02]",314.2422,0.0,13.0,13.0,40.0,1.0,,,,,,,
,,,,,,,682fc5d8cd077835a5ca6610,6842bad77dafeaad49e0dd09,2025-06-06_05h56.35.954,shape_ratio,2024.1.5,MacIntel,56.81818182,6842b561977af9ba9b0f87ca,,,,,,,,,,,314.2424,314.7478,,,315.0049,315.1678,right,,,,,,,,0.4,0.1436,0.0001,,,,,,314.7478,315.0049,315.1678,"[-0.02411032797223522,-0.12600612246611304]",4.0,"[-0.18753179254443367,0.024646329833770884]",4.0,"[-0.004376803791143018,0.10659349299775117]",4.0,"[-0.08952442098091941,0.018417356317498575]",4.0,"[0.06670000204246772,0.08630984414013014]",100.0,"[0.08457214840930931,0.16995219333555828]",4.0,"[0.017941479051118186,0.06334732401502803]",100.0,"[-0.17310436994398568,-0.07441313518608048]",4.0,"[-0.08258401867238552,-0.1570194353126212]",4.0,"[-0.044367987040942414,0.10984954415751783]",100.0,"[-0.11884858314124692,0.13228636983842496]",4.0,"[0.10420127572925438,0.012376541774700465]",4.0,"[0.09862419583666701,-0.09046020363825688]",4.0,"[-0.08499304596322735,-0.03110038778591442]",100.0,"[-0.10649311622233075,0.06579760153092178]",4.0,"[-0.003814893254011618,-0.1620331052500012]",4.0,"[0.06905108574895381,-0.13923273419262644]",4.0,"[0.18573351877775718,0.06412503335536449]",100.0,"[-0.06225023992749391,0.1650681482597472]",100.0,"[0.13016260744651031,-0.045921608820258183]",4.0,"[0.19107776944278126,0.015142340026034075]",4.0,"[0.06729726299574545,0.1332944005926678]",4.0,"[0.019343026209197617,-0.024654017101941945]",4.0,"[0.17894644761676284,-0.05574751921754043]",100.0,"[0.012397227861118998,-0.07400811218384874]",4.0,"[0.10127917343518233,0.06356999848219404]",100.0,"[0.04672664472869623,-0.10594524812319424]",100.0,"[0.005084220655087666,0.18506700937474957]",4.0,"[-0.18050715963305033,0.07802279030941787]",100.0,"[-0.02520991345894896,0.006017268623710814]",100.0,"[-0.09913501231587551,-0.0817627604837942]",100.0,"[0.1361556872984104,-0.11008902529849285]",100.0,"[0.02,0.02]",316.2736,0.0,14.0,14.0,165.0,1.0,,,,,,,
,,,,,,,682fc5d8cd077835a5ca6610,6842bad77dafeaad49e0dd09,2025-06-06_05h56.35.954,shape_ratio,2024.1.5,MacIntel,56.81818182,6842b561977af9ba9b0f87ca,,,,,,,,,,,316.2738,316.7757,,,317.0162,317.1982,right,,,,,,,,0.9,0.1627,0.0,,,,,,316.7757,317.0161,317.1982,"[-0.08471669900535625,0.09990697281113398]",100.0,"[0.03258557807410361,0.14309031751545626]",100.0,"[-0.13480487314263315,-0.10422395502751611]",100.0,"[-0.07293588312660342,-0.0314277202649112]",100.0,"[0.18318329516363582,-0.06447627530962961]",100.0,"[0.1815278761125622,0.024979580621809525]",100.0,"[0.06817731998176135,-0.18639530422706446]",100.0,"[-0.13708573574682398,-0.0012287133312552274]",100.0,"[0.0028979525648160256,-0.047077643556150954]",4.0,"[0.0728902540802965,0.08447380672126006]",100.0,"[-0.04381389478286036,0.08926510410469944]",100.0,"[0.11511309725931607,-0.056436425906037015]",100.0,"[-0.0952160768991657,-0.12885217404854532]",100.0,"[-0.158048609804754,0.09141130272688312]",100.0,"[0.07376062838190985,-0.06963601002050536]",100.0,"[0.12256088413286084,0.07173266687793776]",100.0,"[-0.013498435800333237,0.17481646552163513]",100.0,"[-0.14426093721501596,0.04064759364762184]",100.0,"[-0.00644974837388587,0.10974610593843513]",100.0,"[-0.011152272138231608,0.030727216958422114]",100.0,"[0.05975137314468134,-0.019161525367605813]",100.0,"[0.05254492546983489,0.028143455485891172]",100.0,"[-0.008002874873348205,-0.14903684585549135]",100.0,"[0.15817720541165295,-0.11938518581014673]",4.0,"[0.11622844815769062,-0.005627097790410408]",4.0,"[-0.09306229804434318,0.05168246863651191]",100.0,"[0.12167502289319786,0.14766672419947358]",100.0,"[-0.18064440972596524,0.0081233300544582]",100.0,"[-0.05292005760952558,-0.11121169381291164]",100.0,"[0.14775961774521035,0.10352169462377064]",100.0,"[0.09287480614946265,-0.12549333626187018]",100.0,"[-0.013900803559301253,-0.08540692788444154]",100.0,"[0.02,0.02]",318.301,0.0,15.0,15.0,24.0,1.0,,,,,,,
,,,,,,,682fc5d8cd077835a5ca6610,6842bad77dafeaad49e0dd09,2025-06-06_05h56.35.954,shape_ratio,2024.1.5,MacIntel,56.81818182,6842b561977af9ba9b0f87ca,,,,,,,,,,,318.3012,318.8024,,,319.0551,319.132,right,,,,,,,,0.9,0.0578,0.0,,,,,,318.8024,319.0551,319.132,"[-0.11219810453289288,0.04271971714563336]",100.0,"[0.10771914307005066,-0.1469403959224505]",100.0,"[0.08760324775096262,-0.04487242296523487]",100.0,"[0.1454989729039411,0.12472614221489085]",100.0,"[0.03797140931953697,0.032403140339480746]",100.0,"[0.1357428948166466,0.05532036218491563]",100.0,"[-0.015822359980099867,0.12049070283933802]",100.0,"[-0.03979579433813964,0.004591924187873988]",100.0,"[0.0666159711098733,0.10987600951940056]",100.0,"[-0.01781431619064303,-0.17108102550134707]",100.0,"[0.19344574796375066,-0.0026574276118572133]",100.0,"[-0.1047359754389368,-0.12497290743240612]",100.0,"[-0.05557859067133681,-0.15245297584050435]",100.0,"[-0.05123898044410611,0.1932391277762859]",100.0,"[-0.0670147017704035,0.12955099095919156]",100.0,"[0.17237027663753784,0.0906403548156277]",100.0,"[0.029239005230213326,-0.010022430098739984]",4.0,"[0.030181920326219584,-0.1770733021462436]",100.0,"[-0.07930568673348226,0.08161131480375153]",100.0,"[-0.1956363165122562,0.021195336786160777]",100.0,"[-0.16015877509501383,0.09297392596272762]",100.0,"[-0.01998201285056179,0.0758448276225566]",100.0,"[-0.007416467080033272,-0.11044073429672759]",100.0,"[-0.016712391846200565,0.1635812127581911]",100.0,"[0.026914311172419242,-0.0587692044420677]",4.0,"[-0.03261697468534347,-0.045103591549566266]",100.0,"[-0.1437047586539434,0.13088652972736814]",4.0,"[0.08187358813184907,0.06545115385597564]",100.0,"[0.07312814195368529,0.008853456018607101]",100.0,"[-0.14917298286598243,-0.05409139037226576]",100.0,"[0.16009155937399625,-0.10506821731092217]",100.0,"[-0.13473515260446833,-0.011765393775241766]",100.0,"[0.02,0.02]",320.2347,0.0,16.0,16.0,11.0,1.0,,,,,,,
,,,,,,,682fc5d8cd077835a5ca6610,6842bad77dafeaad49e0dd09,2025-06-06_05h56.35.954,shape_ratio,2024.1.5,MacIntel,56.81818182,6842b561977af9ba9b0f87ca,,,,,,,,,,,320.2349,320.7359,,,320.9838,321.1241,right,,,,,,,,0.5,0.1208,0.0001,,,,,,320.7359,320.9838,321.1241,"[0.09249749379810812,-0.16752471131728564]",4.0,"[0.09233353433252886,0.16359269660418713]",100.0,"[0.16945485258186266,-0.05955610871055258]",100.0,"[-0.0007377546448355342,-0.12696285668955634]",4.0,"[0.12755602079672665,-0.1135904690165274]",4.0,"[-0.1574788637356524,-0.0021320270661018673]",100.0,"[0.1320823869344856,0.046088335267917425]",4.0,"[-0.027800986438683423,0.0392141645675407]",100.0,"[0.14270822595047705,0.12871039917662663]",100.0,"[0.10130121420080514,0.12296214001328963]",100.0,"[-0.04192639078531897,-0.11215935476083634]",4.0,"[0.11192095543569297,0.01041108212124827]",4.0,"[-0.18600843729346384,0.060702538429827035]",100.0,"[0.19687470924348674,0.009916869194466164]",100.0,"[-0.061053421906106575,-0.029653850126692582]",100.0,"[-0.0871290445176251,0.0943458736486006]",100.0,"[0.001688186701648531,-0.1755117599128719]",4.0,"[-0.1905233834884722,-0.042286668960000794]",100.0,"[0.022739825057800516,0.03028835727604119]",4.0,"[-0.1186372517317145,0.06324594129164234]",4.0,"[-0.10138911356004343,-0.09426535029517018]",4.0,"[-0.07884119588750257,0.016765391241374206]",4.0,"[-0.09662938001190485,-0.049825992933677406]",100.0,"[-0.038780853961951293,0.12107045485143068]",100.0,"[0.061665945607966295,0.09564419840351922]",4.0,"[0.015413722013167302,0.0756506143064458]",100.0,"[-0.08923348974820834,0.16900442666219267]",4.0,"[0.0328642471413155,0.1854996814474616]",100.0,"[0.08831659109118359,-0.09152175946660672]",4.0,"[0.07606973493342191,-0.04083302623675658]",4.0,"[-0.09765790174472494,-0.15983619215902348]",4.0,"[-0.14281155949672536,0.1163145706626042]",100.0,"[0.02,0.02]",322.2249,0.0,17.0,17.0,112.0,1.0,,,,,,,
,,,,,,,682fc5d8cd077835a5ca6610,6842bad77dafeaad49e0dd09,2025-06-06_05h56.35.954,shape_ratio,2024.1.5,MacIntel,56.81818182,6842b561977af9ba9b0f87ca,,,,,,,,,,,322.225,322.7269,,,322.9849,323.0855,right,,,,,,,,0.45,0.0814,0.0,,,,,,322.7269,322.9849,323.0855,"[0.13363614104874996,0.03784732363505975]",100.0,"[-0.008144732614090613,0.16817236991279025]",100.0,"[0.06402770696402263,0.12683408041968425]",4.0,"[0.041674800010156866,-0.10858911602735204]",4.0,"[-0.13703275036505272,-0.049738263298159]",100.0,"[0.1805468976853781,-0.08082663391160132]",4.0,"[-0.02656923739267053,-0.0037333510220064255]",100.0,"[-0.06228948335532824,0.0465440858727124]",100.0,"[0.1498435592336266,-0.12602294032932926]",4.0,"[-0.09416917469692324,-0.1620462905106807]",4.0,"[-0.1366983938709863,0.06482521838970162]",4.0,"[-0.08918063633862386,0.16550313165514438]",4.0,"[-0.059766223192486014,-0.038963533854394224]",4.0,"[-0.07741226680540085,0.10890594615953311]",4.0,"[-0.14287136660567512,-0.13074301255227783]",100.0,"[0.009205767048177044,-0.04681330486003009]",4.0,"[0.04012405725611161,0.015437547058454336]",100.0,"[0.023650713411115264,0.19755202204447808]",100.0,"[-0.05418259065958123,0.14301544265392935]",100.0,"[0.09249854928545996,-0.0652179192728724]",4.0,"[0.09821975171252029,0.07319586141340573]",100.0,"[0.10613654825464622,-0.12188768134990556]",4.0,"[-0.09814686672607614,-0.0748846302191914]",100.0,"[0.10851793843403626,-0.01402082258055617]",4.0,"[0.1404334147422495,0.09556749493829425]",4.0,"[-0.05997408899163752,-0.12137761951305664]",100.0,"[-0.005833569367302779,-0.09856039411420695]",100.0,"[-0.17086984701283955,-0.07891861798755334]",100.0,"[-0.13761092113966614,-0.009367875716996267]",4.0,"[0.07105437087919064,0.18684342100945403]",4.0,"[0.181269846629192,-0.0386322265244706]",4.0,"[-0.0389324867712143,-0.18035128118360588]",4.0,"[0.02,0.02]",324.187,0.0,18.0,18.0,134.0,1.0,,,,,,,
,,,,,,,682fc5d8cd077835a5ca6610,6842bad77dafeaad49e0dd09,2025-06-06_05h56.35.954,shape_ratio,2024.1.5,MacIntel,56.81818182,6842b561977af9ba9b0f87ca,,,,,,,,,,,324.1871,324.6707,,,324.9091,325.0524,right,,,,,,,,0.55,0.1237,0.0002,,,,,,324.6707,324.9091,325.0524,"[0.057367761068476554,0.030003105223274512]",4.0,"[-0.07033918175969753,-0.027615933376684765]",4.0,"[-0.08067116171989747,0.1627143073665634]",4.0,"[0.05971600512803738,-0.08030797471052915]",4.0,"[-0.19006372258946094,-0.04718458039091968]",4.0,"[-0.11494491507240046,0.09112786047717032]",100.0,"[0.0474652779797246,0.1557988154508517]",100.0,"[0.13336062729167547,-0.1158060377975857]",4.0,"[0.04411704635220967,-0.1726647884575415]",4.0,"[0.09169708276649076,-0.12557304181927337]",100.0,"[0.1790454726471482,-0.06826295899226327]",100.0,"[0.183471678449076,0.07294195808751837]",100.0,"[-0.02670155849362792,-0.006191986129550248]",4.0,"[0.009749863688670616,0.17558560667761902]",100.0,"[-0.1250542383354609,-0.11524922911496117]",100.0,"[0.027142667525299955,0.09618879852683522]",4.0,"[0.17615885652169916,-0.0016147865704912532]",100.0,"[0.010786993306729649,-0.0614274651417055]",100.0,"[0.1194245043139919,-0.03206243695834378]",100.0,"[-0.13928277390794835,0.026580174404523645]",100.0,"[-0.1674254925440709,0.05864972015133645]",100.0,"[0.09974470867001754,0.07668002377535227]",100.0,"[-0.01599386744740058,-0.14974784638946986]",100.0,"[-0.06891583065489865,-0.18685028943508364]",100.0,"[-0.1178644559687114,-0.032472816171046213]",4.0,"[-0.0674600502591257,0.06347277207709724]",4.0,"[-0.044850353333638675,0.1861421894939895]",100.0,"[-0.023272643780974628,0.1397794493164984]",4.0,"[-0.07801848455868603,-0.0849350880586029]",4.0,"[-0.023440570042266316,0.06042908308306105]",100.0,"[0.120793907992752,0.03997613254339305]",100.0,"[0.0868470744092006,-0.008038292213435428]",4.0,"[0.02,0.02]",326.1383,0.0,19.0,19.0,73.0,1.0,,,,,,,
,,,,,,,682fc5d8cd077835a5ca6610,6842bad77dafeaad49e0dd09,2025-06-06_05h56.35.954,shape_ratio,2024.1.5,MacIntel,56.81818182,6842b561977af9ba9b0f87ca,,,,,,,,,,,326.1383,326.6224,,,326.8719,326.9744,right,,,,,,,,0.5,0.0825,0.0001,,,,,,326.6224,326.8719,326.9744,"[0.10551864233578973,0.009087526612832726]",4.0,"[0.09494765809963775,0.07124123749181838]",100.0,"[-0.07543968137644172,0.05884469953331654]",4.0,"[-0.1863231109852469,0.031199879144477007]",4.0,"[-0.05213208202001595,-0.13094884866072842]",100.0,"[-0.008590170299332138,0.18702890453426285]",100.0,"[-0.014242684778960103,-0.111908381922349]",4.0,"[0.05446445785406868,-0.12172198783358461]",4.0,"[0.05858919187166878,-0.17088071133630853]",100.0,"[0.03826678921462128,-0.04032831869133176]",4.0,"[-0.13377613779143935,0.031022652235438167]",4.0,"[-0.09344011691553761,0.013671846582181497]",4.0,"[-0.051730741353797634,0.18539475426078258]",4.0,"[-0.0525199034905747,0.1007538058865464]",4.0,"[-0.14678816863816999,-0.10154133166701913]",100.0,"[-0.12036512684443545,0.09844053994900302]",4.0,"[0.058007251874452014,0.144895517849127]",100.0,"[-0.17192819937147624,0.10014892477880348]",100.0,"[0.16414355668910843,-0.08163472971061919]",100.0,"[0.09231479781740057,-0.047204800244905455]",4.0,"[-0.14864554363592938,-0.03963838998865847]",100.0,"[0.11047216098210921,-0.1294157481324093]",100.0,"[0.13617275899909398,0.11985472870013962]",4.0,"[-0.02936831411679044,0.0018210130619628704]",100.0,"[0.00538713497038694,0.10384569649841947]",4.0,"[-0.0933413671174746,0.17345058842287328]",100.0,"[-0.10312530423715827,-0.07139824498192739]",100.0,"[0.040690726807062885,0.07177009115782741]",100.0,"[-0.004321218231154885,-0.19106846277537998]",4.0,"[-0.12256213185020173,-0.15662289724433007]",100.0,"[0.18219981831318724,0.06325341018008038]",100.0,"[0.062022144248535034,0.01450265883015968]",4.0,"[0.02,0.02]",328.0554,0.0,20.0,20.0,105.0,1.0,,,,,,,
,,,,,,,682fc5d8cd077835a5ca6610,6842bad77dafeaad49e0dd09,2025-06-06_05h56.35.954,shape_ratio,2024.1.5,MacIntel,56.81818182,6842b561977af9ba9b0f87ca,,,,,,,,,,,328.0556,328.5394,,,328.7827,328.8807,left,,,,,,,,0.4,0.078,0.0,,,,,,328.5394,328.7827,328.8807,"[-0.028670698225708557,0.1949261448504629]",100.0,"[0.00954489437079008,0.04657136347371322]",4.0,"[-0.06617384123607993,0.0631779316517932]",4.0,"[-0.11579064099570738,0.012523101187107153]",4.0,"[-0.09991791648514503,-0.07914994514242431]",100.0,"[-0.08894290627308904,-0.16525505932853285]",4.0,"[-0.03392353588346815,-0.04832917890962286]",100.0,"[0.11252957629371349,0.06697854986403899]",4.0,"[-0.02504040181354247,0.15331215029885123]",4.0,"[0.09225202295540431,-0.045194743262861166]",100.0,"[0.006257669558625157,-0.1400199362010007]",4.0,"[0.02417513071781507,-0.03623821541651377]",4.0,"[0.17600817289342738,0.020309449678078448]",4.0,"[-0.15645131792966574,0.0017520573206641521]",4.0,"[-0.140891352168022,0.08374945330910528]",4.0,"[0.02313364256837897,0.16960422607797035]",4.0,"[0.017594372686029418,0.09986637005741811]",4.0,"[0.10629393341600231,0.1264769760571264]",4.0,"[0.1447366704012071,0.1112865910399157]",4.0,"[0.08159299324952676,0.17071034187318004]",100.0,"[0.12614559762343125,-0.07452459367977224]",4.0,"[-0.15977653695618046,-0.09029299139245252]",100.0,"[0.07469512165014311,0.032399627107091225]",100.0,"[0.014236398422080146,-0.19925230857916346]",100.0,"[-0.008675756154555982,-0.08548338026235221]",4.0,"[-0.12932869611699618,-0.03147225355545749]",4.0,"[0.024935925352477427,0.0075942219823859885]",100.0,"[-0.1290706943892042,-0.12453504091348265]",4.0,"[0.06326849956418545,0.09977050202382223]",100.0,"[-0.03138662575519872,-0.1217470268091701]",100.0,"[-0.18258455479898836,-0.0476238519248822]",100.0,"[0.0901319385192442,-0.10002484402739961]",100.0,"[0.02,0.02]",329.9715,0.0,21.0,21.0,166.0,1.0,,,,,,,
,,,,,,,682fc5d8cd077835a5ca6610,6842bad77dafeaad49e0dd09,2025-06-06_05h56.35.954,shape_ratio,2024.1.5,MacIntel,56.81818182,6842b561977af9ba9b0f87ca,,,,,,,,,,,329.9717,330.4553,,,330.713,330.7516,left,,,,,,,,0.1,0.0196,0.0,,,,,,330.4553,330.713,330.7516,"[-0.07057668706099347,0.15527124851935403]",4.0,"[0.03428692943410847,0.02572644922526165]",100.0,"[0.04945928909160825,-0.13269870657253754]",4.0,"[-0.16918220830481942,0.027990106995274225]",4.0,"[-0.1136611892193677,0.16139397456997856]",4.0,"[0.03263737316592549,-0.0682745805760339]",4.0,"[-0.11149236499964156,-0.0995768111211256]",4.0,"[0.14102278114482183,0.07467786970448319]",4.0,"[0.18248194891258904,-0.018478686889727213]",4.0,"[0.10025546403185115,-0.047696644131883965]",4.0,"[-0.018134430527185927,0.14815052998603911]",100.0,"[0.03231968939653676,-0.19185334724768457]",4.0,"[0.14523205051323404,-0.10757694358801526]",4.0,"[-0.07782326475244661,-0.15713928525825038]",4.0,"[-0.166557410140582,0.10704048138550182]",4.0,"[-0.08915089150714701,-0.03102204011252006]",100.0,"[0.06400931071920081,0.1653000571650741]",4.0,"[0.08089481319080011,-0.010824156334628498]",4.0,"[-0.00934328013681784,-0.14828750700950571]",4.0,"[-0.0008354786156336704,-0.09680046561310533]",4.0,"[-0.15844598670025536,-0.0236653575826937]",4.0,"[-0.05036097527933526,0.06185223908021063]",4.0,"[0.12050997738188665,0.0016783835784424782]",4.0,"[0.09798729164377969,0.04868605267487005]",4.0,"[0.024693540995628278,0.10828851559886253]",4.0,"[0.001191123670535674,0.18351220287357922]",4.0,"[0.05401939525304743,0.07708623260370191]",4.0,"[-0.03608679619593412,-0.037355972943323164]",4.0,"[-0.11973079961268755,0.12160713428687002]",4.0,"[-0.12852009264088088,-0.1496662279197672]",4.0,"[0.008585412586368954,0.06915708699436433]",4.0,"[0.10115688198535029,-0.16499425351144356]",4.0,"[0.02,0.02]",331.8557,0.0,22.0,22.0,206.0,1.0,,,,,,,
,,,,,,,682fc5d8cd077835a5ca6610,6842bad77dafeaad49e0dd09,2025-06-06_05h56.35.954,shape_ratio,2024.1.5,MacIntel,56.81818182,6842b561977af9ba9b0f87ca,,,,,,,,,,,331.8558,332.3388,,,332.5884,332.7691,left,,,,,,,,0.4,0.1612,0.0,,,,,,332.3388,332.5884,332.7691,"[-0.14381217047677822,0.02838965318814426]",4.0,"[-0.030958656174045716,-0.19475279835280085]",100.0,"[-0.02461028291737657,0.058020345856098096]",4.0,"[-0.00015365691673652088,0.00584158013710689]",100.0,"[-0.07165674803030012,-0.1583061889718019]",100.0,"[-0.028795589451934066,0.15439575185744567]",100.0,"[0.09653714327660227,-0.1511775219350006]",100.0,"[-0.0741706882923954,0.09878413948651306]",4.0,"[-0.09332762360068413,-0.05451491430883666]",4.0,"[0.08604192155274888,0.16120196674388418]",4.0,"[0.14542422973388539,-0.11529535890855563]",4.0,"[-0.016993067465575887,-0.0770084331884573]",4.0,"[-0.13797681499110503,-0.05586849595119014]",100.0,"[0.04926250460211606,-0.003392335388358872]",4.0,"[0.1283831709966993,-0.029741872046406645]",4.0,"[0.1965085878755488,-0.019431958202451246]",4.0,"[-0.11425677730950679,-0.12825479359855027]",100.0,"[0.05385920505632546,-0.11793484587412931]",4.0,"[-0.07657456198586533,0.019458820781790974]",100.0,"[0.08164382612960557,-0.048390394055315464]",100.0,"[-0.0021471079982787146,-0.03775349572819605]",100.0,"[0.11280381343436763,-0.07352142986643011]",4.0,"[0.15548008666281427,0.10552153561676347]",100.0,"[0.00233137642601412,-0.1464327802090555]",100.0,"[0.1539880201687948,0.014228168382382724]",4.0,"[0.008932708492096408,0.11294490833740917]",100.0,"[0.06514893022507523,-0.1816435369467743]",4.0,"[0.02966779746344495,0.1493939853666946]",4.0,"[-0.15850850375021064,0.09714156519278865]",4.0,"[-0.1769118823298861,0.05894848896503188]",4.0,"[0.12327004973916912,0.07547061638889398]",4.0,"[-0.1618112578847444,-0.007422717145751438]",4.0,"[0.02,0.02]",333.8678,0.0,23.0,23.0,163.0,1.0,,,,,,,
,,,,,,,682fc5d8cd077835a5ca6610,6842bad77dafeaad49e0dd09,2025-06-06_05h56.35.954,shape_ratio,2024.1.5,MacIntel,56.81818182,6842b561977af9ba9b0f87ca,,,,,,,,,,,333.8681,334.3737,,,334.6284,334.6896,left,,,,,,,,0.9,0.043,0.0001,,,,,,334.3737,334.6284,334.6896,"[-0.12578540306970842,-0.09462504424871893]",100.0,"[0.17899095489360575,-0.0256640163136924]",100.0,"[-0.07087554231868662,0.0790607748082579]",100.0,"[0.14469835320745816,-0.1269406736735053]",100.0,"[0.06668531356023803,0.13967332334515925]",100.0,"[0.09724038444824291,-0.01193867579353833]",100.0,"[0.1082072712613411,0.04953754355173929]",100.0,"[-0.12559666432793223,-0.047775028720433516]",100.0,"[0.03499972689505512,0.19237126105498317]",100.0,"[-0.06958015343085405,0.18739087431597634]",100.0,"[-0.024177483453116995,-0.12856281083017784]",100.0,"[-0.01276997751783687,-0.06115870525368372]",100.0,"[0.11973825689913783,-0.08637965332618397]",100.0,"[-0.027814738890172573,0.1711211227523084]",100.0,"[-0.011287426410583772,0.054036901928310316]",100.0,"[0.111719050239226,0.12382712080206287]",100.0,"[-0.14180941429939584,0.07589963732913867]",100.0,"[0.0629693118003085,-0.15255012124592893]",100.0,"[-0.0590185880054031,-0.10122647710663113]",100.0,"[0.016600642167680004,0.10145166157519274]",100.0,"[0.10398948266760843,0.16567862312569215]",100.0,"[-0.13326049496243578,0.0010382463066584285]",4.0,"[-0.054036543808201686,0.13975088799733712]",100.0,"[0.03060368993095598,0.02403321099118465]",4.0,"[-0.08057058198985588,-0.05587981780438576]",100.0,"[0.12830375015112513,-0.04060963215045064]",100.0,"[0.16751810564079506,0.06927057905602506]",100.0,"[-0.12706574981893082,-0.13720960580574604]",100.0,"[0.07190356446619478,0.06905149335483866]",4.0,"[-0.1821434976880381,0.06655674263902303]",100.0,"[-0.0648451121189463,-0.18807122228057396]",100.0,"[0.15977016717196654,-0.07395495706350551]",100.0,"[0.02,0.02]",335.7738,0.0,24.0,24.0,17.0,1.0,,,,,,,
,,,,,,,682fc5d8cd077835a5ca6610,6842bad77dafeaad49e0dd09,2025-06-06_05h56.35.954,shape_ratio,2024.1.5,MacIntel,56.81818182,6842b561977af9ba9b0f87ca,,,,,,,,,,,335.7739,336.261,,,336.5156,336.6156,left,,,,,,,,0.4,0.0783,0.0001,,,,,,336.261,336.5155,336.6157,"[0.014317687160130835,-0.1621319313777613]",4.0,"[-0.1326505094624352,-0.10870042380076196]",100.0,"[0.14122342030771534,-0.0950867089497526]",100.0,"[0.017745995147121628,0.07479139243759513]",100.0,"[-0.013360989237810173,-0.08466404635955019]",4.0,"[-0.12704120665363247,0.0008086787906558978]",4.0,"[-0.12351596948426337,-0.14833077919429954]",100.0,"[-0.05871938524210436,-0.14641738214863614]",4.0,"[0.10654084684102857,0.0987464169868367]",4.0,"[-0.07557083344561394,0.009946214108693879]",4.0,"[-0.02901533023506519,0.06786949498451153]",100.0,"[-0.07692057543037921,0.08963775720885307]",100.0,"[-0.021882281206044112,0.17999379096589477]",100.0,"[0.103280536312224,-0.029904766663082137]",4.0,"[0.09355224143367996,0.051022506611490374]",4.0,"[-0.018081825151014634,0.12431247496261495]",4.0,"[0.0653422286062617,-0.08924582729522451]",4.0,"[0.008247115832444744,0.02440672354535574]",4.0,"[0.10483902561187854,-0.14225468603852431]",4.0,"[0.13125207505102662,0.009786142329452078]",100.0,"[0.12222048599820468,0.15329535202227473]",4.0,"[-0.16466801867801623,0.062424987097369204]",100.0,"[-0.05750877615574826,-0.10431636755852547]",100.0,"[0.18888547526946328,-0.042887199760083504]",100.0,"[0.05719535090207384,0.03095049446820394]",4.0,"[0.152619840066044,0.047197818999292124]",100.0,"[-0.18256353165921516,-0.07200133884163182]",4.0,"[-0.08124756143038583,0.17391939864229072]",100.0,"[-0.16154551880977036,-0.028670328977605006]",4.0,"[0.08005392050960453,0.1441997700337275]",4.0,"[0.03539282739434159,0.14512729210211792]",4.0,"[-0.16101945656405126,0.10858746471820786]",4.0,"[0.02,0.02]",337.7053,0.0,25.0,25.0,150.0,1.0,,,,,,,
,,,,,,,682fc5d8cd077835a5ca6610,6842bad77dafeaad49e0dd09,2025-06-06_05h56.35.954,shape_ratio,2024.1.5,MacIntel,56.81818182,6842b561977af9ba9b0f87ca,,,,,,,,,,,337.7055,338.2075,,,338.4407,338.54,left,,,,,,,,0.9,0.0805,0.0001,,,,,,338.2075,338.4406,338.54,"[0.18341222641721616,-0.010075582795744326]",100.0,"[-0.1181998682059055,-0.04215173697695798]",100.0,"[-0.019445546386179787,0.1730307366128532]",100.0,"[-0.012147491071746543,0.0670231679942258]",100.0,"[0.03975629307919111,0.006407940508775713]",100.0,"[-0.08753307444818627,0.14289560050529504]",100.0,"[-0.15089816666963046,0.02041745643671018]",100.0,"[-0.09997411599650106,0.027188386776871597]",100.0,"[0.0770410086710004,0.09746191704801242]",100.0,"[0.13771290566960623,0.10525446598732698]",100.0,"[0.027811748848321115,0.08065344010343627]",100.0,"[-0.09650620692107757,-0.13166779113317775]",100.0,"[0.050977486431193195,0.14707221540660745]",100.0,"[0.14283291417421923,-0.11427776118703625]",100.0,"[0.033618944358655846,-0.050478317136561576]",100.0,"[0.08330405301262529,0.028071766609061608]",100.0,"[-0.07624276117937535,0.08483938396970703]",100.0,"[0.09634099748886064,-0.08908386874500758]",100.0,"[-0.1928870202511541,-0.04227147480892394]",4.0,"[-0.13440792401253746,0.1174449660445072]",100.0,"[-0.05893508539719318,0.009922484252514218]",100.0,"[0.14313397851893536,-0.002800878201579715]",100.0,"[0.031739420299479564,-0.12502282772200862]",100.0,"[-0.005747747096342557,0.020664666952298183]",4.0,"[-0.15376660102657158,-0.021010510866678087]",100.0,"[-0.018248310148700965,-0.06560428096561027]",100.0,"[0.17299215708996152,-0.08185313806994361]",100.0,"[0.08991311513432845,-0.17770760853780515]",100.0,"[0.0032452538023725634,0.1239192512456083]",100.0,"[-0.08062273770758037,-0.027846768742706304]",4.0,"[0.0858363927703552,0.17223858149110766]",100.0,"[0.016923212935093898,0.19753922088736336]",100.0,"[0.02,0.02]",339.6285,0.0,26.0,26.0,28.0,1.0,,,,,,,
,,,,,,,682fc5d8cd077835a5ca6610,6842bad77dafeaad49e0dd09,2025-06-06_05h56.35.954,shape_ratio,2024.1.5,MacIntel,56.81818182,6842b561977af9ba9b0f87ca,,,,,,,,,,,339.6287,340.1362,,,340.3742,340.4539,left,,,,,,,,0.6,0.0609,0.0001,,,,,,340.1362,340.3742,340.454,"[-0.004145236972578149,-0.08379294917542023]",100.0,"[-0.12668069169223262,-0.12558569678500692]",4.0,"[0.06140635256319115,0.038397596718505636]",4.0,"[-0.07834272458034046,-0.05843903322205884]",100.0,"[-0.025278037136883334,0.0497698763738146]",100.0,"[0.067502265007963,0.08429561791295175]",100.0,"[0.0803533883782646,0.1667727950062074]",100.0,"[0.05633791691318956,-0.012842826933099896]",100.0,"[0.0383950139083221,0.15377023825535552]",100.0,"[-0.17409883192021333,-0.017739606339532248]",4.0,"[-0.06421132809598867,0.10583255922408454]",4.0,"[0.14117257260416805,0.042114241420978235]",100.0,"[0.13155465743933334,-0.14361737846978043]",4.0,"[0.12303448384863792,0.1056183606058276]",4.0,"[-0.12554070655312116,0.08167707215104619]",100.0,"[0.12219093224032396,-0.004502227621255767]",4.0,"[-0.1327177238695913,0.009388847883213742]",100.0,"[0.18655227463548482,0.0015021253077932507]",4.0,"[-0.0580159260731682,-0.18355446480009455]",100.0,"[-0.06546752578706208,0.03716219874440177]",100.0,"[-0.06599799510837483,-0.13647043601985662]",100.0,"[-0.08760207647379444,0.00008878473306303918]",4.0,"[0.08283928971100378,-0.10916321107755943]",100.0,"[-0.016380220098937772,0.18297690065017932]",100.0,"[-0.0376013447413426,-0.0011457856708236515]",100.0,"[0.0681484538775653,-0.055987100919531026]",4.0,"[-0.008895889850668762,-0.1797102162099262]",4.0,"[-0.05869174631762612,0.18143902139242782]",100.0,"[-0.12158745036444588,-0.06144869546677093]",4.0,"[0.011748524888467712,0.07593299272263253]",100.0,"[0.039761621420605985,-0.1498080152599676]",4.0,"[-0.03741169443504771,-0.0441416244858361]",100.0,"[0.02,0.02]",341.5416,0.0,27.0,27.0,57.0,1.0,,,,,,,
,,,,,,,682fc5d8cd077835a5ca6610,6842bad77dafeaad49e0dd09,2025-06-06_05h56.35.954,shape_ratio,2024.1.5,MacIntel,56.81818182,6842b561977af9ba9b0f87ca,,,,,,,,,,,341.5418,342.0467,,,342.2776,342.5273,right,,,,,,,,0.5,0.2308,0.0,,,,,,342.0467,342.2775,342.5273,"[0.18667853868462334,0.022876619755444836]",4.0,"[-0.06350481868863073,0.13130261163392515]",100.0,"[0.06081378786152809,0.11758829206927035]",4.0,"[0.10609483441957826,-0.1615857230550561]",100.0,"[0.030945077521047866,0.07519868139984733]",100.0,"[-0.11619239027011202,0.03218248777077557]",100.0,"[0.13911244415327106,-0.07349848060047115]",4.0,"[-0.15413665468922166,-0.03948075495374899]",4.0,"[0.01930754832486067,0.16848398551530339]",4.0,"[-0.08077302226561081,0.16864579042488312]",4.0,"[-0.18085571382718524,0.05775086062486429]",100.0,"[-0.10412368811455093,-0.11541751863289995]",100.0,"[0.024873063043261232,0.013788891640061054]",100.0,"[-0.1631304056209169,-0.10952247569097373]",4.0,"[0.12176049151560892,0.10228184610200065]",100.0,"[-0.13415105195890834,0.10688556677545422]",4.0,"[0.07254360419709127,-0.04552379387169204]",100.0,"[0.15530277388273636,0.052905793572111635]",100.0,"[-0.055081830899621376,0.08161284803113093]",100.0,"[-0.09430882220553023,0.06883750893177443]",100.0,"[0.07257370561156681,0.17204190087357402]",100.0,"[-0.02492231756309927,0.17075854484611008]",4.0,"[0.11214326795511077,0.029246516256327862]",4.0,"[-0.06146261527287992,0.03888658036361874]",4.0,"[-0.1133806432676211,-0.06732385231518523]",4.0,"[0.06822628893707665,0.0008466311389121263]",4.0,"[-0.1725380343067716,-0.0012396425240733863]",100.0,"[-0.03621745933267546,-0.0010097495465966296]",4.0,"[-0.0002343659006021032,-0.05661414343311891]",4.0,"[0.04657781097546264,-0.1058993518518851]",100.0,"[-0.038690460799321,-0.1427667470242194]",4.0,"[-0.09853279187923027,-0.011480061346970917]",100.0,"[0.02,0.02]",343.6208,0.0,28.0,28.0,102.0,1.0,,,,,,,
,,,,,,,682fc5d8cd077835a5ca6610,6842bad77dafeaad49e0dd09,2025-06-06_05h56.35.954,shape_ratio,2024.1.5,MacIntel,56.81818182,6842b561977af9ba9b0f87ca,,,,,,,,,,,343.6209,344.1255,,,344.375,344.4526,right,,,,,,,,0.9,0.0585,0.0,,,,,,344.1255,344.375,344.4526,"[-0.027926278766114702,0.13876733121148746]",4.0,"[0.043739706922404004,-0.149334131823001]",4.0,"[-0.09248085270591981,0.019021486580772316]",100.0,"[0.08638092094572665,-0.016714665713743436]",100.0,"[-0.03910688935139229,-0.0360573251841438]",100.0,"[-0.14199131255899777,0.04394706644368646]",100.0,"[-0.01666590450672675,-0.15512052866841294]",100.0,"[0.12862588755102766,0.04484794925756951]",100.0,"[0.1120891710733422,-0.14289184508392527]",100.0,"[-0.041846704739418046,0.03364601672135359]",100.0,"[-0.10015181652384088,0.14912485191208721]",100.0,"[0.04479440764893013,-0.05863014476737077]",100.0,"[-0.15673626742002836,-0.042495603028992135]",100.0,"[0.10555004496876447,0.08205271699753387]",100.0,"[-0.08861433014297514,-0.1685072113870075]",100.0,"[0.14241029861252388,-0.07555266235839243]",100.0,"[0.07341992611473076,0.16331600966286605]",100.0,"[0.005084809670778072,-0.11776583536393664]",100.0,"[-0.06072655393082077,0.16399567648305563]",4.0,"[-0.13691815077892694,-0.11906430853976285]",100.0,"[-0.09162159980217094,-0.09332264988074084]",100.0,"[-0.03248356212147829,-0.10208512847979156]",100.0,"[0.1791195274339516,-0.04663776254056157]",100.0,"[-0.004139109281664744,-0.06146696181293176]",100.0,"[0.0353775673666768,0.18074904996743021]",100.0,"[0.0235041714427565,-0.19576541433605715]",100.0,"[0.0051217789974819595,-0.019214975279316558]",100.0,"[0.18806074020668262,0.04946123029731692]",100.0,"[-0.009004565318686994,0.08920537962768603]",100.0,"[0.16640493673380533,0.0899098262463776]",100.0,"[-0.14034251816662285,0.1301289092036926]",100.0,"[0.08457381992521328,-0.08795398264681785]",100.0,"[0.02,0.02]",345.5403,0.0,29.0,29.0,21.0,1.0,,,,,,,
,,,,,,,682fc5d8cd077835a5ca6610,6842bad77dafeaad49e0dd09,2025-06-06_05h56.35.954,shape_ratio,2024.1.5,MacIntel,56.81818182,6842b561977af9ba9b0f87ca,,,,,,,,,,,345.5404,346.0307,,,346.2783,346.3172,right,,,,,,,,0.6,0.0199,0.0,,,,,,346.0307,346.2783,346.3173,"[0.14214372563241903,0.0038650841449527915]",100.0,"[-0.05976411175635773,0.08269727914708142]",100.0,"[-0.1787874846165344,-0.05258849433836789]",100.0,"[-0.003901467419068951,-0.13675684744805525]",4.0,"[-0.09636666509356023,-0.040912852239800374]",4.0,"[0.13172316063892323,0.08441505143856931]",4.0,"[0.07616062433397647,0.09236895872065164]",100.0,"[0.10188303745055388,-0.1548164016977724]",100.0,"[-0.03079910267224813,0.01997677264786548]",100.0,"[-0.11049924040939374,-0.10302826621319892]",100.0,"[-0.1635570573045253,0.03650561857014873]",100.0,"[0.01693748688909609,0.08236847350882805]",100.0,"[0.044396248530586026,-0.014586869162407194]",4.0,"[-0.08052932981618087,-0.14127384793728273]",4.0,"[-0.0382795607931399,-0.0253230718923102]",100.0,"[0.06391901491228112,-0.0651895071165217]",4.0,"[-0.11929471519724952,0.10841384981846114]",4.0,"[0.042634660866395946,0.04792422871495563]",4.0,"[-0.022612077312777767,0.169217259086995]",100.0,"[0.06368609288223943,0.1543550646644864]",100.0,"[0.12670787512001586,-0.10375395932992916]",100.0,"[0.10696352931428708,-0.04037157835423182]",100.0,"[-0.12266074482821822,0.05286034448790554]",100.0,"[-0.020817384190788497,0.12309479660773433]",4.0,"[-0.015975341873642072,-0.18770777359532545]",100.0,"[-0.07951513862804395,0.0060727481770007615]",100.0,"[-0.169469071569673,0.10466039638700976]",100.0,"[0.022792991332782873,-0.17104615307496943]",100.0,"[0.16933004072353333,-0.054251534273019736]",4.0,"[0.17258903911685375,0.07610386857747573]",4.0,"[-0.138082250305826,-0.04260873378353585]",4.0,"[0.0908218868334983,-0.0006185535407100234]",4.0,"[0.02,0.02]",347.409,0.0,30.0,30.0,39.0,1.0,,,,,,,
,,,,,,,682fc5d8cd077835a5ca6610,6842bad77dafeaad49e0dd09,2025-06-06_05h56.35.954,shape_ratio,2024.1.5,MacIntel,56.81818182,6842b561977af9ba9b0f87ca,,,,,,,,,,,347.4092,347.8968,,,348.1446,348.2623,right,,,,,,,,0.9,0.0987,0.0001,,,,,,347.8969,348.1446,348.2624,"[0.0969559214749362,0.05336445710747453]",100.0,"[-0.07308105361193479,-0.1501344951462324]",100.0,"[-0.13030200920327487,0.010683232304486418]",100.0,"[0.03542419049862243,-0.10134211987563317]",100.0,"[-0.1179856350208553,0.12414945623129349]",100.0,"[-0.035113979659510845,-0.13637664261595459]",4.0,"[-0.034296285537768784,0.006053694962790811]",4.0,"[0.007630532141981619,-0.16137718467064474]",100.0,"[0.03470058882362016,0.0023231467184924998]",100.0,"[-0.05127827482043073,0.18272077885430085]",4.0,"[0.04772492397504304,0.05326589546394536]",100.0,"[-0.08047689800545448,0.10931236542114875]",100.0,"[-0.1104976367480168,0.060992125298616154]",100.0,"[-0.0026979952300495644,-0.04301086951064979]",100.0,"[0.13787108257212793,-0.13281616083727157]",100.0,"[-0.1451340418054508,-0.04792314186928727]",100.0,"[0.1232577677629606,0.1532324046132106]",100.0,"[0.1796341879009744,-0.05813287360563791]",100.0,"[0.14276787610465022,-0.02147650158151303]",100.0,"[-0.1672994893007701,-0.10124450923559092]",100.0,"[-0.12621966025156614,-0.12930482974030566]",100.0,"[0.11447906997352982,0.11188788128354113]",100.0,"[0.007477620884978274,0.11309420764186115]",100.0,"[0.08935761693621344,-0.14301241400477527]",100.0,"[-0.0858651745460139,0.007401710846724915]",100.0,"[0.05012710193259342,-0.17885109224004703]",100.0,"[0.05268975283846656,0.14629015616296046]",100.0,"[-0.0938979670544424,-0.08617160710460493]",100.0,"[-0.17758079029460294,0.04385059067254249]",100.0,"[-0.036651520653248816,-0.07819662799516934]",100.0,"[-0.09960339599842158,-0.04111209744440049]",100.0,"[0.15288486803618376,0.03286474190713633]",100.0,"[0.02,0.02]",349.3506,0.0,31.0,31.0,12.0,1.0,,,,,,,
,,,,,,,682fc5d8cd077835a5ca6610,6842bad77dafeaad49e0dd09,2025-06-06_05h56.35.954,shape_ratio,2024.1.5,MacIntel,56.81818182,6842b561977af9ba9b0f87ca,,,,,,,,,,,349.3508,349.856,,,350.0971,350.1543,right,,,,,,,,0.55,0.0383,0.0,,,,,,349.856,350.0971,350.1543,"[-0.08344305914033451,0.10711031689604619]",100.0,"[-0.0005458533237432941,-0.12210528704440193]",100.0,"[0.019679527303104755,0.10265105833541932]",4.0,"[-0.011547844383596654,-0.03281536175283737]",4.0,"[-0.13055508400706295,0.10868833680489506]",4.0,"[0.12649431418109436,0.13195819833666664]",4.0,"[0.07000791511911024,0.020344278895750006]",4.0,"[0.14780525358944516,0.029510859746236715]",4.0,"[-0.17573934099534844,-0.08648121026886593]",100.0,"[-0.08938293085119771,-0.11902263873898312]",100.0,"[0.028013277215994975,-0.09038164772894912]",4.0,"[-0.16142969627772769,0.040130848826536426]",100.0,"[0.06646161864359139,0.06701637881688079]",4.0,"[-0.09963916603807935,-0.06774731486317544]",4.0,"[0.014907386821921708,0.17742954240825487]",100.0,"[-0.04747314053451294,0.0018295297213897464]",4.0,"[-0.033067498736513455,0.14348807723159201]",100.0,"[0.03995135062348748,0.13909202030483808]",100.0,"[0.07349888821775587,-0.1334856453386956]",100.0,"[0.0956067683857706,-0.07020437260848783]",100.0,"[0.19890019376873402,0.0170952238669366]",4.0,"[0.15759765898449504,-0.08633808167080957]",100.0,"[-0.04914340969512738,-0.1324786395398722]",4.0,"[-0.09271879534551226,-0.016877623969176376]",100.0,"[-0.08370738123966986,0.042498708080649816]",100.0,"[-0.030696514436320262,-0.08754646501043128]",100.0,"[0.15836872291580525,-0.017844411579355495]",100.0,"[-0.03727552255165412,0.09181066835768442]",4.0,"[-0.011119241429986371,0.023831054434757085]",100.0,"[-0.07490880579005786,-0.16665613009085956]",100.0,"[0.12941741381139205,-0.14094944693252592]",4.0,"[-0.09850703826168183,0.15487468694560969]",100.0,"[0.02,0.02]",351.252,0.0,32.0,32.0,80.0,1.0,,,,,,,
,,,,,,,682fc5d8cd077835a5ca6610,6842bad77dafeaad49e0dd09,2025-06-06_05h56.35.954,shape_ratio,2024.1.5,MacIntel,56.81818182,6842b561977af9ba9b0f87ca,,,,,,,,,,,351.2523,351.7278,,,351.9724,352.0485,right,,,,,,,,0.5,0.057,0.0001,,,,,,351.7279,351.9724,352.0485,"[0.10637673314359809,0.037547980563539425]",100.0,"[-0.017236231159801385,-0.11168605624180071]",4.0,"[-0.1280999047301391,-0.07780460672681624]",4.0,"[-0.1069840262605342,0.008884792634992185]",100.0,"[0.060196368186073546,0.05099949806878444]",100.0,"[0.16082763737700367,0.03538964775813555]",4.0,"[-0.006631737614817771,-0.05080380201541778]",4.0,"[-0.09599536494578159,-0.13308134751861395]",4.0,"[0.009497995765477952,0.07158230964387627]",4.0,"[0.03948274280994403,0.1538624037962514]",4.0,"[-0.03339404057056867,0.08177855060847478]",4.0,"[-0.024548055929545357,0.17375308182404126]",100.0,"[0.153563097889036,-0.05195331996263378]",4.0,"[-0.1948871076900859,-0.024122500947120276]",4.0,"[0.13025473153875095,0.002510881320065676]",100.0,"[0.11842575121579972,0.11909104732492869]",4.0,"[-0.04949593866173287,0.039041154191696584]",4.0,"[-0.04508982444041345,-0.03741209892888586]",100.0,"[0.03226170750720692,0.02213277659995529]",100.0,"[-0.03726965489946831,-0.16482897567672591]",100.0,"[0.03302122712552169,-0.1061121675643003]",100.0,"[0.037224704353380975,-0.047304110217397104]",4.0,"[-0.15688015786318024,-0.11270111527952253]",100.0,"[0.07221676194230926,-0.09503087666668227]",4.0,"[0.12033556072525738,-0.1134318853598972]",4.0,"[-0.1609460128827595,0.1064567799503922]",100.0,"[0.02472389879365913,0.19153176132241825]",100.0,"[-0.13047313634145927,0.0771007082573405]",100.0,"[0.07838383241419176,-0.016980218939619214]",4.0,"[-0.0014763178316112516,-0.006678549083183738]",100.0,"[-0.14901231002260287,-0.028370784467355872]",100.0,"[-0.09645728796088934,-0.034739690324633046]",100.0,"[0.02,0.02]",353.1519,0.0,33.0,33.0,110.0,1.0,,,,,,,
,,,,,,,682fc5d8cd077835a5ca6610,6842bad77dafeaad49e0dd09,2025-06-06_05h56.35.954,shape_ratio,2024.1.5,MacIntel,56.81818182,6842b561977af9ba9b0f87ca,,,,,,,,,,,353.1522,353.6405,,,353.893,353.9698,right,,,,,,,,0.9,0.0578,0.0,,,,,,353.6405,353.8929,353.9698,"[-0.08940091182109532,0.08448030961819973]",100.0,"[0.10469654786176583,0.13242573539441108]",100.0,"[0.0032638096538093525,0.040559958015726656]",100.0,"[0.025318464471094725,-0.053629577770137035]",100.0,"[-0.1527740260584618,0.01822419517379113]",100.0,"[0.11816624382690263,-0.005900497394534553]",100.0,"[-0.12599918790219616,-0.012318468709878544]",100.0,"[-0.04688220166548407,0.06382462417925694]",100.0,"[-0.01776607192230783,-0.03038956418785002]",100.0,"[0.07414086711762982,-0.004733432153271099]",100.0,"[-0.037129828133014006,-0.09976760926840875]",100.0,"[-0.17031862401125183,0.09425096240023079]",100.0,"[0.046000139357375715,0.19094487079968597]",100.0,"[0.15658066499937787,0.11094703690571193]",100.0,"[0.007104652190881289,-0.15146610039033476]",100.0,"[0.04325387287347865,0.13690244371110163]",100.0,"[-0.061969043604907105,0.14229011180983916]",100.0,"[0.054875132698052595,-0.09671090571773697]",100.0,"[0.1799672738398069,-0.014127847266925307]",100.0,"[0.006978858206460639,0.11233491861555422]",4.0,"[0.007378496042514092,-0.11093849627735643]",100.0,"[-0.1620540978068803,-0.055876915538349566]",4.0,"[0.17168350408046906,-0.07943262269238978]",100.0,"[0.1691446615164141,0.038632192753266674]",100.0,"[0.11195669939426178,0.053911891484689854]",100.0,"[-0.002354191466992618,0.1975309587833536]",100.0,"[0.1258440292834569,-0.0457895183346965]",100.0,"[-0.09003927362462129,-0.05621281970179084]",100.0,"[0.07555658291444906,-0.15826881881126187]",100.0,"[-0.10354423383266327,-0.1379919000325743]",100.0,"[0.1180950484039735,-0.12808671619935885]",4.0,"[-0.12370535363404417,0.11346583319694752]",100.0,"[0.02,0.02]",355.0597,0.0,34.0,34.0,20.0,1.0,,,,,,,
,,,,,,,682fc5d8cd077835a5ca6610,6842bad77dafeaad49e0dd09,2025-06-06_05h56.35.954,shape_ratio,2024.1.5,MacIntel,56.81818182,6842b561977af9ba9b0f87ca,,,,,,,,,,,355.0599,355.5503,,,355.7885,357.2823,,,,,,,,,0.45,,,,,,,,355.5503,355.7885,357.2823,"[0.1807860666782466,-0.043790749959921146]",4.0,"[-0.062232391379044544,-0.047229203161321585]",4.0,"[0.02822610103903928,-0.08506637940674666]",100.0,"[-0.10048949980880231,0.0968295612438294]",100.0,"[0.031784146099465546,0.06872260598533556]",4.0,"[0.11493666464941867,-0.00020665553733079025]",4.0,"[0.06390447943489733,-0.1632907725814078]",4.0,"[0.039488600501393994,0.11664453704979136]",100.0,"[0.10963208164612984,0.151112247779409]",100.0,"[-0.08426674751577465,0.16554092121939107]",4.0,"[-0.15083598800652198,-0.06758947541974476]",100.0,"[-0.1343873130570023,-0.1474524286709969]",100.0,"[-0.14772173273103084,0.052942902616834715]",100.0,"[0.0685256699362949,-0.029618946701184493]",4.0,"[-0.03465419137818352,0.165019356646921]",4.0,"[-0.024056494392086514,-0.16135738415655718]",100.0,"[0.023288695769493245,0.17315057583050525]",4.0,"[0.06906696270191658,0.016504180003824347]",4.0,"[-0.07986554005174953,-0.09578594695179042]",100.0,"[0.13390602326869516,-0.07808237044397308]",4.0,"[-0.038266704501168126,-0.1070967108304539]",4.0,"[-0.06740499519223711,-0.17972291288426642]",4.0,"[0.07320825947694033,-0.10718548920149408]",4.0,"[0.018515870072665853,-0.009242705746126208]",100.0,"[-0.06482242483195619,0.029503265945762205]",100.0,"[0.111402171456038,-0.14825333068801813]",4.0,"[-0.02390309589405151,0.018190054118273364]",100.0,"[-0.11612988111837641,0.002625354879323119]",100.0,"[0.01080432019449586,-0.13618644373214456]",4.0,"[0.1168820201419023,0.04864651829720969]",4.0,"[-0.13607080181295778,-0.10484860936880977]",100.0,"[0.0871843099695486,-0.06521074275678974]",4.0,"[0.02,0.02]",358.3866,0.0,35.0,35.0,145.0,1.0,,,,,,,
,,,,,,,682fc5d8cd077835a5ca6610,6842bad77dafeaad49e0dd09,2025-06-06_05h56.35.954,shape_ratio,2024.1.5,MacIntel,56.81818182,6842b561977af9ba9b0f87ca,,,,,,,,,,,358.3867,358.8756,,,359.1191,359.3696,left,,,,,,,,0.6,0.2317,0.0001,,,,,,358.8757,359.1191,359.3696,"[-0.07964847999824073,-0.009084258496430006]",100.0,"[0.11880640568797404,0.11501667573841272]",100.0,"[-0.18349029881362092,0.0270772463032871]",4.0,"[0.011733479388633448,-0.17323167232204767]",4.0,"[-0.0984712392737869,0.07537101913903411]",4.0,"[-0.07961416485779421,0.03557142789377882]",100.0,"[-0.15466431114945153,-0.09318573385102742]",100.0,"[0.09425407654870181,-0.15524546169935585]",100.0,"[-0.0063997225496897165,0.0964340772206504]",4.0,"[-0.08735816926612962,-0.08750964761171742]",100.0,"[0.11351608826300513,-0.012408493030283714]",4.0,"[0.049101477476999916,0.04876396520157737]",4.0,"[0.023082168416813525,-0.08027556856384879]",100.0,"[0.1607636783953998,-0.03142351441197103]",4.0,"[0.11764901921776749,0.055761589951247074]",100.0,"[0.003065523393646564,0.1410504299957137]",100.0,"[-0.09613919261191481,0.12170309744479191]",4.0,"[0.033889245503217896,0.19285072825805646]",100.0,"[0.14250935716352287,-0.11705560087083806]",100.0,"[0.031765108804123296,-0.012023457969592023]",4.0,"[-0.032645402511798635,0.1734316790825787]",100.0,"[0.1730213424829286,0.008596694957399809]",4.0,"[0.10561455708252615,-0.05481043914585775]",4.0,"[-0.05637260231723598,0.08452700600325222]",100.0,"[-0.03932420634492627,-0.1592842354791065]",100.0,"[0.07743938908865869,0.10241296526775893]",100.0,"[-0.1083826904381224,-0.13213813243345549]",100.0,"[-0.11719944446132632,0.013551393854604653]",4.0,"[-0.1404247986067523,0.07171913542341754]",100.0,"[-0.15177717288334314,-0.0279082544968158]",100.0,"[-0.1227944581117624,-0.05705817093439409]",4.0,"[0.004239200069291705,-0.11626593497664467]",100.0,"[0.02,0.02]",360.4712,0.0,36.0,36.0,46.0,1.0,,,,,,,
,,,,,,,682fc5d8cd077835a5ca6610,6842bad77dafeaad49e0dd09,2025-06-06_05h56.35.954,shape_ratio,2024.1.5,MacIntel,56.81818182,6842b561977af9ba9b0f87ca,,,,,,,,,,,360.4714,360.9604,,,361.216,361.4301,left,,,,,,,,0.5,0.1952,0.0,,,,,,360.9604,361.216,361.4301,"[0.03843682724743008,0.08608754081351681]",100.0,"[0.03963900332795461,-0.09238560505390764]",100.0,"[-0.006518715165419232,-0.17965342067089926]",4.0,"[0.14646256701992072,-0.07415600640544057]",4.0,"[-0.09842593271327654,0.12982733611614938]",4.0,"[0.03428638421710519,-0.19204745837014478]",100.0,"[-0.012824006338942857,-0.12021150046095201]",100.0,"[-0.1852420114873237,-0.06196823021792993]",100.0,"[-0.004548813590941192,-0.0720340091238249]",4.0,"[0.07008507772582777,-0.051165527935031305]",100.0,"[-0.14545320092226469,0.047036749249393404]",4.0,"[0.162588107315409,0.07897171239162223]",4.0,"[0.029163323296989493,-0.03549668014909459]",100.0,"[-0.07474311231875837,-0.03246267175192237]",100.0,"[0.11203599307580814,-0.15570398311131356]",100.0,"[0.11734878848511753,0.08967913911405082]",100.0,"[-0.14918556491948812,-0.015480011259445751]",4.0,"[0.09307279600951046,0.14670406848586606]",4.0,"[-0.05799218255552774,0.1171637300621441]",4.0,"[-0.09786899446560847,0.01160292338358399]",4.0,"[0.16960837829334344,0.03859693514457918]",4.0,"[0.10309127764712485,-0.11057964657202184]",100.0,"[-0.18480906014288095,0.03199479678382997]",4.0,"[-0.06760963907519846,-0.11888852286999842]",4.0,"[-0.11720093643929165,-0.05545555611597233]",4.0,"[0.15461884051859484,-0.025673209238602262]",4.0,"[-0.017856012791284136,0.19135961181239639]",100.0,"[0.04332528165214885,0.03710863733191917]",100.0,"[-0.09418863468093021,0.07879283967669874]",100.0,"[0.02565136952430136,0.18594474669270258]",100.0,"[0.10821273501719882,-0.0143420449048707]",4.0,"[0.19394259927135918,-0.03334242092589139]",100.0,"[0.02,0.02]",362.5148,0.0,37.0,37.0,119.0,1.0,,,,,,,
,,,,,,,682fc5d8cd077835a5ca6610,6842bad77dafeaad49e0dd09,2025-06-06_05h56.35.954,shape_ratio,2024.1.5,MacIntel,56.81818182,6842b561977af9ba9b0f87ca,,,,,,,,,,,362.515,363.0096,,,363.2629,363.4183,right,,,,,,,,0.9,0.1366,0.0,,,,,,363.0096,363.2629,363.4184,"[-0.18648722351769878,0.02770960258015091]",100.0,"[0.07531467841123841,0.11760304754005013]",100.0,"[0.17997962177937255,-0.04102710334868344]",100.0,"[0.14479161117923692,0.02181203545952921]",4.0,"[0.10227895024614862,0.055075638881919534]",100.0,"[-0.09794755039545415,-0.13276444341111637]",4.0,"[0.141511544010203,0.09895338224581915]",100.0,"[-0.06504185809928342,-0.0097500197637184]",100.0,"[-0.02788568641752103,-0.18538783964600436]",100.0,"[-0.1291626838733278,-0.08798597459545968]",100.0,"[-0.020715734219466365,-0.13172262445023858]",100.0,"[0.028669255211080363,-0.16004004971733138]",4.0,"[-0.1282881421300941,0.013111004116162343]",100.0,"[-0.057484748998048445,-0.1109969889635248]",100.0,"[0.16969140752521,0.054277655934507105]",100.0,"[-0.08498918563135734,0.16443618993722203]",100.0,"[-0.06908650047027237,0.053409697765491385]",100.0,"[-0.02957957847489036,0.14216839644595713]",100.0,"[-0.05649954931311911,0.09410416297897037]",100.0,"[-0.025259759738031875,-0.0392573971399671]",100.0,"[0.010394330282372148,-0.09112430963482497]",100.0,"[0.07686202759907218,-0.09703033020850059]",100.0,"[-0.013531699409747223,0.01301377045904968]",100.0,"[0.11133958307536847,-0.07001931157807006]",100.0,"[0.00563677183549367,0.19304622861910264]",100.0,"[0.05514713501813313,0.07513139877561396]",100.0,"[0.0191080246788603,0.1510106306942641]",100.0,"[0.03505049983262718,0.01488029454943256]",100.0,"[0.0996886410676758,-0.14770265156565057]",100.0,"[-0.16944135232660942,0.07865417023269708]",100.0,"[0.0751122996295919,0.010049553346440117]",100.0,"[0.0756729027389899,0.18507334830745364]",100.0,"[0.02,0.02]",364.5219,0.0,38.0,38.0,18.0,1.0,,,,,,,
,,,,,,,682fc5d8cd077835a5ca6610,6842bad77dafeaad49e0dd09,2025-06-06_05h56.35.954,shape_ratio,2024.1.5,MacIntel,56.81818182,6842b561977af9ba9b0f87ca,,,,,,,,,,,364.5221,365.0279,,,365.2685,365.3624,right,,,,,,,,0.9,0.0755,0.0001,,,,,,365.0279,365.2685,365.3624,"[0.18965529599734224,-0.025112375154802268]",4.0,"[-0.05258096955765566,0.0914986035501966]",100.0,"[0.14605355554370658,0.06253269578019063]",100.0,"[0.13400200066361778,-0.05096765762878125]",100.0,"[-0.12738631903439576,0.01069325497110962]",100.0,"[0.14155658744735836,0.12501515304181507]",100.0,"[-0.019565776462669614,0.12422284809251323]",4.0,"[-0.13441877608277333,-0.04538972656748207]",100.0,"[-0.14807171467955596,0.1336856885568192]",100.0,"[-0.06653403240423059,-0.027232371076788966]",100.0,"[0.04263734094250968,-0.06260855951853136]",4.0,"[0.009016539357298918,-0.12360018277828998]",100.0,"[-0.07065145278120197,-0.1653227471990814]",100.0,"[0.01745904233751202,-0.19886633446557644]",100.0,"[0.14922272409784165,-0.11903768335807159]",100.0,"[-0.06289670360640855,-0.09161037064820786]",100.0,"[-0.04383849511173164,0.05072790110903328]",100.0,"[0.056393315058959,0.10905176843187814]",100.0,"[-0.1338312944590825,-0.14182052415708454]",100.0,"[0.0035247709439689785,0.055708108265317614]",100.0,"[0.06846476008959464,-0.10017466810799602]",100.0,"[0.10514907422182038,0.15026933520274774]",100.0,"[-0.024041678548152493,-0.15937002535985456]",100.0,"[-0.09253122001906158,0.03790143451972677]",100.0,"[0.02155433838877344,0.16223923185159114]",100.0,"[-0.1365488732071867,0.0715233434867611]",100.0,"[0.1045226290737985,-0.16481780121665737]",100.0,"[-0.15082925617715606,-0.08816689825953106]",100.0,"[0.15699804426086605,0.023577946485986642]",100.0,"[-0.07380349191122869,0.14616199738683883]",100.0,"[0.04720651799763893,0.06424186589640941]",100.0,"[0.17168033795079152,-0.074683348112533]",100.0,"[0.02,0.02]",366.4527,0.0,39.0,39.0,13.0,1.0,,,,,,,
,,,,,,,682fc5d8cd077835a5ca6610,6842bad77dafeaad49e0dd09,2025-06-06_05h56.35.954,shape_ratio,2024.1.5,MacIntel,56.81818182,6842b561977af9ba9b0f87ca,,,,,,,,,,,366.4529,366.9487,,,367.1987,367.401,left,,,,,,,,0.1,0.1827,0.0001,,,,,,366.9487,367.1986,367.401,"[-0.052794523402379875,-0.12042112643133898]",4.0,"[0.11098611934710635,0.024726016512850345]",4.0,"[0.03130717497726384,0.05781093980001557]",4.0,"[-0.035455121200922354,0.15392325709219068]",4.0,"[0.13704975710553244,-0.11728984742973295]",4.0,"[-0.14224363846725405,0.025166536779952363]",4.0,"[0.054622358802093866,-0.13310515406847997]",4.0,"[-0.09797144670055773,0.12818290768944676]",4.0,"[0.06807898613148103,0.14273579723335358]",4.0,"[0.0689763903752734,0.02111568034172706]",4.0,"[-0.09698640614977062,0.04763984336803423]",4.0,"[0.004947512604161172,-0.12589619520332157]",4.0,"[0.001786998365228829,0.011690044969193042]",4.0,"[0.07207587731244174,0.07089047550833344]",100.0,"[0.07184424721738482,-0.09212908247937095]",100.0,"[0.16909264255306097,-0.021101220285773797]",4.0,"[0.1575778620092842,-0.08133620585139076]",4.0,"[0.034907209452573223,0.1172204283913041]",4.0,"[-0.1150387773982369,-0.1554529615283414]",4.0,"[-0.011742055258135294,-0.1824469668978215]",4.0,"[-0.1271695763086368,-0.07221385695751405]",4.0,"[-0.0633218863023156,-0.02296863373253726]",4.0,"[0.11759748845731674,-0.04553860278050401]",4.0,"[-0.05357485374098353,0.10589389304038026]",4.0,"[0.11001712967114495,0.13431019259298235]",4.0,"[0.008194096507128022,-0.06904963390034877]",4.0,"[-0.1849198132848414,-0.013430297083723975]",4.0,"[0.12860835129344372,0.08362114947502429]",4.0,"[-0.006324106586908952,0.12459877001735183]",4.0,"[-0.1648504710720801,-0.10759061333070763]",100.0,"[-0.1940055565709266,0.04120121489703414]",4.0,"[0.03581281397985387,-0.012589648160296691]",4.0,"[0.02,0.02]",368.5048,0.0,40.0,40.0,186.0,1.0,,,,,,,
,,,,,,,682fc5d8cd077835a5ca6610,6842bad77dafeaad49e0dd09,2025-06-06_05h56.35.954,shape_ratio,2024.1.5,MacIntel,56.81818182,6842b561977af9ba9b0f87ca,,,,,,,,,,,368.5049,369.013,,,369.2602,369.4198,left,,,,,,,,0.55,0.1402,0.0,,,,,,369.013,369.2601,369.4199,"[0.02645178967023399,-0.193572856607454]",4.0,"[0.08500181854603868,-0.03591519371748245]",4.0,"[-0.03428104805064481,0.1887619016940377]",4.0,"[0.05640767678805997,-0.005585483897145047]",4.0,"[0.0765731701890695,0.09097784440065657]",4.0,"[-0.09446197466526687,-0.08025941207283963]",100.0,"[0.16849438269618902,-0.07822667795295479]",100.0,"[-0.11793034004828772,-0.1127009144743688]",100.0,"[-0.005677813500247923,-0.13231412053512676]",100.0,"[0.18807006077495533,0.034330346069369924]",100.0,"[-0.09573177790037488,-0.024053241241294984]",100.0,"[0.02775225750995489,0.06049753725096298]",100.0,"[0.12382516343669367,0.008477307538324954]",100.0,"[0.16543409426115355,0.09950617895971928]",4.0,"[-0.11122250894158063,0.056614181996110895]",100.0,"[-0.03072927458507122,0.06410823151824953]",4.0,"[-0.0848918695648683,0.16835219251402025]",100.0,"[-0.16673608657574643,0.05947564009555972]",100.0,"[0.06605102586988337,0.151148967020031]",100.0,"[-0.008030331654461813,0.1520046748834852]",4.0,"[0.0890524935898598,-0.12078289961240507]",4.0,"[0.12591497607107838,0.12417028429934233]",100.0,"[-0.044368971559392255,0.12362466255854355]",100.0,"[-0.008412308143877858,-0.08953439452290587]",4.0,"[0.016568189981659133,-0.03715514326464672]",100.0,"[-0.06019872753290434,0.02019984378645507]",100.0,"[-0.048605641025467286,-0.1263344077729808]",4.0,"[0.16968678018611036,-0.0028068705400495298]",4.0,"[-0.15059175658612625,-0.0797952560305737]",100.0,"[-0.16320997456211492,-0.019516445583615]",4.0,"[0.039680351815455185,-0.08293638787889979]",4.0,"[0.02003851019127355,0.10841920343390021]",100.0,"[0.02,0.02]",370.5222,0.0,41.0,41.0,64.0,1.0,,,,,,,
,,,,,,,682fc5d8cd077835a5ca6610,6842bad77dafeaad49e0dd09,2025-06-06_05h56.35.954,shape_ratio,2024.1.5,MacIntel,56.81818182,6842b561977af9ba9b0f87ca,,,,,,,,,,,370.5224,371.0246,,,371.2666,371.4503,right,,,,,,,,0.45,0.1642,0.0001,,,,,,371.0247,371.2666,371.4503,"[0.10164153942178732,0.15328619181467198]",4.0,"[0.09681267294538128,0.02048018117610805]",4.0,"[-0.05031298327673627,0.017033114680590173]",4.0,"[0.009160456186651872,-0.1059136209593283]",100.0,"[-0.1676746591612066,-0.026377594546512576]",4.0,"[-0.030227952459181067,0.1387609725554237]",100.0,"[-0.07477186096167864,0.1046157214015312]",100.0,"[-0.0324176470014045,-0.16529512499938318]",4.0,"[-0.14210422594502564,-0.0598270969697026]",4.0,"[0.177414805610986,-0.014920848934374205]",4.0,"[0.048829343371325766,0.04940138530645216]",100.0,"[-0.1019623798738043,-0.11029917661748895]",4.0,"[0.007210381075679895,0.0777133310194713]",4.0,"[0.05707068002226606,0.17996834050401805]",4.0,"[0.08736798089630625,-0.10863818100375623]",100.0,"[-0.17540335599594817,0.07856594666869277]",100.0,"[0.012961008109532353,0.18909054159526825]",100.0,"[0.18643851199304895,0.0690031317234861]",100.0,"[-0.06281671888283792,-0.046451137528893134]",4.0,"[0.08875418626148794,0.08807775596255128]",4.0,"[-0.05827393344019706,0.06096236882332416]",4.0,"[-0.1386334104503285,0.12171891962894796]",4.0,"[-0.0957468892729754,-0.15208064617545694]",100.0,"[-0.01055090851065319,-0.046379610725363354]",4.0,"[0.16052271298921586,0.02185853893331395]",4.0,"[0.007781250632682919,-0.19414404382791653]",100.0,"[-0.17700708740899426,0.028336309030794878]",100.0,"[-0.07911213663147589,0.17008087765099902]",100.0,"[0.07407995552228107,-0.04495583372928405]",100.0,"[0.003991227383444381,-0.000851654191574846]",4.0,"[-0.18279902889480198,-0.07763157032614082]",4.0,"[0.06185616957129802,-0.16328467017056028]",100.0,"[0.02,0.02]",372.5354,0.0,42.0,42.0,129.0,1.0,,,,,,,
,,,,,,,682fc5d8cd077835a5ca6610,6842bad77dafeaad49e0dd09,2025-06-06_05h56.35.954,shape_ratio,2024.1.5,MacIntel,56.81818182,6842b561977af9ba9b0f87ca,,,,,,,,,,,372.5356,373.04,,,373.2839,373.5651,left,,,,,,,,0.4,0.262,0.0001,,,,,,373.04,373.2839,373.5652,"[-0.16138167275464319,-0.09415930010192945]",100.0,"[-0.10484434827458823,-0.1518812990731773]",4.0,"[0.1385735678818655,0.015644952042699237]",100.0,"[0.047317676476364826,-0.0035980683601917734]",4.0,"[0.10008391816832686,-0.06169790211991999]",4.0,"[-0.08686392795609296,0.08034192822584789]",4.0,"[-0.047936254552070665,-0.15112174987683943]",4.0,"[-0.11878917971805529,-0.07499852716732612]",4.0,"[0.06377867575607737,-0.1503082423844818]",4.0,"[-0.05187466560855068,0.06038192302551633]",100.0,"[0.05996091612824613,-0.04398023121351697]",4.0,"[0.13545413996935832,-0.1384005208781932]",4.0,"[0.09652960849356283,0.05344360069046192]",100.0,"[0.003500426115677413,0.17846530645401276]",100.0,"[0.051588618652231986,0.11338444888719389]",100.0,"[-0.18071998564252745,0.050258653506427095]",100.0,"[0.011230512658535675,-0.042212726555898236]",4.0,"[-0.10339049956837951,-0.017982420144711447]",4.0,"[-0.1373118648029268,0.10898255064229063]",4.0,"[0.011640852519906165,-0.09515702455762717]",100.0,"[-0.19882316081359505,0.007821922929593366]",4.0,"[-0.07845899623187645,0.17297911751065453]",100.0,"[-0.07439874265426355,-0.08197401281471062]",100.0,"[-0.12521945120748756,0.025324420494826486]",4.0,"[-0.03848479495098296,-0.10382491952964554]",4.0,"[-0.03870189547228365,-0.005412586502154498]",100.0,"[-0.012775658038282034,0.08888602957532411]",4.0,"[0.09388487645815698,0.10333299465401052]",100.0,"[0.022367345007530962,-0.18847618158799037]",100.0,"[-0.15519416565931024,-0.05258268783289899]",4.0,"[0.15321904941493297,-0.05878555677732822]",4.0,"[-0.04741993612683365,0.10929574926313194]",4.0,"[0.02,0.02]",374.6683,0.0,43.0,43.0,154.0,1.0,,,,,,,
,,,,,,,682fc5d8cd077835a5ca6610,6842bad77dafeaad49e0dd09,2025-06-06_05h56.35.954,shape_ratio,2024.1.5,MacIntel,56.81818182,6842b561977af9ba9b0f87ca,,,,,,,,,,,374.6684,375.1518,,,375.3997,375.4797,right,,,,,,,,0.5,0.0606,0.0,,,,,,375.1518,375.3997,375.4797,"[-0.03286029565132044,0.07161272895795374]",100.0,"[0.008110536573406907,-0.08867542500428109]",100.0,"[-0.04803571824292863,0.1391874509275332]",4.0,"[-0.06866597309512218,-0.03549091916215377]",100.0,"[-0.1847903922402378,0.030009547452461902]",100.0,"[-0.07988848696967663,-0.15185606910897942]",4.0,"[-0.1536472638668466,-0.08246947618800513]",4.0,"[-0.08816362281939079,0.09859434205108941]",4.0,"[0.04756512313658784,0.017106141660914707]",4.0,"[-0.13694263759316683,-0.00969906011094944]",4.0,"[0.04994543212751416,-0.09869509584576246]",100.0,"[0.0037879480532570565,0.09914168192640734]",4.0,"[-0.004684291329819307,-0.16271288157141583]",100.0,"[-0.10413986042313134,0.1559619910112582]",100.0,"[0.14877234839807543,-0.014339825604525465]",4.0,"[0.004198494143352503,-0.04243862150531965]",4.0,"[-0.05278678938715047,-0.09321126224806717]",100.0,"[0.0869640162853005,0.11578171382839286]",100.0,"[0.11259262172798895,-0.04762010273613787]",100.0,"[0.0030272697386490998,0.038338245429116576]",4.0,"[0.0880528972050746,0.1746125963607056]",4.0,"[0.1156511848182852,0.06764352614208016]",4.0,"[-0.15753144734841124,0.08467221913353166]",100.0,"[0.15323353283695362,0.09331478542981685]",4.0,"[0.0742539918665451,-0.01847478838279727]",100.0,"[-0.07598114066032445,0.009639311056717592]",100.0,"[-0.03763163199446669,-0.1335746548916091]",4.0,"[-0.19077728365368127,-0.042602914627760946]",100.0,"[0.09179748998986444,-0.1484858924456751]",4.0,"[0.13364511541912455,-0.1204446859665062]",100.0,"[-0.1535789666063968,-0.1279470171307104]",4.0,"[0.10749135117360849,-0.0876406727487535]",100.0,"[0.02,0.02]",376.585,0.0,44.0,44.0,116.0,1.0,,,,,,,
,,,,,,,682fc5d8cd077835a5ca6610,6842bad77dafeaad49e0dd09,2025-06-06_05h56.35.954,shape_ratio,2024.1.5,MacIntel,56.81818182,6842b561977af9ba9b0f87ca,,,,,,,,,,,376.5852,377.0683,,,377.3138,378.804,,,,,,,,,0.5,,,,,,,,377.0683,377.3138,378.804,"[-0.0777971943884823,-0.020586099472578445]",4.0,"[-0.09868616746194984,0.16922343869464243]",4.0,"[-0.13526208210766894,-0.024746084204777502]",100.0,"[-0.06634912269260616,0.047510709165473175]",4.0,"[0.02063952074801894,-0.16977481380441437]",100.0,"[-0.023049723393902568,0.17200326761898668]",100.0,"[0.11046629819681138,0.05117138932896673]",100.0,"[0.11333546796150108,-0.03976602596908714]",4.0,"[0.11036858200948718,0.09760407148901026]",100.0,"[0.02580445344582745,0.06973034856755848]",100.0,"[0.1461087819004741,0.03187990277418417]",100.0,"[0.15201112684684973,-0.11390769586659927]",100.0,"[0.02406040693505619,-0.09329957953918036]",4.0,"[0.17134308173571441,-0.016830855236118512]",100.0,"[-0.11008531142679837,-0.08638460544022229]",100.0,"[0.12493745360332655,0.1529350610883861]",4.0,"[0.09873348719366042,0.004643747895179959]",4.0,"[-0.07359778125833466,0.10863201010182043]",4.0,"[0.024899070959450827,0.021194454477062308]",4.0,"[-0.004458900423922889,0.11209714106731172]",4.0,"[-0.19869275033840222,0.01832736243656313]",100.0,"[0.018846102344983066,0.19103220752556208]",100.0,"[-0.1871827041054155,0.061516095734915066]",4.0,"[-0.020743517745128327,-0.19592185651353666]",100.0,"[-0.10999448631964133,0.08939722741806179]",4.0,"[-0.14200659451345285,0.022315928823078576]",4.0,"[-0.0648031210051659,-0.06367642989383919]",100.0,"[0.18785897927934414,0.03502401966720509]",100.0,"[0.10154785175496524,-0.108378251877413]",100.0,"[-0.1832886214274046,-0.022572578654694194]",4.0,"[0.08658747030408663,0.1357840852162829]",4.0,"[-0.07350940052569711,-0.15614165837523739]",4.0,"[0.02,0.02]",379.9081,0.0,45.0,45.0,103.0,1.0,,,,,,,
,,,,,,,682fc5d8cd077835a5ca6610,6842bad77dafeaad49e0dd09,2025-06-06_05h56.35.954,shape_ratio,2024.1.5,MacIntel,56.81818182,6842b561977af9ba9b0f87ca,,,,,,,,,,,379.9083,380.4165,,,380.6606,380.9005,right,,,,,,,,0.4,0.2204,0.0002,,,,,,380.4165,380.6606,380.9005,"[0.10699246876125536,0.04390640615845601]",4.0,"[0.12993790009523093,-0.08526498333095403]",4.0,"[-0.1498352647856673,-0.06499177139249707]",4.0,"[-0.0037419303536557523,-0.08901388865069651]",100.0,"[-0.0737559952304371,0.09337531679706029]",4.0,"[0.06727819888444925,0.14885630113136972]",100.0,"[0.024821307735942166,-0.04635569546378047]",100.0,"[0.07353018051974013,-0.024172274470572713]",4.0,"[0.015098257158789048,0.14384025259828692]",4.0,"[0.02566414439438296,0.06124775757116804]",4.0,"[-0.025356827109005494,0.05655552707437422]",100.0,"[-0.09534514235619555,-0.09721362288997047]",4.0,"[-0.05304403273472171,0.16089878733453855]",100.0,"[-0.07039800027982934,-0.14222187530752553]",100.0,"[0.0705522320308191,-0.1613733815372498]",100.0,"[-0.0979517652156528,0.1380789966169905]",4.0,"[-0.004232028547550528,0.013458668333417462]",4.0,"[-0.1255965853610778,0.09014293288486037]",100.0,"[-0.19155881938329763,-0.049571952717956246]",4.0,"[0.17708167736968286,0.017907366867835006]",4.0,"[-0.06925404239720524,-0.05866458435767191]",4.0,"[-0.05989735437751071,-0.18748064629306233]",4.0,"[0.07022224418138209,-0.06811482370832579]",100.0,"[0.02761258645185581,-0.1817255746621594]",4.0,"[-0.10271716156790404,-0.0006261029409837946]",100.0,"[0.16565292215486047,-0.051891945358071845]",4.0,"[-0.13015431353662982,-0.12316914121391011]",100.0,"[0.12065581672404174,0.005194290748229243]",4.0,"[-0.17977130329609195,0.0738995000705711]",100.0,"[-0.19187511080215794,0.03214661552724034]",4.0,"[-0.010973773698565453,-0.14606586254244425]",4.0,"[0.08402132743743389,0.08080606221536854]",100.0,"[0.02,0.02]",381.9876,0.0,46.0,46.0,170.0,1.0,,,,,,,
,,,,,,,682fc5d8cd077835a5ca6610,6842bad77dafeaad49e0dd09,2025-06-06_05h56.35.954,shape_ratio,2024.1.5,MacIntel,56.81818182,6842b561977af9ba9b0f87ca,,,,,,,,,,,381.9877,382.4723,,,382.7159,382.7929,right,,,,,,,,0.45,0.0574,0.0001,,,,,,382.4723,382.7159,382.7929,"[-0.1324780024911651,0.08154624241134904]",100.0,"[-0.008953410959555746,-0.01997582650976419]",4.0,"[-0.15151033964607935,0.04472525867886813]",4.0,"[0.03924964912590091,-0.1762966180533746]",100.0,"[-0.048636280425014,-0.09080943359525184]",100.0,"[-0.17407364571103848,-0.07100639518798466]",100.0,"[-0.050657202209851364,0.005496746446968825]",100.0,"[0.1553850527920255,0.12035043634524743]",4.0,"[-0.07466864223452202,-0.03964166226729338]",100.0,"[0.04202113880915563,-0.061436988276913775]",4.0,"[0.08595861608904698,0.003595826455068534]",4.0,"[0.057727965659975504,0.14688447979314995]",4.0,"[0.009902951996994529,0.019695025700767366]",100.0,"[0.06262852800124376,0.09964725064570078]",100.0,"[-0.001130450840949537,0.13066571842256122]",100.0,"[0.16518402158204853,0.05254860052050168]",4.0,"[-0.19603922468668156,0.0005035718331892456]",4.0,"[-0.09551458966296249,0.17289903578793847]",4.0,"[0.10014712658501895,0.07557171752424567]",4.0,"[-0.0475760771129343,0.1296530854388415]",4.0,"[-0.10668208012505506,-0.15556125390626527]",4.0,"[0.17543614487371292,-0.07364286770802567]",100.0,"[-0.05126384667712584,0.05302559898231136]",4.0,"[0.0841278078645741,-0.07709382781685413]",4.0,"[0.025081921920359275,0.1819305884420335]",4.0,"[-0.08774902837891807,0.12554663180935538]",100.0,"[-0.05270070043956511,-0.18247954995917687]",4.0,"[-0.04165448514053197,0.194834383558309]",100.0,"[0.07033981015849265,0.18584846065791605]",100.0,"[-0.13843484345202642,-0.0002800450252681765]",4.0,"[0.1424556409485467,-0.10555447628301598]",100.0,"[0.11444980088757528,-0.13488003020224348]",4.0,"[0.02,0.02]",383.9016,0.0,47.0,47.0,138.0,1.0,,,,,,,
,,,,,,,682fc5d8cd077835a5ca6610,6842bad77dafeaad49e0dd09,2025-06-06_05h56.35.954,shape_ratio,2024.1.5,MacIntel,56.81818182,6842b561977af9ba9b0f87ca,,,,,,,,,,,383.9018,384.4026,,,384.6555,384.7757,right,,,,,,,,0.6,0.1006,0.0001,,,,,,384.4026,384.6555,384.7757,"[0.13734941257848388,-0.12551780668337803]",100.0,"[-0.06420776988643982,0.016037394298139218]",100.0,"[0.14277427697159142,-0.06938734351618968]",4.0,"[0.0010390155932265917,0.1511268800668541]",100.0,"[-0.14973957746413868,-0.08660634543794217]",4.0,"[0.042182241142853676,0.15676026845450547]",100.0,"[-0.1563708860165223,0.0718384289730857]",4.0,"[-0.01338843696478947,-0.15217942633927845]",100.0,"[0.09416325501665136,-0.1539702819258742]",4.0,"[-0.18969437351383844,0.0459678129130951]",4.0,"[0.04304428798143138,0.09641272322919821]",4.0,"[0.1966133469147328,-0.004913651680643284]",100.0,"[0.0628076937701978,0.008963972154075567]",4.0,"[0.03708549785637764,-0.1669372422002422]",100.0,"[-0.111527651823683,-0.13981812877145755]",100.0,"[0.009909425569464675,0.027179252318420263]",4.0,"[-0.06133653964279247,0.14981046641046003]",100.0,"[0.09289486586222008,-0.07115498134495664]",100.0,"[0.02206479347348118,-0.06482674362807483]",4.0,"[-0.15001390799038508,0.11138884360441292]",100.0,"[-0.01710971927915006,-0.05182155781444335]",100.0,"[-0.10703932604162592,-0.012338039079970003]",100.0,"[0.17411488723693963,-0.04058927742810728]",100.0,"[0.14541332001294102,0.059287049024536624]",100.0,"[-0.04206975406462978,-0.10047747516354627]",100.0,"[-0.023425421886697387,0.11803444621118303]",4.0,"[0.06751263823980094,-0.11703586612905927]",4.0,"[0.08133547296792931,0.06634475472731204]",4.0,"[-0.10810555906751722,0.07859536353557688]",4.0,"[0.15434188316204403,0.09881713689743281]",100.0,"[-0.08071678036103284,-0.17245881594128631]",100.0,"[0.14033543527461068,-0.018607858565911968]",100.0,"[0.02,0.02]",385.8819,0.0,48.0,48.0,51.0,1.0,,,,,,,
,,,,,,,682fc5d8cd077835a5ca6610,6842bad77dafeaad49e0dd09,2025-06-06_05h56.35.954,shape_ratio,2024.1.5,MacIntel,56.81818182,6842b561977af9ba9b0f87ca,,,,,,,,,,,385.8821,386.3857,,,386.6287,387.6124,right,,,,,,,,0.6,0.9639,0.0,,,,,,386.3857,386.6287,387.6124,"[0.1542081677608784,0.04016027916407995]",4.0,"[0.003152095114225714,0.18075083441537199]",4.0,"[0.06648795147786248,0.03675644106383782]",4.0,"[-0.1457150296004635,-0.04459187430796166]",4.0,"[0.16808306707881399,-0.02839933738333827]",100.0,"[0.09157770821615488,-0.02864233433105622]",100.0,"[-0.0997563153377369,0.07933036524724695]",100.0,"[-0.1605694582707824,0.002626667304718535]",100.0,"[0.05367555345688187,-0.16479012539666166]",100.0,"[-0.16133137956767,-0.1020402364562581]",100.0,"[-0.15968076110422588,0.10301974997420804]",100.0,"[0.008744361923213739,-0.04140664637698741]",4.0,"[-0.03443933312287922,-0.1081887830082564]",100.0,"[-0.059798136078004764,-0.0038563532296878047]",100.0,"[0.009340010994284626,-0.16773821310182388]",100.0,"[0.10523964561171069,-0.07311571208567483]",100.0,"[-0.1189382047304562,0.014866127497299092]",4.0,"[0.07662606538246841,0.11216284503772188]",100.0,"[-0.10465554560650277,-0.05864825851101713]",4.0,"[-0.07235715896355678,0.13638698106685918]",100.0,"[0.08005549691405027,-0.13196836380065588]",100.0,"[0.14236741448832596,-0.10866874523424967]",4.0,"[-0.07458386165923359,0.18029388782392258]",100.0,"[0.10679059265737029,0.1498745692064265]",4.0,"[-0.02675843988547664,0.0894269812450192]",100.0,"[0.19974143390823293,0.000026882057052863276]",100.0,"[0.17729011614461235,0.08994402250218009]",100.0,"[0.008586473807657898,0.06137710657594796]",4.0,"[0.10633636942439778,0.014828547007115736]",4.0,"[-0.0016293088837549955,0.01768110596173162]",100.0,"[-0.04787191561946922,-0.18724374194126225]",4.0,"[-0.18838136614505077,0.06370164771071837]",4.0,"[0.02,0.02]",388.702,0.0,49.0,49.0,33.0,1.0,,,,,,,
