right,left,explain.started,explain.stopped,key_resp_3.keys,key_resp_3.rt,key_resp_3.duration,participant,session,date,expName,psychopyVersion,OS,frameRate,study_id,explain_2.started,explain_2.stopped,key_resp_4.keys,key_resp_4.rt,key_resp_4.duration,explain_3.started,explain_3.stopped,key_resp_5.keys,key_resp_5.rt,key_resp_5.duration,fixation.started,fixation.stopped,practice.started,practice.stopped,response.started,response.stopped,key_resp.keys,key_resp.rt,key_resp.duration,feedback.started,feedback.stopped,trials_2.thisRepN,trials_2.thisTrialN,trials_2.thisN,trials_2.thisIndex,trials_2.ran,dot_ratio,explain_4.started,explain_4.stopped,key_resp_6.keys,key_resp_6.rt,key_resp_6.duration,dotDisplay.started,dotDisplay.stopped,ITI.started,polygon_1.pos,polygon_1.edges,polygon_2.pos,polygon_2.edges,polygon_3.pos,polygon_3.edges,polygon_4.pos,polygon_4.edges,polygon_5.pos,polygon_5.edges,polygon_6.pos,polygon_6.edges,polygon_7.pos,polygon_7.edges,polygon_8.pos,polygon_8.edges,polygon_9.pos,polygon_9.edges,polygon_10.pos,polygon_10.edges,polygon_11.pos,polygon_11.edges,polygon_12.pos,polygon_12.edges,polygon_13.pos,polygon_13.edges,polygon_14.pos,polygon_14.edges,polygon_15.pos,polygon_15.edges,polygon_16.pos,polygon_16.edges,polygon_17.pos,polygon_17.edges,polygon_18.pos,polygon_18.edges,polygon_19.pos,polygon_19.edges,polygon_20.pos,polygon_20.edges,polygon_21.pos,polygon_21.edges,polygon_22.pos,polygon_22.edges,polygon_23.pos,polygon_23.edges,polygon_24.pos,polygon_24.edges,polygon_25.pos,polygon_25.edges,polygon_26.pos,polygon_26.edges,polygon_27.pos,polygon_27.edges,polygon_28.pos,polygon_28.edges,polygon_29.pos,polygon_29.edges,polygon_30.pos,polygon_30.edges,polygon_31.pos,polygon_31.edges,polygon_32.pos,polygon_32.edges,dot_size,ITI.stopped,trials.thisRepN,trials.thisTrialN,trials.thisN,trials.thisIndex,trials.ran,break_2.started,break_2.stopped,trials_3.thisRepN,trials_3.thisTrialN,trials_3.thisN,trials_3.thisIndex,trials_3.ran
subject chose diamond,subject chose dot,0.0016,75.7341,space,60.6978,,6831d9e8ad8968b05a9c41a2,683aef33867e918121deecda,2025-05-31_07h59.41.990,shape_ratio,2024.1.5,Win32,68.02721088,683ae9196541af24d3a69e58,,,,,,,,,,,,,,,,,,,,,,,,,,,,,,,,,,,,,,,,,,,,,,,,,,,,,,,,,,,,,,,,,,,,,,,,,,,,,,,,,,,,,,,,,,,,,,,,,,,,,,,,,,,,,,,,,
,,,,,,,6831d9e8ad8968b05a9c41a2,683aef33867e918121deecda,2025-05-31_07h59.41.990,shape_ratio,2024.1.5,Win32,68.02721088,683ae9196541af24d3a69e58,75.7357,108.9253,space,3.1782,,,,,,,,,,,,,,,,,,,,,,,,,,,,,,,,,,,,,,,,,,,,,,,,,,,,,,,,,,,,,,,,,,,,,,,,,,,,,,,,,,,,,,,,,,,,,,,,,,,,,,,,,,,,,
,,,,,,,6831d9e8ad8968b05a9c41a2,683aef33867e918121deecda,2025-05-31_07h59.41.990,shape_ratio,2024.1.5,Win32,68.02721088,683ae9196541af24d3a69e58,,,,,,108.9261,114.549,space,2.6028,,,,,,,,,,,,,,,,,,,,,,,,,,,,,,,,,,,,,,,,,,,,,,,,,,,,,,,,,,,,,,,,,,,,,,,,,,,,,,,,,,,,,,,,,,,,,,,,,,,,,,,,
,,,,,,,6831d9e8ad8968b05a9c41a2,683aef33867e918121deecda,2025-05-31_07h59.41.990,shape_ratio,2024.1.5,Win32,68.02721088,683ae9196541af24d3a69e58,,,,,,,,,,,114.7151,115.0521,115.054,115.2279,115.2285,116.139,left,0.8088,,116.1398,117.2435,0.0,0.0,0.0,0.0,1.0,0.2,,,,,,,,,,,,,,,,,,,,,,,,,,,,,,,,,,,,,,,,,,,,,,,,,,,,,,,,,,,,,,,,,,,,,,,,,,,,,,,,,,,,,,
,,,,,,,6831d9e8ad8968b05a9c41a2,683aef33867e918121deecda,2025-05-31_07h59.41.990,shape_ratio,2024.1.5,Win32,68.02721088,683ae9196541af24d3a69e58,,,,,,,,,,,117.2505,117.7539,117.7541,117.9821,117.9825,118.6029,right,0.6082,,118.6032,119.7034,0.0,1.0,1.0,1.0,1.0,0.8,,,,,,,,,,,,,,,,,,,,,,,,,,,,,,,,,,,,,,,,,,,,,,,,,,,,,,,,,,,,,,,,,,,,,,,,,,,,,,,,,,,,,,
,,,,,,,6831d9e8ad8968b05a9c41a2,683aef33867e918121deecda,2025-05-31_07h59.41.990,shape_ratio,2024.1.5,Win32,68.02721088,683ae9196541af24d3a69e58,,,,,,,,,,,,,,,,,,,,,,,,,,,,119.7058,126.1282,space,3.4054,,,,,,,,,,,,,,,,,,,,,,,,,,,,,,,,,,,,,,,,,,,,,,,,,,,,,,,,,,,,,,,,,,,,,,,,,,,,,,,,,,
,,,,,,,6831d9e8ad8968b05a9c41a2,683aef33867e918121deecda,2025-05-31_07h59.41.990,shape_ratio,2024.1.5,Win32,68.02721088,683ae9196541af24d3a69e58,,,,,,,,,,,126.2291,126.6346,,,126.8969,127.354,left,0.4465,,,,,,,,,0.6,,,,,,126.6367,126.8967,127.3561,"[-0.15632732471602634,0.015873372952797334]",4.0,"[0.15284249818881893,-0.0152852263073354]",4.0,"[0.0026719729355987962,-0.04768931435417803]",100.0,"[-0.08518196587239296,-0.178494884439676]",4.0,"[0.1496830790675108,0.04201507972003988]",100.0,"[-0.06017670135323273,0.02181196038905192]",100.0,"[0.10928888680489109,0.06561722308178879]",100.0,"[-0.10210060131818995,-0.0821600224399047]",100.0,"[-0.1765094732355158,0.0839613304977766]",100.0,"[-0.17204996254467744,-0.03285366313485402]",4.0,"[0.03711188796233275,0.13066094402700634]",100.0,"[0.03685289195025148,-0.132191298749452]",100.0,"[0.08180789878019085,-0.04372942547407521]",4.0,"[-0.01445702976998174,-0.16321882730663942]",4.0,"[-0.04118254541317239,-0.09171710326878955]",4.0,"[0.14104750974524488,-0.06542702078679347]",100.0,"[0.10553263251459732,-0.12431899534163254]",4.0,"[-0.12767749182205632,0.1264124293225067]",4.0,"[-0.05235886349300762,-0.04419792307735974]",100.0,"[-0.04593622538167341,0.08792044085489535]",100.0,"[0.03403693757075972,0.00722941382575662]",100.0,"[-0.09492742974324335,0.15640939420138714]",100.0,"[0.16966728243811266,-0.10046766667570736]",4.0,"[-0.15072640193275302,-0.1063960096905655]",4.0,"[0.12738845184297473,0.13339462292855297]",100.0,"[0.042068789484684725,0.07373058357650315]",100.0,"[0.08189846456656948,0.01840193787952345]",100.0,"[-0.09198144718297031,-0.12433326112012823]",100.0,"[-0.12136068030561305,-0.011841127816656976]",100.0,"[-0.0170956608316853,0.15595163258708808]",4.0,"[-0.09341703351899838,0.10219353195268163]",100.0,"[-0.001455590603759843,-0.0999150425337994]",4.0,"[0.02,0.02]",128.4502,0.0,0.0,0.0,51.0,1.0,,,,,,,
,,,,,,,6831d9e8ad8968b05a9c41a2,683aef33867e918121deecda,2025-05-31_07h59.41.990,shape_ratio,2024.1.5,Win32,68.02721088,683ae9196541af24d3a69e58,,,,,,,,,,,128.4528,128.9514,,,129.1985,129.7058,right,0.4978,,,,,,,,,0.5,,,,,,128.9519,129.1983,129.706,"[-0.12086511002468506,-0.03981924131482073]",100.0,"[0.11050688931041587,0.011746450003071921]",4.0,"[0.056816708270255305,0.05679060179014389]",4.0,"[0.030633156252593604,-0.015541999224746335]",100.0,"[-0.16818470603861546,0.07466326652193106]",4.0,"[0.07974810935703922,-0.033893119675198334]",100.0,"[0.16046461937994141,0.07628102200885752]",4.0,"[-0.061504608963181495,-0.1530397316779061]",100.0,"[0.03615001267415605,0.10378547684609352]",4.0,"[0.1949904933055718,0.013750573716064033]",100.0,"[0.1402694915543028,-0.13559492446422308]",4.0,"[-0.0032843533653692434,0.11535809782666523]",100.0,"[-0.11244231182824214,-0.11846281251330958]",4.0,"[0.0252524601136583,0.17518246759489528]",4.0,"[0.09650913207137969,-0.12466138246653005]",4.0,"[-0.15084586734356734,-0.0032925615904193426]",4.0,"[-0.05504186734584822,0.13876031405721093]",100.0,"[-0.11593767152608977,0.027126339639320894]",4.0,"[0.1338496027698708,-0.05438101479858133]",100.0,"[0.1430821580330837,0.03636897163711665]",100.0,"[-0.18486178590477398,-0.04521771529886257]",100.0,"[-0.015248763096851534,0.06429813997431182]",100.0,"[-0.10865958370073271,0.09696525215983345]",100.0,"[0.14571697161041267,0.13006079779040283]",100.0,"[-0.003759068304437657,-0.18734679663684384]",4.0,"[-0.017451684961764358,-0.1048906785750442]",100.0,"[0.030291400339463936,-0.07311816817669135]",100.0,"[-0.15442010322640543,-0.1155902458081464]",100.0,"[0.13614525569700162,-0.09554561914677655]",4.0,"[0.05095048640421474,-0.13651262256414623]",4.0,"[-0.08741818104335199,-0.0758881893245431]",4.0,"[-0.05553789456508036,0.032203093419090445]",4.0,"[0.02,0.02]",130.7949,0.0,1.0,1.0,91.0,1.0,,,,,,,
,,,,,,,6831d9e8ad8968b05a9c41a2,683aef33867e918121deecda,2025-05-31_07h59.41.990,shape_ratio,2024.1.5,Win32,68.02721088,683ae9196541af24d3a69e58,,,,,,,,,,,130.7967,131.2943,,,131.5477,131.9958,left,0.4379,,,,,,,,,0.6,,,,,,131.2944,131.5476,131.996,"[-0.17281961508374596,-0.011762437175923698]",100.0,"[-0.029809103149730298,-0.0812873796163375]",4.0,"[-0.012346838358993636,0.05858759010122197]",100.0,"[-0.009801571628028713,-0.027872764135318265]",4.0,"[-0.012467624948772233,0.18477518573925947]",100.0,"[0.08440809339511786,0.1668551396876903]",100.0,"[0.08423525880832478,-0.132548092818255]",100.0,"[-0.05227071276185562,-0.012542980349186005]",4.0,"[-0.15235733069042176,0.04482445366275241]",4.0,"[0.1646010489293707,-0.020745174725077527]",4.0,"[0.07055814149020176,0.10330661112988493]",100.0,"[-0.15809687708646394,-0.08469700412423443]",100.0,"[0.061657399968361636,-0.07514979213010457]",100.0,"[-0.05510758233891887,-0.13588620221927122]",100.0,"[0.10930548392390482,0.003536928764735255]",4.0,"[-0.02737686746165219,-0.17869119925030527]",100.0,"[0.15666641050934796,0.06131703929120031]",100.0,"[-0.090120654495488,-0.11394449710591073]",4.0,"[-0.07977783034578394,0.07428170455466776]",4.0,"[0.1584293424566824,0.11352128500126289]",4.0,"[0.026852718780466727,-0.11822426875635225]",100.0,"[-0.012477285498340492,0.11952846998496144]",4.0,"[0.06400095943123617,0.026744933113869464]",4.0,"[-0.129312265358087,0.08073580920657153]",100.0,"[-0.043182474738850354,0.1567139078178681]",100.0,"[-0.093117677184558,0.15725405905291528]",100.0,"[-0.07945341000444459,-0.07493472828662649]",100.0,"[0.029932398463258014,-0.183165266747706]",100.0,"[-0.14011518122847907,-0.14142995238496062]",4.0,"[0.1303226126095953,-0.11681982832927874]",100.0,"[0.07223687258640084,-0.17709831484850613]",100.0,"[-0.08459111088544095,-0.1637741184381]",4.0,"[0.02,0.02]",133.0941,0.0,2.0,2.0,31.0,1.0,,,,,,,
,,,,,,,6831d9e8ad8968b05a9c41a2,683aef33867e918121deecda,2025-05-31_07h59.41.990,shape_ratio,2024.1.5,Win32,68.02721088,683ae9196541af24d3a69e58,,,,,,,,,,,133.0958,133.5984,,,133.8516,134.3333,right,0.4676,,,,,,,,,0.45,,,,,,133.5985,133.8515,134.3336,"[-0.056396476713654276,0.025399890031979167]",4.0,"[-0.02689657977591219,0.14707395261904094]",100.0,"[-0.06472992649395129,-0.17157365375503086]",4.0,"[-0.0322193635374144,-0.0238843319882479]",100.0,"[0.07375423714019462,0.06785158346771729]",100.0,"[0.09739890183708892,-0.030968597216795807]",100.0,"[0.10798529857756387,-0.07834026632624645]",4.0,"[0.0005703050757738155,-0.06678718267170852]",4.0,"[0.17503338414440056,0.06339450715951904]",4.0,"[0.1393860833712542,-0.013548561942014833]",100.0,"[0.050703720028967524,-0.09344009301273742]",4.0,"[0.07736485571227643,0.14637850979176606]",100.0,"[0.016599983649570303,0.016945975171496333]",100.0,"[-0.07937063877131731,-0.012615160301451942]",100.0,"[0.13110842187540336,0.13866107703422156]",4.0,"[-0.16671694017529853,-0.014502751347238264]",100.0,"[-0.00017066627434167702,-0.1935339231936323]",100.0,"[-0.06497315412947052,0.16778886735253692]",4.0,"[0.1780373040221942,0.00874443195961678]",4.0,"[-0.06545704962297641,0.0935755403725058]",4.0,"[-0.048761464501133965,-0.08444707876751031]",4.0,"[-0.16664675896169992,0.04443490839145371]",4.0,"[-0.10209511130661979,-0.07541019074433497]",4.0,"[0.08390777710694289,-0.17092678428510605]",4.0,"[-0.10791749576200352,0.03604192922246018]",100.0,"[-0.02086319611562956,-0.1193410154004669]",4.0,"[-0.006103994919832351,0.19167386124984906]",4.0,"[-0.12245689440088868,-0.008493976659372836]",4.0,"[0.0380511929680567,-0.17596252519348268]",100.0,"[0.04639856862730046,0.17502025227426837]",4.0,"[0.1665546555769716,-0.08832286616406856]",100.0,"[0.11374387058508513,0.10122979212710291]",100.0,"[0.02,0.02]",135.4296,0.0,3.0,3.0,144.0,1.0,,,,,,,
,,,,,,,6831d9e8ad8968b05a9c41a2,683aef33867e918121deecda,2025-05-31_07h59.41.990,shape_ratio,2024.1.5,Win32,68.02721088,683ae9196541af24d3a69e58,,,,,,,,,,,135.4314,135.9309,,,136.1848,136.6011,left,0.4022,,,,,,,,,0.5,,,,,,135.9314,136.1841,136.6014,"[-0.14481442055143667,0.06576419000967249]",4.0,"[0.06539043846708693,0.09119709363576438]",4.0,"[-0.03207240921081789,0.18641780397223562]",100.0,"[-0.006500633615198436,-0.17725923817743636]",100.0,"[0.07599294561801093,0.04401460142792914]",4.0,"[0.15332700632452226,-0.0007668389763353557]",4.0,"[0.0031193384995146915,-0.01853422439963709]",4.0,"[0.12681553384408234,0.041160538594545826]",100.0,"[-0.09066104676177975,0.053326026326444176]",4.0,"[0.01774526999767507,-0.0928526568402596]",4.0,"[0.007303208208904666,0.03933973930571305]",100.0,"[-0.13971753112218088,-0.05289836011971202]",4.0,"[-0.19354833092347193,0.014389803187221209]",100.0,"[-0.08172799686450305,-0.1570375178838407]",100.0,"[-0.012664737308860271,0.13058855940325348]",100.0,"[0.16288354456827167,0.09300149708823437]",100.0,"[-0.0516644397548106,0.00047879783987666994]",100.0,"[0.16538299623245634,-0.07712275232154553]",100.0,"[-0.1059147184326268,-0.11743066690713355]",100.0,"[-0.09912992130590007,0.003895282973210954]",100.0,"[0.19181051657854023,-0.02475195373164403]",4.0,"[0.11096214857827634,0.1586600750001488]",100.0,"[-0.026854211144133607,-0.0652227915694736]",4.0,"[0.10874688964660077,-0.03499712518649742]",4.0,"[0.14194793632867217,-0.13725985196920337]",4.0,"[-0.046945051758987964,0.1092546642224163]",100.0,"[-0.1499288946489722,-0.10621260024455638]",4.0,"[0.0411271316452661,-0.13141487921346412]",4.0,"[-0.07713332239385953,-0.07134609516627456]",100.0,"[0.19437374299741994,0.036502279485708417]",4.0,"[-0.06137909128958706,-0.11070517056737936]",4.0,"[0.032900003063848264,-0.1939559746881934]",100.0,"[0.02,0.02]",137.7015,0.0,4.0,4.0,102.0,1.0,,,,,,,
,,,,,,,6831d9e8ad8968b05a9c41a2,683aef33867e918121deecda,2025-05-31_07h59.41.990,shape_ratio,2024.1.5,Win32,68.02721088,683ae9196541af24d3a69e58,,,,,,,,,,,137.7025,138.1937,,,138.4458,138.963,right,0.5023,,,,,,,,,0.9,,,,,,138.1938,138.4455,138.9632,"[-0.01806026561460142,-0.13889279617957245]",100.0,"[-0.10373467439000199,-0.13527984848514255]",100.0,"[0.03172077401782852,0.04734384794456762]",4.0,"[0.05127965808437212,-0.17713854680306657]",100.0,"[-0.11948129799670593,0.008733578031949301]",4.0,"[0.046923113462384786,-0.09196330988563013]",100.0,"[-0.024887092313673344,0.17245518541428628]",100.0,"[-0.08230666685559615,0.177180095460985]",100.0,"[0.08795586721286235,0.17375626630457694]",100.0,"[-0.044684598195040205,0.10049557537553908]",100.0,"[0.14124644991294058,-0.058031766924141866]",100.0,"[-0.1767463232886947,-0.07334531526642496]",100.0,"[-0.07754906465564673,0.03895786628284211]",100.0,"[0.005933779875247841,-0.0455358483465483]",100.0,"[0.12827680757191415,-0.006096962353845908]",100.0,"[0.08115407142965628,0.0020246562206373137]",100.0,"[0.08453574670543135,-0.14216004788104608]",100.0,"[0.09772011778566027,0.12374705323533028]",100.0,"[-0.011828084239705675,0.12819489062201472]",100.0,"[0.07187015211117809,0.04094296668370076]",100.0,"[0.15674322244913386,-0.10722775345875946]",100.0,"[-0.09889378066173589,-0.03232313922670658]",100.0,"[0.04634694806854455,0.19384385160392095]",100.0,"[0.16718746338593776,0.10724538783092401]",100.0,"[0.030251944508286707,-0.14267093848792006]",100.0,"[0.09528731507465668,-0.06199481172003919]",100.0,"[-0.17910324370421665,0.0410434064951377]",100.0,"[0.06559409995495673,0.09704546424599708]",100.0,"[0.19935823978367553,-0.015440336151101621]",100.0,"[-0.18187071330662044,-0.0009345815236176408]",100.0,"[-0.13988602693431013,0.07202582659988098]",100.0,"[-0.040449112741118454,-0.08561278017331493]",4.0,"[0.02,0.02]",140.0628,0.0,5.0,5.0,0.0,1.0,,,,,,,
,,,,,,,6831d9e8ad8968b05a9c41a2,683aef33867e918121deecda,2025-05-31_07h59.41.990,shape_ratio,2024.1.5,Win32,68.02721088,683ae9196541af24d3a69e58,,,,,,,,,,,140.0644,140.5624,,,140.8107,141.7603,right,0.9391,,,,,,,,,0.6,,,,,,140.5626,140.8105,141.7607,"[0.062494822760102244,-0.15650944505378195]",100.0,"[-0.07356746548203491,0.036145913541070024]",100.0,"[0.08189646997142692,0.12338466782383664]",100.0,"[0.1536420143656972,-0.09192952312749261]",100.0,"[0.11290836649004679,-0.15523722183874347]",4.0,"[-0.12117467359349661,0.14837840188999174]",100.0,"[-0.05634342896635263,0.12451734207445798]",4.0,"[-0.007930654159625544,-0.11133708324003196]",100.0,"[-0.016127795906466773,0.12112214842251079]",4.0,"[-0.07066571224958841,-0.062495663162255265]",100.0,"[0.010673876663853242,-0.02802414766165544]",4.0,"[-0.05126885279485685,-0.15966770089260748]",4.0,"[0.11070699167282926,-0.009228346285022202]",100.0,"[-0.11407296479541021,-0.054451030434187364]",100.0,"[0.12808018450731187,0.07045076443523236]",4.0,"[-0.16899945777726733,0.0905564992842523]",4.0,"[-0.004790634512932374,0.012674756123852403]",100.0,"[-0.10314914620367256,-0.0010574614856572726]",4.0,"[0.07994356124418145,0.06270041000926792]",100.0,"[0.09570017353547229,0.1650108322927939]",4.0,"[0.19721208299259943,-0.018009523328160235]",100.0,"[-0.025198675681892418,-0.07349032127905637]",100.0,"[-0.14760049466137634,0.0372517985516301]",100.0,"[0.023902692156194123,0.14583564741064106]",4.0,"[-0.02260724398665492,0.17004235530288306]",4.0,"[-0.004580730946994052,-0.16006252010958144]",100.0,"[-0.013920419075937732,0.07566283071950378]",100.0,"[0.12683571799811447,-0.05699963536742409]",4.0,"[0.04417041013747738,-0.07392326987186677]",4.0,"[0.03134286256358464,0.19096688152619506]",100.0,"[-0.19563973861128958,0.018054563307894057]",100.0,"[0.15467416740208315,0.11223197125918935]",100.0,"[0.02,0.02]",142.8587,0.0,6.0,6.0,56.0,1.0,,,,,,,
,,,,,,,6831d9e8ad8968b05a9c41a2,683aef33867e918121deecda,2025-05-31_07h59.41.990,shape_ratio,2024.1.5,Win32,68.02721088,683ae9196541af24d3a69e58,,,,,,,,,,,142.8604,143.3616,,,143.6403,144.3665,left,0.7165,,,,,,,,,0.9,,,,,,143.3617,143.64,144.3667,"[0.061018052053386965,0.01955050790693402]",100.0,"[0.01929349482838488,0.0003961755336936321]",100.0,"[0.08462272038769927,-0.0410253122984978]",100.0,"[-0.06212977427826342,-0.11372138961282469]",100.0,"[-0.10162718602284343,0.10377461709253046]",100.0,"[-0.14688786017529062,-0.1261041124121004]",100.0,"[-0.1666441956967099,-0.02871544403707398]",100.0,"[-0.1506605426452052,-0.07456869302253721]",100.0,"[-0.16849951776891678,0.06942376022587081]",100.0,"[-0.10440674824324053,-0.08019890803148781]",100.0,"[0.17611473822398352,0.059895111347180244]",100.0,"[-0.05583806823174527,0.1476921297571547]",4.0,"[0.19975909310768022,-0.0014641742717224591]",100.0,"[0.16139010088550723,-0.057696304130103675]",4.0,"[0.15522289310840273,0.014171949639741489]",100.0,"[-0.03801170630698292,-0.019219096986546835]",100.0,"[-0.10964167214242931,-0.01234679932249093]",100.0,"[0.12205167647238613,0.06480163780718165]",4.0,"[-0.0839109242364668,-0.1654047804952619]",100.0,"[-0.07278100082369532,-0.055262192139646046]",100.0,"[-0.004365998287327618,0.11589072122635644]",100.0,"[0.06468398955811014,0.08735364067818882]",100.0,"[0.024058438854474562,0.1775404445480238]",100.0,"[-0.010684044006889534,0.056380191143765]",100.0,"[0.06263824674365737,-0.0964578188488963]",100.0,"[0.12576666430570324,-0.14716710797405014]",100.0,"[-0.1620071616043919,0.11251586086413001]",100.0,"[0.08017078544571539,0.16329778041381415]",100.0,"[-0.17213723613809315,0.01696069765254873]",100.0,"[-0.02331045794084461,-0.19750655226527292]",100.0,"[-0.11343772757204013,0.05048035648667163]",100.0,"[-0.04269907199355044,0.031694316084623544]",100.0,"[0.02,0.02]",145.4607,0.0,7.0,7.0,3.0,1.0,,,,,,,
,,,,,,,6831d9e8ad8968b05a9c41a2,683aef33867e918121deecda,2025-05-31_07h59.41.990,shape_ratio,2024.1.5,Win32,68.02721088,683ae9196541af24d3a69e58,,,,,,,,,,,145.4627,145.9602,,,146.2081,146.9141,right,0.6953,,,,,,,,,0.55,,,,,,145.9603,146.208,146.9146,"[0.011279043534417504,0.04396786456808107]",100.0,"[0.11276946888051925,0.007957050624608615]",4.0,"[-0.048744353646901245,0.11724307702383917]",4.0,"[-0.12928409052312573,0.10666921156430831]",100.0,"[-0.09383695657034646,0.16281747380250336]",100.0,"[0.17443687289702267,0.09597778406376022]",4.0,"[0.19659239850789437,0.008584392373890451]",100.0,"[-0.017587517473876876,-0.15610375471697763]",100.0,"[0.16103331892512499,-0.03844703215279596]",100.0,"[0.037662463528245746,0.12796409168992248]",100.0,"[-0.1121718356869227,-0.11332544996191259]",100.0,"[-0.15699841356140218,0.012906828870086727]",100.0,"[-0.016190082688510982,-0.11428653034375585]",100.0,"[0.13583485311514112,-0.07644725487985556]",100.0,"[0.06204011633562357,-0.1677237061379109]",4.0,"[-0.08635016882032175,0.09624214202846193]",100.0,"[0.1108659581008258,0.06891173221069752]",100.0,"[0.054065307391938905,-0.07098641161741678]",100.0,"[-0.17611577512158466,0.056630724691092954]",100.0,"[-0.027803794202444585,0.180499290752711]",4.0,"[-0.13333424676275657,-0.06957492600237787]",4.0,"[-0.05516876000157233,-0.103614367959062]",4.0,"[-0.010571258354165872,-0.009602306565563967]",4.0,"[-0.03999461897245901,-0.04156124608970105]",4.0,"[0.12214326931765677,-0.12355284044876828]",4.0,"[-0.037991967757511944,0.06999890880061568]",4.0,"[-0.05370859845475136,0.01718945593634882]",100.0,"[0.01426039504800958,-0.1818968422846996]",100.0,"[0.03957556944084356,0.1880955317957274]",4.0,"[0.00007373336831610279,0.09555365877017781]",4.0,"[0.03741621336565949,-0.1257976601469835]",100.0,"[0.0607883426903426,0.020927084336904458]",4.0,"[0.02,0.02]",148.0058,0.0,8.0,8.0,66.0,1.0,,,,,,,
,,,,,,,6831d9e8ad8968b05a9c41a2,683aef33867e918121deecda,2025-05-31_07h59.41.990,shape_ratio,2024.1.5,Win32,68.02721088,683ae9196541af24d3a69e58,,,,,,,,,,,148.0074,148.506,,,148.7621,149.4289,right,0.652,,,,,,,,,0.45,,,,,,148.5064,148.7619,149.4291,"[0.015102773668382094,-0.16681114550493947]",100.0,"[0.17318338467416128,0.026394098975542013]",100.0,"[0.015616147621246912,-0.10666527164153751]",4.0,"[-0.02551562857984031,0.05865430909418668]",4.0,"[-0.02545696234328763,-0.09128352512514563]",4.0,"[-0.07702840112723115,0.04328047476359571]",100.0,"[0.053673062923106356,-0.011034124825088053]",100.0,"[0.1193707120959433,0.052959035121222964]",4.0,"[0.040587080772055514,0.08231913865877032]",4.0,"[0.11744476756330867,-0.07367939478634879]",4.0,"[-0.03115902803163972,-0.009475632119395342]",4.0,"[0.11892557059993428,0.008018180380464044]",4.0,"[0.09922265948917311,-0.12187471141035808]",4.0,"[-0.06802851916290459,0.16404931717432578]",100.0,"[-0.08765621913441018,-0.1319121361126376]",100.0,"[-0.03761816625176777,-0.1779063833232892]",100.0,"[-0.043487425554729994,0.12905680565210223]",100.0,"[-0.14757608523110238,-0.007013927388392452]",100.0,"[0.10451502921056409,-0.16758685471144943]",4.0,"[-0.13363594239003487,-0.06964963421193318]",4.0,"[-0.09498523913961099,-0.1737029016327875]",4.0,"[0.17618999000721,-0.07812686515560155]",100.0,"[0.12512621094891277,0.09270133519515625]",100.0,"[-0.05144318606709423,-0.04740192619714286]",100.0,"[0.103090366654848,0.15482062777337027]",4.0,"[0.006757641300478813,0.13442402273328455]",100.0,"[0.06872009731564446,-0.08219436687826555]",4.0,"[0.07099136610898779,0.03239859070176662]",100.0,"[0.1535269207474766,-0.018157017222294163]",4.0,"[-0.1788694200386837,-0.0390000821632417]",4.0,"[0.19317914790638507,-0.03846944071432679]",4.0,"[-0.11402147001665948,0.15156940208494413]",4.0,"[0.02,0.02]",150.5233,0.0,9.0,9.0,131.0,1.0,,,,,,,
,,,,,,,6831d9e8ad8968b05a9c41a2,683aef33867e918121deecda,2025-05-31_07h59.41.990,shape_ratio,2024.1.5,Win32,68.02721088,683ae9196541af24d3a69e58,,,,,,,,,,,150.5249,151.0245,,,151.2779,152.1603,right,0.867,,,,,,,,,0.45,,,,,,151.0247,151.2777,152.1605,"[-0.09255260061801657,0.0643274904985288]",4.0,"[0.023924696297138302,-0.13861982496095213]",100.0,"[-0.08623514008231585,-0.02839023504374427]",4.0,"[-0.05834699044284796,-0.14843763971602117]",4.0,"[0.07355103860877221,0.1576646445192462]",4.0,"[0.06149217998053355,0.11174401311318659]",100.0,"[-0.08379667362257955,-0.07803451086643627]",100.0,"[0.010281683207904213,0.17143550958861836]",100.0,"[-0.05493333904086686,0.18268622874610688]",100.0,"[0.0015322676487711433,0.07304351720262912]",100.0,"[-0.15689594207438523,-0.10107945062104441]",4.0,"[-0.19090202298560843,-0.05408879349100895]",4.0,"[-0.03892996683676454,-0.05493834661427142]",4.0,"[-0.18253596124598093,-0.013827343166508963]",4.0,"[0.045657491220347964,0.19079845813177207]",100.0,"[-0.03084901405044604,0.14095937464774352]",100.0,"[0.1733135833585719,0.017228365050723827]",4.0,"[0.11796861764180898,-0.03904169327806527]",100.0,"[0.124626510444061,0.06568039107317113]",4.0,"[-0.18641218159187148,0.06408400511213806]",4.0,"[0.12524868288636917,0.003624360293849272]",4.0,"[-0.0778801185051338,0.1338518415577547]",100.0,"[0.07422864153872312,-0.0402176172438461]",4.0,"[-0.0356603578195841,-0.11128379103214574]",100.0,"[0.005313129236973602,-0.055367125629751]",4.0,"[-0.11535207299141974,-0.11962395879529755]",4.0,"[0.06807869677209681,-0.12401563130565708]",100.0,"[-0.1409634263905787,0.08771589085963707]",4.0,"[0.06810251423500523,-0.18662086407792142]",4.0,"[-0.07309704748095229,0.02720514425866504]",4.0,"[-0.12464562585030355,0.03524577516001469]",100.0,"[0.022277301180961943,0.018124861403287538]",100.0,"[0.02,0.02]",153.2544,0.0,10.0,10.0,136.0,1.0,,,,,,,
,,,,,,,6831d9e8ad8968b05a9c41a2,683aef33867e918121deecda,2025-05-31_07h59.41.990,shape_ratio,2024.1.5,Win32,68.02721088,683ae9196541af24d3a69e58,,,,,,,,,,,153.256,153.7579,,,154.0068,154.7211,right,0.7053,,,,,,,,,0.1,,,,,,153.7581,154.0065,154.7212,"[0.19369027274824976,0.03705304150945945]",4.0,"[0.12186585691638255,0.06183468107443842]",4.0,"[-0.04710956841387268,0.13531404778350278]",4.0,"[-0.037657179240193454,-0.15212058804893117]",4.0,"[0.18246778880689335,-0.06936981280990225]",4.0,"[0.04379284933995342,0.03698242440453883]",4.0,"[0.03146846210490845,-0.01590532546117049]",4.0,"[-0.13442965553849684,0.023327740345213694]",4.0,"[0.025242000732163695,-0.06245398659301598]",4.0,"[-0.10202526545347188,0.14640176903287705]",4.0,"[-0.0647858236636968,-0.11641185423177097]",4.0,"[-0.03321632297877998,-0.1933783163393506]",4.0,"[-0.021030813493228457,0.09659853082009594]",4.0,"[0.0952046437920854,-0.11598362794840206]",4.0,"[-0.013622342645420582,-0.0799025061500886]",4.0,"[0.0721266034226658,0.17985423615716006]",100.0,"[0.015218413928122487,0.1895372352673045]",4.0,"[-0.021782486856809728,-0.024558642320297735]",100.0,"[0.11483795385870374,0.12049479898585508]",100.0,"[-0.0869538002333774,0.07833173255597807]",4.0,"[0.060378626446059624,-0.15791010801579825]",4.0,"[-0.18540822775669208,-0.06571026732905233]",4.0,"[0.16143542752158455,-0.019968056447287663]",4.0,"[0.059546842838622785,0.08722899836493496]",4.0,"[-0.13655591532279238,-0.12282545232860907]",4.0,"[0.11036866595665158,0.0065944695495210775]",4.0,"[0.07092442637494195,-0.035020826553482515]",4.0,"[0.11107581238576521,-0.06534462049747214]",4.0,"[-0.15369250105526777,0.09768620503596268]",4.0,"[0.1555680748870924,0.10538099208841671]",4.0,"[-0.1747572324483054,0.01359591774205997]",4.0,"[0.010425300039196676,-0.13774709676717153]",4.0,"[0.02,0.02]",155.8242,0.0,11.0,11.0,188.0,1.0,,,,,,,
,,,,,,,6831d9e8ad8968b05a9c41a2,683aef33867e918121deecda,2025-05-31_07h59.41.990,shape_ratio,2024.1.5,Win32,68.02721088,683ae9196541af24d3a69e58,,,,,,,,,,,155.8262,156.3239,,,156.5541,157.3871,left,0.822,,,,,,,,,0.55,,,,,,156.3242,156.5541,157.3874,"[-0.03481256085620911,0.03675545713727236]",100.0,"[0.06280641001254482,0.03454550242686376]",4.0,"[-0.15881510530688908,-0.1119029872474355]",4.0,"[0.012511150720017399,-0.07442174555909853]",100.0,"[-0.065480800755199,0.1092423700154239]",100.0,"[-0.15096989204115688,-0.008824535277124611]",4.0,"[-0.08064615353267586,0.045727949622843114]",100.0,"[0.08125519985557217,-0.07453244552499669]",100.0,"[0.12049592924451039,-0.11249494720396847]",4.0,"[-0.11238483218897964,-0.11120653388340078]",100.0,"[-0.07373685131582057,0.1697888570658414]",4.0,"[0.0876693748521554,-0.023355023227925254]",4.0,"[0.06812576945366434,0.10959890418951478]",4.0,"[0.010391894415413326,0.03632246993971747]",100.0,"[-0.023463420468250624,-0.028793549007028255]",100.0,"[-0.14314406792983045,0.04658007497971939]",100.0,"[-0.18955259422865445,0.013992263904086052]",4.0,"[0.03441424137017933,0.08505329206904405]",4.0,"[-0.13034056450111636,-0.07471286415707978]",100.0,"[0.010983107516989343,-0.12467642593304044]",100.0,"[-0.08807592463342334,-0.07082740861129178]",100.0,"[0.051504037066196745,-0.17024011952914395]",100.0,"[-0.09252667092043394,-0.012519939315123492]",4.0,"[0.049371938826493836,0.1875175840546197]",100.0,"[-0.12284137469845768,0.11342799936252974]",4.0,"[0.13986157150460926,-0.02648591088888044]",4.0,"[-0.06943480270565755,-0.11277203768688764]",100.0,"[0.0006431578972080859,0.12677656364186887]",100.0,"[0.12832029051379518,0.09093435507275961]",100.0,"[0.19567616533153934,0.01730201130518098]",4.0,"[0.0071671102000379116,0.16736337894999412]",4.0,"[0.08876062134881026,0.0684696405256391]",100.0,"[0.02,0.02]",158.4851,0.0,12.0,12.0,62.0,1.0,,,,,,,
,,,,,,,6831d9e8ad8968b05a9c41a2,683aef33867e918121deecda,2025-05-31_07h59.41.990,shape_ratio,2024.1.5,Win32,68.02721088,683ae9196541af24d3a69e58,,,,,,,,,,,158.4866,158.9852,,,159.2265,160.023,right,0.7834,,,,,,,,,0.1,,,,,,158.9852,159.2264,160.025,"[0.10823562122115747,-0.12819046423669372]",4.0,"[0.09618458972849794,0.12250383876844687]",4.0,"[-0.07208969741333363,0.01703290696739155]",4.0,"[0.04414103648867847,-0.15836755350019663]",4.0,"[-0.12530000608413597,0.1301770611201773]",4.0,"[0.14193347853825944,-0.10382400421145967]",4.0,"[-0.06860111592649472,-0.023163181856749437]",4.0,"[-0.06182338390950047,-0.13749528898519367]",4.0,"[-0.1603990556544311,0.10642232113499372]",4.0,"[-0.12755854626694993,0.07009751987574492]",4.0,"[-0.08899315805459619,0.1478690031501803]",4.0,"[-0.030936477428928265,-0.06110615994266135]",4.0,"[0.0521121540542371,-0.10219758617874448]",4.0,"[0.061616631613439804,0.01742403944965572]",4.0,"[0.15627468762063876,0.07795105363665226]",4.0,"[-0.027344529581376863,0.1175847476057514]",4.0,"[-0.020375426211624286,-0.12730891240412442]",4.0,"[-0.05204417929500421,0.05301781389883796]",4.0,"[0.1693827333061664,0.028273276449551427]",4.0,"[-0.12390611631220866,-0.09299734510812702]",4.0,"[-0.08337763478719896,-0.1731205633543053]",4.0,"[0.04292700945357964,-0.0629021501719012]",4.0,"[0.013150030733573702,0.12145012012080807]",100.0,"[0.05089772174925883,0.06717723386915986]",4.0,"[-0.026823569057136773,-0.186776201338513]",100.0,"[-0.13824323485727974,0.01917058308207412]",4.0,"[-0.09781367687847149,-0.05488902599417301]",4.0,"[-0.10291741620572896,-0.1326765722332275]",4.0,"[0.01967781512645135,0.00035654598795394434]",4.0,"[-0.04865197236702483,0.18932081973760534]",4.0,"[0.028980104952623417,0.1796380486219682]",4.0,"[0.1852741596156384,-0.027351862658082562]",100.0,"[0.02,0.02]",161.1211,0.0,13.0,13.0,191.0,1.0,,,,,,,
,,,,,,,6831d9e8ad8968b05a9c41a2,683aef33867e918121deecda,2025-05-31_07h59.41.990,shape_ratio,2024.1.5,Win32,68.02721088,683ae9196541af24d3a69e58,,,,,,,,,,,161.123,161.6216,,,161.8186,162.5707,left,0.7412,,,,,,,,,0.9,,,,,,161.6218,161.8184,162.5708,"[-0.17516334521572158,-0.005128484495660697]",100.0,"[-0.1942471023195197,0.04307987035376628]",100.0,"[-0.11667221262764518,0.0533945139718101]",100.0,"[0.029895370501643512,-0.04785019948542023]",100.0,"[0.1147534557154247,-0.12140001729368496]",4.0,"[0.17924090013000754,-0.06558619914473411]",100.0,"[-0.03451416677872308,-0.13888976352862017]",100.0,"[-0.17631687538865828,0.08247314664529479]",100.0,"[-0.08657117168715595,0.1028235256017633]",100.0,"[-0.012166720485864035,-0.1949804870223872]",4.0,"[-0.06008159015120308,-0.08631966425704611]",100.0,"[0.07977079107446909,0.14990954491396902]",100.0,"[-0.10995146087137873,-0.037094093032892066]",100.0,"[0.12186036684169946,0.13075446237011645]",100.0,"[0.13445204965597932,0.0057396556347795984]",100.0,"[0.010179859928161955,0.1592465959944283]",100.0,"[-0.07473378127753391,0.04732069261868319]",100.0,"[-0.047009287203104495,-0.009065835061947015]",100.0,"[0.02934251034190752,-0.13836915357373547]",100.0,"[0.19530841414231198,0.0031526843522550756]",100.0,"[-0.12358888853587113,0.15535609247208879]",100.0,"[0.05743730480685011,0.08147261372759798]",100.0,"[0.12824474173163491,0.06740303085495791]",4.0,"[0.07489383798196417,-0.010424745174268541]",100.0,"[0.15798129006965358,0.03955684928229726]",100.0,"[-0.16326142576961566,-0.0758767682717642]",100.0,"[-0.1088670663888184,-0.16775155133385022]",100.0,"[-0.06451546969258598,0.15749998769400766]",100.0,"[0.015118336464234414,-0.0973788416559344]",100.0,"[0.006162833253334163,0.09044140820933229]",100.0,"[0.004942365033091289,0.02628370980172979]",100.0,"[-0.14245378532671302,-0.13273457931376334]",100.0,"[0.02,0.02]",163.6684,0.0,14.0,14.0,12.0,1.0,,,,,,,
,,,,,,,6831d9e8ad8968b05a9c41a2,683aef33867e918121deecda,2025-05-31_07h59.41.990,shape_ratio,2024.1.5,Win32,68.02721088,683ae9196541af24d3a69e58,,,,,,,,,,,163.6701,164.1681,,,164.4216,165.252,right,0.8115,,,,,,,,,0.1,,,,,,164.1683,164.4214,165.2521,"[0.10976472480592596,0.1452153623918274]",4.0,"[-0.1268183072582791,-0.05258326597601772]",4.0,"[-0.06306057902784534,-0.026022212759041843]",4.0,"[-0.1842411421345452,0.06013718159168341]",4.0,"[0.0057496695810256085,-0.057945909043896064]",4.0,"[0.11942437445763848,-0.03908810651242079]",4.0,"[-0.1030287755136652,-0.09987991309516077]",100.0,"[0.02095751234372265,0.044532937841585]",4.0,"[-0.039643407289710726,0.1806409089375506]",4.0,"[0.04981891857762676,0.14241282774559416]",4.0,"[0.1650414696041624,0.08385680959342919]",4.0,"[-0.13309164471681073,0.06103874949137169]",4.0,"[-0.10545873450579664,0.11315145543189054]",4.0,"[0.0706477817083977,-0.06830800046179597]",4.0,"[-0.05427608065299459,0.13174796030774655]",4.0,"[0.16908506680972837,0.03790061943715603]",4.0,"[-0.16365118934164696,0.0076507131858704015]",4.0,"[0.13412887854331482,-0.10662125123510541]",4.0,"[0.0017908002200753169,-0.11058133729981676]",4.0,"[-0.02709744110993032,0.01833554187927218]",4.0,"[0.06911626309093276,0.060908468600202784]",4.0,"[0.16111282014842657,-0.011158007646860719]",4.0,"[0.12140917137450227,-0.14838935415638554]",4.0,"[-0.04831126732640578,-0.06367194933953853]",4.0,"[0.07091129785707238,-0.129139404123365]",4.0,"[0.07178274229935896,-0.18101508787861345]",4.0,"[-0.09194782304132668,0.1634420994896294]",4.0,"[-0.11846564535944504,-0.15893975452633843]",100.0,"[-0.17808421325377954,-0.08243262457817711]",4.0,"[-0.0223815394862054,0.06244560156510664]",4.0,"[0.016846439345595248,-0.15062405948659477]",100.0,"[-0.0005168317521387018,-0.0182482017275956]",4.0,"[0.02,0.02]",166.3506,0.0,15.0,15.0,204.0,1.0,,,,,,,
,,,,,,,6831d9e8ad8968b05a9c41a2,683aef33867e918121deecda,2025-05-31_07h59.41.990,shape_ratio,2024.1.5,Win32,68.02721088,683ae9196541af24d3a69e58,,,,,,,,,,,166.3518,166.8508,,,167.0332,168.1495,left,1.1033,,,,,,,,,0.9,,,,,,166.8509,167.033,168.1498,"[0.0490157641761892,0.16265231340887723]",100.0,"[-0.059848223500796036,-0.0062276965692749575]",100.0,"[0.18761815638311372,0.009057406555266807]",100.0,"[0.004258605148451554,-0.18476006407076206]",100.0,"[0.07640612037559084,-0.09867228068791929]",100.0,"[0.03482092024988014,0.08253188460653595]",100.0,"[0.07378260617871084,0.06802718014869925]",100.0,"[0.010293472641380882,-0.07222011438622764]",100.0,"[-0.16198109162953198,-0.046333507658387514]",4.0,"[-0.06322030747415898,-0.14625068230700577]",100.0,"[-0.050012477276226215,0.17498831261119938]",4.0,"[0.16304577493981226,-0.08688155575321765]",100.0,"[-0.06766394235271497,0.055554541260098005]",100.0,"[-0.11425107434161538,0.1108790465579736]",4.0,"[0.0024416836667593552,0.14009337005816214]",100.0,"[-0.09516579187113089,-0.10923984233036971]",100.0,"[-0.0007822345737626304,-0.12240329076450984]",100.0,"[-0.09875710935273195,-0.06736277121028406]",100.0,"[0.1354030032433754,0.11061097599419036]",100.0,"[0.123418585872233,-0.07015304956819171]",100.0,"[0.04002640494875147,-0.14207278497607015]",100.0,"[-0.11233007725631622,-0.01978231710658961]",100.0,"[0.08652474767234229,0.0004406310364815423]",100.0,"[-0.04950088274810277,0.1283444994689963]",100.0,"[-0.15713577717372143,0.028710771284136648]",100.0,"[0.05991006244239742,-0.03010353615467256]",100.0,"[0.042290061032126194,0.03485477827044035]",100.0,"[0.13649354989456436,-0.020900710944756058]",100.0,"[0.006750994624070642,0.0034843402668695606]",100.0,"[-0.15194194570949368,0.09711949390274992]",100.0,"[-0.09934890498699663,0.1538174334914779]",100.0,"[0.10833563603816136,-0.14084644726398515]",100.0,"[0.02,0.02]",169.2511,0.0,16.0,16.0,26.0,1.0,,,,,,,
,,,,,,,6831d9e8ad8968b05a9c41a2,683aef33867e918121deecda,2025-05-31_07h59.41.990,shape_ratio,2024.1.5,Win32,68.02721088,683ae9196541af24d3a69e58,,,,,,,,,,,169.2524,169.7509,,,170.0011,170.8315,right,0.8213,,,,,,,,,0.5,,,,,,169.751,170.0009,170.8318,"[-0.08726520237905198,0.06322403906806594]",100.0,"[-0.05250997307220799,0.12252303192679415]",100.0,"[-0.16025659356642372,-0.09578299453786625]",4.0,"[-0.055524198803282666,0.03581786036272886]",4.0,"[0.004129332723003723,-0.17973661073259478]",100.0,"[-0.08356453501896109,-0.14402922830468098]",100.0,"[0.07091342942316982,0.00470190852682143]",4.0,"[0.14046490342503587,0.052465504753379924]",100.0,"[0.09858523481856866,-0.12339422439200902]",4.0,"[-0.1514036015076487,-0.050625763378338365]",4.0,"[0.026181463133749527,0.08016961821739045]",100.0,"[-0.03722659981486062,-0.04628833774556708]",4.0,"[-0.006472716416070945,-0.0790342958424418]",100.0,"[0.07624306242834286,-0.08805410202749175]",100.0,"[-0.008972554540916139,0.11246772659962845]",4.0,"[-0.09950352716629532,-0.0024939017629013716]",4.0,"[0.1673932039077177,-0.08060938809971516]",4.0,"[0.06701305162530315,0.12400634577333555]",100.0,"[0.1107577328128882,0.13616350106066274]",4.0,"[-0.09440387321995375,0.15819618062225455]",4.0,"[0.13366065047418124,-0.14797156212352278]",100.0,"[0.16287083411647338,-0.031077724861558274]",4.0,"[-0.16328406800855685,0.048345117745131984]",4.0,"[0.1035683455639953,0.03333980991556256]",4.0,"[0.08625208414414673,-0.1728419304335453]",100.0,"[-0.14911608257373962,0.09652900149014329]",100.0,"[0.007009328209315595,0.16212616376993874]",100.0,"[-0.011203320405885238,0.04965565440118667]",4.0,"[-0.0402424658031052,-0.1431114520957368]",100.0,"[0.05750613778846165,-0.1311489202250048]",100.0,"[0.02602126496373455,0.014541530597466316]",100.0,"[-0.04919731811537036,-0.09632502368818877]",4.0,"[0.02,0.02]",171.931,0.0,17.0,17.0,112.0,1.0,,,,,,,
,,,,,,,6831d9e8ad8968b05a9c41a2,683aef33867e918121deecda,2025-05-31_07h59.41.990,shape_ratio,2024.1.5,Win32,68.02721088,683ae9196541af24d3a69e58,,,,,,,,,,,171.9326,172.4306,,,172.6828,173.653,right,0.9601,,,,,,,,,0.1,,,,,,172.4307,172.6826,173.6534,"[-0.13477850101666253,-0.07294040083370411]",4.0,"[-0.03830469337050728,0.12496621447385647]",4.0,"[0.01260767991903231,-0.07536873870964544]",100.0,"[0.0849857774748697,-0.15161383365557415]",4.0,"[0.19226084351800599,-0.035858171812891436]",4.0,"[-0.1700122575234568,0.08803573056590665]",4.0,"[0.02282949697696971,0.14720098834050224]",4.0,"[0.025655964784908575,-0.03553675960257156]",4.0,"[0.15959585023076694,0.08472569467022747]",4.0,"[0.02249889663320042,0.034694221540650425]",100.0,"[0.08067920591377284,-0.062047905806015505]",4.0,"[-0.04540684982684634,0.02241095934988928]",4.0,"[0.09773515324739811,0.16113582439150206]",4.0,"[-0.07781941730799304,0.07839389358300806]",4.0,"[-0.14234438456016513,-0.14014110115081552]",4.0,"[-0.08564219872375381,-0.10129939938967672]",4.0,"[0.19910117294506033,0.006755833770100612]",4.0,"[-0.08415579077591893,-0.022189031021141996]",100.0,"[-0.00029613937146921206,-0.11595789509211976]",4.0,"[0.1117721493213939,0.02178668168951088]",4.0,"[0.12524431364797134,0.10564311433349659]",4.0,"[-0.08833859545022546,-0.1616954158192479]",4.0,"[-0.1576419294351834,-0.017498602659526033]",4.0,"[-0.09272291521964837,0.1206656701075868]",4.0,"[0.04627420120180611,0.18611491878599506]",4.0,"[0.08096944375917829,0.08428967843264917]",4.0,"[-0.144852115460673,0.13209238140989654]",4.0,"[-0.008672087313564966,0.07570202144866602]",4.0,"[-0.13416016765775865,0.048661320300678636]",4.0,"[-0.18489546265497137,-0.04942362047629388]",4.0,"[0.10974618783954762,-0.018373415561259605]",4.0,"[-0.037530686316123656,-0.048906720829421484]",4.0,"[0.02,0.02]",174.746,0.0,18.0,18.0,187.0,1.0,,,,,,,
,,,,,,,6831d9e8ad8968b05a9c41a2,683aef33867e918121deecda,2025-05-31_07h59.41.990,shape_ratio,2024.1.5,Win32,68.02721088,683ae9196541af24d3a69e58,,,,,,,,,,,174.7475,175.2457,,,175.4983,176.1633,right,0.6555,,,,,,,,,0.45,,,,,,175.2458,175.4981,176.1634,"[-0.0008450344039164522,-0.15265994896697826]",100.0,"[0.05941019872646916,-0.0570729212960391]",4.0,"[-0.05219297615381823,0.030013951203512905]",4.0,"[-0.12509472023354365,-0.14718746672077665]",100.0,"[-0.12160498975087865,0.039467943553161064]",100.0,"[0.07190460191850478,0.06292255807491907]",100.0,"[0.06707877859187325,0.023167869725613032]",100.0,"[0.11443520906126138,0.14601141722270627]",4.0,"[0.15275072920139432,0.034455753281348964]",100.0,"[-0.013610059895435149,-0.06965887402262469]",4.0,"[-0.07679782080865308,-0.0664997283482784]",4.0,"[-0.1460290618942776,0.11850921312701206]",100.0,"[0.06215973159408355,0.1878992111253613]",4.0,"[0.06554157128898752,0.1200719171584682]",100.0,"[-0.009654377476600088,0.04395450148781974]",4.0,"[-0.03007459863218023,-0.01878510196607198]",4.0,"[0.023894219484019957,-0.08717513070024689]",4.0,"[0.13490257052187984,0.08519706259045634]",4.0,"[-0.08920798518063833,0.09118721225472859]",100.0,"[-0.06851204394913461,0.145508714066621]",4.0,"[0.1363416607227368,-0.1102746966073259]",4.0,"[-0.12115378632163984,-0.027900225684145227]",100.0,"[-0.024400369382048093,-0.191101311230932]",100.0,"[-0.06736325557801866,-0.17638383410629013]",100.0,"[0.13820746488047297,-0.006955918367193341]",100.0,"[0.15071462240760325,-0.05719521298100827]",4.0,"[0.03642491007089256,-0.13051168287618123]",4.0,"[0.03238045551264405,-0.013916102981634301]",4.0,"[-0.03629991325596798,0.1940173130693357]",4.0,"[-0.1337252221432809,-0.09017689606187067]",4.0,"[0.05116327712964469,-0.19216077351964694]",4.0,"[-0.16954867245862743,-0.05651520374665297]",100.0,"[0.02,0.02]",177.2622,0.0,19.0,19.0,132.0,1.0,,,,,,,
,,,,,,,6831d9e8ad8968b05a9c41a2,683aef33867e918121deecda,2025-05-31_07h59.41.990,shape_ratio,2024.1.5,Win32,68.02721088,683ae9196541af24d3a69e58,,,,,,,,,,,177.2644,177.7613,,,178.0185,178.7696,left,0.7355,,,,,,,,,0.55,,,,,,177.7616,178.0183,178.7698,"[-0.0867103735022502,0.14345707129569335]",100.0,"[0.015075497224112519,0.05992048111713646]",4.0,"[0.12299511412459055,0.07390057200728466]",100.0,"[-0.06460216154710952,-0.06274871914741732]",4.0,"[-0.024214680247632632,-0.05234111098871393]",100.0,"[-0.018822792921858365,-0.14308118460967084]",4.0,"[0.020200730976030135,0.1484289597459623]",4.0,"[0.07459791231973542,-0.14630594241136535]",100.0,"[-0.049712207512223244,-0.013253474324163192]",100.0,"[-0.1793418913276471,0.002232932777030371]",100.0,"[0.056232528173562696,0.021340940257295778]",100.0,"[0.08906916041287108,0.1437649739107466]",4.0,"[-0.03998774146166354,0.05791419514817867]",4.0,"[-0.05209938933059302,0.18533281819658035]",100.0,"[-0.11110457696968175,-0.02640911830017894]",100.0,"[0.19336982677740244,0.007142450862285799]",4.0,"[-0.13245449132314943,-0.09265889038733194]",4.0,"[-0.10693851156182528,0.050538587183380154]",100.0,"[-0.1850852842748947,0.0418272847731598]",4.0,"[0.038113736052079586,-0.12534739405524484]",100.0,"[-0.150949427992091,0.10967233576992987]",100.0,"[0.14277577130969327,-0.013292539713500461]",100.0,"[0.11450135657757117,0.02777022534176049]",4.0,"[0.0791459037315173,-0.09824261366064026]",100.0,"[-0.19039730667661764,-0.05508034895237507]",4.0,"[-0.062061635499280635,0.0934209702272365]",100.0,"[0.052378321239239176,-0.04054733446113602]",4.0,"[0.0007429192263843441,-0.10507066500568699]",4.0,"[-0.01662753110353845,-0.18409170296868962]",100.0,"[0.15171600084503403,-0.1048748475976481]",4.0,"[0.07033569745828362,0.10366283661449875]",100.0,"[0.035114282060877355,-0.1804416740749945]",100.0,"[0.02,0.02]",179.8654,0.0,20.0,20.0,82.0,1.0,,,,,,,
,,,,,,,6831d9e8ad8968b05a9c41a2,683aef33867e918121deecda,2025-05-31_07h59.41.990,shape_ratio,2024.1.5,Win32,68.02721088,683ae9196541af24d3a69e58,,,,,,,,,,,179.8667,180.3626,,,180.6135,181.1978,right,0.575,,,,,,,,,0.1,,,,,,180.3627,180.6133,181.1983,"[0.04085160300053154,-0.074982473906777]",4.0,"[0.07348871337487249,0.17722295669003424]",4.0,"[0.10343432461585562,-0.1472324085085368]",4.0,"[0.1017128082893526,0.1358543940886736]",4.0,"[-0.026875660174676536,-0.06420561087151844]",4.0,"[0.16069364497776492,-0.11139187280754496]",4.0,"[0.10395384433398164,0.03653555529721622]",4.0,"[-0.031166216969807474,-0.009572794723168838]",4.0,"[-0.11565582412446851,0.05831459445484779]",4.0,"[-0.13739733114167874,0.017845642996300922]",4.0,"[0.0592635776926838,0.0023214634961310505]",100.0,"[0.10023665213386888,-0.07895665866262921]",4.0,"[0.012025760433119734,0.06578914564337328]",4.0,"[0.19344237719752275,-0.04522399416678647]",100.0,"[0.024421054457355807,-0.0321062201387301]",4.0,"[-0.11166528408100188,-0.07347931448403089]",4.0,"[0.13709387277315382,0.1067233887251477]",4.0,"[-0.1825126018206534,0.0645991424422902]",4.0,"[-0.029762694402543182,0.07417970283787936]",4.0,"[-0.11835488874702568,0.11434109445776271]",4.0,"[0.050757364013429104,-0.14199672088292575]",4.0,"[-0.07151539633318853,0.005816778139559306]",4.0,"[0.03524850071648989,0.13967096779703864]",4.0,"[-0.18467424277284972,0.0008880043764747169]",100.0,"[-0.002749948360249292,0.1887696240117432]",4.0,"[0.0006866014157391865,-0.156665453545429]",4.0,"[0.12230789831528865,-0.0032783350868177906]",4.0,"[0.0643141771783084,0.0820519893361858]",4.0,"[-0.13073029461600144,-0.1128819711527467]",4.0,"[-0.06258989344039086,-0.10484622381522322]",4.0,"[-0.06601932638939317,0.11874114192137378]",4.0,"[-0.06352511357132232,-0.14610178915343594]",4.0,"[0.02,0.02]",182.2932,0.0,21.0,21.0,197.0,1.0,,,,,,,
,,,,,,,6831d9e8ad8968b05a9c41a2,683aef33867e918121deecda,2025-05-31_07h59.41.990,shape_ratio,2024.1.5,Win32,68.02721088,683ae9196541af24d3a69e58,,,,,,,,,,,182.2947,182.7935,,,183.0353,183.6646,right,0.6164,,,,,,,,,0.5,,,,,,182.7935,183.0352,183.665,"[0.07328029419907907,-0.08068086789681223]",100.0,"[-0.048072725343948325,0.015042300030630291]",4.0,"[0.15346705717224138,0.06537812667848664]",100.0,"[0.03158766428478446,0.1571692474057377]",100.0,"[-0.08907486864619292,-0.028274779289762998]",100.0,"[0.09946430503494359,-0.16981176267552384]",4.0,"[0.13419006709078968,-0.009879015213351668]",4.0,"[-0.11470008613386427,0.09665755978671109]",100.0,"[0.014912988785427468,0.016474822942973113]",100.0,"[-0.01165925803101469,-0.12620189682282212]",100.0,"[0.030588176430545812,-0.04353725375533223]",4.0,"[0.0484538360814525,0.04065912152181475]",100.0,"[-0.014957006279222869,0.09420592857470723]",4.0,"[-0.1797300975020561,-0.0528944425889139]",4.0,"[0.13720901793719278,-0.11887086716607885]",100.0,"[0.08353006224367968,0.08693481417119005]",4.0,"[0.10888956148404022,-0.04573153017817046]",4.0,"[-0.09340223542639754,-0.17434189344185494]",4.0,"[-0.01995117240838851,-0.07925255940145803]",100.0,"[-0.16370828818044383,0.08201535849648604]",4.0,"[-0.14186173739991043,-0.13948795275629058]",100.0,"[-0.06437271351229966,0.18813535593199887]",4.0,"[-0.14921785221412318,-0.025403328894645215]",100.0,"[0.1789092292566164,-0.02803191237299547]",4.0,"[0.008191924601239924,-0.1869779477125088]",4.0,"[-0.03579768181015972,-0.02683439399404049]",100.0,"[0.05773535922226067,-0.005652002412789777]",100.0,"[0.09663932099084964,0.048864737294341036]",4.0,"[-0.046009475011346564,-0.17921167489416007]",100.0,"[0.04383476126189598,-0.15840060021522623]",100.0,"[0.16674297847934483,-0.08084824809091837]",4.0,"[-0.08445521517373275,-0.13427045951061498]",4.0,"[0.02,0.02]",184.7607,0.0,22.0,22.0,92.0,1.0,,,,,,,
,,,,,,,6831d9e8ad8968b05a9c41a2,683aef33867e918121deecda,2025-05-31_07h59.41.990,shape_ratio,2024.1.5,Win32,68.02721088,683ae9196541af24d3a69e58,,,,,,,,,,,184.7621,185.2598,,,185.512,187.0096,,,,,,,,,,,0.6,,,,,,185.26,185.5119,187.0098,"[0.16995298965543462,-0.09991819004008512]",100.0,"[-0.11415706301861046,-0.08963167288837313]",100.0,"[-0.1401052906184903,0.08223713846184905]",100.0,"[-0.0532155819037007,-0.06854787195015731]",4.0,"[0.0925410842972462,-0.013364578371786302]",100.0,"[-0.11051415531233023,0.02876961538674052]",4.0,"[-0.05594031406204111,0.15491397870049256]",4.0,"[0.1946248223188344,-0.012191874804550093]",4.0,"[-0.05141908703002661,0.06279150325328597]",4.0,"[-0.012214655828103082,0.16465250390566608]",100.0,"[0.1170603788695382,0.09314994152314039]",100.0,"[0.17599290583314173,0.029433196626314606]",100.0,"[-0.06944272536939484,-0.12521078175451675]",4.0,"[-0.09248473663392084,0.08918085470148263]",4.0,"[-0.17356663788701612,-0.06985249519145423]",4.0,"[0.05668934158358831,-0.16000956440956213]",100.0,"[-0.06679736121974682,-0.00523917649040315]",4.0,"[0.027273348471680937,0.010349647134567028]",100.0,"[-0.0008325699865532556,-0.05885334611524955]",100.0,"[0.11267817578616626,0.14602785579780705]",100.0,"[-0.044955263871060316,-0.16939314290335292]",100.0,"[-0.10224148390517156,0.13585364681111792]",4.0,"[-0.023883532606241004,-0.020464141181622698]",4.0,"[-0.025846310565087884,-0.10824005750131657]",100.0,"[0.07805896193961231,0.032606371511331285]",100.0,"[0.01559725258262148,0.1950404167943586]",100.0,"[0.05965241710252065,0.17029777503019722]",100.0,"[0.07635107926721904,-0.10114395702927408]",100.0,"[0.165389724989948,0.09707543354983415]",4.0,"[-0.10660790489038763,-0.029394570550060728]",100.0,"[-0.1639108623145346,0.03334051618628056]",100.0,"[0.182868823824959,-0.0538292824674163]",4.0,"[0.02,0.02]",188.1096,0.0,23.0,23.0,38.0,1.0,,,,,,,
,,,,,,,6831d9e8ad8968b05a9c41a2,683aef33867e918121deecda,2025-05-31_07h59.41.990,shape_ratio,2024.1.5,Win32,68.02721088,683ae9196541af24d3a69e58,,,,,,,,,,,188.112,188.6129,,,188.8602,189.3753,right,0.5012,,,,,,,,,0.1,,,,,,188.6131,188.8599,189.3754,"[0.18397449701791804,0.036262541717859954]",4.0,"[-0.11183548921910955,0.0400573203413023]",100.0,"[0.00565854808857819,0.005090441874665825]",4.0,"[-0.03223218722469384,-0.19486846322119764]",4.0,"[0.07421841754526777,0.09816438781984986]",4.0,"[-0.01135612920842301,-0.05280869885166488]",4.0,"[-0.12955211435536484,-0.13936807214823166]",4.0,"[-0.14505081268516473,0.11100007901806795]",100.0,"[-0.12000112083086614,-0.07949668362369607]",4.0,"[0.09173678874597287,0.0012161736389114713]",100.0,"[0.1120133912446497,0.08110723832857329]",4.0,"[0.07355108100715885,-0.06330388996460186]",4.0,"[0.050455443304004796,0.17198954492520505]",4.0,"[-0.03411289961593738,-0.09745639407456486]",4.0,"[-0.029589857183812657,0.11386814329698264]",4.0,"[-0.07431354687386045,-0.03074490097888641]",4.0,"[0.1563933643734344,-0.024810099148496145]",4.0,"[0.10279478295337623,0.13015516940836613]",4.0,"[0.08112043034892143,-0.1498481494195456]",4.0,"[-0.17512942554739014,-0.06395867113500396]",4.0,"[0.15048047417769952,-0.12096842621377157]",4.0,"[-0.05387781157469229,0.058331934728715486]",4.0,"[0.05732045022997764,-0.10401441731701822]",4.0,"[0.13286687344172435,-0.08219032663911312]",4.0,"[0.12004438090396473,0.03128262497635014]",4.0,"[0.014046007034330683,-0.14060928656804222]",4.0,"[0.009950417102731686,0.17609773818271368]",4.0,"[-0.1866199263178796,-0.024989838901855785]",4.0,"[0.10194553056158501,-0.11482028199608915]",4.0,"[0.011420741346056217,0.1174611760299633]",4.0,"[-0.11442449685276729,-0.023113775315605673]",4.0,"[0.01579714652240836,0.053579440242751075]",4.0,"[0.02,0.02]",190.4739,0.0,24.0,24.0,194.0,1.0,,,,,,,
,,,,,,,6831d9e8ad8968b05a9c41a2,683aef33867e918121deecda,2025-05-31_07h59.41.990,shape_ratio,2024.1.5,Win32,68.02721088,683ae9196541af24d3a69e58,,,,,,,,,,,190.4754,190.9736,,,191.1599,191.6407,left,0.4665,,,,,,,,,0.9,,,,,,190.9737,191.1597,191.6409,"[-0.05213796188887977,-0.14715200316071]",100.0,"[0.07201763702190803,0.16804171662542458]",4.0,"[0.13023717662672474,0.12331276415534172]",100.0,"[-0.018778043687297234,0.0989011681451925]",100.0,"[-0.051513443365286446,-0.02637853378560985]",100.0,"[0.015017046354643264,-0.18712310011399658]",100.0,"[0.13032387084392383,-0.10545463805402328]",100.0,"[0.1348423635745682,-0.027248308797227436]",100.0,"[-0.12674075569865567,0.04324671320974535]",100.0,"[0.08798835178105784,0.027067698448709536]",100.0,"[-0.007839169186821553,-0.13409854481007244]",100.0,"[-0.1358432248631978,-0.055457987662035246]",100.0,"[-0.10149871209814436,0.11425254995196266]",4.0,"[0.07217508095590211,0.06953182422319376]",100.0,"[-0.09585453880207995,-0.009499978700762461]",100.0,"[0.12818810830932548,0.01869659226357573]",100.0,"[0.012703997277997143,0.13087723076449537]",100.0,"[0.015176949721003226,-0.09157910631751802]",100.0,"[-0.030472322970145217,0.15998377213009687]",100.0,"[0.13984976255537032,0.07671885849725148]",100.0,"[-0.18861855849417192,-0.060389307627920566]",100.0,"[-0.026272302791281506,0.04005335901441651]",100.0,"[0.059489845952794544,0.11152895305896898]",100.0,"[0.01299700570575506,0.06827495857822545]",100.0,"[-0.10432851823718929,-0.09393040435032853]",4.0,"[0.06130466492441178,-0.10075249305399667]",100.0,"[0.18382109677614664,0.007767420861174393]",100.0,"[0.1018607951228946,-0.07542963007439692]",100.0,"[-0.030621817482341305,-0.1917616686619342]",100.0,"[0.052627087596614795,-0.0025492232724092217]",100.0,"[0.12862315631194104,-0.14552620800399754]",100.0,"[-0.08053429670987715,0.1679623237959401]",100.0,"[0.02,0.02]",192.7404,0.0,25.0,25.0,9.0,1.0,,,,,,,
,,,,,,,6831d9e8ad8968b05a9c41a2,683aef33867e918121deecda,2025-05-31_07h59.41.990,shape_ratio,2024.1.5,Win32,68.02721088,683ae9196541af24d3a69e58,,,,,,,,,,,192.7426,193.2392,,,193.481,194.1813,left,0.6863,,,,,,,,,0.9,,,,,,193.2395,193.4809,194.1814,"[-0.0463774237484134,-0.12707699957012925]",100.0,"[-0.17382798828885918,-0.07818805865246888]",100.0,"[0.07666623180198108,0.15599529660873654]",100.0,"[0.03334757593572456,-0.15060408700496766]",100.0,"[0.12466041683040285,-0.10932587205353916]",100.0,"[-0.06996893305291109,-0.0508999342039985]",100.0,"[0.0002482714497977015,0.17339602872957835]",100.0,"[0.11632192908610411,0.13478652797774957]",100.0,"[-0.19027506117103876,0.006300668127185354]",100.0,"[-0.009579101706360433,-0.005114172890309181]",100.0,"[0.08783448777016876,-0.016073650650055442]",100.0,"[0.06694202863870091,-0.07588260345669828]",100.0,"[-0.10639274262985256,0.07186901265302585]",100.0,"[0.03666687888662126,-0.10623782975161193]",100.0,"[0.010090568975346027,0.105299013578027]",4.0,"[0.15476216318282593,0.035019229642196156]",100.0,"[-0.10554762585653514,-0.1283410010176374]",100.0,"[-0.12644946891438316,-0.06508308900350716]",4.0,"[-0.05812370886796383,0.0007906307589144332]",100.0,"[0.18032391394257175,-0.045138154742079765]",100.0,"[0.021588638325736886,-0.04245443760172956]",100.0,"[0.11437130187162861,0.09049351748159853]",100.0,"[0.11170482332888218,-0.0688219406796383]",4.0,"[-0.14600279687343845,0.03253752298996649]",100.0,"[-0.027939854295009357,0.05122295557611813]",100.0,"[-0.05921606982940497,0.12321359191176452]",100.0,"[-0.14432005853321347,0.1198687746314538]",100.0,"[0.07933331519182321,-0.1494983860754333]",100.0,"[-0.07387934613627138,-0.09429982679711743]",100.0,"[0.040121067470629164,0.19469303451563322]",100.0,"[0.09686441922471739,0.05387552921347168]",100.0,"[-0.03279695700245513,-0.19676976142501662]",100.0,"[0.02,0.02]",195.2767,0.0,26.0,26.0,5.0,1.0,,,,,,,
,,,,,,,6831d9e8ad8968b05a9c41a2,683aef33867e918121deecda,2025-05-31_07h59.41.990,shape_ratio,2024.1.5,Win32,68.02721088,683ae9196541af24d3a69e58,,,,,,,,,,,195.2778,195.7768,,,196.0246,196.9395,right,0.9008,,,,,,,,,0.9,,,,,,195.7768,196.0245,196.9398,"[0.15103283084504207,0.11546049781752477]",100.0,"[-0.0322093869445786,0.035088302890038905]",4.0,"[-0.16291031623812918,0.03662444474844006]",4.0,"[-0.04967911386636664,0.18934416252546826]",100.0,"[-0.18726874073465946,-0.06679091461131263]",100.0,"[0.03530018686830591,0.04661379895905674]",100.0,"[0.1947433581112615,0.0348852698772712]",4.0,"[-0.05123536125393734,0.14744738701302143]",100.0,"[-0.11018140095628333,0.0002027292478671981]",100.0,"[0.14537383111066618,-0.06799525517780798]",100.0,"[0.0938572170411212,-0.15534848010077576]",100.0,"[-0.046562091912844376,-0.16484832627987372]",100.0,"[0.09276954159102625,-0.10428280093120498]",100.0,"[0.19272081894068285,-0.051170179538286314]",100.0,"[-0.0679875901349866,0.10098056950231966]",100.0,"[0.0861105294903403,-0.029405446666984896]",100.0,"[0.005028771495560989,0.18674632408033132]",100.0,"[-0.16755451106483335,-0.00448898401674339]",100.0,"[0.14817049771402985,-0.13247427929900438]",100.0,"[-0.08398298246594682,-0.04081166071294347]",100.0,"[0.03814871965644124,-0.1270854196956807]",100.0,"[-0.06482249074004331,-0.12400551587553148]",100.0,"[0.1160920097005274,0.02235848646280892]",100.0,"[-0.00631642277015908,0.12657832106897013]",100.0,"[-0.13705691777354637,-0.04825322865444973]",100.0,"[-0.09458992636466049,-0.08704694686315195]",100.0,"[0.015096439281342088,0.004235487877248175]",100.0,"[0.07051840750786173,0.08133921379739173]",100.0,"[0.040418699862546946,0.14025233047082108]",100.0,"[0.0648274807589572,0.015674323122340524]",100.0,"[-0.1296276664668751,0.07998492199026724]",100.0,"[0.11246590569560334,0.08491721328872302]",100.0,"[0.02,0.02]",198.0385,0.0,27.0,27.0,17.0,1.0,,,,,,,
,,,,,,,6831d9e8ad8968b05a9c41a2,683aef33867e918121deecda,2025-05-31_07h59.41.990,shape_ratio,2024.1.5,Win32,68.02721088,683ae9196541af24d3a69e58,,,,,,,,,,,198.0409,198.5378,,,198.7892,199.5723,right,0.7721,,,,,,,,,0.55,,,,,,198.538,198.7891,199.5725,"[0.18638802398321133,0.03316542078875403]",4.0,"[-0.014790908685995242,-0.06066404283805261]",4.0,"[0.13407181765365736,0.13602277604894739]",100.0,"[0.005061172612900522,-0.1932976295873447]",100.0,"[-0.09610906574793074,0.043213308084484744]",4.0,"[0.15177002654914737,-0.06621194746721525]",100.0,"[-0.06292947927544017,-0.004592504944687421]",100.0,"[-0.008645798000974998,0.034042724809743824]",100.0,"[-0.11883191860579458,-0.1498955537690637]",100.0,"[-0.11972714966479976,0.07993515275774138]",4.0,"[-0.13300559255661082,-0.009301843402211692]",4.0,"[-0.08350503011003603,-0.08504241021818183]",4.0,"[-0.12540086855070243,-0.07252012995543987]",100.0,"[0.12408666546358278,0.08597318718113554]",100.0,"[0.047090981384705875,-0.13068423718427058]",100.0,"[0.06676418025468356,0.04010183560817672]",100.0,"[-0.04867531800057633,-0.17672434862035127]",4.0,"[-0.18326667502735855,0.07766509818762052]",100.0,"[-0.08770955108213181,0.13215370472399848]",4.0,"[0.19483234981236403,-0.027781345349512394]",100.0,"[0.07774753521420597,0.12843873297764574]",4.0,"[-0.06658117877969949,0.07471390682519095]",4.0,"[0.07210168982043456,0.18058177797586877]",100.0,"[-0.0011465618741928266,-0.15261055968363843]",100.0,"[0.04057246033727871,-0.06926005546617993]",4.0,"[0.09257482540183938,-0.14763567192449153]",4.0,"[0.13767833021985312,-0.01560185411669723]",100.0,"[-0.17669154050906388,0.030262143689531302]",4.0,"[0.09714164670854217,-0.004075358737602453]",4.0,"[0.08656425915532924,-0.0938435223080018]",100.0,"[0.08102387385283305,-0.046549697727194646]",100.0,"[-0.13069803255311424,0.12836224234526633]",100.0,"[0.02,0.02]",200.6717,0.0,28.0,28.0,65.0,1.0,,,,,,,
,,,,,,,6831d9e8ad8968b05a9c41a2,683aef33867e918121deecda,2025-05-31_07h59.41.990,shape_ratio,2024.1.5,Win32,68.02721088,683ae9196541af24d3a69e58,,,,,,,,,,,200.6733,201.1701,,,201.423,202.2369,left,0.8014,,,,,,,,,0.6,,,,,,201.1702,201.4228,202.2371,"[-0.0863696963633589,0.15350088802763504]",100.0,"[-0.005693802142119524,-0.198088109450581]",100.0,"[0.01342922712868005,0.07122912196374184]",4.0,"[-0.09471916316173976,0.06306912760264825]",100.0,"[0.17160196265908895,0.005575123021381935]",4.0,"[0.04075604159591705,-0.08089985066719353]",100.0,"[-0.11394175697081771,-0.16025593716983816]",4.0,"[-0.03782878209634977,0.12385286901605706]",100.0,"[-0.01320987430783888,-0.15652562067245263]",4.0,"[0.11977747678705108,0.08375812035704279]",100.0,"[-0.06184992399361104,0.1898539242833874]",4.0,"[0.10521571482479736,-0.02283998008388876]",4.0,"[-0.03601823535982325,0.049486641151582536]",100.0,"[0.11292677175392044,-0.09385306645748108]",4.0,"[-0.005802507780936722,-0.0031911424608214436]",4.0,"[-0.1352983853336233,0.06553386800290303]",100.0,"[0.09679754554857184,0.13033896253188618]",4.0,"[0.06461820283737905,0.05172769094830801]",4.0,"[0.02722863270250091,0.1263245657055058]",100.0,"[-0.18600206410236275,0.02404282813789229]",100.0,"[0.014732550301660763,0.18313181858697852]",100.0,"[0.04467891724786684,0.003176284411105818]",4.0,"[0.14025620482616583,-0.06446227754883978]",100.0,"[0.1543931364082221,0.12646617193636023]",100.0,"[-0.12289759794482016,-0.02675148159749152]",4.0,"[-0.007327839481282646,-0.06528428484955609]",100.0,"[0.04848593700510176,-0.16914720615412596]",100.0,"[0.17595971904539162,0.08652891497624117]",100.0,"[-0.06948104612211667,-0.006658781009761454]",100.0,"[0.1457245142360814,0.045244157008076775]",100.0,"[-0.17784447338803203,0.08762653785256676]",4.0,"[0.0718947678825182,-0.10769277309598038]",100.0,"[0.02,0.02]",203.3361,0.0,29.0,29.0,50.0,1.0,,,,,,,
,,,,,,,6831d9e8ad8968b05a9c41a2,683aef33867e918121deecda,2025-05-31_07h59.41.990,shape_ratio,2024.1.5,Win32,68.02721088,683ae9196541af24d3a69e58,,,,,,,,,,,203.3374,203.8356,,,204.0886,204.6197,right,0.5219,,,,,,,,,0.5,,,,,,203.8356,204.0884,204.6198,"[0.01194003433164456,-0.13205214023172263]",4.0,"[-0.11520208264089744,-0.13410767054315603]",4.0,"[0.06137918006261738,-0.04359389001184185]",4.0,"[-0.17155859517402716,-0.051850896587926625]",4.0,"[-0.022272800057542178,-0.0088559537087015]",100.0,"[0.1107559383565986,0.15700298649010497]",100.0,"[-0.10776639206068775,0.027527959654270923]",100.0,"[0.01325949127160253,-0.07096931079651658]",100.0,"[-0.08404983015475022,-0.015586681854018791]",4.0,"[-0.16734608500772274,-0.004422271358643831]",4.0,"[-0.07275076019236006,-0.12114987562085727]",100.0,"[-0.16274523397141827,0.06928183544561889]",100.0,"[0.13329501454839907,0.059367273679203025]",100.0,"[0.08516058548452958,-0.07800629169563801]",4.0,"[0.03398615545081631,0.0909970284800475]",100.0,"[0.08583780820126248,0.07729695984920044]",100.0,"[0.12068515976287233,-0.04282655675533833]",4.0,"[0.09979000335598097,0.03186621133829691]",100.0,"[0.17470005658763743,0.05734712272631653]",4.0,"[0.04239519213491502,0.010276144450536893]",100.0,"[0.17860886512632654,-0.009002524476752791]",4.0,"[0.09315934722514067,-0.008722426759141108]",4.0,"[-0.13350097539948003,0.12161689834894418]",100.0,"[-0.04790585521590114,-0.17815220901286835]",100.0,"[0.010366286770543017,-0.1924482029200372]",100.0,"[0.09321328643078304,-0.1424516779144221]",4.0,"[-0.04616819865153138,-0.06001997564554272]",4.0,"[0.12953865790611524,0.10742721453167883]",100.0,"[-0.025386929886804764,0.09923509324202714]",4.0,"[-0.0980410771014023,0.066530748341042]",100.0,"[-0.026064730397888265,0.1620429926285808]",4.0,"[-0.005141663633004001,0.02816731752454149]",4.0,"[0.02,0.02]",205.7195,0.0,30.0,30.0,113.0,1.0,,,,,,,
,,,,,,,6831d9e8ad8968b05a9c41a2,683aef33867e918121deecda,2025-05-31_07h59.41.990,shape_ratio,2024.1.5,Win32,68.02721088,683ae9196541af24d3a69e58,,,,,,,,,,,205.7211,206.2188,,,206.4756,207.1408,right,0.6509,,,,,,,,,0.5,,,,,,206.2192,206.4755,207.1409,"[0.16767225186238968,0.038674966940675265]",4.0,"[-0.014519442434845318,-0.1007690663766453]",4.0,"[0.08497648443986792,0.1485499900284105]",4.0,"[-0.12015841739549782,-0.13242289242801586]",100.0,"[0.029376598011271723,-0.14378440981684723]",4.0,"[-0.07729364151651258,-0.10250318306628091]",100.0,"[0.10753706354159655,-0.04867900785074343]",4.0,"[-0.09571788971215904,0.16194016228019523]",4.0,"[0.15178640392055878,0.1170774078748744]",4.0,"[0.07253132256469866,-0.18259809682835504]",100.0,"[0.07374622675759444,0.03474035882989748]",100.0,"[-0.06403066190485568,0.09258205845575405]",4.0,"[0.11532055750632413,0.01676959345107525]",100.0,"[0.006110686915276611,0.12056828221040758]",4.0,"[0.03420419174967334,-0.018012132537000274]",4.0,"[-0.04486742231509021,-0.07399051801693217]",100.0,"[-0.12147558496116215,-0.09126108044741545]",100.0,"[-0.17747383355824609,-0.07238812876668468]",4.0,"[-0.01576506607575423,0.16949718383611154]",4.0,"[0.04292285255788367,0.09461148660474968]",4.0,"[-0.013927201533368435,-0.17035306396912714]",100.0,"[0.01739133629283838,0.03275081801263328]",100.0,"[0.11001889398973992,-0.09156919363789089]",100.0,"[0.16847387049374757,-0.07596287538188944]",100.0,"[-0.1311581088106146,-0.0016962318669705937]",100.0,"[-0.033366505313000394,0.06276276064437375]",100.0,"[0.11361770602153565,-0.13245119857813753]",100.0,"[0.070160379360369,-0.08188967780271046]",4.0,"[-0.09098960317413551,-0.011784136887135883]",4.0,"[-0.08943107019803177,0.05813965548631305]",100.0,"[0.11638121224138506,0.08741327762777867]",4.0,"[0.041445172415548494,0.16911702421838024]",100.0,"[0.02,0.02]",208.238,0.0,31.0,31.0,96.0,1.0,,,,,,,
,,,,,,,6831d9e8ad8968b05a9c41a2,683aef33867e918121deecda,2025-05-31_07h59.41.990,shape_ratio,2024.1.5,Win32,68.02721088,683ae9196541af24d3a69e58,,,,,,,,,,,208.2392,208.7399,,,208.9874,209.5867,right,0.5833,,,,,,,,,0.6,,,,,,208.7402,208.9873,209.587,"[-0.049149384844909966,0.09544636374892222]",4.0,"[-0.0960963342604655,-0.0011197980487556481]",4.0,"[-0.11503944312650341,0.07896881389616796]",4.0,"[0.03127639458584901,0.03279127496735685]",100.0,"[0.047304816523992654,0.14546168785252678]",100.0,"[0.14962863420425518,0.07269305613834463]",100.0,"[-0.09180850862079196,-0.15978556876931685]",100.0,"[0.1943714816509831,-0.036199727881103386]",100.0,"[-0.01405916800373992,-0.05655228227477046]",100.0,"[-0.06042323937410042,-0.11514626939741887]",100.0,"[0.07617388175020313,0.07000561774532259]",100.0,"[0.1297514026191356,0.14390371371464075]",4.0,"[0.1538100330005737,-0.09410818111313186]",100.0,"[-0.13901169212671768,-0.12211994726992491]",100.0,"[-0.06365450051838849,-0.03640351773976336]",4.0,"[0.009966339959340218,-0.1699756964057219]",4.0,"[-0.011564019293811657,0.017710545184936873]",100.0,"[-0.07199658152226819,0.16320109328766483]",4.0,"[-0.1353353441609859,0.14011892310973104]",100.0,"[0.012562714885248655,-0.10518229336160387]",100.0,"[0.01271084507530873,0.09204170066070688]",100.0,"[0.1767594094253035,0.006421701353456149]",100.0,"[-0.1445618826168038,-0.0006785051037644203]",4.0,"[-0.07816122133950186,0.05288611999847587]",100.0,"[0.024990024152560717,0.18385136961786666]",4.0,"[0.05756704084828992,-0.14385635639058034]",4.0,"[-0.03277620198501495,-0.1665041679189474]",100.0,"[-0.13291602867090527,-0.06114277741917774]",4.0,"[-0.03401952420701562,0.19513812148060214]",4.0,"[0.1111531467187113,0.10168764425915455]",100.0,"[0.05412036543791836,-0.18570559653098037]",4.0,"[-0.16689955711724538,0.09701695212823945]",100.0,"[0.02,0.02]",210.6845,0.0,32.0,32.0,43.0,1.0,,,,,,,
,,,,,,,6831d9e8ad8968b05a9c41a2,683aef33867e918121deecda,2025-05-31_07h59.41.990,shape_ratio,2024.1.5,Win32,68.02721088,683ae9196541af24d3a69e58,,,,,,,,,,,210.6862,211.1838,,,211.4359,212.0337,left,0.5836,,,,,,,,,0.9,,,,,,211.1839,211.4355,212.0339,"[-0.03454179315903433,-0.18608933111920048]",4.0,"[-0.14947737363772806,-0.08243076747460042]",100.0,"[0.07165323769930469,0.0527182397030405]",100.0,"[-0.05179609157359184,-0.06472825768331014]",4.0,"[-0.1067592862071261,-0.11566432800933531]",100.0,"[0.015514620554595099,-0.16467288729773308]",100.0,"[-0.1682235150204427,0.0796866496464631]",100.0,"[-0.1004962644366236,-0.02693582363484633]",100.0,"[-0.13907327051888152,0.13791349817094545]",100.0,"[-0.031708883993365876,0.04341694548201945]",100.0,"[-0.19389914364593192,0.018971464512245344]",100.0,"[-0.17413679047188968,-0.03565712930660497]",100.0,"[0.023017589868772077,-0.12059718629166336]",100.0,"[0.17760028949583573,-0.06316284392821891]",100.0,"[0.1287200893805795,0.14293892635675393]",100.0,"[0.020962757174948964,0.059712751676409936]",100.0,"[0.11100798997175744,-0.04472727990483203]",100.0,"[-0.13191269064794775,0.025909090450340094]",4.0,"[0.17663782565139086,0.025529244258677735]",100.0,"[-0.05252603457471164,0.09423909882158676]",100.0,"[-0.08540581849213935,-0.17418161436366145]",100.0,"[0.006175768196325124,-0.06278120053422577]",100.0,"[-0.09261709519601292,0.04030656799012067]",100.0,"[0.058128870072621325,-0.042821396995164865]",100.0,"[0.16126852082597848,0.0708976196097532]",100.0,"[-0.0948345938472937,0.08127066672908179]",100.0,"[0.07214474673483173,0.008425390714279038]",100.0,"[0.13896573239470994,-0.011646632621422804]",100.0,"[0.023552442348147986,0.13122329436846497]",100.0,"[-0.03932508888643647,-0.1131484176426421]",100.0,"[-0.037147435474093084,0.1503806557601251]",100.0,"[-0.07492012243347687,0.16386136860913328]",100.0,"[0.02,0.02]",213.133,0.0,33.0,33.0,29.0,1.0,,,,,,,
,,,,,,,6831d9e8ad8968b05a9c41a2,683aef33867e918121deecda,2025-05-31_07h59.41.990,shape_ratio,2024.1.5,Win32,68.02721088,683ae9196541af24d3a69e58,,,,,,,,,,,213.1346,213.6379,,,213.8893,214.6383,left,0.7341,,,,,,,,,0.55,,,,,,213.6381,213.8891,214.6385,"[-0.03002165679488615,-0.05147310828862405]",4.0,"[0.07748842808318983,0.02619462059184943]",100.0,"[0.041313568246558956,0.14678531110466678]",100.0,"[-0.0451177906396373,-0.19067788910587277]",100.0,"[0.12067230677025508,-0.06552658893391843]",100.0,"[-0.11806623667725151,0.011559419499988961]",4.0,"[0.18606027273462541,-0.04877726115526515]",100.0,"[0.10998829976820515,-0.11726239883277013]",4.0,"[-0.1822105641622304,0.060035298009489736]",100.0,"[0.08545252130186334,-0.038456248978738956]",100.0,"[-0.1508595242607889,-0.060182400980788656]",4.0,"[0.18257993404223008,0.07585411516824409]",100.0,"[0.00991096545956019,-0.0927138768718151]",100.0,"[0.00974262585647543,0.17376116621140908]",4.0,"[-0.0745359020238692,0.09356324340051783]",100.0,"[0.123431679122055,0.07934870657179834]",100.0,"[-0.18659702611097595,0.01157875941541775]",4.0,"[-0.11817966243736902,-0.13904054570826246]",100.0,"[-0.024466216889594036,-0.1341838121854158]",100.0,"[0.18537200608542673,0.018807439220085903]",4.0,"[0.006694137567579261,0.0706248359877767]",100.0,"[-0.0052579360751356646,0.0037143030776490183]",100.0,"[0.09214905105310565,0.10965034230398361]",4.0,"[-0.05213699413373235,0.047854689994030815]",4.0,"[-0.11789907729223699,0.15445421106457735]",100.0,"[-0.1213083280146782,0.08113290199357401]",4.0,"[0.10417442758339375,0.16643871742471694]",100.0,"[0.028460981694658806,-0.039495397900790284]",4.0,"[0.1638403237235597,-0.015361732353939738]",4.0,"[0.16318603210021573,-0.09207608951060274]",100.0,"[0.0378408145735297,-0.16653116919370953]",4.0,"[-0.07955562349609718,-0.0574362346890995]",4.0,"[0.02,0.02]",215.7352,0.0,34.0,34.0,68.0,1.0,,,,,,,
,,,,,,,6831d9e8ad8968b05a9c41a2,683aef33867e918121deecda,2025-05-31_07h59.41.990,shape_ratio,2024.1.5,Win32,68.02721088,683ae9196541af24d3a69e58,,,,,,,,,,,215.7368,216.235,,,216.4872,217.0063,left,0.5027,,,,,,,,,0.55,,,,,,216.2354,216.487,217.0064,"[0.09379403957149453,0.0993503359920072]",100.0,"[-0.0998398723556489,-0.1025612814504128]",4.0,"[-0.15397619310427316,0.004236888112603181]",100.0,"[0.0017625594463638633,0.19464389468189908]",100.0,"[-0.12430654051054402,0.09761272760967903]",4.0,"[0.09900119898777142,-0.07786952118446774]",100.0,"[0.08033201706700684,0.030498791496916384]",4.0,"[0.1732791958006751,0.014115206122485568]",100.0,"[-0.05320054293019602,0.1399012585206162]",4.0,"[0.05180194660183319,-0.07788009267260057]",100.0,"[-0.09304296612881872,0.12691735074545688]",100.0,"[-0.023700373823681713,-0.1983486127953096]",100.0,"[-0.10888059450203161,-0.16369346822231867]",4.0,"[0.08714346352984266,-0.033655558327266105]",100.0,"[0.019417298442549125,-0.025353669938191468]",4.0,"[-0.1717277542594303,-0.06656526658792769]",4.0,"[0.08389498627997312,-0.1374205420417137]",4.0,"[0.1785077381558161,0.08680251817511829]",100.0,"[0.12750960221593535,-0.11614901165836222]",100.0,"[0.1248796119575173,0.14292020865403413]",100.0,"[0.014277774408012572,-0.10396130587548488]",100.0,"[-0.07555351397847283,0.022237944325069026]",4.0,"[-0.0493167594448015,-0.10421589131539653]",4.0,"[-0.030777250112082807,-0.03615191116018822]",100.0,"[-0.07645986860781954,-0.018625561383104224]",100.0,"[0.03997255232591848,0.14243730923776465]",4.0,"[0.11523759795788453,0.05535266331779526]",100.0,"[0.034188582048676405,-0.15490052495245604]",100.0,"[-0.02326903788913407,0.03808883939331399]",4.0,"[-0.0472248768946972,0.09441815595099685]",4.0,"[0.14471406144233348,-0.0578335331477756]",100.0,"[0.170955717792331,-0.08938478226324258]",4.0,"[0.02,0.02]",218.1025,0.0,35.0,35.0,85.0,1.0,,,,,,,
,,,,,,,6831d9e8ad8968b05a9c41a2,683aef33867e918121deecda,2025-05-31_07h59.41.990,shape_ratio,2024.1.5,Win32,68.02721088,683ae9196541af24d3a69e58,,,,,,,,,,,218.1041,218.6022,,,218.8545,219.288,right,0.4186,,,,,,,,,0.1,,,,,,218.6027,218.8544,219.2881,"[0.017169517274833873,0.10751596676616527]",4.0,"[-0.0725715974292899,0.0031978108745455464]",4.0,"[-0.038729621366758664,-0.09409798599534464]",4.0,"[0.10523915001807163,-0.012225459169692829]",4.0,"[-0.03377393870929693,0.15108800231625996]",100.0,"[-0.01979988248342479,-0.027822184077978814]",100.0,"[0.10371390318108964,-0.06835790156923101]",4.0,"[-0.19155978270793253,-0.04037449432897274]",4.0,"[0.09338733594723904,-0.15113606447300215]",4.0,"[0.15324038081260774,-0.12683840501401092]",4.0,"[0.019614449864962392,0.0354420251830889]",4.0,"[0.1447277965216312,0.08142189037648068]",4.0,"[-0.08525031775787056,-0.13545870462019463]",4.0,"[-0.02553209145810673,0.04834084706667672]",4.0,"[0.07782697641589709,0.1642947593367897]",4.0,"[0.01653103972628333,-0.00786269485566566]",4.0,"[-0.11772104253297352,0.15003484982727064]",4.0,"[0.0009886688271558766,-0.19436384728173067]",4.0,"[0.14863912831446188,-0.028108286274777003]",4.0,"[-0.07972428899533701,0.17011253889819558]",100.0,"[0.008734201908179048,-0.1391023969601157]",4.0,"[-0.06566447428296081,0.10877393938395331]",4.0,"[0.05036355258219901,0.13309296061495904]",4.0,"[-0.0007116005921272954,-0.07736042584112443]",4.0,"[-0.18629211470144513,0.04437090164386613]",4.0,"[-0.16014951327365337,-0.10639967675051246]",4.0,"[0.11139161661042363,0.12656514217088732]",4.0,"[-0.11441713013664671,-0.09152015304238495]",4.0,"[0.023918556258931155,0.17574572379704426]",4.0,"[0.14452300652264277,0.015677947901651834]",4.0,"[-0.09567364370977818,-0.032243646310135654]",4.0,"[-0.11443074465094659,0.10744278364771022]",4.0,"[0.02,0.02]",220.3834,0.0,36.0,36.0,183.0,1.0,,,,,,,
,,,,,,,6831d9e8ad8968b05a9c41a2,683aef33867e918121deecda,2025-05-31_07h59.41.990,shape_ratio,2024.1.5,Win32,68.02721088,683ae9196541af24d3a69e58,,,,,,,,,,,220.385,220.8814,,,221.1316,221.7056,right,0.5638,,,,,,,,,0.1,,,,,,220.8815,221.1315,221.7057,"[-0.047526979740422616,0.06485994410694577]",4.0,"[0.005436274329548826,0.031810369700226285]",4.0,"[0.08211073210440245,-0.04793469774819789]",4.0,"[0.09825512498984436,0.01213765283502029]",4.0,"[-0.06165285217142279,-0.13637735826838915]",4.0,"[0.012198174617925864,-0.10354035215557136]",4.0,"[0.17151100889073317,0.042644677715825675]",100.0,"[-0.02402748940680962,-0.056225284659430476]",4.0,"[0.060229850595144206,0.09581187353218575]",4.0,"[-0.11118056743876589,0.04377226586826227]",4.0,"[0.009951478627971484,0.11703485503241826]",4.0,"[0.12351445216679315,0.15127316014702732]",100.0,"[-0.13556670157742098,-0.08413863295942783]",4.0,"[-0.04861273575895205,-0.1763872924971851]",4.0,"[-0.031026564392098804,-0.009948301453396913]",4.0,"[0.009492415436418244,0.07184557384332958]",4.0,"[0.15304312031272552,-0.0489578510421353]",4.0,"[0.08835648116398068,-0.11637754929618467]",4.0,"[-0.10011854057920645,-0.013499564580993786]",4.0,"[0.0644937140183612,0.14921980734853033]",4.0,"[0.1482754280750532,-0.004709505967139999]",4.0,"[-0.18256817422433622,0.06980032729288868]",4.0,"[0.0465521073658153,-0.14033152437182958]",4.0,"[-0.12937631536206548,0.13051712696732742]",4.0,"[-0.0797013456129601,0.16850509954346232]",4.0,"[-0.08589106237826317,0.0771769590249582]",100.0,"[-0.09572239030984009,-0.11272589926175909]",4.0,"[-0.01692445443086198,0.15430187866834102]",4.0,"[-0.007126933657071575,-0.1512486826199563]",4.0,"[-0.06438526722535665,-0.04518830142301734]",4.0,"[0.10399202545681582,0.08754522040823942]",4.0,"[0.05614915122299266,-0.1822864534956932]",4.0,"[0.02,0.02]",222.7964,0.0,37.0,37.0,201.0,1.0,,,,,,,
,,,,,,,6831d9e8ad8968b05a9c41a2,683aef33867e918121deecda,2025-05-31_07h59.41.990,shape_ratio,2024.1.5,Win32,68.02721088,683ae9196541af24d3a69e58,,,,,,,,,,,222.7977,223.2968,,,223.54,224.0516,left,0.4991,,,,,,,,,0.4,,,,,,223.2969,223.5398,224.0518,"[-0.024226507660951167,0.1168060446828947]",4.0,"[-0.08969986498537778,-0.08941031463179906]",4.0,"[0.006751549435096171,-0.08096248786168984]",100.0,"[-0.051723396628423846,-0.06414583460801561]",4.0,"[0.0633638505280154,-0.11071184173221259]",100.0,"[-0.08841363339222057,-0.013154658238445707]",100.0,"[-0.141108585223834,0.08847607632754859]",4.0,"[0.09558104828543355,0.09893339393583464]",100.0,"[0.054372659105377426,0.11188947827480061]",4.0,"[0.1031923312911285,0.05823051508951258]",4.0,"[0.021684602493954774,0.042798656046617145]",4.0,"[-0.07459542767974416,0.15665438858953198]",100.0,"[-0.12080617319601315,-0.054429308365084215]",100.0,"[0.03722775010922623,-0.148822582794849]",100.0,"[-0.032050338718793654,-0.09918362321994002]",100.0,"[0.14965524224822713,0.034350837211193516]",100.0,"[-0.1612629946225393,-0.0321214233524701]",4.0,"[0.05063776365803981,0.16679741432253767]",4.0,"[-0.05746350341164008,-0.17560041438211285]",4.0,"[-0.009276514713660304,-0.03887600940919613]",100.0,"[-0.019493436783745544,0.19231861625001614]",100.0,"[0.10292087357829782,0.16092866807429412]",4.0,"[-0.13195475473647827,-0.09457964543478899]",4.0,"[0.18968697232007137,0.0143201560993182]",100.0,"[-0.034439096829689826,-0.004964109851681971]",4.0,"[-0.13079348899338844,-0.0059639401486712325]",4.0,"[0.04438664949184872,-0.03038594464047777]",4.0,"[0.18033984658487387,0.0707153903490721]",4.0,"[0.12505897758850598,-0.03797238166038108]",4.0,"[-0.013917106315501252,-0.17781276370795343]",4.0,"[-0.13718023894156336,0.04735996002583475]",100.0,"[0.16913058686905957,-0.02954778563812078]",4.0,"[0.02,0.02]",225.1467,0.0,38.0,38.0,166.0,1.0,,,,,,,
,,,,,,,6831d9e8ad8968b05a9c41a2,683aef33867e918121deecda,2025-05-31_07h59.41.990,shape_ratio,2024.1.5,Win32,68.02721088,683ae9196541af24d3a69e58,,,,,,,,,,,225.148,225.6471,,,225.8977,226.4452,right,0.5351,,,,,,,,,0.4,,,,,,225.6472,225.8976,226.4453,"[0.15706875138522608,-0.1031780286814735]",100.0,"[-0.07352648733434089,-0.1674951481426496]",4.0,"[0.06736587002839231,-0.16155650547670436]",4.0,"[0.01794890519520251,-0.16978812256527534]",100.0,"[-0.14356102017697575,0.1371923034773892]",100.0,"[0.18433471103195603,-0.06409643733475259]",4.0,"[-0.07348101355646672,-0.08861125193519487]",4.0,"[-0.1189857061745723,-0.06065452574863416]",100.0,"[0.11783534644130408,0.14609383216461164]",4.0,"[-0.08934341255265159,0.13636950109748097]",4.0,"[0.003078637825480258,-0.09179506344521883]",100.0,"[-0.060187490914737934,0.0680857139641294]",4.0,"[-0.1711492181489666,0.038215707619231674]",4.0,"[0.06754850658358254,-0.03398008970358467]",4.0,"[-0.08385957956037904,-0.024411378495422773]",4.0,"[0.02292877425187508,-0.0010228486491407997]",4.0,"[-0.03158482299638994,-0.024239499339951367]",4.0,"[0.03904856679947508,0.18976257452492545]",4.0,"[0.09781401750981127,0.02231441613079378]",100.0,"[-0.03812275787095523,0.12947245904800717]",4.0,"[0.03263231388395963,-0.05941155757360241]",100.0,"[0.08340553745644666,0.09524532118179373]",100.0,"[-0.02187759251515494,0.18533600841025263]",4.0,"[0.11063496429938507,-0.04122833969167958]",4.0,"[-0.05873215343000256,0.016575416540241063]",100.0,"[0.1153084519804717,0.06970531122751898]",100.0,"[0.09832437048351418,-0.11150123627626268]",100.0,"[-0.13799893339726316,0.08102500443061311]",4.0,"[-0.021561055051957812,0.04524990460752635]",100.0,"[0.03315911557534318,0.10654963183741156]",100.0,"[0.1623847760770431,0.08788177599621995]",4.0,"[-0.037330515974390674,-0.1861439592525513]",4.0,"[0.02,0.02]",227.5438,0.0,39.0,39.0,172.0,1.0,,,,,,,
,,,,,,,6831d9e8ad8968b05a9c41a2,683aef33867e918121deecda,2025-05-31_07h59.41.990,shape_ratio,2024.1.5,Win32,68.02721088,683ae9196541af24d3a69e58,,,,,,,,,,,227.5453,228.0442,,,228.297,228.862,left,0.5549,,,,,,,,,0.55,,,,,,228.0443,228.2969,228.8621,"[-0.10099782063377916,-0.16578072184601828]",100.0,"[-0.015816026783352918,0.046361001141811166]",4.0,"[0.062145621559718096,0.10646646820492565]",4.0,"[0.048530587550919956,-0.011854131287149253]",100.0,"[-0.09198960760059084,-0.09093173807443045]",4.0,"[0.06294369127026994,-0.07135706890840582]",100.0,"[0.10269806479375068,-0.11718436329838484]",4.0,"[-0.05881506314415266,-0.05908106886840211]",100.0,"[-0.16066486696659749,0.07977759455046558]",100.0,"[0.12350266598496058,-0.15149708658279856]",100.0,"[-0.049722917428205546,-0.13622821817518005]",100.0,"[0.0022743836093868813,-0.12902054545891425]",4.0,"[-0.0750953406303377,0.0718514573671117]",100.0,"[-0.18130065793624228,0.013408192537342887]",100.0,"[0.16508354036512213,-0.1052797700509815]",4.0,"[0.1151477078296674,0.0033429109162413165]",100.0,"[0.09081672113803808,0.05446898800952626]",4.0,"[0.1195837330907353,0.11203943201177015]",4.0,"[0.1853528958674176,0.03110375547489373]",100.0,"[-0.05686725409072299,0.17564627020032766]",100.0,"[-0.022255761137679426,0.10680487089870738]",100.0,"[0.01684219496136824,-0.040600269467100526]",4.0,"[-0.02917488172714933,-0.09431255757245295]",100.0,"[-0.09513794801962004,0.13971495252934205]",100.0,"[-0.06497507438424283,0.013629093476563738]",4.0,"[-0.06345771660937306,-0.18694021814820408]",4.0,"[0.021189639501512307,0.11827830150047788]",4.0,"[-0.1331045176692305,-0.061701596918532775]",4.0,"[-0.12416927114705742,0.015550119876722529]",4.0,"[0.012013559730126345,0.015473705422328671]",100.0,"[0.12950369688177185,-0.0681740737345796]",100.0,"[0.029012286555402986,0.1633057247262477]",100.0,"[0.02,0.02]",229.9601,0.0,40.0,40.0,83.0,1.0,,,,,,,
,,,,,,,6831d9e8ad8968b05a9c41a2,683aef33867e918121deecda,2025-05-31_07h59.41.990,shape_ratio,2024.1.5,Win32,68.02721088,683ae9196541af24d3a69e58,,,,,,,,,,,229.9619,230.4611,,,230.7129,231.3334,right,0.6098,,,,,,,,,0.6,,,,,,230.4613,230.7128,231.3335,"[0.128552466369145,-0.033505218857546794]",4.0,"[0.055818063099530496,-0.11149188806466069]",100.0,"[-0.10668125462125498,-0.08594083318771736]",4.0,"[-0.0554631565683467,0.0012430835580066284]",4.0,"[0.1291160634501483,0.11745161528081963]",4.0,"[0.03320539211166707,-0.019860177055509007]",100.0,"[-0.050710973168755336,0.16220340307015876]",100.0,"[-0.08116907522253314,-0.14457403090306586]",100.0,"[-0.12176599757505095,0.03429673654999872]",100.0,"[0.12629205842598176,-0.08305112402630939]",100.0,"[0.17135528395810293,-0.006522988306287315]",100.0,"[-0.17332506409033174,0.08639527045265756]",100.0,"[0.03617286435034756,0.09049113159189721]",100.0,"[-0.019674251319734968,-0.10010448129825764]",100.0,"[0.02182271608588597,0.03349484996906533]",100.0,"[-0.11472168638101404,0.08334774116924976]",4.0,"[-0.12019773986342598,-0.1344439229767165]",100.0,"[0.04954873640990221,-0.06537016760490112]",100.0,"[0.18946190961409135,0.06258272412989846]",4.0,"[-0.06640663235671264,0.04897469603155225]",4.0,"[-0.1453996165531836,-0.045557956031930726]",4.0,"[-0.1622520673047652,-0.0034320882062676035]",100.0,"[-0.0391713018142339,-0.055640186738815066]",100.0,"[0.05650264155886025,0.18871288053026175]",4.0,"[-0.09123452706951983,0.12902831285932867]",100.0,"[0.03892235944200294,0.13140228250960473]",4.0,"[-0.10425882785651266,-0.02079804113661865]",4.0,"[0.013436750479893993,0.19389149774707526]",4.0,"[-0.017040649723770784,0.05116857344410178]",4.0,"[0.12939265399922212,0.06375127363353789]",100.0,"[0.02345018528256184,-0.17450554730080872]",100.0,"[-0.01077984651615762,0.13238270869120317]",100.0,"[0.02,0.02]",232.4257,0.0,41.0,41.0,49.0,1.0,,,,,,,
,,,,,,,6831d9e8ad8968b05a9c41a2,683aef33867e918121deecda,2025-05-31_07h59.41.990,shape_ratio,2024.1.5,Win32,68.02721088,683ae9196541af24d3a69e58,,,,,,,,,,,232.4284,232.9257,,,233.1671,233.7138,left,0.5343,,,,,,,,,0.45,,,,,,232.9259,233.167,233.714,"[0.09157657241266645,0.09975371978460013]",4.0,"[0.026703067707605613,0.045090178403344255]",100.0,"[0.12098785641002216,-0.11572773591924079]",4.0,"[-0.10018764609122272,-0.09922454920441343]",4.0,"[-0.02046468681976169,-0.12147000961371499]",4.0,"[-0.034587811224979816,-0.062167817532229844]",4.0,"[-0.05015183924482171,0.11901243716753099]",4.0,"[0.143488568430879,-0.01579898766175729]",100.0,"[0.024127421356162776,-0.14671235394713297]",100.0,"[-0.18959916939592952,-0.014635744154530181]",4.0,"[0.029283357907076688,0.16016460493756562]",100.0,"[0.1506105589221701,0.12234221979934999]",4.0,"[0.11455047739440877,0.046514838577511076]",4.0,"[-0.01187151638678038,0.1334108823792972]",4.0,"[0.15188130467385433,-0.06679345668264315]",100.0,"[-0.10660423417808364,-0.013639664888430924]",100.0,"[0.05453568017143582,0.08279900465488008]",4.0,"[-0.08107125740366951,-0.05886286493744113]",100.0,"[-0.12334878466836617,0.03643495249345542]",4.0,"[0.10022598120532085,0.004054621703029592]",100.0,"[-0.12786501885079826,0.10836583724986121]",4.0,"[-0.12986125051747377,-0.13468111735729027]",100.0,"[-0.011218233791095648,0.17390915885520528]",100.0,"[-0.17828187631713582,0.05994667717115371]",100.0,"[-0.1011898613232185,0.14443666043870992]",4.0,"[-0.019220486381977122,-0.17809743628641253]",4.0,"[-0.07768546699851395,0.04304303319435011]",4.0,"[-0.04448018735769233,0.004109939480098027]",100.0,"[0.06652120412953114,-0.02357044825428448]",100.0,"[0.026769593127070692,-0.012460773714959964]",4.0,"[-0.15079860591611996,-0.03418511102405574]",100.0,"[0.18907965476011504,-0.037416166337534244]",4.0,"[0.02,0.02]",234.8103,0.0,42.0,42.0,138.0,1.0,,,,,,,
,,,,,,,6831d9e8ad8968b05a9c41a2,683aef33867e918121deecda,2025-05-31_07h59.41.990,shape_ratio,2024.1.5,Win32,68.02721088,683ae9196541af24d3a69e58,,,,,,,,,,,234.8114,235.3102,,,235.5609,236.2583,left,0.6838,,,,,,,,,0.9,,,,,,235.3105,235.5608,236.2584,"[-0.02612160727793413,-0.18614682907726307]",100.0,"[0.06525039857381718,0.13851401059209167]",100.0,"[0.1615507041503428,0.015442144798074016]",100.0,"[-0.02378409736242345,-0.11689556238116534]",100.0,"[-0.13451691612598232,0.03893079693252021]",100.0,"[-0.0798707321808444,0.030990967456012944]",100.0,"[-0.034435205040291,-0.02785630889263143]",100.0,"[0.06277540612022481,-0.17555140101691089]",100.0,"[-0.11044267919689751,-0.0790232881603182]",100.0,"[0.004542119920964545,0.14381610871998562]",100.0,"[0.06718137751385514,0.03783244825637128]",100.0,"[0.004545981981575353,-0.08552304694446433]",100.0,"[0.12402399108400802,0.0864875170468041]",100.0,"[-0.04917946849281186,-0.08033666494796778]",100.0,"[-0.19025351130381604,0.06076989912435531]",100.0,"[0.005030430641738057,-0.015743820238836484]",100.0,"[0.039727380033464404,-0.11860325546163059]",4.0,"[-0.17239011689559386,0.003005110729520739]",100.0,"[0.049690894658854415,-0.030206911071671946]",100.0,"[0.09589256866424478,-0.027665415613142886]",100.0,"[0.024892021402853605,0.18577206683118438]",100.0,"[-0.12778619577843256,-0.019044634173064883]",100.0,"[-0.16962915888977198,-0.08432319074279382]",100.0,"[0.18373047431990466,-0.06673603222229488]",100.0,"[0.02067058707071604,0.04277214730372253]",4.0,"[-0.10295292534972364,0.1325997523741294]",100.0,"[-0.13075776401889144,-0.12795012991527768]",100.0,"[-0.07201550401322146,-0.12403202896760651]",100.0,"[-0.07147175471200795,0.1798643752005395]",100.0,"[0.10817228120191892,-0.06998705079387281]",100.0,"[0.02619684878585918,0.09090885173875321]",4.0,"[0.11927498370913417,0.13267839805254586]",100.0,"[0.02,0.02]",237.3577,0.0,43.0,43.0,15.0,1.0,,,,,,,
,,,,,,,6831d9e8ad8968b05a9c41a2,683aef33867e918121deecda,2025-05-31_07h59.41.990,shape_ratio,2024.1.5,Win32,68.02721088,683ae9196541af24d3a69e58,,,,,,,,,,,237.359,237.8581,,,238.1124,238.5273,left,0.3944,,,,,,,,,0.9,,,,,,237.8582,238.1118,238.5274,"[0.1741142956133382,0.04421678554806417]",100.0,"[-0.00856290894360296,-0.034261114605317666]",100.0,"[0.10639126605965238,0.025643484014091285]",100.0,"[-0.06061196524707156,0.031785907721858984]",100.0,"[0.08570520148766234,-0.16652906882234436]",100.0,"[0.04502818861097682,-0.062095994549241404]",100.0,"[0.002011700112967216,0.11480369550954589]",100.0,"[-0.05521021273508539,-0.15843806092243273]",100.0,"[-0.12025414413079047,-0.13058893560915294]",100.0,"[0.13491574265101777,-0.02104905951023677]",100.0,"[0.13324598353012831,-0.06318846714242167]",100.0,"[0.1924394895040637,-0.019099915856672006]",100.0,"[-0.04288881559160727,0.1390680780403617]",100.0,"[0.17346949221535418,-0.08605321285348938]",100.0,"[-0.04288027741334148,-0.08364661353148906]",4.0,"[0.0043842014949912736,-0.10998930263902529]",100.0,"[-0.13736839500904058,-0.0297874131038567]",100.0,"[0.08285789647714994,-0.11222323209550114]",100.0,"[-0.007774890219095378,0.0615248982642715]",100.0,"[-0.09058883462520477,0.09322186099786707]",100.0,"[-0.1689925911594213,-0.08565586528517329]",100.0,"[-0.18227525169443554,0.04114451192113859]",100.0,"[-0.044363857040587436,0.0811482932225738]",100.0,"[0.11842005477372071,0.093006814824658]",100.0,"[0.0743719747786447,-0.020843152735709324]",100.0,"[0.004586026062900419,0.1681235100156645]",4.0,"[0.02325128145000478,0.005015696519198339]",100.0,"[0.06111059344159519,0.06390811975400629]",100.0,"[-0.11177693893084743,-0.07198614844325715]",100.0,"[0.019250629948025108,-0.16490631070609144]",100.0,"[0.048574187569852045,0.1756382318488078]",100.0,"[-0.18934815474952324,-0.024478207591923713]",4.0,"[0.02,0.02]",239.6248,0.0,44.0,44.0,13.0,1.0,,,,,,,
,,,,,,,6831d9e8ad8968b05a9c41a2,683aef33867e918121deecda,2025-05-31_07h59.41.990,shape_ratio,2024.1.5,Win32,68.02721088,683ae9196541af24d3a69e58,,,,,,,,,,,239.6262,240.1256,,,240.3801,240.8965,right,0.5012,,,,,,,,,0.1,,,,,,240.1257,240.38,240.8966,"[-0.14153382858595068,-0.026640823449869944]",4.0,"[-0.11293395017392509,0.034650394620403015]",4.0,"[-0.014142501051677614,0.08150702124346049]",4.0,"[0.13357726742072512,0.04349424495984699]",4.0,"[-0.12440773337364854,0.12454878375398934]",4.0,"[0.0943578441878829,-0.0644525664173193]",4.0,"[0.08973544619754947,-0.12192014053996159]",4.0,"[-0.06926178002238337,0.05796205959587039]",4.0,"[0.013985184595689874,-0.13722456159973256]",4.0,"[0.08354152299338513,0.1742538599230477]",4.0,"[-0.1805810902659506,0.0177128259974394]",4.0,"[-0.16651680545134098,-0.09615742392977787]",4.0,"[0.02530460703129862,0.13879146147153018]",100.0,"[0.025679553284128666,-0.18636249561167625]",4.0,"[-0.08322569036736412,-0.12111068288282865]",4.0,"[0.16520732798599522,-0.04685530704065458]",4.0,"[-0.05233910485366091,-0.07999547124069319]",4.0,"[0.0575670834138636,0.06307286162159836]",4.0,"[-0.12262912550556104,-0.14658865407975535]",4.0,"[0.12252713454503085,-0.14701821691820777]",4.0,"[0.022534772360010266,-0.04606260921549478]",4.0,"[0.055763140831968,0.10887840448455546]",4.0,"[-0.1184756426154768,-0.0824296614691894]",4.0,"[0.007002534784939474,0.19663457145699326]",4.0,"[-0.05751223810572344,0.13360274125644728]",4.0,"[-0.0907247916513304,-0.018538183952219095]",4.0,"[0.15425392529071835,0.12449493783709996]",100.0,"[-0.024758828203457914,-0.025641156348123764]",4.0,"[-0.06927018059761102,-0.17622028855533142]",100.0,"[0.19634911673150895,0.026957060002799644]",4.0,"[-0.016396017992801958,-0.09919077927767708]",4.0,"[-0.02872617783469367,-0.17583980379663122]",4.0,"[0.02,0.02]",241.9942,0.0,45.0,45.0,202.0,1.0,,,,,,,
,,,,,,,6831d9e8ad8968b05a9c41a2,683aef33867e918121deecda,2025-05-31_07h59.41.990,shape_ratio,2024.1.5,Win32,68.02721088,683ae9196541af24d3a69e58,,,,,,,,,,,241.9954,242.4944,,,242.7425,243.3121,right,0.5607,,,,,,,,,0.1,,,,,,242.4945,242.7424,243.3122,"[0.01072715398167593,-0.13771200042366882]",100.0,"[-0.08037121399884566,-0.059260709019012696]",4.0,"[-0.09563860789564922,0.07394328759412311]",4.0,"[-0.05581531766389698,0.03585320980807423]",4.0,"[-0.16387467571523207,-0.020954397305659143]",4.0,"[0.05073297042434614,-0.06996258282999031]",4.0,"[-0.052181652243257985,0.1879951588762524]",4.0,"[0.00011683279511961755,-0.018762186187962944]",4.0,"[0.15065671410396372,0.09071619222248387]",4.0,"[-0.1261899248615636,-0.12377240940164157]",4.0,"[-0.17217361713736373,-0.09906471106441024]",4.0,"[0.004627006587512886,0.18255049887867664]",4.0,"[-0.04381474551375275,-0.18437814342973236]",100.0,"[-0.12034201179297035,-0.006600158779781207]",4.0,"[0.13099105383214898,-0.1294275093783601]",4.0,"[-0.1044575797063211,0.14997671105261945]",100.0,"[0.19647386642527775,0.006590705317296039]",4.0,"[-0.1349687007532467,0.03801777050410511]",4.0,"[0.09047348602479546,-0.12249887622873414]",4.0,"[-0.08211324758941359,-0.10947571637622339]",4.0,"[0.17499175791941823,-0.07235551094762933]",4.0,"[0.07815493617881633,0.07475767279871831]",4.0,"[-0.012457733242064733,0.12077859924659161]",4.0,"[-0.18043729266929606,0.07960089104968959]",4.0,"[0.051158184312783954,-0.018128649125077525]",4.0,"[0.11093116753213127,-0.015894655512808054]",4.0,"[0.12735380538354937,0.0520865457301373]",4.0,"[0.13796240957255737,-0.056930434791774814]",4.0,"[-0.06589256374739974,0.10873683287562207]",4.0,"[0.001234967871996826,-0.08485752518654664]",4.0,"[0.10129609272079451,0.12102968474647895]",4.0,"[-0.010749253144076912,0.05548459097236057]",4.0,"[0.02,0.02]",244.4076,0.0,46.0,46.0,200.0,1.0,,,,,,,
,,,,,,,6831d9e8ad8968b05a9c41a2,683aef33867e918121deecda,2025-05-31_07h59.41.990,shape_ratio,2024.1.5,Win32,68.02721088,683ae9196541af24d3a69e58,,,,,,,,,,,244.409,244.907,,,245.1603,246.1744,left,1.0048,,,,,,,,,0.45,,,,,,244.9071,245.1602,246.1745,"[0.08249964389805853,0.16157179696242446]",100.0,"[-0.1399584067283,-0.1031001744512875]",100.0,"[0.011270771202180473,0.10110989996859704]",4.0,"[-0.11467626060544735,0.07502361283094855]",4.0,"[-0.03718300518127223,0.06258622964897219]",100.0,"[0.007912006395739492,-0.04923855265740188]",100.0,"[-0.041840623019352034,0.10314973902371814]",4.0,"[0.13700069768249765,-0.03854118852891951]",4.0,"[-0.10555803444798204,-0.1368131032648196]",100.0,"[0.1775404252507605,0.07813126927038695]",4.0,"[-0.1334453161327924,-0.0076991541841133935]",4.0,"[-0.03178265905013612,-0.1554021360406572]",4.0,"[0.1331971206480317,0.1014909223024295]",4.0,"[0.048329948360734426,-0.07514676089466628]",4.0,"[-0.008442544601482036,-0.002127375056429004]",4.0,"[-0.08025776807222926,0.16629727803438454]",4.0,"[0.12271733119973942,0.14609022531880075]",4.0,"[0.027079109943274098,-0.19705338197051128]",4.0,"[0.050268672695426335,0.13286103403499291]",100.0,"[-0.057366250534276644,-0.02082949580697064]",4.0,"[0.19558487885700324,0.01239861143268761]",4.0,"[0.132436363505832,-0.09824513820669085]",100.0,"[0.05186241735540352,-0.030527242376951962]",100.0,"[0.041436753083349626,0.07221249766521749]",100.0,"[-0.008061934917271417,0.18064165885739397]",100.0,"[-0.05195622504173407,-0.061619236381314765]",100.0,"[0.03372582577511777,-0.11995947680129761]",100.0,"[0.09143818391955157,0.029116898710187397]",4.0,"[-0.10744371178287987,-0.050331399709390524]",100.0,"[-0.005012653219681233,-0.095291351380078]",4.0,"[-0.11995391946977278,0.12083436440786957]",100.0,"[-0.1831117144801044,-0.05360777203797784]",4.0,"[0.02,0.02]",247.2728,0.0,47.0,47.0,125.0,1.0,,,,,,,
,,,,,,,6831d9e8ad8968b05a9c41a2,683aef33867e918121deecda,2025-05-31_07h59.41.990,shape_ratio,2024.1.5,Win32,68.02721088,683ae9196541af24d3a69e58,,,,,,,,,,,247.2738,247.7725,,,248.0228,248.8929,left,0.8594,,,,,,,,,0.9,,,,,,247.7726,248.0226,248.8931,"[0.12427658354967733,0.08764810707417951]",100.0,"[-0.13055566683969305,0.08770434304271274]",100.0,"[0.17975264584586634,-0.022521834162919835]",100.0,"[-0.10354932855425236,0.03848305811056569]",100.0,"[-0.05652921090751677,-0.001298150009351227]",100.0,"[-0.1014536752846031,-0.1612854503501317]",100.0,"[0.011537311466152698,-0.15664906870052964]",100.0,"[-0.050208611075382104,-0.05973514435208613]",100.0,"[-0.026133759898776605,0.19454582862208394]",4.0,"[-0.15261132893058876,0.011287322654294945]",100.0,"[-0.0062723688257881865,-0.009880556322073375]",100.0,"[0.13115023751253913,-0.022636111070182333]",100.0,"[-0.026171061280211926,0.06742924279087087]",100.0,"[0.011110364245274899,-0.08960601049207009]",100.0,"[-0.1616620420125703,-0.05451362694096196]",4.0,"[-0.0550148430365203,-0.1184991926501717]",100.0,"[-0.12071966614583331,-0.11675708289139936]",100.0,"[0.058818756183500194,-0.0006690439318793849]",100.0,"[-0.1106869769343298,-0.04814990510484972]",4.0,"[0.053863557916245766,-0.1864722117610917]",100.0,"[-0.19781889944223396,0.02227880253413834]",100.0,"[-0.10719454900693545,0.15248798224447993]",100.0,"[0.13277802173665756,-0.09350358140838683]",100.0,"[0.05751389398002101,-0.09917416986136965]",100.0,"[0.024878508555752014,0.102376094548168]",100.0,"[0.047598284654459345,0.053608445065126756]",100.0,"[0.006881097050948731,0.14274047189966116]",100.0,"[0.17669452454129328,0.05300909022573278]",100.0,"[0.10279932865368538,-0.1581647758552061]",100.0,"[0.09516008845062476,-0.06104319808387802]",100.0,"[-0.018744782619531837,0.10683794568894982]",100.0,"[-0.04892047807856767,-0.17209135237103482]",100.0,"[0.02,0.02]",249.9862,0.0,48.0,48.0,21.0,1.0,,,,,,,
,,,,,,,6831d9e8ad8968b05a9c41a2,683aef33867e918121deecda,2025-05-31_07h59.41.990,shape_ratio,2024.1.5,Win32,68.02721088,683ae9196541af24d3a69e58,,,,,,,,,,,249.9875,250.4865,,,250.7378,251.4038,right,0.6516,,,,,,,,,0.1,,,,,,250.4867,250.7378,251.4039,"[-0.010397335813602067,-0.15908801670783898]",4.0,"[0.02851647474339242,0.12870021704310752]",4.0,"[-0.1738939391041564,-0.016285957754002593]",4.0,"[-0.17023989884948487,0.02733986652192285]",4.0,"[-0.06223083449782061,-0.14893545369154954]",4.0,"[-0.06280107267931755,0.0595767439171158]",4.0,"[-0.04491042725044969,-0.18769511798253388]",4.0,"[0.06580628813442709,0.09524736984033105]",100.0,"[-0.17487915007531735,-0.08892406959678582]",4.0,"[0.08109958537919701,-0.17758751827911112]",100.0,"[-0.006388721242778393,0.17709586315945441]",4.0,"[-0.0006148907178626011,-0.015795312083765636]",4.0,"[-0.183369683280774,0.07556765855616505]",4.0,"[-0.12404183283603502,0.0743131362649942]",4.0,"[0.007253276632277967,-0.07870090045757001]",4.0,"[-0.017736010599763024,0.08853537195247822]",4.0,"[0.05601764666851854,-0.13071520834867043]",4.0,"[0.06438044530022961,-0.06246398157428923]",4.0,"[0.13042213803901725,0.0016697053298662513]",4.0,"[-0.133966303190629,-0.03787719267944476]",4.0,"[0.07101351830026562,0.03956504525033335]",4.0,"[-0.07461944288162199,0.1606436983771705]",4.0,"[0.024852798004711144,0.05500728765064411]",4.0,"[0.057422719945871205,0.18087967751078426]",4.0,"[0.16208506671574702,0.033582919332481836]",4.0,"[-0.10876477294031414,0.00021902385956066493]",4.0,"[-0.1029997720574013,-0.17015183208861995]",4.0,"[0.13678017859735045,-0.1112094064403959]",4.0,"[0.11131927475748812,-0.07246487132243415]",4.0,"[0.19624342213859117,0.008606911845119922]",100.0,"[-0.0947119236958769,0.12408434262983062]",4.0,"[0.10505502421104929,0.1697690030173553]",4.0,"[0.02,0.02]",252.4949,0.0,49.0,49.0,182.0,1.0,,,,,,,
