right,left,explain.started,explain.stopped,key_resp_3.keys,key_resp_3.rt,key_resp_3.duration,participant,session,date,expName,psychopyVersion,OS,frameRate,study_id,explain_2.started,explain_2.stopped,key_resp_4.keys,key_resp_4.rt,key_resp_4.duration,explain_3.started,explain_3.stopped,key_resp_5.keys,key_resp_5.rt,key_resp_5.duration,fixation.started,fixation.stopped,practice.started,practice.stopped,response.started,response.stopped,key_resp.keys,feedback.started,feedback.stopped,trials_2.thisRepN,trials_2.thisTrialN,trials_2.thisN,trials_2.thisIndex,trials_2.ran,dot_ratio,key_resp.rt,key_resp.duration,explain_4.started,explain_4.stopped,key_resp_6.keys,key_resp_6.rt,key_resp_6.duration,dotDisplay.started,dotDisplay.stopped,ITI.started,polygon_1.pos,polygon_1.edges,polygon_2.pos,polygon_2.edges,polygon_3.pos,polygon_3.edges,polygon_4.pos,polygon_4.edges,polygon_5.pos,polygon_5.edges,polygon_6.pos,polygon_6.edges,polygon_7.pos,polygon_7.edges,polygon_8.pos,polygon_8.edges,polygon_9.pos,polygon_9.edges,polygon_10.pos,polygon_10.edges,polygon_11.pos,polygon_11.edges,polygon_12.pos,polygon_12.edges,polygon_13.pos,polygon_13.edges,polygon_14.pos,polygon_14.edges,polygon_15.pos,polygon_15.edges,polygon_16.pos,polygon_16.edges,polygon_17.pos,polygon_17.edges,polygon_18.pos,polygon_18.edges,polygon_19.pos,polygon_19.edges,polygon_20.pos,polygon_20.edges,polygon_21.pos,polygon_21.edges,polygon_22.pos,polygon_22.edges,polygon_23.pos,polygon_23.edges,polygon_24.pos,polygon_24.edges,polygon_25.pos,polygon_25.edges,polygon_26.pos,polygon_26.edges,polygon_27.pos,polygon_27.edges,polygon_28.pos,polygon_28.edges,polygon_29.pos,polygon_29.edges,polygon_30.pos,polygon_30.edges,polygon_31.pos,polygon_31.edges,polygon_32.pos,polygon_32.edges,dot_size,ITI.stopped,trials.thisRepN,trials.thisTrialN,trials.thisN,trials.thisIndex,trials.ran,break_2.started,break_2.stopped,trials_3.thisRepN,trials_3.thisTrialN,trials_3.thisN,trials_3.thisIndex,trials_3.ran
subject chose dot,subject chose diamond,0.0004,111.1406,space,96.1137,,6833610f9644c791ebdf6fd8,6842baffea32a0a5183add65,2025-06-06_05h57.29.610,shape_ratio,2024.1.5,Win32,60.24096386,6842b561977af9ba9b0f87ca,,,,,,,,,,,,,,,,,,,,,,,,,,,,,,,,,,,,,,,,,,,,,,,,,,,,,,,,,,,,,,,,,,,,,,,,,,,,,,,,,,,,,,,,,,,,,,,,,,,,,,,,,,,,,,,,,
,,,,,,,6833610f9644c791ebdf6fd8,6842baffea32a0a5183add65,2025-06-06_05h57.29.610,shape_ratio,2024.1.5,Win32,60.24096386,6842b561977af9ba9b0f87ca,111.1418,165.0702,space,23.9093,,,,,,,,,,,,,,,,,,,,,,,,,,,,,,,,,,,,,,,,,,,,,,,,,,,,,,,,,,,,,,,,,,,,,,,,,,,,,,,,,,,,,,,,,,,,,,,,,,,,,,,,,,,,,
,,,,,,,6833610f9644c791ebdf6fd8,6842baffea32a0a5183add65,2025-06-06_05h57.29.610,shape_ratio,2024.1.5,Win32,60.24096386,6842b561977af9ba9b0f87ca,,,,,,165.0707,169.2675,space,1.1861,,,,,,,,,,,,,,,,,,,,,,,,,,,,,,,,,,,,,,,,,,,,,,,,,,,,,,,,,,,,,,,,,,,,,,,,,,,,,,,,,,,,,,,,,,,,,,,,,,,,,,,,
,,,,,,,6833610f9644c791ebdf6fd8,6842baffea32a0a5183add65,2025-06-06_05h57.29.610,shape_ratio,2024.1.5,Win32,60.24096386,6842b561977af9ba9b0f87ca,,,,,,,,,,,169.339,169.7769,169.7784,170.0303,170.031,171.5258,,171.5264,172.6239,0.0,0.0,0.0,0.0,1.0,0.2,,,,,,,,,,,,,,,,,,,,,,,,,,,,,,,,,,,,,,,,,,,,,,,,,,,,,,,,,,,,,,,,,,,,,,,,,,,,,,,,,,,,,,,,
,,,,,,,6833610f9644c791ebdf6fd8,6842baffea32a0a5183add65,2025-06-06_05h57.29.610,shape_ratio,2024.1.5,Win32,60.24096386,6842b561977af9ba9b0f87ca,,,,,,,,,,,172.6261,173.1233,173.1235,173.375,173.3751,174.8052,right,174.8055,175.9042,0.0,1.0,1.0,1.0,1.0,0.8,1.4159,,,,,,,,,,,,,,,,,,,,,,,,,,,,,,,,,,,,,,,,,,,,,,,,,,,,,,,,,,,,,,,,,,,,,,,,,,,,,,,,,,,,,,,
,,,,,,,6833610f9644c791ebdf6fd8,6842baffea32a0a5183add65,2025-06-06_05h57.29.610,shape_ratio,2024.1.5,Win32,60.24096386,6842b561977af9ba9b0f87ca,,,,,,,,,,,,,,,,,,,,,,,,,,,,175.9063,198.5496,space,19.6198,,,,,,,,,,,,,,,,,,,,,,,,,,,,,,,,,,,,,,,,,,,,,,,,,,,,,,,,,,,,,,,,,,,,,,,,,,,,,,,,,,
,,,,,,,6833610f9644c791ebdf6fd8,6842baffea32a0a5183add65,2025-06-06_05h57.29.610,shape_ratio,2024.1.5,Win32,60.24096386,6842b561977af9ba9b0f87ca,,,,,,,,,,,198.5945,199.0638,,,199.3157,200.4969,left,,,,,,,,0.5,1.1701,,,,,,,199.0657,199.3154,200.4988,"[0.09429064357649723,-0.1480551931038043]",4.0,"[0.05834697835498434,0.0961219101211264]",100.0,"[-0.1622146291913203,0.05279468968646324]",100.0,"[0.12870232912426482,0.055420513179020116]",4.0,"[0.1471183548209574,-0.030765747180372765]",4.0,"[0.08244939710673513,-0.07722453502921363]",100.0,"[0.005182422966491268,0.01577144880124566]",100.0,"[-0.10682714650000491,0.16730932227093662]",100.0,"[-0.13132015135295116,0.1306224818867568]",4.0,"[-0.15411613063076604,-0.11082189643013723]",100.0,"[-0.042749366877593724,0.09992419329002422]",4.0,"[-0.1057169680498851,-0.001719509656471417]",100.0,"[-0.0072617869680578605,-0.1350903595120219]",4.0,"[0.12223840765996341,-0.11248192266117059]",4.0,"[-0.09756708901688547,-0.16864686342632937]",100.0,"[-0.05315351685792189,-0.11738930909389841]",4.0,"[-0.024533348388470714,0.05561143563441512]",4.0,"[0.1022662813455349,0.1414584280621416]",100.0,"[-0.013854098146238805,-0.02406022663706236]",100.0,"[-0.1319566108295223,-0.0668568016832295]",100.0,"[-0.07183099578832053,0.05241932198790751]",4.0,"[-0.0416768312218038,-0.055652634679376665]",100.0,"[0.05339171136703672,-0.03640329221168127]",4.0,"[0.011747648591792679,-0.08115137911599694]",100.0,"[0.009144115498808376,0.12428031380994572]",4.0,"[-0.19198732683303954,-0.04998629578946802]",100.0,"[-0.19646193251786448,0.01567019220577384]",4.0,"[-0.050579155970179666,0.1633617166170811]",100.0,"[0.12246536203303304,0.013037030467025517]",4.0,"[0.17765720503872573,0.04071834228779156]",4.0,"[0.04136560549720396,0.18378114958349132]",100.0,"[-0.11306569632926572,0.06908840754205685]",4.0,"[0.02,0.02]",201.595,0.0,0.0,0.0,90.0,1.0,,,,,,,
,,,,,,,6833610f9644c791ebdf6fd8,6842baffea32a0a5183add65,2025-06-06_05h57.29.610,shape_ratio,2024.1.5,Win32,60.24096386,6842b561977af9ba9b0f87ca,,,,,,,,,,,201.5963,202.0939,,,202.3496,202.9456,left,,,,,,,,0.4,0.5799,,,,,,,202.0941,202.3495,202.9459,"[-0.05527038088815572,-0.11151471172023285]",4.0,"[-0.18525112026436816,0.04785358602561954]",100.0,"[0.10285360308674028,0.15608459478915185]",4.0,"[-0.0011329110826403823,0.031811047670931535]",100.0,"[-0.09656690910109123,-0.16530453206706722]",4.0,"[-0.08305946858765173,0.1758369416037021]",4.0,"[0.04877555097665964,0.12979208135353815]",100.0,"[0.060532301059985055,-0.046972783149193]",4.0,"[-0.06981819937966331,0.059185175793093986]",4.0,"[0.0581925527764481,0.07433645099977207]",4.0,"[0.19304525159635813,-0.016204890957421118]",100.0,"[0.08830092828626265,0.11678111086588969]",4.0,"[0.04984502064172408,-0.1271540435035403]",100.0,"[0.1449321497182797,-0.1138558135101564]",4.0,"[-0.1732492779137842,-0.06075308620586485]",4.0,"[0.10277281065210919,0.021831317652996368]",4.0,"[0.02703046989942521,0.17691137735836046]",4.0,"[-0.031108875710611043,-0.18137654780931153]",4.0,"[-0.017784641002714312,0.07478251114034257]",4.0,"[-0.1660823978995344,0.10284193388197517]",100.0,"[-0.0600217103221553,-0.06449134382435644]",100.0,"[0.004371021102936001,0.1273159970849512]",100.0,"[-0.12901799083200022,0.021328902071408966]",100.0,"[-0.10934159440739179,-0.10077964046622483]",100.0,"[0.12421344084622901,0.0890173442569198]",4.0,"[0.03700663192899387,0.009310082572673795]",4.0,"[-0.00844148356478724,-0.054723919732644066]",100.0,"[-0.10974062513599743,-0.0562583527307953]",4.0,"[-0.08457480091359203,0.10866126066307416]",4.0,"[-0.04154825305143512,-0.0033344693656922973]",100.0,"[0.017944027861536767,-0.17191525643518496]",100.0,"[0.05851483043288528,-0.1674518373296286]",4.0,"[0.02,0.02]",204.0436,0.0,1.0,1.0,159.0,1.0,,,,,,,
,,,,,,,6833610f9644c791ebdf6fd8,6842baffea32a0a5183add65,2025-06-06_05h57.29.610,shape_ratio,2024.1.5,Win32,60.24096386,6842b561977af9ba9b0f87ca,,,,,,,,,,,204.0444,204.5427,,,204.7934,205.2581,left,,,,,,,,0.55,0.4493,,,,,,,204.543,204.7932,205.2583,"[0.05416553358534263,-0.10795172819165985]",100.0,"[0.07707116861412021,0.06295858887264166]",4.0,"[0.07664337500297241,0.15545680953353863]",4.0,"[0.1179313378216389,-0.07974032796666464]",100.0,"[-0.04515614836369108,-0.11165899285137393]",4.0,"[-0.03857692385633552,-0.049406351279611856]",4.0,"[-0.13333936458990267,0.10919107488092122]",100.0,"[0.07475354172848601,-0.014813549494564331]",100.0,"[-0.05139087858617389,0.07382841684294146]",4.0,"[0.1574865869118223,-0.06379944107077104]",4.0,"[-0.19303373035172922,-0.026738072159847134]",100.0,"[-0.11026570162429034,0.02665037715227511]",4.0,"[-0.10188021163988965,-0.1506515307196685]",4.0,"[0.02824831056431281,0.16352892965624713]",100.0,"[0.06409282313084273,-0.1625627297099468]",100.0,"[-0.1394174012406886,-0.12277433822209421]",4.0,"[0.0018462920131739186,-0.16976951485636002]",4.0,"[-0.118175292306242,0.15398108657770368]",100.0,"[-0.13963523558657026,-0.05225791169728142]",100.0,"[0.1921796019985012,-0.023322522464912572]",100.0,"[-0.08369973552406744,0.12234648837995607]",100.0,"[-0.19070108209690337,0.040833545976593624]",100.0,"[0.13669062734635737,0.03974655074440726]",100.0,"[-0.0062846617769215804,-0.0016924442114951777]",4.0,"[0.1476496679096616,-0.016462489036698134]",4.0,"[-0.10038933188736568,0.0852819526770071]",100.0,"[0.05355787252027579,0.09652683144338149]",100.0,"[-0.042308443189959084,0.03416810247498798]",4.0,"[0.13543329239276872,0.09086751673455418]",100.0,"[-0.04664742052447285,0.14617807084939416]",4.0,"[0.07009622060785979,-0.06836095955353733]",100.0,"[0.012536898877577106,-0.07422427354702402]",100.0,"[0.02,0.02]",206.3567,0.0,2.0,2.0,89.0,1.0,,,,,,,
,,,,,,,6833610f9644c791ebdf6fd8,6842baffea32a0a5183add65,2025-06-06_05h57.29.610,shape_ratio,2024.1.5,Win32,60.24096386,6842b561977af9ba9b0f87ca,,,,,,,,,,,206.3576,206.8565,,,207.1078,207.5392,left,,,,,,,,0.5,0.4165,,,,,,,206.8565,207.1076,207.5394,"[0.0032000135577396364,-0.09931746442670934]",4.0,"[-0.11343549537375251,0.142235555990348]",4.0,"[-0.07889904208709506,-0.0684134601331143]",100.0,"[0.13196308021468425,0.13446287538762247]",100.0,"[-0.029932614817239123,0.10663194610562565]",4.0,"[0.03363439340660455,0.169557275237566]",4.0,"[0.07547067180291145,0.07973351070166272]",100.0,"[-0.08094290772017927,-0.025575022822864318]",100.0,"[0.05030792736885285,-0.18196676771062795]",4.0,"[0.13958807531096876,0.0739739070931746]",100.0,"[-0.12726559647697167,-0.04104090523830766]",100.0,"[0.07949731398259109,-0.0887886981501897]",4.0,"[0.011410349919905841,-0.05706386832559993]",4.0,"[-0.034025695231943265,-0.02950612753554167]",100.0,"[0.1593083106591026,-0.0928720003064955]",4.0,"[-0.052413453601670164,-0.19293771676459262]",100.0,"[0.03526975681716551,0.04556519148267979]",100.0,"[0.060957891824171315,-0.004748292176483063]",100.0,"[-0.019520528382368885,-0.16700918242844656]",4.0,"[0.11549449472399657,0.0017415657196406477]",4.0,"[-0.04549307217063726,0.021099407065051402]",4.0,"[-0.16960493513014696,-0.06691908449511862]",4.0,"[-0.04937525014267882,-0.12482890398702332]",4.0,"[0.18065245733913698,-0.017204288013032143]",100.0,"[-0.11934335839434004,0.043803859666180736]",4.0,"[-0.03803886060498351,0.14653157732321587]",100.0,"[0.08587665998197044,0.040708205714649795]",100.0,"[0.19227859807613729,0.02556884377354818]",100.0,"[0.034338224499399404,0.10920627597832111]",100.0,"[-0.13953582139926002,-0.0010955214520147992]",4.0,"[-0.08444153960982137,0.09198274388236516]",4.0,"[0.11756727274143464,-0.16169250900902862]",100.0,"[0.02,0.02]",208.6386,0.0,3.0,3.0,91.0,1.0,,,,,,,
,,,,,,,6833610f9644c791ebdf6fd8,6842baffea32a0a5183add65,2025-06-06_05h57.29.610,shape_ratio,2024.1.5,Win32,60.24096386,6842b561977af9ba9b0f87ca,,,,,,,,,,,208.6397,209.1381,,,209.3884,210.0031,left,,,,,,,,0.1,0.6011,,,,,,,209.1384,209.3884,210.0036,"[0.025077010675862568,-0.11731950938650265]",4.0,"[0.1373222149418757,-0.08680961646670035]",4.0,"[-0.018912792995465548,0.19037532849634448]",4.0,"[-0.09486990451913203,-0.09446922100512746]",4.0,"[0.04797275021134147,0.0903432826703652]",4.0,"[-0.10596772388499548,0.07202616210237878]",4.0,"[-0.10759341136552406,-0.15296036737662433]",4.0,"[-0.16186796075524224,0.03959025735307672]",4.0,"[0.07959434130762995,-0.16834535416972252]",4.0,"[0.19792496586376457,-0.001980087143051675]",4.0,"[0.10188684317800589,0.11499237704273953]",4.0,"[-0.08990820752768917,0.17412982146197742]",4.0,"[-0.035758412837368594,-0.018751828414317863]",4.0,"[-0.1470992813634802,-0.06717227860072753]",4.0,"[-0.0466904320699885,-0.11948184943668283]",4.0,"[-0.07528178559336907,-0.05647890928011079]",4.0,"[0.15520321136182472,0.011406517897373366]",4.0,"[-0.16117660404449086,0.08024510778668915]",4.0,"[-0.058686754610198524,-0.17489945366805285]",4.0,"[-0.13500583916271097,0.00870099087444184]",4.0,"[-0.06459850330918877,0.04714026023581331]",4.0,"[0.11529297912830802,0.02360758200559103]",4.0,"[-0.1249190042765271,-0.03219920415752864]",4.0,"[0.0063183287589948225,0.06022235483554364]",4.0,"[0.09492596137582412,0.15827023410037402]",4.0,"[0.01817870322406871,0.14002239345763143]",100.0,"[0.1135911048418453,-0.04890016557403713]",4.0,"[0.05629134505950481,-0.07535067041767032]",100.0,"[0.0014046606912839538,-0.06950066648497337]",4.0,"[0.0832508356027193,-0.005654570875292417]",4.0,"[-0.1812495179939357,-0.004773511965633302]",100.0,"[-0.125702494844225,0.1251478833265533]",4.0,"[0.02,0.02]",211.1024,0.0,4.0,4.0,189.0,1.0,,,,,,,
,,,,,,,6833610f9644c791ebdf6fd8,6842baffea32a0a5183add65,2025-06-06_05h57.29.610,shape_ratio,2024.1.5,Win32,60.24096386,6842b561977af9ba9b0f87ca,,,,,,,,,,,211.1036,211.6018,,,211.8529,212.1185,right,,,,,,,,0.5,0.2578,,,,,,,211.602,211.8526,212.1186,"[-0.1256918811343731,0.11724856158207284]",100.0,"[0.07531220687239387,0.08840568803738277]",100.0,"[-0.12507595473320215,0.07330971906602256]",100.0,"[-0.023799257344244873,0.0035909561846248932]",4.0,"[0.10280601407281534,-0.011532588041773022]",4.0,"[0.12539887662215948,0.09861234584746381]",4.0,"[-0.03716588108417758,0.12978300281565666]",4.0,"[-0.10097560362514346,0.02064582179922381]",4.0,"[0.18346615371147168,0.07137829890938008]",100.0,"[-0.03892444245147606,0.061738323342437076]",100.0,"[0.1794148181896765,-0.043062704076236615]",100.0,"[-0.12319357259561603,-0.07910159667121594]",100.0,"[0.090989704861455,-0.13342906905375823]",100.0,"[0.11950456546872647,-0.10278385405092612]",4.0,"[0.10467134701560138,0.05357499446573532]",100.0,"[-0.14598770011547302,0.028357207948009822]",4.0,"[0.14247490855148942,-0.06167789359194217]",100.0,"[0.0053823747567344595,0.059230103585803794]",100.0,"[0.06153307711157109,-0.07605758543116539]",100.0,"[-0.12672967860205994,-0.130346783706082]",4.0,"[-0.06790026636770241,-0.18523696747109505]",4.0,"[-0.16316288434583007,-0.04561191653557934]",4.0,"[0.02287456060071055,0.18874306065923177]",100.0,"[-0.07696417792553262,0.15853312206065767]",4.0,"[0.11690600714455801,0.14245692870127857]",4.0,"[-0.04747526536778763,-0.12269932305305109]",4.0,"[0.011036464120718863,-0.06301071601457801]",4.0,"[-0.17401437501016057,0.07922129592160153]",100.0,"[0.05204275163795889,0.1380985932989659]",100.0,"[0.010307434640570667,0.1208186034928788]",100.0,"[-0.08218713727807443,-0.055865214047266284]",4.0,"[-0.18822943912192686,0.01258299768347874]",4.0,"[0.02,0.02]",213.2166,0.0,5.0,5.0,97.0,1.0,,,,,,,
,,,,,,,6833610f9644c791ebdf6fd8,6842baffea32a0a5183add65,2025-06-06_05h57.29.610,shape_ratio,2024.1.5,Win32,60.24096386,6842b561977af9ba9b0f87ca,,,,,,,,,,,213.2175,213.715,,,213.9653,214.4652,left,,,,,,,,0.4,0.4882,,,,,,,213.7151,213.9652,214.4654,"[-0.10654678332523763,-0.05606956885767241]",4.0,"[0.06875634593474997,0.04481038162318626]",100.0,"[-0.02945946906301433,0.11154628674291116]",100.0,"[-0.12673279487363984,0.0734307646351635]",100.0,"[-0.08876276680368342,-0.14398655177991812]",100.0,"[-0.058342633910687315,-0.056143359574724834]",4.0,"[0.14524818174262036,0.0010182201104878667]",100.0,"[-0.01662025411532518,-0.1303711927514091]",4.0,"[0.021949430516033028,0.14830168753540585]",4.0,"[0.08957192863633806,0.16190556648335294]",4.0,"[-0.09537607883580113,0.17149551942519717]",4.0,"[0.05961305809043278,-0.011703338786264639]",4.0,"[0.18938947286746874,-0.04457278902320951]",4.0,"[-0.1143439343303416,-0.016324014094564666]",4.0,"[0.0483458646842035,-0.10006629766034379]",4.0,"[0.053302021382232126,-0.1766390781980935]",4.0,"[-0.14065044132885487,-0.11670935274282009]",4.0,"[0.1372220076757932,0.10320566075565075]",4.0,"[-0.05627077804796167,-0.0030488399949965277]",4.0,"[0.1049971980272236,-0.14040949221839638]",100.0,"[-0.0895747489328606,0.03913517319250989]",100.0,"[0.13855172108190053,-0.10566670406447036]",100.0,"[-0.008010475477287192,-0.17525760793972248]",4.0,"[-0.18528848718378352,-0.056503909569172305]",100.0,"[-0.024030109185342728,0.05113613473108723]",100.0,"[-0.16917222444735674,-0.0011072721039732253]",100.0,"[0.185557576966616,0.029157705300821683]",100.0,"[0.12807939872724555,-0.061729818675419545]",4.0,"[-0.13413654416804185,0.022708467379913045]",4.0,"[-0.06669561781903291,0.07843602088099343]",4.0,"[0.03998240235703049,0.1108693141858068]",100.0,"[-0.17059671573467075,0.07794448528348893]",4.0,"[0.02,0.02]",215.5639,0.0,6.0,6.0,162.0,1.0,,,,,,,
,,,,,,,6833610f9644c791ebdf6fd8,6842baffea32a0a5183add65,2025-06-06_05h57.29.610,shape_ratio,2024.1.5,Win32,60.24096386,6842b561977af9ba9b0f87ca,,,,,,,,,,,215.5651,216.0636,,,216.3184,216.5142,left,,,,,,,,0.45,0.1741,,,,,,,216.0637,216.3183,216.5144,"[0.03139450225657871,0.041949331264360325]",4.0,"[0.10262928666343393,-0.040593437697047964]",4.0,"[0.02520867034466662,-0.16311549302272255]",4.0,"[-0.1206962435762416,0.12231951522751028]",4.0,"[0.1754567468139429,-0.08073467105602826]",100.0,"[-0.006258274441520529,-0.007004511764980913]",100.0,"[-0.05237951894190571,-0.022696954535191168]",4.0,"[-0.1373054781300297,-0.09695039298283656]",100.0,"[0.19873593599312664,-0.01280341818346841]",100.0,"[-0.09572167661064661,-0.04054637185304217]",4.0,"[-0.08958451230782898,-0.15627305306064565]",4.0,"[0.03439837738878424,0.1608470716675583]",4.0,"[-0.02674297382190654,-0.19814146154961823]",4.0,"[0.12850127316147572,0.03871957823377465]",100.0,"[-0.013675389591555471,-0.14618635971523614]",4.0,"[0.07168385742515615,-0.17690417547139725]",100.0,"[-0.04362006439083837,0.13964471572841264]",100.0,"[-0.03940073434800856,-0.09017664096971673]",100.0,"[0.04009000258276966,-0.11974087485511768]",4.0,"[-0.14603097785945215,0.046813611849803385]",100.0,"[0.04105485893869692,-0.04219605650199999]",100.0,"[-0.1283715020540609,0.003398177934371902]",4.0,"[-0.10590636183132998,0.0611436460458306]",4.0,"[-0.1954009454281046,0.005995992754098319]",100.0,"[-0.05136916134839228,0.07185867558226985]",4.0,"[0.11990981990839365,-0.12913978476512028]",4.0,"[0.07625064349491853,0.10631985850462902]",100.0,"[0.12265108574374682,0.1034420853543243]",100.0,"[-0.014090372575268587,0.19163957896706466]",4.0,"[-0.1765499896623465,0.08543742917024211]",4.0,"[-0.19185534613119432,-0.04358544773425322]",4.0,"[-0.08647635411954109,0.1583472096205637]",100.0,"[0.02,0.02]",217.6133,0.0,7.0,7.0,136.0,1.0,,,,,,,
,,,,,,,6833610f9644c791ebdf6fd8,6842baffea32a0a5183add65,2025-06-06_05h57.29.610,shape_ratio,2024.1.5,Win32,60.24096386,6842b561977af9ba9b0f87ca,,,,,,,,,,,217.6144,218.1129,,,218.3623,218.5644,right,,,,,,,,0.45,0.1943,,,,,,,218.113,218.3623,218.5645,"[-0.14209435319132577,-0.11812608836392913]",4.0,"[0.07817487980996762,-0.12747643804888592]",100.0,"[0.10001705546308987,0.052589165281516775]",4.0,"[0.12281689160475676,-0.01020552112938141]",100.0,"[0.10278959091235958,0.12398393318570972]",100.0,"[0.008141442466894393,-0.19955692264153374]",100.0,"[-0.17137315671803346,0.020666975210654453]",4.0,"[-0.028057397804327807,0.053031045402544434]",100.0,"[-0.05940643217255257,0.1800836078147578]",4.0,"[-0.061581686593971875,-0.06873944957525542]",4.0,"[0.035300408969518,0.14581706289111027]",4.0,"[-0.023131884980943748,-0.12446591688849322]",100.0,"[-0.0939613112417609,-0.04238555529302405]",4.0,"[0.16301167421094936,-0.049255266243646734]",4.0,"[-0.019138284170945825,0.18039837955679996]",100.0,"[-0.16154318032631054,-0.08041699659244182]",100.0,"[0.07017681168143348,-0.08494201180362138]",100.0,"[-0.08357757573884152,-0.1090192366461707]",100.0,"[-0.09075835286322251,0.02933853774411102]",100.0,"[-0.051930924644858656,-0.15413740344185256]",4.0,"[0.0557256744502781,0.020722176618975897]",4.0,"[0.03313773110808084,0.0881965685554544]",4.0,"[0.18058662813012108,0.02959159327724504]",4.0,"[0.14349712376533488,0.0863645787505989]",4.0,"[-0.1986718634701936,-0.01600369225032371]",100.0,"[-0.034456528263665714,-0.03595438596659713]",100.0,"[0.05141026804476717,-0.032593400719544016]",4.0,"[-0.04183756281811906,0.1131855947646457]",4.0,"[0.026782411189374855,-0.1541778082314014]",4.0,"[-0.12492406690065153,0.053857098361988716]",4.0,"[0.09568790190296955,-0.04098293226592781]",4.0,"[-0.047248188771433934,0.005597133728309283]",100.0,"[0.02,0.02]",219.6611,0.0,8.0,8.0,133.0,1.0,,,,,,,
,,,,,,,6833610f9644c791ebdf6fd8,6842baffea32a0a5183add65,2025-06-06_05h57.29.610,shape_ratio,2024.1.5,Win32,60.24096386,6842b561977af9ba9b0f87ca,,,,,,,,,,,219.6619,220.1598,,,220.4129,220.8932,left,,,,,,,,0.5,0.4575,,,,,,,220.1599,220.4128,220.8933,"[0.0397206990066643,0.11204974950252343]",100.0,"[0.011640550103163368,-0.16368780821840564]",100.0,"[0.16354999897274097,0.0010704817109822634]",4.0,"[0.10213648597424871,-0.1192191774243256]",4.0,"[0.015651544440764078,0.02969835305874225]",4.0,"[-0.12857772367736361,0.09681201047525315]",4.0,"[-0.1498305506519996,0.055804766650882895]",4.0,"[0.10475687187165898,0.12974518230868365]",100.0,"[-0.09842637526683345,-0.025013741618941116]",100.0,"[-0.05214553966307381,-0.14054438781482462]",4.0,"[0.02910719028946094,-0.09006199946311962]",100.0,"[0.10445794853081924,-0.07047479915368045]",100.0,"[-0.10737081581086454,-0.1576171223763989]",100.0,"[-0.13022928664760106,-0.06208644659171686]",4.0,"[-0.09009384698919501,0.1279777233801076]",100.0,"[0.033773564474920185,0.06574990064326831]",100.0,"[0.14721219927074583,0.11114573161576034]",4.0,"[0.008079044562268663,-0.05280622057847025]",100.0,"[0.06851303544698784,-0.04011771580601944]",100.0,"[-0.04381487303566468,-0.07561311110407061]",100.0,"[0.1457782651538654,-0.12508632138324552]",100.0,"[0.10825710422322768,0.01218656096511485]",100.0,"[-0.01964410669610215,0.13902808528457272]",100.0,"[-0.08893058121961543,-0.09650920276248694]",4.0,"[0.1678010907022497,0.058454835024428255]",4.0,"[0.07202705788615194,0.18147727140080175]",4.0,"[-0.08867677129488626,0.03110074047739497]",4.0,"[-0.15578966791530702,-0.11596550489314743]",4.0,"[-0.057808426463650205,-0.011089221144068701]",4.0,"[0.09005409226867088,0.050631476993707125]",4.0,"[-0.046410214419803336,0.18578720403459092]",4.0,"[-0.02803564264127294,0.06068292259696078]",100.0,"[0.02,0.02]",221.9924,0.0,9.0,9.0,111.0,1.0,,,,,,,
,,,,,,,6833610f9644c791ebdf6fd8,6842baffea32a0a5183add65,2025-06-06_05h57.29.610,shape_ratio,2024.1.5,Win32,60.24096386,6842b561977af9ba9b0f87ca,,,,,,,,,,,221.9936,222.4917,,,222.7421,223.0733,left,,,,,,,,0.9,0.3214,,,,,,,222.4917,222.7421,223.0734,"[0.009178754487173911,0.0579516095709677]",100.0,"[-0.16797122319832633,-0.04988244927700003]",100.0,"[0.021984709609461504,-0.18254145471630737]",100.0,"[-0.08718361055107252,0.08849343096745244]",100.0,"[-0.10156894846678258,-0.10897041691720875]",100.0,"[-0.032637842594399606,-0.08639861632600804]",100.0,"[0.17233194862538356,-0.006641052993237258]",100.0,"[-0.04405566841016757,0.013339405765554709]",100.0,"[-0.16582342898181152,0.05543112641777839]",100.0,"[0.12293777354529813,-0.1019546400004149]",100.0,"[-0.0868519548604383,0.1292788609251073]",100.0,"[-0.024365468126934204,-0.14652099472256352]",100.0,"[-0.11026456457992959,-0.05535625500676947]",100.0,"[0.11066624679563487,0.11488782909483163]",100.0,"[-0.1670301189235016,0.0064349879019025575]",100.0,"[0.12478156918320409,-0.1504721661570988]",100.0,"[0.05393687259824554,0.04132034526394506]",100.0,"[-0.06208518979840183,-0.17697927271134445]",100.0,"[0.020370023443026,-0.11739285905576011]",100.0,"[-0.12502990602518363,0.10182271888476303]",4.0,"[-0.06724303051994418,0.1842228430129607]",4.0,"[0.07995237986289416,-0.05246723728321378]",100.0,"[0.03821068538924463,0.10833372068850636]",100.0,"[0.07882699754053775,0.08857771377814046]",4.0,"[0.01158456272111584,-0.013605910397851957]",100.0,"[0.06681214975788363,-0.15237078401640652]",100.0,"[0.1152295115755803,0.01620764822477536]",100.0,"[0.004393165206187773,0.1779070232969808]",100.0,"[0.16866506097253503,0.0525661278016795]",100.0,"[-0.04948400929125754,0.05810486173098726]",100.0,"[-0.01774644019274639,0.09740484159558777]",100.0,"[-0.12224961954295095,0.15302516992169385]",100.0,"[0.02,0.02]",224.1724,0.0,10.0,10.0,26.0,1.0,,,,,,,
,,,,,,,6833610f9644c791ebdf6fd8,6842baffea32a0a5183add65,2025-06-06_05h57.29.610,shape_ratio,2024.1.5,Win32,60.24096386,6842b561977af9ba9b0f87ca,,,,,,,,,,,224.1733,224.6719,,,224.9228,225.1717,right,,,,,,,,0.6,0.2367,,,,,,,224.672,224.9227,225.1718,"[0.015256072100232545,0.09261312902841981]",4.0,"[0.18329920833504623,0.05015605544039838]",100.0,"[-0.13151353656673298,0.09698762712571693]",100.0,"[-0.06902476464533716,-0.10882225418877822]",100.0,"[-0.03316685407901978,0.004435905142481615]",4.0,"[0.12372006717931777,-0.012914244082708809]",4.0,"[0.09377875509109558,-0.1677948316432273]",100.0,"[0.03566599662348174,-0.11491946631267544]",100.0,"[-0.007390699879008201,-0.13189190927124086]",100.0,"[-0.11031937894382224,0.003200397201403905]",100.0,"[-0.08220749794409145,-0.03542294068650838]",100.0,"[-0.08789584377629692,0.05363362174692151]",4.0,"[-0.1122061165607462,0.1633252370650279]",100.0,"[-0.009441751455094932,0.1441954577855514]",100.0,"[-0.05516948203156275,0.11257087614863874]",4.0,"[-0.16702796651199223,0.06986148268654753]",100.0,"[-0.18009107335393776,-0.018032644882146013]",100.0,"[0.09885305204480205,0.13588845380130574]",100.0,"[-0.13692523250948074,-0.14212806123545854]",4.0,"[0.09021746116461694,-0.09385824663513125]",4.0,"[0.1640840313269088,0.09617141868657011]",4.0,"[0.018261938286426492,0.01832491626661382]",100.0,"[-0.15336497112561506,-0.10385491717970834]",4.0,"[0.09237432221133807,0.05442121030081298]",100.0,"[0.07049114270212019,0.1692928350971839]",4.0,"[-0.048165420487313974,0.19167960844017506]",100.0,"[0.1251462810892456,-0.0655683715798484]",4.0,"[0.1960900556429964,-0.029740539764070584]",100.0,"[-0.13297731332740373,-0.05302005516796349]",4.0,"[0.16687793575863447,-0.09312748723552755]",4.0,"[0.16268934992112674,0.010082777006476312]",100.0,"[0.033442583799988025,-0.19007249392746137]",100.0,"[0.02,0.02]",226.2702,0.0,11.0,11.0,47.0,1.0,,,,,,,
,,,,,,,6833610f9644c791ebdf6fd8,6842baffea32a0a5183add65,2025-06-06_05h57.29.610,shape_ratio,2024.1.5,Win32,60.24096386,6842b561977af9ba9b0f87ca,,,,,,,,,,,226.2711,226.7695,,,227.0089,227.1884,left,,,,,,,,0.1,0.1645,,,,,,,226.7696,227.0088,227.1886,"[-0.0372024286515992,-0.13328084056903902]",4.0,"[-0.10342719911289772,-0.16306552384318537]",4.0,"[0.059396276891445283,0.05041183660700505]",4.0,"[0.18912723124980432,0.018519561117344287]",4.0,"[0.12017028503051565,0.03477908798928037]",4.0,"[0.001731973199703122,-0.1774023496651997]",4.0,"[0.07650167262638131,-0.0838860808690713]",4.0,"[-0.006010954622994317,-0.10482779532418983]",4.0,"[-0.07505867626490094,0.0924391606707068]",4.0,"[0.1265876582447972,0.12096302745903731]",100.0,"[-0.010631743052319335,-0.038114041686914166]",4.0,"[-0.08960090575900714,-0.020168382709157717]",4.0,"[0.055948684090767614,-0.1689742026723505]",4.0,"[-0.14714834160788806,0.09099647833519028]",4.0,"[-0.12309966361830474,0.13303851853824303]",100.0,"[-0.13446523777251643,-0.07872430928314215]",4.0,"[-0.11780986577439088,0.01965349699128693]",4.0,"[-0.044725815130153855,-0.07789250957873102]",4.0,"[-0.013977333243171979,0.15597086582736572]",4.0,"[0.06211816253014176,0.09842906134373572]",4.0,"[-0.06398481607934788,-0.17203140843847922]",4.0,"[0.12273368970548862,-0.055111705773883905]",4.0,"[-0.015389919013463642,0.016870155086358054]",4.0,"[0.18782532679713257,-0.03165085404422636]",4.0,"[0.03932319005112942,-0.019022432132149415]",4.0,"[0.013513314752695061,0.09100679197510568]",4.0,"[-0.16755924230932098,-0.01780111649476452]",4.0,"[0.15885463403255906,-0.07364199742570159]",4.0,"[-0.19544802082289484,0.02876677888364774]",4.0,"[0.15840342726001486,-0.11640101428213812]",100.0,"[-0.06516539929591735,0.02499516647116194]",4.0,"[-0.03267341420444266,0.19451063234037516]",4.0,"[0.02,0.02]",228.2855,0.0,12.0,12.0,182.0,1.0,,,,,,,
,,,,,,,6833610f9644c791ebdf6fd8,6842baffea32a0a5183add65,2025-06-06_05h57.29.610,shape_ratio,2024.1.5,Win32,60.24096386,6842b561977af9ba9b0f87ca,,,,,,,,,,,228.2865,228.7848,,,229.0347,229.2176,right,,,,,,,,0.9,0.1671,,,,,,,228.7849,229.0346,229.2178,"[-0.01707106432810641,-0.06270764319433939]",100.0,"[-0.10396126398170658,0.14567648575822476]",100.0,"[-0.10227204371311098,-0.07027512153026445]",100.0,"[0.05065341407320709,0.12347430725854547]",100.0,"[0.08964453789951889,-0.16600919478413947]",100.0,"[0.02264286093232114,0.034533909028854747]",100.0,"[-0.01713270271695192,0.16217983595235524]",100.0,"[-0.10335818495933279,0.0762406857882933]",4.0,"[0.0992117236758171,-0.07990928572244738]",100.0,"[-0.1056007817338705,0.024502290735468064]",100.0,"[-0.04925047042394823,0.014793365769951432]",100.0,"[0.15990817926640555,-0.06890118044785802]",100.0,"[-0.11694585701573235,-0.11224105515039562]",100.0,"[0.17540717468289632,0.005745136596389407]",100.0,"[0.033174531103182095,-0.18921160149803265]",100.0,"[-0.05845369443728458,0.13959424643375973]",100.0,"[0.1463268448436264,0.06272480876496987]",4.0,"[-0.15692093009236407,-0.10038779753824172]",100.0,"[-0.0664621405296249,-0.12736362117262554]",100.0,"[-0.04632471703512257,0.08762310778341648]",100.0,"[-0.19047039753315276,-0.050656536189394974]",100.0,"[0.03258854554397742,-0.03148616548780359]",100.0,"[-0.158785758872209,0.10451046370139176]",100.0,"[0.10242586977470843,0.16425874743946112]",100.0,"[0.10422917389833641,0.012336257946542053]",100.0,"[-0.17538014227972587,0.053028718225871574]",100.0,"[0.16981379880822725,0.09657757759109353]",100.0,"[-0.0569937511732823,-0.05044115136206664]",100.0,"[0.018499090881111586,-0.12311418679241325]",4.0,"[0.030476504023636906,0.1946428943224034]",100.0,"[-0.11712660924547456,-0.16204337546358796]",100.0,"[0.058285648398198955,0.05766718986495639]",100.0,"[0.02,0.02]",230.3163,0.0,13.0,13.0,23.0,1.0,,,,,,,
,,,,,,,6833610f9644c791ebdf6fd8,6842baffea32a0a5183add65,2025-06-06_05h57.29.610,shape_ratio,2024.1.5,Win32,60.24096386,6842b561977af9ba9b0f87ca,,,,,,,,,,,230.3171,230.8158,,,231.0665,231.1488,left,,,,,,,,0.9,0.0677,,,,,,,230.816,231.0664,231.1489,"[0.09458940546297061,-0.11130935753631022]",100.0,"[-0.02966184208223553,0.03966092566323574]",100.0,"[-0.05191472355261996,0.1208657110675103]",100.0,"[-0.09214554120793149,-0.05151209795627798]",100.0,"[0.045426987855924285,-0.10397269894506721]",100.0,"[0.0049084301209651356,0.13526889523030813]",100.0,"[0.06322702271013139,0.14874706612422986]",100.0,"[-0.1397423645774103,0.1296287670849446]",100.0,"[0.1665635332782,-0.0049638370531605355]",100.0,"[-0.018241096855784504,-0.021531725526458958]",100.0,"[-0.11908563033820667,-0.09182231741474549]",100.0,"[0.04621774979181814,-0.047355750209112]",100.0,"[-0.07942064518692553,0.011498410147801641]",100.0,"[0.0675439312404755,0.06328066281788995]",100.0,"[0.1863269851960905,0.05767674080869433]",100.0,"[-0.04540108847086159,0.17663909603516284]",4.0,"[-0.025853255990928387,-0.17826340193826906]",4.0,"[-0.1606684088825518,0.022455716292857173]",4.0,"[0.13704187526811937,-0.05090566392692711]",100.0,"[0.03209630585121209,-0.15141758186781407]",100.0,"[0.14937594736563967,0.0396481434721863]",100.0,"[0.12040605287253037,0.07091266633113111]",100.0,"[0.029378395934360636,-0.0002788109859505038]",100.0,"[0.026370770127858517,0.04255108683685748]",100.0,"[0.08596627608835734,-0.027383859329312338]",100.0,"[-0.18843455377750504,-0.058496235852336945]",100.0,"[0.017438051440376388,-0.19613930431077697]",100.0,"[-0.04770851044505492,-0.04935790125452855]",100.0,"[-0.07333521382692165,-0.1527219554968112]",100.0,"[0.16706838793622916,0.10098050790562904]",100.0,"[-0.10917579296152832,0.04541763957135437]",100.0,"[-0.036169682718057594,-0.13274830058266016]",100.0,"[0.02,0.02]",232.2478,0.0,14.0,14.0,9.0,1.0,,,,,,,
,,,,,,,6833610f9644c791ebdf6fd8,6842baffea32a0a5183add65,2025-06-06_05h57.29.610,shape_ratio,2024.1.5,Win32,60.24096386,6842b561977af9ba9b0f87ca,,,,,,,,,,,232.2487,232.7472,,,232.9981,233.5796,right,,,,,,,,0.1,0.5694,,,,,,,232.7473,232.998,233.5798,"[-0.034772297819925115,-0.17961611803626512]",4.0,"[0.09238897529200689,-0.06683885236922414]",4.0,"[0.08018119680027941,-0.14554939078973683]",100.0,"[-0.12448454810975788,0.0263034366486745]",4.0,"[-0.017303176465726055,0.029201862340175497]",4.0,"[-0.010294651833341944,-0.0287252796337243]",4.0,"[0.04288368611560868,-0.0071583619938390165]",4.0,"[-0.1553231263775423,0.12576044338880604]",100.0,"[-0.01114262299601323,0.11886257906394637]",4.0,"[0.05109033944982382,0.08609058834469106]",4.0,"[-0.06345216806987254,-0.06215397309878943]",4.0,"[-0.17784283291925326,-0.053372189124400206]",4.0,"[-0.11116347079570896,-0.08444377541945546]",4.0,"[-0.1342266125483287,0.0780991414282876]",4.0,"[0.1388131191065964,-0.13777117644474005]",4.0,"[0.06600082657995018,0.034983225154532636]",4.0,"[-0.004341829726411905,-0.1435645567816417]",4.0,"[-0.06907095461287142,0.14190318713077085]",4.0,"[0.18395637408738544,-0.06550291971096402]",4.0,"[0.15203256932422363,0.09527530036772143]",4.0,"[0.12831737808009944,-0.046099626242878666]",4.0,"[-0.045650344008091176,0.060470468286107144]",4.0,"[0.021832588162171613,-0.08768194548422142]",4.0,"[-0.09530346843910538,-0.01614237616116608]",4.0,"[0.09591052071112563,0.06582005422229986]",4.0,"[0.037343783054323045,-0.13670760458793957]",4.0,"[0.07327438506839412,0.11994898746504049]",4.0,"[0.1512289061838611,-0.011552862315231529]",4.0,"[-0.028189758156407813,-0.09549735643520699]",4.0,"[-0.18026716848453972,0.018950767767300057]",4.0,"[-0.16008457462730857,-0.10505669037191588]",100.0,"[0.06278041379971591,-0.09460157567453503]",4.0,"[0.02,0.02]",234.6785,0.0,15.0,15.0,184.0,1.0,,,,,,,
,,,,,,,6833610f9644c791ebdf6fd8,6842baffea32a0a5183add65,2025-06-06_05h57.29.610,shape_ratio,2024.1.5,Win32,60.24096386,6842b561977af9ba9b0f87ca,,,,,,,,,,,234.6794,235.1777,,,235.4285,236.1774,right,,,,,,,,0.6,0.7355,,,,,,,235.1778,235.4284,236.1775,"[0.06688049740727187,-0.07180420555733406]",100.0,"[0.0396203586407525,-0.11473858839786254]",100.0,"[0.15161970876110523,-0.12421402748142443]",4.0,"[0.19200415017488026,0.017835923229535217]",100.0,"[-0.10417241359829935,0.14907085964317507]",4.0,"[0.008070561644042788,0.16721070938742652]",100.0,"[0.014565304735549425,-0.025241151309890394]",4.0,"[0.08886415529437079,-0.03597243494817259]",4.0,"[0.04048679073839598,0.05252784489278346]",100.0,"[0.09874327982541448,0.05142370563528405]",4.0,"[0.17366968406721195,0.08051043231896386]",4.0,"[-0.06316813774634099,0.12311000708864529]",100.0,"[0.1550504355463356,-0.022483598390533297]",100.0,"[0.09499264708028159,0.14118746970342239]",100.0,"[-0.15520501843509818,-0.012323647631611171]",4.0,"[-0.045459578272856335,0.06066793489486372]",4.0,"[-0.06598174098661526,-0.0764243369013753]",100.0,"[0.12882473214951065,0.10537700331291382]",100.0,"[-0.10067826382206353,-0.0368110284742474]",100.0,"[0.07916055926501693,0.005473887279025134]",100.0,"[-0.01045543567946696,-0.11453373195250245]",100.0,"[0.0053456780250389045,0.027662064961626764]",4.0,"[0.07581854799118022,-0.13501441698430353]",4.0,"[0.15432738710351876,-0.07445175353134084]",100.0,"[0.0658277110363465,0.09535683400834039]",4.0,"[-0.14354207205186,0.06748427537200245]",100.0,"[0.0707350528533424,0.18371233346168978]",4.0,"[0.037830002120496364,0.1268146206785079]",100.0,"[-0.1454637681121116,-0.09871155237660705]",100.0,"[-0.07300348641412639,0.006089070851044823]",100.0,"[-0.0887093181951382,-0.14277504014622489]",4.0,"[-0.13424739136528907,-0.1412990683268556]",100.0,"[0.02,0.02]",237.2759,0.0,16.0,16.0,52.0,1.0,,,,,,,
,,,,,,,6833610f9644c791ebdf6fd8,6842baffea32a0a5183add65,2025-06-06_05h57.29.610,shape_ratio,2024.1.5,Win32,60.24096386,6842b561977af9ba9b0f87ca,,,,,,,,,,,237.2767,237.7754,,,238.0277,238.2934,left,,,,,,,,0.45,0.2423,,,,,,,237.7755,238.0276,238.2937,"[-0.06328499959480123,0.16291544739133682]",100.0,"[-0.14420687568535645,0.029958729187898457]",4.0,"[-0.05145009654343604,-0.098813938306719]",100.0,"[0.05305568282716093,0.05638763986326906]",4.0,"[0.05476982120526951,-0.10638550790648717]",4.0,"[0.08567440314372127,0.16625600269632163]",4.0,"[0.09842889511730202,-0.06425152828962323]",100.0,"[-0.17542705737244466,0.0709366148162721]",100.0,"[-0.017704533553741734,0.08261728520962976]",100.0,"[0.012622829761252572,0.18160046266415303]",100.0,"[-0.058152589396907615,0.0264274392470217]",100.0,"[0.14858869126771793,0.031438366401862025]",4.0,"[0.09994949680857965,-0.001552144731812927]",100.0,"[-0.021233388003635945,0.14680860572133467]",4.0,"[-0.015244407808244253,-0.022662637590029518]",4.0,"[-0.011594616594803353,0.01763117258100378]",100.0,"[-0.0005931500838677668,-0.11523028293707861]",4.0,"[0.17348891124260715,-0.0325375148545624]",100.0,"[-0.08087776524722348,-0.06652780333326307]",4.0,"[-0.09363070943034969,0.08618840086595926]",4.0,"[0.04920241195509813,0.009337518277983986]",100.0,"[0.12383192941031136,0.10393974294216414]",100.0,"[-0.11914086871904256,0.12454954309225415]",100.0,"[-0.10064631262135754,-0.14842177871250717]",4.0,"[-0.14248028980970015,-0.07109597941942444]",4.0,"[0.15090275582074805,-0.07318104596125413]",100.0,"[-0.005062058076600693,-0.06972922500316248]",4.0,"[0.06082527842481138,-0.14661785335387922]",4.0,"[0.048092148964115164,-0.0559687008961498]",4.0,"[0.18848635085442492,0.026387067375360392]",4.0,"[-0.11215717642499277,-0.025093234689912595]",4.0,"[-0.05051683803445388,-0.15941134985329547]",4.0,"[0.02,0.02]",239.3915,0.0,17.0,17.0,140.0,1.0,,,,,,,
,,,,,,,6833610f9644c791ebdf6fd8,6842baffea32a0a5183add65,2025-06-06_05h57.29.610,shape_ratio,2024.1.5,Win32,60.24096386,6842b561977af9ba9b0f87ca,,,,,,,,,,,239.3926,239.8909,,,240.1421,240.5239,left,,,,,,,,0.55,0.3552,,,,,,,239.8911,240.1419,240.524,"[-0.08120437103864513,0.024397675218259116]",100.0,"[-0.12971798635151635,-0.14562775516075702]",4.0,"[-0.0583924726314016,-0.11765564742824368]",4.0,"[0.10511456369052644,0.057694903516631306]",100.0,"[0.06964638411418185,-0.18698759829479394]",4.0,"[-0.09441370132537583,-0.04062123068092385]",100.0,"[0.019286626089328743,0.11946045950760749]",100.0,"[-0.1725645599716136,-0.04592102047999032]",4.0,"[0.19542061888391044,0.02229806151248626]",100.0,"[-0.11200227431927703,-0.08682994808797583]",4.0,"[0.02356049904695205,-0.1489887041041903]",100.0,"[0.06184603497788575,0.14707495805481544]",4.0,"[-0.03472965525917739,0.14601820155640757]",100.0,"[0.07464515245272459,-0.05900656209563822]",100.0,"[-0.045945229249527396,-0.15821411373171326]",4.0,"[-0.03693123017680719,0.0643136053365567]",4.0,"[0.011713457524518441,-0.0565221441781679]",100.0,"[-0.09673569209375461,0.06450672173994873]",4.0,"[-0.16174275228319174,0.03874862680200262]",4.0,"[0.11952222482622524,-0.07326292367514557]",100.0,"[0.03401391330695741,-0.01676752274975472]",100.0,"[-0.015085654906933383,-0.009353615573374933]",4.0,"[-0.08617823607790037,0.13873968146359525]",100.0,"[0.10449209899472373,-0.16190500142154654]",4.0,"[0.0092571500191349,-0.09858366993575579]",100.0,"[-0.019204465641225153,0.1076485038615724]",100.0,"[0.07207626874185476,0.08433321368487665]",100.0,"[0.1763607296792582,0.08527075231566761]",4.0,"[0.14797303092362168,0.1271913843002547]",4.0,"[-0.150867723631848,0.12680257581895235]",100.0,"[0.15295754027706768,-0.011503959023025978]",100.0,"[0.08617128148204112,-0.11416975940840443]",100.0,"[0.02,0.02]",241.6227,0.0,18.0,18.0,69.0,1.0,,,,,,,
,,,,,,,6833610f9644c791ebdf6fd8,6842baffea32a0a5183add65,2025-06-06_05h57.29.610,shape_ratio,2024.1.5,Win32,60.24096386,6842b561977af9ba9b0f87ca,,,,,,,,,,,241.6239,242.1218,,,242.3718,242.654,right,,,,,,,,0.4,0.266,,,,,,,242.1221,242.3718,242.6542,"[0.08667150072454675,0.049749384436011616]",4.0,"[-0.09361698955116485,-0.1323763155785686]",4.0,"[-0.06430861977868352,-0.17395773100717618]",4.0,"[-0.0672533164429258,-0.08056760545083519]",4.0,"[-0.03327049586070585,0.1073453323190802]",4.0,"[0.12194725752672705,-0.12352790128449961]",4.0,"[-0.13134175220512564,0.021024200453479358]",4.0,"[-0.08237307212609717,0.12208123266173149]",100.0,"[0.1100482091879583,-0.030904296206644567]",100.0,"[0.02833939403094961,0.14530702697310896]",100.0,"[0.12512685750651562,0.019729397925636816]",4.0,"[-0.15488901807304745,0.061231168027838886]",4.0,"[0.14757901247268937,0.0845458294418989]",4.0,"[0.09393239390334047,0.11960857029501804]",4.0,"[-0.1948710139169997,0.01977990346188576]",4.0,"[-0.15922810637839474,-0.015627458154681292]",4.0,"[0.07796184276377104,-0.175869234630193]",4.0,"[-0.12566630760256714,0.1441175407364898]",4.0,"[-0.06954603823982464,-0.020994195255317354]",100.0,"[-0.028764228451624206,0.1607729434367952]",100.0,"[0.18898467917981202,0.05038052671552735]",4.0,"[0.030791005774072858,-0.18712531332886648]",100.0,"[-0.00017461973498669186,0.02600580155404794]",100.0,"[-0.13385279090775667,-0.05250977727312331]",4.0,"[0.05115107812347058,-0.08477482228307749]",100.0,"[-0.13143693535992168,-0.09273012806940772]",100.0,"[0.09544895471403723,-0.0801832431970363]",100.0,"[-0.015244183700889978,-0.0875748291267889]",4.0,"[-0.12106460458061198,0.09052950922093482]",100.0,"[-0.02306485317589242,-0.1334709089655545]",100.0,"[0.021992561666291748,0.10146977039611049]",4.0,"[-0.059176971647975515,0.049743391713365046]",100.0,"[0.02,0.02]",243.7529,0.0,19.0,19.0,168.0,1.0,,,,,,,
,,,,,,,6833610f9644c791ebdf6fd8,6842baffea32a0a5183add65,2025-06-06_05h57.29.610,shape_ratio,2024.1.5,Win32,60.24096386,6842b561977af9ba9b0f87ca,,,,,,,,,,,243.7538,244.2522,,,244.5074,244.92,left,,,,,,,,0.6,0.3897,,,,,,,244.2524,244.5073,244.9203,"[0.1262614834616203,0.06974226207541356]",4.0,"[-0.14667275660958,-0.06119477484356465]",4.0,"[0.055432712252201,0.12295932968617518]",100.0,"[-0.11449045984771594,-0.15371588752486254]",4.0,"[-0.008636947308797464,-0.1457087486496798]",100.0,"[-0.022644321112868432,0.09298011997162259]",4.0,"[0.1262133237290062,-0.10074947346857002]",100.0,"[-0.05182602312519865,-0.04114017376653338]",100.0,"[-0.18513475658214149,0.06894595500701514]",4.0,"[0.0001853743811686632,-0.101184330575998]",100.0,"[0.08492573353775479,0.1536663244562105]",100.0,"[-0.10546396534097942,0.115457323892486]",100.0,"[0.10668677946938829,-0.15696299885120504]",4.0,"[-0.07526249467978482,0.1742534213473945]",100.0,"[0.10204924728093419,-0.05594542104595299]",100.0,"[0.038657033088332356,0.1749349082159551]",4.0,"[-0.17033088634753027,-0.02014002278325412]",100.0,"[-0.058716219874680786,-0.1271378670958995]",4.0,"[0.18459809300994312,0.07253925765948069]",4.0,"[0.08597420147100271,0.08768974979111219]",100.0,"[0.024955144489366077,0.03869475485541298]",100.0,"[-0.07624768355528624,0.05348112570121704]",4.0,"[0.028691816109258746,-0.05316687890739933]",100.0,"[-0.15221575468051035,-0.10867175570603091]",4.0,"[0.001195050772097585,0.19150576646914066]",100.0,"[-0.08679880717184893,-0.08960775123039309]",100.0,"[-0.0996548384831858,-0.04812217658361663]",4.0,"[-0.016181603641553417,-0.022158084577674802]",4.0,"[0.19703919072005838,0.0015419076670594467]",100.0,"[-0.12439378604939053,0.03578311191541234]",100.0,"[-0.03190290603309117,0.04275849016443992]",100.0,"[0.17892606090669977,-0.06789021582541013]",100.0,"[0.02,0.02]",246.0186,0.0,20.0,20.0,42.0,1.0,,,,,,,
,,,,,,,6833610f9644c791ebdf6fd8,6842baffea32a0a5183add65,2025-06-06_05h57.29.610,shape_ratio,2024.1.5,Win32,60.24096386,6842b561977af9ba9b0f87ca,,,,,,,,,,,246.0198,246.5176,,,246.7687,246.8676,right,,,,,,,,0.5,0.0845,,,,,,,246.5177,246.7685,246.8677,"[-0.14049691840759834,-0.09897233029804621]",4.0,"[0.13071066159599976,-0.06807472085198202]",100.0,"[-0.06796819470623154,-0.0404760861194761]",4.0,"[-0.08937740609793803,0.06026077859255743]",100.0,"[-0.1454606082443511,0.13070174150109545]",100.0,"[0.04264372861765518,-0.17850620590785696]",100.0,"[0.1914317293033168,-0.038552376377638524]",4.0,"[0.005655419461891104,0.09074614044057347]",100.0,"[0.12825753986126892,0.09485562638743211]",4.0,"[-0.05046493914998122,-0.17335723503109782]",4.0,"[0.08423347664313213,-0.15049469888559192]",100.0,"[0.0701746897472898,0.14291637191757584]",4.0,"[0.0477092847856684,-0.015318332668793035]",4.0,"[-0.15600309139065327,0.08875450412556456]",100.0,"[-0.09641483546254855,-0.0022405324937814384]",100.0,"[0.02004323714446464,-0.09697825506886265]",4.0,"[0.10174772368947382,0.057099568598141665]",100.0,"[0.1667520242567071,0.06153267871440153]",100.0,"[-0.03950578335474119,0.06793829317034246]",4.0,"[0.0535826493294677,0.0455710068897907]",4.0,"[-0.05016832876311797,-0.12046885470841383]",100.0,"[0.08329727599820264,0.012809721400452292]",4.0,"[0.011556620928665915,0.03975853973675787]",100.0,"[-0.13348422049151176,0.03103581110798453]",100.0,"[-0.003755460054860148,-0.04015063443381756]",4.0,"[0.1487660454036701,0.025618684480427804]",4.0,"[-0.19143467470073186,0.0031534483257023814]",100.0,"[-0.07634099048835893,0.13633299905282364]",4.0,"[-0.06188720283240944,0.18877915193849823]",100.0,"[0.0718929456152509,-0.07556880578266167]",100.0,"[-0.07683050925264913,-0.08124830819128052]",4.0,"[0.14522896742363037,-0.13179968582479423]",4.0,"[0.02,0.02]",247.9658,0.0,21.0,21.0,103.0,1.0,,,,,,,
,,,,,,,6833610f9644c791ebdf6fd8,6842baffea32a0a5183add65,2025-06-06_05h57.29.610,shape_ratio,2024.1.5,Win32,60.24096386,6842b561977af9ba9b0f87ca,,,,,,,,,,,247.9669,248.4651,,,248.7151,248.7977,left,,,,,,,,0.9,0.0729,,,,,,,248.4652,248.7151,248.7978,"[-0.12946964188426918,-0.12172070552856085]",100.0,"[0.08176911401641122,-0.04402093828455462]",4.0,"[-0.028078411577858602,0.0025929296722899692]",100.0,"[0.18165592265623315,-0.06998670026820365]",100.0,"[0.07173421614403544,0.1547330649358453]",100.0,"[-0.03291996019327778,-0.14532074860423963]",100.0,"[-0.1487833818406857,0.10469391083594594]",100.0,"[-0.01874732891443854,0.13477326329227157]",100.0,"[0.02361671323934457,0.16030169509921652]",100.0,"[-0.11182107219436002,0.1501108493099066]",100.0,"[-0.07516042834744217,0.03226303472151405]",100.0,"[0.10911011532623381,-0.1446355541310266]",100.0,"[0.006900726187617454,-0.16331126826165818]",100.0,"[-0.12391566953530275,0.035704183565389465]",100.0,"[0.03654562716224082,-0.09458650205134973]",100.0,"[-0.09608878146199111,-0.09309469038006689]",4.0,"[0.06529261204335657,-0.18284121506793583]",100.0,"[0.12336804436866522,0.06365551790553209]",100.0,"[-0.0862229944135971,-0.02432257939807626]",100.0,"[0.06300123858775698,0.07671846543211418]",100.0,"[-0.14461857571236253,-0.07742379357533168]",100.0,"[0.008651636492333917,-0.016494350690989687]",100.0,"[0.16069228282301354,0.09997226554148647]",4.0,"[-0.09325106343473584,0.10585788509730303]",100.0,"[-0.02475443643813618,-0.18838647715132667]",100.0,"[0.06370603533291819,-0.14096344345058856]",100.0,"[0.008993792253921084,0.06968970376610305]",100.0,"[0.12229388677342212,-0.037635649262210503]",100.0,"[-0.17407977109112624,-0.003495959319218239]",100.0,"[0.10341351987467912,-0.08954309136138251]",100.0,"[0.05255697861319984,0.026669630781294355]",100.0,"[0.024225035663552844,0.11495385409501832]",100.0,"[0.02,0.02]",249.8968,0.0,22.0,22.0,3.0,1.0,,,,,,,
,,,,,,,6833610f9644c791ebdf6fd8,6842baffea32a0a5183add65,2025-06-06_05h57.29.610,shape_ratio,2024.1.5,Win32,60.24096386,6842b561977af9ba9b0f87ca,,,,,,,,,,,249.8975,250.396,,,250.6479,251.0789,right,,,,,,,,0.6,0.4207,,,,,,,250.3962,250.6476,251.0791,"[0.0010269650008743576,-0.024365331962273026]",100.0,"[0.17777757016408835,-0.0463245694661964]",100.0,"[0.030451091717566197,-0.14693971124293667]",4.0,"[0.1431813771087422,0.03737677803425687]",4.0,"[-0.07492099613207316,0.08701990457445993]",100.0,"[0.10778009078039263,-0.09066210761720066]",100.0,"[0.08142186331009273,0.05899483454150979]",4.0,"[-0.09635181775260418,0.01842627472745574]",4.0,"[-0.02453381550319737,0.022548232041851184]",100.0,"[-0.07565498202385967,-0.03193372920439145]",100.0,"[-0.16241918289626545,0.005466128813014298]",4.0,"[0.07472302924659999,0.17049975652000823]",100.0,"[0.013921482745136472,0.0620493495304456]",4.0,"[0.0846335057217198,-0.04205713012415447]",100.0,"[-0.09718246512534075,-0.17225888326225294]",4.0,"[-0.021414819776541468,0.17138739688723412]",100.0,"[-0.0961791639442727,-0.11333215066109463]",100.0,"[-0.14846854858939165,-0.08970121782888531]",4.0,"[0.02223303854047034,0.1986450274460021]",100.0,"[-0.04335524082383762,-0.17819479674850006]",4.0,"[0.0918949388664181,0.011931296066856901]",100.0,"[-0.18461375138053038,0.04116689158447681]",100.0,"[-0.09808153066111923,0.17239046923564239]",100.0,"[0.148573163177001,0.12815499686717155]",100.0,"[-0.03133534362620141,-0.08928095969194672]",100.0,"[0.12647098307598725,-0.016814357550770532]",4.0,"[0.07268525974459533,-0.15516424387254038]",100.0,"[-0.14704058101256046,-0.03401344160169132]",100.0,"[0.06837576017510123,0.10459261521402097]",4.0,"[-0.032796013935172556,0.07495454574138453]",100.0,"[0.04948246847035033,0.020217200869682005]",4.0,"[0.14642629332399087,0.0878596267890185]",4.0,"[0.02,0.02]",252.1782,0.0,23.0,23.0,51.0,1.0,,,,,,,
,,,,,,,6833610f9644c791ebdf6fd8,6842baffea32a0a5183add65,2025-06-06_05h57.29.610,shape_ratio,2024.1.5,Win32,60.24096386,6842b561977af9ba9b0f87ca,,,,,,,,,,,252.179,252.6779,,,252.9268,253.2269,right,,,,,,,,0.9,0.2857,,,,,,,252.678,252.9267,253.2271,"[0.03778116320080283,0.0918188600103476]",100.0,"[0.01621260604309023,-0.11754385082716393]",100.0,"[0.12274062931867424,0.09354562937995141]",100.0,"[0.16877212104416614,-0.057861574582057054]",100.0,"[-0.0066335040246744735,0.03963538790457671]",100.0,"[-0.08953522748084707,-0.056512693845702684]",100.0,"[-0.06312292827338763,0.17067328013821018]",100.0,"[0.13473409175097406,-0.08102103665710138]",100.0,"[-0.10042112119987268,0.08200822244099353]",100.0,"[-0.08582957430786392,-0.15970183999193366]",100.0,"[-0.1271692694753502,-0.10013144459117683]",4.0,"[-0.05991453024562286,0.00409342859835232]",100.0,"[0.04515277582177147,0.007262001891812603]",100.0,"[0.06585451305612022,-0.16666180780660028]",100.0,"[-0.1669789722171914,0.10302630221688437]",100.0,"[0.010201341681345864,-0.029593192899436387]",4.0,"[0.001663605993991651,0.16791237787968005]",100.0,"[0.17052110738245932,0.06766744156822271]",4.0,"[-0.02098781776078221,-0.17444629241202833]",100.0,"[-0.04553597704889328,0.11467533142901769]",100.0,"[-0.14217454356117026,-0.011325204014525591]",100.0,"[-0.01699250122259032,-0.08932357353311868]",100.0,"[0.052199537772851946,-0.032140191840211364]",100.0,"[-0.1740031216047951,0.029536535965910465]",100.0,"[0.16773452536963668,0.0013868759054650433]",100.0,"[-0.04512255303459562,-0.0441864574924952]",100.0,"[0.1197593518033568,0.020353538764204867]",100.0,"[-0.12807572778564946,-0.1530410584178828]",100.0,"[0.14232828675938808,-0.13469109003933502]",100.0,"[0.10819044978196657,-0.050673363441176754]",100.0,"[0.06868841273629007,0.14365711067881495]",100.0,"[0.08777836496868975,-0.11574306978667726]",100.0,"[0.02,0.02]",254.3261,0.0,24.0,24.0,1.0,1.0,,,,,,,
,,,,,,,6833610f9644c791ebdf6fd8,6842baffea32a0a5183add65,2025-06-06_05h57.29.610,shape_ratio,2024.1.5,Win32,60.24096386,6842b561977af9ba9b0f87ca,,,,,,,,,,,254.3278,254.8254,,,255.0763,255.4415,right,,,,,,,,0.55,0.3551,,,,,,,254.8255,255.0762,255.4416,"[-0.13615663386707588,0.13422585988142832]",4.0,"[0.13003388015796025,0.09601505967063396]",100.0,"[0.09402112160641046,-0.028653179258043428]",4.0,"[-0.1517820675544805,-0.07942405862372422]",100.0,"[-0.0751136582205684,-0.17280818701446485]",4.0,"[-0.07542903974095043,0.11306591115878119]",4.0,"[0.013765798304752963,0.02867468475633925]",100.0,"[0.06610100499321513,-0.11150369611925771]",100.0,"[-0.10562857443852341,-0.13816413049995516]",100.0,"[-0.007865344113288649,-0.11026602442756789]",100.0,"[0.16339298031778934,-0.05393418729813252]",4.0,"[0.02779967854467157,0.08512393280676453]",4.0,"[0.028304449316806885,0.12922624699001942]",100.0,"[-0.18710351492821178,0.028779739258418726]",4.0,"[-0.16929242649111134,-0.021681568955567686]",100.0,"[-0.0959536057612955,-0.007207316390562341]",4.0,"[0.15928268709719443,-0.002099188984825759]",100.0,"[-0.037203551766078126,0.19594508157429408]",100.0,"[0.19468697536092547,0.03827151027836673]",100.0,"[0.022627509994542338,-0.15568199759797513]",100.0,"[-0.057902701828662737,0.047163813404277194]",4.0,"[-0.11058485292400211,-0.09241392333629286]",4.0,"[-0.021246893428924798,-0.180450583539433]",4.0,"[0.08547492459210738,-0.16838020655330896]",4.0,"[-0.1516257682040793,0.07719972324877998]",4.0,"[-0.0830627044287309,0.16621731938236298]",100.0,"[-0.05169818882673452,-0.05506075464133281]",100.0,"[0.1102886968939486,0.1315637402175968]",100.0,"[0.06444127806909938,-0.06474976935092905]",100.0,"[0.134083126622479,-0.10264362896423394]",100.0,"[0.005673116847909798,0.1756676917480313]",100.0,"[0.05419688196102407,0.0025864824395857465]",4.0,"[0.02,0.02]",256.5403,0.0,25.0,25.0,76.0,1.0,,,,,,,
,,,,,,,6833610f9644c791ebdf6fd8,6842baffea32a0a5183add65,2025-06-06_05h57.29.610,shape_ratio,2024.1.5,Win32,60.24096386,6842b561977af9ba9b0f87ca,,,,,,,,,,,256.5412,257.0394,,,257.2907,257.6732,right,,,,,,,,0.5,0.3665,,,,,,,257.0395,257.2906,257.6733,"[0.08551007505526227,0.04983176318017532]",100.0,"[-0.03331575060192711,0.1503694848286358]",100.0,"[-0.16933027413797194,-0.07438676803100527]",100.0,"[0.15383033916049776,0.0028911255882459585]",4.0,"[0.05734750768745909,-0.058860463710814465]",4.0,"[-0.050203078177282555,-0.055530109493910226]",100.0,"[0.014368062944829927,-0.06124840603316898]",100.0,"[0.09625074913987196,-0.07358714323792494]",4.0,"[-0.1096955118492783,-0.10840999932267241]",100.0,"[-0.07044426982484005,0.04220346126007959]",4.0,"[0.1636931144570956,0.08762244356521179]",4.0,"[0.0610615395973349,-0.11221019826949041]",4.0,"[-0.028490200216982554,-0.17478162753529805]",100.0,"[0.031139806453800673,0.12586719728491166]",4.0,"[0.0035430873218167524,-0.12101335464501153]",100.0,"[0.08652424509428044,0.10910241469557147]",4.0,"[-0.11315862238677507,0.07416920802740622]",4.0,"[0.0018162070806623642,0.04275386032014077]",4.0,"[-0.16845311042969313,0.05001870671647771]",4.0,"[-0.015572484962574669,0.09128928732131213]",4.0,"[-0.06194169194540267,-0.10319349188626321]",100.0,"[0.07347818637874157,0.004910502160757887]",100.0,"[0.033149944672297676,-0.1684884813579551]",4.0,"[0.10071989269950303,0.164567577885539]",100.0,"[0.14511602132373042,-0.03688758744358253]",4.0,"[-0.1151929867908472,-0.012361802634541237]",4.0,"[0.059501518765930995,0.17383787523730235]",100.0,"[-0.10514365215632426,-0.1642126827364064]",100.0,"[-0.03948724287719764,0.001606640795865376]",100.0,"[-0.11474026312058763,0.12364670355359993]",100.0,"[0.09375061497492106,-0.13561254253918778]",4.0,"[-0.07448786800748611,0.10083701154653661]",100.0,"[0.02,0.02]",258.7714,0.0,26.0,26.0,93.0,1.0,,,,,,,
,,,,,,,6833610f9644c791ebdf6fd8,6842baffea32a0a5183add65,2025-06-06_05h57.29.610,shape_ratio,2024.1.5,Win32,60.24096386,6842b561977af9ba9b0f87ca,,,,,,,,,,,258.7724,259.2709,,,259.5218,259.9541,right,,,,,,,,0.1,0.417,,,,,,,259.271,259.5217,259.9542,"[-0.1350598522721797,-0.08970145234292629]",100.0,"[0.0349125961676531,-0.18122753491682705]",4.0,"[-0.06388936862714208,0.16218371161351275]",4.0,"[0.13468329491408562,-0.03554970610305819]",4.0,"[-0.1068512339527605,0.0502427473716286]",4.0,"[0.19203851048073692,0.00916672865990992]",4.0,"[0.04309669247191305,0.0942603167021667]",100.0,"[0.024032921545436556,-0.08874620641770924]",4.0,"[0.04109215449258378,0.008503599589360346]",4.0,"[-0.07310329898140845,-0.03353958286847355]",4.0,"[0.14244273931044604,0.11809774554641968]",100.0,"[-0.014298907939371375,-0.11367440160519714]",4.0,"[-0.044603646977321186,0.03389422279433716]",4.0,"[-0.023101434067474926,0.13945550528228823]",4.0,"[0.039101582502915753,0.17058555329350153]",4.0,"[-0.0713849260362307,-0.07932977878995075]",4.0,"[0.17251616714601717,-0.09658095714788949]",4.0,"[-0.1252303399469512,-0.02292051580012313]",4.0,"[-0.042340994935562995,-0.19319483188615463]",4.0,"[0.1790523583209624,0.08858659211099444]",4.0,"[-0.00021101679913478115,0.09657400220873372]",4.0,"[0.045600560334006245,-0.05471161417998447]",4.0,"[0.11077064825292708,0.08427489374176608]",4.0,"[-0.07951568388480064,0.09725718686462011]",4.0,"[-0.1500163823810531,0.10270726634485203]",4.0,"[-0.0968733624467609,-0.15441019548023727]",4.0,"[-0.18197438660637102,-0.05922139545490323]",4.0,"[-0.17107036233843706,0.05270904607508446]",4.0,"[0.10564662603278879,-0.07079315624749166]",4.0,"[-0.19022477361768067,-0.008567266339219792]",4.0,"[-0.09933228491699077,0.13941915525869292]",4.0,"[0.10326123409041574,0.018109523504233754]",4.0,"[0.02,0.02]",261.0525,0.0,27.0,27.0,200.0,1.0,,,,,,,
,,,,,,,6833610f9644c791ebdf6fd8,6842baffea32a0a5183add65,2025-06-06_05h57.29.610,shape_ratio,2024.1.5,Win32,60.24096386,6842b561977af9ba9b0f87ca,,,,,,,,,,,261.0535,261.5519,,,261.803,262.1349,left,,,,,,,,0.4,0.3177,,,,,,,261.5521,261.8029,262.135,"[-0.039636258158064944,-0.07325975186288344]",100.0,"[-0.07923766436503066,-0.02741961184883476]",100.0,"[0.1503219479897616,0.09136918972892634]",4.0,"[0.09360891721883627,0.04453098265766861]",100.0,"[-0.02573245937878834,-0.13630768411833702]",4.0,"[-0.1287779320736725,-0.05520320850839497]",100.0,"[-0.10234582632042903,-0.1334226778313298]",4.0,"[0.13582408606787383,-0.11181207835675806]",4.0,"[0.07399492386303316,0.15515108419756063]",4.0,"[0.010889974646683042,0.08902266612396054]",4.0,"[0.19408315880660132,-0.033413541593964306]",4.0,"[-0.03609671621238883,-0.007352098862677825]",4.0,"[-0.16025398868342652,0.10792893843654913]",4.0,"[0.16917509685436957,0.00010844436243937251]",100.0,"[0.031104095889370836,-0.006585689681596025]",4.0,"[-0.19331094987997377,0.04307547688924552]",4.0,"[-0.11292076010303677,0.08785816312978058]",100.0,"[0.018749601584058286,-0.05496308061971752]",4.0,"[-0.1005612523226811,0.1583936740627318]",4.0,"[0.0934929335125021,-0.12435150885936921]",4.0,"[-0.09291445861731325,0.03446299464905793]",100.0,"[0.1843611909403845,0.06924697766170726]",100.0,"[0.155893773529078,-0.06773533041975262]",4.0,"[0.017344864141007322,0.036774740757516036]",4.0,"[-0.18066154135785462,-0.08398033222278876]",100.0,"[-0.059633632781673704,0.10660300663374937]",4.0,"[-0.09015748137334753,-0.09027201975546345]",100.0,"[0.04180712603955935,-0.09253981704022775]",100.0,"[0.11296753555152969,0.11849241597969935]",4.0,"[-0.0571102697967799,0.17914251723077307]",100.0,"[-0.15506897039139636,-0.12278522625502028]",100.0,"[0.004451602379857936,0.1633238645483819]",4.0,"[0.02,0.02]",263.2333,0.0,28.0,28.0,163.0,1.0,,,,,,,
,,,,,,,6833610f9644c791ebdf6fd8,6842baffea32a0a5183add65,2025-06-06_05h57.29.610,shape_ratio,2024.1.5,Win32,60.24096386,6842b561977af9ba9b0f87ca,,,,,,,,,,,263.2341,263.7329,,,263.9719,264.4055,right,,,,,,,,0.6,0.418,,,,,,,263.733,263.9719,264.4056,"[-0.07026552542336927,-0.1263951948181431]",100.0,"[-0.1178614421703747,-0.1274362814980042]",4.0,"[0.1537261768971367,0.1074581338187425]",4.0,"[-0.15293512180878188,0.014142778376819994]",100.0,"[0.03129334689510837,-0.09992811778495388]",100.0,"[0.09861116607449193,-0.028667282895895728]",4.0,"[-0.060761239602055546,0.13934963463319802]",4.0,"[-0.15748764764440568,0.07454544583866451]",100.0,"[-0.01360080428367114,0.09678865242218712]",100.0,"[0.05652284409841567,0.14637188197887085]",100.0,"[0.18667969998955905,-0.05426767845381516]",4.0,"[0.05647983626582681,-0.06428680500790149]",4.0,"[-0.0009177284547333507,0.19782983943727755]",100.0,"[-0.03578122580772711,0.04869748731170271]",100.0,"[0.13666466838383914,0.06042303972397351]",100.0,"[-0.1580503914053516,-0.0886086108593773]",100.0,"[-0.03820191351173461,-0.07968969396450902]",100.0,"[0.040319604938272066,0.0194705895614626]",100.0,"[0.10666369001569469,-0.09855681484886533]",100.0,"[-0.027584375866617536,0.002247744991451053]",100.0,"[0.03138917437155079,0.11465890494158171]",4.0,"[0.0903438862135529,0.010833384864079008]",100.0,"[-0.04646696413154552,-0.16117213803587369]",100.0,"[0.01600763775341898,-0.045371454325615616]",100.0,"[-0.11493927083656766,0.08812452092690533]",100.0,"[0.1301642733081259,-0.13866256736502233]",4.0,"[0.10187315271328803,0.14678495223307925]",4.0,"[-0.18597496987276263,-0.03835967862741082]",4.0,"[-0.11029734616452652,0.03852356505015895]",4.0,"[0.16103699073191957,-0.10300582180169032]",100.0,"[0.08179920755783433,0.09986995045302292]",4.0,"[0.1320788306751661,0.011286409674647216]",4.0,"[0.02,0.02]",265.4987,0.0,29.0,29.0,35.0,1.0,,,,,,,
,,,,,,,6833610f9644c791ebdf6fd8,6842baffea32a0a5183add65,2025-06-06_05h57.29.610,shape_ratio,2024.1.5,Win32,60.24096386,6842b561977af9ba9b0f87ca,,,,,,,,,,,265.4997,265.9984,,,266.249,266.8311,right,,,,,,,,0.4,0.5566,,,,,,,265.9985,266.2489,266.8311,"[-0.06622157685174823,0.15244400052379128]",4.0,"[-0.18546496985550373,0.04177061634557712]",4.0,"[0.14500104091127644,0.06261497105070149]",4.0,"[0.04377700975819015,0.008260682584755607]",100.0,"[0.0035476771530547407,0.1156690336634128]",4.0,"[0.0038643472212316725,0.05691779502453732]",100.0,"[-0.14488494553525855,0.024183195417435903]",100.0,"[-0.04209693748676247,0.09258841158739001]",4.0,"[0.09335852362142767,0.1662237654544812]",4.0,"[-0.11571381307979337,0.0915122044350153]",4.0,"[-0.03565907240213628,-0.15556886087319782]",4.0,"[-0.03914830726824861,-0.09135096168244014]",100.0,"[-0.011980345914072089,0.19730738154771768]",4.0,"[-0.13111042667919287,-0.04292995321295308]",100.0,"[0.04217018395764308,-0.05293104995927042]",100.0,"[0.15802256134153989,-0.013601319718688155]",100.0,"[0.040871903965433054,-0.1945622523715649]",4.0,"[-0.08101988216104646,-0.1245187519866827]",100.0,"[0.07439317895201251,0.11603166332699597]",4.0,"[-0.052919356856090546,-0.0006230712865186956]",4.0,"[0.0808380089656203,0.03786958361869627]",4.0,"[-0.19033672363690518,-0.036635266644812266]",100.0,"[0.14845253521766158,-0.08688206220861723]",4.0,"[-0.005407851089103689,0.003919878986988913]",4.0,"[-0.018724347529323622,-0.05058740123488991]",4.0,"[0.013744535800102707,-0.0988992154061928]",4.0,"[0.10051864963665738,0.0798468822979902]",100.0,"[0.0666451502150421,-0.09701614414092771]",100.0,"[-0.005160598309425456,-0.19491556596945958]",4.0,"[-0.09008498082050773,-0.03543676800801072]",100.0,"[0.035403756573876365,-0.1445550645471581]",4.0,"[0.18259535023665932,0.08013035226478812]",100.0,"[0.02,0.02]",267.9297,0.0,30.0,30.0,179.0,1.0,,,,,,,
,,,,,,,6833610f9644c791ebdf6fd8,6842baffea32a0a5183add65,2025-06-06_05h57.29.610,shape_ratio,2024.1.5,Win32,60.24096386,6842b561977af9ba9b0f87ca,,,,,,,,,,,267.9308,268.4292,,,268.6783,269.1951,left,,,,,,,,0.55,0.5101,,,,,,,268.4293,268.6782,269.1952,"[0.010936128948965868,-0.06077544845695598]",4.0,"[-0.03286136967287528,0.040138247272284086]",100.0,"[-0.08523635287012642,0.08097613274281847]",100.0,"[0.07293885286891179,-0.1499239518536761]",4.0,"[-0.05885497066027962,-0.06887183304362943]",100.0,"[0.06606382309535869,0.001424418775449123]",4.0,"[-0.0037917652521933347,0.10763958629444526]",4.0,"[-0.10923404612110954,-0.11513037767682568]",100.0,"[0.09408187119193274,-0.09634365433580455]",4.0,"[0.15388155548147087,0.019997929230638905]",100.0,"[-0.14971324096117927,0.12494326460070877]",4.0,"[-0.1296655952213858,0.03731990619372594]",100.0,"[0.005360686423103523,-0.16970179976270233]",100.0,"[0.11815415241542435,0.13564055622923965]",100.0,"[0.10586817068500892,-0.02258191072033755]",4.0,"[0.14593793980766512,-0.12623389827636544]",4.0,"[-0.08238519051615985,-0.019255846728907514]",100.0,"[0.05659645067361077,-0.18732395684441716]",100.0,"[0.07232936384388165,0.1736366580131954]",100.0,"[-0.16443134587210126,0.011975644564328421]",4.0,"[0.004765340184749968,-0.003176690752475645]",4.0,"[0.1744996454001794,-0.025517904103019785]",100.0,"[0.02139441802618626,0.19183540344598937]",4.0,"[-0.05712770573667404,-0.19143245843009915]",100.0,"[0.06445573614631112,0.11431273211639091]",100.0,"[-0.049271352522458865,-0.14890010059156772]",4.0,"[0.16166610510237234,0.0694257032607686]",100.0,"[-0.0443408930960336,0.09308387826123865]",100.0,"[-0.06886429902780358,0.1673124975107875]",100.0,"[0.061370635552676946,-0.06371883601650766]",4.0,"[0.17497482222964064,-0.06562640895464178]",100.0,"[0.027067047730896843,-0.1072042032463805]",4.0,"[0.02,0.02]",270.2924,0.0,31.0,31.0,73.0,1.0,,,,,,,
,,,,,,,6833610f9644c791ebdf6fd8,6842baffea32a0a5183add65,2025-06-06_05h57.29.610,shape_ratio,2024.1.5,Win32,60.24096386,6842b561977af9ba9b0f87ca,,,,,,,,,,,270.2928,270.7929,,,271.0431,271.6261,right,,,,,,,,0.9,0.5661,,,,,,,270.7931,271.043,271.6263,"[0.14593142674616136,-0.04710581283005512]",4.0,"[0.18728238779890832,-0.059329863405209765]",100.0,"[-0.1475502942925982,0.07321129896553151]",100.0,"[0.13082877915306332,0.11112497278073084]",100.0,"[0.03953970835981787,0.18610405317289208]",100.0,"[-0.134896549613628,-0.10827749521239252]",100.0,"[-0.0609690435659202,0.11768548590587574]",100.0,"[0.024778466552191347,-0.1912771913131786]",100.0,"[0.0661144180956054,-0.037522851780810954]",100.0,"[-0.1572236569808203,0.022412060387668676]",100.0,"[0.17581515195317432,0.050003596228926285]",100.0,"[-0.19351770882176883,0.0471283680618298]",4.0,"[-0.03240273724872849,-0.07891032346175786]",4.0,"[-0.06058088303490685,0.050742258972255254]",100.0,"[0.1449028534781308,0.011314611761110269]",100.0,"[-0.10055834154655867,0.10656348163697342]",100.0,"[-0.0530156322675056,-0.02605475401859192]",100.0,"[0.11947877030060974,-0.08846593210445058]",100.0,"[0.014068584339109165,-0.06691194203806242]",100.0,"[-0.06998815312750854,0.17733480391747514]",100.0,"[-0.07512174101927403,-0.12439608042668832]",100.0,"[-0.1514571850706326,-0.0423969987318798]",100.0,"[-0.002412021720794415,0.196803706410983]",100.0,"[-0.11139115724607877,-0.0027249565299704414]",100.0,"[-0.030788455045443905,0.008705523759552565]",100.0,"[-0.11387109296663439,0.03873622632849247]",100.0,"[-0.023042056923745672,0.16039157144678817]",100.0,"[-0.030599841882218624,-0.147238021662063]",100.0,"[0.04214101781342308,-0.1199167247334218]",100.0,"[0.008252011029298168,0.037091570942768465]",100.0,"[-0.015248637458469223,-0.19879055994699582]",100.0,"[0.06547355527562258,0.019298799451028373]",100.0,"[0.02,0.02]",272.7242,0.0,32.0,32.0,25.0,1.0,,,,,,,
,,,,,,,6833610f9644c791ebdf6fd8,6842baffea32a0a5183add65,2025-06-06_05h57.29.610,shape_ratio,2024.1.5,Win32,60.24096386,6842b561977af9ba9b0f87ca,,,,,,,,,,,272.7252,273.2234,,,273.4758,274.3239,left,,,,,,,,0.1,0.8241,,,,,,,273.2235,273.4757,274.3241,"[0.09048891609079374,0.09316613071353094]",4.0,"[-0.13388083431933873,0.05429526119959822]",4.0,"[0.09244175365849273,0.15426789432946328]",4.0,"[-0.10510653447503243,0.09128337560357366]",4.0,"[0.12343982785975459,-0.1215881169352046]",4.0,"[-0.07573249600711626,0.1206195386735699]",4.0,"[0.1718462314817517,-0.03367971467792348]",4.0,"[-0.08616003498742918,-0.11075907894764629]",4.0,"[0.06039603381255154,-0.014229463149104364]",4.0,"[-0.1303573187251416,-0.1275289007344074]",4.0,"[0.1488269724749949,0.01693985042838607]",4.0,"[-0.041918559587688344,-0.10178422481332616]",4.0,"[0.02110006451807704,-0.06427929191359834]",4.0,"[-0.012347866027144149,-0.027194380909817125]",4.0,"[-0.11263509668271093,-0.018087554012160948]",4.0,"[0.14650342012523715,0.09619028102907337]",4.0,"[-0.1546682772181588,-0.0599232904998199]",4.0,"[0.02139724035056241,-0.1268942158787614]",100.0,"[0.08517577906641242,-0.1441645223599849]",4.0,"[0.11332425493219213,-0.014579999804949798]",4.0,"[-0.0007208521014237199,0.19011955322602844]",4.0,"[-0.11173445893382071,-0.06975941546065294]",100.0,"[0.03877576860046741,0.17388227438273554]",4.0,"[0.016874085858765576,0.05291043769348241]",4.0,"[-0.017909770924654626,0.0828564996468198]",4.0,"[0.05396288018605195,-0.08898055617084011]",4.0,"[0.16470816704733873,-0.09683110227828529]",100.0,"[-0.1765876137129541,0.06439309048783126]",4.0,"[0.04504264277250503,0.10659615898726515]",4.0,"[-0.18314634797667978,0.024573866838856488]",4.0,"[-0.06288966542681394,0.15954454954778607]",4.0,"[-0.0008791226309008518,0.12986109255749506]",4.0,"[0.02,0.02]",275.4227,0.0,33.0,33.0,180.0,1.0,,,,,,,
,,,,,,,6833610f9644c791ebdf6fd8,6842baffea32a0a5183add65,2025-06-06_05h57.29.610,shape_ratio,2024.1.5,Win32,60.24096386,6842b561977af9ba9b0f87ca,,,,,,,,,,,275.4238,275.9222,,,276.1706,276.5376,right,,,,,,,,0.6,0.3568,,,,,,,275.9223,276.1705,276.5376,"[-0.0034200180532789966,-0.02838828934385758]",100.0,"[0.03783608274861489,0.03057809462515657]",100.0,"[0.076743545414336,0.0753947882130143]",100.0,"[-0.18007194026854545,-0.015449707137012346]",100.0,"[-0.10441801628151047,-0.15550813051242812]",4.0,"[-0.1395425599031079,0.029251100944353802]",4.0,"[0.07132990287344153,-0.10877735466541165]",100.0,"[0.006553076756195104,0.07693127488478374]",100.0,"[-0.05358599794558211,0.1766758898137414]",4.0,"[0.14814874512573145,-0.1033691221186631]",100.0,"[0.035872705568080816,-0.08453924259495663]",4.0,"[0.07430686935542458,-0.174307723234664]",100.0,"[0.00909957501711863,0.1303965062102795]",100.0,"[-0.1335375853442862,-0.034982793566117554]",100.0,"[-0.16440682291256398,-0.07160080885867819]",100.0,"[0.15620942585636946,-0.061437831345519146]",100.0,"[0.10583894623770532,0.11523513512889338]",100.0,"[-0.042462497852670304,0.1115861301660101]",100.0,"[-0.11021165579759679,0.13041713647239142]",4.0,"[-0.0354344608521116,-0.15643507359208209]",100.0,"[-0.09091355138296779,0.08411242059675357]",100.0,"[-0.06425690510234047,0.011687885949865081]",4.0,"[-0.05851237529062695,-0.07183979029604567]",4.0,"[-0.15324020496737187,0.10704217671441826]",4.0,"[-0.029401990829552253,-0.11190176114263789]",4.0,"[0.18073356680049174,0.022725286438129353]",4.0,"[-0.08696957245338696,-0.11896576356007298]",4.0,"[0.029380348628825336,-0.17719792435674403]",100.0,"[0.10591705025718387,-0.012815429203101629]",100.0,"[0.1718847953859579,0.07302758652991828]",4.0,"[0.11104642309322514,0.043776678912861904]",100.0,"[-0.016279604343248134,0.015282799504585194]",4.0,"[0.02,0.02]",277.6374,0.0,34.0,34.0,56.0,1.0,,,,,,,
,,,,,,,6833610f9644c791ebdf6fd8,6842baffea32a0a5183add65,2025-06-06_05h57.29.610,shape_ratio,2024.1.5,Win32,60.24096386,6842b561977af9ba9b0f87ca,,,,,,,,,,,277.6383,278.1364,,,278.3863,278.7017,right,,,,,,,,0.6,0.3051,,,,,,,278.1365,278.3862,278.7018,"[0.01672480863223744,-0.028914426781450286]",100.0,"[-0.1480359064843955,0.03938546514904718]",4.0,"[0.16428589617050396,-0.03906471875368832]",100.0,"[-0.1623053891055515,0.10035373321805369]",4.0,"[-0.09104854762264591,0.09084359144433388]",100.0,"[-0.024530595905334757,0.0019167578291546148]",4.0,"[-0.060142600305086134,-0.17138496580961385]",4.0,"[-0.1685764702537489,-0.04875734942884571]",4.0,"[-0.13236704394375173,-0.11766741958205947]",4.0,"[-0.01571151586188616,-0.1774683048604919]",4.0,"[0.12066501479018579,0.008325031538070935]",4.0,"[0.04535515780244509,-0.11809984578804161]",100.0,"[0.0019190566895370526,0.13844275206473283]",100.0,"[-0.07059247866177489,0.14850154856059955]",4.0,"[0.10616481151074009,-0.14572068247723927]",100.0,"[0.07919978779774002,0.011602147728315929]",4.0,"[0.12688611050713494,0.08320510838075698]",100.0,"[0.050762653209745066,0.12820147448721028]",100.0,"[0.1982656838384919,0.011847417969350698]",100.0,"[0.1314244388529902,-0.07724223970747099]",4.0,"[-0.04268164029312236,0.0943600730003441]",4.0,"[-0.13441111242895262,-0.010249664688185289]",100.0,"[0.08510903911119302,-0.06806467193054873]",100.0,"[0.1693515435564688,0.07815218655635298]",100.0,"[0.07764399642283358,-0.18264942172095638]",100.0,"[-0.03138022198540064,0.046313563745739875]",100.0,"[-0.06987006592386305,-0.1070746341843613]",100.0,"[-0.095080622882996,-0.06654199400857266]",100.0,"[0.14235553255301087,0.045685804957653245]",100.0,"[-0.07189688712767316,0.029271695181159105]",100.0,"[-0.03692703666093398,0.18108242979628378]",100.0,"[0.08372798284712869,0.05478428579563966]",4.0,"[0.02,0.02]",279.8005,0.0,35.0,35.0,37.0,1.0,,,,,,,
,,,,,,,6833610f9644c791ebdf6fd8,6842baffea32a0a5183add65,2025-06-06_05h57.29.610,shape_ratio,2024.1.5,Win32,60.24096386,6842b561977af9ba9b0f87ca,,,,,,,,,,,279.8015,280.3,,,280.55,281.316,left,,,,,,,,0.5,0.7502,,,,,,,280.3001,280.5499,281.3161,"[0.0681636486546945,0.03080933167361384]",100.0,"[0.13293521508619913,0.1240183201202925]",4.0,"[-0.049705130778089905,-0.05665988074773388]",4.0,"[-0.13713343315006657,-0.04436957756164053]",4.0,"[-0.1985092701562872,0.00024309311532907637]",100.0,"[-0.10276321308165103,-0.023407060703818195]",100.0,"[-0.0647537076932524,0.06617744762630387]",4.0,"[-0.004945199305072366,0.18102380696446022]",4.0,"[-0.04497707273774612,0.17357909753167985]",100.0,"[-0.1533695219744224,-0.10471734393680915]",4.0,"[-0.02088716865826181,-0.1896996024305655]",100.0,"[0.05097501824250885,0.1727298504539831]",4.0,"[0.09291118865478694,0.1440643323507355]",100.0,"[-0.013761240505953374,0.06726231189607366]",4.0,"[-0.07380434244402716,-0.1611442193506864]",4.0,"[0.11754091090238449,-0.08280191746379266]",100.0,"[0.18547313912559688,0.05431579489746782]",4.0,"[0.15421246287862525,-0.004454168900938209]",4.0,"[0.14200442267406307,-0.13078276433718727]",100.0,"[-0.1412303630537866,0.060716986462204546]",100.0,"[-0.09184764066744397,0.10829258915838463]",100.0,"[0.027921225588423512,-0.1597466861668637]",100.0,"[-0.019390635346079235,-0.13338466052676312]",100.0,"[0.08056466184903736,0.09436542036246874]",100.0,"[0.012735199835986493,0.14115320117147082]",100.0,"[0.04654309087113852,-0.06950321688872615]",4.0,"[0.06654666761201924,-0.13508531013099404]",100.0,"[-0.0965728137804109,-0.08628341514515148]",4.0,"[-0.03621619865197388,0.10961446891973908]",4.0,"[0.11365890872931689,0.03304856677528222]",4.0,"[-0.18844407835051072,0.03944196549057126]",4.0,"[-0.10737543410071078,0.16391591268496333]",100.0,"[0.02,0.02]",282.4144,0.0,36.0,36.0,94.0,1.0,,,,,,,
,,,,,,,6833610f9644c791ebdf6fd8,6842baffea32a0a5183add65,2025-06-06_05h57.29.610,shape_ratio,2024.1.5,Win32,60.24096386,6842b561977af9ba9b0f87ca,,,,,,,,,,,282.4152,282.9138,,,283.1661,283.4808,right,,,,,,,,0.6,0.2993,,,,,,,282.9139,283.1658,283.4811,"[-0.1491089966291855,-0.12301186537120123]",100.0,"[-0.16132035676709347,-0.042061193817136036]",4.0,"[0.14387098776840673,0.042464799899623165]",100.0,"[0.12578884415428293,-0.009533456237310825]",4.0,"[0.1883759876745848,0.04529271242878611]",100.0,"[0.058659285351579486,-0.02798529673435934]",100.0,"[0.0410443814097911,-0.1759189758843658]",4.0,"[0.12782574872731292,0.13624164478862402]",100.0,"[-0.0018084251323839404,-0.02581037636682955]",4.0,"[-0.021005347444068945,-0.13121995624178717]",4.0,"[-0.01018927262807344,0.11469539045542668]",4.0,"[-0.06007179178649652,0.11282842812250445]",100.0,"[0.07819434465388493,0.15721366799265277]",100.0,"[0.0767793695073652,-0.09702696225222233]",100.0,"[0.017923022121643813,0.06254849755117238]",4.0,"[-0.12153435603650695,-0.05705683276010271]",4.0,"[-0.10737889113186913,-0.10562714218960174]",100.0,"[-0.11237048460831144,0.0634998045365066]",100.0,"[0.1260204838383292,-0.1411032019189384]",100.0,"[0.12231820097242842,-0.06875882523415944]",4.0,"[-0.007489533004110197,-0.19524622089651458]",100.0,"[-0.06158332859391572,0.0346237524497112]",100.0,"[0.029877214023199098,-0.11278889551859268]",100.0,"[0.07207976946801506,0.06493382274260162]",4.0,"[-0.006131347541577489,0.16095722586445685]",100.0,"[0.03064256407928606,0.10784989131101703]",100.0,"[-0.040946392568088186,-0.061208398257924214]",4.0,"[0.17589180695085738,-0.03387646194809718]",100.0,"[0.16565912831282256,-0.07471184038920156]",100.0,"[-0.019604726029886405,0.01374061934317616]",4.0,"[-0.08996645910128959,0.16232145282831947]",100.0,"[-0.05363179481812198,0.18401697878347395]",4.0,"[0.02,0.02]",284.5793,0.0,37.0,37.0,32.0,1.0,,,,,,,
,,,,,,,6833610f9644c791ebdf6fd8,6842baffea32a0a5183add65,2025-06-06_05h57.29.610,shape_ratio,2024.1.5,Win32,60.24096386,6842b561977af9ba9b0f87ca,,,,,,,,,,,284.5805,285.079,,,285.3315,285.6457,right,,,,,,,,0.9,0.2878,,,,,,,285.0791,285.3314,285.6457,"[0.05231917014935706,0.07886625046682541]",100.0,"[-0.01763234371100066,-0.1332035013487568]",100.0,"[-0.11144854145350444,-0.0206151616291956]",100.0,"[-0.18861612694733199,0.03339681008269682]",4.0,"[-0.16762882297697024,0.0900684894577031]",100.0,"[-0.06397424956491046,0.07385948611130623]",100.0,"[0.023739064912515415,-0.03099104113500671]",100.0,"[-0.0792568080259907,0.007393956963586851]",100.0,"[0.049773097051533696,-0.09446584947144485]",100.0,"[0.00019943191446693983,0.02270022152724717]",100.0,"[0.008749877752240964,0.09950781593750428]",100.0,"[0.08990910483103375,0.029069064961310176]",100.0,"[-0.06657198417024499,0.14386434008276935]",100.0,"[0.09807421972482853,-0.05001692777133581]",100.0,"[-0.177192985529525,-0.07490288180667119]",100.0,"[0.13928053182725617,0.10486511699659493]",100.0,"[0.050138413210490645,0.15012993666287333]",100.0,"[0.17231083340009792,0.05153282811668906]",100.0,"[0.16289906921402542,-0.02878851650620239]",100.0,"[-0.034083282569991345,-0.08129183604558658]",100.0,"[0.1395363140352729,0.006010011780504347]",100.0,"[0.016857271633555267,0.17465381359360524]",100.0,"[-0.13324669758399427,-0.13858707571443002]",4.0,"[-0.030647895418277313,-0.01488396291424361]",100.0,"[-0.11690848672700947,-0.09294137148037601]",100.0,"[-0.1451618631079277,0.029134248959752952]",100.0,"[0.03853218066962441,-0.1944654876006174]",4.0,"[-0.12818956276046678,0.10551842778348168]",100.0,"[-0.1841909737205137,-0.02281939203730587]",100.0,"[-0.09262274746222153,-0.16137167762554155]",100.0,"[0.06577381912446617,-0.006649517328441987]",100.0,"[-0.11365525299165967,0.14862734254549653]",100.0,"[0.02,0.02]",286.7443,0.0,38.0,38.0,22.0,1.0,,,,,,,
,,,,,,,6833610f9644c791ebdf6fd8,6842baffea32a0a5183add65,2025-06-06_05h57.29.610,shape_ratio,2024.1.5,Win32,60.24096386,6842b561977af9ba9b0f87ca,,,,,,,,,,,286.7452,287.2441,,,287.4944,287.8271,right,,,,,,,,0.6,0.3177,,,,,,,287.2443,287.4942,287.8272,"[-0.021750128986755733,-0.009649112988012921]",100.0,"[0.08180074242709007,-0.043429834542108345]",100.0,"[-0.058354918813099996,0.06820886978115764]",4.0,"[0.02380381375527481,-0.10001025204264045]",100.0,"[0.16396049028846763,-0.1024597160110445]",4.0,"[-0.1764997371724497,-0.04382986965526207]",100.0,"[-0.06374796663098652,0.12235862101174326]",4.0,"[0.06351809349452076,0.06052574075639769]",100.0,"[0.009115041192979841,-0.1781889800436935]",100.0,"[-0.11388626269880864,0.14519971924557756]",100.0,"[0.038488463212588184,-0.040590447819731174]",100.0,"[0.10892281103735034,0.10751342753381836]",100.0,"[0.15980848230963898,0.05596333515123938]",4.0,"[-0.12760160294809608,-0.0522669633548098]",4.0,"[0.012763799858620186,0.1856839497715159]",100.0,"[0.10426380727250183,0.16184937311563186]",4.0,"[0.031688997739306723,0.00914858533679315]",4.0,"[-0.11383214241943794,0.034228398356871984]",100.0,"[-0.043574472961778285,-0.1250356974576395]",4.0,"[-0.0722393328371928,0.010081714954126053]",100.0,"[0.06681069974151052,-0.18385517938968546]",100.0,"[-0.06500407600076635,-0.16230211766033664]",100.0,"[0.05419633778437996,0.12463263784090421]",4.0,"[-0.13895877447916383,-0.0974112313442463]",100.0,"[0.16920551050963512,0.011256597494912408]",100.0,"[-0.07142154748894487,-0.07801338553885592]",100.0,"[0.13389807133811463,-0.012349773014051435]",4.0,"[-0.07580809791074146,0.166366096046945]",100.0,"[0.027548718154510335,0.08029237771141723]",100.0,"[-0.00048315819374994217,0.13970821302214695]",4.0,"[-0.15609173542744015,0.08545689720590613]",4.0,"[-0.15838140610429222,0.003954202839798513]",4.0,"[0.02,0.02]",288.9251,0.0,39.0,39.0,55.0,1.0,,,,,,,
,,,,,,,6833610f9644c791ebdf6fd8,6842baffea32a0a5183add65,2025-06-06_05h57.29.610,shape_ratio,2024.1.5,Win32,60.24096386,6842b561977af9ba9b0f87ca,,,,,,,,,,,288.9259,289.4245,,,289.6748,289.8407,right,,,,,,,,0.1,0.1532,,,,,,,289.4247,289.6748,289.8408,"[-0.007945381522660574,-0.11179073832885957]",4.0,"[-0.04825022109649984,-0.00014355620121042295]",4.0,"[-0.04528751051427116,-0.15618970102106944]",4.0,"[-0.002098322816714359,0.15476291475771198]",4.0,"[-0.1348793938729412,-0.09379407840659375]",4.0,"[-0.1343718135707497,-0.1455002816058551]",4.0,"[0.1686784186475818,-0.03552988086376365]",4.0,"[-0.1058707621007589,-0.050961614810722825]",4.0,"[-0.006417032685015183,0.06984815464368951]",100.0,"[0.15737951993559893,0.11500465198887395]",4.0,"[0.08568427822042068,0.061140984615153514]",4.0,"[0.10564503021339008,0.1573317070496837]",4.0,"[0.14052546048882966,-0.12206828597696118]",4.0,"[-0.021330946205308544,-0.03388319002370063]",4.0,"[0.0561725125774528,-0.0825982781773343]",4.0,"[0.14217170186603265,0.015219736562361055]",100.0,"[0.056485593867668084,-0.010748964687083508]",4.0,"[-0.12248889732834467,0.017741937755460707]",4.0,"[-0.09219629094227405,0.1094536782238553]",4.0,"[0.034666783810564435,0.13344570323011665]",4.0,"[-0.1664447365651375,0.03330863864034349]",4.0,"[-0.0576556923813079,0.04742485967355413]",4.0,"[0.10437506745138955,-0.002586682568183293]",100.0,"[-0.09211865931140906,0.16035284759819213]",4.0,"[0.06863988644813185,0.17624736367593424]",4.0,"[0.08626935676006822,-0.11791618248898626]",4.0,"[0.03178820701092298,0.027399472882053737]",4.0,"[-0.15375510220712546,0.07946862871545163]",4.0,"[-0.006539258910821005,-0.19585418127288287]",4.0,"[-0.03942709079931538,0.19393733822308779]",4.0,"[0.10994679032557574,-0.07932276747540969]",4.0,"[0.08442335141904153,-0.16570051642761127]",4.0,"[0.02,0.02]",290.9387,0.0,40.0,40.0,195.0,1.0,,,,,,,
,,,,,,,6833610f9644c791ebdf6fd8,6842baffea32a0a5183add65,2025-06-06_05h57.29.610,shape_ratio,2024.1.5,Win32,60.24096386,6842b561977af9ba9b0f87ca,,,,,,,,,,,290.9392,291.439,,,291.6894,291.9219,right,,,,,,,,0.6,0.2232,,,,,,,291.4391,291.6892,291.9221,"[-0.10719240029081993,-0.018741269823703388]",4.0,"[0.0634833266049468,-0.007103356845478694]",100.0,"[-0.12288357234266829,0.11833485260933045]",100.0,"[-0.14607301165444575,-0.029674567920737218]",100.0,"[0.07533092392594798,-0.1104409190029162]",100.0,"[-0.1712986878507797,0.05586240148524241]",100.0,"[-0.03657242497539767,-0.17446425752570835]",100.0,"[0.16303462087865814,0.06700462099296879]",4.0,"[0.15723271931802152,-0.044189085210549255]",100.0,"[-0.05533908774327853,0.11408185627662787]",4.0,"[0.10397796710448223,0.06329367441059577]",100.0,"[-0.06107309422018142,-0.1164064532057531]",4.0,"[0.017791589230612515,0.1308152039497071]",100.0,"[0.0687558889800285,-0.048360832866203025]",4.0,"[-0.001898566228262185,-0.051688525093803984]",4.0,"[-0.09238772844821089,-0.1678382688504393]",100.0,"[0.04990614417426527,0.04819157298808853]",100.0,"[0.12278111242493617,-0.15247778127442893]",4.0,"[0.044880992575571536,0.17682830144976755]",4.0,"[-0.19406530186639354,0.014423456323904819]",4.0,"[0.006015718885580367,-0.1676495432872787]",100.0,"[-0.07539071510634779,-0.05642775758570902]",100.0,"[0.06403759671367393,-0.17378796007794337]",4.0,"[-0.12547583182446073,-0.09082980918649261]",4.0,"[0.06498339639942087,0.10832141311553585]",100.0,"[0.1117038740285514,-0.03763739051679678]",100.0,"[0.18850719112751907,0.0033359372745450535]",4.0,"[0.12164024005056362,0.12346742100137216]",100.0,"[-0.03813476719952303,0.03617421303685852]",100.0,"[0.030164276738751078,-0.09817965558189186]",100.0,"[-0.08920886618013232,0.030866497337191105]",4.0,"[-0.009729407616429117,-0.11182595239808592]",100.0,"[0.02,0.02]",293.0205,0.0,41.0,41.0,57.0,1.0,,,,,,,
,,,,,,,6833610f9644c791ebdf6fd8,6842baffea32a0a5183add65,2025-06-06_05h57.29.610,shape_ratio,2024.1.5,Win32,60.24096386,6842b561977af9ba9b0f87ca,,,,,,,,,,,293.0215,293.5204,,,293.7709,294.119,right,,,,,,,,0.45,0.333,,,,,,,293.5205,293.7708,294.119,"[-0.030301442290024367,0.12417417606059915]",4.0,"[0.06485368521616547,-0.028970576358808647]",4.0,"[-0.15776272456374893,0.08551510259073467]",4.0,"[0.0448871030129198,0.038015924303819414]",4.0,"[0.14839069087757428,0.060442691749609284]",100.0,"[0.11872765706122082,0.13063251315758706]",100.0,"[0.14833976431131446,-0.02398374713671732]",4.0,"[0.0018687852344508376,0.09013047526494337]",4.0,"[-0.14793145525056356,-0.04348450106461877]",100.0,"[-0.09960141095809828,-0.09945386875444957]",4.0,"[-0.030057752180747962,-0.13957434829979778]",4.0,"[0.016364421360633135,0.16467641240605171]",100.0,"[-0.05734973788669953,-0.0035123111319002]",4.0,"[-0.05677443779686928,0.06202851827190151]",100.0,"[0.013970449278989275,-0.1403759736666406]",100.0,"[-0.19598403108952164,0.028137497752022803]",4.0,"[0.08549740584824166,0.04756126207439049]",4.0,"[-0.08657817190353607,0.11036652128141745]",100.0,"[0.1279562097484599,-0.12037789594567523]",100.0,"[-0.11890654577791611,-0.15720954183454203]",4.0,"[0.07100458725115191,0.11948886128144474]",100.0,"[-0.00013435606582559497,-0.06842880296597648]",100.0,"[0.006612903253792515,0.050186398709782115]",4.0,"[0.10281094373335023,-0.0777677946485251]",4.0,"[-0.061195354171228136,-0.05411580532594965]",4.0,"[-0.09975956372972714,-0.02292015889761644]",100.0,"[-0.05723540818760822,-0.1004774899033807]",100.0,"[-0.15607730914142873,0.03843153744836497]",4.0,"[0.1966667018332521,0.022478538169272352]",100.0,"[0.06243351191441336,-0.18710719196804973]",100.0,"[0.055190744997826974,-0.09622321645195188]",4.0,"[0.1897801433625788,-0.03750987646533072]",4.0,"[0.02,0.02]",295.2187,0.0,42.0,42.0,139.0,1.0,,,,,,,
,,,,,,,6833610f9644c791ebdf6fd8,6842baffea32a0a5183add65,2025-06-06_05h57.29.610,shape_ratio,2024.1.5,Win32,60.24096386,6842b561977af9ba9b0f87ca,,,,,,,,,,,295.2197,295.7184,,,295.9693,296.3178,right,,,,,,,,0.4,0.3327,,,,,,,295.7185,295.9692,296.3179,"[0.10842238774974806,-0.14624481634162928]",100.0,"[0.0917228249871336,-0.03563062530935776]",4.0,"[-0.15947903667413893,-0.06329001520568082]",4.0,"[-0.025296409148401606,-0.19292628332341658]",4.0,"[-0.14006545906184284,-0.1357782991134306]",4.0,"[-0.1091688544603709,-0.03256890829820069]",4.0,"[0.032016794956105495,-0.06727336061941208]",4.0,"[0.039411976855820596,0.08495345428509032]",4.0,"[0.010176764334589196,0.16829497360429682]",100.0,"[0.14114120447797213,0.08002527752061328]",4.0,"[-0.18529397037233755,0.06066186400100703]",4.0,"[-0.07253639728206335,-0.12080859656435412]",100.0,"[0.037214477502454116,-0.005847321781412367]",100.0,"[0.017322201613922873,0.03319451477998078]",4.0,"[0.11075146736270572,0.1395992061237638]",100.0,"[0.17635623611422743,-0.06434222050877139]",4.0,"[-0.09192795937660801,0.1322207948582251]",100.0,"[0.08018010850436631,0.060716088628795]",100.0,"[-0.059160732079849294,-0.010743460528448321]",100.0,"[-0.03887541671439517,-0.14484950227561086]",4.0,"[-0.16112778823365678,-0.009110643674456265]",4.0,"[-0.000123891264702489,0.11844688779931205]",100.0,"[-0.05300406839681865,0.060965170591681425]",100.0,"[-0.01957272349658988,-0.03683378260711345]",4.0,"[0.18431196606448147,0.033452271211705104]",4.0,"[-0.04449704838915695,0.12527416972021851]",100.0,"[-0.07502660979360913,-0.0687584013472319]",4.0,"[0.1562609958721277,-0.007034505368403009]",4.0,"[-0.04873334328352093,0.19334035691586324]",4.0,"[0.11872893209670882,-0.06809044605151779]",4.0,"[0.07410406401252216,-0.11390651126411984]",100.0,"[-0.11616831755869374,0.0901318735453002]",100.0,"[0.02,0.02]",297.4164,0.0,43.0,43.0,176.0,1.0,,,,,,,
,,,,,,,6833610f9644c791ebdf6fd8,6842baffea32a0a5183add65,2025-06-06_05h57.29.610,shape_ratio,2024.1.5,Win32,60.24096386,6842b561977af9ba9b0f87ca,,,,,,,,,,,297.4172,297.9159,,,298.1699,298.3996,right,,,,,,,,0.5,0.2066,,,,,,,297.916,298.1699,298.3997,"[-0.12981146264474663,-0.0650572720450937]",4.0,"[-0.15806897018132812,-0.10284608200061687]",100.0,"[-0.08222734973841003,-0.09563970013563387]",4.0,"[0.16440237839127425,-0.001590036758473101]",100.0,"[0.03604646624908443,0.13204871381870142]",100.0,"[0.07016671927473396,-0.09306386671000616]",100.0,"[-0.013032876695114777,-0.1452631328574789]",4.0,"[-0.012302701934985113,0.07985119619481681]",4.0,"[0.10101398956856432,0.1036699285903981]",4.0,"[-0.04409398953670861,-0.008476002325754189]",100.0,"[-0.08723052834944349,-0.14346477026850293]",4.0,"[0.040474438819883635,0.034577468700192404]",100.0,"[0.002197878976167017,-0.19565927411602577]",4.0,"[-0.03487288385500604,0.16957233976894126]",100.0,"[0.13345253988817174,0.04698482368788058]",100.0,"[0.04753456118051052,-0.12682784234258843]",4.0,"[0.18258179836089947,-0.04909224209625251]",4.0,"[0.030071216836001148,-0.040862994282909564]",4.0,"[-0.18359926970970783,0.01868389088600707]",100.0,"[-0.03811301104276746,0.04158993662284803]",4.0,"[-0.12925660469381667,-0.007285164646198282]",100.0,"[0.1770862664842701,-0.08928192503613093]",4.0,"[-0.021087485514305566,-0.06996307501910322]",100.0,"[0.0869694568476577,0.06519756898172266]",4.0,"[-0.16337071560177446,0.1135368449076214]",100.0,"[0.08489015774775935,0.1722843593318594]",100.0,"[-0.08341732093090495,0.1810153448845328]",100.0,"[-0.09238417830632575,0.1197918271359156]",4.0,"[-0.19152318702467153,-0.03945303307159071]",4.0,"[-0.18064155850492203,0.07167913055863094]",100.0,"[-0.05867502617930925,-0.17876962441493566]",4.0,"[-0.10960774987927652,0.05659709101157784]",100.0,"[0.02,0.02]",299.4988,0.0,44.0,44.0,110.0,1.0,,,,,,,
,,,,,,,6833610f9644c791ebdf6fd8,6842baffea32a0a5183add65,2025-06-06_05h57.29.610,shape_ratio,2024.1.5,Win32,60.24096386,6842b561977af9ba9b0f87ca,,,,,,,,,,,299.4999,299.9973,,,300.2496,300.3979,right,,,,,,,,0.1,0.122,,,,,,,299.9974,300.2495,300.3981,"[-0.13888593733574783,-0.09234960365095254]",4.0,"[-0.003166132947473276,-0.04692613495214948]",100.0,"[-0.1152780873146457,-0.029391673996189176]",4.0,"[0.1549767456451349,-0.011750100820802542]",4.0,"[-0.022575689241491958,0.019052053062505424]",4.0,"[-0.1527982856311574,0.04235032539875422]",4.0,"[0.1383872769495825,-0.07806725791069644]",4.0,"[0.045905958370415806,-0.09936733927701867]",4.0,"[-0.1663474734112753,0.09111828212474879]",4.0,"[-0.05955696409642144,-0.04111347671527576]",4.0,"[-0.08550683204790117,0.14484035929078923]",4.0,"[-0.003950006655028933,0.12940369687136705]",4.0,"[0.029367745662028363,0.05156455812919005]",4.0,"[-0.09440140460371943,-0.16667305173452845]",4.0,"[0.0072913616887392224,-0.19752503446782096]",4.0,"[-0.0888652975501415,-0.08877551550988788]",4.0,"[-0.09969051544185734,0.020658897576610217]",4.0,"[0.055369680434285216,0.16488215010559804]",4.0,"[0.05235150335720116,0.0009408813855038383]",4.0,"[0.19545119029744837,-0.021338202485984708]",4.0,"[-0.12294727522986384,0.08164943329103276]",4.0,"[0.0023382460477376576,-0.11130863651724678]",4.0,"[-0.05614608123609242,0.08362185784555176]",4.0,"[0.08306695804177194,0.13015316491360254]",4.0,"[0.11090347195060686,0.00702076395625326]",100.0,"[0.10959864337333358,-0.16496540197905354]",4.0,"[-0.16713692254850557,-0.004209664977389993]",4.0,"[0.090321971450472,-0.11752723525305273]",4.0,"[0.13491278592318154,0.11879291417086424]",4.0,"[0.15986088772661078,0.08299073025779498]",4.0,"[0.11144584376122811,0.06212841681083726]",100.0,"[-0.1561936668330031,-0.045194105593367825]",4.0,"[0.02,0.02]",301.4965,0.0,45.0,45.0,201.0,1.0,,,,,,,
,,,,,,,6833610f9644c791ebdf6fd8,6842baffea32a0a5183add65,2025-06-06_05h57.29.610,shape_ratio,2024.1.5,Win32,60.24096386,6842b561977af9ba9b0f87ca,,,,,,,,,,,301.4976,301.996,,,302.2461,302.6615,left,,,,,,,,0.9,0.3981,,,,,,,301.9962,302.246,302.6616,"[0.01929631906066049,-0.09767310541385925]",100.0,"[-0.09748274323385059,0.15188000146734246]",4.0,"[-0.020282607545816712,0.14111786844509852]",100.0,"[0.11805427387601408,0.09726937759056406]",100.0,"[-0.1687030099023763,0.08671426519241615]",100.0,"[0.1608437191495682,-0.04351069751728449]",100.0,"[-0.12497450948288265,-0.056642752310044286]",100.0,"[-0.02121365867280311,0.07710864982317638]",100.0,"[0.13290120404301756,0.14585583511852565]",100.0,"[-0.14332448563627667,-0.019580623775329542]",100.0,"[-0.06340067980832216,-0.03304226467855989]",4.0,"[0.058739860126308795,-0.059473952867143874]",100.0,"[0.1119174302046376,-0.05000746155944022]",100.0,"[-0.060056603780036834,-0.13833758827389078]",100.0,"[0.07536327290036346,0.14753183191641894]",100.0,"[-0.17153119964465405,-0.09191925549129258]",100.0,"[-0.11651680567382568,-0.09921776199987285]",100.0,"[-0.07348146626314749,-0.07506373116300626]",100.0,"[0.05684245197977875,-0.12469233443421722]",100.0,"[-0.0975732580144835,-0.17316620707001573]",100.0,"[0.11105016345401537,-0.14963290408932012]",100.0,"[0.1728378244696925,0.08400959722049227]",100.0,"[0.04111626929581242,0.01976014816201921]",100.0,"[-0.07673258889149386,0.10838646201254445]",100.0,"[-0.010328100676247643,-0.02997034607300533]",100.0,"[0.19800463906284702,-0.024967416020202946]",100.0,"[-0.1470065666815479,0.033404409190761555]",100.0,"[0.13868712685701134,0.05649037440125943]",4.0,"[-0.057745880131852514,0.047774185100823256]",100.0,"[-0.18479752362117607,-0.020637222610617824]",100.0,"[0.12290621727469528,0.006885886730811477]",100.0,"[-0.12892274525840497,0.06988693156982524]",100.0,"[0.02,0.02]",303.76,0.0,46.0,46.0,0.0,1.0,,,,,,,
,,,,,,,6833610f9644c791ebdf6fd8,6842baffea32a0a5183add65,2025-06-06_05h57.29.610,shape_ratio,2024.1.5,Win32,60.24096386,6842b561977af9ba9b0f87ca,,,,,,,,,,,303.7607,304.2595,,,304.5107,304.7941,right,,,,,,,,0.55,0.2746,,,,,,,304.2596,304.5106,304.7942,"[-0.06769685828944803,-0.1644759094669152]",100.0,"[-0.12042999191120878,0.032466719161755773]",100.0,"[0.025250015914391008,-0.054117349324565474]",4.0,"[-0.13719911304052937,0.0875730222745014]",100.0,"[0.0817779765397515,-0.085188731604647]",100.0,"[0.047774759771739894,0.1495149452100287]",100.0,"[0.12606158282715021,-0.12550833409688808]",100.0,"[0.012016507418489291,-0.13140504204422762]",4.0,"[-0.17198666283481653,-0.05906339105852996]",100.0,"[-0.0340189918518818,0.174311636804365]",4.0,"[-0.13407597992150594,0.13094497232597618]",4.0,"[0.16545330422140084,0.03132400553568799]",100.0,"[0.0433253465939268,0.05301679616995314]",4.0,"[-0.0235380532615496,-0.01917356194860708]",4.0,"[-0.1941817860723841,0.026492880995410206]",4.0,"[-0.044292752449790695,-0.12518633627817707]",4.0,"[-0.01662484760507847,0.02159324354447488]",100.0,"[0.01698487838546391,0.0837853113409267]",100.0,"[-0.08848330236250518,-0.0881853436272249]",100.0,"[0.09193660748139103,0.025119319146463835]",100.0,"[0.1356577228278435,-0.0028106678906494446]",4.0,"[0.04407478228722894,-0.16472528607742967]",4.0,"[-0.07637316759231948,0.10263707976416951]",100.0,"[-0.06498209094101286,0.029474021264208006]",100.0,"[0.17857944114162955,-0.06663687016705132]",4.0,"[0.10233552998348648,0.1683466808573088]",4.0,"[0.1628935587538905,-0.10766079755600604]",100.0,"[0.10069228542100062,-0.027435087979971046]",100.0,"[-0.11750075552890314,-0.14071868939623444]",4.0,"[0.056033929285561807,-0.12289766665531955]",100.0,"[0.05568720211544265,-0.023088317147721946]",100.0,"[0.17080215365723322,-0.026509756445805867]",4.0,"[0.02,0.02]",305.8917,0.0,47.0,47.0,87.0,1.0,,,,,,,
,,,,,,,6833610f9644c791ebdf6fd8,6842baffea32a0a5183add65,2025-06-06_05h57.29.610,shape_ratio,2024.1.5,Win32,60.24096386,6842b561977af9ba9b0f87ca,,,,,,,,,,,305.8927,306.3911,,,306.6423,306.9077,right,,,,,,,,0.5,0.2438,,,,,,,306.3912,306.6422,306.9078,"[0.05159096619863313,-0.15237418865170013]",100.0,"[0.08385313725454747,0.03876213162249292]",100.0,"[-0.10410269350596678,0.1524023732452685]",4.0,"[-0.11051752813242008,0.0028264150599180966]",100.0,"[-0.17104548948041443,-0.04503900276622312]",100.0,"[-0.035542526662242675,-0.003762692883788573]",4.0,"[-0.14852635083392596,0.10677298501608064]",4.0,"[0.09258931206204929,-0.04504978869467509]",4.0,"[0.01895978096165143,-0.12453451032783482]",4.0,"[0.05397910641558957,0.14769861089515332]",100.0,"[0.07684336963493324,0.1822017061567881]",100.0,"[0.1814633188329742,-0.04048295134160837]",100.0,"[0.13478663474746425,0.08999238946813629]",100.0,"[-0.05843619528299566,-0.15066048426026984]",4.0,"[-0.03237190820997768,-0.1904477271836589]",4.0,"[0.02204765972383948,0.02977970943489522]",100.0,"[-0.10752886888269447,-0.09553068981865707]",4.0,"[0.0008701463298932304,-0.054810344270745215]",100.0,"[-0.017839418410605594,0.18767278092382403]",4.0,"[0.18520312656968854,0.0642504610359657]",4.0,"[0.15070021787007684,-0.0681760117517114]",100.0,"[0.12529519408429496,0.034273795852404115]",4.0,"[-0.031188031814301197,0.08255814380629552]",4.0,"[-0.13899616522866345,-0.12374622990790854]",100.0,"[-0.0619338388106907,-0.07889948291296264]",100.0,"[-0.10615396380305303,0.09087770344409511]",100.0,"[-0.057748059060895744,0.030391397869695434]",4.0,"[0.10938351995491122,-0.10496659203988609]",4.0,"[-0.09295226846945626,-0.17293151928631487]",4.0,"[-0.11202815860507331,-0.045729232452547314]",100.0,"[0.05788239261633158,-0.08625429303036923]",100.0,"[0.1145905462024281,0.135012399200938]",4.0,"[0.02,0.02]",308.0067,0.0,48.0,48.0,95.0,1.0,,,,,,,
,,,,,,,6833610f9644c791ebdf6fd8,6842baffea32a0a5183add65,2025-06-06_05h57.29.610,shape_ratio,2024.1.5,Win32,60.24096386,6842b561977af9ba9b0f87ca,,,,,,,,,,,308.0079,308.5067,,,308.7555,309.0049,right,,,,,,,,0.5,0.2357,,,,,,,308.5068,308.7553,309.005,"[-0.17744625926728286,0.058613342746787984]",4.0,"[0.05787862658920042,-0.03240453890792253]",100.0,"[0.028044737163247874,0.05180566715847824]",100.0,"[0.032369479628535126,0.13996727732160438]",100.0,"[-0.03154254253384618,-0.019876509721818692]",4.0,"[-0.14380102784991,-0.038744649807166076]",100.0,"[0.09487961741865387,0.04671697224391218]",4.0,"[-0.09576715418202802,0.12900003511192432]",4.0,"[0.12766252274331075,0.10346919973732331]",100.0,"[0.11913949563054807,-0.012710044822983964]",4.0,"[0.060517660837635205,0.02016566936688042]",4.0,"[-0.08178733544835334,-0.07781101518410592]",4.0,"[0.03163489755878941,-0.13223591534086052]",4.0,"[-0.023728551797352768,0.13616953773536433]",4.0,"[0.12621011167557247,-0.07766198521279066]",4.0,"[-0.13317097166205275,0.05944523650560999]",100.0,"[-0.032622791519889976,-0.10007035881316206]",100.0,"[0.14855450557428507,0.03472423603532854]",100.0,"[-0.07816022416886859,0.010394181936871553]",100.0,"[-0.004741089003989781,0.07941698863688997]",100.0,"[0.17095560257570497,0.06872926601968934]",100.0,"[0.08697417592935039,-0.1542053408762814]",4.0,"[-0.04451058598220589,0.062089990103548]",4.0,"[0.012224858852220176,0.001592023650120257]",100.0,"[0.07473765035571822,0.08313597022554797]",4.0,"[-0.15294803883315103,-0.09987256831730466]",100.0,"[0.013255658284315715,-0.059215366098548425]",4.0,"[0.162906594482857,-0.09892351831047587]",4.0,"[-0.07537959310026404,0.18384333959602017]",4.0,"[-0.1560353817746778,0.0054469754864057566]",100.0,"[0.10661701752948728,0.14160482113843728]",100.0,"[-0.18366661164534806,-0.0671915995424228]",100.0,"[0.02,0.02]",310.1035,0.0,49.0,49.0,108.0,1.0,,,,,,,
