right,left,explain.started,explain.stopped,key_resp_3.keys,key_resp_3.rt,key_resp_3.duration,participant,session,date,expName,psychopyVersion,OS,frameRate,study_id,explain_2.started,explain_2.stopped,key_resp_4.keys,key_resp_4.rt,key_resp_4.duration,explain_3.started,explain_3.stopped,key_resp_5.keys,key_resp_5.rt,key_resp_5.duration,fixation.started,fixation.stopped,practice.started,practice.stopped,response.started,response.stopped,key_resp.keys,feedback.started,feedback.stopped,trials_2.thisRepN,trials_2.thisTrialN,trials_2.thisN,trials_2.thisIndex,trials_2.ran,dot_ratio,explain_4.started,explain_4.stopped,key_resp_6.keys,key_resp_6.rt,key_resp_6.duration,dotDisplay.started,dotDisplay.stopped,key_resp.rt,key_resp.duration,ITI.started,polygon_1.pos,polygon_1.edges,polygon_2.pos,polygon_2.edges,polygon_3.pos,polygon_3.edges,polygon_4.pos,polygon_4.edges,polygon_5.pos,polygon_5.edges,polygon_6.pos,polygon_6.edges,polygon_7.pos,polygon_7.edges,polygon_8.pos,polygon_8.edges,polygon_9.pos,polygon_9.edges,polygon_10.pos,polygon_10.edges,polygon_11.pos,polygon_11.edges,polygon_12.pos,polygon_12.edges,polygon_13.pos,polygon_13.edges,polygon_14.pos,polygon_14.edges,polygon_15.pos,polygon_15.edges,polygon_16.pos,polygon_16.edges,polygon_17.pos,polygon_17.edges,polygon_18.pos,polygon_18.edges,polygon_19.pos,polygon_19.edges,polygon_20.pos,polygon_20.edges,polygon_21.pos,polygon_21.edges,polygon_22.pos,polygon_22.edges,polygon_23.pos,polygon_23.edges,polygon_24.pos,polygon_24.edges,polygon_25.pos,polygon_25.edges,polygon_26.pos,polygon_26.edges,polygon_27.pos,polygon_27.edges,polygon_28.pos,polygon_28.edges,polygon_29.pos,polygon_29.edges,polygon_30.pos,polygon_30.edges,polygon_31.pos,polygon_31.edges,polygon_32.pos,polygon_32.edges,dot_size,ITI.stopped,trials.thisRepN,trials.thisTrialN,trials.thisN,trials.thisIndex,trials.ran,break_2.started,break_2.stopped,trials_3.thisRepN,trials_3.thisTrialN,trials_3.thisN,trials_3.thisIndex,trials_3.ran
subject chose diamond,subject chose dot,0.0019,57.118,space,42.0947,,68351f228b33e2f958c2de51,683aeef3660e9195595d3707,2025-05-31_08h01.08.964,shape_ratio,2024.1.5,Win32,60.24096386,683ae9196541af24d3a69e58,,,,,,,,,,,,,,,,,,,,,,,,,,,,,,,,,,,,,,,,,,,,,,,,,,,,,,,,,,,,,,,,,,,,,,,,,,,,,,,,,,,,,,,,,,,,,,,,,,,,,,,,,,,,,,,,,
,,,,,,,68351f228b33e2f958c2de51,683aeef3660e9195595d3707,2025-05-31_08h01.08.964,shape_ratio,2024.1.5,Win32,60.24096386,683ae9196541af24d3a69e58,57.1184,94.8907,space,7.7565,,,,,,,,,,,,,,,,,,,,,,,,,,,,,,,,,,,,,,,,,,,,,,,,,,,,,,,,,,,,,,,,,,,,,,,,,,,,,,,,,,,,,,,,,,,,,,,,,,,,,,,,,,,,,
,,,,,,,68351f228b33e2f958c2de51,683aeef3660e9195595d3707,2025-05-31_08h01.08.964,shape_ratio,2024.1.5,Win32,60.24096386,683ae9196541af24d3a69e58,,,,,,94.8911,99.6559,space,1.7379,,,,,,,,,,,,,,,,,,,,,,,,,,,,,,,,,,,,,,,,,,,,,,,,,,,,,,,,,,,,,,,,,,,,,,,,,,,,,,,,,,,,,,,,,,,,,,,,,,,,,,,,
,,,,,,,68351f228b33e2f958c2de51,683aeef3660e9195595d3707,2025-05-31_08h01.08.964,shape_ratio,2024.1.5,Win32,60.24096386,683ae9196541af24d3a69e58,,,,,,,,,,,99.6915,100.1739,100.1749,100.4078,100.408,101.9052,,101.9055,103.0049,0.0,0.0,0.0,1.0,1.0,0.8,,,,,,,,,,,,,,,,,,,,,,,,,,,,,,,,,,,,,,,,,,,,,,,,,,,,,,,,,,,,,,,,,,,,,,,,,,,,,,,,,,,,,,,,
,,,,,,,68351f228b33e2f958c2de51,683aeef3660e9195595d3707,2025-05-31_08h01.08.964,shape_ratio,2024.1.5,Win32,60.24096386,683ae9196541af24d3a69e58,,,,,,,,,,,103.0057,103.5044,103.5045,103.755,103.755,105.254,,105.2541,106.3538,0.0,1.0,1.0,0.0,1.0,0.2,,,,,,,,,,,,,,,,,,,,,,,,,,,,,,,,,,,,,,,,,,,,,,,,,,,,,,,,,,,,,,,,,,,,,,,,,,,,,,,,,,,,,,,,
,,,,,,,68351f228b33e2f958c2de51,683aeef3660e9195595d3707,2025-05-31_08h01.08.964,shape_ratio,2024.1.5,Win32,60.24096386,683ae9196541af24d3a69e58,,,,,,,,,,,,,,,,,,,,,,,,,,106.3543,122.4167,space,13.044,,,,,,,,,,,,,,,,,,,,,,,,,,,,,,,,,,,,,,,,,,,,,,,,,,,,,,,,,,,,,,,,,,,,,,,,,,,,,,,,,,,,
,,,,,,,68351f228b33e2f958c2de51,683aeef3660e9195595d3707,2025-05-31_08h01.08.964,shape_ratio,2024.1.5,Win32,60.24096386,683ae9196541af24d3a69e58,,,,,,,,,,,122.439,122.9326,,,123.1859,123.7493,right,,,,,,,,0.55,,,,,,122.933,123.1858,0.5401,,123.751,"[0.16286541219455486,-0.06340656331435687]",4.0,"[-0.050633134921235126,0.03495045440384952]",4.0,"[0.10591247003509158,0.08945309760811142]",100.0,"[0.16743381418985234,0.012847028814410074]",4.0,"[-0.1405269717595066,-0.12429069042640976]",100.0,"[-0.04011337211400797,-0.18368977888739815]",4.0,"[-0.02783785187076691,0.116635196523591]",100.0,"[-0.1768567408472708,-0.05395618049541622]",4.0,"[0.025621077402099856,0.1451194628983594]",100.0,"[0.05121005242439029,0.09703816331672237]",100.0,"[0.010062642451938383,-0.05775153050353391]",100.0,"[-0.1504786400799344,0.10468817293974461]",100.0,"[0.006767861004630673,-0.002814217075260189]",100.0,"[-0.05173077668903753,-0.06502818044288089]",100.0,"[-0.015577553017829239,0.16034448841198132]",4.0,"[0.11864604117654787,-0.15561274390900068]",100.0,"[0.0686557957728512,0.05212328169188502]",4.0,"[-0.09132720379025866,-0.0007249723149548973]",100.0,"[0.12203150004220281,0.1466208876995569]",100.0,"[0.08133645522818726,-0.020024777092584014]",100.0,"[0.09969694892505593,0.02483600284690763]",4.0,"[0.05818353381506061,-0.15876419858450522]",100.0,"[0.029593499754399646,-0.19275583099042953]",100.0,"[-0.0923464883988613,0.10591216532319885]",4.0,"[-0.12606968695512788,-0.05402807183336274]",4.0,"[-0.08664677716429091,-0.13117140292906507]",4.0,"[-0.004273864540167326,0.07764270970163777]",4.0,"[-0.16672746911533667,0.008433973469213391]",100.0,"[0.08136173580673084,-0.09271475242023232]",100.0,"[-0.01350872813053998,-0.11905317867180484]",4.0,"[0.1583206906735257,0.05214026807281233]",100.0,"[0.13256486434358786,-0.10987726275054084]",4.0,"[0.02,0.02]",124.8498,0.0,0.0,0.0,89.0,1.0,,,,,,,
,,,,,,,68351f228b33e2f958c2de51,683aeef3660e9195595d3707,2025-05-31_08h01.08.964,shape_ratio,2024.1.5,Win32,60.24096386,683ae9196541af24d3a69e58,,,,,,,,,,,124.8509,125.3496,,,125.6034,126.1342,left,,,,,,,,0.4,,,,,,125.3499,125.6033,0.5135,,126.1343,"[-0.07116466125088139,0.045728845510422014]",4.0,"[-0.011659922574000267,-0.06183579494701093]",4.0,"[-0.18204802733453812,-0.02415857188445507]",4.0,"[0.12843515532299474,0.1382905070401858]",4.0,"[0.1604051824870167,0.10045758144520721]",100.0,"[-0.10425348990042682,0.07698850164729196]",4.0,"[-0.07805614419235936,-0.1533360480427182]",100.0,"[-0.026376442139486065,-0.16454736554137633]",4.0,"[-0.06665778495165128,-0.06628726734804143]",4.0,"[0.06441868790045571,0.18114925092826484]",100.0,"[0.16037428752463703,0.014079608633786355]",4.0,"[0.12011773988941592,-0.017147522638958374]",4.0,"[-0.17684235322604186,-0.06496159567024208]",100.0,"[-0.012272655216958537,-0.12404942819903898]",4.0,"[0.010196774029354488,0.12173517583493083]",100.0,"[0.0569991727213828,0.1088569384509868]",100.0,"[0.09738227009248523,0.10289458980261341]",4.0,"[0.05804341118258352,-0.10325534746310583]",100.0,"[0.016291392482230216,-0.18597291518948822]",4.0,"[-0.041320332190325965,0.17671013653068324]",100.0,"[0.10463502839882143,-0.13619477083004133]",4.0,"[0.006712230844605486,0.06130911076988652]",100.0,"[-0.11622137249076055,-0.10019847864560515]",4.0,"[0.04480500179694695,-0.0016411824133953164]",4.0,"[0.07332255569578396,0.07065751411292576]",100.0,"[-0.13134141832901097,0.11239597024172182]",100.0,"[-0.06250093428533832,-0.10838324314464]",4.0,"[0.07379915209468448,0.025991103520963486]",100.0,"[0.09122449731029958,-0.05689610997787393]",4.0,"[-0.1379776591592783,-0.018543910905960054]",100.0,"[0.12530654147367418,0.05326126815442668]",4.0,"[-0.09285668480719365,-0.005476994137679906]",4.0,"[0.02,0.02]",127.2313,0.0,1.0,1.0,163.0,1.0,,,,,,,
,,,,,,,68351f228b33e2f958c2de51,683aeef3660e9195595d3707,2025-05-31_08h01.08.964,shape_ratio,2024.1.5,Win32,60.24096386,683ae9196541af24d3a69e58,,,,,,,,,,,127.2322,127.732,,,127.9835,129.4325,left,,,,,,,,0.5,,,,,,127.7322,127.9834,1.4215,,129.4328,"[0.02975108300936864,0.18175819040231678]",4.0,"[0.09784123099594504,0.12383263995534718]",100.0,"[-0.010379555005958238,-0.16906433988186495]",100.0,"[0.12518445297814193,-0.051932961812031955]",100.0,"[-0.005716405098260335,-0.09638189517378996]",4.0,"[0.06011671705412392,-0.0648292530906821]",4.0,"[0.011837451937900745,-0.004168176997152612]",100.0,"[-0.11547158101023101,0.11197239296683494]",100.0,"[-0.017621227793647106,0.11150454606653468]",100.0,"[-0.1751000542972417,-0.07580225952584879]",100.0,"[0.02695325248430481,-0.13535948125733677]",4.0,"[0.1211641627149691,-0.006957144803568884]",100.0,"[-0.05469414720868318,0.053827026390217574]",100.0,"[-0.0762121779852808,-0.1719916261262793]",100.0,"[-0.1610319666897496,0.08175070746430269]",4.0,"[-0.0737834245071393,-0.0701597040036689]",100.0,"[-0.18184609145366343,0.03954671597948293]",4.0,"[0.1239595531641531,0.07484877316957725]",100.0,"[0.16407915981079102,0.106053696670766]",4.0,"[0.18211900893364824,-0.06339925921694035]",4.0,"[-0.1259099868740304,-0.02400609159070581]",100.0,"[-0.03069881563324454,-0.0070972399443978845]",4.0,"[-0.07275898353722979,0.1278989672572935]",100.0,"[-0.15154613880605258,0.008293403239966043]",4.0,"[0.04364148111626021,0.06244381104318323]",4.0,"[0.09751548163959818,-0.08572906546713963]",100.0,"[0.1887107946212487,0.010364741135973845]",4.0,"[-0.07396153727707154,0.0041685304258474234]",4.0,"[0.09727897555522856,-0.12719072285616728]",4.0,"[0.06548742216869444,-0.17548750500340338]",4.0,"[0.0514507875312166,0.1362351239697417]",4.0,"[-0.09173646115699192,-0.1176785879914133]",100.0,"[0.02,0.02]",130.5304,0.0,2.0,2.0,113.0,1.0,,,,,,,
,,,,,,,68351f228b33e2f958c2de51,683aeef3660e9195595d3707,2025-05-31_08h01.08.964,shape_ratio,2024.1.5,Win32,60.24096386,683ae9196541af24d3a69e58,,,,,,,,,,,130.5315,131.0304,,,131.2812,131.8476,right,,,,,,,,0.5,,,,,,131.0305,131.281,0.5414,,131.8478,"[-0.04501061534535267,-0.0029676331964581734]",4.0,"[-0.030893448621485995,-0.19013581736338522]",4.0,"[0.029641847080423715,0.09487807139889251]",4.0,"[-0.00449546328781987,0.023358926356460665]",4.0,"[-0.1216567346387739,-0.1004008406567575]",100.0,"[0.1330090715272474,-0.006012393193363637]",4.0,"[-0.017753060782334542,0.10761314601711267]",4.0,"[0.11158416979793587,-0.09839268602118842]",100.0,"[-0.07020609640909883,-0.12151766820137941]",4.0,"[-0.11577163780116383,0.10475389643908371]",100.0,"[-0.12285538619364147,0.15622623997980897]",100.0,"[-0.03488709197080524,0.1488099399062804]",100.0,"[0.06766601682915863,0.0821908535461676]",100.0,"[0.07474011495304855,-0.15167222883223877]",4.0,"[0.13405554170043504,-0.13952205275825882]",100.0,"[-0.17166970637274806,-0.021882220130449926]",100.0,"[0.09859303374696751,0.11362505639236617]",4.0,"[0.16703305032336827,0.09652437097448517]",100.0,"[-0.06985055016765201,0.100814300755486]",100.0,"[0.023010349504246998,-0.12764623103630585]",4.0,"[0.013377368036702733,-0.05288147943904176]",100.0,"[-0.18430900669745018,0.026163142508547756]",100.0,"[0.12739832369143497,-0.05385437142669051]",100.0,"[-0.01859984508101161,-0.14556664419094598]",100.0,"[0.0716105843831172,-0.03938749816027973]",4.0,"[0.011603380330804195,0.1490237185168755]",4.0,"[-0.1899619491941396,-0.05970546860362679]",4.0,"[0.053961457262681124,0.12711164559374769]",100.0,"[0.07671764100978859,0.010980159201692655]",4.0,"[0.16915309199232484,-0.0989531646577989]",4.0,"[0.039629493641397416,0.03826640685730512]",4.0,"[-0.07955713565306431,0.03570174839554655]",100.0,"[0.02,0.02]",132.9475,0.0,3.0,3.0,106.0,1.0,,,,,,,
,,,,,,,68351f228b33e2f958c2de51,683aeef3660e9195595d3707,2025-05-31_08h01.08.964,shape_ratio,2024.1.5,Win32,60.24096386,683ae9196541af24d3a69e58,,,,,,,,,,,132.949,133.4474,,,133.6977,134.513,left,,,,,,,,0.5,,,,,,133.4477,133.6975,0.7869,,134.5133,"[-0.13039257648163433,-0.013711529411697732]",100.0,"[-0.04593970281558359,0.055537566614676175]",4.0,"[0.15963839413748895,0.0692340854195529]",100.0,"[-0.02953661299856305,-0.052272956985199334]",4.0,"[0.19193828800060816,-0.02043783366947391]",100.0,"[-0.16416444319236906,-0.08623938819574]",100.0,"[-0.0253252152353243,0.18816139998351658]",4.0,"[0.08711632026744802,-0.05560239954461193]",4.0,"[0.07363670505032507,0.02643916765617517]",100.0,"[0.03317446612081259,-0.003693542606484051]",100.0,"[0.05959463489713215,0.18807473391114474]",4.0,"[-0.008077990346054787,-0.17793723486319177]",4.0,"[0.09855139376614327,-0.1557794205170854]",100.0,"[-0.08938891070661868,-0.04585430076592646]",4.0,"[0.03269512542430318,0.10495528353851577]",4.0,"[0.11555922358956494,0.05784430771166823]",100.0,"[-0.04204620946223464,0.13246608523103315]",100.0,"[0.04628039163013006,-0.10037634712040877]",100.0,"[-0.0845631849550625,-0.14209565496157586]",4.0,"[-0.11260190655566728,-0.08399430316704175]",100.0,"[-0.004424816700133366,0.013603432464528838]",4.0,"[-0.030151411473327665,-0.13322368107987115]",4.0,"[0.1098673673462686,0.10635195763940795]",100.0,"[-0.08087245752258566,0.011838357858999162]",4.0,"[-0.11121709312111178,0.040397680715608265]",4.0,"[0.13624959636880918,0.006430632020264606]",100.0,"[0.026726879847404857,0.04140280362227739]",4.0,"[0.15552978371817758,-0.11846220657551475]",100.0,"[0.11121958542570241,0.15554891139884405]",100.0,"[0.04557136261886103,-0.0517326742001191]",4.0,"[-0.15660540498929643,0.08113170454343802]",4.0,"[0.05174132824755743,0.1483815607579412]",100.0,"[0.02,0.02]",135.6125,0.0,4.0,4.0,112.0,1.0,,,,,,,
,,,,,,,68351f228b33e2f958c2de51,683aeef3660e9195595d3707,2025-05-31_08h01.08.964,shape_ratio,2024.1.5,Win32,60.24096386,683ae9196541af24d3a69e58,,,,,,,,,,,135.6138,136.114,,,136.3646,137.5299,left,,,,,,,,0.55,,,,,,136.1142,136.3644,1.1364,,137.5302,"[-0.001527666302796069,0.030631856324195246]",4.0,"[-0.02860168132337908,-0.07991273054555052]",4.0,"[-0.04208647141363454,-0.030871354791794817]",4.0,"[-0.06539245681824418,-0.11707387786197408]",4.0,"[0.16799139049804204,-0.060060654771033]",4.0,"[-0.10985566589562824,-0.14053609536687253]",4.0,"[0.04769029135392219,0.08325127460713024]",100.0,"[-0.11736038328222596,0.12476754211299533]",4.0,"[-0.16142720612973036,-0.031093310545665]",100.0,"[0.015005696261955049,-0.037982843659582356]",100.0,"[-0.1523950953849657,0.09115921018185223]",100.0,"[-0.01738268642777252,0.0881349815933796]",100.0,"[0.07168679536556764,0.18385513005482118]",100.0,"[-0.03772238689724331,0.17916278564110902]",4.0,"[-0.14851830061125335,-0.1083301463559884]",100.0,"[-0.08074612211183539,0.07630535702756323]",100.0,"[0.10430411439457263,-0.13603049108171597]",100.0,"[-0.07369883902071128,0.15223312277726894]",100.0,"[0.11785397536744162,-0.029775376162156388]",4.0,"[-0.17372009787694218,0.04011943246841163]",100.0,"[-0.0799194028895683,-0.05821065891067704]",4.0,"[0.09309004580816477,0.006381624918462655]",100.0,"[0.016469846373788132,0.14657608274376796]",100.0,"[0.009049673754379524,-0.19778492887054852]",100.0,"[-0.07399324543285521,0.02256782032631899]",4.0,"[0.13723188691798674,0.13075152981624352]",100.0,"[0.10699648179093453,0.10383925521805491]",100.0,"[0.033717636762544294,-0.08377191292017082]",4.0,"[0.052163734271676906,-0.0015664578529240496]",4.0,"[0.10358265944426429,-0.07571391967230286]",4.0,"[0.05195098723766215,-0.18995790393199274]",100.0,"[0.07788763828243547,0.13273992007145502]",100.0,"[0.02,0.02]",138.6285,0.0,5.0,5.0,71.0,1.0,,,,,,,
,,,,,,,68351f228b33e2f958c2de51,683aeef3660e9195595d3707,2025-05-31_08h01.08.964,shape_ratio,2024.1.5,Win32,60.24096386,683ae9196541af24d3a69e58,,,,,,,,,,,138.6296,139.1284,,,139.3791,139.8957,right,,,,,,,,0.1,,,,,,139.1286,139.3789,0.4896,,139.896,"[0.08796955928039997,-0.03169890728088961]",4.0,"[-0.11236418172042004,-0.10248434092943792]",4.0,"[-0.13850555761656272,-0.05976300632306908]",4.0,"[-0.1668355894475188,0.09015565916154684]",4.0,"[-0.10452197925442974,0.07565687623234782]",4.0,"[0.005772502320677843,-0.07785962887015015]",4.0,"[0.008930633995080484,0.12567176392264268]",100.0,"[0.10102237670947735,0.16488805797094788]",4.0,"[-0.07787600750733567,-0.1688415414752918]",4.0,"[-0.017008967185217678,0.18646185439791033]",100.0,"[-0.011660394806650176,-0.014816700412294236]",4.0,"[0.01962444837724936,0.07976509423714424]",4.0,"[-0.13589552181658016,-0.1359102772618452]",4.0,"[-0.16245676877554635,0.017466074969263612]",4.0,"[-0.007588294904429432,-0.12142325975694698]",4.0,"[0.03538627148063748,-0.11118254389230704]",4.0,"[0.15867641785951248,-0.11947199454029331]",4.0,"[0.14560669151723757,0.0836293083151426]",100.0,"[0.13444858329932038,-0.04235055435815271]",4.0,"[-0.028939900100525474,0.032390407203078134]",4.0,"[0.040097046578496186,-0.19299187296661915]",4.0,"[0.09007793356453132,-0.08722485291736823]",4.0,"[0.06003495686669165,0.1592050458569224]",4.0,"[0.11816674743135734,-0.11983193576011186]",4.0,"[0.0982076137225834,0.1212134228742924]",4.0,"[0.014602510961065877,0.0387410369494365]",4.0,"[0.19822622799138861,0.020821924335530262]",4.0,"[-0.05662734741395897,0.17978158222864796]",4.0,"[-0.06631285598456818,-0.11824477333063178]",4.0,"[0.0708432714990619,0.03608016589537822]",4.0,"[-0.1925052666230815,-0.014222676517916463]",4.0,"[-0.03543881754460308,0.07734578107900025]",4.0,"[0.02,0.02]",140.9954,0.0,6.0,6.0,203.0,1.0,,,,,,,
,,,,,,,68351f228b33e2f958c2de51,683aeef3660e9195595d3707,2025-05-31_08h01.08.964,shape_ratio,2024.1.5,Win32,60.24096386,683ae9196541af24d3a69e58,,,,,,,,,,,140.9966,141.4945,,,141.7466,142.7273,right,,,,,,,,0.1,,,,,,141.4947,141.7464,0.9517,,142.7273,"[0.07708218691809621,0.08871063754864236]",4.0,"[-0.13760332270926656,0.10088728941549577]",4.0,"[-0.09886093093522853,-0.13063602138054797]",4.0,"[0.08704019969114152,0.020158938096441384]",4.0,"[-0.10777920102392148,0.15493550146241258]",4.0,"[0.05697352058976856,-0.04961143427067373]",4.0,"[0.07864827761681198,-0.17346872954026382]",4.0,"[-0.014648545886666508,-0.06562229263082697]",4.0,"[0.11718542163688266,-0.0486928516029695]",4.0,"[-0.00420106982758696,-0.022325859618780346]",4.0,"[-0.04828212821501897,0.12495654564543726]",4.0,"[0.13326126832129354,0.053721216289833715]",100.0,"[0.15738715839920528,-0.01737117343011518]",4.0,"[-0.12085323470972811,0.02093902094722825]",4.0,"[-0.07631793260180471,-0.05802169128230304]",4.0,"[-0.047794267440504,-0.1858782189961418]",4.0,"[-0.18653111608429976,-0.0034820768792332684]",100.0,"[-0.04576917691945347,-0.13038118923615521]",100.0,"[0.029689519437130343,0.17521528709335596]",4.0,"[-0.13811518160873062,-0.06310118327122884]",4.0,"[-0.0015754920276429695,0.13909409148312818]",4.0,"[0.02477450656544964,0.04114354210897663]",4.0,"[0.15461729152593798,0.10323261492185937]",4.0,"[-0.17151837465849623,0.04467365846199635]",4.0,"[0.04725769010359099,0.13435945081259335]",4.0,"[-0.005440926713099975,-0.19283765315126786]",4.0,"[0.09022548846901474,-0.08854224692380427]",4.0,"[-0.02850465358601487,0.04093012725868623]",4.0,"[0.01976346629721211,-0.11931499011842263]",4.0,"[-0.0687522659928582,-0.014705667802463995]",4.0,"[-0.057830427410270356,0.17800391711859237]",4.0,"[-0.1418491876375885,-0.12447111955782811]",4.0,"[0.02,0.02]",143.8269,0.0,7.0,7.0,209.0,1.0,,,,,,,
,,,,,,,68351f228b33e2f958c2de51,683aeef3660e9195595d3707,2025-05-31_08h01.08.964,shape_ratio,2024.1.5,Win32,60.24096386,683ae9196541af24d3a69e58,,,,,,,,,,,143.8281,144.327,,,144.5792,145.0437,left,,,,,,,,0.9,,,,,,144.3271,144.5788,0.4449,,145.044,"[0.16144682436619953,0.05176953144056185]",100.0,"[-0.16596694885501112,-0.11130878886346277]",100.0,"[-0.06080925811543362,-0.02460954697295672]",100.0,"[0.04039369939876159,0.1605971094307177]",100.0,"[-0.047584628514251937,0.16108734727965288]",100.0,"[0.06741898278701212,-0.053225747347653306]",4.0,"[-0.10448534401534143,-0.017709802520474088]",100.0,"[0.1454216372212351,0.0031651155318470144]",100.0,"[0.1032026806881898,0.030101623016669132]",100.0,"[-0.011253453978242754,-0.05600941207522088]",4.0,"[-0.12778384989668234,0.15199021617808692]",100.0,"[-0.08486950756081778,-0.13669594523752246]",100.0,"[-0.012527799873063248,-0.17735717220844344]",100.0,"[0.19191612474700734,-0.026566118599902395]",100.0,"[-0.03721328647921705,-0.09074584775113895]",100.0,"[0.014175436891015837,0.08161536732628862]",100.0,"[-0.04342298842376565,-0.13759196508543575]",100.0,"[-0.00784009583972398,0.19536869519347544]",100.0,"[0.1034520474573813,0.08265188171239843]",4.0,"[-0.11324131592349765,-0.08968586168398814]",100.0,"[0.029762310599044457,-0.032062430136157095]",100.0,"[-0.07838479537294527,0.08426861658316936]",100.0,"[-0.1512676372042253,-0.07076082411876145]",100.0,"[0.07879164437391536,-0.136397337696223]",100.0,"[-0.12229745666026917,-0.15727279866170002]",100.0,"[0.026426134773426545,-0.13347161563282398]",100.0,"[0.13965224578602822,-0.13279803277706576]",100.0,"[-0.014345204961947492,0.030842459372543415]",100.0,"[0.158981320064844,-0.07118578950865348]",100.0,"[-0.07240479352393017,0.127532396808163]",100.0,"[-0.1951448465708591,0.022071615630995786]",100.0,"[-0.12614677858008255,0.05659538965511955]",100.0,"[0.02,0.02]",146.1428,0.0,8.0,8.0,21.0,1.0,,,,,,,
,,,,,,,68351f228b33e2f958c2de51,683aeef3660e9195595d3707,2025-05-31_08h01.08.964,shape_ratio,2024.1.5,Win32,60.24096386,683ae9196541af24d3a69e58,,,,,,,,,,,146.1438,146.6429,,,146.8946,147.2925,right,,,,,,,,0.1,,,,,,146.643,146.8944,0.3717,,147.2926,"[-0.17447645737712406,0.08130721484467866]",4.0,"[0.14481089304832054,-0.020344806611784918]",4.0,"[-0.0006872930565127387,-0.1549163028598755]",4.0,"[0.050057293282044356,-0.07056033464580083]",4.0,"[-0.05055563245648862,0.07019452335739579]",4.0,"[0.09949461545746809,0.061404529903554675]",4.0,"[0.01786693571252632,0.08344832045356326]",100.0,"[-0.09222956815826874,0.09672582725378721]",4.0,"[0.004532848525440564,-0.09154259416296719]",4.0,"[-0.10929270495860878,-0.1339341180082245]",4.0,"[0.14459193093785255,0.10007580198829051]",4.0,"[-0.13979683291710762,0.044654732444146236]",4.0,"[0.17217818954917782,0.05654579489877817]",4.0,"[0.070532816206846,-0.17774764228978093]",4.0,"[-0.10901075816167484,0.1531937677832602]",100.0,"[0.04296630570961545,-0.11161051872446637]",4.0,"[-0.04255549569679194,-0.011505485050970632]",4.0,"[0.06529018455487766,0.12623600933214293]",4.0,"[0.10379857979773155,-0.08147259230674136]",4.0,"[-0.04832126412959162,-0.11752065595312976]",4.0,"[0.1311887653970949,-0.14772016766466936]",4.0,"[-0.16038973120217362,-0.008054094685248142]",4.0,"[-0.0979983691740637,0.027190089291372597]",4.0,"[0.10203409779927486,0.15523546591876464]",4.0,"[-0.02852691122502997,0.12786417366767275]",4.0,"[-0.10708697342062073,-0.013254057608692917]",4.0,"[-0.036392985686909386,0.17198533661767032]",4.0,"[-0.044238308937788545,-0.06259141504987212]",4.0,"[0.1469031574274697,-0.1071516281210495]",4.0,"[-0.09479308329807073,-0.05798473376596307]",4.0,"[0.06221054792194784,0.045405578414900706]",4.0,"[-0.19539676239030485,0.012919006104323592]",100.0,"[0.02,0.02]",148.3935,0.0,9.0,9.0,204.0,1.0,,,,,,,
,,,,,,,68351f228b33e2f958c2de51,683aeef3660e9195595d3707,2025-05-31_08h01.08.964,shape_ratio,2024.1.5,Win32,60.24096386,683ae9196541af24d3a69e58,,,,,,,,,,,148.3948,148.8932,,,149.1452,149.792,right,,,,,,,,0.45,,,,,,148.8935,149.1451,0.6182,,149.7921,"[-0.13729775682818426,0.045142171162868124]",4.0,"[0.10273570961397942,0.040740111908055904]",4.0,"[-0.09048454675274382,-0.0009840342193820231]",100.0,"[-0.018105226190778357,0.18274897473141974]",100.0,"[0.015567030954134572,0.13029880429809776]",4.0,"[-0.13260702049448836,0.14380618529559275]",100.0,"[0.12050473787905047,-0.08585430083794664]",100.0,"[0.05281773194629525,-0.006339121492871787]",4.0,"[0.030830545715869146,-0.11914813932760382]",4.0,"[-0.1702170129976779,-0.006189040531410851]",4.0,"[-0.062034945326140456,-0.06524653762544588]",4.0,"[0.16237660385704264,-0.09506552773855068]",4.0,"[-0.10321149372634157,0.06773306285667481]",4.0,"[0.12233259891951855,-0.02604145743583123]",4.0,"[-0.034152585546873705,-0.17686328301174598]",4.0,"[-0.062260458606145895,0.16015775644551808]",100.0,"[-0.12749575505997912,-0.11209470921912812]",100.0,"[-0.04283641548072483,-0.11560821545344147]",4.0,"[0.15126522086869096,0.03391219362382249]",100.0,"[0.032303827851576504,-0.17218609732938503]",100.0,"[0.07246188453069627,0.09226995308588119]",100.0,"[-0.04075809795418717,0.06555150441074506]",100.0,"[0.1822648573340912,-0.0463405348200871]",100.0,"[0.15863937320586344,0.07973129207326803]",4.0,"[-0.1146531538848573,-0.06862500220992912]",4.0,"[0.07767697792114758,-0.0723874679452471]",4.0,"[-0.01397605897666998,0.014411626691546253]",4.0,"[0.12796225701117295,0.12938244452401862]",100.0,"[0.12674257679212414,-0.14956684115357105]",100.0,"[-0.16343403389102565,0.10355326321606996]",100.0,"[0.07103821908765964,-0.13172648442151122]",4.0,"[-0.09048311818489944,-0.17446667054101284]",4.0,"[0.02,0.02]",150.8916,0.0,10.0,10.0,133.0,1.0,,,,,,,
,,,,,,,68351f228b33e2f958c2de51,683aeef3660e9195595d3707,2025-05-31_08h01.08.964,shape_ratio,2024.1.5,Win32,60.24096386,683ae9196541af24d3a69e58,,,,,,,,,,,150.8928,151.3915,,,151.6425,152.3926,right,,,,,,,,0.6,,,,,,151.3915,151.6423,0.7181,,152.3928,"[0.1265410060700493,0.029480456682981142]",4.0,"[-0.07122628095838338,0.08847215949546165]",4.0,"[-0.08150688888425864,0.14952047958425824]",4.0,"[0.07067427397465036,0.03209803603293179]",4.0,"[0.17546229979918698,-0.04854532932086578]",100.0,"[0.01687042942471075,0.016245727100681565]",100.0,"[0.0006548405183672094,-0.19420081074813247]",100.0,"[-0.11345645161325658,-0.006644391339026665]",100.0,"[-0.17618690014573257,-0.07177548139715907]",100.0,"[0.16541935193613527,0.0636711543377697]",100.0,"[0.015349550809457865,0.08365206058671346]",4.0,"[-0.05446357811218229,-0.08388629584416273]",100.0,"[0.013335687243196852,0.13406002912895087]",4.0,"[0.12045817640460568,-0.15658589739365]",4.0,"[-0.05970344237055601,-0.1788432629902254]",100.0,"[0.0747368312727329,-0.03841130242875815]",4.0,"[-0.16107143896247017,-0.015482123728529576]",100.0,"[-0.038656400426542836,0.19474497373272442]",100.0,"[-0.12595955730352423,-0.12175261326231117]",4.0,"[0.03432754783226366,-0.15233829021881432]",100.0,"[-0.0423489912886271,0.1311131505322376]",4.0,"[0.15380088992937727,0.1238775730397336]",100.0,"[0.07441907564735212,0.146354814959056]",100.0,"[-0.02564452907004709,0.030974358281753094]",4.0,"[-0.11792996948948267,0.12510186043545532]",100.0,"[0.1704720079000385,-0.09465972102904052]",100.0,"[-0.014248307143011887,-0.04006006416599754]",100.0,"[0.022079282912606493,-0.06205177443747932]",100.0,"[-0.18457184088416664,0.027408302952855262]",4.0,"[0.06949463661111864,0.0747036927182488]",100.0,"[0.06359390432970237,-0.09263713266762325]",4.0,"[-0.032400344081713855,-0.147318899707617]",100.0,"[0.02,0.02]",153.4924,0.0,11.0,11.0,33.0,1.0,,,,,,,
,,,,,,,68351f228b33e2f958c2de51,683aeef3660e9195595d3707,2025-05-31_08h01.08.964,shape_ratio,2024.1.5,Win32,60.24096386,683ae9196541af24d3a69e58,,,,,,,,,,,153.4939,153.9918,,,154.2419,154.7738,left,,,,,,,,0.9,,,,,,153.992,154.2418,0.5024,,154.7739,"[-0.14224871619519977,0.003935806639321693]",100.0,"[-0.03746435151944706,-0.1854285773482817]",100.0,"[0.1542658851266482,-0.06378561490143891]",4.0,"[-0.12418669773344092,-0.0621647029839974]",100.0,"[-0.18065766632591232,0.038951249500396246]",100.0,"[0.09189712038151392,-0.08118891280797655]",100.0,"[0.07475799234675307,0.1261363574308907]",100.0,"[0.07700277962094387,-0.14460003575078706]",100.0,"[0.1669039232310236,0.11000888932611717]",100.0,"[-0.036413648105118546,-0.037021657863803764]",100.0,"[0.023610520976909313,0.08121006700573873]",100.0,"[-0.047699661461059306,0.014737039866543655]",100.0,"[0.05424736387584955,-0.02613572620076958]",100.0,"[-0.05773273041602786,0.06801152825938858]",4.0,"[0.008939831055682421,-0.024585957696011837]",4.0,"[0.1874563808635742,-0.020517821285780627]",100.0,"[-0.007185726416719742,0.15534371470745198]",100.0,"[0.15560122739075835,0.0705426815335538]",100.0,"[0.12235218615271991,-0.14250860069587612]",100.0,"[0.09751952359224714,0.06420843881727761]",100.0,"[-0.07557026349215121,-0.11564456500146583]",100.0,"[0.048940340317077495,0.04095407701901434]",100.0,"[0.1322879600435933,-0.004202320103345948]",100.0,"[-0.07766535347541174,-0.018461298653151603]",100.0,"[0.04280739179869079,-0.0662272521246178]",100.0,"[-0.011372021884921094,-0.07666885406104115]",100.0,"[-0.1573730590606985,0.11593600350960463]",100.0,"[-0.1084486871026434,0.1466872220392327]",100.0,"[0.018896153708686025,-0.17720631679553642]",100.0,"[-0.10412106909977119,0.05704346792275581]",100.0,"[-0.16567857109134104,-0.08733912117316604]",100.0,"[0.19017484585463623,0.024976217197296403]",100.0,"[0.02,0.02]",155.8745,0.0,12.0,12.0,29.0,1.0,,,,,,,
,,,,,,,68351f228b33e2f958c2de51,683aeef3660e9195595d3707,2025-05-31_08h01.08.964,shape_ratio,2024.1.5,Win32,60.24096386,683ae9196541af24d3a69e58,,,,,,,,,,,155.8762,156.3748,,,156.629,157.5247,left,,,,,,,,0.55,,,,,,156.375,156.629,0.8761,,157.5248,"[-0.00935415708676846,-0.10764536850201376]",100.0,"[-0.045213228681967456,0.03649872239247426]",100.0,"[0.09371796442283999,-0.018625196309520767]",4.0,"[0.019305210888294184,-0.1360687801612219]",4.0,"[-0.03837919179035395,-0.04253824091374169]",100.0,"[-0.17514553835112526,-0.08736300657341217]",100.0,"[0.08733525463789296,0.04135940201573046]",100.0,"[-0.10128651131484445,0.01682072128930363]",100.0,"[0.16837980661314217,-0.06144138643514842]",4.0,"[0.05083058233770938,0.1565001627567104]",4.0,"[0.13965732209618606,0.13855825149926712]",4.0,"[0.05916314612895528,-0.17386308639792256]",100.0,"[0.15952258483304682,0.0003334310566446196]",100.0,"[0.059861703804422524,-0.07149664899999653]",4.0,"[-0.05902780978382181,-0.08690517600452585]",100.0,"[-0.08337061746943636,-0.17582524680760725]",100.0,"[0.01944241185504611,0.04999291421379805]",4.0,"[-0.015201195476072982,0.19457631426654698]",100.0,"[0.1375208664597156,-0.1319137751776135]",100.0,"[-0.19380759476210346,0.020352071110954887]",4.0,"[-0.10145116062032718,-0.05217097855988789]",100.0,"[0.08526940226403086,0.12436055009542854]",100.0,"[0.024382214572321755,-0.19731588198342564]",100.0,"[0.009412516780625348,0.12556227281266788]",4.0,"[-0.14527123521661392,0.06267650450608873]",100.0,"[0.16328840029477032,0.06304293433715093]",4.0,"[-0.08626464713450097,0.12627372485991353]",100.0,"[0.1092792489393089,0.1650692152352583]",4.0,"[0.024671631344245153,0.00936767564429035]",4.0,"[-0.11813150968515841,-0.10361348311493643]",4.0,"[0.012497535807443958,-0.030261794358654726]",4.0,"[0.05439932217336692,-0.028921388133162116]",100.0,"[0.02,0.02]",158.6228,0.0,13.0,13.0,68.0,1.0,,,,,,,
,,,,,,,68351f228b33e2f958c2de51,683aeef3660e9195595d3707,2025-05-31_08h01.08.964,shape_ratio,2024.1.5,Win32,60.24096386,683ae9196541af24d3a69e58,,,,,,,,,,,158.6241,159.1229,,,159.3735,160.6738,left,,,,,,,,0.6,,,,,,159.123,159.3732,1.292,,160.674,"[-0.10865424949715884,0.13006370973130596]",100.0,"[0.11218017597434245,0.15795231460244835]",100.0,"[0.12707955002114282,0.058734752164970684]",100.0,"[0.08978246311751545,-0.03167715246208085]",100.0,"[0.19202328511812017,-0.02753653532893833]",4.0,"[-0.032464377321906955,-0.18267371600826993]",4.0,"[0.054931775864795536,0.04791990594592449]",4.0,"[0.07511638999972516,-0.17388215260968196]",100.0,"[-0.050259099713394755,0.054272819731597075]",4.0,"[0.025575958622223817,0.17971801171579382]",4.0,"[0.03387544514496985,0.1397862940769775]",4.0,"[-0.1107649889271386,0.004874302448614088]",100.0,"[-0.08447468769607167,-0.05324316612620398]",4.0,"[-0.007879266018960943,-0.12350330926295386]",100.0,"[0.07382662470219192,-0.07130193948376454]",4.0,"[-0.19603923410113866,-0.0015137025597465996]",100.0,"[-0.06845927546447841,0.14979742048629113]",4.0,"[-0.1028976369159699,-0.10551421608079747]",100.0,"[-0.15591057219276447,0.030255672369640097]",100.0,"[0.07318342701575475,0.12566474423275262]",100.0,"[0.057751692394798236,-0.1297583615366631]",100.0,"[0.12350732528573923,0.11916693727587765]",100.0,"[-0.029114124285678524,-0.06710342483584686]",4.0,"[-0.1927666567955557,-0.048082673777572194]",4.0,"[-0.10296241193869428,-0.16977756406100872]",100.0,"[0.14105629118998497,-0.12558996396343952]",100.0,"[0.05312350292938338,0.0041625085962630785]",4.0,"[0.19858488663839413,0.018817911910272468]",100.0,"[-0.02800178927051736,-0.016698258443505722]",4.0,"[0.10298618726889694,-0.14509304834333106]",100.0,"[-0.036893968864915846,0.12506427236052733]",100.0,"[-0.15478603656466877,-0.12641473629039518]",100.0,"[0.02,0.02]",161.7729,0.0,14.0,14.0,34.0,1.0,,,,,,,
,,,,,,,68351f228b33e2f958c2de51,683aeef3660e9195595d3707,2025-05-31_08h01.08.964,shape_ratio,2024.1.5,Win32,60.24096386,683ae9196541af24d3a69e58,,,,,,,,,,,161.7742,162.272,,,162.5108,163.2052,left,,,,,,,,0.9,,,,,,162.272,162.5107,0.6898,,163.2052,"[0.07626738682359975,0.1322339996560982]",100.0,"[0.004648029172440698,0.15042395223407665]",100.0,"[0.12809836618070805,0.14317232906303176]",100.0,"[-0.08022716771437487,-0.02390318003966333]",100.0,"[-0.000605794738944166,0.016058988841292327]",100.0,"[0.14662299319811695,0.019863994920372913]",100.0,"[-0.07958557892958104,0.12760274500606117]",100.0,"[0.1544159225745938,0.08186025097019652]",100.0,"[0.016516057764111778,0.10673813505663858]",100.0,"[-0.024317575261937837,-0.176016702036642]",100.0,"[-0.0019943122667026004,-0.07572331476231017]",100.0,"[-0.13037297179245416,-0.053180409690681274]",4.0,"[-0.09035697108241778,-0.07671668419979169]",100.0,"[-0.08173718559111394,0.018131624473560978]",100.0,"[-0.16762676394717388,0.05882379804681125]",100.0,"[0.04551289864913123,0.052575605483958114]",100.0,"[0.053928989060809736,-0.06261052299328622]",100.0,"[-0.14323782160162327,-0.11616673765033894]",100.0,"[-0.0675201530164813,-0.16188005293145205]",100.0,"[-0.1079510980581822,-0.14192889497249467]",100.0,"[-0.0005768626104464893,-0.12945980695771556]",100.0,"[0.06417062020571992,-0.13709226909138125]",100.0,"[0.18080389230933608,-0.003500487702380932]",4.0,"[-0.051070111525895336,0.050579576341947714]",100.0,"[-0.12808847221207903,0.019626461910526936]",100.0,"[0.02613692800985537,-0.17353708256092656]",4.0,"[0.10201774041441114,-0.03576586981558671]",100.0,"[-0.05055718818319298,0.18440649200004106]",100.0,"[0.0645522459003608,0.00683942567584249]",100.0,"[-0.1854460478366947,-0.007721534087959505]",100.0,"[0.17386963135821135,-0.06161284288798136]",100.0,"[0.06962504507402355,0.09255140485483564]",100.0,"[0.02,0.02]",164.3055,0.0,15.0,15.0,18.0,1.0,,,,,,,
,,,,,,,68351f228b33e2f958c2de51,683aeef3660e9195595d3707,2025-05-31_08h01.08.964,shape_ratio,2024.1.5,Win32,60.24096386,683ae9196541af24d3a69e58,,,,,,,,,,,164.3069,164.8059,,,165.0593,166.1209,left,,,,,,,,0.6,,,,,,164.8061,165.0592,1.0508,,166.121,"[-0.07642971248302342,0.017268633440558567]",4.0,"[-0.08808009936667009,-0.14424672083037365]",100.0,"[0.03466155939092237,0.05623136580187094]",4.0,"[0.11845108539435202,-0.10383707098776739]",4.0,"[0.1646849213602959,0.018142115294275785]",4.0,"[-0.17874233316854343,-0.06149625767275123]",100.0,"[-0.0802744399241509,-0.032479221282851585]",4.0,"[-0.07396315816959141,0.16497780237604093]",100.0,"[0.007872201995277694,-0.159726801930373]",100.0,"[-0.03500034448608842,-0.14448747536036746]",4.0,"[-0.14295868434187173,0.07131812489573049]",100.0,"[-0.11327745446870091,0.12386926342071179]",4.0,"[-0.03648010940207615,0.15007453842549487]",100.0,"[-0.11056694719469994,-0.08854156312842934]",4.0,"[0.10917923207677462,0.13619908234058067]",100.0,"[-0.007605289676823472,-0.05851492154593662]",100.0,"[-0.01984653689138257,0.11088978548042186]",100.0,"[-0.06404360776476783,0.10816678889553831]",4.0,"[-0.06289039022055426,-0.17807207077907744]",100.0,"[0.01884687526676904,-0.024261184863181892]",4.0,"[0.15019025278820083,-0.07529746169512153]",100.0,"[-0.15599128344251234,0.12505579417477666]",100.0,"[0.16086004189217562,0.11840422579662627]",100.0,"[0.04461014412748027,0.19402896319443466]",4.0,"[0.086904138457573,0.09190416742898147]",100.0,"[-0.14205029023334087,0.027302732162347937]",100.0,"[0.04022221302370686,0.13846742959964034]",4.0,"[0.05417330783633697,-0.06033480330118983]",4.0,"[-0.1435125057962561,-0.11303195420621834]",100.0,"[0.08054185668224677,-0.11725180037402047]",100.0,"[0.1093087821900572,-0.03421585869576095]",100.0,"[-0.12548019184477005,-0.04013928253437699]",100.0,"[0.02,0.02]",167.2205,0.0,16.0,16.0,42.0,1.0,,,,,,,
,,,,,,,68351f228b33e2f958c2de51,683aeef3660e9195595d3707,2025-05-31_08h01.08.964,shape_ratio,2024.1.5,Win32,60.24096386,683ae9196541af24d3a69e58,,,,,,,,,,,167.222,167.7206,,,167.9713,168.7875,left,,,,,,,,0.9,,,,,,167.7207,167.9713,0.7854,,168.7877,"[-0.00048182178731531636,0.15543838749491073]",100.0,"[-0.09083675414874343,-0.10179164713371683]",100.0,"[-0.16164735321376436,-0.07708056905917232]",100.0,"[-0.0019252833459020297,-0.11202167347151708]",100.0,"[-0.0437143921432539,0.12240402917675877]",4.0,"[0.04032909544132913,-0.1712997644292125]",100.0,"[0.05555606773504389,0.12210834404445581]",100.0,"[-0.049472048280683543,-0.08286346866982824]",100.0,"[0.09858971895572821,-0.16363403818731698]",100.0,"[0.14432825638275137,0.11799303780289083]",100.0,"[-0.0006354092392930888,0.09183440441622541]",4.0,"[0.029500304457313824,0.18655766709209554]",100.0,"[0.16525509508176636,-0.013945597610255536]",100.0,"[-0.05193183806595667,0.062161220144682026]",100.0,"[0.14762769019792146,-0.11467156499691293]",100.0,"[-0.10770814838416197,-0.031401222144094305]",100.0,"[-0.057901020855825436,-0.13290761328692935]",100.0,"[0.020876272566473612,-0.07128247367813585]",100.0,"[-0.17863249265220357,0.04668446830018697]",100.0,"[0.04133462840995288,0.07529905280306741]",100.0,"[-0.18383807510021868,0.0011557708194857045]",100.0,"[0.023828619928402545,0.03601337345100231]",100.0,"[-0.11743380437070451,0.012637036405224185]",100.0,"[-0.0615341986417208,0.009568971168598235]",100.0,"[0.11102810098462981,0.003134712245497283]",100.0,"[0.11769464553844558,0.08700093920510144]",4.0,"[-0.07892396123552733,0.09580616254553188]",100.0,"[-0.049358116340950074,0.170085474014672]",100.0,"[0.1020322429752663,0.15054682031496464]",100.0,"[0.09984311446376576,-0.1155402320778789]",100.0,"[0.15940260636654766,0.04772953868947394]",100.0,"[0.06047920328580988,-0.1055629396304154]",100.0,"[0.02,0.02]",169.8872,0.0,17.0,17.0,4.0,1.0,,,,,,,
,,,,,,,68351f228b33e2f958c2de51,683aeef3660e9195595d3707,2025-05-31_08h01.08.964,shape_ratio,2024.1.5,Win32,60.24096386,683ae9196541af24d3a69e58,,,,,,,,,,,169.8887,170.3865,,,170.6376,171.5694,left,,,,,,,,0.9,,,,,,170.3867,170.6374,0.901,,171.5695,"[0.08540398706403869,0.07220081904029753]",100.0,"[0.10035192705293661,-0.005148153175591787]",100.0,"[-0.07026871384552885,-0.04197073631384643]",100.0,"[-0.17615574123818412,-0.03207077927887886]",4.0,"[0.08523060005997256,-0.17808114526003666]",100.0,"[0.13301616219063717,-0.03626253509947441]",100.0,"[-0.0537990558736262,-0.08108851396705354]",100.0,"[-0.03299486480121545,0.0001363478890978293]",100.0,"[0.0007218141820129965,0.058153134951629847]",100.0,"[0.14832308926390053,0.10505311692665929]",100.0,"[-0.03202421322180697,0.11999911203197022]",100.0,"[-0.12783748803438533,-0.0016467046286392985]",100.0,"[0.0783637774803571,-0.09010334448214057]",100.0,"[-0.10308484416232148,0.08448218202230753]",100.0,"[-0.17294974095721155,0.10034849666166602]",100.0,"[-0.10803014763042822,-0.11204037067545683]",100.0,"[-0.049213875795646705,0.17640769104265316]",100.0,"[-0.02902362761615566,-0.17257817145054075]",4.0,"[0.006618740132923181,-0.04908731125373172]",100.0,"[0.0015069564299600065,0.17631342783683424]",4.0,"[-0.11463482630895036,0.14085882702595373]",100.0,"[0.11337289204633436,-0.1282985757480654]",100.0,"[0.015233983323831145,0.10005183442084711]",100.0,"[0.16298285958088055,-0.0018702046616727594]",100.0,"[-0.1549667046735657,-0.09254943095091456]",100.0,"[0.08734709046307977,0.17976029110387814]",100.0,"[0.16453451940600133,-0.0909715349220926]",100.0,"[0.040700975351487007,-0.10649958550708317]",100.0,"[0.06232747510264846,0.01816549890598568]",100.0,"[0.19059074653965233,-0.05768258739274233]",100.0,"[0.18165369441569168,0.04147189442886892]",100.0,"[-0.1110383900047959,-0.040684496835260556]",100.0,"[0.02,0.02]",172.6704,0.0,18.0,18.0,25.0,1.0,,,,,,,
,,,,,,,68351f228b33e2f958c2de51,683aeef3660e9195595d3707,2025-05-31_08h01.08.964,shape_ratio,2024.1.5,Win32,60.24096386,683ae9196541af24d3a69e58,,,,,,,,,,,172.6722,173.1699,,,173.4213,174.1521,left,,,,,,,,0.9,,,,,,173.1701,173.4211,0.7077,,174.1522,"[-0.07982833989311647,0.02510466050356731]",100.0,"[-0.018553781165695938,0.09143990347414034]",100.0,"[-0.033752406353417544,-0.02930683153906984]",100.0,"[0.1835281222074488,-0.021508447813109805]",100.0,"[-0.16032772570285786,0.04550595890487533]",100.0,"[-0.029322335135950145,-0.19219973005141472]",100.0,"[-0.003576113466605667,-0.13323376173032864]",100.0,"[-0.08118597590782979,0.08571939950787799]",100.0,"[0.14261993611309134,0.015734597595595888]",100.0,"[-0.05055491031002056,0.1524310247756521]",100.0,"[0.0657719323269754,0.032060186427520274]",100.0,"[-0.10796631335908558,-0.08744802071785131]",100.0,"[0.14817189322958668,0.09105867477263895]",100.0,"[-0.05757790995681334,-0.09782704486451735]",4.0,"[-0.008552804854881111,0.19523416064916224]",4.0,"[-0.07440389328991431,-0.039557074928931645]",4.0,"[0.09374929621724108,-0.1504947472919542]",100.0,"[-0.12068965173118576,0.13282177856438176]",100.0,"[0.04570602717394564,0.1503599207200859]",100.0,"[0.015350836603914998,0.04000341659682639]",100.0,"[-0.05853360460858071,-0.15078569302766662]",100.0,"[0.13046651231976347,-0.12355340654573503]",100.0,"[0.07715071826299469,0.12425957880500506]",100.0,"[0.11791391058105054,0.06114372078579691]",100.0,"[-0.011083156022429552,0.005300832847997386]",100.0,"[-0.13671157027312686,-0.027605487635811148]",100.0,"[0.1168457306576093,-0.051959304155021556]",100.0,"[0.07358221779355276,-0.0383505784872792]",100.0,"[0.09625864556509914,-0.08795979410679229]",100.0,"[-0.16790976188237977,0.0014723560557589862]",100.0,"[0.004915866839509612,-0.08453987708665289]",100.0,"[0.07634191518250712,0.07126037740929307]",100.0,"[0.02,0.02]",175.2517,0.0,19.0,19.0,20.0,1.0,,,,,,,
,,,,,,,68351f228b33e2f958c2de51,683aeef3660e9195595d3707,2025-05-31_08h01.08.964,shape_ratio,2024.1.5,Win32,60.24096386,683ae9196541af24d3a69e58,,,,,,,,,,,175.2528,175.7516,,,176.0041,176.9361,left,,,,,,,,0.6,,,,,,175.7516,176.004,0.9052,,176.9363,"[-0.0652196767980362,-0.07250666099922742]",100.0,"[-0.002028811924066784,-0.195858577616928]",4.0,"[-0.08327714718875452,-0.16582313371625673]",100.0,"[0.06913684369171685,-0.0025606532742049617]",100.0,"[-0.1601699176045749,0.0850543904329005]",4.0,"[0.04782290205542194,-0.14189655167501136]",4.0,"[0.19334368782832012,0.04042278284544458]",100.0,"[-0.12650550945712952,-0.10194541074581023]",4.0,"[0.1008676735136327,-0.05650165853028219]",100.0,"[0.04558365160858648,-0.18822907732289434]",4.0,"[-0.026205367559913387,0.1204916762747019]",100.0,"[-0.10486491197900472,0.10376375293496133]",100.0,"[-0.087309720353148,-0.012722805765594255]",100.0,"[0.07451481472560144,0.058388180795455304]",4.0,"[0.03600635136030156,0.14068887981442804]",100.0,"[-0.1944643994203039,0.01779861644828338]",4.0,"[-0.047003989646526266,0.028805620658418112]",100.0,"[0.0980117636512538,-0.16391052809603468]",4.0,"[0.14134009765377792,0.019934838103756524]",4.0,"[-0.034159253394566096,0.07133160862044238]",4.0,"[0.011544323301873478,-0.10617481046952662]",100.0,"[-0.0033403444290269523,-0.030296990604715607]",4.0,"[0.09146355757128645,0.1584945670104019]",4.0,"[-0.03747657777646173,-0.1297209137933285]",4.0,"[-0.14245615483370164,0.1284342859809457]",100.0,"[-0.14708272907726128,-0.04950280603073417]",100.0,"[0.028811254585039567,-0.06526421857842124]",100.0,"[0.10840532964367167,0.11081910402485025]",100.0,"[-0.10244619361311118,0.03388553400127583]",100.0,"[0.09252651698928617,-0.10702267588439231]",100.0,"[0.017984873363211504,0.0043122732849970175]",100.0,"[-0.01957970498568912,0.17345382873681606]",100.0,"[0.02,0.02]",178.0351,0.0,20.0,20.0,44.0,1.0,,,,,,,
,,,,,,,68351f228b33e2f958c2de51,683aeef3660e9195595d3707,2025-05-31_08h01.08.964,shape_ratio,2024.1.5,Win32,60.24096386,683ae9196541af24d3a69e58,,,,,,,,,,,178.0363,178.5341,,,178.7847,180.285,,,,,,,,,0.9,,,,,,178.5342,178.7845,,,180.2852,"[-0.192088668519994,0.031226403391323928]",100.0,"[-0.020512916230305628,0.13362433714433353]",100.0,"[0.09861637230991868,0.0808077417042318]",100.0,"[0.1902787950259811,-0.032216049768118406]",100.0,"[-0.07242714491620024,0.11463221954459937]",100.0,"[0.029783073732308242,-0.13606951016501445]",100.0,"[0.11302829000420939,-0.07054785074393231]",100.0,"[0.05702433010868532,0.18252360631267858]",100.0,"[0.1521004300221358,-0.04616262769653224]",100.0,"[-0.031053342929803662,-0.10113427991490766]",100.0,"[-0.013501688815933655,-0.13821991503931227]",4.0,"[-0.009910929095199106,0.029961628328598097]",4.0,"[0.08530919510148999,0.030154032477204582]",100.0,"[-0.14004614058975512,0.028592524144495618]",100.0,"[0.15986600443015048,0.02950348412184825]",4.0,"[-0.05337750616324562,-0.06410527304703854]",100.0,"[0.014939198652857748,0.1560075339046436]",100.0,"[0.0903897519035003,0.1305104015018045]",100.0,"[-0.1488937829037603,0.12936464177194493]",100.0,"[-0.10901181575791218,-0.10309208032084485]",100.0,"[0.058597195466328536,-0.04745026650136358]",100.0,"[0.07836172896452788,-0.11665723549476636]",100.0,"[-0.06312403139250057,-0.015276331564445205]",100.0,"[-0.12675756887174933,-0.016368704792836863]",100.0,"[0.1450804128187372,0.07706062736610089]",100.0,"[-0.08138401572127159,-0.15782258722780518]",100.0,"[0.040098988964755555,0.12335803252400955]",100.0,"[0.04843269507040728,0.05503080605176952]",100.0,"[-0.17127074020711022,-0.028937328980937906]",100.0,"[-0.11152477399215215,0.07791991088309454]",100.0,"[-0.03478216453622611,-0.17744843410299532]",100.0,"[0.1630049129836872,-0.09913833582592031]",100.0,"[0.02,0.02]",181.3842,0.0,21.0,21.0,23.0,1.0,,,,,,,
,,,,,,,68351f228b33e2f958c2de51,683aeef3660e9195595d3707,2025-05-31_08h01.08.964,shape_ratio,2024.1.5,Win32,60.24096386,683ae9196541af24d3a69e58,,,,,,,,,,,181.3854,181.8841,,,182.1376,182.7172,left,,,,,,,,0.9,,,,,,181.8842,182.1375,0.5737,,182.7173,"[0.13283583763079126,-0.1461793984881224]",100.0,"[0.14000032650626215,0.027181398806078935]",100.0,"[0.018444179893587286,0.1281053367264217]",4.0,"[-0.013413163482236413,0.04867391536231473]",100.0,"[0.04760844648973535,-0.15748818197948872]",100.0,"[-0.0636306034917714,0.16714427784832633]",100.0,"[-0.15479692347267326,-0.11855009149564252]",100.0,"[0.05145524627525953,-0.029369347978062017]",4.0,"[0.07484307313006955,0.05443905089664021]",100.0,"[-0.07315210488755267,0.05177870975910697]",100.0,"[0.012920419817299581,-0.0718972607523037]",100.0,"[-0.04916359060889764,0.10225739081021806]",100.0,"[-0.005520117298091153,-0.1684077443906989]",100.0,"[0.13454241588591073,-0.04489447764777152]",100.0,"[-0.14792729131131044,-0.045428014820027625]",100.0,"[-0.05016958843702532,0.01220204166321529]",100.0,"[0.017530627563825164,-0.1241140196306467]",100.0,"[0.03752552319382352,0.07143132315796272]",100.0,"[-0.16191476188004433,0.013201337108612812]",100.0,"[0.12379023311637197,0.12256602061609505]",100.0,"[-0.09310799860599935,-0.025919260276913794]",100.0,"[-0.0725972130715812,-0.07054267734864575]",100.0,"[0.10739994711868718,-0.10293412777189159]",100.0,"[-0.184593943743811,0.05185566079055775]",100.0,"[-0.1010385625751273,0.10811185861757354]",100.0,"[-0.14238268363988602,0.13980806899495088]",100.0,"[-0.030164071940140005,-0.06128341847638219]",4.0,"[-0.11078025108804142,-0.15404896760806389]",100.0,"[-0.01549151673312665,0.1537761368225678]",100.0,"[0.03065388699114861,0.028694096463822073]",100.0,"[0.045838272656081584,0.17487656114852948]",100.0,"[0.1835110033121298,-0.03922165415429626]",100.0,"[0.02,0.02]",183.816,0.0,22.0,22.0,22.0,1.0,,,,,,,
,,,,,,,68351f228b33e2f958c2de51,683aeef3660e9195595d3707,2025-05-31_08h01.08.964,shape_ratio,2024.1.5,Win32,60.24096386,683ae9196541af24d3a69e58,,,,,,,,,,,183.8171,184.3165,,,184.5675,185.0504,right,,,,,,,,0.4,,,,,,184.3167,184.5672,0.4557,,185.0507,"[-0.05851092058972217,-0.11974706143269027]",4.0,"[0.17522233358954165,0.055454361722367486]",4.0,"[0.05366110667071159,-0.09409129491860582]",4.0,"[0.02215676958198357,0.12406474394013528]",4.0,"[-0.0776145867884754,0.18322394877508083]",100.0,"[-0.135651826000026,-0.059051681214747534]",4.0,"[-0.13909158999724947,-0.016095585582451593]",100.0,"[-0.09540194145330083,-0.10014450216670576]",4.0,"[-0.18389339904756893,0.03545564213121689]",100.0,"[0.0008174239875501968,-0.07291082593864738]",4.0,"[0.004748594521031831,-0.14114013807827652]",100.0,"[0.1357452705334225,-0.05812769057582375]",4.0,"[0.14863775608920932,0.0031698582915001506]",4.0,"[0.11529841965550648,0.15498751545254585]",100.0,"[0.06777103370626622,0.08619525496033766]",4.0,"[0.14378065667854373,0.08757311774233849]",100.0,"[-0.07819633461832676,-0.03702637617060726]",100.0,"[0.1865366615085552,-0.035409633652692146]",100.0,"[-0.07398202540813557,0.10491885584916216]",4.0,"[0.1029893774241339,0.017897061613449138]",4.0,"[-0.16945303941633566,0.08617472156064869]",4.0,"[0.0204895669422406,-0.03599538129558991]",100.0,"[-0.13636752693120402,-0.14281409504305717]",4.0,"[-0.059428032978698406,-0.07873988942962411]",4.0,"[-0.1312959275381734,0.12152105437066424]",4.0,"[-0.03729651641416803,0.1215169170688191]",100.0,"[0.14690679618850164,-0.11655442682622151]",100.0,"[0.05998517352097961,0.024905644367928338]",4.0,"[-0.09590112833961349,0.03652248966740638]",100.0,"[-0.1943980083790421,-0.027423264239150067]",4.0,"[-0.04777748673817507,0.026729961758723095]",4.0,"[-0.13267577574616124,0.054615115137407196]",100.0,"[0.02,0.02]",186.1487,0.0,23.0,23.0,179.0,1.0,,,,,,,
,,,,,,,68351f228b33e2f958c2de51,683aeef3660e9195595d3707,2025-05-31_08h01.08.964,shape_ratio,2024.1.5,Win32,60.24096386,683ae9196541af24d3a69e58,,,,,,,,,,,186.1491,186.6485,,,186.8998,187.8324,right,,,,,,,,0.55,,,,,,186.6486,186.8996,0.9101,,187.8326,"[0.08487436944502162,0.08741234323357672]",4.0,"[-0.05887636852502533,0.05089839466510566]",4.0,"[-0.10895102779759354,0.08159407053821048]",100.0,"[0.000023094635911970264,-0.12344872796273522]",100.0,"[0.07273140357153825,-0.08805896196245057]",4.0,"[0.06448170722305395,-0.0117979763616617]",100.0,"[0.14316959924717892,0.10215783574127268]",100.0,"[-0.043631919153228664,-0.14056013935890974]",100.0,"[0.034148052680835705,-0.18934043856321883]",4.0,"[-0.08143484678344733,-0.05942728596090974]",100.0,"[0.17469486271654835,0.0038981584565129434]",4.0,"[-0.05825332290739094,0.15658041723541669]",4.0,"[-0.19513472029902612,0.04048385119922991]",100.0,"[-0.1378309226164464,0.004707856449187474]",100.0,"[-0.12299035329533098,-0.10162555200739201]",100.0,"[-0.04598231203333811,-0.19052750182809156]",4.0,"[-0.16837944021894288,0.09143197588731264]",4.0,"[0.12857992719098935,-0.1233537862277365]",100.0,"[0.0210503822852194,0.12202738859709167]",4.0,"[0.0181188041074725,-0.008503263585699975]",100.0,"[-0.08034019460419743,0.010169623507953807]",100.0,"[-0.07012253401717775,0.10808204686985524]",100.0,"[0.06096114337847504,0.12846677489385677]",4.0,"[0.024515244530820494,0.050913553137231435]",4.0,"[0.18017932012640642,-0.08199730433728007]",4.0,"[-0.02482449628249451,-0.06680134766745724]",100.0,"[0.18531059768704095,0.05547039805241917]",4.0,"[0.11917772484262926,0.15750999355616846]",100.0,"[0.11129920307542526,0.0540862509759737]",100.0,"[0.13736520719860457,-0.024471401208339506]",4.0,"[-0.09226533664389616,-0.1514358510282484]",100.0,"[0.06600930995198523,0.04681967545986199]",100.0,"[0.02,0.02]",188.9322,0.0,24.0,24.0,88.0,1.0,,,,,,,
,,,,,,,68351f228b33e2f958c2de51,683aeef3660e9195595d3707,2025-05-31_08h01.08.964,shape_ratio,2024.1.5,Win32,60.24096386,683ae9196541af24d3a69e58,,,,,,,,,,,188.9343,189.432,,,189.685,190.8807,right,,,,,,,,0.5,,,,,,189.4322,189.6849,1.1822,,190.8808,"[-0.1432229667999989,0.11195194133808158]",100.0,"[0.10183127672173387,0.047454521855076835]",4.0,"[-0.07571783671810194,-0.034350311571518084]",100.0,"[0.024632984987547468,-0.06186601714910604]",100.0,"[-0.005491623426728317,0.07981567271676702]",4.0,"[0.09997672277300153,-0.14351719568913474]",100.0,"[0.17542421716566728,-0.0030745835000419086]",4.0,"[-0.0636679758457157,0.09667464581631363]",4.0,"[0.08402633465361664,-0.04063144261178451]",4.0,"[-0.13104216350610706,-0.0030467094671532474]",4.0,"[0.1350461146469568,-0.08280159307031672]",4.0,"[0.0341926479156027,0.01695277280090971]",4.0,"[-0.07106461717579934,-0.10619341483477904]",100.0,"[0.08131812696593087,0.12090872389580036]",4.0,"[-0.023037231545398527,0.012714733573158995]",100.0,"[0.0504980080860218,0.07890218437849171]",4.0,"[0.007841179534790571,0.17806251780051838]",100.0,"[0.03752153624581718,-0.1735707469701787]",4.0,"[-0.07918905607973442,0.15986271576797192]",100.0,"[0.13040436921234927,0.12292415088273018]",100.0,"[-0.018859844531238654,-0.06913287360435709]",4.0,"[-0.11359466728396637,-0.05243964442974445]",4.0,"[-0.14308619547845783,-0.1281916603828317]",4.0,"[-0.18947137000914946,-0.004218883784532497]",100.0,"[0.006685646463044884,0.12249667414173548]",100.0,"[0.008274729966604144,-0.11069183982811234]",100.0,"[-0.039330162362403255,0.17231846268716322]",4.0,"[-0.02791264476599875,-0.14670913066184432]",100.0,"[0.1527577747645438,-0.12741448186727292]",4.0,"[0.008492767497493758,-0.014347894279453327]",100.0,"[0.0892227801089896,0.17492871159885875]",100.0,"[-0.0670135596734919,0.023349990681597592]",100.0,"[0.02,0.02]",191.9811,0.0,25.0,25.0,102.0,1.0,,,,,,,
,,,,,,,68351f228b33e2f958c2de51,683aeef3660e9195595d3707,2025-05-31_08h01.08.964,shape_ratio,2024.1.5,Win32,60.24096386,683ae9196541af24d3a69e58,,,,,,,,,,,191.9819,192.4809,,,192.7356,193.3981,left,,,,,,,,0.4,,,,,,192.4811,192.7355,0.6482,,193.3983,"[-0.15984887397601916,-0.10225053445337484]",4.0,"[0.19313143012311287,0.002038233362566268]",100.0,"[-0.06691935180317865,-0.04607808690361024]",4.0,"[-0.06845516269125487,0.10775209741990115]",4.0,"[-0.07254748491921062,-0.18420294173860827]",100.0,"[0.06275336684253774,-0.12124865888203247]",100.0,"[-0.10332953559676793,-0.1205863177857125]",4.0,"[0.03551123934967177,0.08571188977812712]",4.0,"[0.019541271110265605,-0.019953918124287835]",4.0,"[0.03406055110576743,0.1657403276067109]",4.0,"[0.16850697737642584,0.10128691733573811]",4.0,"[-0.007688774954495646,-0.10874037446139834]",4.0,"[0.14078305007713615,-0.11890938243809686]",100.0,"[0.1145599419819279,-0.01741869552553643]",100.0,"[-0.004843081959984837,-0.149548856294133]",4.0,"[-0.14528968514910248,0.03652408687843334]",100.0,"[-0.15368524648643359,-0.053284419943376654]",4.0,"[0.08704967365747605,0.024755578628954632]",4.0,"[0.038209731078657126,-0.07467760172088853]",4.0,"[0.12588093333268685,-0.06305106490639924]",100.0,"[0.08663440525098128,0.14319705904426766]",100.0,"[-0.130380956708184,-0.01723592849515232]",4.0,"[-0.062304577772282856,-0.004696220707646674]",100.0,"[0.06137474095775702,-0.1701443863963848]",100.0,"[-0.046528783569600086,-0.13068291263472867]",100.0,"[-0.023842438871914475,0.12463011251873146]",4.0,"[-0.11777635239808533,0.15886933481130183]",4.0,"[0.12561742145628965,0.15541978494172662]",100.0,"[-0.19106613021851504,-0.032833384003555614]",4.0,"[0.020800381109685778,0.03616038197674833]",4.0,"[0.09951442855725562,-0.1570747886962306]",4.0,"[-0.0725600543547959,0.17599701789161754]",100.0,"[0.02,0.02]",194.4964,0.0,26.0,26.0,175.0,1.0,,,,,,,
,,,,,,,68351f228b33e2f958c2de51,683aeef3660e9195595d3707,2025-05-31_08h01.08.964,shape_ratio,2024.1.5,Win32,60.24096386,683ae9196541af24d3a69e58,,,,,,,,,,,194.4975,194.9963,,,195.2469,196.3973,left,,,,,,,,0.5,,,,,,194.9964,195.2467,1.1181,,196.3974,"[0.07260591197305304,-0.08099458491200798]",100.0,"[0.00011382325007676643,0.1355119234431676]",4.0,"[-0.055192731402477366,0.12447603866516176]",100.0,"[0.0668297937163571,-0.1514404755150616]",4.0,"[0.07594780972737535,0.0362008710276242]",100.0,"[-0.02514752988470975,-0.09237867017002394]",4.0,"[0.02330121813073212,0.19542353143620075]",4.0,"[-0.17466987906087456,0.043870172513194715]",4.0,"[-0.13131037577221824,0.04648340896989103]",4.0,"[0.15148359594289773,-0.015567470196029536]",100.0,"[0.15695679362044834,0.08822446756056483]",100.0,"[-0.0026099546591377364,0.0780878951162311]",100.0,"[-0.05511788058407018,0.17538845001356565]",100.0,"[-0.07826116946266558,-0.01786813832602031]",100.0,"[-0.12140334261719948,0.004477210590338663]",4.0,"[0.0373367767963923,-0.11898243097573495]",100.0,"[-0.17044608843228268,-0.02374413382974981]",4.0,"[-0.12600028292906365,-0.048400117885977784]",100.0,"[-0.08567883636490892,-0.17304097164444102]",4.0,"[0.12474429055476825,0.023776837386674417]",100.0,"[-0.13063572220652409,0.13256010861718465]",4.0,"[0.031170550231023355,0.010402969978318103]",4.0,"[0.01452618336105748,-0.06851380812913806]",4.0,"[0.09539551450297942,0.1687978715551669]",100.0,"[0.11623830196596914,0.1257411425436188]",100.0,"[0.12394121373456689,-0.0660340087780176]",100.0,"[0.18330259649946182,0.04560411397756622]",100.0,"[0.02011489425977943,-0.18531018513356742]",4.0,"[-0.11765415058029623,-0.14658852746237364]",4.0,"[-0.022928553622390088,0.003174886507585502]",4.0,"[-0.03257529609080801,-0.1435688546623351]",100.0,"[-0.15455886369392674,0.08504111579984516]",4.0,"[0.02,0.02]",197.4966,0.0,27.0,27.0,94.0,1.0,,,,,,,
,,,,,,,68351f228b33e2f958c2de51,683aeef3660e9195595d3707,2025-05-31_08h01.08.964,shape_ratio,2024.1.5,Win32,60.24096386,683ae9196541af24d3a69e58,,,,,,,,,,,197.4982,197.9954,,,198.246,198.5956,right,,,,,,,,0.5,,,,,,197.9954,198.2458,0.323,,198.5958,"[-0.10364653038936972,-0.08690424339320847]",100.0,"[-0.0071862509226466266,0.010051422786171571]",100.0,"[-0.04462521936817379,0.04502812359698054]",100.0,"[0.13643248453817924,0.056380278801786934]",100.0,"[0.08585152918814501,-0.13908750214474075]",4.0,"[0.005337082017508225,0.1981411489456904]",100.0,"[0.18168198343501354,-0.05849455581766865]",100.0,"[0.019064249410873056,0.04316277652792657]",100.0,"[-0.014004767721092486,-0.15313137636502008]",4.0,"[-0.13603689414597187,-0.12101532074326053]",100.0,"[0.06449387898652234,0.07446352754020884]",100.0,"[0.01771787247490629,-0.12431414401367138]",4.0,"[0.06015935446479618,-0.05874103458386574]",4.0,"[-0.09184703661138117,-0.1406902518918144]",100.0,"[-0.17806343190534363,-0.006520653784169074]",100.0,"[0.10225909102887634,0.12737260647164286]",4.0,"[-0.022501411752975906,0.16023713118925068]",100.0,"[0.12009417700454748,-0.05880491375343935]",100.0,"[-0.09280928668549891,-0.0330486263515986]",4.0,"[0.04438868862868786,0.10992299547697289]",4.0,"[0.17634459213475767,0.0738564217022425]",100.0,"[0.1017059951090535,-0.01153526570333231]",4.0,"[-0.08891558248343068,0.15467034176194808]",4.0,"[-0.0679867591841689,0.08741219987272668]",4.0,"[-0.038670210040320965,-0.05494567829528306]",4.0,"[-0.10750012778152229,0.05969008682723761]",4.0,"[0.19535071817575816,0.03464649895316687]",4.0,"[0.0516561177332176,-0.10244503301763636]",100.0,"[0.142579276370946,0.13130438801623698]",4.0,"[-0.14382991605431555,-0.07730049487539013]",100.0,"[-0.12396916508264312,0.11713496004291438]",4.0,"[-0.06339710276429704,-0.17241548061825396]",4.0,"[0.02,0.02]",199.695,0.0,28.0,28.0,110.0,1.0,,,,,,,
,,,,,,,68351f228b33e2f958c2de51,683aeef3660e9195595d3707,2025-05-31_08h01.08.964,shape_ratio,2024.1.5,Win32,60.24096386,683ae9196541af24d3a69e58,,,,,,,,,,,199.696,200.1959,,,200.4468,201.0294,right,,,,,,,,0.1,,,,,,200.196,200.4466,0.5523,,201.0296,"[-0.17887884853241748,0.06687062792108674]",4.0,"[-0.07376025427656671,0.11000890110449943]",100.0,"[-0.05093735114646977,0.1927042629984795]",4.0,"[0.0326301132772705,-0.1394778334861201]",4.0,"[-0.016705764998189633,0.10812538556570549]",4.0,"[0.011410832574792532,0.16100070325673166]",4.0,"[-0.02598670173123216,-0.1612166657766516]",4.0,"[-0.014399036369408,-0.0648280973100749]",100.0,"[0.058264603379370686,-0.18596008845391382]",4.0,"[0.18703101715457354,0.0009188609281849514]",4.0,"[0.13830926226777235,0.08649159419452154]",4.0,"[0.12181929355484875,-0.0405653758344316]",100.0,"[0.05118913820973532,-0.05996845821349991]",4.0,"[-0.1986339430050832,-0.021030339911387703]",4.0,"[0.09009221672103189,0.008706269527891854]",4.0,"[0.08283844209530648,0.17381437630325577]",4.0,"[-0.006363166823686413,0.026120849049816194]",4.0,"[0.07112451956377638,-0.09543252810680396]",4.0,"[-0.09858472765796192,0.07447379454471051]",4.0,"[0.08560737353522004,0.12177732148842839]",4.0,"[0.0054128760023269,-0.10674608534634747]",4.0,"[0.13664814797592761,-0.09931077393933758]",4.0,"[-0.09354940917062102,-0.057366529111696346]",4.0,"[-0.14687706417421142,-0.10789878881488088]",4.0,"[0.12950214591683612,-0.1477879013752806]",4.0,"[0.17520421969027475,0.05131409749003056]",4.0,"[-0.10469848463186748,-0.11358099747583325]",4.0,"[-0.1119162907430229,0.0006188173449686506]",4.0,"[0.04222126930000785,0.08501075426031578]",4.0,"[-0.14629934380652054,-0.04403509497564361]",4.0,"[-0.07227161310893178,-0.014254089621172857]",4.0,"[-0.1632695366851025,0.0064832510268207555]",4.0,"[0.02,0.02]",202.1283,0.0,29.0,29.0,193.0,1.0,,,,,,,
,,,,,,,68351f228b33e2f958c2de51,683aeef3660e9195595d3707,2025-05-31_08h01.08.964,shape_ratio,2024.1.5,Win32,60.24096386,683ae9196541af24d3a69e58,,,,,,,,,,,202.1302,202.6276,,,202.8782,203.9791,right,,,,,,,,0.4,,,,,,202.6276,202.878,1.0707,,203.9793,"[-0.07636366900223757,0.15793225339397887]",100.0,"[-0.1706977231166084,-0.05260364802077059]",4.0,"[-0.020785342123794286,0.1699347358260406]",4.0,"[0.13517382085305651,-0.1443459288762774]",4.0,"[-0.05665253009885929,0.03994371590452282]",100.0,"[0.025182899067481692,0.19480132945831707]",4.0,"[-0.08195818676156745,-0.010166017487112655]",4.0,"[-0.1364829150949583,-0.1194563395387424]",4.0,"[0.01747387772799766,-0.0984405457423319]",4.0,"[-0.057833078887049146,-0.1777993429199303]",100.0,"[0.08199962058431647,0.15263423076266047]",100.0,"[-0.035790273144045606,-0.029511465443057883]",4.0,"[0.015481103266411259,0.020415679024817068]",4.0,"[0.121061378045853,0.042130056655330636]",100.0,"[0.13919083221772724,-0.08765656724523573]",4.0,"[-0.05334888983955644,0.11581827234223681]",4.0,"[-0.04431009427315672,-0.08250873758882026]",4.0,"[0.18191519018674007,0.01700502837490791]",4.0,"[-0.12494883020490327,0.11546894834528851]",4.0,"[0.06266384312604004,-0.045521605725691604]",4.0,"[0.05925586193526515,0.09176711290167969]",100.0,"[-0.09789823139325435,0.046901611310214565]",4.0,"[0.12547260986005832,0.11134544390608606]",4.0,"[0.07086122146844782,-0.08869674133070272]",100.0,"[-0.008602744767084877,0.10387504764485575]",4.0,"[-0.1229574791817353,-0.06854162479015898]",100.0,"[-0.17769645497177813,0.03369351227517355]",100.0,"[0.07323407098997686,0.012418841685993718]",100.0,"[-0.1685038703922913,0.0803398819563412]",100.0,"[0.0075695630684603004,-0.055100982011978404]",100.0,"[-0.0847133634170239,-0.1326802500982575]",4.0,"[0.10019203621876088,-0.021743262074303268]",100.0,"[0.02,0.02]",205.0773,0.0,30.0,30.0,169.0,1.0,,,,,,,
,,,,,,,68351f228b33e2f958c2de51,683aeef3660e9195595d3707,2025-05-31_08h01.08.964,shape_ratio,2024.1.5,Win32,60.24096386,683ae9196541af24d3a69e58,,,,,,,,,,,205.0786,205.578,,,205.8279,206.4782,right,,,,,,,,0.4,,,,,,205.5781,205.8278,0.6292,,206.4784,"[0.07250595758137829,-0.012380745369099212]",100.0,"[-0.12115413282998955,-0.07518487135346505]",100.0,"[0.13877386844173653,0.030606794390731287]",4.0,"[-0.13243446194441377,0.018955232562815904]",4.0,"[-0.10404698246142663,0.14036495866820936]",100.0,"[0.02295472610985296,0.1030038723034474]",4.0,"[-0.018047713974919874,-0.11442413935112784]",4.0,"[0.12246526766008635,-0.040140170194926376]",100.0,"[-0.04879716532787514,0.10041871009401386]",4.0,"[0.03372522320187833,0.0534840691033467]",4.0,"[0.09097848693657629,0.10988146863538863]",4.0,"[0.029740233080660514,-0.11247672283050049]",100.0,"[0.12788325093178168,-0.0819878536396633]",4.0,"[0.10179736137014099,0.04744196303748164]",100.0,"[-0.006427999570038914,-0.18347825761458683]",4.0,"[0.035394689863598366,-0.052121662309871995]",100.0,"[0.03751688949521059,0.18185832319659145]",4.0,"[-0.010570179730081352,-0.012456870312326451]",100.0,"[0.037544649050118346,-0.17888005865213513]",4.0,"[-0.08682813225930303,0.05763107544705741]",4.0,"[-0.17848292879813152,-0.05219463190834892]",4.0,"[-0.13924488488920989,0.11187699782382354]",100.0,"[-0.04838395990853708,-0.16103676173148132]",4.0,"[0.13622571266856923,0.08129715319032643]",4.0,"[-0.016743593290964514,0.03821081817129448]",4.0,"[-0.08554992145027883,0.01582831413498672]",100.0,"[-0.12233485584213843,-0.020082773459019043]",4.0,"[0.1836123306300097,-0.0038506990872514838]",4.0,"[-0.007300791491447878,0.17550989229152647]",100.0,"[-0.07998327891906098,-0.04859055806312307]",4.0,"[-0.06572744270569465,0.18795133057278282]",100.0,"[-0.0170805885105177,0.12764076301982696]",100.0,"[0.02,0.02]",207.5763,0.0,31.0,31.0,153.0,1.0,,,,,,,
,,,,,,,68351f228b33e2f958c2de51,683aeef3660e9195595d3707,2025-05-31_08h01.08.964,shape_ratio,2024.1.5,Win32,60.24096386,683ae9196541af24d3a69e58,,,,,,,,,,,207.5776,208.0769,,,208.3271,209.2274,left,,,,,,,,0.55,,,,,,208.0771,208.327,0.8735,,209.2275,"[0.08375902155079495,0.1772441252786682]",100.0,"[-0.11976526421800626,0.06826387852866436]",4.0,"[-0.01438345824647747,-0.11006168442194252]",4.0,"[0.09680740547433314,-0.0523572438813712]",100.0,"[-0.06769763869009814,-0.08196741146210937]",4.0,"[-0.08908485412962987,-0.12152973900672481]",100.0,"[0.12017506135783364,-0.011593771404840763]",100.0,"[-0.017877903064923054,0.026153856853287822]",4.0,"[-0.046153056771771166,0.17927675751207145]",4.0,"[-0.05769231341512232,0.0004570611169493382]",4.0,"[0.09684573007928911,-0.09815136210419524]",100.0,"[0.023870137048695422,-0.0012570729732185454]",4.0,"[0.171682329081765,-0.09229305719183417]",100.0,"[0.01126190951101409,-0.19110196137992277]",4.0,"[-0.11499305302388939,-0.032701067330869124]",4.0,"[0.13992849202356136,0.044140245067083465]",100.0,"[0.14127420155305231,0.1221044190858656]",100.0,"[-0.18147655510532365,0.07515205562665163]",100.0,"[-0.003972170483206861,0.09804468200897898]",100.0,"[0.0717115493478049,0.13160139419343772]",4.0,"[0.1025164891766597,-0.17150789132339536]",4.0,"[0.18014496447548503,0.030784083227672936]",100.0,"[0.0721932908817666,0.024341677343441153]",100.0,"[-0.05617616856756263,0.053298658079668076]",100.0,"[0.04826549001282789,0.09064269956846083]",4.0,"[0.06249751576393054,-0.12642676564007052]",4.0,"[0.1856813272527562,-0.033987862369707404]",100.0,"[-0.19395144873573095,-0.04180090106558219]",100.0,"[-0.1336997497911333,-0.11285900715629864]",100.0,"[-0.10055563056905496,0.13850635010489148]",4.0,"[0.0254988215766717,0.05660705652371135]",100.0,"[-0.02492378293694341,-0.06943360351047694]",100.0,"[0.02,0.02]",210.3255,0.0,32.0,32.0,76.0,1.0,,,,,,,
,,,,,,,68351f228b33e2f958c2de51,683aeef3660e9195595d3707,2025-05-31_08h01.08.964,shape_ratio,2024.1.5,Win32,60.24096386,683ae9196541af24d3a69e58,,,,,,,,,,,210.3268,210.8253,,,211.0765,211.7754,right,,,,,,,,0.55,,,,,,210.8253,211.0762,0.6722,,211.7756,"[0.09062944894072307,0.155013108863672]",100.0,"[-0.0734623506708162,-0.06530112404469139]",4.0,"[-0.07341980903775401,0.10014072556741828]",100.0,"[-0.11856176146728606,-0.10115169742232905]",100.0,"[0.0803065452300146,-0.08285991489672032]",4.0,"[0.06758382268024479,-0.1389216975901487]",100.0,"[0.16774013515747851,-0.08986505419165872]",100.0,"[0.031850953576066515,0.06884113179037271]",100.0,"[0.05649419542257897,0.10136661274353823]",100.0,"[-0.09638979258350125,0.1631864913610313]",100.0,"[-0.03092902284332582,0.13451455066483392]",4.0,"[-0.01803685326362812,-0.04838450280441026]",100.0,"[0.15741776535147695,0.054314209601219084]",4.0,"[0.13339030239746627,-0.11846125973767027]",4.0,"[-0.08002697055476017,-0.0018180497325724623]",100.0,"[-0.12567363587695457,0.03107773445283182]",4.0,"[-0.15710545957286712,0.07128364549267463]",100.0,"[0.062451153514408955,0.04135878091528109]",100.0,"[-0.0809161432839652,-0.17037021991242016]",4.0,"[0.10274821094748122,0.0337870594345197]",4.0,"[0.132603784863716,-0.06691191823707397]",100.0,"[-0.045937672898925606,0.18177044374540882]",100.0,"[0.009641117719888903,-0.09809601451751106]",4.0,"[0.15974540151953973,-0.027290024300861453]",100.0,"[0.030614480351696335,-0.04884176806622268]",4.0,"[-0.0007273351405298991,0.17780994677256665]",100.0,"[0.11481219601023346,0.07318728339891839]",4.0,"[-0.01335972336177759,-0.007168908650427639]",100.0,"[0.04181300459652743,-0.1761183911309477]",4.0,"[0.0041169164076291604,-0.1410266471102778]",100.0,"[0.12486022885154568,0.12191320168242209]",4.0,"[0.042278307380712116,0.14700005592398357]",4.0,"[0.02,0.02]",212.8753,0.0,33.0,33.0,63.0,1.0,,,,,,,
,,,,,,,68351f228b33e2f958c2de51,683aeef3660e9195595d3707,2025-05-31_08h01.08.964,shape_ratio,2024.1.5,Win32,60.24096386,683ae9196541af24d3a69e58,,,,,,,,,,,212.877,213.3755,,,213.627,214.5078,left,,,,,,,,0.6,,,,,,213.3757,213.6267,0.862,,214.5078,"[-0.04486705745202335,0.14260363674148738]",100.0,"[0.04092718620298994,0.09906316456392458]",4.0,"[0.1567750018128858,-0.0447810347849864]",100.0,"[0.1068879286887047,0.041048730356784476]",100.0,"[-0.09919329348599483,-0.03690271465848959]",100.0,"[0.15234344384404877,0.11268474959953587]",4.0,"[-0.15735301512434244,0.11795321498342352]",100.0,"[0.054404950907348176,0.14935305412290886]",4.0,"[-0.036736513691298524,0.19192399665954635]",100.0,"[0.1459107319762919,0.0643957887446145]",4.0,"[0.057211391760042335,-0.06323061955825189]",4.0,"[-0.081166090142709,-0.1793342911197849]",4.0,"[-0.025166624714886666,0.024356803953296015]",4.0,"[-0.0939312392884659,0.15180209012782866]",100.0,"[-0.019598771727056256,-0.018590269909871372]",100.0,"[-0.03562427805712487,-0.17131410274419942]",100.0,"[-0.12890205274182767,0.07658513302338686]",4.0,"[0.12559511396528017,-0.07613130093837257]",100.0,"[-0.007351522464499275,-0.08605962190848084]",100.0,"[-0.12766312149444806,-0.08304862906079012]",4.0,"[-0.09575730731282084,0.10813031728861697]",100.0,"[-0.12750061513109864,-0.12898820388023471]",100.0,"[0.09374682365934196,0.08106098087579933]",4.0,"[-0.15954425661518334,0.016880074461291944]",100.0,"[0.060073839233183976,-0.1764078903884799]",100.0,"[0.10462659983724491,-0.12028148540459385]",100.0,"[-0.08536131062206018,0.05985106304481174]",4.0,"[0.10859975281197544,-0.020087118965666645]",100.0,"[-0.01702737178020374,0.08723405144028737]",100.0,"[0.09889953009430055,0.15070200696955258]",4.0,"[-0.06884123506888952,-0.06308433784550169]",4.0,"[0.07177356624514071,0.010294108609916352]",100.0,"[0.02,0.02]",215.6073,0.0,34.0,34.0,52.0,1.0,,,,,,,
,,,,,,,68351f228b33e2f958c2de51,683aeef3660e9195595d3707,2025-05-31_08h01.08.964,shape_ratio,2024.1.5,Win32,60.24096386,683ae9196541af24d3a69e58,,,,,,,,,,,215.6081,216.1082,,,216.3584,216.9411,right,,,,,,,,0.5,,,,,,216.1085,216.3583,0.5538,,216.9412,"[-0.1607971222398995,0.10725336698119996]",100.0,"[0.16393153203448008,0.011068560841458576]",100.0,"[0.04574419981895432,-0.05029595401759746]",100.0,"[0.1121067243780562,0.13070338055035935]",4.0,"[-0.010742514853712174,0.05116596152623036]",100.0,"[0.035554789428578815,0.06704830490031978]",4.0,"[-0.07390349867210945,-0.17227244978614123]",100.0,"[0.15081993062984364,0.0629659719920478]",4.0,"[-0.08485523308918322,-0.077529787854532]",4.0,"[0.07564931626063558,-0.09346989927584773]",100.0,"[0.008997844328243748,-0.12982701758476234]",4.0,"[0.12460735476052226,-0.13477772557866702]",100.0,"[0.015162008071500718,-0.1717332293800912]",4.0,"[-0.03383000954435974,-0.16358385509415208]",100.0,"[0.12702842573636078,0.02972775675364402]",4.0,"[0.15062064733583427,-0.06076050129941482]",4.0,"[0.08272908922923732,-0.03114745703906238]",4.0,"[-0.058040632839963614,0.0251628688416768]",4.0,"[-0.15490353543603494,-0.08083477289887649]",100.0,"[0.06371655149247826,0.15971133599905216]",4.0,"[-0.19295131436413768,-0.005673499205181309]",100.0,"[-0.025302364258170895,-0.0593380770478236]",4.0,"[0.0975672072833093,-0.1708596334776897]",100.0,"[0.05992198661263923,0.015638041281771167]",4.0,"[-0.13569683527532286,0.025286849296599086]",4.0,"[-0.11816984343121495,0.12580644300652832]",100.0,"[0.17226968518285835,0.1001465617894776]",100.0,"[-0.07751495073982628,0.11776522862876894]",100.0,"[-0.1282540082385574,-0.15025165151099215]",4.0,"[-0.05476773765172352,-0.12804151394906263]",100.0,"[-0.09760991818295198,0.06458152482800035]",4.0,"[-0.027310281525840013,0.11585773201189162]",100.0,"[0.02,0.02]",218.0402,0.0,35.0,35.0,105.0,1.0,,,,,,,
,,,,,,,68351f228b33e2f958c2de51,683aeef3660e9195595d3707,2025-05-31_08h01.08.964,shape_ratio,2024.1.5,Win32,60.24096386,683ae9196541af24d3a69e58,,,,,,,,,,,218.0416,218.5398,,,218.7904,219.5565,right,,,,,,,,0.1,,,,,,218.5399,218.7902,0.7356,,219.5567,"[-0.019689755485259784,-0.13187641355558952]",4.0,"[-0.08648556107726608,0.12977930670438267]",4.0,"[0.1857558056805685,-0.04263688905182942]",4.0,"[0.12035783845308355,-0.1306387429271723]",4.0,"[-0.14276704236234278,-0.09753111158503662]",4.0,"[0.08518457529006897,-0.020172365908046663]",4.0,"[-0.15891353866079938,0.11645899389728866]",4.0,"[-0.046613322782922906,-0.05481405230332116]",4.0,"[-0.037006603072281846,0.05581787403358247]",4.0,"[0.1692128442710164,0.06432360358675294]",4.0,"[0.09205456329527574,-0.0641336564587525]",4.0,"[0.14607624591829865,-0.06134964981036479]",100.0,"[-0.12114300684715563,0.09791037601596636]",4.0,"[-0.0008960187211030365,0.07394014761964249]",100.0,"[0.03980930201114367,-0.12583005445697748]",4.0,"[0.037834290547342615,0.05214155649672783]",4.0,"[0.03608494369657749,0.19449329017975325]",4.0,"[0.009684043074100267,-0.026330518614440645]",4.0,"[0.06546822887069756,-0.16053478348959585]",4.0,"[0.09668169524944976,0.09473059108676776]",4.0,"[-0.019680058657426728,0.11763409469791222]",4.0,"[0.19388328691531903,0.030791625027944056]",4.0,"[0.03263732897931098,0.1462537938862506]",4.0,"[-0.05824526026584737,0.01361230444463503]",4.0,"[0.10894312224012127,0.015722284239786558]",100.0,"[0.1380391992477327,0.14108456931150742]",4.0,"[0.08302899024207418,-0.10334090135896574]",4.0,"[-0.08594999536487294,-0.0350569354517768]",4.0,"[-0.032946146162025194,0.17218090660136895]",4.0,"[0.16513301726765287,-0.006656959887959746]",4.0,"[-0.16630794486643583,-0.04563748569640571]",4.0,"[-0.06422302248702076,0.09481307996146951]",4.0,"[0.02,0.02]",220.6572,0.0,36.0,36.0,183.0,1.0,,,,,,,
,,,,,,,68351f228b33e2f958c2de51,683aeef3660e9195595d3707,2025-05-31_08h01.08.964,shape_ratio,2024.1.5,Win32,60.24096386,683ae9196541af24d3a69e58,,,,,,,,,,,220.6589,221.1572,,,221.4069,222.5389,left,,,,,,,,0.45,,,,,,221.1574,221.4066,1.1265,,222.539,"[-0.03038322047794003,-0.012195051930349388]",4.0,"[0.07429304941753512,-0.1491351773008787]",100.0,"[0.007990399306704437,0.15160453235322027]",100.0,"[0.15689543169189088,0.05958370778970772]",4.0,"[0.15330260322063943,-0.08405903527736444]",4.0,"[0.10025363031039179,-0.011067719881762132]",4.0,"[-0.11912311337977434,-0.1190947111336556]",4.0,"[-0.05578188254354014,-0.07677630401863335]",4.0,"[-0.0460362237182232,0.1227364328259076]",4.0,"[0.01898012398797564,0.00504669065428862]",4.0,"[-0.10358849333762345,-0.1683543344564308]",4.0,"[-0.03324767893219951,0.06651213514793183]",4.0,"[-0.08719450674529,0.09434913596482829]",100.0,"[0.1983515709028456,-0.012915663952074871]",4.0,"[0.10078889675896707,0.12777234206839758]",100.0,"[0.04495741962500682,0.11185997877858679]",4.0,"[-0.0759594725381662,0.05509188881978857]",100.0,"[0.07600681036195768,-0.0898310359866388]",4.0,"[-0.1030508553050521,0.019029110043348445]",100.0,"[0.13177942125095898,-0.041812819028803766]",4.0,"[-0.03588200833247041,-0.1252399372025912]",100.0,"[-0.18543013506136793,-0.042608215298726146]",4.0,"[0.008668075456838316,-0.11914927635744328]",100.0,"[-0.12618337845355454,-0.05618897097206236]",100.0,"[0.03127563126410524,-0.05847192963611637]",100.0,"[-0.0012144483561828633,0.09497559323261709]",4.0,"[-0.16789576110094065,0.09775376002114375]",100.0,"[0.14130147194776088,-0.12366010869995889]",100.0,"[-0.02571057005272615,-0.1777463287851149]",100.0,"[0.12329577084226442,0.03134813275313323]",100.0,"[-0.08439874458808379,0.14165766879226524]",4.0,"[-0.167231224332001,-0.07969552478624439]",4.0,"[0.02,0.02]",223.6386,0.0,37.0,37.0,149.0,1.0,,,,,,,
,,,,,,,68351f228b33e2f958c2de51,683aeef3660e9195595d3707,2025-05-31_08h01.08.964,shape_ratio,2024.1.5,Win32,60.24096386,683ae9196541af24d3a69e58,,,,,,,,,,,223.6396,224.1387,,,224.3931,225.0221,left,,,,,,,,0.55,,,,,,224.1388,224.393,0.6226,,225.0223,"[0.12790758300409816,-0.09206210446304827]",4.0,"[-0.13232438317744105,-0.0469538165257648]",4.0,"[-0.10024141533055346,0.09050476026268346]",100.0,"[0.07914146834952998,-0.06205568776585258]",4.0,"[-0.18312951041205852,0.04583927215543165]",100.0,"[-0.11495278341327417,-0.1299599381104292]",4.0,"[0.11903094278476166,0.0009177858889357185]",4.0,"[0.018126940071263677,-0.13778900051404516]",4.0,"[-0.12064144621886001,0.03848310739349072]",4.0,"[0.18322692185346706,-0.039738910815594865]",100.0,"[-0.046671805034252736,0.04112489961481691]",100.0,"[-0.06194639332235262,-0.10545544062944141]",100.0,"[-0.055136739246970094,-0.019408841568653246]",4.0,"[0.04518725405961582,0.08283114509525681]",100.0,"[-0.04205986185353899,-0.14546738856589228]",100.0,"[0.14985030632196492,0.04809606957720824]",4.0,"[0.04591536658314924,-0.17356082217119195]",4.0,"[-0.035024988960041296,0.16929754706226927]",100.0,"[-0.15277252827744917,-0.11486950350486634]",100.0,"[0.022489143512001947,0.028846636778273697]",100.0,"[0.10209404263416107,-0.14087479855663468]",4.0,"[-0.09211890991948339,-0.03979384217050233]",4.0,"[-0.09472269373859292,0.17316183442499158]",100.0,"[0.0348657862789191,0.14590981807642409]",100.0,"[0.009330443005412851,0.17708482689012045]",100.0,"[-0.01477394775284608,-0.02550215663859114]",4.0,"[-0.03502666710622223,0.09560773640222232]",100.0,"[0.11365307055277786,0.12819474702259046]",100.0,"[0.19526964224106091,0.00852643932132405]",100.0,"[-0.059890806954461966,-0.18757711700815646]",4.0,"[0.011662431746937695,-0.06444026578967063]",100.0,"[-0.10152010808137614,-0.08140201125640695]",100.0,"[0.02,0.02]",226.1211,0.0,38.0,38.0,60.0,1.0,,,,,,,
,,,,,,,68351f228b33e2f958c2de51,683aeef3660e9195595d3707,2025-05-31_08h01.08.964,shape_ratio,2024.1.5,Win32,60.24096386,683ae9196541af24d3a69e58,,,,,,,,,,,226.1221,226.621,,,226.876,227.5875,right,,,,,,,,0.55,,,,,,226.621,226.876,0.7009,,227.5875,"[-0.16587308841866752,-0.035083922357085795]",100.0,"[0.15996882679353694,0.11145450258019085]",4.0,"[0.01915211891485972,-0.1964652720238725]",100.0,"[-0.0921368665950397,0.06538581411940045]",4.0,"[-0.03697753090347785,0.0486399993480878]",4.0,"[-0.14677119102652264,0.11172372982462717]",100.0,"[0.11236317568239325,0.012863997733993647]",100.0,"[0.17399029779161837,-0.04716858867242959]",4.0,"[-0.05456602172447882,-0.12082457358073609]",100.0,"[-0.023815555509336075,-0.09201496462652471]",100.0,"[0.05130212204513592,-0.01756282444194055]",4.0,"[0.006122321577119485,-0.14390046572292142]",4.0,"[-0.027826031895820374,0.16665742182408136]",100.0,"[-0.13112162350714815,0.05467185281345509]",4.0,"[-0.1198887959220255,-0.06771012424893853]",100.0,"[-0.1543293058328963,-0.10201582865547895]",4.0,"[0.11353581037650888,0.05572103525978094]",100.0,"[-0.06679673793768404,0.1384139245448086]",4.0,"[0.11812064816051665,-0.1437787630260494]",100.0,"[0.15816917876234493,-0.0979196539103951]",4.0,"[0.06195710580921196,0.1335122906713149]",100.0,"[0.06080606813726523,-0.16772423613156656]",4.0,"[0.09106330212528027,-0.03991875816080251]",4.0,"[0.01750899194804318,0.03337860546975725]",100.0,"[-0.07092103628201382,-0.06817240677140224]",100.0,"[0.07309366966863214,0.056256001476509165]",100.0,"[-0.06003314540372794,-0.01491510614133833]",100.0,"[0.010045024049784556,-0.021036361168523973]",100.0,"[0.18437735097371089,0.031000149456764978]",100.0,"[-0.14070681599510737,-0.13998692945088106]",100.0,"[-0.18234389376235882,0.05722228996616733]",4.0,"[-0.054246279613758726,-0.18296832312731787]",4.0,"[0.02,0.02]",228.6883,0.0,39.0,39.0,82.0,1.0,,,,,,,
,,,,,,,68351f228b33e2f958c2de51,683aeef3660e9195595d3707,2025-05-31_08h01.08.964,shape_ratio,2024.1.5,Win32,60.24096386,683ae9196541af24d3a69e58,,,,,,,,,,,228.6899,229.1879,,,229.439,230.0382,right,,,,,,,,0.1,,,,,,229.1881,229.4388,0.5733,,230.0384,"[-0.0046712407373147805,-0.020024899123651078]",100.0,"[-0.12447739375926359,0.12566246416577453]",4.0,"[-0.04676280056737215,-0.07322577764612774]",4.0,"[-0.13678542769732294,-0.1303643817480209]",4.0,"[0.15841964234549902,0.06316622882248925]",4.0,"[0.013735918848833944,0.11856640764977257]",4.0,"[-0.1359816511188493,0.04017999895549557]",100.0,"[-0.15823908234965517,0.0806882958817463]",4.0,"[0.06594964275026136,0.0333961957238449]",4.0,"[0.0910403257693521,-0.00887059201128562]",100.0,"[0.06442555094843395,-0.1501854648780859]",4.0,"[0.12592382643194483,-0.030959801883160103]",4.0,"[-0.04014074608284293,0.15172354978201408]",4.0,"[-0.07005994971585586,-0.12273812596271934]",4.0,"[-0.005641399336507449,0.0622327253743752]",4.0,"[-0.13927174472715692,-0.06018849007081974]",4.0,"[0.00557527502421617,-0.08550270240053665]",4.0,"[0.08732771360446384,-0.0795293799346987]",4.0,"[0.010947564528817058,-0.19274581966033244]",4.0,"[-0.01881697782762761,-0.12058705846201809]",4.0,"[0.04371592967603259,-0.10438088326711266]",4.0,"[0.08240962607111338,0.12923918310794869]",4.0,"[0.046558647639146654,-0.036667654214781326]",4.0,"[0.17811455127396003,-0.07496225923040187]",4.0,"[0.11973610009901342,-0.1545905992505885]",4.0,"[0.03824256529068798,0.1853169012508769]",4.0,"[0.15963375270895605,0.10988905690755413]",4.0,"[-0.18120261278091837,0.01502766184329276]",4.0,"[0.10974384649017893,0.16290086911827065]",4.0,"[-0.04410638928020813,-0.1726426158819379]",4.0,"[-0.07670415826814901,0.13079171866687433]",4.0,"[-0.07525814624480145,-0.0009497871126847564]",4.0,"[0.02,0.02]",231.1366,0.0,40.0,40.0,181.0,1.0,,,,,,,
,,,,,,,68351f228b33e2f958c2de51,683aeef3660e9195595d3707,2025-05-31_08h01.08.964,shape_ratio,2024.1.5,Win32,60.24096386,683ae9196541af24d3a69e58,,,,,,,,,,,231.1375,231.6362,,,231.891,232.1872,right,,,,,,,,0.4,,,,,,231.6362,231.8909,0.2818,,232.1875,"[0.12519990608584988,0.06009378151562364]",4.0,"[0.10385135366354763,0.009138560160441511]",4.0,"[-0.008864949166241285,0.17978370519000336]",100.0,"[-0.15813518937347687,0.05628970703246758]",4.0,"[-0.058900249085204595,0.03939304444576097]",100.0,"[0.01794008524795629,0.036394917288976494]",4.0,"[-0.1358619432639983,0.13760762862950784]",4.0,"[0.09306044438133425,0.17363952404798189]",100.0,"[0.05901612389769366,-0.1899745601496413]",100.0,"[0.07657935350303442,-0.0556228329736309]",100.0,"[0.1127139004276454,-0.0328132308664412]",4.0,"[-0.062240709856831423,-0.11479123097337643]",4.0,"[-0.1101494358425287,0.0635788619667428]",100.0,"[-0.015442430439062604,-0.15333009495725516]",100.0,"[0.03686140269289441,-0.04232438300942258]",4.0,"[0.037252973725330416,0.07921971653250756]",4.0,"[-0.03584828347864842,0.09240589189374455]",100.0,"[0.01797708813960868,-0.1278863801062573]",4.0,"[-0.16921744949703285,-0.034142606326043747]",4.0,"[-0.06315589854426477,0.15047287127076162]",4.0,"[0.17042544458346745,-0.0009496949075368701]",4.0,"[-0.05372290114496869,-0.04364949255650533]",4.0,"[0.07192297537108742,0.05106897827579733]",100.0,"[-0.03466265724228555,-0.195358996594132]",4.0,"[0.015810428958510325,0.12961177874317806]",100.0,"[0.13243460038425928,-0.09492896533180412]",4.0,"[0.030802801108625436,-0.08445236256827421]",4.0,"[-0.10360598607060603,0.008810984494878063]",100.0,"[0.052661094741614504,0.1806890885096972]",4.0,"[-0.14023240214404262,-0.09793774053227566]",4.0,"[0.12939187421578063,-0.14237997612770292]",100.0,"[0.16756612086556907,-0.05515056931891358]",100.0,"[0.02,0.02]",233.2872,0.0,41.0,41.0,151.0,1.0,,,,,,,
,,,,,,,68351f228b33e2f958c2de51,683aeef3660e9195595d3707,2025-05-31_08h01.08.964,shape_ratio,2024.1.5,Win32,60.24096386,683ae9196541af24d3a69e58,,,,,,,,,,,233.2888,233.7858,,,234.0384,234.5523,left,,,,,,,,0.6,,,,,,233.786,234.0382,0.4852,,234.5524,"[-0.12188927801574957,0.15815587672994055]",100.0,"[-0.053264243506157015,0.039977861561154376]",4.0,"[-0.10065983285074019,0.11196045680868721]",100.0,"[-0.10612911853702901,-0.06031534659390397]",100.0,"[0.11328311399056783,-0.1289296982874453]",100.0,"[-0.15292045159777617,0.012971634200933361]",100.0,"[0.007904434426414414,0.04435490963899576]",4.0,"[-0.013047636918077355,0.13357387055412867]",4.0,"[-0.0415735701103208,-0.190973757564502]",4.0,"[-0.14780137688228354,0.11752708177908172]",100.0,"[0.16894827540460322,0.056479357910275245]",4.0,"[-0.054582344880414004,-0.12085966855131004]",4.0,"[0.09627375605706273,-0.08692270755525865]",4.0,"[-0.05542726402544038,0.13927816485972036]",4.0,"[0.12381547598679017,0.0681553604443441]",100.0,"[0.010572913316631932,-0.012222663926753785]",100.0,"[-0.031667963407864895,0.18967960729798522]",100.0,"[0.039547758424667734,-0.07368010939227382]",4.0,"[-0.037222987616224536,-0.03918108531832327]",100.0,"[-0.14247780674852306,-0.13908993544479697]",100.0,"[0.07689209223185739,-0.1464642229445768]",4.0,"[0.06576167146085111,0.09209179482754183]",100.0,"[0.06247994589785969,0.03674760409272771]",4.0,"[-0.11594580406599524,-0.10357708829866046]",100.0,"[0.10823137809056926,0.1132053622528757]",100.0,"[0.004440058061002395,-0.1619218777503685]",100.0,"[0.07720445952398458,-0.0032278921500955835]",100.0,"[0.16686891960425762,-0.0065790791575539975]",100.0,"[0.11649840431043684,-0.02578207868873003]",4.0,"[0.0738119225307959,0.16069710216659663]",100.0,"[0.15114655614153313,-0.06371446795458026]",4.0,"[0.12176911331703988,0.1545701096364418]",100.0,"[0.02,0.02]",235.6519,0.0,42.0,42.0,57.0,1.0,,,,,,,
,,,,,,,68351f228b33e2f958c2de51,683aeef3660e9195595d3707,2025-05-31_08h01.08.964,shape_ratio,2024.1.5,Win32,60.24096386,683ae9196541af24d3a69e58,,,,,,,,,,,235.6531,236.1528,,,236.4043,236.8523,right,,,,,,,,0.1,,,,,,236.153,236.4041,0.4218,,236.8525,"[0.0686434587716132,-0.05575667956029401]",4.0,"[-0.17234936416953206,-0.07252195109437388]",4.0,"[0.1465422032318674,-0.08846455101942959]",4.0,"[0.10743509393383996,0.10520844189047686]",4.0,"[0.009283457144206154,0.15764344887023107]",4.0,"[0.1033077047199721,0.013806058490227651]",4.0,"[-0.06495231462240368,-0.03857967232169078]",4.0,"[0.13833989807664596,-0.13852596709155085]",4.0,"[0.018958073958414094,0.006133604489144392]",4.0,"[0.18657784174046185,0.06728987237122368]",100.0,"[0.11035670975450095,-0.07114052920358399]",4.0,"[-0.10595918660737945,0.06862358602613458]",4.0,"[-0.0664269668832953,-0.1029953416332537]",4.0,"[-0.034967942712120566,-0.0740645290658705]",4.0,"[-0.13452507972805125,0.11171277261067268]",4.0,"[0.14131311915610728,-0.043295662733793296]",4.0,"[0.14827565058118614,0.1288259176161923]",4.0,"[0.07299022558923236,0.13687999727326644]",4.0,"[0.014881218358255748,-0.17631600678133666]",4.0,"[-0.03117916211009436,0.011495572065145511]",4.0,"[-0.04960805320500683,0.18621865321285216]",4.0,"[-0.18813658985879259,0.04296230402124863]",100.0,"[0.09385938769499075,-0.11362766735985276]",4.0,"[-0.147041271003753,0.027012482000875446]",4.0,"[0.006685457722597707,-0.1295638240149099]",4.0,"[-0.06325490736044533,0.056145095316242136]",4.0,"[-0.19067791218418081,-0.008121474703460299]",4.0,"[-0.0638197151453222,-0.18390425726861684]",4.0,"[0.04238804722308493,0.10688692965197258]",100.0,"[0.14572722648535966,0.07965639225574302]",4.0,"[-0.12299035291383095,-0.14595078133813447]",4.0,"[0.19416446707239687,-0.041500822554954395]",4.0,"[0.02,0.02]",237.9517,0.0,43.0,43.0,189.0,1.0,,,,,,,
,,,,,,,68351f228b33e2f958c2de51,683aeef3660e9195595d3707,2025-05-31_08h01.08.964,shape_ratio,2024.1.5,Win32,60.24096386,683ae9196541af24d3a69e58,,,,,,,,,,,237.9534,238.4511,,,238.7019,239.0677,right,,,,,,,,0.4,,,,,,238.4512,238.7018,0.3386,,239.0677,"[-0.014298834707575588,0.031308128130108734]",4.0,"[-0.03661978258018564,-0.19080682798148998]",4.0,"[0.13561360690833132,-0.043400429097835626]",100.0,"[0.0705296276223403,-0.1643502681890093]",100.0,"[0.13479161366232761,0.0274882509562227]",4.0,"[-0.18211396028550964,-0.021136581513829723]",4.0,"[0.030536000563377432,-0.09708319881826301]",100.0,"[-0.11743689803423192,-0.08976780903451621]",4.0,"[-0.07196719895222298,0.07988162111721946]",4.0,"[0.007696855506474288,0.09854230129347072]",100.0,"[-0.04210942803024982,-0.1003687151069064]",4.0,"[0.1975971928181871,0.003911986486103514]",4.0,"[0.08566662930904485,-0.04067708598507414]",4.0,"[0.0994757329832262,0.11569958568616631]",4.0,"[-0.08612229319011967,0.02749058251854616]",4.0,"[-0.1691476062068404,-0.07129097842628744]",100.0,"[0.15799726479040221,-0.009631132759325796]",4.0,"[0.07402219434753537,0.017852818401341477]",4.0,"[0.022515099147428153,-0.15388809120892197]",4.0,"[-0.014481072996828305,0.19105866814153633]",100.0,"[-0.08383671454350326,-0.031580665387653695]",100.0,"[0.09406580603005996,-0.09253717839228315]",100.0,"[-0.14233543177066804,0.1169990637706452]",100.0,"[0.022113237755720216,-0.026818941500726987]",100.0,"[0.10453665862790745,-0.13769343255649436]",4.0,"[-0.02067748782398681,-0.04872543143151799]",4.0,"[-0.17358525355430549,0.020483801360381772]",4.0,"[-0.06425468891421963,0.15006779028724826]",4.0,"[-0.0433121949266497,0.10809732256451537]",100.0,"[-0.08397340632583596,-0.1383292266624551]",100.0,"[0.07508319257165448,0.0725754291947259]",100.0,"[0.16168164420561063,0.06241950355027002]",4.0,"[0.02,0.02]",240.1682,0.0,44.0,44.0,177.0,1.0,,,,,,,
,,,,,,,68351f228b33e2f958c2de51,683aeef3660e9195595d3707,2025-05-31_08h01.08.964,shape_ratio,2024.1.5,Win32,60.24096386,683ae9196541af24d3a69e58,,,,,,,,,,,240.1694,240.6685,,,240.9188,241.4679,right,,,,,,,,0.5,,,,,,240.6687,240.9186,0.5183,,241.4681,"[-0.11876305583904881,0.12505241005568107]",100.0,"[0.0827385841442161,0.051863933412726916]",4.0,"[-0.060088036261633504,-0.16132274165992266]",100.0,"[-0.12047425177696218,0.059256367946266625]",4.0,"[-0.053310135890772124,0.09997073858525546]",4.0,"[0.1694814148482751,-0.025172100183673763]",100.0,"[0.06196962364159795,-0.18342862349591735]",100.0,"[0.027611889802483226,0.007860823402053208]",4.0,"[-0.07748266096025926,-0.08632536266988948]",100.0,"[0.11462771552471926,-0.06444369056661296]",4.0,"[-0.1587957816368286,-0.02647822898606247]",100.0,"[-0.021430483406349145,-0.11527344532033922]",4.0,"[0.15103889101084486,-0.12342659420009816]",100.0,"[-0.03687754785399613,-0.06581615660264181]",100.0,"[0.0650001769415994,-0.0445195294813844]",4.0,"[0.06297910533048935,-0.12449178646494223]",100.0,"[0.10561946364184176,-0.02350899527742739]",4.0,"[0.07679253300273259,0.09530831797781554]",4.0,"[0.021181422749718543,0.12231321280517304]",4.0,"[-0.05697817227666729,-0.0016918714594754151]",4.0,"[0.06311570299341698,0.15262082373660266]",100.0,"[-0.01195248927197051,-0.15632542519476]",4.0,"[0.10747740019681727,0.12244271900253423]",100.0,"[0.02619047575801256,-0.05436709454561103]",100.0,"[-0.14684437317155605,-0.08805269104769228]",4.0,"[0.11107397605397594,-0.10660825099248958]",4.0,"[-0.09370632783554253,-0.01832269348219255]",4.0,"[-0.13509183025209012,-0.1391925548237182]",100.0,"[0.17832346883100286,0.027014757891729933]",100.0,"[-0.16221289154733826,0.021800022638082173]",100.0,"[0.0021847606547901353,0.06987725924868664]",4.0,"[-0.04727098836097988,0.15320721944964535]",100.0,"[0.02,0.02]",242.567,0.0,45.0,45.0,108.0,1.0,,,,,,,
,,,,,,,68351f228b33e2f958c2de51,683aeef3660e9195595d3707,2025-05-31_08h01.08.964,shape_ratio,2024.1.5,Win32,60.24096386,683ae9196541af24d3a69e58,,,,,,,,,,,242.5681,243.0665,,,243.3171,243.9501,left,,,,,,,,0.9,,,,,,243.0665,243.3169,0.6021,,243.9502,"[-0.04696661918596152,0.17407998947105355]",100.0,"[0.14934818970699368,-0.08151271307124343]",4.0,"[-0.046198384255715194,0.11879871784055392]",100.0,"[0.05919602975026833,0.029736408895751527]",100.0,"[0.15757587752412824,-0.004663119960813387]",100.0,"[0.0032642100284221163,0.07532764048179243]",100.0,"[-0.04893090231514428,-0.08071364515098221]",4.0,"[0.19760794539175117,0.026388748186737466]",100.0,"[-0.09302578472621398,-0.1749290637318556]",100.0,"[-0.16719693688595785,0.10160936230995735]",100.0,"[-0.005028451401114759,-0.19457781398129648]",100.0,"[-0.036745503097218406,0.06494416922897138]",100.0,"[0.08122272651033835,-0.034325577046102174]",100.0,"[0.091039113776264,0.12947363994531733]",100.0,"[-0.06304677415237879,0.0024487824239930963]",100.0,"[-0.13037127549683622,0.12690039837688283]",100.0,"[0.0490619119548252,-0.13054460871719464]",100.0,"[0.052272846261352895,0.09461612076073565]",100.0,"[-0.14231437965623364,-0.06076297819573396]",100.0,"[0.045369302978409715,0.14506882661721113]",100.0,"[-0.027465889052875885,-0.015868273970105474]",100.0,"[-0.17382076759824594,-0.09126695778502966]",100.0,"[0.0028836324576239428,-0.12844461161254248]",100.0,"[0.10498031629808574,0.06274213341175149]",100.0,"[0.06976728555409598,-0.09148849345027746]",100.0,"[0.10836533711444116,-0.10672821398447682]",100.0,"[0.05466127388160489,-0.18947337032247352]",100.0,"[-0.130547112961639,-0.11187737250149143]",100.0,"[0.14908917070602304,-0.13204125906808736]",100.0,"[-0.0801804417373417,-0.13250990457417453]",100.0,"[-0.1839113768561881,0.06459903043193596]",4.0,"[0.004388923434048754,0.008613898862849974]",100.0,"[0.02,0.02]",245.0502,0.0,46.0,46.0,0.0,1.0,,,,,,,
,,,,,,,68351f228b33e2f958c2de51,683aeef3660e9195595d3707,2025-05-31_08h01.08.964,shape_ratio,2024.1.5,Win32,60.24096386,683ae9196541af24d3a69e58,,,,,,,,,,,245.0519,245.5503,,,245.8003,247.1322,left,,,,,,,,0.45,,,,,,245.5505,245.8001,1.3027,,247.1322,"[0.1490542121550918,0.10159611719696085]",4.0,"[0.0258576458414679,0.06682911885246748]",100.0,"[0.014258684240197952,-0.08545273381495042]",100.0,"[-0.039130440808973675,0.18849324677765397]",4.0,"[-0.009739377477501542,0.0453526298990473]",4.0,"[0.10105930766813787,-0.016447630842542214]",100.0,"[0.09114629457500492,-0.09098321449920484]",100.0,"[-0.0162402290143584,-0.17705908504291573]",4.0,"[0.05867360043537272,0.12034780591002153]",100.0,"[-0.13310258407198816,-0.016841982935531755]",4.0,"[0.0032217495862273083,-0.1291800964528479]",4.0,"[0.03404648508671995,-0.17521127814465812]",100.0,"[-0.06597978182125737,-0.006512932529786319]",4.0,"[-0.19362158285327907,-0.008598387998816917]",100.0,"[0.06585447447304467,-0.05839582028768418]",4.0,"[0.07065119784750974,0.173629170718592]",100.0,"[-0.08212401719139925,0.0700911368883405]",4.0,"[0.020490983482918293,0.1772250334160536]",4.0,"[0.1128272056022215,0.148124429009584]",4.0,"[0.1789770330167113,-0.007829173226114853]",100.0,"[-0.15296923884032138,0.057336156492640726]",4.0,"[-0.05737909947203637,0.11643557158787031]",100.0,"[-0.06548901893091633,-0.16336574593212422]",100.0,"[-0.055361523012051654,-0.052914081000559575]",4.0,"[-0.1203913779840293,0.15703832078397018]",4.0,"[0.14966228003129206,-0.09852756448402433]",100.0,"[0.05396374246415363,-0.10762810040598016]",4.0,"[0.018881904425373307,0.13295337043642255]",4.0,"[-0.03022232681370399,-0.08610719706943537]",100.0,"[0.04357385427977876,0.01239483441229739]",100.0,"[0.0701247648644605,0.06778240195786328]",4.0,"[-0.1713252211572026,-0.052864237120686344]",4.0,"[0.02,0.02]",248.2331,0.0,47.0,47.0,147.0,1.0,,,,,,,
,,,,,,,68351f228b33e2f958c2de51,683aeef3660e9195595d3707,2025-05-31_08h01.08.964,shape_ratio,2024.1.5,Win32,60.24096386,683ae9196541af24d3a69e58,,,,,,,,,,,248.2346,248.732,,,248.9831,249.299,right,,,,,,,,0.45,,,,,,248.7322,248.9831,0.2862,,249.2991,"[-0.023911818019135004,-0.1737267544424186]",100.0,"[0.06308697013516272,0.05972396233967057]",4.0,"[0.06151256030916127,0.009803605763032864]",4.0,"[-0.06642497817029905,0.17488966664962913]",100.0,"[0.18382395996433432,-0.051828568754946396]",4.0,"[0.04260570215067589,-0.03102845057850199]",4.0,"[0.14181571474494867,-0.035608724878754834]",100.0,"[-0.07026392420096393,-0.07574525865971035]",4.0,"[-0.16229954667426422,0.1062290629070358]",4.0,"[0.10903190948121713,0.013874931148536919]",100.0,"[-0.17389612375121621,-0.033543025979787755]",100.0,"[-0.035698668831159734,0.043099180426296776]",100.0,"[-0.006793352621546548,0.1960537869032171]",100.0,"[-0.021646218842208163,-0.10298853473791265]",4.0,"[-0.07922548678934392,0.1266940690494978]",4.0,"[-0.1367935104765528,0.048979410903628756]",4.0,"[0.11500357224809439,-0.15437929341020437]",100.0,"[-0.17845890742133544,0.03331974472147912]",4.0,"[0.06732831643954099,0.13536454573012918]",100.0,"[-0.12290009914822184,-0.08157912083925248]",4.0,"[0.08807222349325822,-0.028373165650720403]",4.0,"[0.003982379075371008,0.12368500966930042]",4.0,"[-0.06769771734246029,-0.18444774818470738]",4.0,"[0.1125984584185792,0.10982876982498953]",100.0,"[0.0329333751907705,-0.15258753107346493]",4.0,"[-0.07091815586525026,0.06225388610306132]",4.0,"[0.18500999399768162,-0.010809731892109006]",100.0,"[0.15041540104433943,0.12791285986701645]",4.0,"[0.17624809734045227,0.07983383395919223]",100.0,"[0.05647799902651983,-0.09921681614674885]",100.0,"[-0.09258920531973637,0.025026397205117436]",4.0,"[0.014279878356518285,-0.18851437099514742]",100.0,"[0.02,0.02]",250.3979,0.0,48.0,48.0,141.0,1.0,,,,,,,
,,,,,,,68351f228b33e2f958c2de51,683aeef3660e9195595d3707,2025-05-31_08h01.08.964,shape_ratio,2024.1.5,Win32,60.24096386,683ae9196541af24d3a69e58,,,,,,,,,,,250.3989,250.8979,,,251.149,251.5644,right,,,,,,,,0.1,,,,,,250.8981,251.1488,0.394,,251.5644,"[-0.03762315494604353,0.17206514831248318]",4.0,"[-0.13430637628721226,-0.13420665967682494]",4.0,"[-0.1820256663896322,0.037460875169051305]",4.0,"[0.04680533189592815,0.08526669399998846]",4.0,"[-0.011046722290232435,0.05365161781568509]",4.0,"[0.04508300954338145,0.1897683224222813]",4.0,"[-0.1047948644595173,0.1343936604069867]",100.0,"[-0.011515362929712381,-0.14691308402867997]",4.0,"[0.11751154903767436,0.12522729924021522]",4.0,"[0.19585461451000377,0.027815300525468215]",100.0,"[-0.12227848246660414,-0.0009296256750793111]",4.0,"[-0.02353493068253937,0.12353206742263874]",4.0,"[0.029455616789371444,-0.09163221679522987]",4.0,"[-0.07868651749568568,0.1706971217241764]",4.0,"[0.1611235233803337,0.11614399681623222]",4.0,"[0.13503998658166727,0.022717666039845638]",4.0,"[0.027810399058768902,-0.173345121268794]",4.0,"[0.0903338859168567,-0.13352486916433348]",4.0,"[-0.1166263432242525,0.05699333806334538]",100.0,"[0.08059544606083666,0.030836020983865033]",4.0,"[0.013663237320175,-0.03345076028166329]",4.0,"[-0.053337869321530236,-0.05514034291259772]",4.0,"[0.1500340601087798,-0.08717664254093657]",4.0,"[-0.11702974587716188,-0.044678557754350395]",4.0,"[-0.03630156841551036,0.0017992809714762535]",4.0,"[0.02313951176943465,0.006745160778818247]",4.0,"[-0.05097563741502226,-0.1401419298940599]",4.0,"[-0.10072585156587738,-0.08323677096940278]",4.0,"[-0.18444309830810776,-0.005082404978464607]",4.0,"[-0.17126929928098253,-0.05184732099314313]",4.0,"[-0.044090918532854226,0.07968924083168646]",4.0,"[0.04921929943607452,0.14153985857186208]",4.0,"[0.02,0.02]",252.665,0.0,49.0,49.0,195.0,1.0,,,,,,,
