right,left,explain.started,explain.stopped,key_resp_3.keys,key_resp_3.rt,key_resp_3.duration,participant,session,date,expName,psychopyVersion,OS,frameRate,study_id,explain_2.started,explain_2.stopped,key_resp_4.keys,key_resp_4.rt,key_resp_4.duration,explain_3.started,explain_3.stopped,key_resp_5.keys,key_resp_5.rt,key_resp_5.duration,fixation.started,fixation.stopped,practice.started,practice.stopped,response.started,response.stopped,key_resp.keys,feedback.started,feedback.stopped,trials_2.thisRepN,trials_2.thisTrialN,trials_2.thisN,trials_2.thisIndex,trials_2.ran,dot_ratio,explain_4.started,explain_4.stopped,key_resp_6.keys,key_resp_6.rt,key_resp_6.duration,dotDisplay.started,dotDisplay.stopped,ITI.started,polygon_1.pos,polygon_1.edges,polygon_2.pos,polygon_2.edges,polygon_3.pos,polygon_3.edges,polygon_4.pos,polygon_4.edges,polygon_5.pos,polygon_5.edges,polygon_6.pos,polygon_6.edges,polygon_7.pos,polygon_7.edges,polygon_8.pos,polygon_8.edges,polygon_9.pos,polygon_9.edges,polygon_10.pos,polygon_10.edges,polygon_11.pos,polygon_11.edges,polygon_12.pos,polygon_12.edges,polygon_13.pos,polygon_13.edges,polygon_14.pos,polygon_14.edges,polygon_15.pos,polygon_15.edges,polygon_16.pos,polygon_16.edges,polygon_17.pos,polygon_17.edges,polygon_18.pos,polygon_18.edges,polygon_19.pos,polygon_19.edges,polygon_20.pos,polygon_20.edges,polygon_21.pos,polygon_21.edges,polygon_22.pos,polygon_22.edges,polygon_23.pos,polygon_23.edges,polygon_24.pos,polygon_24.edges,polygon_25.pos,polygon_25.edges,polygon_26.pos,polygon_26.edges,polygon_27.pos,polygon_27.edges,polygon_28.pos,polygon_28.edges,polygon_29.pos,polygon_29.edges,polygon_30.pos,polygon_30.edges,polygon_31.pos,polygon_31.edges,polygon_32.pos,polygon_32.edges,dot_size,ITI.stopped,trials.thisRepN,trials.thisTrialN,trials.thisN,trials.thisIndex,trials.ran,key_resp.rt,key_resp.duration,break_2.started,break_2.stopped,trials_3.thisRepN,trials_3.thisTrialN,trials_3.thisN,trials_3.thisIndex,trials_3.ran
subject chose dot,subject chose diamond,0.0004,92.1156,space,77.0937,,683729c64975b4dbb8ff32f4,68399cfd12d067932d614819,2025-05-30_07h58.17.061,shape_ratio,2024.1.5,Win32,59.88023952,683853e18dae57a2147b65e0,,,,,,,,,,,,,,,,,,,,,,,,,,,,,,,,,,,,,,,,,,,,,,,,,,,,,,,,,,,,,,,,,,,,,,,,,,,,,,,,,,,,,,,,,,,,,,,,,,,,,,,,,,,,,,,,,
,,,,,,,683729c64975b4dbb8ff32f4,68399cfd12d067932d614819,2025-05-30_07h58.17.061,shape_ratio,2024.1.5,Win32,59.88023952,683853e18dae57a2147b65e0,92.1166,139.8777,space,17.7412,,,,,,,,,,,,,,,,,,,,,,,,,,,,,,,,,,,,,,,,,,,,,,,,,,,,,,,,,,,,,,,,,,,,,,,,,,,,,,,,,,,,,,,,,,,,,,,,,,,,,,,,,,,,,
,,,,,,,683729c64975b4dbb8ff32f4,68399cfd12d067932d614819,2025-05-30_07h58.17.061,shape_ratio,2024.1.5,Win32,59.88023952,683853e18dae57a2147b65e0,,,,,,139.8782,144.4723,space,1.5747,,,,,,,,,,,,,,,,,,,,,,,,,,,,,,,,,,,,,,,,,,,,,,,,,,,,,,,,,,,,,,,,,,,,,,,,,,,,,,,,,,,,,,,,,,,,,,,,,,,,,,,,
,,,,,,,683729c64975b4dbb8ff32f4,68399cfd12d067932d614819,2025-05-30_07h58.17.061,shape_ratio,2024.1.5,Win32,59.88023952,683853e18dae57a2147b65e0,,,,,,,,,,,144.5894,144.988,144.9894,145.2385,145.2389,146.7356,,146.7364,147.8344,0.0,0.0,0.0,0.0,1.0,0.2,,,,,,,,,,,,,,,,,,,,,,,,,,,,,,,,,,,,,,,,,,,,,,,,,,,,,,,,,,,,,,,,,,,,,,,,,,,,,,,,,,,,,,,,
,,,,,,,683729c64975b4dbb8ff32f4,68399cfd12d067932d614819,2025-05-30_07h58.17.061,shape_ratio,2024.1.5,Win32,59.88023952,683853e18dae57a2147b65e0,,,,,,,,,,,147.836,148.3335,148.3337,148.5894,148.5894,150.0732,,150.0735,151.1649,0.0,1.0,1.0,1.0,1.0,0.8,,,,,,,,,,,,,,,,,,,,,,,,,,,,,,,,,,,,,,,,,,,,,,,,,,,,,,,,,,,,,,,,,,,,,,,,,,,,,,,,,,,,,,,,
,,,,,,,683729c64975b4dbb8ff32f4,68399cfd12d067932d614819,2025-05-30_07h58.17.061,shape_ratio,2024.1.5,Win32,59.88023952,683853e18dae57a2147b65e0,,,,,,,,,,,,,,,,,,,,,,,,,,151.1674,158.1444,space,3.9539,,,,,,,,,,,,,,,,,,,,,,,,,,,,,,,,,,,,,,,,,,,,,,,,,,,,,,,,,,,,,,,,,,,,,,,,,,,,,,,,,,,,
,,,,,,,683729c64975b4dbb8ff32f4,68399cfd12d067932d614819,2025-05-30_07h58.17.061,shape_ratio,2024.1.5,Win32,59.88023952,683853e18dae57a2147b65e0,,,,,,,,,,,158.2258,158.6583,,,158.899,160.3905,,,,,,,,,0.5,,,,,,158.6601,158.8989,160.3921,"[-0.12318864261914488,-0.035345758928464095]",4.0,"[-0.0449341515687053,0.1531105643537614]",4.0,"[0.11483529274526708,0.0047169605716823795]",100.0,"[-0.12636865792765262,-0.10697953751460008]",100.0,"[-0.17164055104068363,-0.014161732130264745]",100.0,"[0.03718198602798308,-0.0020749721811888205]",4.0,"[0.0034821035443329262,-0.1306214821799838]",4.0,"[0.1897661214164783,0.044269818622972607]",100.0,"[-0.007730500095421814,-0.018926081034674327]",4.0,"[-0.0031053020758730647,0.19068391346127675]",4.0,"[0.06195371831812285,-0.10490176523204499]",4.0,"[0.1482855720934302,-0.043108391320735726]",4.0,"[0.1438475909322276,0.04146021538276622]",4.0,"[0.05034966539891429,-0.042385997569671055]",100.0,"[-0.043341545806463384,0.03167758528639667]",100.0,"[0.10146946900063811,-0.06860812710014738]",4.0,"[-0.0021067031444652455,0.0744327355033345]",4.0,"[-0.05591239722507477,-0.09885498012824373]",4.0,"[-0.10816713111227064,0.015185778233938255]",4.0,"[0.16124349680750394,-0.003716775978709277]",100.0,"[-0.0035401632253988903,-0.17314035425114865]",100.0,"[-0.1872065884555801,0.028183741397705794]",100.0,"[0.09836312645492118,0.17046992746537792]",100.0,"[0.1408534001619944,0.12987184750649478]",100.0,"[-0.09943932926269886,-0.07618025910236267]",4.0,"[0.01196426101786544,0.14912278919151786]",100.0,"[-0.04711358758197702,-0.1546844978975285]",100.0,"[0.052947592240720744,0.0432598227267594]",100.0,"[0.09475944141583384,0.11690178441216588]",4.0,"[-0.11462540619601379,0.09869022253370377]",100.0,"[0.05557383390522874,-0.16792303819010318]",4.0,"[-0.07996081703162175,0.064850528536408]",100.0,"[0.02,0.02]",161.4902,0.0,0.0,0.0,115.0,1.0,,,,,,,,,
,,,,,,,683729c64975b4dbb8ff32f4,68399cfd12d067932d614819,2025-05-30_07h58.17.061,shape_ratio,2024.1.5,Win32,59.88023952,683853e18dae57a2147b65e0,,,,,,,,,,,161.4922,161.9896,,,162.2435,163.7379,,,,,,,,,0.1,,,,,,161.9903,162.2435,163.7381,"[-0.08067432253732279,0.017086681246068623]",4.0,"[0.0167419769312236,0.03845923788172297]",100.0,"[0.12344265367690202,-0.012373946012133975]",4.0,"[0.046139214284283796,0.11497010177855237]",4.0,"[-0.0009173539724523809,-0.1392998664467748]",4.0,"[0.05854477125689927,-0.14879562662488444]",4.0,"[-0.10186794069741129,-0.15994647459736347]",4.0,"[-0.0730695078773448,-0.10098727302685286]",4.0,"[-0.1146233512453834,-0.0732840340388233]",4.0,"[-0.07944237604113795,0.0692590392190505]",4.0,"[-0.0063165790066618535,-0.030747584521942324]",4.0,"[-0.13134824934287048,0.13518391847409994]",100.0,"[0.11411195394594804,0.1425303751182958]",4.0,"[0.07598353207126003,-0.03541340399254427]",4.0,"[-0.03964077470311955,-0.07591026856346826]",4.0,"[-0.053423943817363595,-0.15663235804736556]",4.0,"[-0.17900489498471042,-0.0780825216302675]",4.0,"[0.06860084830436175,0.1644297649933559]",4.0,"[-0.03486657065100186,0.11230882640658071]",4.0,"[0.17914822613898548,0.0561316665067486]",4.0,"[-0.05822935351749772,-0.021420599645214786]",4.0,"[0.19740163191679072,-0.009156583802362632]",4.0,"[-0.03975644568265572,0.02379242690903699]",4.0,"[-0.1434367482654801,-0.12677940144444436]",4.0,"[-0.004543939733832983,0.0805046605838113]",4.0,"[0.028607724483825255,-0.1867178337372116]",4.0,"[-0.015554330669466624,0.162690681830953]",4.0,"[0.09033202953250027,-0.10416119796077938]",4.0,"[0.1376330157383135,0.0502135454348305]",4.0,"[-0.18156538169859515,0.03727883900312442]",4.0,"[-0.12169844865213048,-0.005442307431310848]",100.0,"[0.027327954300221575,0.18348464242322696]",4.0,"[0.02,0.02]",164.8388,0.0,1.0,1.0,198.0,1.0,,,,,,,,,
,,,,,,,683729c64975b4dbb8ff32f4,68399cfd12d067932d614819,2025-05-30_07h58.17.061,shape_ratio,2024.1.5,Win32,59.88023952,683853e18dae57a2147b65e0,,,,,,,,,,,164.8399,165.3365,,,165.5765,167.0682,,,,,,,,,0.6,,,,,,165.3369,165.5764,167.0684,"[-0.02190533549195125,-0.18979798522923294]",4.0,"[0.09951393040998252,0.044057624811095056]",4.0,"[-0.07539237331647704,-0.029152050483113923]",100.0,"[-0.04093915646168776,0.18561706544818876]",100.0,"[-0.13464017408534748,0.01008525837474848]",100.0,"[0.01364905521317017,-0.015049837854458716]",4.0,"[0.10729419949049503,-0.06502087215234827]",100.0,"[-0.00018341050270424824,0.0626595345883929]",4.0,"[-0.16134182796346963,0.11394516360897003]",4.0,"[-0.06670083897554382,-0.08868930974456528]",100.0,"[0.11002482318904305,0.08471769005344386]",100.0,"[-0.08400628913413091,0.07773753061449355]",100.0,"[0.05029569037281484,-0.10679669834762624]",4.0,"[0.17840105667386036,0.08869362238100217]",100.0,"[-0.12043234344137964,-0.056210227399864934]",100.0,"[0.04778349567171202,0.00990310934641627]",100.0,"[-0.02732934063002139,-0.14956881149316512]",100.0,"[0.002980710624831096,0.19515896800784419]",4.0,"[0.04362648562328937,0.09696012636097834]",100.0,"[-0.1738531545437618,0.07510622503455032]",100.0,"[-0.19391658223884908,-0.008676420765328098]",100.0,"[0.16493173109121204,0.047597961311689696]",4.0,"[0.04445825693262501,0.1498973204277241]",100.0,"[0.11255412808641792,-0.13669411886409466]",100.0,"[0.1018902192154711,0.16909838296398075]",100.0,"[-0.024843811851690836,-0.026557620268795306]",100.0,"[-0.11633700886071309,-0.16157612372141658]",4.0,"[0.1891516855743497,0.0037954381100483523]",4.0,"[0.14776774135551565,-0.09903792473530071]",100.0,"[-0.10603694311472343,-0.11585770991880723]",4.0,"[-0.019899031904801374,-0.09865077454203436]",4.0,"[0.15282488179093015,-0.057542197466583234]",4.0,"[0.02,0.02]",168.1676,0.0,2.0,2.0,43.0,1.0,,,,,,,,,
,,,,,,,683729c64975b4dbb8ff32f4,68399cfd12d067932d614819,2025-05-30_07h58.17.061,shape_ratio,2024.1.5,Win32,59.88023952,683853e18dae57a2147b65e0,,,,,,,,,,,168.1694,168.6678,,,168.924,170.416,,,,,,,,,0.4,,,,,,168.668,168.9239,170.4163,"[-0.18378901404983453,-0.055044058465861107]",4.0,"[0.10615278134524234,0.01717996353554349]",100.0,"[0.16152073491450414,0.04881474777929877]",100.0,"[-0.03184285410962459,0.10043874366071458]",100.0,"[0.12510850077422236,-0.13807122267207336]",4.0,"[-0.039286766530158494,-0.019411268485300275]",100.0,"[-0.09715554456318731,-0.1740194601788728]",4.0,"[0.12716349867168653,-0.06447945233318442]",4.0,"[-0.025848093464704014,-0.11308748661158413]",100.0,"[0.12982861189147898,0.10813533485064303]",4.0,"[-0.004489390056974847,0.1716721236423421]",4.0,"[-0.13465685801337898,-0.009112716775501423]",4.0,"[0.08164075310602163,-0.1670967710605772]",4.0,"[-0.05860625891877076,-0.18471447415105158]",4.0,"[-0.002395442040275258,0.061203984482614014]",4.0,"[-0.10998182570301969,-0.09998433112112311]",100.0,"[-0.10814002717908908,0.13765059137998636]",4.0,"[0.09009710947357029,0.10138017124497499]",100.0,"[-0.0693185344246557,-0.05184424723048375]",100.0,"[0.05981705316494725,0.05455191578961781]",100.0,"[0.10179670976831458,0.14575828762728565]",100.0,"[0.0298019715970578,0.13147011361968278]",100.0,"[0.19106627336713952,0.009448387947325623]",4.0,"[-0.012684799241966757,-0.15833984897894635]",4.0,"[0.17371526274381496,-0.09125692840138443]",4.0,"[0.03740533075105514,0.0029829926267008304]",100.0,"[-0.15364300170278788,0.06257083599927882]",4.0,"[-0.06826628654812192,-0.1108666397988135]",4.0,"[-0.18094566372412538,0.010278566772337508]",4.0,"[-0.08399250252496379,0.06406751423408108]",4.0,"[0.019153438346259603,-0.03269416222062248]",100.0,"[0.08475430175584603,-0.09486588907410529]",4.0,"[0.02,0.02]",171.5153,0.0,3.0,3.0,152.0,1.0,,,,,,,,,
,,,,,,,683729c64975b4dbb8ff32f4,68399cfd12d067932d614819,2025-05-30_07h58.17.061,shape_ratio,2024.1.5,Win32,59.88023952,683853e18dae57a2147b65e0,,,,,,,,,,,171.517,172.0153,,,172.2655,173.7629,,,,,,,,,0.55,,,,,,172.0154,172.2652,173.7634,"[-0.02028209004335262,0.07702821238853733]",100.0,"[0.17646905542048705,0.008476403800235148]",100.0,"[-0.05456991594238231,-0.04553845579431432]",4.0,"[0.08097995238033735,0.14141553427807033]",100.0,"[-0.10039695831369294,0.10104632206846774]",4.0,"[0.016948671697926257,-0.19732408785281683]",100.0,"[0.00952387980556431,-0.10226428997328925]",4.0,"[-0.0634100137760889,0.0333737851536199]",100.0,"[-0.11769796957092192,-0.13464940026475752]",4.0,"[0.11872498928590143,0.07249760432104864]",100.0,"[-0.1600076302917979,0.08140793481551427]",4.0,"[0.05666070717815308,0.07144869286146625]",100.0,"[0.16105631081736643,-0.05128011962373264]",100.0,"[0.13925631282045822,0.1132071050643422]",4.0,"[-0.09016416027977968,-0.08414464776572374]",4.0,"[0.02136912743553569,0.1588018024047805]",100.0,"[0.16147757228196097,-0.10281483718606818]",4.0,"[0.10898149652599919,-0.11531139155282964]",4.0,"[-0.043211536632092436,-0.11816183818895593]",100.0,"[-0.026217096355666776,0.1735299970497445]",100.0,"[-0.11007879280694326,0.019601860993651545]",4.0,"[0.08297322661587957,-0.17151867078687144]",4.0,"[-0.10816664806017293,-0.04564356586137265]",4.0,"[0.1289537231058621,0.0028036210087540423]",100.0,"[-0.022621106888518774,-0.019015170258132607]",100.0,"[-0.17622848615068712,0.04118162492397819]",4.0,"[-0.07936854796199183,0.14662794402443824]",100.0,"[-0.03205615193685685,0.12520931452813486]",100.0,"[-0.15629931042575426,-0.06847943856293776]",100.0,"[0.06638688185186013,0.026647708230031923]",100.0,"[-0.17898848525931116,-0.02096097108073259]",100.0,"[0.0321975624999448,-0.04663638704519108]",4.0,"[0.02,0.02]",174.8628,0.0,4.0,4.0,62.0,1.0,,,,,,,,,
,,,,,,,683729c64975b4dbb8ff32f4,68399cfd12d067932d614819,2025-05-30_07h58.17.061,shape_ratio,2024.1.5,Win32,59.88023952,683853e18dae57a2147b65e0,,,,,,,,,,,174.8642,175.362,,,175.6129,177.1101,,,,,,,,,0.6,,,,,,175.3624,175.6127,177.1104,"[-0.005781576553822457,-0.10151595768548426]",4.0,"[-0.09829358845697218,0.17359032896419174]",100.0,"[0.14921223964851382,0.11002498728600196]",4.0,"[-0.011137766866157032,0.12105803861846506]",4.0,"[-0.06825742255620489,-0.010370982168893705]",4.0,"[-0.008024332653378943,0.17390224023856507]",100.0,"[0.08886362066767912,0.15186624227300743]",4.0,"[0.11746180712611913,0.03730661228516133]",100.0,"[-0.0679321479610892,-0.08698558278813298]",100.0,"[0.03148861337584681,-0.05194814561397336]",100.0,"[0.19058972613941202,-0.02182504532169434]",100.0,"[-0.18439469342001144,-0.02966404161296693]",100.0,"[-0.06006569798001378,0.11978458962462553]",100.0,"[0.07053051546161711,-0.18135490919409922]",4.0,"[0.19269536596204484,0.022010168024341498]",100.0,"[-0.19342895931265108,0.04295366271713499]",4.0,"[0.16036079723528213,-0.09211977998951333]",4.0,"[-0.02315615754886476,0.04397960678121849]",4.0,"[-0.16557062475139817,-0.07468949016675598]",100.0,"[-0.14731425926123104,0.12574596670531252]",100.0,"[0.04712133764329152,0.152857305418421]",4.0,"[-0.00995692659725372,-0.0448678859242618]",100.0,"[-0.052830473441493726,-0.1587188564820899]",100.0,"[-0.1558237869410941,0.010895556113498036]",100.0,"[-0.13616122157554214,-0.028862781537103855]",4.0,"[0.057588948427019705,0.008630419688501284]",100.0,"[-0.10875852034627743,0.08305240122230982]",100.0,"[0.1347024779155482,-0.02913864815688822]",100.0,"[-0.06565543761870835,0.0671364111634435]",4.0,"[0.0832516551433341,0.09260217519448571]",100.0,"[0.06575972932631222,-0.07636383938522513]",100.0,"[-0.10365768216090557,0.12454047979033207]",4.0,"[0.02,0.02]",178.2094,0.0,5.0,5.0,53.0,1.0,,,,,,,,,
,,,,,,,683729c64975b4dbb8ff32f4,68399cfd12d067932d614819,2025-05-30_07h58.17.061,shape_ratio,2024.1.5,Win32,59.88023952,683853e18dae57a2147b65e0,,,,,,,,,,,178.211,178.7147,,,178.9588,180.4573,,,,,,,,,0.6,,,,,,178.7148,178.9587,180.4575,"[-0.08923628455187295,0.08141623395207839]",4.0,"[-0.07264906838808505,0.02353140212221326]",4.0,"[-0.0982901471366672,0.13103888282447532]",100.0,"[0.14873020253517627,0.03989458059450765]",4.0,"[0.0071037307202930075,-0.1589958076852897]",100.0,"[0.12875943216293267,0.09349170109913792]",4.0,"[0.02299429744858071,0.1450846853316093]",100.0,"[-0.04960436267968093,0.16365574442555958]",100.0,"[0.06674194452451888,0.0651953342014857]",100.0,"[-0.0925734472066934,-0.10777718437655737]",100.0,"[0.10290489002818708,-0.14877805429706306]",100.0,"[0.049413088260585165,-0.1274595085078067]",100.0,"[0.07520227747611058,0.1099450673293679]",4.0,"[0.050840029773253095,-0.17761493214973506]",4.0,"[-0.03627144706913808,-0.1564089865743158]",100.0,"[0.004362120144409678,0.07373291690027926]",4.0,"[-0.14796977550175167,0.12150361103114012]",4.0,"[-0.12268917795207929,0.038060679219055205]",4.0,"[0.013894045856532714,0.18684953865054363]",100.0,"[0.13262702244954422,-0.00023064085160967574]",100.0,"[0.05828431105175815,-0.07572986860602442]",100.0,"[-0.08881313689231018,-0.17896578498077614]",100.0,"[0.020633155179504287,-0.046166120314314975]",100.0,"[-0.16777118887418427,0.04602688284338373]",4.0,"[-0.1960996404363838,0.009946512278284489]",4.0,"[-0.02551971805903778,-0.06513108550496861]",4.0,"[0.07693881897154073,0.003635010770566575]",100.0,"[-0.11932642580821382,-0.0021418939228746723]",100.0,"[-0.007462969490695175,-0.015078259927193964]",100.0,"[0.19157850696339157,0.010969711933791891]",100.0,"[-0.1234199453155529,-0.05298184864799995]",100.0,"[-0.05731784813066089,0.10826550398736101]",4.0,"[0.02,0.02]",181.5569,0.0,6.0,6.0,59.0,1.0,,,,,,,,,
,,,,,,,683729c64975b4dbb8ff32f4,68399cfd12d067932d614819,2025-05-30_07h58.17.061,shape_ratio,2024.1.5,Win32,59.88023952,683853e18dae57a2147b65e0,,,,,,,,,,,181.5583,182.0551,,,182.3113,183.8047,,,,,,,,,0.9,,,,,,182.0553,182.3111,183.8048,"[-0.004476933130873135,0.10606357992629462]",100.0,"[-0.007932321556443248,-0.08969203141114798]",100.0,"[-0.05860785790766754,0.02727773710955129]",100.0,"[0.136764480100631,0.03626461727922667]",100.0,"[0.017643869069956873,-0.122283062536308]",100.0,"[0.045258990926614506,0.14201284775235998]",100.0,"[0.1282590480625291,-0.09982897038614935]",100.0,"[-0.07706082199052144,0.07682858433339075]",100.0,"[0.11738697275466904,0.08505018013508914]",100.0,"[0.04756986049072654,-0.1670749121256994]",100.0,"[-0.0010286795046899342,0.03367282377882141]",100.0,"[0.08417268462311174,-0.039343755907022465]",100.0,"[-0.1872608194694369,0.03775141468101271]",100.0,"[0.1655239357773719,-0.02951010348145476]",100.0,"[-0.10065960834750862,-0.11336060261641441]",100.0,"[0.0468978903642986,0.0697329805477939]",100.0,"[-0.02134293397723582,0.1694571940484674]",4.0,"[-0.08225325569480693,0.1405481462498966]",100.0,"[-0.12161480837839453,0.08085257432984401]",100.0,"[0.05701098280904622,0.002897455668030513]",100.0,"[0.08999347987991001,0.11871026435813781]",100.0,"[0.12061143755584632,-0.013317823639478742]",100.0,"[-0.13434304257695828,0.1376144455848518]",100.0,"[-0.13821798869751828,-0.0814202320496057]",100.0,"[-0.017413566482585588,-0.02244924934680531]",100.0,"[-0.004300373905502598,-0.18394768904567022]",100.0,"[0.08972876361796818,0.16095356582147965]",4.0,"[-0.10094408756600234,0.015447981970132961]",4.0,"[0.07411221903636747,-0.09980242525309185]",100.0,"[-0.16584032651592925,-0.01636958446804947]",100.0,"[-0.04814888414927715,-0.10275880638878541]",100.0,"[0.10724264738169939,-0.14277528040357548]",100.0,"[0.02,0.02]",184.9437,0.0,7.0,7.0,0.0,1.0,,,,,,,,,
,,,,,,,683729c64975b4dbb8ff32f4,68399cfd12d067932d614819,2025-05-30_07h58.17.061,shape_ratio,2024.1.5,Win32,59.88023952,683853e18dae57a2147b65e0,,,,,,,,,,,184.9446,185.4367,,,185.6761,187.1676,,,,,,,,,0.9,,,,,,185.4368,185.6759,187.1679,"[0.07411833740698875,-0.13380668250002184]",100.0,"[-0.09700643976387653,-0.1708636737248963]",100.0,"[-0.12554013387084886,-0.13779857281167848]",100.0,"[0.08041986652628991,0.16801115695487356]",100.0,"[-0.08344743265435343,-0.10804054198112421]",4.0,"[-0.00286699209563574,-0.05010336115922048]",100.0,"[-0.01989618767522845,-0.1937304317319059]",100.0,"[0.009978807331454165,-0.12839287295205756]",100.0,"[-0.04256770680105149,-0.062221978363828444]",100.0,"[0.09800177389812573,0.05475521276756597]",100.0,"[0.10460467989594029,0.09449329316598794]",100.0,"[0.04327678779822816,0.11283660481560008]",100.0,"[0.1350094318918671,-0.11717732757856981]",100.0,"[0.16468591574544442,-0.05661142311863043]",100.0,"[-0.13645788345212756,-0.08766829672674141]",100.0,"[0.11553482171411736,-0.0689885400688865]",100.0,"[-0.050354411234475614,0.08774736968094847]",4.0,"[-0.12784274696361064,0.11533703582947498]",100.0,"[-0.10199792435739659,-0.04150709025523521]",100.0,"[-0.13695512203830987,-0.006836851169538805]",100.0,"[-0.12080501591546307,0.06160899916570744]",100.0,"[-0.09376365360429394,0.1403758026146256]",100.0,"[0.11955774042815867,-0.008101149648718343]",100.0,"[0.06185356397508252,-0.18558278098685746]",100.0,"[-0.16942061429102606,0.03554053134669702]",100.0,"[0.15669160757095324,0.06667468519179647]",100.0,"[0.01003297755813708,0.045353132018380635]",4.0,"[-0.19034338092053332,-0.05554034156323858]",100.0,"[0.19395202962959207,-0.000005259082274546508]",100.0,"[0.055841093968236034,0.05715791752433684]",100.0,"[-0.017690038819040483,0.1371477057601601]",100.0,"[0.04437766528232958,-0.023539032596741245]",100.0,"[0.02,0.02]",188.2678,0.0,8.0,8.0,5.0,1.0,,,,,,,,,
,,,,,,,683729c64975b4dbb8ff32f4,68399cfd12d067932d614819,2025-05-30_07h58.17.061,shape_ratio,2024.1.5,Win32,59.88023952,683853e18dae57a2147b65e0,,,,,,,,,,,188.269,188.7667,,,189.0182,190.5155,,,,,,,,,0.4,,,,,,188.7669,189.0181,190.5156,"[0.005317743492719005,-0.049855794615205326]",4.0,"[-0.004054161362580441,0.16866412872143108]",100.0,"[0.158696529008917,0.026265569247490093]",100.0,"[0.06528045019406213,-0.1882437038441289]",4.0,"[0.05207311818757058,0.018771904884375537]",100.0,"[-0.1672286822195752,0.038829531827939814]",4.0,"[0.0042405494205011275,0.05171982792168906]",4.0,"[-0.11618134974574863,0.03889273580971305]",100.0,"[-0.134724715581993,-0.04559954117621644]",4.0,"[-0.09494546173066803,-0.0007964556317149298]",4.0,"[-0.0606621106246768,0.14885766077145943]",4.0,"[0.1353411249151375,0.11199238396782456]",4.0,"[0.07568627193578538,-0.12589370361885488]",100.0,"[-0.028600222775539145,0.11932133048783042]",4.0,"[-0.18826547068731475,-0.027548703780714928]",4.0,"[0.08118741720822686,-0.03601369467290876]",4.0,"[-0.18462565031946326,-0.07045990001960413]",100.0,"[-0.13131279966179404,-0.0915876069532501]",4.0,"[0.11759288568262265,0.048160592147573816]",4.0,"[0.13082747729326394,-0.04667307862991334]",4.0,"[-0.12340725132741792,0.13831676557848785]",4.0,"[0.019280932330955135,-0.12944433767546445]",4.0,"[-0.04739691567664004,-0.07507021241156066]",4.0,"[-0.05549086024681316,0.007223941406592521]",100.0,"[0.1549511806890166,-0.10888560622979715]",100.0,"[-0.02238436700286762,-0.18537043037551487]",100.0,"[0.04152508109379162,0.0816951687754038]",4.0,"[0.046921483278970194,0.13867246254225604]",100.0,"[0.10048352933039278,0.15456321533064368]",4.0,"[0.1721793569493856,0.09298045707135183]",100.0,"[0.07798359889219386,-0.0778489275747162]",100.0,"[-0.01700229428377083,-0.10314018741712783]",100.0,"[0.02,0.02]",191.6145,0.0,9.0,9.0,156.0,1.0,,,,,,,,,
,,,,,,,683729c64975b4dbb8ff32f4,68399cfd12d067932d614819,2025-05-30_07h58.17.061,shape_ratio,2024.1.5,Win32,59.88023952,683853e18dae57a2147b65e0,,,,,,,,,,,191.6156,192.1141,,,192.3547,193.8524,,,,,,,,,0.4,,,,,,192.1142,192.3545,193.8527,"[0.017771244050185733,-0.14364692885504748]",4.0,"[-0.040539713667847886,0.15610185230349036]",100.0,"[0.16756910760124605,0.025041655162167244]",4.0,"[0.05222674217794868,-0.09035198093697039]",4.0,"[0.01855872052600192,0.07477281868115923]",100.0,"[-0.12394897644164912,-0.004717522077927006]",4.0,"[0.07785758843926295,0.09433253263539482]",4.0,"[0.06329643644719878,-0.0007118533362525759]",100.0,"[-0.006172352362616733,0.0061582250831517735]",4.0,"[-0.08070001022351117,-0.14879929232748468]",4.0,"[-0.13521258665457467,0.10675238186894025]",100.0,"[0.09440259525510054,0.049068653875569315]",4.0,"[-0.18578474993952365,0.044139137013427275]",4.0,"[0.08859971355185142,-0.11805202703008703]",4.0,"[-0.11895127339376779,-0.1288845380034592]",100.0,"[0.10267259515930735,0.008112497153908192]",100.0,"[-0.027032660067513134,-0.11000861928847272]",4.0,"[-0.06040219823351059,0.05570931902181867]",4.0,"[-0.021646666852677198,0.09799014758939081]",100.0,"[-0.011776418475862615,-0.19711953037240382]",100.0,"[-0.16392911102790397,-0.0956416087251199]",100.0,"[0.13915991447993392,0.08436380849360292]",4.0,"[0.1654848167684029,-0.1092073902849285]",100.0,"[-0.14028498339171255,0.054880744607792846]",100.0,"[0.014906572712033642,-0.0736405471028681]",4.0,"[-0.1053689531777144,0.1532062983577612]",4.0,"[0.10221152887181495,0.13521770062062344]",4.0,"[0.04870230864477358,0.046493780112395716]",4.0,"[-0.08355278485545438,-0.10716294065963643]",4.0,"[0.17941777733906164,0.06350142036998316]",4.0,"[-0.05674992423031849,-0.07103774882371318]",100.0,"[-0.09348726194500241,0.104235381209625]",100.0,"[0.02,0.02]",194.9458,0.0,10.0,10.0,172.0,1.0,,,,,,,,,
,,,,,,,683729c64975b4dbb8ff32f4,68399cfd12d067932d614819,2025-05-30_07h58.17.061,shape_ratio,2024.1.5,Win32,59.88023952,683853e18dae57a2147b65e0,,,,,,,,,,,194.9474,195.445,,,195.7014,197.1933,,,,,,,,,0.9,,,,,,195.4451,195.7012,197.1935,"[-0.04456486337045056,0.043736648820276065]",100.0,"[-0.1137156030392083,0.11615429079385721]",100.0,"[-0.12107522621212644,-0.14861447474569187]",100.0,"[-0.09984131498797544,0.16325598849679063]",100.0,"[0.16045866405709017,-0.059887068007510584]",100.0,"[0.18005106134008497,0.05038163125456008]",100.0,"[-0.162604100804861,-0.09674150873225114]",4.0,"[0.052486085484209515,-0.14463056695250492]",100.0,"[0.09042808919717875,0.1372873132141215]",100.0,"[-0.004711314989926099,-0.19121679712874823]",100.0,"[0.053026232827725665,-0.011789536860873334]",100.0,"[0.09587679027340008,-0.17047484838290483]",100.0,"[-0.004560989468916016,-0.12541122378095837]",100.0,"[-0.18994138247838213,-0.028424088782983258]",100.0,"[0.04746506859823232,0.06163891170944319]",100.0,"[-0.03207202559120102,0.15312438770690276]",100.0,"[0.034910567145142464,0.12708347025535116]",100.0,"[-0.008655528803343537,-0.06828304843224671]",100.0,"[-0.026350255156712635,0.09204104970836255]",4.0,"[-0.11478317109563868,0.04330327005661232]",100.0,"[-0.0629854227719574,-0.10510584715346569]",4.0,"[0.045594226747441964,-0.07351316646985956]",100.0,"[-0.133798543725333,-0.04339649536014885]",100.0,"[0.0029637222912000036,0.19525178451083697]",100.0,"[0.1989982552148203,-0.011634668067940784]",100.0,"[0.09895247083506138,0.010133375944714059]",100.0,"[-0.16728696933726417,0.08606643450019415]",100.0,"[-0.07846186769426347,-0.013374791515635465]",100.0,"[-0.0765798380018926,0.06999290171758815]",100.0,"[-0.04531707282220344,-0.1836440367262315]",100.0,"[-0.16494393799323406,0.030622992046573292]",100.0,"[0.1206008137561524,0.07666059497659082]",100.0,"[0.02,0.02]",198.2919,0.0,11.0,11.0,1.0,1.0,,,,,,,,,
,,,,,,,683729c64975b4dbb8ff32f4,68399cfd12d067932d614819,2025-05-30_07h58.17.061,shape_ratio,2024.1.5,Win32,59.88023952,683853e18dae57a2147b65e0,,,,,,,,,,,198.2937,198.7927,,,199.0327,199.4094,right,,,,,,,,0.4,,,,,,198.7929,199.0326,199.4098,"[-0.09761022192083034,-0.11665907009823476]",4.0,"[-0.09026169126390207,0.09665627440746884]",100.0,"[0.12662937197013427,-0.06991368849078887]",4.0,"[-0.040560237430179245,0.1467290861707284]",4.0,"[-0.013653896467867068,0.10112712887606333]",4.0,"[0.0874897727280949,-0.1070229589479861]",4.0,"[0.1654757039147191,0.09570566435348563]",4.0,"[-0.09027898467545425,0.15610281172809146]",4.0,"[-0.17138202491005203,0.030702452499513064]",100.0,"[0.0011718491991312867,0.009227027505229524]",4.0,"[0.06809824798770826,0.1792878343610498]",4.0,"[-0.1479741658439522,-0.009515548738397384]",100.0,"[-0.0894809664937777,-0.04081005758401031]",100.0,"[0.08466036215593724,0.030784476510752893]",4.0,"[-0.038148064852331694,-0.09354977473735776]",100.0,"[0.17971900369601632,-0.008388983056773353]",100.0,"[-0.06684518988325105,-0.15499013555509542]",4.0,"[-0.17587078804965314,-0.044151623546501186]",100.0,"[0.0279851923695241,0.1045813088399817]",100.0,"[0.1196257690975499,-0.0025731597746652653]",100.0,"[-0.11757858650849423,0.03322004319558222]",100.0,"[-0.02618069682468331,-0.0363418585141708]",4.0,"[0.10055776326341496,0.07065095902500229]",4.0,"[0.023551891167090413,-0.1569205972534861]",4.0,"[0.10945069185338287,0.1625496090426621]",4.0,"[0.12468989570207871,-0.1281255714990234]",4.0,"[-0.1499913944949114,0.11662534107665463]",100.0,"[0.03699511618581249,0.062414966500033704]",100.0,"[-0.03769085979011164,0.06415151986220172]",100.0,"[0.029312071923488257,-0.04480050672660622]",4.0,"[-0.016646861025790306,-0.13328310059406687]",4.0,"[0.052294152155373835,-0.008168485566547333]",4.0,"[0.02,0.02]",200.5078,0.0,12.0,12.0,151.0,1.0,0.3593,,,,,,,,
,,,,,,,683729c64975b4dbb8ff32f4,68399cfd12d067932d614819,2025-05-30_07h58.17.061,shape_ratio,2024.1.5,Win32,59.88023952,683853e18dae57a2147b65e0,,,,,,,,,,,200.5093,201.013,,,201.2581,201.8228,right,,,,,,,,0.45,,,,,,201.0131,201.258,201.823,"[0.09660200948754462,0.1174237014538602]",4.0,"[0.05350884762662701,0.15236628760483586]",100.0,"[0.03254702238303169,0.02389292338722376]",4.0,"[0.13668669609101794,0.11458706833850803]",100.0,"[-0.15092138385239345,0.11689970659644201]",4.0,"[-0.11702401764241772,-0.0491844323458241]",4.0,"[0.08465543851916625,-0.1739396400992127]",100.0,"[0.14739794492388425,-0.01810923471866118]",4.0,"[-0.05207772780492075,0.13501603433848042]",100.0,"[-0.026767531937418532,-0.013403778416747805]",4.0,"[0.10285655098435624,0.010593597076807328]",100.0,"[0.02112075450314859,-0.1058737615748648]",4.0,"[0.11956584027022299,0.06631069794613796]",4.0,"[-0.030436713843551507,-0.1732817056496637]",4.0,"[-0.14490927483489321,0.0018136754419123002]",100.0,"[-0.09357182547556331,-0.1716789862318819]",4.0,"[-0.10291639409603427,-0.11465387851440266]",100.0,"[-0.04264934162868032,0.026805018125421822]",100.0,"[0.16043748862368754,-0.09521563860355585]",4.0,"[-0.014199930405275164,0.16666382278283612]",4.0,"[0.07044031369241195,-0.11099936051887636]",100.0,"[-0.009893696484990453,0.1211204996845642]",100.0,"[-0.06941458976842019,0.09454158304367666]",4.0,"[0.059410260861598715,0.08727752462889464]",100.0,"[-0.1943947998910991,0.035407035209853735]",4.0,"[0.010457434785830852,-0.06307660646698786]",100.0,"[-0.028706567654997805,-0.126871615307058]",4.0,"[0.013271683808985971,-0.1824547408192977]",100.0,"[0.007237491458865448,0.07339314252841764]",4.0,"[-0.09920340617499095,0.009644364333326947]",4.0,"[-0.11848914144847111,0.15712716295553564]",4.0,"[0.15885727598523208,0.05141946438934834]",100.0,"[0.02,0.02]",202.9217,0.0,13.0,13.0,141.0,1.0,0.5505,,,,,,,,
,,,,,,,683729c64975b4dbb8ff32f4,68399cfd12d067932d614819,2025-05-30_07h58.17.061,shape_ratio,2024.1.5,Win32,59.88023952,683853e18dae57a2147b65e0,,,,,,,,,,,202.9229,203.4216,,,203.6614,204.4047,left,,,,,,,,0.5,,,,,,203.4218,203.6614,204.405,"[-0.17019201061645567,-0.054069703502819436]",4.0,"[0.027937096114241798,-0.09156039492194748]",4.0,"[0.11935723900571128,0.1416178579446868]",4.0,"[0.15537753608800745,-0.11248862394105706]",4.0,"[-0.09860424392447256,-0.0659102657337989]",4.0,"[0.138855478789566,0.08610214001132298]",4.0,"[0.05511318855570201,0.12067455013124492]",100.0,"[0.0537113849828979,-0.1385665234615826]",100.0,"[0.01338964646541296,0.011814324993888823]",4.0,"[-0.010668293238041924,-0.12446658341826301]",100.0,"[-0.06772114779975595,-0.10065482630764774]",4.0,"[-0.09799890429784355,0.10644819604322166]",100.0,"[0.08289225971078873,-0.00026629622411763966]",100.0,"[0.14919713413295949,-0.065571535867365]",4.0,"[0.04460982647768432,0.08007817032162355]",4.0,"[-0.1652435705836695,0.09968767577190664]",100.0,"[-0.19704215884328968,0.02013021843963894]",100.0,"[-0.017354916028938266,-0.19379703410971705]",100.0,"[0.11885022842772693,-0.03708752158994133]",100.0,"[-0.04714681792048823,0.015548514263508477]",4.0,"[-0.1363563446155804,-0.0010925291884549514]",4.0,"[-0.05878909345976122,0.17198114589685945]",4.0,"[0.061334791411695164,-0.17823489226561592]",4.0,"[-0.06021242672893463,-0.03442420213746139]",100.0,"[0.10890834821280818,-0.11976164423024367]",100.0,"[-0.0987655919645315,-0.01942587278013567]",4.0,"[0.09494433673055766,0.08734720477678588]",100.0,"[-0.11715118083748671,-0.15591028173441107]",100.0,"[-0.00826727542404353,-0.02628476017284617]",100.0,"[0.07051813005608996,-0.08668472719645202]",4.0,"[0.08253146737221748,0.16784490575834649]",100.0,"[-0.13797365720112223,0.05734293604186738]",100.0,"[0.02,0.02]",205.5034,0.0,14.0,14.0,119.0,1.0,0.7192,,,,,,,,
,,,,,,,683729c64975b4dbb8ff32f4,68399cfd12d067932d614819,2025-05-30_07h58.17.061,shape_ratio,2024.1.5,Win32,59.88023952,683853e18dae57a2147b65e0,,,,,,,,,,,205.505,206.003,,,206.2538,207.1017,right,,,,,,,,0.1,,,,,,206.0032,206.2536,207.102,"[0.047491034706282194,-0.013021610192546268]",4.0,"[0.017860826655525516,-0.10097419337974811]",4.0,"[0.18703167831649037,0.03592361467386996]",100.0,"[0.007848113933983098,0.06563629740086438]",4.0,"[0.003873621072002023,-0.17247199474894545]",4.0,"[-0.07654275897005784,0.14123267739485953]",4.0,"[0.1473205046046438,-0.01782194115482987]",4.0,"[0.06754867907661959,-0.1575424488273062]",4.0,"[0.14019990326069956,0.054445146689991675]",4.0,"[-0.06330305964384114,-0.02578888155455541]",100.0,"[-0.16845950271366628,-0.03140454099112955]",4.0,"[-0.08447818915112978,-0.08813511027213936]",4.0,"[-0.05628439107309619,0.0928836483232355]",4.0,"[0.05556436610807787,-0.08198510166174401]",4.0,"[0.12039688542649032,0.016326263917741165]",4.0,"[-0.09345026324212259,0.0725066819023454]",4.0,"[-0.08506991574477477,-0.1693580745776807]",4.0,"[0.04957617706532229,0.13738991054930313]",4.0,"[-0.13329752326392313,-0.006717486239326282]",4.0,"[0.0203261709868227,-0.04793161764450322]",100.0,"[-0.004702888635921794,0.14748418807514704]",4.0,"[-0.06885433256902543,0.018750793598213043]",4.0,"[0.11531028094912833,-0.07030855669432903]",4.0,"[-0.18873763732098392,0.06117992362252675]",4.0,"[-0.03719350335529101,-0.07828109589319006]",4.0,"[-0.12888573187386396,-0.07559181506796457]",4.0,"[-0.1710399344203203,0.09738478445899401]",4.0,"[0.0022628276232441653,0.007260084570002821]",4.0,"[0.06702063084047927,0.03327522767528499]",4.0,"[0.11128651991008587,0.08951542619830445]",4.0,"[0.15325740139170335,0.11269630199426717]",4.0,"[0.05339367702339042,0.18676979901078608]",4.0,"[0.02,0.02]",208.2009,0.0,15.0,15.0,193.0,1.0,0.8357,,,,,,,,
,,,,,,,683729c64975b4dbb8ff32f4,68399cfd12d067932d614819,2025-05-30_07h58.17.061,shape_ratio,2024.1.5,Win32,59.88023952,683853e18dae57a2147b65e0,,,,,,,,,,,208.2019,208.7002,,,208.9513,210.1993,right,,,,,,,,0.45,,,,,,208.7003,208.9513,210.1996,"[-0.036310179042097615,-0.12768276408012258]",4.0,"[-0.09735322086715766,-0.050292937920159576]",4.0,"[0.04681152025405708,-0.1524581199376573]",4.0,"[-0.09888378081067886,0.1466289648366283]",4.0,"[0.04299508602200276,0.044840531726993677]",4.0,"[0.10980542078031609,0.018008243379013536]",100.0,"[-0.12485231206117835,0.10230149332773956]",100.0,"[0.1425515158404875,-0.05967282239108177]",100.0,"[0.13061893813688236,-0.10258453462456664]",4.0,"[-0.157386931092059,-0.03164001792156258]",4.0,"[0.022736388857176704,-0.1864786160333201]",100.0,"[-0.04419860453123464,0.13060801704375632]",4.0,"[0.0125557326017957,-0.07363042764659339]",4.0,"[0.03263937638834252,-0.011527000778739895]",100.0,"[-0.046167642184242366,-0.00906332562150881]",4.0,"[-0.05904811456443553,0.18035933808391638]",4.0,"[0.08769438220011665,0.1570412341584264]",100.0,"[-0.08434877174394605,0.10328672374167225]",100.0,"[-0.11689790365176102,-0.0071477944031414315]",4.0,"[-0.14519411316403466,-0.1063896130102405]",100.0,"[0.17188649056844418,0.041889712885135495]",4.0,"[-0.08051172513754659,-0.13709274204544436]",4.0,"[0.1897877495051704,-0.05304616661707906]",100.0,"[0.07857367913973139,-0.09364135611330648]",100.0,"[0.07149725517794064,0.11589550552909492]",100.0,"[0.0893035763988262,0.07795019206117998]",100.0,"[0.04429205743259533,0.16307690319074541]",4.0,"[-0.17596455287615387,0.06797414386604891]",4.0,"[-0.08001869697337013,0.041197370235450344]",4.0,"[-0.16121012987147848,0.029503687712106576]",100.0,"[-0.1282902434638643,-0.14795303590898432]",100.0,"[0.12675828211328194,0.10725048335808324]",4.0,"[0.02,0.02]",211.2983,0.0,16.0,16.0,144.0,1.0,1.2334,,,,,,,,
,,,,,,,683729c64975b4dbb8ff32f4,68399cfd12d067932d614819,2025-05-30_07h58.17.061,shape_ratio,2024.1.5,Win32,59.88023952,683853e18dae57a2147b65e0,,,,,,,,,,,211.2994,211.7981,,,212.0493,213.5475,,,,,,,,,0.45,,,,,,211.7983,212.0491,213.5476,"[-0.029317781680737,-0.004491643394007019]",100.0,"[0.003454182965194511,0.049401340251281664]",4.0,"[-0.049324982371945825,0.037542458683129505]",100.0,"[0.16254206634897897,-0.006093673786163166]",4.0,"[0.06891931437056581,0.039684390644029975]",4.0,"[0.016188700157927706,0.09597092097022816]",4.0,"[0.08248686187803299,-0.12906002381604473]",100.0,"[-0.11087808223128272,0.16166634133210403]",4.0,"[-0.08998572438055982,-0.0036840764175703642]",100.0,"[-0.16655172302503132,-0.002416824933807196]",4.0,"[0.0245463619704525,-0.06135115674613561]",100.0,"[0.15254189282706712,0.038969643368928185]",4.0,"[0.03308144850469253,-0.15797216223473343]",100.0,"[-0.016988424332295405,-0.08799021005953338]",100.0,"[-0.03950093657673345,-0.13064448833172548]",4.0,"[0.020672617510605416,0.18169686059918275]",4.0,"[0.16522656341638045,0.10403707303049607]",100.0,"[0.12635952031304332,0.08007557902848542]",4.0,"[0.07587725490094846,0.11996392923794906]",100.0,"[-0.18148485385329044,-0.04832404413600065]",100.0,"[-0.06636642029519822,0.13127655517135034]",4.0,"[0.14400903083387703,-0.058886435692955416]",4.0,"[-0.1522018758198942,0.060621338683970453]",4.0,"[-0.17344313796547284,0.09884933323035121]",100.0,"[0.10626309452653478,-0.09330897842092883]",100.0,"[-0.10618960302934269,0.11897885474068]",4.0,"[-0.13477629899783666,-0.14619968735974231]",4.0,"[0.0939418893341946,0.002446079183628354]",4.0,"[-0.06957358424316876,-0.06045357251166915]",100.0,"[-0.1693937000337759,-0.1034642836676177]",4.0,"[-0.07725039890772127,-0.17949975808058172]",100.0,"[0.16393327098386987,-0.10509995336596564]",4.0,"[0.02,0.02]",214.646,0.0,17.0,17.0,124.0,1.0,,,,,,,,,
,,,,,,,683729c64975b4dbb8ff32f4,68399cfd12d067932d614819,2025-05-30_07h58.17.061,shape_ratio,2024.1.5,Win32,59.88023952,683853e18dae57a2147b65e0,,,,,,,,,,,214.6473,215.1456,,,215.3963,215.4948,left,,,,,,,,0.6,,,,,,215.1457,215.3962,215.4948,"[-0.18717434941824423,0.025035267833366542]",100.0,"[0.18010067824273587,-0.03134877696876356]",100.0,"[-0.0764774079553599,0.12349254831381959]",100.0,"[0.08795877776316885,0.042069437445669135]",4.0,"[0.018872314499211392,-0.12990528596945006]",100.0,"[0.16655855218802046,-0.08983940799651817]",4.0,"[-0.01776571948149856,-0.16867591132740453]",100.0,"[-0.02335176091266697,0.08635301871776307]",100.0,"[0.10968896312551027,0.09820864658468047]",4.0,"[0.08872936834207867,0.14924060192723737]",100.0,"[0.10094303341648472,-0.13036376178214965]",100.0,"[-0.09678017632945497,0.1733731614766514]",100.0,"[-0.14758446855174584,-0.10891800263121752]",4.0,"[0.13166795281005772,-0.05788048427329218]",4.0,"[-0.1411401174597247,0.08182780478847827]",100.0,"[-0.11054376628172348,-0.06280138949071358]",100.0,"[0.06080743910053016,-0.1881382314222751]",4.0,"[-0.059705977025402326,-0.10800662904065444]",100.0,"[0.037571399024008044,0.14227887536942802]",100.0,"[-0.0033950878216526506,0.12863859634871025]",100.0,"[0.028874347650574422,-0.07988708052653863]",100.0,"[-0.10949395884008531,0.03479712141332102]",100.0,"[0.144655534441435,-0.13238189776359732]",4.0,"[-0.0056744015952138365,-0.057782796031641354]",4.0,"[-0.039255402955468546,0.03366915854896126]",100.0,"[0.16672116849589425,0.09203418468671555]",4.0,"[0.059750591506308265,-0.0020918972805375863]",4.0,"[0.03182747866188348,0.0770050026575128]",4.0,"[-0.13787313863570144,-0.03301105284819366]",4.0,"[-0.12028946481074225,0.1291716861310724]",100.0,"[-0.07107301358396989,-0.1504765792512434]",4.0,"[0.07812164148353078,-0.06351396632309173]",100.0,"[0.02,0.02]",216.5936,0.0,18.0,18.0,36.0,1.0,0.0817,,,,,,,,
,,,,,,,683729c64975b4dbb8ff32f4,68399cfd12d067932d614819,2025-05-30_07h58.17.061,shape_ratio,2024.1.5,Win32,59.88023952,683853e18dae57a2147b65e0,,,,,,,,,,,216.5946,217.0936,,,217.3448,217.3934,right,,,,,,,,0.4,,,,,,217.0937,217.3447,217.3935,"[0.10729430310288426,0.15584187758723836]",4.0,"[0.012489075262757275,0.16081269465774187]",100.0,"[-0.1511892899701264,-0.03193782906525753]",100.0,"[0.09177916370270023,-0.04350145774929919]",4.0,"[0.016201508002421164,-0.057589573083557874]",4.0,"[0.05040227511488853,-0.12347898948735275]",100.0,"[-0.09166340945737751,0.10520061782164192]",4.0,"[-0.03414748461708435,-0.03810118610421523]",100.0,"[-0.15879388888565557,0.06389893179642107]",4.0,"[-0.026229789092495962,0.19607372051504263]",100.0,"[-0.04204349967430218,0.09293164988781921]",4.0,"[0.08369646721930289,0.11407471761605013]",4.0,"[0.16079582054339991,-0.013460002155852899]",4.0,"[-0.1823724389310178,0.004203240764933475]",4.0,"[0.1665529321498872,0.03899100814065031]",100.0,"[-0.09564884951437902,0.0446130242773162]",4.0,"[0.0142670484206945,-0.15287197428970392]",4.0,"[0.006494044313227267,0.022633729525714033]",4.0,"[0.14981657723879746,0.11983090940730003]",4.0,"[-0.03577541913957792,-0.1136069821470331]",100.0,"[0.13013152980668044,-0.0647882726508586]",4.0,"[0.11304071771682155,-0.002910019883184179]",100.0,"[0.13582589481269663,-0.11609038515969873]",100.0,"[-0.1011863365605716,0.16416288379250019]",100.0,"[0.07160384999239454,0.0211215610127877]",4.0,"[0.03231254873328211,0.11236526095523697]",4.0,"[-0.11741314002767739,-0.1396850589812619]",4.0,"[-0.07867513320231814,-0.10854111426844891]",100.0,"[-0.021262564504356,-0.19483081357105622]",4.0,"[-0.1311028192554705,-0.07059945830336253]",4.0,"[-0.08486277634156392,-0.05016885328557073]",100.0,"[0.09011592265863246,0.057317727183563795]",100.0,"[0.02,0.02]",218.4924,0.0,19.0,19.0,166.0,1.0,0.033,,,,,,,,
,,,,,,,683729c64975b4dbb8ff32f4,68399cfd12d067932d614819,2025-05-30_07h58.17.061,shape_ratio,2024.1.5,Win32,59.88023952,683853e18dae57a2147b65e0,,,,,,,,,,,218.4933,218.9923,,,219.2474,220.7411,,,,,,,,,0.5,,,,,,218.9924,219.2473,220.7413,"[0.09484319744195796,0.03791392728691499]",4.0,"[0.02239116925830648,-0.13189333419765573]",100.0,"[-0.1693126894115745,0.05783746727552489]",4.0,"[0.027208380867339975,0.14288717811453777]",100.0,"[-0.017007976871261914,-0.05889416258813964]",4.0,"[-0.05060251728258024,0.13066809461871587]",100.0,"[0.15217685024830996,-0.11750862414157719]",100.0,"[-0.0847089808336939,-0.09218544760417806]",4.0,"[-0.07554891200705524,0.17561579681507966]",100.0,"[-0.08529414081135549,0.04985059720929605]",100.0,"[-0.062271555989138964,0.08939360800037795]",4.0,"[-0.12566936681715862,-0.1030013683375563]",4.0,"[0.17923558985787477,-0.000005549551802300988]",4.0,"[0.049412562308305194,0.011570972825821391]",100.0,"[0.0013933389778914584,0.17383283911594632]",100.0,"[0.19210104341452897,0.045792017600910014]",4.0,"[-0.0990646448492402,-0.17102541600007587]",100.0,"[-0.1259764886038615,0.0707830969557114]",4.0,"[0.11133311239477887,0.08640695175534734]",100.0,"[0.013677543217979617,0.06629320149839715]",100.0,"[-0.06759373113458798,-0.036010274409689146]",4.0,"[0.11706896412613087,0.15866636472348453]",4.0,"[0.10543923690704639,-0.10594948315235299]",100.0,"[-0.18402695189669582,-0.0007455090954737845]",100.0,"[-0.045371467962466945,-0.1347680883401439]",100.0,"[-0.011260119681290485,0.0013216989532010592]",100.0,"[0.07013362890472889,-0.0688818890403871]",4.0,"[-0.16678506670939716,-0.04457662328588546]",4.0,"[-0.049747774668386716,0.025124030953207224]",100.0,"[0.1435727205316596,-0.04982281747301737]",4.0,"[-0.009133924675805658,-0.1666376634987244]",4.0,"[0.09146247630019216,-0.14475483473788137]",4.0,"[0.02,0.02]",221.84,0.0,20.0,20.0,98.0,1.0,,,,,,,,,
,,,,,,,683729c64975b4dbb8ff32f4,68399cfd12d067932d614819,2025-05-30_07h58.17.061,shape_ratio,2024.1.5,Win32,59.88023952,683853e18dae57a2147b65e0,,,,,,,,,,,221.8416,222.3396,,,222.5905,222.9222,right,,,,,,,,0.6,,,,,,222.3399,222.5904,222.9225,"[-0.17144475136965162,0.05050952716071457]",4.0,"[0.06710951099407014,0.07536302652197932]",4.0,"[0.021022572846825897,0.1612390224282533]",100.0,"[-0.025279546293050095,-0.1153163635934954]",100.0,"[-0.043518482125302516,-0.028591125345694773]",100.0,"[-0.11647051435355602,-0.09165650398008028]",4.0,"[-0.10736386954704333,0.01735084562358582]",100.0,"[0.04288774702121432,-0.03286975178832841]",4.0,"[0.1230300036520221,0.11115211912106736]",4.0,"[0.11931394072736609,0.05506382825204059]",100.0,"[-0.1638233847634779,-0.04178254114661614]",100.0,"[-0.03260820207076369,0.17748277008189242]",4.0,"[0.17400954550044861,-0.07614521491983492]",100.0,"[-0.021809193626199097,-0.15542773254085793]",4.0,"[-0.07988980563441754,0.15250535191811662]",4.0,"[-0.07987709187029138,-0.18184081736316993]",100.0,"[0.0387775490808661,-0.19321630595880193]",4.0,"[0.061766550294062396,0.15625386752950027]",100.0,"[-0.005376473209292513,-0.06690100080791721]",100.0,"[-0.0039115158545472446,0.02141852575306957]",100.0,"[-0.12677408585075123,0.13326712256027673]",100.0,"[0.04548814016962072,-0.1273707031319034]",100.0,"[-0.037814923033157685,0.09884843535607572]",100.0,"[-0.10347836385668194,0.09068695356010727]",100.0,"[-0.10223818196450145,-0.04479090885710722]",4.0,"[-0.0671045041048211,-0.07759248536632252]",100.0,"[-0.16155298766149415,-0.09697799346343154]",100.0,"[0.14472778923020635,-0.022782626636083846]",4.0,"[-0.1280776734140954,-0.1362339845235151]",4.0,"[0.09725162509972794,-0.15644048908629032]",100.0,"[0.12405177289419804,-0.12509917164918466]",100.0,"[0.16661790219462663,0.03591715999970149]",4.0,"[0.02,0.02]",224.0212,0.0,21.0,21.0,42.0,1.0,0.3159,,,,,,,,
,,,,,,,683729c64975b4dbb8ff32f4,68399cfd12d067932d614819,2025-05-30_07h58.17.061,shape_ratio,2024.1.5,Win32,59.88023952,683853e18dae57a2147b65e0,,,,,,,,,,,224.0223,224.5204,,,224.7597,225.0374,right,,,,,,,,0.4,,,,,,224.5206,224.7597,225.0377,"[-0.115950789577688,0.061539910879935454]",100.0,"[-0.12655460156867684,-0.09995659624599057]",4.0,"[0.10803529264169581,0.08961923708678401]",4.0,"[-0.11813702550099173,0.15590444015940028]",4.0,"[-0.0017607866180292012,-0.1005058306902593]",4.0,"[0.1854321074909476,0.016471086234700255]",100.0,"[-0.051466959756370174,-0.1830905012955059]",100.0,"[0.05776704850102435,-0.021679575984378363]",4.0,"[-0.043741297375030894,-0.12614937282294428]",100.0,"[-0.004870408354216536,-0.0557524911565011]",4.0,"[-0.04763976390989853,0.15630630218943997]",4.0,"[0.08962497410261358,-0.1501548130735232]",4.0,"[-0.17981529530462245,0.08176531717564885]",4.0,"[-0.06228640688249413,-0.09070335160287314]",100.0,"[-0.04157524914816745,-0.0021802944328050177]",100.0,"[-0.13684303982933946,-0.0564451648338705]",4.0,"[0.11661516690509496,0.0014841693080321265]",4.0,"[-0.10333343675175392,-0.1705926558206768]",4.0,"[0.03288025766850535,0.09188803392628399]",100.0,"[-0.11711626161732062,-0.013087960508864353]",4.0,"[0.01216830260715769,0.038333891680981905]",4.0,"[0.1487574888297666,0.045588743241682717]",100.0,"[-0.13642996496051074,-0.1442602942013409]",100.0,"[-0.053089899435293866,0.049462877980787794]",4.0,"[-0.08641927024892955,0.10733684125739927]",4.0,"[0.06864949586333816,0.11769273723459932]",100.0,"[-0.013145757210654462,0.0730139540667499]",100.0,"[0.03163287057503548,-0.13611686019232822]",4.0,"[-0.08474957824637307,-0.048947442049275036]",100.0,"[-0.16690841679469273,-0.10589813993062037]",100.0,"[0.13647387190831547,-0.11742349585428533]",4.0,"[0.15736703908916094,-0.050265397463750174]",4.0,"[0.02,0.02]",226.1374,0.0,22.0,22.0,170.0,1.0,0.2594,,,,,,,,
,,,,,,,683729c64975b4dbb8ff32f4,68399cfd12d067932d614819,2025-05-30_07h58.17.061,shape_ratio,2024.1.5,Win32,59.88023952,683853e18dae57a2147b65e0,,,,,,,,,,,226.139,226.6361,,,226.8867,227.102,right,,,,,,,,0.45,,,,,,226.6363,226.8865,227.1022,"[-0.16972395235901028,-0.07292264730637123]",4.0,"[0.1034768038456441,-0.14325913513416397]",100.0,"[-0.008851771769636049,-0.030770560632533216]",4.0,"[0.05305886625025936,-0.03693578008302989]",100.0,"[-0.029321111885075038,-0.1818807504969218]",4.0,"[0.15158162614717394,0.010489838765165441]",4.0,"[0.04248855337896829,0.17219847031650695]",100.0,"[-0.10822146111799359,0.15226622962867783]",4.0,"[0.036300749579388794,-0.1039975964961146]",4.0,"[0.02492052669271565,0.06463097774275492]",100.0,"[-0.0992994762671806,0.0953486097576593]",4.0,"[0.07108130915189557,0.13712817455405701]",100.0,"[-0.05529551152579172,0.15338500801298013]",100.0,"[0.10482370281650422,0.06334240933023813]",4.0,"[-0.018874707800474757,-0.070072130727904]",100.0,"[-0.15654502739565754,-0.12372957500277156]",4.0,"[-0.06275025000419494,-0.12859440109186432]",4.0,"[-0.009979203263593524,0.11732512920401525]",100.0,"[-0.12976790664976692,-0.09332725662057569]",100.0,"[-0.02659259530235652,0.046047887198113785]",100.0,"[-0.12054810290065367,-0.023380574607091347]",100.0,"[-0.15820100340136348,0.04115253709485309]",4.0,"[0.13168572649396007,0.13029322961520248]",4.0,"[0.0279614303919867,-0.15276961829611177]",4.0,"[-0.16403978833113386,-0.009594867063298193]",100.0,"[0.14974858338277347,-0.10149455365434969]",100.0,"[0.010789639324784876,0.19663713601834026]",4.0,"[-0.12084167123788495,0.06071179792288824]",4.0,"[-0.010828946991627668,-0.12078030864263085]",4.0,"[0.06834798172020332,0.08289179512495518]",4.0,"[0.05432873377443929,0.0031695848402572397]",100.0,"[-0.11408376337298097,0.02003646274720924]",4.0,"[0.02,0.02]",228.2012,0.0,23.0,23.0,121.0,1.0,0.2037,,,,,,,,
,,,,,,,683729c64975b4dbb8ff32f4,68399cfd12d067932d614819,2025-05-30_07h58.17.061,shape_ratio,2024.1.5,Win32,59.88023952,683853e18dae57a2147b65e0,,,,,,,,,,,228.2021,228.701,,,228.9519,229.1833,left,,,,,,,,0.45,,,,,,228.7011,228.9518,229.1836,"[-0.09674322311744285,0.09409205874805521]",100.0,"[0.08102434502607193,0.1363569442133624]",4.0,"[0.03878521741625943,-0.08349291307829938]",4.0,"[0.043733458636472565,0.06144934592446904]",100.0,"[0.1684775454144176,-0.05664480244931862]",100.0,"[0.12204090178151344,-0.13192579781731203]",4.0,"[0.04221375489790356,-0.13809018256458655]",100.0,"[0.19051174435264676,0.0331776378628766]",100.0,"[-0.027445005774728703,0.0038544890744999544]",4.0,"[-0.08757424196974181,-0.026714099456410244]",100.0,"[0.1445769123076958,0.13286445566389132]",100.0,"[0.13403037437366686,0.028788649195187314]",4.0,"[-0.14582850097948333,0.1287203582011051]",100.0,"[0.06523315240236341,-0.1855706560375671]",4.0,"[-0.08372772822792537,-0.13554647072688775]",4.0,"[0.12465245356700828,-0.023753719366282164]",100.0,"[0.1411839184074473,0.07701575714566276]",4.0,"[-0.03640749630627443,-0.15372735128466514]",4.0,"[-0.05107682800485928,0.06996994841917437]",4.0,"[0.04162448143009186,-0.014743434945938494]",4.0,"[-0.007889317753944285,0.0756624004817614]",4.0,"[-0.18924688717388577,0.047637025305582614]",100.0,"[-0.011011475515603117,-0.19306501799883077]",4.0,"[0.01120255250138931,0.13553855791241412]",100.0,"[-0.07426112427374597,0.015453921707200967]",4.0,"[-0.15404468653316514,-0.05873869697542971]",4.0,"[0.07665805671099411,-0.0502553094211788]",4.0,"[-0.031235457086443964,-0.06324530474494156]",4.0,"[-0.15064879597061448,0.013758122683714442]",4.0,"[0.015744451165127304,0.19783079950604524]",100.0,"[-0.03083239319449344,0.18274277560425206]",100.0,"[0.08788985875711693,-0.10633499852464773]",100.0,"[0.02,0.02]",230.2824,0.0,24.0,24.0,122.0,1.0,0.2171,,,,,,,,
,,,,,,,683729c64975b4dbb8ff32f4,68399cfd12d067932d614819,2025-05-30_07h58.17.061,shape_ratio,2024.1.5,Win32,59.88023952,683853e18dae57a2147b65e0,,,,,,,,,,,230.2838,230.7823,,,231.0334,231.2819,left,,,,,,,,0.55,,,,,,230.7824,231.0333,231.2822,"[0.02877854953712414,0.09434823159066871]",100.0,"[-0.18950854342658202,-0.02839611150316551]",4.0,"[0.11385240128355834,0.00923545714020315]",100.0,"[-0.03184491737511456,0.029919302017825743]",100.0,"[-0.11242021832948175,-0.12123705844985477]",100.0,"[-0.008795052353073611,-0.05653193038512083]",4.0,"[-0.0896532953978945,-0.06485629478194978]",100.0,"[0.022845205471130184,0.0038822211870290137]",4.0,"[-0.03332114079381412,-0.1713477675675789]",4.0,"[-0.0777141543537544,0.16026485396196638]",4.0,"[-0.06613448495698876,-0.008778598478117268]",4.0,"[-0.16001897778111146,0.06909836250080478]",4.0,"[0.11750799047449716,0.10277816321230218]",100.0,"[0.04916042349233427,-0.09046235999509844]",4.0,"[0.06591189866866681,-0.15765761790761681]",100.0,"[0.16906467083308052,0.10507318286706598]",100.0,"[0.03270760728019654,-0.13281984152875279]",100.0,"[0.19224090385051487,0.017734353914829037]",100.0,"[-0.08173106250955688,0.0328701663999657]",4.0,"[0.10419584215043246,-0.11709979836813625]",100.0,"[0.13937450226155998,-0.09776937766092145]",100.0,"[-0.04823329394209006,0.07522024491112807]",100.0,"[0.1072833122142271,0.05864131323188213]",100.0,"[0.11747947085118467,-0.1600359490317737]",4.0,"[0.0694372424025197,0.03459046999278856]",4.0,"[-0.13406996603116167,-0.07341414836633692]",100.0,"[-0.12147257775108232,0.11799096656361853]",4.0,"[0.15521208299957526,0.04104740112063207]",4.0,"[0.10950008962388376,0.16400674914754582]",100.0,"[0.001710978193586133,-0.09723171054602388]",100.0,"[0.04728201658732858,0.17941777577097154]",100.0,"[0.0780175229564579,0.13431812766358894]",4.0,"[0.02,0.02]",232.3811,0.0,25.0,25.0,86.0,1.0,0.2348,,,,,,,,
,,,,,,,683729c64975b4dbb8ff32f4,68399cfd12d067932d614819,2025-05-30_07h58.17.061,shape_ratio,2024.1.5,Win32,59.88023952,683853e18dae57a2147b65e0,,,,,,,,,,,232.382,232.8807,,,233.1198,233.2807,right,,,,,,,,0.45,,,,,,232.8808,233.1197,233.2809,"[-0.13695282572461284,0.0015943460175876407]",4.0,"[-0.12351240634215353,-0.11065322176245213]",4.0,"[0.16316934504480907,0.024906085549113346]",4.0,"[-0.08487452932908254,0.036771450881153106]",100.0,"[0.0516930204445109,-0.10744836522526258]",4.0,"[-0.06667057661901023,-0.10929942081048677]",4.0,"[-0.07056538002057715,-0.15912305861407453]",4.0,"[-0.12485976308099275,-0.04686164407078752]",100.0,"[0.05576007481044999,0.010604445760278329]",4.0,"[-0.1709940265441636,0.07246828549679181]",100.0,"[-0.194355324536846,-0.006385440117946636]",100.0,"[0.016252422103637417,0.0785159263371035]",100.0,"[0.008534165810984562,-0.004607545083789693]",4.0,"[-0.045573105280754686,0.1752350464145537]",100.0,"[0.027263247835290688,0.039841385579809714]",4.0,"[0.10321820783738835,-0.13337861901855216]",100.0,"[0.035128840637908,0.12610316841694796]",4.0,"[0.06032241281316357,0.06998647623842466]",4.0,"[0.15524067174704057,-0.10130106206542111]",100.0,"[0.005553797756995662,0.1944738166320339]",4.0,"[-0.09591600603255518,-0.01836998090067415]",100.0,"[0.023609814187572888,-0.04601436314845492]",4.0,"[0.1154838814868396,-0.06167821329190889]",4.0,"[-0.07762837144810827,0.14656074450730383]",100.0,"[-0.017075848541988604,-0.08198807147341473]",4.0,"[-0.03280482726719952,0.08008795997020107]",100.0,"[0.08623409404646729,0.1472668634717391]",4.0,"[0.18713134820492108,-0.00808039680675009]",4.0,"[0.1261534969482577,0.045215454015823976]",4.0,"[-0.013761993422161993,-0.1937952040408111]",100.0,"[0.04908915687102536,-0.17348882777105723]",100.0,"[-0.05842933711069004,-0.04567142417011972]",100.0,"[0.02,0.02]",234.3797,0.0,26.0,26.0,138.0,1.0,0.1369,,,,,,,,
,,,,,,,683729c64975b4dbb8ff32f4,68399cfd12d067932d614819,2025-05-30_07h58.17.061,shape_ratio,2024.1.5,Win32,59.88023952,683853e18dae57a2147b65e0,,,,,,,,,,,234.3816,234.8799,,,235.1301,235.362,right,,,,,,,,0.5,,,,,,234.8801,235.13,235.3621,"[0.1321833019552532,-0.04723511592531755]",4.0,"[-0.004152737371530193,-0.00935564287830985]",4.0,"[0.027350753512908426,-0.10381744886596751]",4.0,"[-0.008988866632726623,-0.16966470398468358]",100.0,"[0.14664963834262176,-0.13166344189972626]",100.0,"[-0.06575810473554067,0.05538485730654991]",4.0,"[-0.13396606257906654,0.0646650602154171]",100.0,"[0.10092760269516744,-0.16249797692702855]",100.0,"[-0.12145863710864904,0.11764878808284703]",4.0,"[0.05269102174386172,0.048134055060595524]",4.0,"[-0.14591173006670274,-0.11108559293808104]",4.0,"[0.16417259338953863,0.09801562939292634]",4.0,"[0.02097763267951845,0.13244673788744207]",100.0,"[-0.10046482813725043,-0.06606780816870576]",100.0,"[-0.17654470376385226,0.07575760631549514]",100.0,"[0.06758834542091381,0.0008036025348860371]",100.0,"[0.1846227509221022,0.005838712675695406]",100.0,"[-0.05578161135023987,-0.13407262381994609]",4.0,"[-0.03277768629904516,0.1946008970856968]",4.0,"[-0.02020606642238717,0.07106416587564611]",4.0,"[-0.06407613327702971,0.14162164101062794]",100.0,"[-0.0532593158060511,-0.021967526111871596]",100.0,"[-0.10243478546348092,-0.0033853399301006096]",4.0,"[-0.10758879599157012,-0.14157083094519562]",4.0,"[-0.18423251950004257,-0.024379745921934638]",100.0,"[0.0889658268717962,0.12095908465797628]",100.0,"[0.030378454628003523,0.08879067658943827]",4.0,"[0.16907412671281105,-0.06309838880614976]",4.0,"[0.08149719644287536,-0.06743670283499753]",100.0,"[0.10351581262280335,0.04895075757536453]",100.0,"[-0.17714160212716704,-0.06663841941221446]",4.0,"[0.12003155920401651,-0.0994184175037098]",100.0,"[0.02,0.02]",236.461,0.0,27.0,27.0,107.0,1.0,0.2162,,,,,,,,
,,,,,,,683729c64975b4dbb8ff32f4,68399cfd12d067932d614819,2025-05-30_07h58.17.061,shape_ratio,2024.1.5,Win32,59.88023952,683853e18dae57a2147b65e0,,,,,,,,,,,236.462,236.9606,,,237.2134,238.71,,,,,,,,,0.45,,,,,,236.9608,237.2134,238.7102,"[0.0180376110230781,-0.033339739845451535]",4.0,"[0.058586613941244564,-0.15934514924139118]",4.0,"[0.17835528244433213,-0.05269049768402522]",4.0,"[-0.05636851537662616,-0.18549972558654787]",100.0,"[-0.019491074378532695,0.19075149888155207]",100.0,"[0.09180670528940772,-0.025721354235652503]",4.0,"[0.028410814376366375,0.19071921101894268]",4.0,"[-0.03927008525459887,0.08408184879183368]",4.0,"[-0.02208423125563957,-0.03637996519262423]",100.0,"[-0.01110659422828222,-0.11880533671202437]",4.0,"[-0.08617483094893011,0.0698321380824137]",4.0,"[0.00431585573544227,-0.17130482211418274]",4.0,"[-0.13648809174253465,0.13934852499705913]",100.0,"[0.12185813620858908,0.11906385746793255]",100.0,"[0.08182844703059494,0.15175025567620512]",4.0,"[-0.14557679600547987,0.08405321831222892]",100.0,"[0.15491907922895642,0.061519336601567096]",4.0,"[-0.10287714951081903,-0.12911276193014076]",100.0,"[-0.1943661515852517,-0.030443623428510806]",100.0,"[-0.018326273879116596,0.0461541481466636]",100.0,"[0.10448118052692666,-0.1564199277168321]",4.0,"[-0.09228866721814873,0.0033792710656479204]",100.0,"[-0.09012759775740233,-0.08179524695927537]",4.0,"[-0.05640612356742294,-0.12105305566171637]",4.0,"[-0.09565578780482502,0.1179272507936274]",100.0,"[0.1280143028157885,-0.04426044569271224]",4.0,"[0.05342710443297391,0.07314508164847235]",100.0,"[-0.14620330001906104,-0.009073700271638481]",100.0,"[-0.008881193159776916,0.13743518109537595]",4.0,"[0.02919001160797584,-0.12325665918638344]",100.0,"[0.14096862806909463,-0.1176730655464444]",4.0,"[-0.12978704625031703,-0.08956815919479676]",4.0,"[0.02,0.02]",239.8087,0.0,28.0,28.0,123.0,1.0,,,,,,,,,
,,,,,,,683729c64975b4dbb8ff32f4,68399cfd12d067932d614819,2025-05-30_07h58.17.061,shape_ratio,2024.1.5,Win32,59.88023952,683853e18dae57a2147b65e0,,,,,,,,,,,239.8107,240.3081,,,240.5471,241.4405,right,,,,,,,,0.55,,,,,,240.3084,240.5469,241.4409,"[-0.006022985050783016,-0.16257392178903052]",100.0,"[-0.07215326628657405,-0.08884347475962619]",4.0,"[0.13683890530129877,-0.06840697178507413]",4.0,"[-0.03941573262190444,0.07500493716785432]",100.0,"[-0.021765197683644655,0.015461391953628341]",100.0,"[-0.024198551804720646,-0.0475224616720345]",100.0,"[-0.04024215982979218,-0.19194562833155424]",100.0,"[0.08576336967764138,0.1348699815952028]",4.0,"[0.14463839423400635,0.13252530477017876]",4.0,"[0.007743193968238428,-0.10684636233111984]",4.0,"[-0.024360508230931152,0.18861748167547615]",100.0,"[0.09348849915396452,-0.13172080312007192]",4.0,"[-0.024692134040407595,0.13423425029720146]",100.0,"[-0.17862340732131254,0.08983839429933119]",4.0,"[0.03665565718855544,0.14619204482440323]",100.0,"[0.031591686492961145,0.05810607233696175]",100.0,"[0.038757845420228504,-0.0199138828288187]",4.0,"[-0.11836711681805531,-0.1577500890553685]",4.0,"[-0.11918098252390112,0.0027188247454921245]",4.0,"[-0.11039779779804476,-0.06005009045922965]",4.0,"[-0.18151313544836975,-0.07756668138433646]",100.0,"[0.10731409520085082,0.08299462341614589]",100.0,"[0.167536125690276,-0.009189841329193208]",100.0,"[0.09074776120234015,-0.06349006794215442]",100.0,"[0.12885278841348874,-0.028709832447097666]",100.0,"[-0.1753820867999099,-0.029550999726623083]",100.0,"[0.05369705101083987,-0.18483737778158496]",4.0,"[-0.1434761944334783,-0.11762177121883291]",100.0,"[0.1667242145190017,0.041323413164065466]",4.0,"[0.048292479308465565,-0.13102744618533974]",100.0,"[-0.09036232814762526,0.055755604125949695]",4.0,"[0.1652260938228318,0.08366774756307647]",100.0,"[0.02,0.02]",242.5398,0.0,29.0,29.0,84.0,1.0,0.874,,,,,,,,
,,,,,,,683729c64975b4dbb8ff32f4,68399cfd12d067932d614819,2025-05-30_07h58.17.061,shape_ratio,2024.1.5,Win32,59.88023952,683853e18dae57a2147b65e0,,,,,,,,,,,242.5415,243.0396,,,243.2918,243.539,right,,,,,,,,0.4,,,,,,243.0399,243.2917,243.5393,"[-0.022031577327101984,0.1021521312267784]",4.0,"[0.005796612794303785,-0.09108642018272695]",4.0,"[-0.03470569651100432,-0.16436987825734256]",100.0,"[0.07891342530359251,0.10632832876938952]",100.0,"[-0.12672190495188365,0.09664623590479708]",100.0,"[-0.0730655295082436,0.16854155278028787]",4.0,"[0.12186372869339417,-0.022055606654483077]",4.0,"[0.006500032960058909,0.04765605100116264]",4.0,"[-0.17633235292198624,-0.04736506685496701]",4.0,"[0.03680103290542342,0.18835767907251183]",100.0,"[0.17516731651637252,0.010237182094696188]",4.0,"[-0.16604738525061996,-0.10926622686464799]",100.0,"[0.08543910761208491,-0.10747376319357647]",100.0,"[0.053198329960646815,0.14955435240068074]",4.0,"[0.0986342325037819,-0.16055319659907896]",4.0,"[0.026800251841189657,0.00941243971861506]",100.0,"[-0.09926007732433784,-0.14492740199993157]",4.0,"[-0.026642349761169647,0.18383605278313145]",4.0,"[-0.19443905859888527,0.02093163583367112]",100.0,"[0.05059891647070522,0.059796503323839935]",100.0,"[0.13439655718078214,0.025160218435808727]",4.0,"[0.15276602083158985,-0.11555136944667516]",100.0,"[-0.06604488439572367,-0.0941904534150771]",4.0,"[-0.10925616203262238,-0.01719939859024907]",4.0,"[-0.10198262046215377,0.1381782619245339]",4.0,"[-0.06418557602639005,0.0929046842895873]",4.0,"[-0.07070846614141804,0.04979812100408696]",100.0,"[0.10471499535442458,0.06323655205120668]",100.0,"[0.07023604553067521,-0.0036536534472452168]",100.0,"[0.14275690432285057,0.08607156724241562]",4.0,"[-0.06573651799071696,0.0016914839139167983]",4.0,"[0.04036883126442437,-0.16289391814243456]",4.0,"[0.02,0.02]",244.638,0.0,30.0,30.0,161.0,1.0,0.223,,,,,,,,
,,,,,,,683729c64975b4dbb8ff32f4,68399cfd12d067932d614819,2025-05-30_07h58.17.061,shape_ratio,2024.1.5,Win32,59.88023952,683853e18dae57a2147b65e0,,,,,,,,,,,244.6396,245.1384,,,245.3913,245.521,left,,,,,,,,0.4,,,,,,245.1385,245.3912,245.5212,"[0.1325187526987791,0.0984812856864131]",100.0,"[-0.029493338087045847,-0.07466350030480351]",100.0,"[-0.14158663596073157,-0.09900582653518067]",4.0,"[0.17185206938237976,0.06335791001175274]",4.0,"[0.13625945767837377,0.024677683565545026]",4.0,"[0.0006469713820410281,-0.005569707765542226]",4.0,"[0.14086089320266215,0.13933096934691358]",4.0,"[0.058864404903076324,-0.17846501407112564]",100.0,"[-0.0915216142994014,0.003588318493388572]",4.0,"[-0.13933894689407447,-0.04134669468437872]",4.0,"[0.01908948089118048,-0.19603170804564535]",4.0,"[-0.10001580448301144,-0.08806807129136077]",100.0,"[-0.18223685855380228,-0.06164747683334189]",100.0,"[0.025319928774122792,0.04560794048699458]",100.0,"[0.04379535408872959,-0.00859139997737389]",100.0,"[0.12541267127568792,-0.11877187044212001]",100.0,"[-0.031176781280336085,-0.15854711800635035]",4.0,"[-0.013288274535599782,0.11141305497374013]",4.0,"[-0.05357791989248573,0.07745795899244358]",100.0,"[0.028069374823947633,0.0881723913624588]",100.0,"[-0.13756635029028058,0.04905509240232164]",4.0,"[0.0705209633643848,0.1505732984867242]",4.0,"[0.09507756397683456,0.03466432689966579]",4.0,"[0.19198754547974328,0.021213922134529155]",4.0,"[0.09805103400217767,-0.05945786992629807]",100.0,"[-0.0110041412036002,-0.11564752595521985]",4.0,"[0.07422533447611405,0.09858425633265375]",4.0,"[-0.06047336485523412,-0.04068271740945791]",100.0,"[-0.09067091040492183,-0.1680001415495832]",4.0,"[0.03574520345392529,0.1275226292960687]",100.0,"[-0.03263882861218106,0.02565597197288064]",4.0,"[0.0002581980766968827,0.1960066689462959]",4.0,"[0.02,0.02]",246.6196,0.0,31.0,31.0,159.0,1.0,0.1052,,,,,,,,
,,,,,,,683729c64975b4dbb8ff32f4,68399cfd12d067932d614819,2025-05-30_07h58.17.061,shape_ratio,2024.1.5,Win32,59.88023952,683853e18dae57a2147b65e0,,,,,,,,,,,246.6213,247.125,,,247.3699,247.4515,right,,,,,,,,0.55,,,,,,247.1251,247.3697,247.4516,"[-0.16045083348507777,0.01355884954180822]",4.0,"[-0.04037253076701706,0.19045296981110485]",100.0,"[0.08967296282017917,0.07895154715591014]",4.0,"[0.02019830001331286,-0.07758383880384409]",100.0,"[0.04491822942284526,0.17946799636452362]",4.0,"[0.005892326446774848,0.13810550503355004]",100.0,"[0.0454091145948885,-0.14072004118770953]",100.0,"[-0.043400264814689025,-0.04167594904347145]",100.0,"[0.11770193013944832,-0.13509183098784547]",4.0,"[-0.14819486815080704,0.05663293874171502]",4.0,"[-0.0075693202297521045,-0.18344494072295772]",100.0,"[0.08584119157440694,0.12064514486421885]",4.0,"[-0.07562797487564377,0.16285731294419795]",100.0,"[-0.026963450630754986,-0.12494041450113176]",4.0,"[0.1245328636948285,-0.01650554779002565]",4.0,"[0.05553955766000699,0.02562942903595036]",100.0,"[-0.04267379790775979,0.041673327931681436]",100.0,"[0.15669900351006316,-0.05247530345415307]",4.0,"[0.02430185129002563,-0.011706689096689904]",100.0,"[0.07452227595553988,-0.07079530195646612]",100.0,"[0.14296055042039935,0.05434287468968187]",4.0,"[0.12356500125441129,0.1517735668165238]",100.0,"[-0.09835989119671895,0.03074400379188835]",100.0,"[-0.11762485347020812,-0.13525028017734464]",100.0,"[-0.10627433176748337,0.08283569156885631]",4.0,"[-0.054844133379902016,-0.17545013243321014]",100.0,"[-0.08632371660109864,-0.0660797977092971]",100.0,"[-0.15939454077317902,0.09783312597780368]",4.0,"[-0.01480076083964395,0.10351931494698867]",100.0,"[-0.08455563289475644,-0.019772020096037974]",4.0,"[-0.1276306863701665,0.14264270272947457]",100.0,"[-0.1926867002244647,-0.04641851642677253]",4.0,"[0.02,0.02]",248.5507,0.0,32.0,32.0,78.0,1.0,0.07,,,,,,,,
,,,,,,,683729c64975b4dbb8ff32f4,68399cfd12d067932d614819,2025-05-30_07h58.17.061,shape_ratio,2024.1.5,Win32,59.88023952,683853e18dae57a2147b65e0,,,,,,,,,,,248.5517,249.0508,,,249.3076,249.4512,right,,,,,,,,0.1,,,,,,249.0509,249.3076,249.4516,"[-0.10240515467176395,0.16354191755647599]",4.0,"[0.07225972311325424,-0.01474746540125635]",4.0,"[-0.14666498601563643,0.06485639193968733]",4.0,"[0.00520454675052137,0.14160947030414273]",4.0,"[-0.10897612443894507,-0.0580803929098634]",4.0,"[0.01999813617168413,-0.1066495737111968]",4.0,"[-0.07096403374601305,-0.14868398331540483]",4.0,"[-0.014536935237527363,-0.00851414953621455]",4.0,"[0.07006583550727799,0.08205924996184827]",4.0,"[0.08502562861819786,-0.1562397378403807]",4.0,"[-0.03278567988401159,0.10692423502296848]",100.0,"[-0.081143557192262,-0.020420695898021486]",4.0,"[-0.10087510571050419,0.07872263857013709]",4.0,"[-0.14923666038437913,-0.05190455493874775]",4.0,"[0.1515062722908719,-0.0780904470203927]",4.0,"[0.044937460503299824,0.04113001126688644]",4.0,"[0.14952270665712294,0.11197375154115875]",4.0,"[0.005452920687828165,-0.18722584587015573]",4.0,"[-0.19098726153483084,-0.03869419086517153]",4.0,"[-0.0734958205846644,-0.09142873212257481]",4.0,"[-0.08473365988912304,0.12255426912051716]",4.0,"[0.03139156660246414,-0.017076183834271657]",4.0,"[-0.025892214188804545,-0.09116958808607659]",100.0,"[-0.023306820528445397,0.17555166649917966]",4.0,"[0.18732513775888449,0.05733165410442428]",100.0,"[-0.16725800105262525,0.10902839851338822]",4.0,"[0.08082399011724761,0.13051300353522194]",4.0,"[0.1407445875884708,0.01999080111550234]",4.0,"[0.10321900697351785,0.04728503409406635]",4.0,"[-0.08054114824717848,0.031771350148033194]",4.0,"[0.08751984463392223,-0.11171885389214735]",4.0,"[-0.12308483161434267,-0.12065672630756842]",4.0,"[0.02,0.02]",250.5503,0.0,33.0,33.0,208.0,1.0,0.1246,,,,,,,,
,,,,,,,683729c64975b4dbb8ff32f4,68399cfd12d067932d614819,2025-05-30_07h58.17.061,shape_ratio,2024.1.5,Win32,59.88023952,683853e18dae57a2147b65e0,,,,,,,,,,,250.5514,251.0492,,,251.303,251.3992,right,,,,,,,,0.5,,,,,,251.0495,251.3029,251.3996,"[-0.15308455232419785,-0.05962540119105264]",100.0,"[0.11374374152349238,-0.014488872581225616]",100.0,"[-0.05756873974081904,-0.0435276855410313]",4.0,"[0.05713629646904339,-0.03993367826803552]",100.0,"[0.05560946011671004,0.09400525989894208]",100.0,"[0.02932680585340191,0.05013673561825931]",100.0,"[-0.14481984636715362,0.08628998734976441]",4.0,"[0.1641764612335568,-0.04097704972610912]",4.0,"[-0.12381973004645075,-0.1069602783663396]",100.0,"[-0.057677736293433195,0.12104072160916857]",4.0,"[-0.1769875074534845,0.048579834913830416]",4.0,"[-0.09020950699544474,0.06587744623334016]",100.0,"[0.00527277471827995,-0.10582736379114684]",100.0,"[0.08012313732540303,0.16051660730600403]",100.0,"[-0.1381348221648357,0.027223494058001042]",4.0,"[0.07886174710582176,-0.17944341205587255]",4.0,"[0.09854832753694934,-0.14336038037910204]",100.0,"[0.08313593283202846,0.037012819803650523]",100.0,"[0.03975228194899263,0.13566335793987125]",100.0,"[0.14925547393522554,-0.11254431514226258]",4.0,"[-0.01382289409545213,-0.05884509853590592]",4.0,"[-0.016821178668621373,0.12996948209626205]",4.0,"[0.02123170011355055,-0.01652248636340426]",100.0,"[-0.03859317314465727,-0.0903885781364574]",4.0,"[-0.12052800250649198,-0.1552400958890178]",4.0,"[-0.051887769838339336,-0.14718716548180893]",4.0,"[0.14526500556247665,0.10448644206050124]",100.0,"[0.06870081679635481,-0.11610789705682005]",4.0,"[0.16651032111818687,0.030569756533607856]",100.0,"[-0.0052578316027072575,-0.14651062088109743]",4.0,"[0.09856040602978741,0.07795103796319966]",100.0,"[-0.02396590183898756,0.037620990656907057]",4.0,"[0.02,0.02]",252.5045,0.0,34.0,34.0,117.0,1.0,0.0702,,,,,,,,
,,,,,,,683729c64975b4dbb8ff32f4,68399cfd12d067932d614819,2025-05-30_07h58.17.061,shape_ratio,2024.1.5,Win32,59.88023952,683853e18dae57a2147b65e0,,,,,,,,,,,252.5058,252.9978,,,253.2532,253.3138,right,,,,,,,,0.1,,,,,,252.9979,253.2532,253.3142,"[-0.13557597602048707,-0.10456073355654417]",4.0,"[-0.07016559356749236,-0.17070275433145207]",4.0,"[0.15755862760581674,0.07405381402419019]",4.0,"[0.12092470974963489,-0.12908641314164562]",4.0,"[0.059902481247259,0.16975309294924967]",4.0,"[-0.1240543763216384,0.08040638255642084]",4.0,"[-0.13645351692006613,0.13082265408183852]",4.0,"[-0.06988797248344429,-0.013700387290497289]",4.0,"[0.19358406816895768,-0.003350263789637854]",4.0,"[0.11699940873162663,-0.021855115415278188]",4.0,"[-0.07367417024975464,0.10084832188999325]",4.0,"[-0.17316255110204884,-0.04161796326290742]",4.0,"[0.16756335959790664,-0.05438301548337091]",100.0,"[-0.185892875708161,0.07148217516085673]",4.0,"[0.10938533493136497,0.12984440038353362]",4.0,"[-0.09703125656906311,0.03460687685568514]",4.0,"[-0.0011509973381916832,0.08337814577749637]",4.0,"[-0.021977104990581694,0.19045109349647585]",100.0,"[0.057989806226015135,0.00836003523798488]",4.0,"[0.07328273349418163,-0.06084616236507674]",4.0,"[0.042187935129317296,0.12807487658579067]",4.0,"[0.11552902241385385,0.03471044124341809]",4.0,"[0.06989838135215572,-0.14437964539163597]",4.0,"[-0.038521504665719505,0.12512670571564394]",4.0,"[0.020971910216483328,-0.1465311405981457]",4.0,"[-0.028582355511797785,-0.07906666203032801]",4.0,"[0.12221300938537684,-0.07688119962035017]",4.0,"[-0.02419983160977182,-0.16934995736067712]",4.0,"[-0.07283087277772354,-0.06776643910647089]",100.0,"[-0.029892202583826157,-0.002441865582786034]",4.0,"[0.023786280955998596,-0.03962379786239216]",4.0,"[0.10092528210038693,0.17165944174504172]",4.0,"[0.02,0.02]",254.4132,0.0,35.0,35.0,184.0,1.0,0.0425,,,,,,,,
,,,,,,,683729c64975b4dbb8ff32f4,68399cfd12d067932d614819,2025-05-30_07h58.17.061,shape_ratio,2024.1.5,Win32,59.88023952,683853e18dae57a2147b65e0,,,,,,,,,,,254.4151,254.9128,,,255.1683,255.3463,right,,,,,,,,0.55,,,,,,254.9129,255.1682,255.3465,"[-0.02640819794600567,0.01923818182317354]",4.0,"[-0.0636251312872692,-0.16815427329004703]",100.0,"[0.15366121317569856,-0.045583042008489894]",100.0,"[0.05188405407101355,-0.17629166666734825]",100.0,"[-0.10354362754763151,-0.1321050618178058]",4.0,"[0.010082499696166475,0.16708197661872048]",4.0,"[-0.07947061362593116,-0.08924755590377183]",100.0,"[0.10424290097808814,-0.11461775725487901]",4.0,"[0.16188524457294107,0.038554891229974096]",100.0,"[-0.08821867677378412,0.10303759885530242]",4.0,"[0.09617866753666371,0.13337381443078983]",4.0,"[0.1016849146599761,0.018548133198578974]",100.0,"[0.10372433362251125,-0.05789890563147405]",100.0,"[-0.14711542196759914,0.06984648007299131]",100.0,"[0.12392123813194258,0.0547048848838125]",100.0,"[0.03592905469295511,-0.10197883092595038]",4.0,"[0.1339510357428864,0.11352717774438757]",4.0,"[-0.1317125697495059,0.025566941372809095]",100.0,"[0.052192082866767686,0.05533302317846301]",4.0,"[0.1619081778907601,-0.006400401166554784]",4.0,"[0.003644564419680988,-0.06387847031845038]",4.0,"[-0.1582015466211626,-0.12149760936129544]",100.0,"[-0.044023485464507434,0.16709644989061553]",100.0,"[-0.14035457946296875,-0.07062003282575957]",100.0,"[0.08826598908571766,-0.15513240040406903]",4.0,"[0.051268896790124203,0.10187289141952469]",4.0,"[-0.16942952283004792,-0.03554422510916819]",100.0,"[0.015311305498801941,-0.14080119491096027]",100.0,"[-0.04102750286805429,0.07465609357912359]",100.0,"[-0.08936438969384468,-0.027521390854465047]",4.0,"[0.11715917631786056,-0.018588633004646877]",100.0,"[0.05520608211336182,0.1880799454105954]",100.0,"[0.02,0.02]",256.4448,0.0,36.0,36.0,69.0,1.0,0.1572,,,,,,,,
,,,,,,,683729c64975b4dbb8ff32f4,68399cfd12d067932d614819,2025-05-30_07h58.17.061,shape_ratio,2024.1.5,Win32,59.88023952,683853e18dae57a2147b65e0,,,,,,,,,,,256.4461,256.9446,,,257.1948,257.4106,left,,,,,,,,0.6,,,,,,256.9447,257.1947,257.4108,"[0.10662778086626183,-0.1577961423039086]",100.0,"[-0.1388257539304584,0.05644065300347989]",100.0,"[0.04728701392422758,0.12201646172012622]",100.0,"[0.15624670074187422,-0.05309250536044788]",100.0,"[0.08825197790331368,-0.07626001979093786]",4.0,"[-0.16976372752475122,0.02480132561807398]",100.0,"[0.06596926611405873,-0.16384249069558113]",4.0,"[-0.18027981649076227,0.08362510646421005]",100.0,"[0.05525274448336674,0.16775456423360544]",100.0,"[-0.0773557969505378,0.1620496435640549]",4.0,"[-0.01934198739667584,-0.18313773411625736]",100.0,"[0.11471426492714704,0.04456511802811966]",4.0,"[-0.12160780685825341,0.1467363229814597]",4.0,"[0.11980619356136864,0.10963978899366197]",100.0,"[-0.00426058892473007,-0.049841045071489995]",100.0,"[-0.17489324711209142,-0.02001616413585264]",4.0,"[0.04503072478881251,-0.03631683195676927]",4.0,"[-0.0039109683799529735,0.04358370400753866]",4.0,"[-0.08303073587501168,-0.023291175474358633]",100.0,"[0.0055291878378676855,-0.1280265501991633]",100.0,"[0.16391971383652124,-0.006599416398102453]",100.0,"[-0.08617987353472248,0.041791640305814726]",100.0,"[0.016939850120987653,0.15181279471917894]",100.0,"[-0.1433292477977517,-0.1112527249462446]",100.0,"[-0.06110228703588928,-0.18182938572019577]",100.0,"[0.019487720620063254,-0.1719425281707695]",100.0,"[-0.07780988608421106,0.0991161374130172]",100.0,"[-0.04678280338235113,0.07370754702974493]",4.0,"[-0.16997145277785133,-0.060327213653771534]",4.0,"[0.07262563177579232,0.08624257046711267]",4.0,"[0.06445090535296129,0.02130590367415595]",4.0,"[0.08395133811593478,-0.026017618333300574]",4.0,"[0.02,0.02]",258.5094,0.0,37.0,37.0,38.0,1.0,0.2023,,,,,,,,
,,,,,,,683729c64975b4dbb8ff32f4,68399cfd12d067932d614819,2025-05-30_07h58.17.061,shape_ratio,2024.1.5,Win32,59.88023952,683853e18dae57a2147b65e0,,,,,,,,,,,258.5102,259.0092,,,259.2494,260.7083,right,,,,,,,,0.4,,,,,,259.0092,259.2494,260.7089,"[0.056799541587446246,0.11644919000172727]",4.0,"[0.06705500644308168,-0.15694978849110308]",100.0,"[-0.0015968169386423176,0.16730529502258945]",100.0,"[0.035600577318540404,-0.10684536406961175]",4.0,"[-0.07607403251180768,-0.09529327960311545]",100.0,"[-0.11070679522527868,-0.12602748069440864]",100.0,"[0.12104666877189316,0.10325209017987562]",4.0,"[-0.05874971680297018,0.06274789959330579]",4.0,"[-0.012116149381257942,0.06167001594723793]",100.0,"[0.1362627117203823,-0.07126672626602037]",4.0,"[0.061034373725632335,-0.062006117769267115]",4.0,"[0.08723514734279841,-0.007032921265340382]",100.0,"[-0.025268186872324253,-0.1684116644450375]",4.0,"[-0.15209090211072437,-0.01810848449240812]",4.0,"[0.09003509398500975,0.05766889839433333]",4.0,"[0.0012815635221455532,0.12473405782553089]",4.0,"[-0.008320301737002416,-0.12181212145330578]",100.0,"[-0.17457969750859892,0.0280414847357665]",100.0,"[0.1250287952347563,-0.12650979177158103]",4.0,"[-0.10768744471677147,0.13271413207418883]",100.0,"[-0.11124303033968008,0.08415825991795522]",100.0,"[0.008125459793223813,-0.005710160599592498]",100.0,"[-0.11787091070688967,-0.08252233836965141]",4.0,"[-0.06450542458148638,0.10940279281771338]",4.0,"[0.16173629624870708,0.02056323583520235]",4.0,"[-0.16128413264143773,-0.07875025577307507]",100.0,"[-0.15660704810706066,0.09993563211117186]",4.0,"[0.19124917626803736,-0.026684593521731054]",100.0,"[0.06082432703135191,0.1773502564268512]",4.0,"[-0.07170247109961296,-0.015993660288660862]",4.0,"[0.047549645688761535,0.044289494801942726]",4.0,"[-0.059455473702437284,0.16097601519491186]",4.0,"[0.02,0.02]",261.8071,0.0,38.0,38.0,174.0,1.0,1.4362,,,,,,,,
,,,,,,,683729c64975b4dbb8ff32f4,68399cfd12d067932d614819,2025-05-30_07h58.17.061,shape_ratio,2024.1.5,Win32,59.88023952,683853e18dae57a2147b65e0,,,,,,,,,,,261.8089,262.3091,,,262.5583,262.88,right,,,,,,,,0.4,,,,,,262.3092,262.5582,262.8802,"[0.13450724484387963,0.07765514199638765]",4.0,"[0.0427113230648145,0.1136999638832782]",100.0,"[-0.05936084420693228,-0.056790604697313306]",4.0,"[-0.11708875621505095,-0.15938228091301634]",4.0,"[0.15906343345951496,-0.044798722559494686]",4.0,"[0.03797364288779786,-0.16776385488081266]",100.0,"[-0.0546558026618072,0.1150063315300864]",4.0,"[-0.0897634062538842,0.09149769488251197]",100.0,"[-0.16446089410692732,-0.03230155633103885]",4.0,"[0.04887092144776481,-0.06882481295566735]",4.0,"[0.1252310398184773,-0.14907202874793338]",100.0,"[-0.010568739764490005,-0.02232479896911436]",4.0,"[-0.11683642978497585,0.06065438357570894]",100.0,"[0.05331323022576114,-0.007399496478532887]",100.0,"[0.10182148472985157,-0.05792083263508324]",4.0,"[-0.04361860726853695,-0.10768045344640785]",4.0,"[-0.0659072512928841,-0.166083259111882]",4.0,"[0.03321307319386726,0.17154264999383428]",100.0,"[-0.15458431811494056,-0.10448911678091086]",4.0,"[-0.005652690457356359,0.02384580428355874]",4.0,"[-0.1625044613454768,0.04737022309005698]",4.0,"[0.14486912395256896,0.02537006717335119]",4.0,"[-0.1299420573711699,0.13251853726467597]",100.0,"[-0.06648861600300801,0.004226031414509675]",4.0,"[0.1748369426937626,0.08688548667341998]",100.0,"[0.03119112263045264,-0.11983446579773106]",100.0,"[-0.008986804985456556,0.07124676101120005]",4.0,"[0.1285594392239448,0.12313208825046697]",100.0,"[-0.11163937784614392,-0.10385250158573592]",4.0,"[0.03185076766008742,0.06961628743193518]",4.0,"[-0.00048491640975928987,-0.14510070868336086]",100.0,"[-0.015383518068259739,-0.19311171586930603]",100.0,"[0.02,0.02]",263.9721,0.0,39.0,39.0,163.0,1.0,0.3009,,,,,,,,
,,,,,,,683729c64975b4dbb8ff32f4,68399cfd12d067932d614819,2025-05-30_07h58.17.061,shape_ratio,2024.1.5,Win32,59.88023952,683853e18dae57a2147b65e0,,,,,,,,,,,263.9736,264.4716,,,264.7225,264.9879,right,,,,,,,,0.1,,,,,,264.472,264.7225,264.988,"[-0.11473525972765043,-0.1180314569082978]",100.0,"[0.10650935377268682,0.016151146306592236]",4.0,"[0.002789129715419742,-0.06430750868185017]",4.0,"[0.011193456295671088,-0.10476805970367747]",4.0,"[0.021521331761445807,-0.00759185146967359]",100.0,"[0.0003633213969139033,0.14761583775613324]",4.0,"[-0.028414079939407304,0.1979090783343857]",4.0,"[-0.05662947923153349,-0.14624335838034244]",4.0,"[0.020088845579593152,0.09940284763029593]",4.0,"[-0.14645698878758304,-0.056583702090276446]",4.0,"[-0.1277994971503067,0.11226899098986289]",4.0,"[0.051122684755165466,0.07075346976898453]",4.0,"[-0.10622958728880456,-0.030702829957096816]",4.0,"[0.13052984891751598,0.08125419134356883]",4.0,"[0.057122370445534615,-0.09669922706261339]",4.0,"[0.09640868481994772,0.1503554444182841]",4.0,"[0.16459389664798774,-0.017997014142548232]",4.0,"[0.11309358466026573,-0.05511762475115253]",4.0,"[-0.11575372181027106,0.16164081794611748]",4.0,"[0.0489486606656716,0.16713908965614063]",4.0,"[0.12164025163247551,-0.12095630648716335]",4.0,"[0.06706258468468086,-0.01116381185880783]",4.0,"[-0.08416358737581162,-0.08437124580579416]",100.0,"[-0.15674331979643927,-0.096451185669632]",4.0,"[-0.10548627936239163,-0.1616970882538837]",4.0,"[-0.059714032435903584,0.10153186910569696]",4.0,"[0.05118383353739434,-0.14542808390651987]",4.0,"[-0.16700310156108608,0.09390259613671849]",4.0,"[-0.07530287513137397,0.038310934442797234]",4.0,"[0.19857264219543036,0.0038414715299097684]",4.0,"[-0.19399998121922063,-0.01553291943694353]",4.0,"[0.016137874225737675,0.046356146094902725]",4.0,"[0.02,0.02]",266.0868,0.0,40.0,40.0,197.0,1.0,0.2497,,,,,,,,
,,,,,,,683729c64975b4dbb8ff32f4,68399cfd12d067932d614819,2025-05-30_07h58.17.061,shape_ratio,2024.1.5,Win32,59.88023952,683853e18dae57a2147b65e0,,,,,,,,,,,266.0876,266.5867,,,266.8367,268.002,left,,,,,,,,0.9,,,,,,266.5868,266.8366,268.0024,"[0.07046760008090137,0.1588508460317726]",100.0,"[0.008754060678231342,-0.16827872307718852]",100.0,"[0.05995001393612619,0.09143099790711112]",4.0,"[-0.04908021138250054,-0.19325649884116983]",100.0,"[0.13124339050741787,-0.07672990488127215]",100.0,"[0.08538649888458813,-0.17391957951084394]",100.0,"[0.10813154278412021,-0.13164166088510038]",100.0,"[-0.06115958286171151,-0.11484434458767959]",100.0,"[-0.1180048094139345,0.14963108913160839]",100.0,"[-0.12542868416440905,0.028116044074008376]",100.0,"[0.07172384053332294,-0.08200923018994602]",4.0,"[0.09323102375980252,0.022640913900106918]",100.0,"[-0.1639473468264145,-0.07974296259943857]",100.0,"[0.03325581439715369,-0.09923349956722365]",100.0,"[-0.1869808838781271,0.07013367327885439]",100.0,"[0.11207870222697339,-0.026022958758786324]",100.0,"[-0.13364721483887668,-0.03955887372056917]",100.0,"[-0.005422209039854044,0.07818482555946997]",100.0,"[-0.19748307273995813,-0.027871001153232107]",100.0,"[-0.032448686032006756,-0.08098237486597658]",4.0,"[-0.08663582749086048,-0.1529068777859132]",100.0,"[0.029152451375034916,0.012017760131859677]",100.0,"[0.0668913316255252,-0.13277742141799445]",100.0,"[-0.02708903153739336,-0.14112465409190117]",100.0,"[0.11609246076550898,0.08586072073146576]",100.0,"[0.01697499076380636,0.14232922874140125]",100.0,"[0.1934116863485807,0.033433809514500874]",100.0,"[-0.04995515080746943,-0.01947146818968922]",100.0,"[-0.08475714097897939,-0.043156983076268654]",100.0,"[-0.17981788610983934,0.00842929218013152]",100.0,"[-0.1326510430744986,-0.11041055378068138]",100.0,"[-0.02350828766805095,0.028965684481153574]",100.0,"[0.02,0.02]",269.1005,0.0,41.0,41.0,15.0,1.0,1.1582,,,,,,,,
,,,,,,,683729c64975b4dbb8ff32f4,68399cfd12d067932d614819,2025-05-30_07h58.17.061,shape_ratio,2024.1.5,Win32,59.88023952,683853e18dae57a2147b65e0,,,,,,,,,,,269.1016,269.6005,,,269.8397,270.1503,right,,,,,,,,0.45,,,,,,269.6005,269.8396,270.1505,"[-0.048240543738462455,-0.027218402295923916]",4.0,"[0.10446514129783367,-0.02736728290513019]",4.0,"[-0.12128818856024687,-0.1012207287159485]",4.0,"[-0.0814663694509646,-0.08718507320485056]",4.0,"[-0.17672648124204263,0.0327161427347191]",100.0,"[0.050177373393808955,-0.03868508457832578]",100.0,"[-0.0667496007059032,-0.15845743316928554]",100.0,"[-0.11645634662528073,-0.030533538443799187]",100.0,"[-0.09406212567649376,0.033579931764355204]",4.0,"[0.02963008328225951,-0.13357868401574768]",4.0,"[0.028148735158794378,-0.002593520671402234]",4.0,"[-0.08942070637434676,0.17525172744280199]",100.0,"[0.13197298276329428,-0.12153182828679046]",4.0,"[0.012372975319157894,-0.1855786945064904]",4.0,"[0.12188080565286338,0.08949170400933762]",100.0,"[0.18758801128574604,-0.011492422761633253]",100.0,"[-0.07988308007968965,0.0745233445203838]",4.0,"[0.1123698091820405,0.033048020247959595]",100.0,"[-0.15858528535802915,-0.05403885965440144]",100.0,"[-0.013544700924037935,-0.12834065847360046]",4.0,"[-0.13584375728392223,-0.13855292851469744]",100.0,"[0.1375757244910533,0.0014368163483252365]",4.0,"[0.1621226294524341,0.06263677753431597]",4.0,"[-0.19150602849432688,-0.01289833197438803]",100.0,"[-0.13901155286845746,0.04678711272128712]",4.0,"[-0.18482369892148567,0.07213633041541781]",100.0,"[0.08317239228090953,-0.13124083312840407]",100.0,"[0.049863537918927045,-0.08319236854385045]",4.0,"[0.029928982245912172,0.1869823803338692]",4.0,"[0.18473249001483377,-0.056419363088107105]",4.0,"[0.06969450475066839,0.16345995263015559]",100.0,"[0.06307832492067335,0.02352655099262164]",4.0,"[0.02,0.02]",271.2495,0.0,42.0,42.0,120.0,1.0,0.2915,,,,,,,,
,,,,,,,683729c64975b4dbb8ff32f4,68399cfd12d067932d614819,2025-05-30_07h58.17.061,shape_ratio,2024.1.5,Win32,59.88023952,683853e18dae57a2147b65e0,,,,,,,,,,,271.251,271.749,,,272.0057,273.2653,right,,,,,,,,0.5,,,,,,271.7492,272.0055,273.2656,"[-0.011049770087392455,-0.15737969552587497]",100.0,"[0.06295687766178386,-0.17430385582221436]",4.0,"[-0.17118979003939785,0.01600560431857972]",4.0,"[0.11898715928686596,0.03953158132693432]",100.0,"[-0.11097548526177385,0.041389859995305985]",4.0,"[0.05823326222735804,0.15857608057644715]",4.0,"[-0.06397711982518094,-0.11535723893160545]",100.0,"[0.17470007979791188,-0.07213639541755323]",4.0,"[-0.042887873840957574,0.045815576382805756]",4.0,"[-0.08934589797234836,0.09404676769933883]",100.0,"[-0.10867778058639385,-0.12256096228877728]",4.0,"[0.0012698688286394075,0.16070022860900948]",4.0,"[0.009681118521941886,0.11260583846267705]",4.0,"[-0.16980850635076122,-0.046898027473907374]",4.0,"[-0.048575693410776624,-0.17240127364735267]",100.0,"[0.09379334023932981,-0.13720595832760532]",4.0,"[0.06377885630946858,0.0886477725141265]",100.0,"[0.16005708919383735,0.06807986422233875]",4.0,"[-0.17177739632666517,0.06639101787460604]",4.0,"[0.1672408500947333,0.007726337733994808]",100.0,"[0.06038673345767387,0.013411143203670341]",4.0,"[-0.05148414121904784,-0.044698452316120324]",100.0,"[0.10319978829412242,0.1278796944949465]",100.0,"[0.09414348443763607,-0.05962039524138609]",100.0,"[-0.12499567437326126,-0.04472866843187299]",100.0,"[-0.17210225067572435,-0.10177344963216527]",4.0,"[0.0464429013476445,-0.09039372880644916]",100.0,"[-0.05077127833321428,0.11778694786872591]",100.0,"[-0.08182019254485468,0.17669494938603336]",100.0,"[0.1393145409967962,-0.10612921300920813]",4.0,"[0.19157193581907672,-0.03326306742645891]",100.0,"[0.012701213762121516,-0.19229487416730062]",100.0,"[0.02,0.02]",274.3635,0.0,43.0,43.0,100.0,1.0,1.2368,,,,,,,,
,,,,,,,683729c64975b4dbb8ff32f4,68399cfd12d067932d614819,2025-05-30_07h58.17.061,shape_ratio,2024.1.5,Win32,59.88023952,683853e18dae57a2147b65e0,,,,,,,,,,,274.3651,274.8674,,,275.1165,275.2798,right,,,,,,,,0.1,,,,,,274.8674,275.1164,275.28,"[-0.16831481370019,0.06349059882349872]",4.0,"[0.04914078708833994,-0.04594515442367371]",4.0,"[-0.08889587188670266,-0.0012167251835824703]",4.0,"[-0.12947863955326983,-0.024066436672486646]",4.0,"[-0.10913721017752016,-0.07446471014592174]",4.0,"[0.0038384909225279797,0.1045817224655572]",4.0,"[0.15591988936202855,0.11008454668408077]",4.0,"[-0.08441052292501006,0.06205500727482695]",4.0,"[0.09364913071379455,-0.05779099496418096]",4.0,"[-0.05245371348726717,0.13641714463504118]",4.0,"[0.05341478705515957,-0.19120790146158945]",4.0,"[-0.009091792500032636,-0.18545788003274125]",4.0,"[-0.034713287782237034,0.008120752952943238]",4.0,"[-0.024895402929704307,0.19714144879575718]",4.0,"[0.020638039533544025,0.030925976371829797]",4.0,"[0.024378400543034494,0.155631139153958]",4.0,"[-0.033589056953170715,0.05392238591652321]",4.0,"[0.07388352941107301,0.0021206752949322503]",4.0,"[-0.024223033023645205,-0.14010736988147088]",4.0,"[0.07886684385484594,0.11569133282557399]",4.0,"[0.16587666457047326,-0.0603418037764085]",4.0,"[0.1297006870712735,0.05956014693714293]",100.0,"[-0.03764409098827207,-0.0543686399198115]",100.0,"[-0.13493319717171645,0.01776249653093672]",4.0,"[0.003203763769385378,-0.044115688835336654]",4.0,"[-0.09242861785646873,0.16253727347258196]",4.0,"[-0.09777854029489032,0.10964628867857011]",4.0,"[0.03356040903877057,-0.08627500417611667]",4.0,"[0.16062454489840491,-0.0017088783825907536]",4.0,"[-0.04984390732740184,0.09320385241879152]",100.0,"[-0.09682589232677742,-0.1271485781367105]",4.0,"[0.10075751246899395,0.15029742835559176]",4.0,"[0.02,0.02]",276.3834,0.0,44.0,44.0,203.0,1.0,0.1373,,,,,,,,
,,,,,,,683729c64975b4dbb8ff32f4,68399cfd12d067932d614819,2025-05-30_07h58.17.061,shape_ratio,2024.1.5,Win32,59.88023952,683853e18dae57a2147b65e0,,,,,,,,,,,276.3841,276.8786,,,277.1352,277.4288,right,,,,,,,,0.5,,,,,,276.8788,277.135,277.4289,"[-0.12115324093950611,-0.09613273492907459]",100.0,"[-0.10054091022127855,0.042683966537554]",4.0,"[0.17741323340788895,0.09164695517953501]",100.0,"[-0.0701741330182163,0.09878199498986907]",4.0,"[0.12180296552502813,-0.010236343856537242]",4.0,"[-0.010956711251473572,-0.02857344604167625]",4.0,"[0.018045715038397615,-0.17321524137017816]",4.0,"[0.15354705879632422,0.12441200812978143]",100.0,"[-0.019327026955135506,-0.08858423849651476]",100.0,"[0.07990011730946757,-0.11846033482623243]",100.0,"[0.07938932774488716,0.05918043946580515]",4.0,"[-0.14552044057854868,0.09418511602342859]",4.0,"[-0.10488840985644063,-0.05867760971914224]",100.0,"[0.019382363456658717,0.05232069966119294]",4.0,"[-0.061482827007120044,-0.165309353256411]",4.0,"[-0.1871399785121013,0.01838911330084985]",4.0,"[-0.01920891754444905,-0.15581704892053924]",100.0,"[0.01634688303285412,0.16794057701970436]",100.0,"[0.034800409022730155,-0.08148208960648902]",100.0,"[-0.00920671932754965,0.10268649690198582]",100.0,"[0.12171798998504324,0.0386034545372396]",4.0,"[0.07989101132032814,-0.17158382079606693]",100.0,"[-0.05890657286490718,-0.06340177576207959]",4.0,"[0.06179914456640078,-0.03326202981340815]",100.0,"[0.16448891841522653,-0.05169031251891384]",4.0,"[0.10508892986040286,-0.05433668597000259]",100.0,"[-0.17342990594761357,-0.05835765321885223]",4.0,"[0.04213118751042494,0.08639203852575315]",4.0,"[-0.04598063553986631,-0.007692027291427223]",4.0,"[-0.025274413180498587,0.14710958373829]",100.0,"[0.10547559268160918,0.1562245942569595]",100.0,"[-0.13131065822572602,0.01709464014647379]",100.0,"[0.02,0.02]",278.5268,0.0,45.0,45.0,102.0,1.0,0.2773,,,,,,,,
,,,,,,,683729c64975b4dbb8ff32f4,68399cfd12d067932d614819,2025-05-30_07h58.17.061,shape_ratio,2024.1.5,Win32,59.88023952,683853e18dae57a2147b65e0,,,,,,,,,,,278.5283,279.0264,,,279.2827,279.4932,right,,,,,,,,0.1,,,,,,279.0268,279.2826,279.4934,"[0.10554038873649678,0.14110298463658552]",4.0,"[0.09686061952934322,-0.09033099775968512]",4.0,"[-0.13324980839407702,0.09739140394718804]",4.0,"[0.09887748615934581,0.019753549376257677]",4.0,"[0.024708463889762812,-0.07653401775937464]",4.0,"[-0.08219121519760536,0.021717002568907694]",4.0,"[-0.07832955709078586,-0.10395432159927781]",4.0,"[-0.07321428513758639,-0.14525009578108358]",4.0,"[-0.065517536834635,0.07340716233875047]",4.0,"[0.022139017042346845,0.0356467674319505]",4.0,"[-0.14900418871110238,-0.06351769964925276]",4.0,"[-0.045465917745808715,0.18850852665391937]",4.0,"[-0.11722028863510899,0.15929367998630922]",4.0,"[0.13080368966787828,-0.12356838283101176]",4.0,"[-0.0465935700482772,-0.18315500391777562]",4.0,"[-0.018867042641643034,0.011817520638439527]",4.0,"[0.04779742073200444,0.1356329997807504]",100.0,"[-0.009414637030292232,0.08493159089104939]",4.0,"[0.13984982944281457,0.0008243067663233907]",4.0,"[0.10100139679809188,-0.03664746963011815]",4.0,"[-0.004104135932886649,-0.04149323570318879]",4.0,"[-0.187454425202655,-0.0506231090254565]",4.0,"[0.15956369521505046,-0.04018299933698049]",4.0,"[0.038049464173550165,0.18928396712490175]",100.0,"[-0.048997822652816145,0.11190375273116614]",4.0,"[-0.1136734366597427,-0.016654599863003952]",4.0,"[0.06817110594135148,0.07319996502289061]",100.0,"[0.10272255139702632,-0.15871703013321758]",4.0,"[-0.12823497840048273,-0.09784488226230555]",4.0,"[0.00042768675678295774,-0.15963162366553843]",4.0,"[-0.1512444883410608,0.035195349058911474]",4.0,"[-0.03443743141704499,-0.09144388773392566]",4.0,"[0.02,0.02]",280.5917,0.0,46.0,46.0,195.0,1.0,0.187,,,,,,,,
,,,,,,,683729c64975b4dbb8ff32f4,68399cfd12d067932d614819,2025-05-30_07h58.17.061,shape_ratio,2024.1.5,Win32,59.88023952,683853e18dae57a2147b65e0,,,,,,,,,,,280.5932,281.0915,,,281.3476,281.8401,left,,,,,,,,0.1,,,,,,281.0916,281.3476,281.8403,"[0.019727706998558275,0.12789275833603606]",4.0,"[0.17366596593361985,-0.0023669163577977855]",4.0,"[0.0591724864143818,0.043030342654442486]",4.0,"[-0.08288491792751827,0.051885922541923084]",4.0,"[-0.12835027586480877,0.13825640021804295]",4.0,"[-0.09019833576267522,-0.1230800787839249]",4.0,"[0.06684999178364716,-0.06487970932935021]",4.0,"[0.03566090472972935,-0.032519238365353184]",4.0,"[0.139440621779206,-0.13481290895456313]",4.0,"[-0.07517899714633407,-0.01939853251633098]",4.0,"[-0.1310685958865961,0.0818485410061535]",4.0,"[0.13316201644888467,0.038288218677000344]",4.0,"[0.05008367398970632,-0.12261753843813934]",4.0,"[-0.02345579284574248,0.05363390113938032]",4.0,"[0.16106016645248586,0.1164559982558992]",4.0,"[-0.060453620834567394,0.096787747370716]",4.0,"[-0.16192213514522524,0.04276616126358581]",4.0,"[-0.08005313461733612,-0.07700781281714214]",4.0,"[0.02500087125523669,-0.1676277746937275]",4.0,"[0.09043355824647407,-0.09772612700414725]",4.0,"[-0.1619698459832473,-0.0729827566554335]",4.0,"[-0.010272898667153002,-0.1423254858685465]",4.0,"[0.14546218869481098,-0.03588605024851024]",100.0,"[-0.0396562029897671,0.1475227821301857]",4.0,"[-0.016405006186064594,0.0033134907541040024]",4.0,"[-0.0695806480818287,-0.1703882431599529]",100.0,"[0.09010857947140984,0.13767927197277868]",4.0,"[0.17617092988171254,-0.0921651691514864]",4.0,"[-0.012677806751122752,-0.047514787430240284]",100.0,"[0.10103601640689325,0.09064465561105912]",4.0,"[0.06638354142021115,-0.16612242389849388]",4.0,"[-0.08572634992047595,0.14395205410577872]",4.0,"[0.02,0.02]",282.942,0.0,47.0,47.0,194.0,1.0,0.4706,,,,,,,,
,,,,,,,683729c64975b4dbb8ff32f4,68399cfd12d067932d614819,2025-05-30_07h58.17.061,shape_ratio,2024.1.5,Win32,59.88023952,683853e18dae57a2147b65e0,,,,,,,,,,,282.9424,283.4422,,,283.6948,283.8726,left,,,,,,,,0.1,,,,,,283.4423,283.6947,283.8735,"[0.08796774577579278,-0.030339410251066692]",4.0,"[-0.09238794017115538,-0.04610599736094292]",4.0,"[0.055234521877483,0.09042758999198644]",4.0,"[0.16976125676527315,0.044621414647027076]",4.0,"[0.08080480866178738,0.15105746477993146]",4.0,"[-0.0338649819718573,0.13532941492636874]",4.0,"[-0.12193669827640383,-0.15338608865501943]",4.0,"[-0.09204155690550071,0.0743251844410693]",100.0,"[-0.14281118259067796,0.030943250098037774]",4.0,"[-0.14911568352797122,-0.061098706453736044]",4.0,"[0.15991377346619834,-0.08933710649792205]",4.0,"[0.04579196363897353,0.1829450370059361]",100.0,"[0.005097968015046828,-0.05139119776958872]",4.0,"[0.1025402877020363,-0.07473140948470869]",4.0,"[0.01651729063862198,0.03389978357425299]",4.0,"[-0.05088575845610962,-0.17746871139941295]",4.0,"[-0.1095657060321182,0.0006793728127515705]",4.0,"[-0.14689552676796047,0.10935708357883654]",4.0,"[0.12070411218503947,-0.13699869185788371]",4.0,"[-0.14619066971660344,-0.10128564214005976]",4.0,"[0.1441972648074709,-0.03339500301175019]",100.0,"[-0.07038593543663275,-0.1382908053945589]",4.0,"[-0.0014755330457867388,0.1886315770808644]",4.0,"[0.07102835638501755,0.028901762099300905]",4.0,"[0.12639396009189263,0.1278657054793684]",4.0,"[0.015334782348614885,0.11769074729598555]",4.0,"[0.050610272176162124,-0.11480838105885884]",4.0,"[0.05242561162232959,-0.07324730771388271]",4.0,"[-0.10259309218436308,-0.10279910109572814]",4.0,"[0.0005987897799359722,-0.18415739082819102]",4.0,"[0.096446446493441,0.08885547327802987]",4.0,"[-0.027330536167893264,0.03620508724561008]",4.0,"[0.02,0.02]",284.9717,0.0,48.0,48.0,180.0,1.0,0.1541,,,,,,,,
,,,,,,,683729c64975b4dbb8ff32f4,68399cfd12d067932d614819,2025-05-30_07h58.17.061,shape_ratio,2024.1.5,Win32,59.88023952,683853e18dae57a2147b65e0,,,,,,,,,,,284.9732,285.4742,,,285.7267,285.9874,left,,,,,,,,0.1,,,,,,285.4742,285.7266,285.9877,"[-0.13055569836033806,-0.013889014573294134]",4.0,"[-0.06976426588524669,-0.04877716173087554]",4.0,"[-0.03352360245100508,0.059416827822499255]",4.0,"[0.025498039137887372,-0.1449218820292245]",4.0,"[-0.04219438808349269,0.1532430704322294]",4.0,"[-0.11303404384053534,-0.0694490936656921]",100.0,"[0.03060761360802156,0.0780666036237132]",4.0,"[0.111963545082208,0.15451329332981575]",100.0,"[-0.0978632822118369,0.16275855013404483]",4.0,"[-0.020724614436067972,-0.06913479254382007]",100.0,"[0.07059310103509017,-0.007205725948301652]",4.0,"[0.025440957038057797,0.16600251761491963]",4.0,"[0.1160277896478902,0.01665113647163948]",4.0,"[-0.035645265909083075,-0.1496966599087667]",4.0,"[-0.12219998945618217,0.08303497023576413]",4.0,"[-0.19259491430625955,-0.03184589187976631]",4.0,"[0.12601814197094716,-0.1518809257603521]",4.0,"[-0.0761214971249293,-0.14325304012074805]",4.0,"[-0.03815836238782145,0.011361752155210006]",4.0,"[0.15843831036655698,0.021655534976422707]",4.0,"[0.19869510197342585,0.006511204593958881]",4.0,"[-0.14336191384334931,0.03295327263042983]",4.0,"[0.005682147038070584,0.11755690476506665]",4.0,"[-0.023777311613364348,-0.11018435112343523]",4.0,"[-0.08598035310935863,-0.010363249749358998]",4.0,"[-0.18807837378300188,0.044063768091060836]",4.0,"[0.03726095252990458,-0.18653378112738933]",4.0,"[0.00613638758307773,-0.02763088783196875]",4.0,"[-0.01344144978076067,-0.19666947338263263]",4.0,"[-0.15733592231652227,-0.08754857916571586]",4.0,"[0.16424902525712023,-0.11372508724863953]",4.0,"[-0.104105775471267,-0.11383236371598589]",4.0,"[0.02,0.02]",287.0921,0.0,49.0,49.0,204.0,1.0,0.2382,,,,,,,,
