right,left,explain.started,explain.stopped,key_resp_3.keys,key_resp_3.rt,key_resp_3.duration,participant,session,date,expName,psychopyVersion,OS,frameRate,study_id,explain_2.started,explain_2.stopped,key_resp_4.keys,key_resp_4.rt,key_resp_4.duration,explain_3.started,explain_3.stopped,key_resp_5.keys,key_resp_5.rt,key_resp_5.duration,fixation.started,fixation.stopped,practice.started,practice.stopped,response.started,response.stopped,key_resp.keys,key_resp.rt,key_resp.duration,feedback.started,feedback.stopped,trials_2.thisRepN,trials_2.thisTrialN,trials_2.thisN,trials_2.thisIndex,trials_2.ran,dot_ratio,explain_4.started,explain_4.stopped,key_resp_6.keys,key_resp_6.rt,key_resp_6.duration,dotDisplay.started,dotDisplay.stopped,ITI.started,polygon_1.pos,polygon_1.edges,polygon_2.pos,polygon_2.edges,polygon_3.pos,polygon_3.edges,polygon_4.pos,polygon_4.edges,polygon_5.pos,polygon_5.edges,polygon_6.pos,polygon_6.edges,polygon_7.pos,polygon_7.edges,polygon_8.pos,polygon_8.edges,polygon_9.pos,polygon_9.edges,polygon_10.pos,polygon_10.edges,polygon_11.pos,polygon_11.edges,polygon_12.pos,polygon_12.edges,polygon_13.pos,polygon_13.edges,polygon_14.pos,polygon_14.edges,polygon_15.pos,polygon_15.edges,polygon_16.pos,polygon_16.edges,polygon_17.pos,polygon_17.edges,polygon_18.pos,polygon_18.edges,polygon_19.pos,polygon_19.edges,polygon_20.pos,polygon_20.edges,polygon_21.pos,polygon_21.edges,polygon_22.pos,polygon_22.edges,polygon_23.pos,polygon_23.edges,polygon_24.pos,polygon_24.edges,polygon_25.pos,polygon_25.edges,polygon_26.pos,polygon_26.edges,polygon_27.pos,polygon_27.edges,polygon_28.pos,polygon_28.edges,polygon_29.pos,polygon_29.edges,polygon_30.pos,polygon_30.edges,polygon_31.pos,polygon_31.edges,polygon_32.pos,polygon_32.edges,dot_size,ITI.stopped,trials.thisRepN,trials.thisTrialN,trials.thisN,trials.thisIndex,trials.ran,break_2.started,break_2.stopped,trials_3.thisRepN,trials_3.thisTrialN,trials_3.thisN,trials_3.thisIndex,trials_3.ran
subject chose diamond,subject chose dot,0.0005,89.4226,space,74.3936,0.0046,683798782103c0dd7218d498,684428bc7996d2118ccc0ff4,2025-06-07_07h56.17.220,shape_ratio,2024.1.5,Win32,59.17159763,684250e4f00cb30b92d1fa88,,,,,,,,,,,,,,,,,,,,,,,,,,,,,,,,,,,,,,,,,,,,,,,,,,,,,,,,,,,,,,,,,,,,,,,,,,,,,,,,,,,,,,,,,,,,,,,,,,,,,,,,,,,,,,,,,
,,,,,,,683798782103c0dd7218d498,684428bc7996d2118ccc0ff4,2025-06-07_07h56.17.220,shape_ratio,2024.1.5,Win32,59.17159763,684250e4f00cb30b92d1fa88,89.424,129.2342,space,9.7916,,,,,,,,,,,,,,,,,,,,,,,,,,,,,,,,,,,,,,,,,,,,,,,,,,,,,,,,,,,,,,,,,,,,,,,,,,,,,,,,,,,,,,,,,,,,,,,,,,,,,,,,,,,,,
,,,,,,,683798782103c0dd7218d498,684428bc7996d2118ccc0ff4,2025-06-07_07h56.17.220,shape_ratio,2024.1.5,Win32,59.17159763,684250e4f00cb30b92d1fa88,,,,,,129.2345,136.044,space,3.7984,,,,,,,,,,,,,,,,,,,,,,,,,,,,,,,,,,,,,,,,,,,,,,,,,,,,,,,,,,,,,,,,,,,,,,,,,,,,,,,,,,,,,,,,,,,,,,,,,,,,,,,,
,,,,,,,683798782103c0dd7218d498,684428bc7996d2118ccc0ff4,2025-06-07_07h56.17.220,shape_ratio,2024.1.5,Win32,59.17159763,684250e4f00cb30b92d1fa88,,,,,,,,,,,136.0935,136.5542,136.5555,136.8026,136.8029,137.6701,right,0.8342,,137.6705,138.7674,0.0,0.0,0.0,0.0,1.0,0.2,,,,,,,,,,,,,,,,,,,,,,,,,,,,,,,,,,,,,,,,,,,,,,,,,,,,,,,,,,,,,,,,,,,,,,,,,,,,,,,,,,,,,,
,,,,,,,683798782103c0dd7218d498,684428bc7996d2118ccc0ff4,2025-06-07_07h56.17.220,shape_ratio,2024.1.5,Win32,59.17159763,684250e4f00cb30b92d1fa88,,,,,,,,,,,138.7697,139.2712,139.2714,139.5205,139.5205,140.4872,right,0.9502,,140.4874,141.5837,0.0,1.0,1.0,1.0,1.0,0.8,,,,,,,,,,,,,,,,,,,,,,,,,,,,,,,,,,,,,,,,,,,,,,,,,,,,,,,,,,,,,,,,,,,,,,,,,,,,,,,,,,,,,,
,,,,,,,683798782103c0dd7218d498,684428bc7996d2118ccc0ff4,2025-06-07_07h56.17.220,shape_ratio,2024.1.5,Win32,59.17159763,684250e4f00cb30b92d1fa88,,,,,,,,,,,,,,,,,,,,,,,,,,,,141.5847,146.0972,space,1.4975,,,,,,,,,,,,,,,,,,,,,,,,,,,,,,,,,,,,,,,,,,,,,,,,,,,,,,,,,,,,,,,,,,,,,,,,,,,,,,,,,,
,,,,,,,683798782103c0dd7218d498,684428bc7996d2118ccc0ff4,2025-06-07_07h56.17.220,shape_ratio,2024.1.5,Win32,59.17159763,684250e4f00cb30b92d1fa88,,,,,,,,,,,146.1254,146.6092,,,146.8624,147.443,right,0.5514,,,,,,,,,0.55,,,,,,146.6103,146.8623,147.4444,"[-0.07235157908976497,-0.0543679181119913]",4.0,"[-0.017858226344836994,-0.18355839523415513]",4.0,"[0.0611013247740475,-0.18175335051665026]",4.0,"[-0.061365953020981245,0.14119265698374908]",100.0,"[0.027119709120204036,-0.050231436263240496]",4.0,"[-0.0030828112643275546,-0.1335293552939712]",4.0,"[-0.05015564457427735,0.04353408919650223]",4.0,"[-0.1513180434319681,0.06599743353927547]",100.0,"[0.10452670317729815,0.10738945234524667]",4.0,"[-0.03748141942432665,0.18783798842210617]",4.0,"[0.02346677173092056,0.007275840366618169]",4.0,"[0.0552760614201134,0.17199435218145664]",100.0,"[-0.0924895449398174,0.07021595379111535]",100.0,"[0.05311185912337258,0.06003289897569587]",100.0,"[0.05342952588408664,-0.10092388089779264]",100.0,"[0.16792844476775845,-0.06025835777715572]",4.0,"[-0.12056598312030256,0.02040483767759473]",4.0,"[-0.020449958846299434,0.1513086979107857]",4.0,"[0.09484438803099947,-0.14971800105402364]",100.0,"[0.1143188391987475,-0.02079588702798853]",100.0,"[0.12314870797532236,-0.07305399528326155]",100.0,"[-0.11543333379218768,-0.037994803364559605]",100.0,"[-0.07366417145574097,-0.1290284280396584]",100.0,"[0.0073277155922679554,0.04748050828268067]",100.0,"[0.07181940695326436,-0.023396934548722458]",100.0,"[-0.036880955733141894,-0.08782450005058813]",100.0,"[0.09577159605127092,-0.10273683148538783]",100.0,"[-0.06853458921120102,-0.009357234814004625]",4.0,"[-0.18804729424533564,0.006130877760361033]",100.0,"[0.13762670931097065,-0.13863186972460598]",4.0,"[-0.11579770350305407,-0.0954319350364115]",100.0,"[-0.15632209674825007,-0.08862614363430223]",100.0,"[0.02,0.02]",148.5458,0.0,0.0,0.0,83.0,1.0,,,,,,,
,,,,,,,683798782103c0dd7218d498,684428bc7996d2118ccc0ff4,2025-06-07_07h56.17.220,shape_ratio,2024.1.5,Win32,59.17159763,684250e4f00cb30b92d1fa88,,,,,,,,,,,148.5472,149.0407,,,149.2903,149.6898,left,0.3823,,,,,,,,,0.5,,,,,,149.0409,149.2902,149.6899,"[0.0867451980920429,0.1361413660590054]",100.0,"[0.09865797491135538,-0.050553154549011506]",100.0,"[0.002639565121017478,-0.12109293326120757]",100.0,"[-0.09827107267851803,-0.017102565675747507]",4.0,"[-0.0702437657115236,0.1768225375314718]",100.0,"[0.10203683326451027,-0.005686702106417829]",4.0,"[-0.09824564246904618,-0.10599576855240016]",100.0,"[0.05671216502840329,0.034765733704785744]",4.0,"[0.17242330314231044,-0.007661329988443706]",4.0,"[-0.09607708052119283,0.04512890696505541]",4.0,"[-0.1758902180273086,-0.08249208924106896]",100.0,"[-0.0030417478872867996,-0.17603522084592768]",100.0,"[0.1302492868911834,0.1275977766945359]",100.0,"[-0.1732440326548951,0.08733183253648968]",100.0,"[-0.0770711586759576,0.13073287866245215]",4.0,"[0.04150406236453183,-0.1490815760362756]",4.0,"[0.15437188349911524,0.03899648543124366]",100.0,"[-0.17415586554226492,-0.023694420972830685]",100.0,"[0.16444847186770184,-0.11118839931612647]",100.0,"[0.03364848071640874,0.18869540484685765]",100.0,"[-0.0713944486141309,-0.15534624625137503]",4.0,"[0.00346169280722641,0.1612518270208772]",100.0,"[-0.05675910581337881,0.09511537568276107]",4.0,"[0.017552870127465082,0.10143321387373837]",4.0,"[-0.002551855433697958,0.005869694386648907]",4.0,"[0.05188773104933557,-0.10421235412964187]",4.0,"[-0.13659856802610074,-0.0478488176826622]",100.0,"[-0.023475097199256657,-0.056599306206148794]",4.0,"[-0.15867549732934294,0.019351803620234326]",4.0,"[0.054276428280523474,-0.037007784944937235]",100.0,"[-0.07039144192937603,-0.05178602925927575]",4.0,"[0.09566194369143573,0.05680781674677225]",4.0,"[0.02,0.02]",150.7886,0.0,1.0,1.0,91.0,1.0,,,,,,,
,,,,,,,683798782103c0dd7218d498,684428bc7996d2118ccc0ff4,2025-06-07_07h56.17.220,shape_ratio,2024.1.5,Win32,59.17159763,684250e4f00cb30b92d1fa88,,,,,,,,,,,150.7896,151.2881,,,151.5381,152.0044,right,0.4538,,,,,,,,,0.1,,,,,,151.2882,151.538,152.0046,"[-0.04520694269362162,0.06373828110578918]",4.0,"[0.10578382000573439,-0.0971308494458131]",4.0,"[-0.12299369274476142,-0.022621511886337087]",4.0,"[0.05955318341317701,0.1792401252256467]",100.0,"[-0.16424733352705653,0.0884189835537025]",4.0,"[0.1552274879307273,-0.06509944964124138]",4.0,"[-0.012691575477596338,-0.18217819153539988]",4.0,"[-0.1873565938201018,-0.053866824154733046]",4.0,"[0.12814135464858914,-0.013268125322609828]",4.0,"[-0.04381211771903132,-0.1300957964005274]",4.0,"[0.1221500447132442,0.10844313801559205]",4.0,"[-0.0779783656445347,0.011009793181488885]",100.0,"[-0.0918307630953423,-0.17061004775473557]",100.0,"[0.0925086831184092,0.05809034714381133]",4.0,"[0.15239870679122344,0.04190635001965701]",4.0,"[-0.09314715822580483,0.15786349778627667]",4.0,"[0.07817620901096552,0.0021859300172108087]",4.0,"[0.05431055619828695,-0.12503376894651536]",4.0,"[0.05419368553087043,-0.07816818273953194]",4.0,"[-0.15541684640529912,-0.0943984476144656]",4.0,"[0.04477316936814797,0.0964913003484748]",4.0,"[0.03394608970245943,0.05666987682160849]",4.0,"[0.19962518881115696,-0.006358474940261957]",4.0,"[0.040200975112810164,-0.17361660140503105]",4.0,"[-0.014651606944500607,-0.021058452009646164]",4.0,"[-0.1162104886793651,0.08536988521662361]",4.0,"[-0.031285011476265376,0.02255921562171663]",4.0,"[-0.06824490699018239,-0.07269236635605396]",4.0,"[-0.04656003324913115,0.1307212229272277]",4.0,"[0.003939108903982026,-0.09475328828151984]",4.0,"[-0.004741254460612183,0.1215680102335543]",4.0,"[0.1570923065157831,-0.11404911089459709]",4.0,"[0.02,0.02]",153.1033,0.0,2.0,2.0,207.0,1.0,,,,,,,
,,,,,,,683798782103c0dd7218d498,684428bc7996d2118ccc0ff4,2025-06-07_07h56.17.220,shape_ratio,2024.1.5,Win32,59.17159763,684250e4f00cb30b92d1fa88,,,,,,,,,,,153.1043,153.6023,,,153.8524,154.4349,right,0.5756,,,,,,,,,0.1,,,,,,153.6023,153.8523,154.435,"[-0.012824455992812884,0.18697881012675735]",4.0,"[-0.13479533648333328,0.0399620090698291]",4.0,"[-0.045592169733786894,0.15246960274868243]",4.0,"[0.010109562634283966,-0.11603085545628015]",100.0,"[-0.1173338199220156,0.1512240706029602]",4.0,"[0.15028358178528717,0.09773247027608935]",4.0,"[0.05879066719696413,-0.16754079557534587]",4.0,"[-0.12852107589226974,-0.04514436621819765]",4.0,"[-0.14120168809327346,0.0966482661533905]",4.0,"[-0.18376782852396625,0.0731352707324777]",100.0,"[-0.027939222434103926,-0.16052968355878813]",4.0,"[-0.061482148469906794,-0.07384537629021354]",4.0,"[-0.0965060213641293,-0.10471838111302023]",4.0,"[0.05318131179689328,-0.12071309744690811]",4.0,"[-0.17953729584139022,-0.03497484856787739]",4.0,"[0.1416197889634384,-0.1386127544156074]",4.0,"[0.04185544717724057,0.1621831757025713]",4.0,"[0.08271470957537153,-0.012424493261637044]",4.0,"[-0.056539348104350066,0.08466709506226976]",4.0,"[0.16421348385933546,0.03994921327780241]",4.0,"[-0.011092369666486397,-0.07559246985829554]",4.0,"[-0.16113276939495313,-0.09900393057422986]",4.0,"[0.14638326523371675,-0.011769965009009327]",4.0,"[-0.05368968961934582,0.0010600634376475525]",4.0,"[-0.011117973093465076,0.09404655788337617]",100.0,"[0.04961963425407539,0.10205136143816705]",4.0,"[-0.07208624401872081,-0.15277021368939347]",4.0,"[0.11976045412387429,0.13498463379691222]",4.0,"[0.02890149685628484,0.0187727189092059]",4.0,"[0.08353977388310167,-0.08458171635099616]",4.0,"[0.08925114850623884,0.06576312081223129]",4.0,"[0.020728141894586927,-0.033421060784419136]",4.0,"[0.02,0.02]",155.5337,0.0,3.0,3.0,193.0,1.0,,,,,,,
,,,,,,,683798782103c0dd7218d498,684428bc7996d2118ccc0ff4,2025-06-07_07h56.17.220,shape_ratio,2024.1.5,Win32,59.17159763,684250e4f00cb30b92d1fa88,,,,,,,,,,,155.534,156.0337,,,156.2834,156.9164,left,0.616,,,,,,,,,0.9,,,,,,156.0338,156.2834,156.9167,"[0.04579012331588243,0.1495622894179137]",100.0,"[-0.08603596670443978,0.15265315285085487]",100.0,"[-0.0484680521169457,-0.11835333325778319]",100.0,"[-0.06188789938942088,-0.02805141117299494]",100.0,"[-0.051524694036678156,0.024752528805494396]",100.0,"[-0.0015849918693552874,-0.13374345563647153]",100.0,"[0.10692099225825308,-0.008364209614244156]",100.0,"[-0.15073755720853035,0.11604789568651314]",100.0,"[-0.06148425689210792,-0.07324505367829903]",100.0,"[0.02691513348657531,0.005160006058699484]",100.0,"[0.05142886874664387,-0.15091579801107477]",100.0,"[0.04041322535024867,0.10141245715159039]",100.0,"[0.008653352909324312,-0.05507565114942817]",100.0,"[0.04513679582554869,-0.10844422982465858]",100.0,"[0.13109125434511698,0.14206569788136256]",100.0,"[0.060093591550008436,-0.06553953579948758]",100.0,"[-0.11715434577234474,0.03291326728131191]",4.0,"[0.19397198904013413,-0.04637773779025742]",100.0,"[0.06583248083513928,0.0457906818953569]",100.0,"[0.0827281343501303,0.11582302896559993]",100.0,"[-0.012528624078187637,0.19348976252070454]",100.0,"[0.1347384420532556,0.053140808928030046]",100.0,"[-0.08329719907018075,-0.14599595324811784]",100.0,"[0.15841768992392014,0.002359556810805466]",100.0,"[-0.010164557705725458,0.04406343111306075]",4.0,"[-0.13374885529602523,-0.03355278440816453]",100.0,"[-0.16782085370336708,-0.0017300229129457907]",4.0,"[-0.07223812722840103,0.11198457362645663]",100.0,"[0.12892199427378018,-0.09008861111340824]",100.0,"[-0.1723684170335284,-0.0619434907265475]",100.0,"[0.03306628648988909,0.1876056809754119]",100.0,"[-0.011808420522705214,-0.19224104896303218]",100.0,"[0.02,0.02]",158.0155,0.0,4.0,4.0,19.0,1.0,,,,,,,
,,,,,,,683798782103c0dd7218d498,684428bc7996d2118ccc0ff4,2025-06-07_07h56.17.220,shape_ratio,2024.1.5,Win32,59.17159763,684250e4f00cb30b92d1fa88,,,,,,,,,,,158.0166,158.5153,,,158.7652,158.9817,right,0.1997,,,,,,,,,0.55,,,,,,158.5154,158.765,158.9818,"[0.06098151330894713,-0.17063399246380812]",4.0,"[0.1400392311060583,0.04274325408869972]",100.0,"[0.09668972342379008,0.07590102069060269]",100.0,"[0.07726023085383954,0.1243866343302403]",4.0,"[-0.01626822397732691,-0.006115586285584401]",100.0,"[0.0734985257441758,0.1800345081488624]",4.0,"[-0.018240080519881408,0.19840964625194144]",4.0,"[0.021412974314155068,0.03541369314710647]",100.0,"[-0.009658966076963519,0.1185374108920422]",4.0,"[-0.04889863278338041,-0.0586775754289053]",4.0,"[-0.13319710457625766,0.10434994748631254]",100.0,"[-0.011427835329656258,-0.15350810484813746]",4.0,"[-0.1837548022997191,0.027294392099399406]",100.0,"[0.07685495434325294,0.009802322420866295]",4.0,"[-0.10362764797890014,-0.08004490812456772]",4.0,"[0.14775301589365702,-0.08749941654263399]",100.0,"[-0.1004965074204424,0.05051945818238418]",4.0,"[-0.08879831974835187,-0.15303871548143932]",4.0,"[-0.1769415394178058,-0.05718715335089857]",100.0,"[-0.09830140454927595,-0.03589504287986857]",4.0,"[0.09551886749985432,-0.12358135829561051]",100.0,"[-0.09907083963216125,0.16339401570780576]",100.0,"[0.1280676758168121,-0.037607274042782864]",100.0,"[0.13425382170780906,-0.14221221985622445]",100.0,"[0.06775587750057618,-0.03769719319414612]",100.0,"[-0.09381401292524505,0.09352259533436573]",100.0,"[0.016975922780177722,0.16439598918232726]",4.0,"[0.008552583907270034,-0.0580944101806479]",4.0,"[0.13568662975466564,0.1334643210324062]",100.0,"[0.1702911604975186,0.005303432311809019]",100.0,"[-0.17282429805674762,0.09089480668457818]",100.0,"[-0.05088928607884201,-0.11518332735656475]",100.0,"[0.02,0.02]",160.0799,0.0,5.0,5.0,81.0,1.0,,,,,,,
,,,,,,,683798782103c0dd7218d498,684428bc7996d2118ccc0ff4,2025-06-07_07h56.17.220,shape_ratio,2024.1.5,Win32,59.17159763,684250e4f00cb30b92d1fa88,,,,,,,,,,,160.0806,160.5793,,,160.8292,161.3331,right,0.4953,,,,,,,,,0.9,,,,,,160.5794,160.8291,161.3336,"[-0.03579900667978351,-0.04857298869178659]",100.0,"[0.07951153182795465,-0.11042464511509045]",100.0,"[-0.054445754653870804,0.03725937931824259]",100.0,"[0.00788891316222595,-0.014518610333331025]",100.0,"[-0.07913893040512517,-0.04419675301872439]",4.0,"[0.06869024153655186,0.020300751858811267]",100.0,"[-0.14020049991084763,0.008329046771271942]",100.0,"[0.12686499883377592,0.12688145356412794]",100.0,"[0.011742899796767892,0.12948598922650795]",100.0,"[0.1590926851966341,-0.0746536104266526]",100.0,"[0.01150640156390692,0.19828346017532575]",100.0,"[-0.09729414699200882,0.06387961666375613]",100.0,"[-0.042593913243834894,0.12203360462513017]",4.0,"[-0.12373094698030696,-0.060958293431257034]",100.0,"[-0.09284414970023615,0.021481291563377424]",100.0,"[0.09068766329871239,0.10109039637949471]",100.0,"[-0.1553720110362554,0.06682880470720379]",100.0,"[-0.18816597565108678,-0.0581007765735413]",100.0,"[-0.10670524147792115,-0.1477925715954167]",100.0,"[0.03137778546824412,-0.08016212295285627]",100.0,"[-0.09076110839012647,0.11065736478966541]",100.0,"[0.07605273983074423,-0.17941055128491612]",100.0,"[0.13055113153594441,0.026980767589434695]",100.0,"[-0.07332650616439386,-0.17096035265589202]",100.0,"[-0.04170167177924059,0.16740064341690822]",100.0,"[0.13843993312003716,-0.024438633999222557]",100.0,"[0.010111982151044403,-0.14248775758249918]",100.0,"[-0.08305918888301676,0.16549677144251398]",100.0,"[0.08350567124607201,0.14165310288896313]",4.0,"[0.12369752656724887,-0.13001076767199582]",100.0,"[-0.16080525460251077,-0.09634493249041398]",100.0,"[-0.011995940620282005,-0.18275468183362004]",100.0,"[0.02,0.02]",162.4278,0.0,6.0,6.0,6.0,1.0,,,,,,,
,,,,,,,683798782103c0dd7218d498,684428bc7996d2118ccc0ff4,2025-06-07_07h56.17.220,shape_ratio,2024.1.5,Win32,59.17159763,684250e4f00cb30b92d1fa88,,,,,,,,,,,162.4294,162.9284,,,163.1814,163.5497,left,0.3512,,,,,,,,,0.5,,,,,,162.9286,163.1814,163.5497,"[-0.08367783661073719,-0.10354476586268145]",100.0,"[0.08768537758295303,-0.08299419520339238]",4.0,"[-0.16078309381527256,0.0005770691832676253]",4.0,"[-0.05047342791628621,-0.06146626812762159]",4.0,"[0.06966159049861892,-0.1726971665169958]",100.0,"[0.023082626921430226,0.1311866327212429]",4.0,"[0.11013976308065641,0.0928618125991438]",4.0,"[-0.09429186754695751,0.09902207140275396]",100.0,"[-0.011224938533046874,0.09787329717369299]",4.0,"[-0.025924762572812607,-0.16860139545722472]",4.0,"[0.06515250033145392,0.07757954880661654]",4.0,"[0.16745092303729925,-0.10580809970507794]",4.0,"[0.014606722179201106,0.02792372010277464]",100.0,"[-0.09235271252523973,-0.037203968952792925]",100.0,"[0.19023135557430487,0.03510700762603828]",100.0,"[-0.15952263498636077,0.08154005250047087]",100.0,"[-0.04295108543440551,0.19090876016654965]",4.0,"[-0.15421230987568524,-0.07747679545898985]",4.0,"[-0.0816633056654194,0.034208509503032385]",4.0,"[-0.1246973547092418,0.05205432100701254]",100.0,"[0.0524781266330433,-0.1097904379354105]",4.0,"[0.11097482274953442,0.16152124503314627]",100.0,"[-0.0015544864515665859,0.17100722891660736]",100.0,"[-0.011404405812279418,-0.08971253876390232]",4.0,"[0.04199009828748401,0.19540349085977066]",4.0,"[0.02156902926292525,-0.06527743261821896]",100.0,"[0.17040224144657734,0.08236891391469447]",100.0,"[0.1696256997454665,-0.01238339257840698]",100.0,"[0.12166475458824616,-0.03221214503462432]",100.0,"[0.14198837835417036,0.031138826086476598]",4.0,"[-0.10048988840057578,0.14219644650193333]",100.0,"[0.08527427029338443,0.021824442524227387]",100.0,"[0.02,0.02]",164.6432,0.0,7.0,7.0,104.0,1.0,,,,,,,
,,,,,,,683798782103c0dd7218d498,684428bc7996d2118ccc0ff4,2025-06-07_07h56.17.220,shape_ratio,2024.1.5,Win32,59.17159763,684250e4f00cb30b92d1fa88,,,,,,,,,,,164.6455,165.1473,,,165.3928,165.892,right,0.4679,,,,,,,,,0.45,,,,,,165.1473,165.3925,165.8932,"[0.040243333870641135,-0.07678890473726997]",4.0,"[0.07353874209170064,0.05814990007678162]",4.0,"[0.04257031656483187,0.12123469317571749]",4.0,"[-0.07794512896298762,-0.09799602702238268]",100.0,"[-0.14310195805037035,0.01965995786188159]",100.0,"[-0.09774919420176867,0.14155086927096597]",100.0,"[-0.13717951323440622,-0.11092274755273444]",4.0,"[-0.13390793666272097,0.08709062834859124]",4.0,"[-0.0076151038117934665,0.1760402241179742]",100.0,"[0.021819607885203297,-0.1691624696755521]",4.0,"[-0.060216504789379156,0.0763873277592246]",4.0,"[0.17173555928605735,0.03342033085455112]",4.0,"[0.1354031635198714,0.05338655093461716]",100.0,"[0.09873509287707107,-0.16129262213912107]",100.0,"[-0.0593721577026313,0.02614276454456553]",4.0,"[0.10428506008696205,-0.09741478410872048]",4.0,"[0.05090653701202529,-0.12256784057960936]",4.0,"[0.1533832051640853,-0.06041545417769628]",4.0,"[-0.008286842586368644,-0.088795363010714]",100.0,"[0.052093248219652596,-0.031327873571790704]",4.0,"[-0.00800345873944174,-0.0026008591310064345]",100.0,"[-0.030601325156872024,-0.0449956256325886]",4.0,"[0.0424161340041533,0.007921705683400863]",4.0,"[-0.18506417528559269,-0.059123006489401]",100.0,"[-0.11340936216764341,-0.03620541228372578]",100.0,"[-0.18056377836501603,0.040649966505638235]",100.0,"[-0.00554776147895344,0.12612141622705592]",100.0,"[-0.09133323965625213,-0.16532507210212233]",100.0,"[0.11173408953183687,0.1228986144148831]",100.0,"[0.05914991376672316,0.16155386775988467]",4.0,"[-0.05883153575445855,-0.13904420604153023]",4.0,"[-0.05633510494168151,0.17653255880815555]",4.0,"[0.02,0.02]",166.9906,0.0,8.0,8.0,146.0,1.0,,,,,,,
,,,,,,,683798782103c0dd7218d498,684428bc7996d2118ccc0ff4,2025-06-07_07h56.17.220,shape_ratio,2024.1.5,Win32,59.17159763,684250e4f00cb30b92d1fa88,,,,,,,,,,,166.9918,167.4899,,,167.7287,168.49,right,0.7393,,,,,,,,,0.5,,,,,,167.4901,167.7286,168.4903,"[-0.1415431473598706,0.03232843718951459]",4.0,"[0.11209434743695411,0.12611216458484936]",4.0,"[0.07717484937959572,-0.048838613972459255]",100.0,"[0.12475959997502716,0.019785876056797207]",100.0,"[0.038620500440385,0.03887026675619936]",100.0,"[0.029638958848713256,0.12919444280169126]",100.0,"[-0.10484537680909146,0.0607771753972363]",4.0,"[-0.004822994177336541,-0.1729077097133648]",4.0,"[0.033490505080073674,-0.09546750733114957]",100.0,"[-0.1952326456075972,-0.039890861650475465]",4.0,"[0.0022161815694952338,0.007404839295483131]",4.0,"[0.04723052874406776,-0.14958673089127533]",100.0,"[-0.06143651758992922,-0.12800517214994378]",4.0,"[0.050871535376032374,0.17749937195103338]",4.0,"[-0.1844326686162526,0.05262941073218775]",100.0,"[0.1653395327854902,-0.04353208025383977]",4.0,"[0.08136756326114047,0.0900999360139256]",100.0,"[-0.028197591675709555,0.0406542172029117]",100.0,"[-0.052403937775290226,0.1449358746383566]",100.0,"[-0.08304492665037615,-0.08864644890419011]",4.0,"[0.12549550360990677,-0.14258826628568935]",100.0,"[-0.11153079371073675,-0.14455833099133414]",4.0,"[0.12873728319490674,-0.06408819684835082]",4.0,"[-0.11768333491783174,-0.008662499967461431]",100.0,"[-0.03651535200229077,-0.013387605285459696]",100.0,"[-0.010587803123071992,0.1581522749949667]",4.0,"[0.16845495167612526,0.10206333077195996]",4.0,"[0.09104301830755682,-0.11427736408873135]",100.0,"[-0.04309560284177677,0.09475640792377697]",100.0,"[0.17471003255967246,0.0371284541623172]",4.0,"[-0.014918459697943358,-0.06077268243426313]",100.0,"[-0.1445163460005371,0.13285031961304936]",4.0,"[0.02,0.02]",169.589,0.0,9.0,9.0,90.0,1.0,,,,,,,
,,,,,,,683798782103c0dd7218d498,684428bc7996d2118ccc0ff4,2025-06-07_07h56.17.220,shape_ratio,2024.1.5,Win32,59.17159763,684250e4f00cb30b92d1fa88,,,,,,,,,,,169.5903,170.0873,,,170.3415,171.0386,right,0.676,,,,,,,,,0.45,,,,,,170.0881,170.3415,171.0388,"[0.03972397826229149,-0.15225433675647498]",4.0,"[0.12632350965078448,-0.027950412181619047]",4.0,"[0.18842196056216895,-0.05060093469174417]",100.0,"[-0.07093198528361884,0.029801104564803112]",4.0,"[0.01417083443800812,0.1908751947993004]",4.0,"[0.14918511353286443,0.023801417888857628]",100.0,"[-0.09858374073379163,0.1123537528333931]",4.0,"[0.0020344896127896628,-0.1344571615804867]",4.0,"[0.0034963661095858273,-0.1932136209747888]",4.0,"[0.07922414841038465,0.17409697253849551]",4.0,"[-0.16271909834005013,0.08633974758725994]",100.0,"[0.19542654257402545,0.018908046739820883]",100.0,"[-0.0843711945387178,-0.039285852869366984]",4.0,"[-0.11032616761983431,0.015534268072826415]",4.0,"[-0.12509518423553911,-0.08582568728632599]",100.0,"[-0.1119141962249047,-0.12473929501313838]",100.0,"[0.004575976583275944,-0.05097790295090222]",4.0,"[-0.030485240103783926,-0.0805117467211828]",100.0,"[0.06408155648868402,0.10907107716515024]",100.0,"[-0.08114250328260864,-0.09045670070272233]",4.0,"[0.11655821372215115,-0.1558727265737552]",4.0,"[0.007044000695386153,0.06629405943612694]",100.0,"[0.018470863700615278,0.014499407719081198]",100.0,"[0.093379720750077,0.027082435808537076]",4.0,"[-0.04492931783064252,0.08494600715832099]",100.0,"[0.12982033903481105,0.08023510376683265]",4.0,"[0.05074224558707681,-0.09771011367312833]",100.0,"[-0.1763506994624507,-0.058676897666650095]",4.0,"[0.13801481636482218,-0.1074072619536506]",4.0,"[0.07732231927035504,-0.028668917316502437]",100.0,"[0.05498328964692975,0.0492559172934277]",4.0,"[-0.10738904730769473,0.066293835208501]",100.0,"[0.02,0.02]",172.136,0.0,10.0,10.0,148.0,1.0,,,,,,,
,,,,,,,683798782103c0dd7218d498,684428bc7996d2118ccc0ff4,2025-06-07_07h56.17.220,shape_ratio,2024.1.5,Win32,59.17159763,684250e4f00cb30b92d1fa88,,,,,,,,,,,172.1379,172.6355,,,172.8887,174.1528,right,1.236,,,,,,,,,0.55,,,,,,172.6358,172.8886,174.1529,"[0.13193081234062864,0.11581305953421996]",100.0,"[0.05963949291513235,0.18301036190197942]",100.0,"[0.17869351217722185,0.03888510224731125]",4.0,"[0.14219083774795063,-0.09040340718528607]",4.0,"[0.06312265847620106,0.1404127064256233]",100.0,"[0.03155061372354628,-0.1945348299826906]",4.0,"[-0.08262152888680019,0.14549826135917313]",4.0,"[-0.10443166915617896,-0.00012394602757454816]",100.0,"[-0.034054466362567544,0.006571567646179918]",4.0,"[-0.10096915378689451,-0.07711928542804279]",4.0,"[-0.16592357350215112,0.017674468117403492]",4.0,"[-0.05331492089869611,-0.12380096068475223]",100.0,"[0.06471650872284195,-0.13818779644876475]",100.0,"[-0.13109305834220422,0.15041503491203284]",4.0,"[-0.056577135290471404,-0.08309446175234758]",4.0,"[-0.1740748052998737,0.06105008365485389]",4.0,"[0.020354726800309194,0.02986423939431961]",100.0,"[0.07415659666333307,-0.021576511107644712]",4.0,"[0.08240992411738077,0.05873239435651491]",100.0,"[-0.03191556115814401,0.1437580816409871]",4.0,"[-0.10129507008077632,0.040461085883752516]",100.0,"[0.017303791751849013,-0.14428687889198738]",100.0,"[0.13390574529764473,0.002729322809634339]",4.0,"[-0.13874662840276525,-0.061242217800836336]",4.0,"[0.18415212666375919,-0.03924312295666677]",100.0,"[0.025806458048850133,0.10160029765321686]",100.0,"[0.03423993975000122,-0.03625837069810718]",100.0,"[-0.0052989259482022245,0.06564042222307961]",100.0,"[-0.04984189655296094,-0.1829254909309149]",100.0,"[-0.18157651331178526,-0.0254753391796858]",100.0,"[0.10127025384255167,-0.1672612418777836]",100.0,"[0.10822325626414898,-0.04590565813914007]",100.0,"[0.02,0.02]",175.2494,0.0,11.0,11.0,78.0,1.0,,,,,,,
,,,,,,,683798782103c0dd7218d498,684428bc7996d2118ccc0ff4,2025-06-07_07h56.17.220,shape_ratio,2024.1.5,Win32,59.17159763,684250e4f00cb30b92d1fa88,,,,,,,,,,,175.2506,175.7486,,,176.0046,176.4823,left,0.4544,,,,,,,,,0.9,,,,,,175.7487,176.0045,176.4826,"[-0.04776927534029745,-0.09102437662919739]",100.0,"[0.028505937147660556,-0.17907773378593747]",100.0,"[-0.016504254856081247,0.06994116470492494]",100.0,"[-0.18071477267430835,0.028671514906621672]",100.0,"[-0.02564298885792011,-0.1516702531056571]",100.0,"[0.09124029568005108,-0.128047814975315]",100.0,"[-0.09830756011399905,0.00418605762012581]",100.0,"[0.05429949439637927,-0.14703741254594388]",100.0,"[-0.06558577020357996,-0.16476427064376686]",100.0,"[0.02269525016475976,0.05805101228056918]",100.0,"[0.06268163945420575,0.16636878503177935]",100.0,"[0.08683288334152925,0.02565905336988273]",100.0,"[-0.0229735707203454,-0.009555830217940878]",100.0,"[0.1288368603769142,0.11042284756259055]",4.0,"[0.09927203904361306,-0.08134770562421687]",100.0,"[0.05571307679398071,-0.07530648417886171]",4.0,"[-0.1358855287236266,-0.07470119213577996]",4.0,"[-0.15381300686898267,0.06718338081882536]",100.0,"[-0.09066639893579302,-0.04093113051632161]",100.0,"[-0.006812717154000573,-0.09816037551505552]",100.0,"[-0.08661553988969038,0.15584450663721733]",100.0,"[0.18025341315351354,0.037779795725611916]",100.0,"[0.02772632478952074,-0.029064604915227756]",100.0,"[-0.010762369215377508,0.17243826821810357]",100.0,"[0.15177341734788125,0.005431273709003483]",100.0,"[0.11016178829293044,-0.009100948722809324]",100.0,"[0.1686382516822316,-0.08074106314014985]",100.0,"[-0.179187320302913,-0.07200938852690923]",100.0,"[-0.11137043639998856,0.10219177187468517]",100.0,"[-0.08979059392591249,-0.09000478374127734]",100.0,"[-0.06560259634779597,0.11185582925442482]",100.0,"[-0.05001639593041363,0.0290251587357946]",100.0,"[0.02,0.02]",177.5802,0.0,12.0,12.0,3.0,1.0,,,,,,,
,,,,,,,683798782103c0dd7218d498,684428bc7996d2118ccc0ff4,2025-06-07_07h56.17.220,shape_ratio,2024.1.5,Win32,59.17159763,684250e4f00cb30b92d1fa88,,,,,,,,,,,177.5823,178.0798,,,178.3353,179.298,left,0.9425,,,,,,,,,0.5,,,,,,178.0803,178.3353,179.2981,"[-0.04062192472050513,-0.013441570194987065]",100.0,"[-0.17747395249544015,0.0817317030032622]",100.0,"[0.052326964578927056,0.16401708954590333]",4.0,"[0.08946349797617016,-0.06720842119191184]",4.0,"[-0.10424287319939536,-0.15859671208522214]",4.0,"[-0.05921899868418985,0.11374716994680761]",100.0,"[0.14872371632012624,0.06233784942018988]",4.0,"[-0.09148912297515821,0.17310516672545576]",4.0,"[0.1285016815896167,-0.1163947162091064]",4.0,"[0.09141189878624181,0.1752465455854168]",100.0,"[-0.10902103153599721,-0.009173894728007736]",100.0,"[0.034664015885517194,-0.15117617753188514]",100.0,"[0.11419215323845575,0.09151100738559265]",100.0,"[0.13121011039032365,-0.05717473903940547]",4.0,"[0.07347323007824653,0.10750924132763061]",100.0,"[-0.01796943986233942,-0.16465984326890226]",4.0,"[0.01741145408036433,0.023138786921483967]",4.0,"[0.06677442493813718,0.036888270249624745]",4.0,"[-0.02937813969514489,-0.07312797477333167]",4.0,"[-0.17277559291794511,-0.042511263534861635]",4.0,"[0.0018996199851751714,0.152801796439192]",100.0,"[0.16557531083820903,-0.09418846897198531]",4.0,"[0.14080861857890986,-0.01648912194222927]",4.0,"[0.1812807690253857,0.026649729616076517]",100.0,"[-0.06571933554116138,0.041489933762425144]",100.0,"[0.0500886415663217,-0.07885135590403067]",100.0,"[-0.10928808066545027,0.04835792112169777]",100.0,"[0.050850470863187225,-0.018864118525093006]",100.0,"[-0.19574739765913388,0.022442679346685944]",100.0,"[-0.14250857176082538,0.12134980267748278]",100.0,"[0.19215625529613756,-0.03746588462048413]",4.0,"[-0.03411059550738291,0.18270717278454304]",4.0,"[0.02,0.02]",180.3951,0.0,13.0,13.0,97.0,1.0,,,,,,,
,,,,,,,683798782103c0dd7218d498,684428bc7996d2118ccc0ff4,2025-06-07_07h56.17.220,shape_ratio,2024.1.5,Win32,59.17159763,684250e4f00cb30b92d1fa88,,,,,,,,,,,180.3982,180.8937,,,181.1447,181.978,left,0.8018,,,,,,,,,0.9,,,,,,180.8938,181.1445,181.9783,"[0.018019731662165916,-0.0023397195618663656]",4.0,"[-0.02700164797846024,0.13282613361170617]",100.0,"[-0.029685423172021833,-0.16870475988653388]",4.0,"[0.09296401973025466,-0.010062777285218682]",100.0,"[-0.01800449990716323,0.1889865876045814]",100.0,"[0.061181240108995824,0.1679829077489016]",100.0,"[0.13616667202625662,0.12366529451263565]",100.0,"[-0.02619529855816983,-0.02982759504892462]",100.0,"[0.025888084916586226,-0.09163359518809171]",100.0,"[-0.08072985222112311,0.010019851229970492]",100.0,"[0.14130211597742479,-0.047069136743484244]",100.0,"[0.019807207637926302,0.13950931705108874]",100.0,"[0.08052092254436258,-0.12759462585523046]",4.0,"[-0.030387372238749544,-0.0712330874986479]",100.0,"[0.08935610846101506,-0.068520974991922]",100.0,"[0.1093666730809286,0.15748052663960488]",100.0,"[0.13848471760165315,-0.1203979869136507]",100.0,"[0.16562143784983765,0.029336883034992368]",100.0,"[0.0884259944085254,0.04441714919233592]",100.0,"[0.05416100633267371,0.0858227949198523]",100.0,"[-0.09192340610404366,-0.12594290524315938]",100.0,"[-0.0084217720444564,0.06212475981816571]",100.0,"[0.1549256044757776,0.08454416908173693]",100.0,"[0.02842800145329401,-0.1964748857618274]",100.0,"[-0.1876521363122006,-0.0587435082770956]",100.0,"[-0.1309273455882581,-0.08156720335182552]",100.0,"[-0.17911178877738443,0.03510799894731594]",100.0,"[-0.1431978458295205,0.12842219088830722]",100.0,"[-0.05747480691695696,-0.1048866179449546]",100.0,"[-0.06085088316372658,0.05969487190857477]",100.0,"[0.048839225103915244,-0.03224206196568637]",100.0,"[-0.0720806916769049,0.16713512049802473]",100.0,"[0.02,0.02]",183.0755,0.0,14.0,14.0,7.0,1.0,,,,,,,
,,,,,,,683798782103c0dd7218d498,684428bc7996d2118ccc0ff4,2025-06-07_07h56.17.220,shape_ratio,2024.1.5,Win32,59.17159763,684250e4f00cb30b92d1fa88,,,,,,,,,,,183.0772,183.5756,,,183.8276,184.7091,right,0.852,,,,,,,,,0.4,,,,,,183.5758,183.8274,184.7094,"[-0.11469722580023281,-0.05097278637558136]",4.0,"[-0.06012026033329344,-0.17152474448747987]",100.0,"[-0.0612882233295179,0.12306505153418565]",4.0,"[-0.11800275158620863,0.1379482600143155]",100.0,"[0.012295783083014381,-0.16557887722123468]",4.0,"[-0.0192324494967736,0.05253209499423764]",4.0,"[-0.049410801394595256,-0.10662243799335613]",4.0,"[-0.07831294820100022,-0.07863131306017666]",4.0,"[-0.15898328611110632,0.00684392326337005]",100.0,"[-0.000027478907317835145,0.13087150013372095]",100.0,"[0.054154068638314186,0.009840871648246497]",4.0,"[0.10158221579538387,-0.09714216426363499]",4.0,"[-0.007908483199190814,-0.0370924176242227]",4.0,"[-0.1535335966238347,-0.06991071688151237]",4.0,"[-0.11470993648496357,-0.0038075619186094703]",100.0,"[0.06786671735771933,-0.12760632167051264]",4.0,"[0.03295139768194323,-0.030758977698946723]",100.0,"[0.16030661962249787,-0.034998596680180606]",4.0,"[0.10593607694112978,0.09528045782002278]",4.0,"[-0.15921453733047783,0.10604895904990923]",100.0,"[0.15008848892455218,0.06076468447899996]",100.0,"[0.13263555248242265,-0.004649834472750387]",100.0,"[-0.07340954593192935,0.011178958984298236]",100.0,"[-0.10205798699979055,-0.15728779111553284]",4.0,"[-0.005828176134673812,-0.10436900694694455]",100.0,"[-0.06538866035673961,0.1676604492883829]",4.0,"[0.18657149368198245,0.01009496478821381]",4.0,"[-0.14147347560300522,0.05323641623001104]",100.0,"[0.08806410278044567,-0.03534512875915713]",4.0,"[-0.07280829530120292,0.06966483158795139]",100.0,"[-0.19777556235633087,0.020163889836740154]",4.0,"[0.10591765363137678,0.15635427299312588]",4.0,"[0.02,0.02]",185.8064,0.0,15.0,15.0,179.0,1.0,,,,,,,
,,,,,,,683798782103c0dd7218d498,684428bc7996d2118ccc0ff4,2025-06-07_07h56.17.220,shape_ratio,2024.1.5,Win32,59.17159763,684250e4f00cb30b92d1fa88,,,,,,,,,,,185.8075,186.3058,,,186.5557,187.1217,left,0.5588,,,,,,,,,0.9,,,,,,186.306,186.5556,187.1219,"[0.036269004346568386,-0.15258503680187063]",100.0,"[0.08882625086025457,-0.16124744459822446]",4.0,"[0.07980370413799948,0.10998952627360964]",100.0,"[0.15559266955516618,0.06546753993643287]",100.0,"[0.006049996082438988,-0.11787412588074217]",100.0,"[-0.04182435724088668,-0.05734137225977821]",100.0,"[-0.0019617453207208583,0.11501973991045139]",4.0,"[-0.1678201899384261,-0.010350695262010691]",100.0,"[-0.03113257674433492,0.045525508521574616]",100.0,"[-0.10471192537077098,-0.16424824936040527]",100.0,"[-0.06652109487727483,0.06862774672876236]",100.0,"[-0.08297887483117872,-0.06597297524510816]",100.0,"[-0.1164399008459783,0.08997738971776689]",100.0,"[0.036643986713772364,0.02741090559866418]",100.0,"[0.04962087963831917,-0.03304359041107602]",4.0,"[-0.015284506864911326,-0.18082524698463537]",100.0,"[0.05737845143936721,0.16054291387128974]",100.0,"[-0.05819718211785852,0.1587096729601191]",100.0,"[-0.10262006813369934,0.034367856129990326]",100.0,"[-0.17811931483891244,0.06015916651590409]",100.0,"[-0.09454440156450597,-0.10976804102169734]",100.0,"[0.06935317363647239,-0.12166487416362415]",100.0,"[0.10064787156329522,0.15015547558382494]",100.0,"[-0.11364837057276131,-0.013904494622890621]",100.0,"[0.14269943678515362,0.025340049371178546]",100.0,"[0.008883621539022855,-0.02357645811075088]",100.0,"[-0.15461254945065853,-0.10250310489570577]",100.0,"[0.09903734061366848,-0.08634675950807828]",100.0,"[0.009694260834134263,-0.07311743675283923]",100.0,"[0.010851214607759395,0.18837757885448744]",100.0,"[0.09999759572726102,-0.006983218979587401]",100.0,"[0.19732597442264152,-0.013536525771839683]",100.0,"[0.02,0.02]",188.2204,0.0,16.0,16.0,18.0,1.0,,,,,,,
,,,,,,,683798782103c0dd7218d498,684428bc7996d2118ccc0ff4,2025-06-07_07h56.17.220,shape_ratio,2024.1.5,Win32,59.17159763,684250e4f00cb30b92d1fa88,,,,,,,,,,,188.2212,188.7199,,,188.9756,189.8541,left,0.8524,,,,,,,,,0.45,,,,,,188.72,188.9755,189.8543,"[-0.17933929099188523,-0.017451605564082123]",4.0,"[0.022677726713573917,-0.03872510968367366]",100.0,"[0.1330561975853106,0.11533419071351575]",100.0,"[0.08690713695171727,-0.11648098009171362]",100.0,"[-0.016606239379397664,-0.11109761214200306]",4.0,"[-0.09127272677317501,-0.017697244239673827]",4.0,"[-0.12034485080946693,-0.1475515428071358]",4.0,"[0.08182939040404738,0.007196021592281299]",4.0,"[-0.09149452948203401,-0.07098675010042259]",100.0,"[0.17622722975502395,0.03345493495595064]",100.0,"[-0.1766254268833597,-0.0761038053676207]",4.0,"[0.15721896153150072,-0.11450333349999442]",4.0,"[-0.011278156397159591,0.02792299928747472]",4.0,"[-0.06497925528372255,0.08473549997197358]",4.0,"[0.031925066328638535,-0.10662156813981685]",100.0,"[0.01527406974796301,0.1642445917463675]",4.0,"[0.06644265566184701,0.05168712327088946]",100.0,"[0.15473547676724958,-0.04382589596808581]",4.0,"[-0.11366718910333953,0.14653391473876376]",4.0,"[0.0833199007889947,-0.06648120583696206]",100.0,"[-0.13953763202887665,0.09121106092227411]",4.0,"[-0.034136105582057534,0.15735709685615695]",100.0,"[-0.10666136710695508,0.026846227930931926]",4.0,"[-0.07668563300323294,-0.16142252617243358]",4.0,"[-0.04500885160116643,-0.07331988080099963]",4.0,"[0.1436844774713601,0.06583350063406414]",4.0,"[-0.061406046842755385,0.030994309010101646]",100.0,"[0.1304907780872005,0.017733071866173965]",100.0,"[0.0830554155497546,0.17964509808358475]",100.0,"[0.11669871884732433,-0.028999056037172]",100.0,"[-0.0782358883923706,0.18330163276079023]",100.0,"[0.040715437440953475,-0.14827481619882943]",4.0,"[0.02,0.02]",190.9516,0.0,17.0,17.0,127.0,1.0,,,,,,,
,,,,,,,683798782103c0dd7218d498,684428bc7996d2118ccc0ff4,2025-06-07_07h56.17.220,shape_ratio,2024.1.5,Win32,59.17159763,684250e4f00cb30b92d1fa88,,,,,,,,,,,190.9536,191.4515,,,191.7031,192.6558,left,0.9342,,,,,,,,,0.45,,,,,,191.4516,191.7031,192.6558,"[0.10338714529733496,-0.12370097059125007]",100.0,"[-0.12286796791485287,-0.07723283480191337]",4.0,"[0.003965946327332504,-0.11475360916266773]",4.0,"[0.008731115582491596,0.19281095029067188]",4.0,"[-0.07772677575405544,-0.05498626494071544]",4.0,"[-0.11400865793395114,0.08236215261499003]",100.0,"[0.021530590066272722,-0.049317234878225945]",4.0,"[0.08380913277150115,0.16924557461360829]",100.0,"[-0.1223932495910249,-0.022308673597896563]",100.0,"[0.08678094951777478,-0.013687155028736412]",4.0,"[-0.040826759282114156,0.13588445037258792]",4.0,"[0.02098336209839697,0.11052756641423307]",100.0,"[-0.020608591597251775,-0.026810989371260082]",100.0,"[0.17460910369354854,-0.022048724734803175]",100.0,"[0.03727312632967402,0.054800106536164746]",4.0,"[0.13155803425040585,-0.06142730254668013]",4.0,"[0.0709127586330235,-0.1856972973660317]",100.0,"[0.05686798621072187,-0.10511103982494605]",4.0,"[-0.024156590749290264,-0.17110625396948614]",100.0,"[0.1450099062981023,0.13043456023632954]",4.0,"[0.14550795959063423,0.059224597147282024]",100.0,"[-0.12542767956094927,0.151072714109426]",100.0,"[0.02920000186997732,-0.15947205662185276]",4.0,"[-0.0041393568108837675,0.07350508906196161]",100.0,"[-0.06096456413387552,0.03476670738672791]",4.0,"[0.10038008488244206,0.09991259155877588]",4.0,"[-0.09580907131213519,-0.14670802398021784]",100.0,"[-0.16769882690065532,0.037934893273754884]",4.0,"[-0.08391278037039851,-0.008446218047611802]",4.0,"[-0.1899805612807292,-0.015446916228546778]",4.0,"[0.08515523235036675,0.036849999456589975]",4.0,"[-0.16273572878117587,0.10942938386625374]",100.0,"[0.02,0.02]",193.7522,0.0,18.0,18.0,147.0,1.0,,,,,,,
,,,,,,,683798782103c0dd7218d498,684428bc7996d2118ccc0ff4,2025-06-07_07h56.17.220,shape_ratio,2024.1.5,Win32,59.17159763,684250e4f00cb30b92d1fa88,,,,,,,,,,,193.7525,194.2513,,,194.5035,195.2664,left,0.7425,,,,,,,,,0.4,,,,,,194.2513,194.5033,195.2664,"[-0.03282540266946155,-0.13197656281672485]",4.0,"[-0.01819686699546554,-0.07220231003598478]",4.0,"[0.01922111492565309,-0.17638424448200157]",4.0,"[-0.09161638656778211,0.09856321758627536]",100.0,"[0.07189835371612142,0.016136629711438755]",4.0,"[0.021894162585017064,0.08656388495888674]",4.0,"[-0.17279654493282012,-0.006448209099977204]",4.0,"[-0.06788330555618158,-0.013090757297856677]",4.0,"[0.008312331441051512,-0.021669167219327077]",4.0,"[0.09974023209007381,-0.023471114957084937]",4.0,"[0.07446560649531613,0.17477867838223063]",4.0,"[-0.13375257968510468,-0.017409770465382002]",4.0,"[0.04350700018474772,-0.12917414185798445]",100.0,"[-0.05406640604516623,-0.0973990941744584]",100.0,"[0.07630766134976127,0.12314864571697955]",4.0,"[0.07121628216209713,-0.17804568103785237]",100.0,"[0.11350473534559131,0.020728603269193676]",100.0,"[0.09321189561492103,-0.13152024475801996]",4.0,"[-0.05170672313552187,0.10158771627709558]",4.0,"[0.11271713992519666,0.15830822290568183]",100.0,"[-0.12969405258651695,-0.11960568608703305]",100.0,"[0.14201337375117037,-0.027036278937827545]",4.0,"[-0.14147733073775498,0.06852488713186812]",4.0,"[0.08623061430784426,-0.07936130677645871]",4.0,"[0.16791038571524194,0.08982809454441018]",100.0,"[0.13986272932246244,-0.08377580938681133]",100.0,"[-0.09653890491962885,-0.050095970384943865]",4.0,"[-0.16312801190947182,-0.06697936448904654]",4.0,"[-0.029895568479002536,-0.18008450248054986]",100.0,"[0.07964754075188261,0.06455966064437144]",100.0,"[-0.12734270062890846,0.13323678058059704]",100.0,"[0.16772156315880618,0.012998327051676388]",100.0,"[0.02,0.02]",196.3629,0.0,19.0,19.0,173.0,1.0,,,,,,,
,,,,,,,683798782103c0dd7218d498,684428bc7996d2118ccc0ff4,2025-06-07_07h56.17.220,shape_ratio,2024.1.5,Win32,59.17159763,684250e4f00cb30b92d1fa88,,,,,,,,,,,196.3652,196.8662,,,197.1149,197.8962,left,0.7575,,,,,,,,,0.4,,,,,,196.8662,197.1147,197.8964,"[-0.011358446920530318,-0.14688560261991254]",4.0,"[-0.18186986911559053,-0.026911146963620115]",4.0,"[0.01958396401070197,-0.06447789816469875]",4.0,"[0.061359604756741355,-0.031032096425679483]",100.0,"[0.10328756222994015,-0.020662722390768714]",100.0,"[0.0016588610388729675,-0.0018055357011471538]",4.0,"[-0.03640136584310827,0.18634098295468096]",100.0,"[0.13030116649277534,-0.06272070453874491]",4.0,"[-0.09727985172603279,0.020599277560392773]",4.0,"[-0.058888574527453844,-0.015573467004127014]",100.0,"[0.009090424257709803,0.19148158837022453]",100.0,"[0.16890271955310895,0.0171855553700042]",4.0,"[0.06168438634524822,0.18630085045186168]",100.0,"[-0.11951699466889219,0.1416555623642419]",4.0,"[-0.045971664981236456,-0.06519692407548773]",4.0,"[-0.1451714928519877,0.06687168784505933]",100.0,"[0.03089291469263024,0.13555674863628783]",100.0,"[-0.17954714697178253,-0.07009284634158806]",4.0,"[-0.06733922139812033,0.07909593657271938]",100.0,"[0.1659429256879218,0.09925015950328381]",4.0,"[0.1008698921698024,-0.09064712933050383]",4.0,"[-0.011512851504396456,0.11924937682481294]",4.0,"[-0.13439114969989385,-0.037630611751484085]",4.0,"[0.022993169247754436,-0.11497507035071615]",100.0,"[0.037210229083290296,-0.18157978125592827]",4.0,"[0.1363979305423787,0.06328200484254916]",4.0,"[0.08994063136142989,0.061732098119579776]",4.0,"[0.015316564607727122,0.08817558021130018]",100.0,"[0.0786382044808244,-0.12680432433125108]",100.0,"[0.10091398725180602,0.14451424202756694]",4.0,"[0.09010650739889241,0.019882267073186355]",100.0,"[0.16790995802183745,-0.022960778935679438]",4.0,"[0.02,0.02]",198.9942,0.0,20.0,20.0,163.0,1.0,,,,,,,
,,,,,,,683798782103c0dd7218d498,684428bc7996d2118ccc0ff4,2025-06-07_07h56.17.220,shape_ratio,2024.1.5,Win32,59.17159763,684250e4f00cb30b92d1fa88,,,,,,,,,,,198.9958,199.4948,,,199.7455,200.3272,left,0.5598,,,,,,,,,0.6,,,,,,199.4951,199.7454,200.3273,"[0.06707472644684896,-0.0993976578567445]",100.0,"[0.15557667103651515,0.008436485753515546]",4.0,"[0.10050576041114946,0.02535549072728845]",100.0,"[0.1093928495739398,0.1247413262173932]",100.0,"[0.06393894325744412,-0.14711770559316847]",100.0,"[-0.1721605415828233,-0.08980725002226994]",100.0,"[-0.08171180202209513,0.14219755137418855]",4.0,"[0.015099051683192227,0.0037567938792532098]",100.0,"[0.15751690055287623,-0.0758491008351344]",4.0,"[-0.025250681171049935,0.04321504129274499]",100.0,"[-0.1793503341206825,0.023264924744154914]",100.0,"[0.06560259976696876,0.14040891636411754]",4.0,"[-0.024238926444710342,-0.12343129558133542]",100.0,"[-0.1304441894150346,0.013526526250307435]",100.0,"[-0.03566817979742446,0.17883303389689237]",100.0,"[-0.07915268550417841,-0.14352189356402864]",4.0,"[0.03152336624809092,0.04742597813310011]",100.0,"[-0.14303812301834654,0.07850725732397994]",100.0,"[0.1426621966585867,0.08735173735518682]",100.0,"[-0.009449055474735112,-0.034637511985520106]",4.0,"[-0.07528422803944713,-0.025547253100719657]",4.0,"[-0.11949402420190408,-0.12092493457500848]",100.0,"[-0.07228561059903087,0.062359854156143014]",100.0,"[0.09470702910363572,0.08731245824346101]",4.0,"[0.12007943621181083,-0.15592650307566303]",4.0,"[0.006740366235868768,-0.18848467574336658]",100.0,"[-0.03604938690413276,0.10867869194344329]",4.0,"[-0.09000304794057039,0.10097478763786767]",4.0,"[-0.048263629515003716,-0.06133573489051425]",4.0,"[0.003723766711065101,0.12017521356729358]",4.0,"[0.08105470374242398,-0.012454412420856618]",100.0,"[-0.12124833736008594,0.15513509145031398]",100.0,"[0.02,0.02]",201.4248,0.0,21.0,21.0,50.0,1.0,,,,,,,
,,,,,,,683798782103c0dd7218d498,684428bc7996d2118ccc0ff4,2025-06-07_07h56.17.220,shape_ratio,2024.1.5,Win32,59.17159763,684250e4f00cb30b92d1fa88,,,,,,,,,,,201.4266,201.9254,,,202.1741,202.8235,right,0.6322,,,,,,,,,0.4,,,,,,201.9255,202.174,202.8237,"[-0.09953857521747785,-0.11552327267717781]",4.0,"[0.15752212174000452,-0.09177665941232273]",4.0,"[-0.07785511789194798,0.12397488702291933]",100.0,"[0.18462766306922204,0.008445027569570737]",100.0,"[-0.03207565833946191,-0.11035153068163489]",4.0,"[-0.09935700775806196,0.0318670008958559]",4.0,"[0.17189469380644448,0.0955216899567464]",4.0,"[-0.09916659399508236,0.07943261279798848]",4.0,"[0.1127245489682801,0.08648930024330925]",100.0,"[-0.11071036978594564,-0.06914082841739723]",4.0,"[-0.15876132411118757,-0.052846984661987034]",4.0,"[0.04741936572306613,-0.18740678384225096]",4.0,"[0.06660015076971375,0.16420644398892795]",100.0,"[-0.022192829977102545,-0.19409691010583377]",100.0,"[0.013766685434934693,0.0076725215966159666]",4.0,"[-0.05219351225396623,-0.15239950202969013]",4.0,"[0.13403343484441124,-0.0026609438843783386]",4.0,"[-0.02212216727897368,0.15371554712381066]",4.0,"[0.13417804816603635,0.12957582862229225]",100.0,"[0.0639870243850193,0.07939102936592218]",100.0,"[-0.14516635295234437,0.08988906218699223]",100.0,"[-0.05565293747030237,0.04006115745593358]",4.0,"[-0.06776980006891467,-0.03711610799495015]",100.0,"[-0.139349883145707,-0.0055140237050232185]",4.0,"[0.06041533141794769,-0.07125085049601534]",4.0,"[0.0038914145507905834,-0.04027594341936139]",4.0,"[0.019282280244736192,0.10335551811655048]",4.0,"[-0.19717293830898427,0.026730733912870182]",4.0,"[0.12261245300666895,-0.13526703967897302]",100.0,"[0.08187189958387604,-0.1391763012863855]",100.0,"[0.0727692386915012,-0.02062569569487303]",100.0,"[-0.03104656927182244,0.0893894594246072]",100.0,"[0.02,0.02]",203.9222,0.0,22.0,22.0,160.0,1.0,,,,,,,
,,,,,,,683798782103c0dd7218d498,684428bc7996d2118ccc0ff4,2025-06-07_07h56.17.220,shape_ratio,2024.1.5,Win32,59.17159763,684250e4f00cb30b92d1fa88,,,,,,,,,,,203.9227,204.4216,,,204.6717,205.4872,left,0.8064,,,,,,,,,0.6,,,,,,204.4216,204.6717,205.4873,"[-0.04465320111251818,0.10660086744149645]",100.0,"[-0.16293734353591358,-0.012308050456619176]",4.0,"[0.005452076036883893,0.07125026449662833]",4.0,"[-0.05453772371619146,0.05815325185815673]",100.0,"[-0.12858400013920795,-0.14752468939623511]",100.0,"[0.017146123015851333,-0.11702862963153123]",100.0,"[-0.11904625957232111,0.1002447403334916]",100.0,"[0.10582381129420956,-0.06906762002167745]",4.0,"[-0.05515976558503885,-0.1639666145469853]",4.0,"[-0.09490966752530403,-0.09878428765946974]",100.0,"[0.05828042242286659,0.11080625021494957]",100.0,"[0.08742173226321608,0.13943724785479394]",4.0,"[0.1661242127893214,0.06843653691086411]",4.0,"[0.03985866022836287,0.1918486883690632]",4.0,"[-0.007836902610900537,-0.03416941008679339]",100.0,"[0.09131685466419334,0.07239301082337765]",100.0,"[0.08734256093999683,-0.11054206591750201]",100.0,"[-0.03621345628997389,-0.06770758495731413]",4.0,"[-0.09363010505077439,0.14291091050757593]",4.0,"[-0.08907601381459102,-0.02360522562237923]",100.0,"[0.03968479595622764,-0.07558687380648327]",4.0,"[-0.17895924260021445,-0.08843704714901794]",100.0,"[0.087960455335172,-0.16205436976466556]",100.0,"[0.05461209875543243,0.049806330101733506]",4.0,"[0.03985331756665693,-0.03405951722793218]",100.0,"[-0.1427275972108419,-0.06955812252215512]",4.0,"[0.12755653179463491,-0.13876133818409778]",100.0,"[0.004800952987595333,-0.15682851103941428]",4.0,"[0.009409379612740777,0.1286957802060559]",100.0,"[0.020290513581616706,0.02015101002682484]",100.0,"[0.045244972897777784,-0.1535239531451742]",100.0,"[0.01375140609175307,-0.19607185867686924]",100.0,"[0.02,0.02]",206.5865,0.0,23.0,23.0,52.0,1.0,,,,,,,
,,,,,,,683798782103c0dd7218d498,684428bc7996d2118ccc0ff4,2025-06-07_07h56.17.220,shape_ratio,2024.1.5,Win32,59.17159763,684250e4f00cb30b92d1fa88,,,,,,,,,,,206.5871,207.086,,,207.3365,208.1357,left,0.7886,,,,,,,,,0.4,,,,,,207.086,207.3365,208.1358,"[-0.008523725895213788,-0.11355780701411505]",100.0,"[0.15435353972129495,0.09728205647404302]",4.0,"[-0.0946639401923898,0.09851456165609869]",4.0,"[0.11717995469725435,0.1375731850579473]",100.0,"[-0.09249936532480767,-0.09599334828652484]",100.0,"[0.01754264722740638,0.003919126981194231]",4.0,"[-0.05929821630435506,0.1613376763669555]",4.0,"[0.05595276457606297,0.0929776703101114]",4.0,"[-0.144698904085964,0.06832572887393261]",4.0,"[0.19484630677439507,0.03113092062535819]",100.0,"[0.07166574292290413,-0.11835315167525813]",100.0,"[0.028013067735850616,-0.08433563618266034]",4.0,"[-0.12825639358020463,0.029857829956589355]",100.0,"[-0.1065421310031133,-0.05786063633044715]",100.0,"[-0.0033072295764664463,-0.05504712392472545]",4.0,"[0.07505294207232338,0.1603765510916115]",4.0,"[0.06824602799709739,0.010345336025408134]",100.0,"[-0.14667776995156204,-0.008807906908271964]",4.0,"[0.04050473325904003,-0.15234394816122007]",4.0,"[-0.06627933543331735,0.004624336093059491]",4.0,"[0.11909917675244729,-0.02759624295571287]",4.0,"[0.17305705340692903,-0.028170662653965773]",4.0,"[-0.07055100023396824,-0.17749506084153174]",4.0,"[0.0025880886671662664,0.07005672339397091]",4.0,"[0.09119610421003135,-0.058795774495724464]",100.0,"[-0.13303633495428308,-0.13897043860093142]",4.0,"[-0.16089441690439873,0.11784192369184719]",100.0,"[-0.00558087576357275,0.18778719588681356]",4.0,"[-0.060091627741589417,0.05315757730029405]",4.0,"[0.020640729535148592,0.14263199927351738]",100.0,"[0.03733258968321208,-0.039104941816142234]",100.0,"[-0.10525760816022037,0.1532727047831592]",100.0,"[0.02,0.02]",209.2341,0.0,24.0,24.0,153.0,1.0,,,,,,,
,,,,,,,683798782103c0dd7218d498,684428bc7996d2118ccc0ff4,2025-06-07_07h56.17.220,shape_ratio,2024.1.5,Win32,59.17159763,684250e4f00cb30b92d1fa88,,,,,,,,,,,209.2347,209.7336,,,209.9839,210.6866,left,0.6946,,,,,,,,,0.5,,,,,,209.7336,209.9838,210.6868,"[-0.18531991238943848,-0.05224502401095972]",4.0,"[-0.03773754735206686,-0.17157397886299638]",4.0,"[-0.12506008869375942,0.04355818386634829]",4.0,"[0.014230069343235828,0.15841229038198892]",4.0,"[0.16125988468518276,-0.10281232270479512]",4.0,"[0.007350286045315618,-0.029058831611686493]",100.0,"[0.07267568074221611,0.06382427865310733]",100.0,"[-0.18231232711391615,0.06794468885746191]",4.0,"[-0.03310714503559224,0.1071603174170549]",100.0,"[-0.10538494836892771,-0.10587672027377677]",100.0,"[0.1817158247623106,0.03384107027083508]",4.0,"[-0.10454679666111118,-0.035841079882965976]",100.0,"[0.1465938728945156,-0.06393696887464431]",4.0,"[-0.0771013848600864,0.130753946109856]",4.0,"[0.021392398135400937,-0.10756066002222556]",4.0,"[0.10498065702096403,-0.10105392698756908]",100.0,"[0.05213910953826907,-0.14040844191484195]",100.0,"[0.0035076238437875343,-0.1819302484447242]",4.0,"[-0.02764334756881688,-0.0917682311563651]",4.0,"[-0.0730848701749566,0.18506360203016542]",100.0,"[-0.12244567120272315,0.0010732165771401487]",100.0,"[-0.027611687987074526,0.032016448211202406]",100.0,"[0.05765600657399693,0.025168391089338854]",100.0,"[0.06998631369216936,0.10531320651711697]",100.0,"[-0.0771807072897206,0.02776633371056612]",100.0,"[-0.1719807683604438,0.017185710486365108]",4.0,"[-0.10674858635792044,0.1628655479847056]",100.0,"[0.1463673257899218,0.05374537541014304]",100.0,"[-0.050495199978201594,-0.022789878413023285]",4.0,"[0.06455385421499175,-0.037334294070020396]",100.0,"[0.1799986592363283,-0.01884363520758073]",4.0,"[0.05952046334458665,0.17612084466200476]",4.0,"[0.02,0.02]",211.7818,0.0,25.0,25.0,105.0,1.0,,,,,,,
,,,,,,,683798782103c0dd7218d498,684428bc7996d2118ccc0ff4,2025-06-07_07h56.17.220,shape_ratio,2024.1.5,Win32,59.17159763,684250e4f00cb30b92d1fa88,,,,,,,,,,,211.7828,212.2815,,,212.532,213.4465,right,0.9029,,,,,,,,,0.55,,,,,,212.2815,212.5319,213.4465,"[0.04958705404296021,-0.00366299835130759]",100.0,"[0.03592448395351979,0.037054598391206256]",4.0,"[0.11865733468450465,0.08671125353357297]",100.0,"[-0.14926547764999396,-0.06335366851424705]",4.0,"[-0.1916416596836785,0.005597640383767337]",4.0,"[-0.08009163516523542,-0.019084455252877674]",100.0,"[0.04540664468348449,-0.1410416363499711]",100.0,"[-0.014320251992264065,0.11053058723830901]",100.0,"[0.07835405373261266,0.1418835083630547]",4.0,"[0.020091520693978123,-0.04799300497250579]",100.0,"[-0.15000383256037955,0.005089469948263827]",100.0,"[-0.041269033080047555,0.04649730159152457]",100.0,"[0.1560825371010463,0.056859462716825286]",100.0,"[-0.05038096237317715,-0.15380466111734087]",100.0,"[0.09351086604348953,-0.13013718784306372]",4.0,"[-0.1336556753871951,0.14468433145229692]",4.0,"[0.034268835743324004,0.09162016813013354]",4.0,"[-0.01629078524281841,-0.0028149773629620443]",4.0,"[-0.09058506607804818,-0.10088466189167189]",100.0,"[0.18202569092633952,0.020509201292945343]",4.0,"[0.09329794922266232,-0.009493749536253782]",100.0,"[0.17401042359564975,-0.09515184910654866]",100.0,"[-0.02301880952770483,0.15507379300079177]",4.0,"[0.02291807999320229,-0.08796446536183848]",4.0,"[-0.1673011686652154,-0.10874149711418007]",4.0,"[-0.18527764292394577,-0.0416289520335856]",100.0,"[-0.011526065551821776,-0.18405550270980658]",4.0,"[-0.03944552683442096,-0.10568569743406028]",100.0,"[-0.1539172920391526,0.06566343767399414]",4.0,"[-0.08728398321464514,0.0215913902351675]",100.0,"[-0.04070674732641146,-0.03838977024234992]",100.0,"[0.105658099250755,0.048142804776033346]",100.0,"[0.02,0.02]",214.5452,0.0,26.0,26.0,84.0,1.0,,,,,,,
,,,,,,,683798782103c0dd7218d498,684428bc7996d2118ccc0ff4,2025-06-07_07h56.17.220,shape_ratio,2024.1.5,Win32,59.17159763,684250e4f00cb30b92d1fa88,,,,,,,,,,,214.5456,215.0448,,,215.2961,216.1773,left,0.8612,,,,,,,,,0.5,,,,,,215.0448,215.296,216.1774,"[-0.19211119888668685,-0.05231031244104236]",100.0,"[-0.026394836260668755,0.026954412946363443]",100.0,"[0.027716051279802853,-0.018097313267289538]",100.0,"[0.09752862522300837,0.17188077942052304]",100.0,"[0.11922661876258912,0.08378035922402191]",100.0,"[0.0678600107614721,0.03687756542384814]",4.0,"[-0.17102898303925218,-0.09767214694578229]",100.0,"[-0.053283120260258006,0.12350669761871295]",4.0,"[0.02108580820992436,-0.11642273427917996]",4.0,"[0.16370895124061752,-0.07712194140881627]",4.0,"[0.02573826431097741,0.15481931425283946]",4.0,"[0.007498159656948833,0.10566248744666458]",100.0,"[-0.16915534254661535,0.05040593316506154]",100.0,"[-0.03711243388202388,0.07756802178115438]",100.0,"[-0.015563323945987901,-0.1912082642667025]",100.0,"[-0.08115166597995035,-0.08159003946652513]",4.0,"[-0.19206055666180666,0.01161311925826254]",100.0,"[-0.03726988166122351,0.17576581037985095]",100.0,"[0.07749797352898061,-0.14101826097588813]",4.0,"[0.15960166282235175,0.08525355030774637]",100.0,"[0.06281304496673358,-0.09184568273340905]",4.0,"[0.004305081462131468,0.18978876770200304]",100.0,"[-0.11884242712661437,-0.15448990076553332]",4.0,"[-0.10113265392239663,-0.03042968382651327]",4.0,"[-0.12062496265915207,0.13043653401292435]",4.0,"[-0.06159447332154509,-0.13039641872697597]",4.0,"[0.12062122958180967,-0.08032926016414232]",100.0,"[0.10389170630711661,-0.010416705057912404]",100.0,"[0.14488064543637533,-0.12451960563280254]",4.0,"[-0.11577147671759645,0.06784149177745412]",4.0,"[0.008173703726386879,-0.15681017455096372]",4.0,"[-0.05407446588367304,-0.022321507879232556]",4.0,"[0.02,0.02]",217.2763,0.0,27.0,27.0,92.0,1.0,,,,,,,
,,,,,,,683798782103c0dd7218d498,684428bc7996d2118ccc0ff4,2025-06-07_07h56.17.220,shape_ratio,2024.1.5,Win32,59.17159763,684250e4f00cb30b92d1fa88,,,,,,,,,,,217.2771,217.7756,,,218.0258,218.826,right,0.7863,,,,,,,,,0.5,,,,,,217.7757,218.0258,218.8261,"[-0.14502887230873424,0.030653278869119116]",100.0,"[0.029602932549283784,-0.1339981300664712]",4.0,"[0.09548844571887934,0.11175391351627931]",4.0,"[-0.17273365603612142,-0.047426443870031955]",4.0,"[0.06809968882308387,-0.1464721083885416]",4.0,"[-0.13952242252847571,-0.024279104723466904]",100.0,"[0.18801095493047232,-0.045955300515874244]",4.0,"[-0.10591658275708192,-0.1370810472817592]",100.0,"[0.03977497101873205,0.028938188691703736]",100.0,"[0.020839085459101053,-0.0316406996383115]",4.0,"[0.16584284363084284,0.015776443044293532]",100.0,"[0.08266575361944518,-0.005428574150245669]",4.0,"[-0.05458976229444351,0.06723516738557142]",100.0,"[-0.10490144022292072,0.047995325733530055]",100.0,"[-0.060242524705942074,0.15067251015478417]",100.0,"[0.03370175966580556,0.1627405881626851]",100.0,"[-0.0674450970740969,-0.038739621888492996]",4.0,"[0.12933727907533576,0.13880907421404576]",4.0,"[0.06336915425848373,-0.04585078918488158]",4.0,"[-0.16592451259099464,-0.10650169233505778]",4.0,"[0.021033975661384607,0.08198154518263652]",4.0,"[0.0019773647507093503,-0.18009024230983445]",100.0,"[-0.016856558593579363,-0.06934602238305995]",100.0,"[0.15576742103291794,-0.08425647786554398]",100.0,"[-0.002673796551369692,0.039581505013308635]",100.0,"[-0.05516712031708735,-0.1868848518603263]",100.0,"[0.16120174563701883,0.0821304393897124]",100.0,"[-0.1425356371559007,0.1305699577516689]",4.0,"[-0.04645278985140151,-0.0018858455382779822]",4.0,"[0.04440685229978009,-0.08833632445672172]",4.0,"[-0.07667189237873837,-0.07815215727487489]",4.0,"[0.08758092554491051,-0.10241730154330575]",100.0,"[0.02,0.02]",219.924,0.0,28.0,28.0,116.0,1.0,,,,,,,
,,,,,,,683798782103c0dd7218d498,684428bc7996d2118ccc0ff4,2025-06-07_07h56.17.220,shape_ratio,2024.1.5,Win32,59.17159763,684250e4f00cb30b92d1fa88,,,,,,,,,,,219.9249,220.4239,,,220.6735,221.573,right,0.8838,,,,,,,,,0.6,,,,,,220.424,220.6735,221.5732,"[0.13617206363769374,0.07818521917821422]",4.0,"[-0.1657832484608588,0.03939837961938132]",4.0,"[0.021736802749892023,0.1697075473594809]",4.0,"[0.12383586848935142,-0.0713399416668255]",100.0,"[0.07391017292843036,0.08873904607627237]",100.0,"[-0.13225699890615672,-0.0525833237730799]",100.0,"[0.06479334688811017,-0.029441819592721463]",100.0,"[-0.08285734683333029,-0.1462769420229575]",100.0,"[0.012514814998044145,-0.09205004318440582]",100.0,"[0.06047808099665465,0.14888121113131308]",100.0,"[-0.06562187233275203,0.16227409290494907]",100.0,"[0.1363492702619101,-0.1330054321190839]",100.0,"[-0.06370735629945691,-0.0738018245311758]",4.0,"[-0.027187609292602773,0.07484959295047701]",100.0,"[0.020254673366654305,0.04272973018100985]",4.0,"[0.08251068273834385,0.027502641583679766]",100.0,"[-0.037381335171339056,-0.1567446712183321]",100.0,"[-0.11371464290980263,0.08640141758241872]",4.0,"[-0.04451745327203895,0.11461608297127919]",100.0,"[-0.10053432898751617,-0.004736668628824171]",4.0,"[0.15518759253723644,-0.0166839794905112]",4.0,"[-0.033772218153613656,0.003082818673657818]",100.0,"[0.01361553469575013,-0.024666392303051426]",4.0,"[-0.17837062520408248,-0.08225742475749828]",100.0,"[-0.15271481533144185,0.12116159220273273]",4.0,"[0.177696419712691,0.052534944996179486]",4.0,"[-0.12079297468953966,-0.11859274970794831]",100.0,"[0.16813091556591772,-0.10712158422450777]",4.0,"[0.07186325779234688,-0.1594004111968486]",100.0,"[0.05060733722358017,-0.12544450428481]",4.0,"[-0.0734516481261571,0.03753896638375415]",100.0,"[-0.0280624225183976,0.1819780132284582]",100.0,"[0.02,0.02]",222.6709,0.0,29.0,29.0,40.0,1.0,,,,,,,
,,,,,,,683798782103c0dd7218d498,684428bc7996d2118ccc0ff4,2025-06-07_07h56.17.220,shape_ratio,2024.1.5,Win32,59.17159763,684250e4f00cb30b92d1fa88,,,,,,,,,,,222.6713,223.1709,,,223.4208,224.9189,,,,,,,,,,,0.55,,,,,,223.1709,223.4208,224.919,"[-0.11311524288857727,-0.13187455197596545]",4.0,"[0.16257939159312035,-0.0651318943511997]",4.0,"[-0.06197862312078432,-0.010965964617058123]",4.0,"[0.09644952835718823,-0.04980142109286005]",4.0,"[-0.07863263788217378,0.1104624395594394]",100.0,"[-0.1206099385704952,-0.04617071217744588]",100.0,"[0.002988696718959773,0.1819712423982317]",100.0,"[0.020546391430597166,0.014747024432569767]",100.0,"[-0.13732452758368008,0.06033734146019857]",4.0,"[0.1749840042255425,0.03714112245946613]",100.0,"[0.07054419402176146,0.007537509356750273]",100.0,"[0.1029373631009074,-0.12004358801511002]",100.0,"[0.06854747642335264,0.050769995165972436]",4.0,"[-0.19320728393110137,0.03498938156693914]",100.0,"[-0.0033347712861585576,-0.15945371284985174]",100.0,"[-0.0074562484508385795,-0.042113618731180705]",100.0,"[-0.06995841762071912,-0.0742023511878399]",4.0,"[0.1304517220511716,0.06431975081442061]",100.0,"[0.027359350038150456,-0.0743083461924784]",4.0,"[-0.08768834670459007,0.06093905538508343]",4.0,"[0.06321086799188694,0.17884273171038612]",100.0,"[0.07990165509767386,0.10870038558120336]",100.0,"[-0.012475149449998054,0.07879781207489134]",4.0,"[0.14021309327515288,0.10422391160344002]",100.0,"[0.06720744937630627,-0.08521981776228954]",100.0,"[-0.17539603423662556,-0.09540438390384919]",100.0,"[-0.15687488737152291,-0.010309315389440063]",4.0,"[-0.06974886659356001,0.15704217032911902]",100.0,"[-0.11759179078763936,0.024350964870555266]",4.0,"[0.11269641354658932,0.1371431439906755]",4.0,"[0.0338366527236708,0.09389154776715412]",4.0,"[-0.054303398619114686,-0.17911979456974608]",100.0,"[0.02,0.02]",226.0179,0.0,30.0,30.0,79.0,1.0,,,,,,,
,,,,,,,683798782103c0dd7218d498,684428bc7996d2118ccc0ff4,2025-06-07_07h56.17.220,shape_ratio,2024.1.5,Win32,59.17159763,684250e4f00cb30b92d1fa88,,,,,,,,,,,226.0181,226.5178,,,226.7581,227.6179,left,0.8342,,,,,,,,,0.5,,,,,,226.5179,226.758,227.6183,"[0.06057286515786121,-0.03194282882070053]",4.0,"[0.08899346684599897,0.04311015050225133]",100.0,"[0.013594262387268225,-0.19205336882421253]",4.0,"[-0.05211623214478611,0.17993189912025156]",100.0,"[-0.08516619134039678,0.07371617084712305]",4.0,"[-0.12540619475348952,0.13539064418469562]",4.0,"[-0.19466111805778616,0.022024534305960505]",4.0,"[-0.10968831702793855,0.003234985222234663]",100.0,"[0.10778461997429212,-0.07597234987807827]",4.0,"[-0.08288827990149408,-0.09522527453916722]",4.0,"[-0.13220786536879472,-0.13882101378707343]",100.0,"[0.02999246870954663,-0.08150245535764807]",4.0,"[0.08976088584679401,0.1403173252484043]",100.0,"[-0.017815412539581188,-0.09017416704308115]",100.0,"[0.020068467647165637,-0.004948530478235714]",100.0,"[-0.000952626291004964,0.19602007681625203]",100.0,"[0.10275868132151891,-0.013337377287502708]",100.0,"[0.07398802312285004,-0.1654773513838493]",4.0,"[-0.16919421877837634,-0.03073163614829223]",4.0,"[-0.147521897411929,0.030689081131271348]",100.0,"[-0.08306167655711799,0.13203554467898632]",100.0,"[-0.040707045167319406,-0.02900993966907589]",4.0,"[-0.02855391277959023,-0.1832898273606438]",4.0,"[0.005093703167120328,0.03374105798042774]",100.0,"[0.15941159506345035,-0.05859708077177576]",4.0,"[0.15467882489636228,0.05249174330343603]",4.0,"[0.10928363766084982,0.09041969168278366]",100.0,"[0.022802682645551048,0.15239486585512432]",4.0,"[-0.004075736796966102,0.07344876126984538]",4.0,"[0.17946572057111046,-0.022330753011265945]",100.0,"[-0.15211081121975384,-0.08104691889788775]",100.0,"[0.1173053919094471,-0.11637356595198131]",100.0,"[0.02,0.02]",228.7208,0.0,31.0,31.0,110.0,1.0,,,,,,,
,,,,,,,683798782103c0dd7218d498,684428bc7996d2118ccc0ff4,2025-06-07_07h56.17.220,shape_ratio,2024.1.5,Win32,59.17159763,684250e4f00cb30b92d1fa88,,,,,,,,,,,228.7213,229.2154,,,229.4701,230.1984,left,0.7098,,,,,,,,,0.9,,,,,,229.2156,229.4701,230.1987,"[0.12205687329142435,-0.14778214070669576]",100.0,"[-0.09269680372557788,0.06293735623580925]",100.0,"[0.07507586311079034,-0.09997769759367334]",100.0,"[0.0784298460398785,-0.016416550993153842]",4.0,"[-0.012961673082109907,-0.17564100169676666]",100.0,"[0.059924878293636526,0.12050782503394657]",100.0,"[-0.010314741078211752,-0.08344752866642897]",100.0,"[-0.07393672904781945,-0.013556072230108135]",100.0,"[-0.1688986588370775,-0.030670871548946734]",100.0,"[0.18677047916377157,0.04006864997321286]",4.0,"[-0.10257088580659526,-0.16930256888550105]",100.0,"[-0.03607273596899682,0.019840816465636915]",100.0,"[0.005674347213414156,0.12046728269768368]",4.0,"[0.17635441317751333,0.08847482527311562]",100.0,"[-0.1693764455077584,0.09075158858460687]",100.0,"[-0.07558795692095625,0.1442414981042365]",100.0,"[0.015571562232751178,0.18007485183060054]",100.0,"[0.06185662796503585,-0.1634069477335948]",100.0,"[-0.029529794407102107,0.15092903938845115]",100.0,"[-0.09346707566998079,-0.12861158968627293]",100.0,"[-0.12975071839837052,0.14126094420888075]",100.0,"[0.0433137611270629,0.025892227607045383]",100.0,"[0.08298807137987128,0.06848490900572288]",100.0,"[0.19457168026844082,0.0004551750138791565]",100.0,"[0.14394254743943724,0.11743621451212835]",100.0,"[-0.12479088379086493,-0.06471730601281864]",100.0,"[0.10881918123808224,0.16242650578835893]",100.0,"[-0.004539989505779322,-0.12508238147444256]",100.0,"[0.13880133616581483,0.06389380512349525]",100.0,"[-0.03211081212991687,-0.04899936444429455]",100.0,"[0.13465947042539128,-0.027512565671392136]",100.0,"[-0.1201834187039305,0.02243677731314722]",100.0,"[0.02,0.02]",231.297,0.0,32.0,32.0,2.0,1.0,,,,,,,
,,,,,,,683798782103c0dd7218d498,684428bc7996d2118ccc0ff4,2025-06-07_07h56.17.220,shape_ratio,2024.1.5,Win32,59.17159763,684250e4f00cb30b92d1fa88,,,,,,,,,,,231.2991,231.7978,,,232.0501,233.0146,left,0.9355,,,,,,,,,0.55,,,,,,231.798,232.0501,233.0148,"[-0.033042000875388375,0.11826325401843145]",4.0,"[0.02294049998686895,-0.06067197025894207]",100.0,"[0.15846721508986195,-0.0654077851652632]",100.0,"[0.10863467426885302,0.13860324953971603]",100.0,"[0.026618454031686844,0.053735031532576805]",4.0,"[0.10316024997967918,-0.14458701212983688]",100.0,"[-0.08805078422347361,0.10226444119319741]",4.0,"[-0.1783060526717056,0.03441302013208456]",4.0,"[0.14243745939392194,-0.026993171225110073]",4.0,"[-0.0917611969574238,-0.16539100132290596]",100.0,"[0.08867496284046732,0.04625306985635243]",100.0,"[0.05985121531554881,-0.10670358608712291]",100.0,"[0.04207579491533902,-0.19439516551818306]",100.0,"[-0.161453662028834,0.07982028012153089]",100.0,"[-0.0736841308958225,-0.08422680094695464]",4.0,"[-0.014660109657780782,-0.10634274618413198]",100.0,"[-0.14212213211082603,0.12766482079852212]",4.0,"[-0.11917206326980037,-0.08437499786819079]",100.0,"[0.10395078986888066,-0.05135971052328749]",4.0,"[0.0753640775043878,0.09243079338573013]",100.0,"[-0.06841147374513175,0.16091129707527368]",100.0,"[-0.01862053731591096,-0.1970085769547385]",4.0,"[-0.03807218393349386,0.04796955295809194]",4.0,"[-0.10352179682336902,0.0652771627891575]",100.0,"[0.0047387779813938356,0.19207785969454844]",4.0,"[0.0922492681418456,0.002860991317696128]",100.0,"[0.060746485847112446,-0.03740405534772694]",4.0,"[0.02655209528692952,0.11186715499399029]",100.0,"[-0.07585446679928012,0.009721816256344476]",4.0,"[-0.16920119923754257,-0.09759698869588748]",100.0,"[0.16241117961187368,0.007718090867729925]",4.0,"[0.022740307411220708,-0.15690648863080692]",100.0,"[0.02,0.02]",234.1112,0.0,33.0,33.0,74.0,1.0,,,,,,,
,,,,,,,683798782103c0dd7218d498,684428bc7996d2118ccc0ff4,2025-06-07_07h56.17.220,shape_ratio,2024.1.5,Win32,59.17159763,684250e4f00cb30b92d1fa88,,,,,,,,,,,234.1125,234.6103,,,234.8658,235.8451,right,0.9613,,,,,,,,,0.1,,,,,,234.6108,234.8658,235.8451,"[-0.11480822377433272,-0.10799052091495032]",4.0,"[0.035843170773689696,0.026026813689195547]",4.0,"[-0.13154182098570633,-0.00850501358534365]",4.0,"[0.015856007919112146,0.19809436047142348]",4.0,"[-0.014289160713102947,-0.17675466107112628]",4.0,"[0.06617081857771245,-0.018158971777560734]",4.0,"[-0.09325531117524695,0.16280921970983522]",4.0,"[-0.12565828966970674,-0.1490591433765818]",100.0,"[0.008073978054159384,0.13482788705608315]",4.0,"[0.17017172564834077,0.008960431228539964]",4.0,"[0.09877232686878773,0.11625135622595288]",4.0,"[0.11132917949393069,0.03122493840317924]",4.0,"[0.054568065406504204,0.06240608826072219]",4.0,"[0.08516116376790021,-0.11549720412788819]",4.0,"[0.039192961264450064,-0.10295192285975487]",100.0,"[-0.0687999805669195,0.12786669407019466]",100.0,"[0.17157535602298557,0.049796741143215466]",4.0,"[-0.07906667312139132,0.06702372827451691]",4.0,"[0.13186771090941143,0.08695902665781938]",4.0,"[0.15463599679774775,-0.04123418287480514]",4.0,"[-0.13475783592826357,0.05808754054287635]",4.0,"[-0.06943399281868791,-0.18188871059168035]",4.0,"[-0.15739601113608115,-0.053194320158973005]",4.0,"[-0.01627675422497275,0.009805990672290349]",4.0,"[-0.05392246958053379,-0.0796694720432729]",4.0,"[0.13350994082366008,-0.11922848223327975]",4.0,"[0.0025146700244062003,-0.075994757656733]",4.0,"[0.08908215417998225,-0.17797508250755104]",4.0,"[-0.19273731678096037,0.01693177038130728]",4.0,"[-0.06985643413780547,-0.031468857826732324]",4.0,"[-0.13919727293126655,0.10179520941517234]",4.0,"[0.08980223289159268,-0.052902951355729505]",4.0,"[0.02,0.02]",236.9416,0.0,34.0,34.0,208.0,1.0,,,,,,,
,,,,,,,683798782103c0dd7218d498,684428bc7996d2118ccc0ff4,2025-06-07_07h56.17.220,shape_ratio,2024.1.5,Win32,59.17159763,684250e4f00cb30b92d1fa88,,,,,,,,,,,236.9436,237.4417,,,237.6905,238.1908,left,0.4907,,,,,,,,,0.9,,,,,,237.4418,237.6905,238.191,"[-0.02592145256992846,-0.08615059902972902]",100.0,"[-0.04871940801950606,0.04432042888944644]",100.0,"[0.01463749852465911,-0.07005438988177586]",100.0,"[0.02342098149212958,0.18947122109205408]",100.0,"[-0.023059993028424142,0.1058783285920967]",100.0,"[0.14679166533808313,-0.12622976391134155]",100.0,"[0.10044094321719862,0.014198162104195096]",100.0,"[0.051441937372287104,-0.14132087913828165]",4.0,"[0.09243223727213493,0.1729912183564253]",100.0,"[-0.013416277761986431,-0.16630750999213492]",4.0,"[-0.09599655012967392,-0.1304961977898162]",100.0,"[-0.024555314048709226,-0.02092778553428562]",100.0,"[0.11164178509896856,0.08155016322626585]",100.0,"[0.06041093305883264,0.14650385873470406]",100.0,"[0.0657389625806868,0.05752546118023937]",100.0,"[0.06110614013602899,-0.04160178127430701]",100.0,"[-0.13087978723829913,0.11919547191741735]",100.0,"[0.16489651926740745,-0.07766960181917923]",100.0,"[-0.1172216646715354,-0.07412313733891579]",100.0,"[0.18147675109309705,-0.024692833008375208]",4.0,"[0.13964521473057095,-0.03681326479135836]",100.0,"[0.02501740414728242,0.09927497869057825]",100.0,"[0.13585531181006133,0.04792888775267834]",100.0,"[0.018813899484743254,0.02454131801471761]",100.0,"[0.09155084323046857,-0.1495607047739939]",100.0,"[-0.07840732473015975,0.0015227458314592073]",100.0,"[0.05647191665761702,-0.09593293152395223]",100.0,"[0.14841955520784156,0.0041267627358201634]",100.0,"[-0.07486350706014616,0.1656764663061278]",100.0,"[-0.14206768059479072,0.0753396729247486]",100.0,"[-0.07366476206381281,-0.17144460196840255]",100.0,"[0.09846309690232657,-0.07908639121489991]",100.0,"[0.02,0.02]",239.2894,0.0,35.0,35.0,25.0,1.0,,,,,,,
,,,,,,,683798782103c0dd7218d498,684428bc7996d2118ccc0ff4,2025-06-07_07h56.17.220,shape_ratio,2024.1.5,Win32,59.17159763,684250e4f00cb30b92d1fa88,,,,,,,,,,,239.2901,239.7893,,,240.0432,240.8723,left,0.8017,,,,,,,,,0.1,,,,,,239.7894,240.0432,240.8725,"[0.05769681302415857,0.009834910210487395]",4.0,"[0.03338264165658378,-0.15896702259123033]",4.0,"[-0.023902778690638955,-0.12014627694851708]",100.0,"[-0.009332389291232372,-0.18935140640821993]",4.0,"[-0.08692088636103665,-0.08621651169200083]",4.0,"[0.14451872796418702,0.015224878843131633]",4.0,"[0.07729723383830492,0.07208438102034649]",4.0,"[-0.010083814693596645,0.07814696822409196]",4.0,"[0.1139954175255897,-0.10484178130806593]",100.0,"[-0.1718081973577785,0.05919783803251131]",4.0,"[-0.025987236869047886,0.1456566433498209]",4.0,"[-0.1042812999338986,0.0737174981677103]",4.0,"[-0.1310678816866094,-0.06847887234741057]",4.0,"[-0.13227313810285438,-0.13057355368294146]",100.0,"[-0.1407247166535679,0.1315980448018487]",4.0,"[-0.045864746586322495,0.013736222358032225]",4.0,"[-0.08847678151085912,0.03561623484671993]",4.0,"[0.16915389020902197,-0.09727162075655392]",4.0,"[0.18875507383240123,0.017426443853239177]",4.0,"[-0.07163668419690285,-0.13326106302588697]",4.0,"[-0.13540554425939563,0.025659256559152254]",4.0,"[-0.0850358192119272,-0.040115008894214516]",4.0,"[0.029971517772400626,0.1381859640060316]",4.0,"[-0.04484707864330539,-0.058977837730849365]",4.0,"[-0.0715798135916069,0.1825652319658788]",4.0,"[0.11167694256301587,0.13323568133161465]",4.0,"[0.16723854706759955,0.10676921820032897]",4.0,"[0.04920993460696392,-0.03518766213596733]",4.0,"[0.14025916820009326,-0.13912204114975849]",4.0,"[0.06014243553727104,-0.09758469183230047]",4.0,"[0.003280399617976745,0.03987608770651427]",4.0,"[0.12120918960588432,-0.053036163786836975]",4.0,"[0.02,0.02]",241.9703,0.0,36.0,36.0,183.0,1.0,,,,,,,
,,,,,,,683798782103c0dd7218d498,684428bc7996d2118ccc0ff4,2025-06-07_07h56.17.220,shape_ratio,2024.1.5,Win32,59.17159763,684250e4f00cb30b92d1fa88,,,,,,,,,,,241.9715,242.4699,,,242.7245,243.4203,left,0.6702,,,,,,,,,0.45,,,,,,242.4701,242.7245,243.4214,"[0.06484299530440298,-0.06567099694044246]",4.0,"[0.06506130943918095,-0.15259752879073504]",4.0,"[-0.035467266318680135,-0.1454045572383263]",4.0,"[0.015919302063159144,-0.1366417079914176]",4.0,"[0.16186378058485146,0.08162116258263524]",100.0,"[-0.06499183059614938,-0.1796235761659921]",100.0,"[-0.11570799444741638,-0.05240767190066613]",100.0,"[-0.023908691986242125,-0.023068731189701187]",4.0,"[0.022988780369248944,0.03110619353570774]",100.0,"[0.12294920709383496,-0.056717265125959225]",4.0,"[0.06405248566051613,0.09082256725198896]",4.0,"[-0.11676859752513631,0.05478903397227151]",100.0,"[0.18527926014934043,-0.06682602358031899]",4.0,"[-0.06088324892710388,0.05384846244883834]",100.0,"[0.14796302343566034,-0.12287577823743358]",4.0,"[0.10812531354332876,0.09677299885066905]",100.0,"[-0.14491199739926436,0.09161209298212895]",4.0,"[0.14945209775489146,0.04023461815252965]",100.0,"[-0.10036133568637709,0.10231947671023464]",4.0,"[-0.0838670422586301,-0.07960226747549931]",100.0,"[-0.10284168763987596,-0.003764694327980353]",100.0,"[0.043832318095037244,-0.19392631448282852]",4.0,"[-0.11522491208196296,0.13950009970106614]",4.0,"[0.09000289330420974,0.17815418828875293]",4.0,"[0.018641347501968705,0.14577417291687725]",100.0,"[-0.06347102949870774,0.18819079751423562]",100.0,"[-0.061358783016683134,0.13984282690232783]",100.0,"[-0.02775177328651023,-0.10146433107931765]",4.0,"[-0.1841478608554331,0.053735774240540636]",4.0,"[-0.009254903487944796,-0.19834861390828346]",4.0,"[0.01804097475559629,-0.03486180611688212]",4.0,"[0.19016356721126884,0.031980143321663504]",100.0,"[0.02,0.02]",244.5179,0.0,37.0,37.0,143.0,1.0,,,,,,,
,,,,,,,683798782103c0dd7218d498,684428bc7996d2118ccc0ff4,2025-06-07_07h56.17.220,shape_ratio,2024.1.5,Win32,59.17159763,684250e4f00cb30b92d1fa88,,,,,,,,,,,244.5192,245.0177,,,245.2724,245.9012,left,0.6056,,,,,,,,,0.4,,,,,,245.0178,245.2723,245.9014,"[-0.0821301808778841,0.09132212279056431]",100.0,"[-0.08635722803501972,0.14844467221831936]",100.0,"[0.03389691830973202,-0.08231833559967791]",4.0,"[0.0912667424871276,0.013888358600470522]",4.0,"[-0.19343238412986136,0.03352452135957546]",4.0,"[-0.03711314875583315,-0.17552885217801223]",4.0,"[0.08263587289027566,-0.11846104495125614]",4.0,"[-0.012415865940198913,0.06301264890540947]",100.0,"[-0.09161187723564505,-0.14159945109790453]",100.0,"[-0.05726856725777386,-0.04186348446501941]",100.0,"[-0.05966264844523638,-0.09950534738863243]",4.0,"[0.0525691068400522,-0.19118934005453458]",4.0,"[-0.007643132287372289,0.12093805737797134]",4.0,"[0.0919326884282995,0.059636446533690865]",4.0,"[-0.07535604831009761,0.0335273363868234]",4.0,"[-0.16373969014652653,-0.05852490729985279]",4.0,"[0.1358395809179889,0.09534322158537209]",4.0,"[0.10578417195729468,0.15636394080746088]",4.0,"[-0.004778588655479902,-0.04736415759956678]",100.0,"[0.06492345537784838,0.17961280795094992]",100.0,"[0.00044905434300188503,-0.15479754439775517]",4.0,"[-0.12721785752013068,0.1393367459483342]",100.0,"[0.1901996824313599,-0.06144988508714872]",4.0,"[-0.1365197379384392,0.09812220993357808]",100.0,"[0.04703247045378318,0.02742372482834172]",4.0,"[0.18089274714281942,0.002511959116614713]",4.0,"[0.051216219862335675,0.09105640659648458]",100.0,"[-0.006450375211379012,0.18596655864855735]",100.0,"[0.14974605920413736,0.052212120207326525]",100.0,"[0.10101549764553626,-0.1724071269861503]",4.0,"[-0.011885997528681412,-0.002644334148872574]",4.0,"[0.13190819399562245,-0.1233873822194172]",100.0,"[0.02,0.02]",247.0015,0.0,38.0,38.0,159.0,1.0,,,,,,,
,,,,,,,683798782103c0dd7218d498,684428bc7996d2118ccc0ff4,2025-06-07_07h56.17.220,shape_ratio,2024.1.5,Win32,59.17159763,684250e4f00cb30b92d1fa88,,,,,,,,,,,247.0018,247.4994,,,247.7025,249.1003,right,1.3747,,,,,,,,,0.4,,,,,,247.4995,247.7022,249.1005,"[0.035084383922092864,-0.1620587381156241]",4.0,"[-0.06571767034831594,-0.14154579667779804]",100.0,"[-0.11930895444821629,0.08579228514168709]",4.0,"[0.037599314277753516,0.09760993822909325]",100.0,"[-0.1475675726066715,-0.024071203730302807]",100.0,"[0.0496036426800455,-0.0777007898662174]",4.0,"[0.14295066937544817,-0.017135199605847716]",100.0,"[0.08392527373556549,-0.024480423004396314]",100.0,"[0.10119306580416913,0.165822232538176]",100.0,"[-0.17076660979698943,0.10309775982457443]",4.0,"[-0.07073270215486205,-0.04178813103768405]",100.0,"[0.13110893523511316,-0.14688736091969404]",100.0,"[0.1360704628213619,0.14142167303199293]",4.0,"[0.016758226772631682,0.04614357633389182]",4.0,"[-0.019011077874435036,-0.06360716653192895]",100.0,"[-0.06072650515265653,0.1654946897907745]",4.0,"[0.17246699806587446,0.051588058130709234]",4.0,"[0.08071888836390267,-0.17460468715248117]",4.0,"[0.0408647772433095,0.15807136810517664]",4.0,"[0.07673801306261951,-0.1108899254009271]",100.0,"[0.02226528040894084,-0.00031520926582899385]",100.0,"[-0.17291102436959865,0.009100804034996872]",4.0,"[0.17146628494179367,-0.05870257800009357]",4.0,"[-0.18466880544983308,-0.045086790427326134]",4.0,"[-0.12935164881891237,0.15098885509170526]",4.0,"[-0.15466539501390436,-0.08272998879146487]",100.0,"[-0.07499305114521145,0.060050975954863535]",100.0,"[-0.13458882493440996,-0.12440377434258074]",4.0,"[-0.0124483460233058,-0.12542245873489066]",4.0,"[-0.03346499383070928,0.11650276291873081]",4.0,"[-0.09343607260062255,-0.11189661343362371]",4.0,"[-0.023083601119375,-0.01955076078178871]",4.0,"[0.02,0.02]",250.1963,0.0,39.0,39.0,157.0,1.0,,,,,,,
,,,,,,,683798782103c0dd7218d498,684428bc7996d2118ccc0ff4,2025-06-07_07h56.17.220,shape_ratio,2024.1.5,Win32,59.17159763,684250e4f00cb30b92d1fa88,,,,,,,,,,,250.1975,250.6967,,,250.9496,251.4682,left,0.5002,,,,,,,,,0.9,,,,,,250.6969,250.9495,251.4683,"[-0.07316978098756871,-0.03564029169225067]",100.0,"[0.048202336800970115,0.029292780366112086]",100.0,"[-0.18150240885915153,-0.05871305356667327]",100.0,"[0.07135442183426262,-0.13306400584779451]",4.0,"[-0.12443120701920131,0.12087825785949012]",100.0,"[-0.04891767641788572,0.16246716680697953]",100.0,"[-0.002199366135346429,0.03418714465596202]",100.0,"[0.14753169935269717,0.042398627221313975]",100.0,"[0.03738572779868752,0.16045245319172827]",100.0,"[-0.07047303158132885,0.05013405152244922]",100.0,"[-0.1727601720289377,0.017483540446368958]",100.0,"[-0.0815774526947598,-0.12671998738269918]",100.0,"[-0.050847287333104306,-0.001336922364574534]",100.0,"[0.08210582794422716,-0.06907775846878297]",100.0,"[0.033045180612387884,0.11325654633241884]",100.0,"[0.14019149721792318,-0.022869260568711348]",100.0,"[0.07289085826937554,0.12241577458056203]",4.0,"[-0.013261954608936265,-0.1353594617846977]",100.0,"[0.08971899806896519,-0.1763808807358439]",100.0,"[0.18804261477586076,0.0426811690907325]",100.0,"[0.13853676695269818,0.10240250477959943]",100.0,"[0.03303573512140303,-0.09245313391862109]",100.0,"[-0.02481269174754314,0.11392914033744687]",100.0,"[-0.08906952766289711,-0.08685589858908094]",100.0,"[0.1096390082888467,0.16311929501084463]",100.0,"[-0.07786224935017393,0.12044823810917896]",100.0,"[-0.13715527492913052,0.03839401668097716]",100.0,"[0.08420758980981707,-0.01661728449359159]",100.0,"[0.1930146808635546,-0.016476110283949644]",100.0,"[0.09518666078464386,0.06210863492338869]",4.0,"[0.12117648719913593,-0.09450326661852228]",100.0,"[-0.13333895164731277,0.0804427544310742]",100.0,"[0.02,0.02]",252.5633,0.0,40.0,40.0,17.0,1.0,,,,,,,
,,,,,,,683798782103c0dd7218d498,684428bc7996d2118ccc0ff4,2025-06-07_07h56.17.220,shape_ratio,2024.1.5,Win32,59.17159763,684250e4f00cb30b92d1fa88,,,,,,,,,,,252.5642,253.0605,,,253.3109,254.0262,left,0.7045,,,,,,,,,0.55,,,,,,253.0608,253.3109,254.0263,"[-0.04401216151946237,-0.12309131288620147]",100.0,"[0.14464403362275108,-0.007881666151053861]",4.0,"[0.05727333505836418,0.04179859981334724]",100.0,"[0.01549635159483413,-0.0305087006908706]",4.0,"[-0.025501617244448913,0.13425518342670226]",100.0,"[-0.020523885045170547,0.010362818279737276]",100.0,"[-0.1075819395105818,-0.005641247574086242]",100.0,"[-0.08913510434716998,0.08689154901064647]",4.0,"[-0.1196187340965442,-0.09256465368222203]",4.0,"[0.18253655801544702,0.07951671814858029]",100.0,"[-0.06881910967322002,-0.1854991619207384]",4.0,"[-0.17158201105538864,0.012003064646361536]",100.0,"[-0.07644710390803758,-0.048978274329620534]",4.0,"[-0.026680117100820463,0.07987110149318269]",100.0,"[-0.1938641813288563,-0.04663437206847172]",100.0,"[-0.023268753865538422,-0.1654669234307167]",4.0,"[0.04940342080560498,0.16679157111846557]",4.0,"[0.11208515292315359,0.0914483203270856]",4.0,"[0.12579294232959318,-0.1462600115917668]",100.0,"[0.10968981820432123,-0.04538790390736209]",4.0,"[0.1687964620976977,-0.06660476571140228]",100.0,"[0.10657731549605685,0.14685837223990175]",4.0,"[-0.102982135291589,0.1253872930212023]",100.0,"[0.0014245074311419463,-0.10014382157785351]",4.0,"[0.1648521252045272,0.030770280324622798]",100.0,"[-0.15532454577570304,0.06205676203583963]",100.0,"[-0.17281987590892978,-0.09766566098587685]",100.0,"[-0.07676434091669407,0.035005365448333416]",4.0,"[-0.0846980625134832,-0.11935126930423397]",4.0,"[0.05635303334897864,0.10883155361089915]",100.0,"[0.06998187751868634,-0.09776085113332668]",100.0,"[-0.009428136596216873,0.189985906081475]",100.0,"[0.02,0.02]",255.1246,0.0,41.0,41.0,86.0,1.0,,,,,,,
,,,,,,,683798782103c0dd7218d498,684428bc7996d2118ccc0ff4,2025-06-07_07h56.17.220,shape_ratio,2024.1.5,Win32,59.17159763,684250e4f00cb30b92d1fa88,,,,,,,,,,,255.1253,255.6244,,,255.8798,256.4666,right,0.57,,,,,,,,,0.4,,,,,,255.6245,255.8797,256.4668,"[0.1919449662514052,0.052281449539479566]",4.0,"[0.05046000750536787,0.022390179955481797]",4.0,"[0.09350902680533005,0.13158903231494742]",100.0,"[-0.057450731442066506,0.06062524491710041]",100.0,"[0.029061479363695925,-0.1863016552375868]",4.0,"[0.16219700579324495,-0.11019725461405744]",4.0,"[0.09598813711500107,-0.09109809594707449]",4.0,"[0.017409012074454524,-0.13085691229564592]",4.0,"[0.0612514382226828,-0.14695677512214794]",100.0,"[0.053264129641694226,0.08359420977244013]",4.0,"[-0.10820731716118413,0.07255696118958303]",4.0,"[-0.017887719412440845,0.009995650053356753]",100.0,"[-0.15099555304740964,0.006261565830263045]",4.0,"[-0.16258924623202953,0.10331944316316956]",4.0,"[0.1690161462827328,0.10429068173497427]",100.0,"[0.05339619272497666,0.1357870595657508]",4.0,"[0.005272952919433095,-0.05144968049363179]",100.0,"[0.11920407989380298,-0.035663251576619454]",4.0,"[0.07426445142122184,0.17038446966740126]",4.0,"[-0.0016925517338757402,0.09736477572479559]",4.0,"[-0.05327162640654402,-0.11217427138917123]",100.0,"[0.026927051505818634,0.18183497939486537]",100.0,"[-0.13559153438139798,-0.12038675352693883]",4.0,"[-0.15299611029554755,-0.04118398567780844]",100.0,"[-0.111358669869718,-0.03633382033148531]",100.0,"[-0.13968190551071374,-0.08006476315293676]",100.0,"[-0.021245172413533957,0.18657502629276396]",4.0,"[0.11408332596840075,0.008935433389659207]",100.0,"[0.0688464973216548,-0.04201944099454116]",4.0,"[0.03860484270642695,-0.0757215886706314]",4.0,"[-0.07185213981613414,-0.015085811306116866]",4.0,"[0.11767857770222377,0.09439696794120962]",100.0,"[0.02,0.02]",257.5559,0.0,42.0,42.0,167.0,1.0,,,,,,,
,,,,,,,683798782103c0dd7218d498,684428bc7996d2118ccc0ff4,2025-06-07_07h56.17.220,shape_ratio,2024.1.5,Win32,59.17159763,684250e4f00cb30b92d1fa88,,,,,,,,,,,257.5576,258.0562,,,258.3097,258.7717,right,0.4363,,,,,,,,,0.9,,,,,,258.0564,258.3097,258.772,"[-0.04885585619097256,0.1396210126226207]",100.0,"[0.06211290813391483,0.0015822008826610313]",100.0,"[0.1416198402580676,-0.042099129579006626]",4.0,"[0.09950122592060638,-0.1382575874295119]",4.0,"[0.029291911672743826,0.18765196056279804]",100.0,"[-0.14233457696608498,0.10540815441418025]",100.0,"[0.16431700460143492,0.10613879036465529]",100.0,"[0.00756095331819012,-0.04905829160598261]",100.0,"[-0.08861597557695992,0.062023361447497156]",100.0,"[0.06388059411356521,-0.16071667976159493]",4.0,"[0.1649025735249766,0.029432458326241594]",100.0,"[-0.03801458233444783,0.17940520469309457]",100.0,"[-0.05962438034375109,-0.04039807920601118]",100.0,"[-0.1481085583910499,-0.12040550263535577]",100.0,"[-0.002761775639171549,0.08877089213239468]",100.0,"[0.0216928632950675,-0.11326067040544113]",100.0,"[-0.08963396436705136,0.1321286417380458]",100.0,"[-0.06476907381844055,-0.12232756044940504]",100.0,"[-0.011373448332503143,-0.1748803587104011]",100.0,"[0.06684367315825218,0.09847952662444197]",100.0,"[0.11720859117206171,0.04113909470708203]",100.0,"[0.08501341072222811,-0.04163408869084049]",100.0,"[-0.12987527105279387,-0.015070347470973742]",100.0,"[0.17176892269384555,-0.014760000651891477]",100.0,"[0.15113117168828555,-0.10985726514588183]",100.0,"[-0.04523309051886975,0.07890526516210677]",100.0,"[0.027432736263145175,0.021626630719759687]",100.0,"[-0.03447233436330992,0.03183239642691302]",100.0,"[0.09893973244007821,-0.09502310756245474]",100.0,"[-0.1812031434966578,0.01578802085847637]",100.0,"[-0.09899607279394242,-0.1525710936215201]",100.0,"[-0.053694791548252595,-0.16529586142300243]",100.0,"[0.02,0.02]",259.8723,0.0,43.0,43.0,4.0,1.0,,,,,,,
,,,,,,,683798782103c0dd7218d498,684428bc7996d2118ccc0ff4,2025-06-07_07h56.17.220,shape_ratio,2024.1.5,Win32,59.17159763,684250e4f00cb30b92d1fa88,,,,,,,,,,,259.8728,260.3695,,,260.6218,261.5701,left,0.9182,,,,,,,,,0.1,,,,,,260.3697,260.6218,261.5703,"[-0.06501769026668416,-0.16758081846348954]",4.0,"[0.05034295091658142,0.16055208630105125]",4.0,"[0.07415755625677607,0.0436715547914527]",4.0,"[0.0359611411496676,-0.12641294826693955]",4.0,"[0.1536368352215666,-0.05024209118224401]",4.0,"[-0.19595324943304296,-0.016359986962679204]",4.0,"[-0.1356194378523496,0.12555846771583346]",4.0,"[0.10242411511540371,-0.06020049478111519]",4.0,"[0.16073274841603233,0.09291645940259062]",4.0,"[-0.01042460771867087,0.04601140920688121]",4.0,"[-0.1182226294356956,-0.01058671322550869]",4.0,"[-0.011453149552468069,-0.1453719807632333]",4.0,"[0.05338106727229957,-0.021334758970010737]",100.0,"[-0.163598223385814,0.08299785002900677]",4.0,"[0.182507552167478,0.04660647757603428]",4.0,"[-0.08279368636659448,0.029395767759149663]",100.0,"[-0.033416130935098994,-0.009436683601538787]",4.0,"[-0.016146363121962753,0.1991326038371342]",4.0,"[0.10686723429136141,-0.14060738111323143]",4.0,"[-0.1332552655320933,-0.0877536510915652]",4.0,"[-0.0789609442532107,-0.01863883469404833]",4.0,"[-0.1424062486262934,0.04776332932529558]",4.0,"[0.09023665831143636,0.09727193008729913]",4.0,"[0.02161024953754173,-0.05862233535312196]",4.0,"[-0.010294637075059556,0.10728407108965762]",4.0,"[0.047853292524767464,0.09302876484873476]",100.0,"[0.15823823033830142,0.01023204150920453]",4.0,"[0.13793394125530453,0.05584377580692225]",4.0,"[-0.10877274453301952,-0.14036231978095057]",4.0,"[-0.04778219537031768,0.06363212869968943]",4.0,"[-0.17466436662099852,-0.055168595179824614]",4.0,"[-0.09124016075369867,-0.09462412075849848]",4.0,"[0.02,0.02]",262.6695,0.0,44.0,44.0,180.0,1.0,,,,,,,
,,,,,,,683798782103c0dd7218d498,684428bc7996d2118ccc0ff4,2025-06-07_07h56.17.220,shape_ratio,2024.1.5,Win32,59.17159763,684250e4f00cb30b92d1fa88,,,,,,,,,,,262.6707,263.1693,,,263.4182,264.9155,,,,,,,,,,,0.9,,,,,,263.1693,263.4181,264.9157,"[0.031644212200061576,0.11728570383714586]",100.0,"[0.1476814820766156,0.07724516968031689]",4.0,"[-0.11322079383033808,-0.09919156699755596]",100.0,"[-0.07168354527463487,-0.1679836670490539]",100.0,"[-0.06593198388133767,0.15001516719533883]",100.0,"[-0.1865841779056822,-0.06263662039923584]",100.0,"[-0.12556671871896305,0.006540559047087596]",100.0,"[0.0969439437182298,-0.003972902767048199]",100.0,"[-0.03223063019087027,-0.1042127925622933]",100.0,"[0.026749220162851837,-0.10829761966410462]",100.0,"[-0.0060424512583516,-0.04855453521144104]",4.0,"[-0.0021954272078936366,0.1701626914178029]",4.0,"[-0.09608037916756584,0.11763854208901248]",100.0,"[0.025145149043429568,-0.17328650467295725]",100.0,"[-0.110674393942871,-0.14026069806250963]",100.0,"[0.13472472966417096,-0.03446147274346434]",100.0,"[-0.07285782138741936,0.0401557415367419]",100.0,"[-0.18391868705484718,0.008751756942060745]",100.0,"[-0.11405087934163252,-0.037009715259715074]",100.0,"[0.15310484755822237,0.011029205327909079]",100.0,"[0.04273881768155819,0.1619468076018659]",100.0,"[-0.032684191041083555,0.08924530461176294]",100.0,"[-0.13050521561414957,0.1464485638032221]",100.0,"[-0.06470988007421916,-0.020255708372311075]",100.0,"[0.01720342072909529,0.03270450440610705]",100.0,"[0.1964453176693606,-0.03541431272574479]",100.0,"[0.07658436390048237,-0.16774627662704408]",100.0,"[-0.025397420315531886,-0.1605603810032044]",100.0,"[0.08545671143892643,-0.12868106421228553]",100.0,"[-0.04153355909031055,0.18215586028945135]",100.0,"[-0.026950399619856,0.02455024471764827]",100.0,"[-0.07201827034812516,-0.0852268902185074]",100.0,"[0.02,0.02]",266.0152,0.0,45.0,45.0,0.0,1.0,,,,,,,
,,,,,,,683798782103c0dd7218d498,684428bc7996d2118ccc0ff4,2025-06-07_07h56.17.220,shape_ratio,2024.1.5,Win32,59.17159763,684250e4f00cb30b92d1fa88,,,,,,,,,,,266.0176,266.5141,,,266.7546,268.2457,,,,,,,,,,,0.45,,,,,,266.5141,266.7545,268.2459,"[0.08917793699832041,-0.14156582472165155]",4.0,"[0.09215258582769095,0.059769331042836424]",4.0,"[-0.1362312206969769,0.040647523368362484]",4.0,"[-0.19622857776264693,-0.027045577283466255]",4.0,"[-0.15257209725340315,0.10944067689258608]",100.0,"[0.055825531340816345,0.156287164507216]",4.0,"[-0.07612141968432089,-0.11295760462309684]",100.0,"[-0.0015079456470018552,-0.19352050693909348]",100.0,"[0.08274189519201186,-0.024348823544487877]",4.0,"[0.11543750563028697,-0.06477426307522686]",100.0,"[0.18796890121208437,-0.03446265870981893]",4.0,"[0.032177610227699785,0.03718285302973133]",4.0,"[0.08847106412647375,0.128097993339937]",4.0,"[0.17818764417015087,-0.08748827195379585]",100.0,"[-0.10520934277962998,0.085607659255816]",4.0,"[-0.1307250016760608,-0.12596422702211713]",4.0,"[0.10556712566075041,0.01015010209182646]",100.0,"[0.05575183902657608,-0.06388537913271128]",4.0,"[0.12965343807494636,0.11546450127631344]",100.0,"[-0.10106698876972182,-0.029732136758739838]",4.0,"[-0.011355671607381384,-0.10720486832885238]",100.0,"[0.17484179982723713,0.04300856585738847]",100.0,"[-0.08594594051987393,0.14493732541394486]",100.0,"[-0.015576820287770203,-0.06354503259935686]",100.0,"[-0.03696601310562619,0.04920580485784347]",4.0,"[0.14100360582961569,-0.10545565080817373]",4.0,"[-0.01993669009848195,0.15085741513140707]",100.0,"[0.03859686365542847,-0.14480369422740905]",100.0,"[-0.1826227569255356,0.041366439275268674]",4.0,"[-0.10602445744179757,-0.1586493255716729]",100.0,"[-0.1516400328075337,-0.07487919810466469]",4.0,"[0.048276347167827194,-0.188106865985554]",4.0,"[0.02,0.02]",269.3452,0.0,46.0,46.0,120.0,1.0,,,,,,,
,,,,,,,683798782103c0dd7218d498,684428bc7996d2118ccc0ff4,2025-06-07_07h56.17.220,shape_ratio,2024.1.5,Win32,59.17159763,684250e4f00cb30b92d1fa88,,,,,,,,,,,269.3481,269.8456,,,270.086,271.5777,,,,,,,,,,,0.55,,,,,,269.8457,270.0859,271.5781,"[0.08390140590775265,-0.0491317412495634]",100.0,"[0.17044769651256841,0.03107645264054215]",4.0,"[0.1418465745300374,0.1165399380152663]",4.0,"[-0.08006908503443098,0.11793185834322838]",100.0,"[-0.0036806961992941105,-0.17177193453078043]",100.0,"[0.07076637129948492,0.037126111947948834]",100.0,"[0.10373839836307368,-0.009592362230886631]",4.0,"[0.041938607510741494,0.10526868165760658]",100.0,"[-0.06774589969685597,-0.17576592467748461]",100.0,"[0.1365985446552127,-0.13186679924188568]",4.0,"[-0.03309212357021565,-0.055322949907346]",4.0,"[0.011884522147837022,-0.027060979900275454]",100.0,"[0.06204362638906973,-0.11429070636194777]",4.0,"[0.02608214835899294,0.038516491908820144]",100.0,"[-0.13840830405366708,0.04053470755890635]",100.0,"[-0.16531086209745888,0.09605548332805888]",4.0,"[-0.1287875580118807,-0.095953180457818]",100.0,"[0.011333792671336522,0.14584253252345838]",100.0,"[-0.09725652686084893,-0.14049373521485642]",100.0,"[-0.10659596162014534,0.07615340758825752]",4.0,"[0.1529346530073044,-0.05731478668636856]",4.0,"[-0.19499476679214137,-0.03809233387171637]",4.0,"[-0.0454917096618306,0.18561320936631837]",100.0,"[-0.012085114601215002,-0.10505146132428056]",4.0,"[0.09255038729005906,0.150203223140523]",100.0,"[-0.07226639368774038,-0.07701852792217943]",4.0,"[0.1784745112980947,0.08311256842710281]",4.0,"[0.03201253424115769,0.1968817347588049]",100.0,"[-0.11477595379734638,-0.03250872685758579]",100.0,"[-0.03556109204058103,-0.13769041759958964]",100.0,"[-0.03229747763264046,0.08342666883648346]",4.0,"[-0.18428787017264617,0.022534925360567816]",100.0,"[0.02,0.02]",272.6763,0.0,47.0,47.0,73.0,1.0,,,,,,,
,,,,,,,683798782103c0dd7218d498,684428bc7996d2118ccc0ff4,2025-06-07_07h56.17.220,shape_ratio,2024.1.5,Win32,59.17159763,684250e4f00cb30b92d1fa88,,,,,,,,,,,272.6796,273.1757,,,273.4389,274.9411,,,,,,,,,,,0.5,,,,,,273.1758,273.4388,274.9412,"[-0.0054317523327135535,-0.17709651504985666]",4.0,"[-0.0683747137166127,0.17944240640071388]",100.0,"[-0.09107343000344686,0.033634477558385355]",100.0,"[0.14543466343070552,-0.010409892284366389]",100.0,"[-0.004651103566780335,-0.11336282746599728]",4.0,"[-0.08388872846407472,-0.07838269293785952]",100.0,"[-0.0002641507755169209,-0.02713167386675934]",4.0,"[0.09336630656025514,-0.13793967967857426]",100.0,"[0.011840204114794006,0.12602763231604772]",4.0,"[-0.102295365804057,-0.11450925630670516]",4.0,"[-0.16947177833482696,0.05424231448152098]",100.0,"[-0.02651514956357154,0.1463862182739311]",4.0,"[0.1680759819184641,0.03402170769540215]",100.0,"[0.13748928407751795,0.10246886168062573]",4.0,"[0.06063390271503776,0.13514748462884088]",100.0,"[-0.04560083938906428,0.007022167366009306]",4.0,"[0.05349185023908939,0.03176950333638841]",4.0,"[-0.13833763236018173,0.022411485182875605]",100.0,"[-0.14386661562039602,-0.07888674769341203]",4.0,"[-0.038394927820373834,-0.08316652724982614]",100.0,"[-0.03526950894430112,0.0592950414332411]",100.0,"[0.031139149534622344,-0.15282610584756978]",100.0,"[0.0421201144827852,0.0795372175424033]",4.0,"[-0.186125323693434,-0.05701401584236358]",4.0,"[-0.16261829280054188,-0.01211172233833335]",100.0,"[0.14360948375450303,-0.1279021915883036]",4.0,"[0.16885090132252892,-0.06369553769552742]",100.0,"[-0.07055359250271648,0.082110789981264]",4.0,"[-0.14185894904004365,0.12057054015735996]",4.0,"[0.0313019546018379,0.18638136378106504]",100.0,"[-0.05752997551027233,-0.1394707113824319]",100.0,"[0.1218242635419806,0.145263799711316]",4.0,"[0.02,0.02]",276.0391,0.0,48.0,48.0,109.0,1.0,,,,,,,
,,,,,,,683798782103c0dd7218d498,684428bc7996d2118ccc0ff4,2025-06-07_07h56.17.220,shape_ratio,2024.1.5,Win32,59.17159763,684250e4f00cb30b92d1fa88,,,,,,,,,,,276.0407,276.5405,,,276.7946,278.0875,left,1.2721,,,,,,,,,0.55,,,,,,276.5406,276.7946,278.088,"[0.05904296989812124,-0.08032125481473709]",4.0,"[-0.08646065058395042,0.11013653846644225]",4.0,"[0.1468431675442469,-0.017547508491852055]",100.0,"[0.19743272400500142,0.008581546007843766]",4.0,"[-0.17767034290665673,0.013849425108448473]",100.0,"[0.11931695657295124,-0.137542759026272]",4.0,"[-0.11886954456098027,-0.14023251571155007]",100.0,"[0.0483975935265458,0.11869695349057519]",4.0,"[-0.018548532312928308,-0.0507680642075912]",4.0,"[0.11648389528075709,0.05166363156468122]",4.0,"[0.0047537366241868105,-0.13862599488784086]",4.0,"[0.04404395943199854,-0.17265862706998744]",4.0,"[0.14411257734907143,0.11165732118895894]",100.0,"[-0.029463130293928972,-0.11511538474649163]",100.0,"[-0.07238660657171558,-0.028552971864081237]",4.0,"[-0.1743238733472708,-0.07090981419537284]",100.0,"[0.07304009665758138,0.08626482313947534]",100.0,"[-0.0354264913040519,0.08505895329396741]",100.0,"[-0.12883154927505727,-0.08196442241246203]",4.0,"[0.01779176093909371,0.16500649766449513]",100.0,"[-0.06486966298731948,-0.07814016212570263]",100.0,"[-0.0690790674215969,0.05635334109758706]",100.0,"[0.07218888384598737,0.007137024001596137]",100.0,"[-0.13813610896955733,-0.04044198994992909]",100.0,"[-0.021699066700870854,-0.0007324953218646361]",100.0,"[-0.11313072115101651,0.1502230670155783]",100.0,"[-0.1636152580641409,0.1137952492755327]",100.0,"[0.11378312803279027,0.1515827225605169]",4.0,"[-0.12117321492649674,0.06009021133204095]",100.0,"[-0.04177552125357392,-0.19082446923383595]",4.0,"[0.006898285863922759,0.06362610611982569]",4.0,"[-0.024689668061848986,0.14428525914572124]",100.0,"[0.02,0.02]",279.1859,0.0,49.0,49.0,80.0,1.0,,,,,,,
