right,left,explain.started,explain.stopped,key_resp_3.keys,key_resp_3.rt,key_resp_3.duration,participant,session,date,expName,psychopyVersion,OS,frameRate,study_id,explain_2.started,explain_2.stopped,key_resp_4.keys,key_resp_4.rt,key_resp_4.duration,explain_3.started,explain_3.stopped,key_resp_5.keys,key_resp_5.rt,key_resp_5.duration,fixation.started,fixation.stopped,practice.started,practice.stopped,response.started,response.stopped,key_resp.keys,feedback.started,feedback.stopped,trials_2.thisRepN,trials_2.thisTrialN,trials_2.thisN,trials_2.thisIndex,trials_2.ran,dot_ratio,explain_4.started,explain_4.stopped,key_resp_6.keys,key_resp_6.rt,key_resp_6.duration,dotDisplay.started,dotDisplay.stopped,ITI.started,polygon_1.pos,polygon_1.edges,polygon_2.pos,polygon_2.edges,polygon_3.pos,polygon_3.edges,polygon_4.pos,polygon_4.edges,polygon_5.pos,polygon_5.edges,polygon_6.pos,polygon_6.edges,polygon_7.pos,polygon_7.edges,polygon_8.pos,polygon_8.edges,polygon_9.pos,polygon_9.edges,polygon_10.pos,polygon_10.edges,polygon_11.pos,polygon_11.edges,polygon_12.pos,polygon_12.edges,polygon_13.pos,polygon_13.edges,polygon_14.pos,polygon_14.edges,polygon_15.pos,polygon_15.edges,polygon_16.pos,polygon_16.edges,polygon_17.pos,polygon_17.edges,polygon_18.pos,polygon_18.edges,polygon_19.pos,polygon_19.edges,polygon_20.pos,polygon_20.edges,polygon_21.pos,polygon_21.edges,polygon_22.pos,polygon_22.edges,polygon_23.pos,polygon_23.edges,polygon_24.pos,polygon_24.edges,polygon_25.pos,polygon_25.edges,polygon_26.pos,polygon_26.edges,polygon_27.pos,polygon_27.edges,polygon_28.pos,polygon_28.edges,polygon_29.pos,polygon_29.edges,polygon_30.pos,polygon_30.edges,polygon_31.pos,polygon_31.edges,polygon_32.pos,polygon_32.edges,dot_size,ITI.stopped,trials.thisRepN,trials.thisTrialN,trials.thisN,trials.thisIndex,trials.ran,key_resp.rt,key_resp.duration,break_2.started,break_2.stopped,trials_3.thisRepN,trials_3.thisTrialN,trials_3.thisN,trials_3.thisIndex,trials_3.ran
subject chose diamond,subject chose dot,0.0008,113.1315,space,98.1045,,68398283a2f2b6f05f300540,683aeeee751871b78dd2d16e,2025-05-31_07h59.10.347,shape_ratio,2024.1.5,Win32,60.97560976,683ae9196541af24d3a69e58,,,,,,,,,,,,,,,,,,,,,,,,,,,,,,,,,,,,,,,,,,,,,,,,,,,,,,,,,,,,,,,,,,,,,,,,,,,,,,,,,,,,,,,,,,,,,,,,,,,,,,,,,,,,,,,,,
,,,,,,,68398283a2f2b6f05f300540,683aeeee751871b78dd2d16e,2025-05-31_07h59.10.347,shape_ratio,2024.1.5,Win32,60.97560976,683ae9196541af24d3a69e58,113.1328,189.9346,space,46.7768,,,,,,,,,,,,,,,,,,,,,,,,,,,,,,,,,,,,,,,,,,,,,,,,,,,,,,,,,,,,,,,,,,,,,,,,,,,,,,,,,,,,,,,,,,,,,,,,,,,,,,,,,,,,,
,,,,,,,68398283a2f2b6f05f300540,683aeeee751871b78dd2d16e,2025-05-31_07h59.10.347,shape_ratio,2024.1.5,Win32,60.97560976,683ae9196541af24d3a69e58,,,,,,189.9356,199.4071,space,6.4556,,,,,,,,,,,,,,,,,,,,,,,,,,,,,,,,,,,,,,,,,,,,,,,,,,,,,,,,,,,,,,,,,,,,,,,,,,,,,,,,,,,,,,,,,,,,,,,,,,,,,,,,
,,,,,,,68398283a2f2b6f05f300540,683aeeee751871b78dd2d16e,2025-05-31_07h59.10.347,shape_ratio,2024.1.5,Win32,60.97560976,683ae9196541af24d3a69e58,,,,,,,,,,,199.5078,199.9221,199.9241,200.1775,200.1782,201.6729,,201.6732,202.7698,0.0,0.0,0.0,0.0,1.0,0.2,,,,,,,,,,,,,,,,,,,,,,,,,,,,,,,,,,,,,,,,,,,,,,,,,,,,,,,,,,,,,,,,,,,,,,,,,,,,,,,,,,,,,,,,
,,,,,,,68398283a2f2b6f05f300540,683aeeee751871b78dd2d16e,2025-05-31_07h59.10.347,shape_ratio,2024.1.5,Win32,60.97560976,683ae9196541af24d3a69e58,,,,,,,,,,,202.7727,203.2692,203.2696,203.5231,203.5232,205.0197,,205.0201,206.1197,0.0,1.0,1.0,1.0,1.0,0.8,,,,,,,,,,,,,,,,,,,,,,,,,,,,,,,,,,,,,,,,,,,,,,,,,,,,,,,,,,,,,,,,,,,,,,,,,,,,,,,,,,,,,,,,
,,,,,,,68398283a2f2b6f05f300540,683aeeee751871b78dd2d16e,2025-05-31_07h59.10.347,shape_ratio,2024.1.5,Win32,60.97560976,683ae9196541af24d3a69e58,,,,,,,,,,,,,,,,,,,,,,,,,,206.1217,217.6057,space,8.4607,,,,,,,,,,,,,,,,,,,,,,,,,,,,,,,,,,,,,,,,,,,,,,,,,,,,,,,,,,,,,,,,,,,,,,,,,,,,,,,,,,,,
,,,,,,,68398283a2f2b6f05f300540,683aeeee751871b78dd2d16e,2025-05-31_07h59.10.347,shape_ratio,2024.1.5,Win32,60.97560976,683ae9196541af24d3a69e58,,,,,,,,,,,217.6567,218.1207,,,218.3601,219.852,,,,,,,,,0.4,,,,,,218.1227,218.3599,219.8551,"[-0.08821523166860609,0.1295804276650543]",100.0,"[0.14752988301626369,-0.005641310725486792]",100.0,"[0.1847736517958775,0.03650479770408059]",100.0,"[-0.16199408413084992,0.07408804182043272]",100.0,"[0.10244650232543989,0.11931812039850014]",100.0,"[-0.10398982259862272,-0.15806278235042773]",4.0,"[0.07301434303377248,-0.02568098633707098]",4.0,"[-0.07622841729643685,0.001195493258004861]",4.0,"[0.0918607861150053,0.04407640984700426]",100.0,"[0.00984082328082383,0.031424996829186994]",4.0,"[0.07545824678171353,-0.16030282741463722]",4.0,"[-0.0035190778157327403,-0.17890057482841046]",4.0,"[-0.04646511760743079,-0.13367336698359214]",4.0,"[0.13744717949988247,0.042066010572397075]",4.0,"[-0.1655991463941556,0.027989502260870047]",4.0,"[0.006661237536817732,-0.060466733511315866]",4.0,"[0.05907299304760217,0.1801707020839214]",4.0,"[0.131058506707007,0.09074718941896068]",100.0,"[0.018393980219661533,0.11403600887280733]",4.0,"[-0.04923736205754227,-0.06592929395926476]",4.0,"[0.04586899088144532,-0.13171568680294127]",4.0,"[-0.13425281788636031,-0.10086873547500082]",100.0,"[-0.19217877765433775,-0.03963616774576587]",4.0,"[0.18387530149624254,-0.06170222497916709]",100.0,"[0.060325503574306195,0.09192618216968733]",4.0,"[-0.04750435149077952,0.052265511002489884]",4.0,"[-0.022144660019210078,0.17064026892768483]",100.0,"[-0.10397301385173727,0.072635180653228]",100.0,"[-0.021880399025129296,-0.01761509455450268]",100.0,"[0.04366620239469854,-0.1943643863642207]",4.0,"[-0.12702584484716997,0.11985132000975575]",4.0,"[-0.13789505318170717,-0.008544661410521267]",100.0,"[0.02,0.02]",220.9521,0.0,0.0,0.0,166.0,1.0,,,,,,,,,
,,,,,,,68398283a2f2b6f05f300540,683aeeee751871b78dd2d16e,2025-05-31_07h59.10.347,shape_ratio,2024.1.5,Win32,60.97560976,683ae9196541af24d3a69e58,,,,,,,,,,,220.9541,221.4504,,,221.7036,222.6865,right,,,,,,,,0.6,,,,,,221.4509,221.7033,222.6869,"[-0.03947599146887782,-0.12017551788902038]",100.0,"[0.05721651115108651,-0.10352865547632446]",100.0,"[0.17336088465238075,0.05676476918314231]",100.0,"[0.13276444990722133,0.12756622499221712]",100.0,"[-0.028808761331167453,0.17695010711362938]",100.0,"[0.06723068028914003,-0.022128078385717065]",4.0,"[0.03772364041145327,-0.1727034703031664]",100.0,"[-0.00793845504989011,0.12747300826550576]",100.0,"[0.01487211747846216,-0.08570489987339044]",4.0,"[-0.17635828338327245,-0.0005560551370769446]",4.0,"[-0.09324475223349586,-0.1313416750295263]",100.0,"[0.15587662300020583,-0.07891146361460095]",100.0,"[-0.1460231962199488,-0.03568096433664753]",100.0,"[-0.08598768294738203,-0.007446998326324478]",100.0,"[0.1397048559680606,0.00023544473920401738]",4.0,"[0.003939262180433719,0.06535553199756076]",4.0,"[-0.13170266500393274,0.03269984186299843]",100.0,"[0.03075424304290505,0.16569795482920677]",100.0,"[0.0963583337827237,0.10522712652863264]",4.0,"[-0.12123681690118916,0.10918656057595023]",4.0,"[0.09869333460130521,0.1595978412009005]",100.0,"[-0.02866765956024079,-0.02786426337608809]",100.0,"[0.06520867256528787,0.0735448285893642]",4.0,"[-0.04704662132948062,0.07998785471917542]",100.0,"[-0.1066094697167775,-0.05740233908057474]",4.0,"[-0.15934957433428426,-0.10160189111073399]",100.0,"[-0.0067061988161157765,0.01561005427488699]",4.0,"[0.041033908279192344,0.03491175996369061]",4.0,"[-0.18388213501916698,0.06410158537363043]",100.0,"[-0.08116624097528378,-0.17908963249549661]",100.0,"[0.08903986385437598,0.01502699439461902]",4.0,"[-0.08907450098686036,0.03886690322298142]",4.0,"[0.02,0.02]",223.7822,0.0,1.0,1.0,48.0,1.0,0.9723,,,,,,,,
,,,,,,,68398283a2f2b6f05f300540,683aeeee751871b78dd2d16e,2025-05-31_07h59.10.347,shape_ratio,2024.1.5,Win32,60.97560976,683ae9196541af24d3a69e58,,,,,,,,,,,223.7844,224.283,,,224.5319,224.9645,left,,,,,,,,0.55,,,,,,224.2831,224.5317,224.9652,"[0.06915739677651128,0.10868402361917136]",100.0,"[0.18689778515545083,0.026264240292816283]",4.0,"[-0.10289289630171944,-0.12854640521897948]",100.0,"[0.03611759705896741,0.040564838783462315]",4.0,"[-0.05066979734966975,0.11493162727523934]",100.0,"[-0.045193436566444395,-0.12703922400030512]",100.0,"[0.09545678913456081,0.15322421977256007]",4.0,"[-0.061216345713041985,-0.0807123850730475]",100.0,"[0.1771095620705244,0.07642770610385768]",100.0,"[0.09347030335975547,0.060872024383835675]",100.0,"[-0.05001630321871634,-0.1807279337616257]",100.0,"[0.08038524682854785,-0.1119786023270276]",100.0,"[-0.009438392957772577,0.17006567780412662]",4.0,"[-0.07392484706681154,0.0024128951386341506]",100.0,"[-0.09615593708325765,0.06714858886141364]",100.0,"[-0.08985074125113529,0.13787004113639006]",100.0,"[0.1308287931647887,-0.14194685570631316]",100.0,"[-0.04417702763422653,0.19276321655794518]",100.0,"[-0.1580864744980484,-0.06076822619262497]",100.0,"[-0.1420160585127531,0.112402460170136]",4.0,"[-0.00005750438746291737,0.07208615293144054]",4.0,"[0.11252216698973853,-0.07271909623873497]",100.0,"[0.14859201852751577,0.11245582687261994]",4.0,"[0.07170881903468063,-0.17960593206181977]",4.0,"[0.14198151469422854,-0.006602181706535989]",4.0,"[-0.19555534786162881,0.02062290033381347]",100.0,"[-0.021220106242372267,-0.004390348534166166]",4.0,"[0.05050383172120113,-0.048915097957463134]",4.0,"[0.08956595817238883,-0.013441455540200018]",100.0,"[0.16396126117672616,-0.059012507882391395]",4.0,"[-0.14701916207169627,-0.10744076418199462]",4.0,"[-0.00009578931231617317,-0.13131580741863408]",4.0,"[0.02,0.02]",226.0626,0.0,2.0,2.0,89.0,1.0,0.418,,,,,,,,
,,,,,,,68398283a2f2b6f05f300540,683aeeee751871b78dd2d16e,2025-05-31_07h59.10.347,shape_ratio,2024.1.5,Win32,60.97560976,683ae9196541af24d3a69e58,,,,,,,,,,,226.0645,226.5623,,,226.8138,227.1783,right,,,,,,,,0.5,,,,,,226.5623,226.8136,227.1786,"[0.14062094962670996,-0.007757424938441668]",4.0,"[-0.1673146958368071,0.00266314773397682]",4.0,"[0.08766375120209653,0.09800753024160742]",100.0,"[0.03522112557784529,-0.04166794068807518]",100.0,"[0.13979151412913413,-0.13639233669974082]",4.0,"[-0.026417763298075093,-0.017237671176750867]",100.0,"[-0.09180685755442718,-0.05979978256560143]",100.0,"[-0.056032680245023794,0.1562434649806779]",4.0,"[-0.017067787566852767,0.04030524031933603]",100.0,"[-0.06238931152281474,-0.09825788103048624]",100.0,"[0.10782457046911172,-0.03532365447458105]",4.0,"[-0.04916585605788941,0.09978032488722878]",100.0,"[0.029299146902343295,0.07340859750134544]",4.0,"[0.14648181545501981,0.11118645231962428]",4.0,"[-0.1739073989259095,0.058443637369705315]",4.0,"[0.008293518303884652,0.19606538974027785]",100.0,"[0.0412945726400922,0.1620668447033907]",100.0,"[0.024336386913891943,-0.1300981758587581]",100.0,"[-0.01830811105981885,-0.1701330392801211]",4.0,"[-0.13542597919992927,-0.11796618262202177]",4.0,"[0.13964181814276283,0.061713219341169134]",100.0,"[-0.09830354158007511,-0.14853514030899015]",100.0,"[0.1090105022916089,0.14889048904101268]",4.0,"[-0.1285034167280847,0.05323204918773921]",100.0,"[-0.06777333802429321,-0.17934348368206388]",4.0,"[0.08739856813446108,0.02104609112927824]",100.0,"[-0.15756650863192395,-0.03746406439252963]",100.0,"[-0.07252411175369262,0.06071187035927486]",4.0,"[-0.09981316962950404,0.10203259646648775]",100.0,"[0.07287974032145524,-0.1413575297129938]",4.0,"[0.001594865895774687,0.10279573960069943]",4.0,"[-0.11647455523810277,0.007761772915503348]",4.0,"[0.02,0.02]",228.2768,0.0,3.0,3.0,103.0,1.0,0.3523,,,,,,,,
,,,,,,,68398283a2f2b6f05f300540,683aeeee751871b78dd2d16e,2025-05-31_07h59.10.347,shape_ratio,2024.1.5,Win32,60.97560976,683ae9196541af24d3a69e58,,,,,,,,,,,228.2786,228.7764,,,229.0279,229.1351,left,,,,,,,,0.45,,,,,,228.7768,229.0279,229.1353,"[0.03640514518593061,0.01901087084297876]",4.0,"[0.11081049718962203,-0.08600856333516038]",4.0,"[-0.151764902850146,-0.08226238784303593]",4.0,"[-0.15453371896802498,0.01272591578987948]",4.0,"[0.12122322654440744,0.13074954759461574]",4.0,"[0.18732326663689866,0.033001771950622115]",100.0,"[-0.08418962525667532,-0.09951873004261823]",100.0,"[0.040706457414320635,-0.16895968772440845]",4.0,"[-0.11379663058618834,-0.06624684157945002]",4.0,"[0.027906711092912713,-0.048071330237401365]",4.0,"[0.11194883886637118,-0.023239235651720036]",100.0,"[0.010959023997028278,-0.10919204825329992]",100.0,"[-0.035246528926847896,-0.022651290528149667]",4.0,"[0.014659046815755044,0.10517175605692522]",4.0,"[-0.05521119808259567,0.1657319612250043]",4.0,"[0.05590378250398691,-0.12198170900889593]",4.0,"[0.1621036049024196,-0.07418976431764555]",4.0,"[0.08877904890456803,-0.16254968641879894]",100.0,"[-0.048053464412103765,-0.12039240556230806]",100.0,"[0.06855215259699424,0.1619741406891414]",100.0,"[-0.10508124701049809,-0.014705923416313165]",4.0,"[-0.013957178720338706,0.04229306890963722]",100.0,"[-0.16894673334278734,0.09589346535625401]",4.0,"[0.006920819945058668,0.1693423899050421]",100.0,"[-0.13634891009967265,0.06689254632082954]",100.0,"[-0.0912941490307294,0.11089157093514379]",100.0,"[0.1322442233811899,-0.14077768344797384]",100.0,"[0.12874535400432996,0.031238593047640286]",100.0,"[-0.06484318568410567,-0.1621371326749625]",4.0,"[0.08484498568122163,0.035348889582474154]",100.0,"[0.07847799119222162,-0.05727390000112044]",4.0,"[-0.025549203364651683,0.08466148729165895]",4.0,"[0.02,0.02]",230.2287,0.0,4.0,4.0,129.0,1.0,0.0863,,,,,,,,
,,,,,,,68398283a2f2b6f05f300540,683aeeee751871b78dd2d16e,2025-05-31_07h59.10.347,shape_ratio,2024.1.5,Win32,60.97560976,683ae9196541af24d3a69e58,,,,,,,,,,,230.2294,230.725,,,230.9761,231.1252,right,,,,,,,,0.1,,,,,,230.7254,230.976,231.1256,"[-0.02652243939871612,-0.13860573821995764]",4.0,"[-0.08130068354691511,0.14145074906178198]",4.0,"[0.015327272181953544,0.14621273735946824]",4.0,"[0.08044137979438734,0.00655595846593874]",4.0,"[0.009124357924783002,-0.07788866364019816]",4.0,"[0.05931297644865623,0.04730150542299825]",4.0,"[0.1496638595652461,0.06360155286397749]",4.0,"[-0.027174179493878296,0.044168991241302975]",4.0,"[-0.17421090015131466,-0.02130832808983443]",4.0,"[-0.08715343799945477,-0.1720727563789101]",4.0,"[0.09356375672059261,0.13748872992442612]",4.0,"[0.12577617427912186,-0.1335788299787801]",100.0,"[-0.07578263677408013,0.0672466104684529]",4.0,"[0.15228817880094503,-0.06109265960745006]",4.0,"[0.019187383655686233,-0.17904879602080798]",4.0,"[-0.10346818007373712,-0.0796640685666774]",4.0,"[0.1445795287539067,0.005404019114769042]",100.0,"[0.0015933419323531357,-0.03298122786974139]",4.0,"[-0.034868757947786704,-0.003679750944429149]",4.0,"[0.061426211173899785,-0.16344722925772753]",4.0,"[0.18561182922146427,-0.038615145319735325]",4.0,"[0.10197878482201593,-0.06662582538829544]",4.0,"[0.07215777749638103,0.09775679106812753]",4.0,"[-0.009267011093109283,0.1863677851259708]",4.0,"[-0.12339531001261232,0.09626981067570846]",4.0,"[-0.11518431380561545,-0.03955194516791725]",100.0,"[-0.1502174480209024,0.022028540866869728]",4.0,"[-0.16049512761367957,0.11786050832539437]",4.0,"[0.007963524370700213,0.06709748657295514]",4.0,"[-0.17545705407928652,-0.08283426580651848]",4.0,"[0.02181961480738721,0.019490591463305222]",4.0,"[0.03448870418068898,-0.11588566646191993]",4.0,"[0.02,0.02]",232.223,0.0,5.0,5.0,192.0,1.0,0.1352,,,,,,,,
,,,,,,,68398283a2f2b6f05f300540,683aeeee751871b78dd2d16e,2025-05-31_07h59.10.347,shape_ratio,2024.1.5,Win32,60.97560976,683ae9196541af24d3a69e58,,,,,,,,,,,232.2249,232.7236,,,232.9778,234.4718,,,,,,,,,0.5,,,,,,232.7237,232.9777,234.4719,"[-0.08695018547573016,-0.07017545945678573]",4.0,"[-0.026874234262755564,0.0577164281667572]",4.0,"[0.05846971066543617,-0.1613291464594824]",100.0,"[0.01573075128440666,0.17826335082180944]",100.0,"[-0.031240232144397105,0.1318096915823211]",4.0,"[0.024742088099494394,0.0175382956096321]",4.0,"[0.17529083569550807,0.02728812198548114]",4.0,"[0.05771798395361768,0.15168013623735446]",100.0,"[-0.13429284787032703,-0.07479757375360349]",100.0,"[0.0701154071906818,0.04002831421858018]",4.0,"[0.050646525886249655,0.09197959567790685]",100.0,"[0.06844677314850584,-0.11942140803986029]",4.0,"[0.06855689744904608,-0.0591660707926288]",100.0,"[-0.005952647162982161,-0.1363264960925502]",4.0,"[0.012114725002458722,0.1090391908492005]",100.0,"[-0.04178417120320298,0.19125794828455106]",100.0,"[-0.053184266473634244,-0.11374774559128173]",4.0,"[0.010122143147380748,-0.07222305133015501]",100.0,"[-0.0978740690418503,0.09677145073142529]",100.0,"[-0.04744911418654887,-0.16801438446096426]",100.0,"[-0.1798062545508681,0.04616231745291157]",4.0,"[-0.11939092826342786,-0.14299956550509418]",4.0,"[-0.1480039679781194,-0.017557603426916753]",100.0,"[0.11544189345645642,0.06097703681010034]",100.0,"[0.15315347369936796,0.11333191230304034]",100.0,"[-0.1095299619007284,0.16261324363610558]",4.0,"[-0.18740075118377728,-0.05594985946740607]",4.0,"[0.11138874634410047,-0.16369373016692854]",4.0,"[0.13034921310807182,-0.12123509730527696]",100.0,"[-0.15464670327556126,0.1217481023476769]",4.0,"[0.18056043969667274,-0.07574889735458411]",100.0,"[-0.12424999556713177,0.036124291046739566]",4.0,"[0.02,0.02]",235.5706,0.0,6.0,6.0,109.0,1.0,,,,,,,,,
,,,,,,,68398283a2f2b6f05f300540,683aeeee751871b78dd2d16e,2025-05-31_07h59.10.347,shape_ratio,2024.1.5,Win32,60.97560976,683ae9196541af24d3a69e58,,,,,,,,,,,235.5726,236.0692,,,236.3209,237.0022,right,,,,,,,,0.1,,,,,,236.0694,236.3208,237.0024,"[0.1371124822581377,-0.09015846831689554]",100.0,"[-0.10322395492465536,-0.03302181029716284]",4.0,"[0.05097157388484323,0.02075022836438872]",4.0,"[-0.15564157472634527,0.03122600113911419]",4.0,"[0.12863685103664302,0.1158354177518676]",4.0,"[-0.09556111619051966,-0.17368754283905286]",4.0,"[0.10197517534407326,-0.05173864212715655]",4.0,"[0.026899695421357374,-0.012078453813053532]",4.0,"[-0.1969139649677545,-0.011105841316612021]",4.0,"[0.061453607385295525,-0.13475326568260845]",4.0,"[0.08449934427616085,-0.01023668913892195]",100.0,"[0.003006205596019647,-0.18261740614954522]",4.0,"[-0.06413899896338618,-0.07729903664365778]",4.0,"[-0.016715079337547605,0.13892250257328853]",4.0,"[0.074453866959612,0.11137102562114772]",4.0,"[0.04615433257866625,-0.06333843245500317]",4.0,"[-0.17359288225494726,0.06818834691306049]",4.0,"[0.1409491699487999,0.048204502308933875]",4.0,"[-0.0692442998813504,0.128433798287716]",4.0,"[-0.13426723421172299,-0.14626008217942388]",4.0,"[0.1797176679188987,0.03208204461512562]",4.0,"[-0.06125681300651988,0.017249958455104696]",4.0,"[-0.07170683776717304,-0.13907302267448438]",4.0,"[0.09472432314641442,0.037513566266755255]",4.0,"[-0.09022832709965736,0.062277316873895414]",4.0,"[-0.13828160140945284,0.10776200416199266]",4.0,"[-0.01879714753119672,-0.06350119523479784]",100.0,"[-0.10880032110786515,-0.09802959344350054]",4.0,"[0.036954930877414194,0.1874273907084509]",4.0,"[0.14648389839994538,-0.02739647503144784]",4.0,"[-0.012397505512050891,0.06918461313731235]",4.0,"[-0.0278506249551947,-0.014963894638267649]",4.0,"[0.02,0.02]",238.1009,0.0,7.0,7.0,208.0,1.0,0.6719,,,,,,,,
,,,,,,,68398283a2f2b6f05f300540,683aeeee751871b78dd2d16e,2025-05-31_07h59.10.347,shape_ratio,2024.1.5,Win32,60.97560976,683ae9196541af24d3a69e58,,,,,,,,,,,238.1026,238.6001,,,238.8519,238.8834,right,,,,,,,,0.5,,,,,,238.6001,238.8518,238.8837,"[-0.06137120237557446,-0.05933055372459204]",100.0,"[0.009775611974818443,-0.09058191240018697]",100.0,"[-0.0033396581372043942,0.11851787242258892]",100.0,"[-0.1551253953436161,0.03197780534224996]",100.0,"[0.1653287701430314,0.0869684743725609]",4.0,"[-0.15003835389484615,-0.04958779162964797]",100.0,"[0.03189350903777927,0.07801749816245569]",4.0,"[0.0730617430463931,0.02154251782048023]",4.0,"[0.1716448695259473,-0.006371454420154373]",4.0,"[0.04367895978034582,-0.11617203026717811]",4.0,"[-0.08977116823394718,0.06671572004922108]",4.0,"[0.061880298965096,0.18654030052771678]",4.0,"[0.04891534947933765,0.1424859802821509]",4.0,"[-0.023400645406139578,-0.18294420616598234]",100.0,"[0.1145904918610632,-0.08147500449760095]",4.0,"[0.0953146145641096,-0.023850728006460577]",4.0,"[-0.0025467569548629065,-0.03349707371805746]",4.0,"[0.06190293483818512,-0.06913388800268423]",4.0,"[-0.06526948603897784,-0.15485170381253663]",100.0,"[-0.03786895867050163,0.1958474627676559]",100.0,"[-0.008884832152373236,0.025705378278314605]",100.0,"[-0.045105204304091505,-0.0073066056227232565]",100.0,"[-0.19224968557778405,-0.003574711358505427]",100.0,"[0.1321617926148494,0.06192669718725928]",4.0,"[-0.09788435331876633,-0.00845676505206926]",100.0,"[0.08020000307711829,0.07487842536764343]",100.0,"[-0.15297071505779422,0.11093811715575377]",100.0,"[0.11064262674987103,0.10635167260568058]",100.0,"[0.11143577356921162,-0.13592205235558935]",4.0,"[0.17392874543605885,-0.049033466011767085]",100.0,"[-0.11246816427585875,-0.08099908328984802]",4.0,"[0.1828564050244383,0.035336902928011615]",4.0,"[0.02,0.02]",239.9829,0.0,8.0,8.0,93.0,1.0,0.0188,,,,,,,,
,,,,,,,68398283a2f2b6f05f300540,683aeeee751871b78dd2d16e,2025-05-31_07h59.10.347,shape_ratio,2024.1.5,Win32,60.97560976,683ae9196541af24d3a69e58,,,,,,,,,,,239.9842,240.4816,,,240.7325,240.8982,right,,,,,,,,0.45,,,,,,240.4818,240.7324,240.8988,"[0.023488823269619034,0.05253002009525068]",100.0,"[-0.08140204614706908,-0.033380704351411446]",100.0,"[0.03927610523722924,-0.07056183806231302]",4.0,"[-0.05984545637918243,0.09987141352521066]",4.0,"[-0.029290191745601383,-0.0658567151487444]",4.0,"[0.0624825406909432,0.025560597244720894]",100.0,"[-0.06356963769204889,-0.1543059261302218]",4.0,"[0.11558033455171135,-0.14008055554408022]",100.0,"[-0.0338955249232144,0.15619201338227615]",4.0,"[-0.037998889292804754,0.0366391186625608]",4.0,"[-0.1515711267610006,0.006328646878983818]",4.0,"[0.047831623739671654,0.16153988651189355]",100.0,"[0.07860733726334508,0.06654475375076156]",100.0,"[0.18463368994204665,0.03178816546234996]",4.0,"[-0.19752043096609379,0.020244615945388348]",4.0,"[0.11745329856757375,0.15635184959400142]",100.0,"[-0.13061811670888573,0.07890796797832218]",100.0,"[-0.006190499196855093,0.008646208460804931]",100.0,"[0.08374827739024272,-0.11150242755284298]",4.0,"[-0.0865073148443376,0.06892411178507897]",4.0,"[0.07847417437696726,-0.014552205590983322]",4.0,"[-0.08196549933855303,0.17121482315237138]",100.0,"[0.18251780631834025,-0.013283482412520222]",4.0,"[-0.019547436760557136,-0.161870169862831]",4.0,"[-0.06936050184145623,-0.07746682607735557]",4.0,"[0.008453451067622708,-0.10682550505528723]",4.0,"[0.008545890010772442,0.09023201804822696]",100.0,"[-0.13399267646839202,0.13906216836666657]",4.0,"[0.17687039328708662,-0.07665928737552022]",4.0,"[0.1278774955925217,0.051063126421980784]",100.0,"[-0.1545142007118565,-0.0615986191283349]",100.0,"[-0.18379068476567614,0.07204485921555584]",100.0,"[0.02,0.02]",241.9969,0.0,9.0,9.0,141.0,1.0,0.1538,,,,,,,,
,,,,,,,68398283a2f2b6f05f300540,683aeeee751871b78dd2d16e,2025-05-31_07h59.10.347,shape_ratio,2024.1.5,Win32,60.97560976,683ae9196541af24d3a69e58,,,,,,,,,,,241.9986,242.4969,,,242.7516,243.4023,right,,,,,,,,0.1,,,,,,242.497,242.7515,243.4025,"[-0.06668462271736626,-0.14322191553478708]",4.0,"[0.16639947412377806,-0.02270475658299352]",4.0,"[0.10625082570001954,0.016140665444580968]",4.0,"[-0.1365427254746347,-0.05346791453695956]",4.0,"[-0.13675573655930243,0.010011135561286046]",4.0,"[0.1330323192782227,-0.0931490645672558]",4.0,"[-0.04542980260469784,-0.0619514863833144]",4.0,"[-0.03090758032202721,0.021327342119390462]",4.0,"[-0.004429389010423402,-0.1302136423786092]",4.0,"[-0.08877241152335573,0.10881221241805877]",4.0,"[-0.10710160104057677,-0.13395075635583223]",4.0,"[-0.026700185279926035,0.09016956942815145]",100.0,"[-0.18739324498035648,-0.012099278094017774]",4.0,"[0.0521177660430992,0.1186736755396929]",4.0,"[0.10242346536926829,0.07469518456690227]",4.0,"[-0.03723367344872094,0.1578747151868249]",4.0,"[0.06212831848357788,0.07263771702276264]",4.0,"[-0.02386960030111486,-0.18400346071109963]",4.0,"[0.09118469748689613,-0.028772576739466385]",100.0,"[-0.09390198667027744,-0.007179543569708178]",4.0,"[0.17940770418839888,0.03150760682858475]",4.0,"[-0.05846819069328014,0.06274892541479224]",4.0,"[-0.009922728137176472,0.18916050817697477]",4.0,"[0.11539744448551695,-0.1511680088403776]",4.0,"[0.030289861940586037,0.18088127394752437]",4.0,"[-0.16614565029254172,-0.100766810076127]",4.0,"[0.16725255076707882,-0.06827332586238825]",4.0,"[0.07344607011570188,-0.10039129754386038]",4.0,"[-0.1350966430014643,0.05541797792571773]",4.0,"[0.07460851743099357,0.15531499058861684]",4.0,"[0.13626502907985605,0.04968105721715157]",4.0,"[-0.17784267990001223,0.05191286465610032]",100.0,"[0.02,0.02]",244.4943,0.0,10.0,10.0,189.0,1.0,0.6349,,,,,,,,
,,,,,,,68398283a2f2b6f05f300540,683aeeee751871b78dd2d16e,2025-05-31_07h59.10.347,shape_ratio,2024.1.5,Win32,60.97560976,683ae9196541af24d3a69e58,,,,,,,,,,,244.4962,244.9983,,,245.2458,245.3612,right,,,,,,,,0.4,,,,,,244.9985,245.2458,245.3615,"[-0.06535235856033307,-0.09286125312443455]",4.0,"[-0.1287810104607712,0.023522860528628294]",100.0,"[0.035451809069039136,0.04716839825670922]",100.0,"[-0.060217874488801344,-0.0028273781073693193]",4.0,"[0.17037795896799243,0.08793237890862102]",100.0,"[0.17712024565800286,-0.0003433200866528994]",100.0,"[-0.12488454315622126,0.12883088545903013]",4.0,"[0.032459685086207495,-0.1404514108726852]",4.0,"[0.05688440477810288,0.12572956332860039]",4.0,"[-0.10969163223081085,-0.041795589728829165]",4.0,"[-0.18011582564724377,-0.05012176363494843]",4.0,"[-0.025217473322886444,0.04986515873854526]",4.0,"[0.028819123015260704,-0.18268102305013037]",4.0,"[0.15531444000097672,-0.061339980439029204]",100.0,"[0.021951995236260773,0.1616631045319466]",100.0,"[0.006097640459992254,-0.05276136119782929]",4.0,"[0.10517280737232546,0.09722690098467641]",4.0,"[0.11116641432572637,-0.14732742068309934]",4.0,"[-0.03445018875879835,-0.04143703379752391]",100.0,"[-0.14709418093059298,-0.09142965936152882]",100.0,"[-0.13947437501926596,-0.13577146065282705]",100.0,"[0.004608903720870498,-0.09533397425058203]",4.0,"[-0.021615926750871692,-0.16737134524618516]",4.0,"[0.08103390724736051,-0.09821368704062161]",4.0,"[-0.12409828999836216,0.07050960265050826]",4.0,"[-0.02830235703744996,0.10636567372622743]",4.0,"[0.07259140649247735,-0.031153386716437016]",100.0,"[0.03251571152863451,-0.009747518108476726]",100.0,"[-0.0723399801139904,0.1795213211432542]",4.0,"[-0.05716383127079429,0.07726609283433739]",100.0,"[0.11418963131418992,0.020373086982639968]",4.0,"[0.11637040368883794,0.15507785801625287]",100.0,"[0.02,0.02]",246.4606,0.0,11.0,11.0,154.0,1.0,0.1048,,,,,,,,
,,,,,,,68398283a2f2b6f05f300540,683aeeee751871b78dd2d16e,2025-05-31_07h59.10.347,shape_ratio,2024.1.5,Win32,60.97560976,683ae9196541af24d3a69e58,,,,,,,,,,,246.4621,246.9593,,,247.21,247.3078,left,,,,,,,,0.55,,,,,,246.9597,247.21,247.3084,"[0.1602539872144029,0.07278244859302628]",4.0,"[-0.107759122641345,-0.012721343757488162]",4.0,"[0.15616053544606195,-0.05479533213036301]",100.0,"[0.16822746306931527,-0.013880460384262267]",4.0,"[0.05448538578153766,0.1316481996884755]",100.0,"[-0.01218980608822362,0.11200850483584097]",100.0,"[-0.05749047947366986,-0.16515982032127247]",100.0,"[0.09097945003630384,0.1669052348533169]",4.0,"[-0.11328676977833745,0.16130855610782543]",100.0,"[0.08407227818670368,-0.02849437439470874]",4.0,"[0.05376596379640348,0.007708213073779931]",100.0,"[-0.14795886317829243,-0.08934676645863561]",100.0,"[-0.15116018875687473,-0.0028242771606789134]",100.0,"[0.09460912820582852,0.03789226794923408]",100.0,"[-0.10301563355446182,0.07281336719532391]",4.0,"[0.08203438639148157,-0.15919187747609312]",100.0,"[-0.05227953482309859,0.15566525178821705]",100.0,"[0.06469648525490726,-0.06953421666255451]",4.0,"[0.13357456496981107,-0.09479505371165074]",4.0,"[-0.014805256365814973,0.19098843370566634]",100.0,"[-0.01956712849875024,-0.07231530547910447]",4.0,"[-0.06135227605764147,-0.12207561094133854]",100.0,"[-0.1649418147567988,0.09973756104915714]",100.0,"[0.1326980857519058,0.13866424390310472]",100.0,"[-0.03848647982374404,-0.03511859755251825]",4.0,"[0.004554631235663374,0.04434770139537539]",4.0,"[0.1392241239763429,0.019984100990442056]",100.0,"[-0.14635976130798012,0.0552416488912502]",4.0,"[-0.10036314690086769,-0.06588511474179984]",100.0,"[0.010019303841765586,-0.1676528378443504]",4.0,"[-0.05445377189936858,0.058231011213098]",4.0,"[0.0494418943602234,0.07375700445127091]",100.0,"[0.02,0.02]",248.4074,0.0,12.0,12.0,69.0,1.0,0.0865,,,,,,,,
,,,,,,,68398283a2f2b6f05f300540,683aeeee751871b78dd2d16e,2025-05-31_07h59.10.347,shape_ratio,2024.1.5,Win32,60.97560976,683ae9196541af24d3a69e58,,,,,,,,,,,248.4091,248.9063,,,249.1616,250.2227,left,,,,,,,,0.9,,,,,,248.9065,249.1615,250.2229,"[0.05873321286821312,0.08556102460675867]",100.0,"[-0.06665687723102849,-0.10074844187717988]",100.0,"[-0.03753669551474257,-0.06702383153223399]",100.0,"[-0.028418007721508345,0.006351816852249738]",100.0,"[0.0700610193694111,-0.02844669254390003]",100.0,"[0.022816853678461414,-0.006651480311907023]",100.0,"[0.16387774492983265,-0.10368229836838128]",100.0,"[0.18986095575494547,0.055938059004503035]",100.0,"[-0.13430099466703593,-0.11947525763645521]",100.0,"[-0.01856616921644777,0.11589936006580964]",4.0,"[-0.007932040754142021,0.04128598432426856]",100.0,"[0.04191778446316267,-0.10932761847222068]",100.0,"[-0.003644428610995541,-0.16261515981913383]",100.0,"[0.024876101462153934,0.12447623946518344]",100.0,"[-0.1544114188261184,0.07873538229129985]",100.0,"[-0.17587402238910413,-0.09235504022384637]",100.0,"[0.0687746152135106,-0.17529746559278203]",100.0,"[-0.07722529047273222,-0.004691377330806236]",100.0,"[-0.11940434742568387,0.11899715519314501]",100.0,"[0.14474584407398494,0.04459196299947192]",100.0,"[-0.06950292442633695,-0.1553513136989434]",100.0,"[-0.14289931281634954,-0.033529096182824424]",100.0,"[0.00592287759822763,-0.06267276668799905]",100.0,"[0.14308183045298453,0.10919015762955166]",100.0,"[0.12227371036564595,0.15581759466916206]",100.0,"[-0.10749835828862407,0.03955085896906272]",100.0,"[0.10650042210606563,0.007631209820091934]",100.0,"[0.1906972223008078,-0.034989250974452456]",100.0,"[-0.069023417799559,0.06807350361512536]",4.0,"[0.15607640458161076,0.00016368779646141617]",100.0,"[-0.00677517060328811,0.17559126124531704]",4.0,"[-0.19486794285157,0.023081237020809445]",100.0,"[0.02,0.02]",251.3212,0.0,13.0,13.0,5.0,1.0,1.0393,,,,,,,,
,,,,,,,68398283a2f2b6f05f300540,683aeeee751871b78dd2d16e,2025-05-31_07h59.10.347,shape_ratio,2024.1.5,Win32,60.97560976,683ae9196541af24d3a69e58,,,,,,,,,,,251.3229,251.823,,,252.0769,252.6534,right,,,,,,,,0.6,,,,,,251.8231,252.0767,252.6537,"[0.055055144123276605,0.05921043705877061]",100.0,"[-0.10426238595420077,-0.0013944429526639198]",100.0,"[0.007674456841168274,0.04073577775138554]",4.0,"[-0.0880804410666964,0.1296611115713262]",4.0,"[-0.13553741537901332,-0.041782387011059144]",100.0,"[-0.005488287168361186,-0.08392525622236659]",4.0,"[-0.05752482855479428,-0.053861973257000845]",100.0,"[0.008178437731405412,-0.15409345432464194]",100.0,"[0.03446243686089519,0.1654782154114817]",4.0,"[0.1029015859799097,0.0437273155789622]",4.0,"[0.15467445953463238,-0.015161410791515919]",100.0,"[-0.12005144144725906,-0.08907722590726494]",100.0,"[0.09127818565597087,-0.0632882019224808]",100.0,"[-0.04431212442533459,0.12852543069314185]",100.0,"[0.014758414157710283,0.09282342861193656]",4.0,"[0.09193768655299003,-0.019927179490919045]",100.0,"[0.13070721159851414,0.07894927109267934]",4.0,"[-0.07216772355739233,0.036019752863657335]",100.0,"[-0.030233883096188234,0.013411865905514351]",4.0,"[-0.030114153496947467,0.17649197933466435]",4.0,"[-0.19450216207805468,0.03852370601484693]",4.0,"[-0.11785517421436717,-0.1587079383659899]",4.0,"[0.1163909079623467,-0.14688702411372667]",100.0,"[-0.13513958146247929,0.06664906798156552]",100.0,"[-0.1781711712999166,0.07957642561770771]",4.0,"[0.15521220287321044,0.029175711032839162]",100.0,"[-0.08238201328390027,-0.10266290806406632]",100.0,"[-0.033789207143358035,0.0659711035058112]",100.0,"[0.12155204151105407,-0.10246159920513216]",100.0,"[0.16012429572181078,-0.08687976205803143]",100.0,"[-0.044055804013416563,-0.11779383758447738]",4.0,"[0.0712546899952538,0.10916479033951054]",100.0,"[0.02,0.02]",253.7523,0.0,14.0,14.0,34.0,1.0,0.5592,,,,,,,,
,,,,,,,68398283a2f2b6f05f300540,683aeeee751871b78dd2d16e,2025-05-31_07h59.10.347,shape_ratio,2024.1.5,Win32,60.97560976,683ae9196541af24d3a69e58,,,,,,,,,,,253.7538,254.2513,,,254.5045,254.7016,left,,,,,,,,0.9,,,,,,254.2519,254.5043,254.7023,"[-0.09354439872840087,-0.12900438700131792]",100.0,"[-0.14913344222641398,0.06662201068653072]",100.0,"[-0.15879851399300313,-0.12084785808712387]",100.0,"[0.0022378833259414396,-0.030708046609254785]",100.0,"[0.13353656278158882,-0.0016126821611226433]",4.0,"[-0.061994447607370266,0.10736451083633944]",100.0,"[0.020691914795640323,0.13311221388393835]",100.0,"[-0.0566026828492991,0.022391029360304328]",100.0,"[0.10254142688537364,0.1381674116191089]",100.0,"[0.14309603556122819,0.0897587926179732]",100.0,"[-0.09132005775056821,0.14315178875415355]",100.0,"[-0.13636696781293406,0.018034316696552196]",100.0,"[0.03261612407790221,-0.1727552809227165]",100.0,"[-0.04054096372858357,-0.11701673797160032]",100.0,"[0.17474133775765172,0.04490822169036203]",100.0,"[-0.10373881961675203,-0.01886164079157529]",100.0,"[-0.13898239486674546,0.12386528089050937]",100.0,"[0.18020025472974313,-0.05566261056783073]",100.0,"[0.1394073930858727,-0.057028907481826124]",100.0,"[0.1269555186902726,-0.1342742452741215]",100.0,"[0.10098224491246859,-0.17130794166082447]",4.0,"[-0.02193361696712586,-0.16698162889507656]",100.0,"[-0.1910145508914225,0.016215361947844953]",100.0,"[0.0213696268003078,-0.11440511774273375]",100.0,"[0.05798505252626163,0.08003030481144355]",100.0,"[0.028812926258107833,-0.0691271365100551]",100.0,"[0.03572966542603636,-0.006162435366789172]",100.0,"[-0.06683243114779258,-0.05553819628944015]",100.0,"[0.005067909945668119,0.03861939739807461]",4.0,"[-0.11757702744468526,-0.08847656437903328]",100.0,"[-0.0017841384214660116,0.09102554761113932]",100.0,"[-0.16487251676558728,-0.03149619471611086]",100.0,"[0.02,0.02]",255.8,0.0,15.0,15.0,22.0,1.0,0.1737,,,,,,,,
,,,,,,,68398283a2f2b6f05f300540,683aeeee751871b78dd2d16e,2025-05-31_07h59.10.347,shape_ratio,2024.1.5,Win32,60.97560976,683ae9196541af24d3a69e58,,,,,,,,,,,255.8017,256.2997,,,256.5507,256.8657,right,,,,,,,,0.5,,,,,,256.2999,256.5505,256.8663,"[0.12537657903383598,0.02721301045787054]",4.0,"[-0.003780370100974933,-0.03972625400607388]",4.0,"[0.16515455416589325,-0.07459627155112121]",100.0,"[0.18899066726604943,0.02766603335836744]",100.0,"[-0.09009543806878144,-0.1175705750980751]",100.0,"[-0.15727293223837696,0.013297644186989012]",4.0,"[0.0714608962415432,-0.03234056020213986]",4.0,"[0.061382484234420845,0.01675579172009881]",100.0,"[0.12392519449055278,0.15239853142761345]",100.0,"[-0.11755310314657065,0.15123376588045223]",100.0,"[0.09300286388165294,-0.16830018168701813]",4.0,"[0.05292188123787387,0.16897548158226047]",100.0,"[-0.06631432523682872,0.11021787484305567]",4.0,"[0.05409668107745748,-0.1841327510216577]",4.0,"[-0.1129962966724854,-0.16252642174295162]",4.0,"[0.030836083051926963,0.1268663606990847]",4.0,"[0.15366178765434316,-0.02229970007794159]",100.0,"[-0.013354916321107933,0.10451437805335691]",4.0,"[-0.13306695843589025,-0.026439152601628775]",100.0,"[0.06009895088486644,0.057350457037272366]",100.0,"[0.03748902707726701,-0.07196684790687266]",100.0,"[0.0151344132203,-0.002314685709292928]",100.0,"[-0.04733124312819483,-0.044918451919192005]",100.0,"[0.13018268922361573,0.07180151629233665]",4.0,"[0.09096222086594138,0.0960714859324532]",100.0,"[-0.17537953108513712,0.055513503638806784]",4.0,"[0.10327067811474369,-0.09872424846471892]",4.0,"[0.00613305896885464,0.19794153204420356]",100.0,"[-0.08765650742451932,-0.0075004140711467365]",100.0,"[-0.07257433162431787,0.06973681371919649]",4.0,"[-0.139976134086592,-0.08402197883892455]",4.0,"[-0.09695011869020573,-0.07494831766938284]",4.0,"[0.02,0.02]",257.9642,0.0,16.0,16.0,104.0,1.0,0.3015,,,,,,,,
,,,,,,,68398283a2f2b6f05f300540,683aeeee751871b78dd2d16e,2025-05-31_07h59.10.347,shape_ratio,2024.1.5,Win32,60.97560976,683ae9196541af24d3a69e58,,,,,,,,,,,257.9658,258.464,,,258.7155,258.8638,left,,,,,,,,0.5,,,,,,258.4643,258.7155,258.8639,"[-0.061546733595670575,0.040938878195454956]",100.0,"[-0.0352318458734969,-0.07796463296776124]",100.0,"[0.14110159810249107,0.12007487867691115]",100.0,"[-0.05709224688313541,0.17648692232318544]",4.0,"[-0.09939152176236199,-0.050185463040799516]",100.0,"[-0.19136484696026515,0.017711184111337472]",100.0,"[-0.022042193399414038,0.0026688111857149075]",4.0,"[0.06920164374654679,0.16312717868239504]",4.0,"[0.09702959345546167,-0.04254737929714423]",4.0,"[-0.08543945086456807,0.14159105719610898]",4.0,"[-0.025730570596188305,-0.1326126216325283]",4.0,"[0.16090719885955004,-0.07851019556060546]",100.0,"[-0.08127087810643564,0.08842979418007997]",100.0,"[0.12455961971649539,-0.15221350003829512]",100.0,"[-0.012433390513097192,-0.19335347059068805]",100.0,"[-0.13389316482162533,0.09506893010008147]",100.0,"[-0.13756096804072787,-0.0009167683941625466]",100.0,"[0.18973128974186815,-0.015546312846135078]",4.0,"[0.0024399371973763376,0.12137308251851571]",4.0,"[0.1845048004817218,0.04991237736737943]",100.0,"[-0.17194580918591706,-0.027263989993505832]",4.0,"[0.08328825553342828,0.02809366834104257]",100.0,"[0.015780801664864823,-0.13409711269242083]",4.0,"[0.08489149090267603,0.06921618848666448]",4.0,"[-0.12997057259329123,-0.1355344793552949]",4.0,"[0.019037364914798106,-0.07661042700487972]",4.0,"[0.031202889309506862,-0.0337461473421701]",100.0,"[-0.05802224067638825,-0.039739510187437856]",4.0,"[0.017706432826886834,0.16112216238603502]",4.0,"[-0.05541777243408617,-0.16298269379754915]",100.0,"[-0.019958366738956956,0.05360548709631804]",4.0,"[-0.18061920865432998,0.08401486085509763]",100.0,"[0.02,0.02]",259.963,0.0,17.0,17.0,108.0,1.0,0.1213,,,,,,,,
,,,,,,,68398283a2f2b6f05f300540,683aeeee751871b78dd2d16e,2025-05-31_07h59.10.347,shape_ratio,2024.1.5,Win32,60.97560976,683ae9196541af24d3a69e58,,,,,,,,,,,259.964,260.4622,,,260.713,260.7945,right,,,,,,,,0.4,,,,,,260.4626,260.7126,260.7949,"[0.1462296433370822,0.07989264108536329]",4.0,"[0.08803969704730093,-0.17006462688583762]",4.0,"[0.07159146735014214,0.11323281073703209]",4.0,"[-0.18072864918231427,-0.02779665032328]",4.0,"[-0.08349583080962078,0.08013631751198302]",100.0,"[0.12817597973150802,-0.12830115014520227]",4.0,"[0.04321618627744686,-0.17291500729746964]",100.0,"[0.009486839256786785,0.14996983862949465]",4.0,"[0.05916124773293921,0.01310657570741451]",4.0,"[0.08342999962133986,-0.11607558359203422]",4.0,"[-0.026831976893975196,0.12312893970103354]",100.0,"[-0.04359283859406642,-0.09980914360331891]",100.0,"[-0.09594501365223246,0.018546587501751727]",100.0,"[0.15022279131324365,-0.08595488268698626]",100.0,"[-0.019215571068792285,-0.02523952506650477]",4.0,"[-0.10999703271776,-0.08413996508822391]",4.0,"[-0.005045989477435693,-0.12483057475458789]",4.0,"[-0.11670036285499287,-0.1428021524864637]",4.0,"[0.006673776601015701,-0.18938916226268188]",100.0,"[-0.15908210531785072,0.08340227632184599]",4.0,"[0.1063317879211595,0.05970389642005148]",4.0,"[0.018684193046746334,-0.057645566199926994]",4.0,"[0.008208878125924817,0.05346704858401205]",100.0,"[0.04819093544879928,0.1823416202188092]",4.0,"[-0.15899206774979982,-0.11168814641376797]",100.0,"[-0.17445872264215317,0.04140285812690935]",100.0,"[-0.008059539003725637,0.1913243676296446]",4.0,"[0.04624707012775281,-0.09293450795518028]",100.0,"[0.09890601856338167,-0.06564594908041727]",4.0,"[-0.07202308776371369,-0.1393305398519523]",100.0,"[-0.04730424756230398,0.04740825274019894]",4.0,"[-0.13763116036165737,-0.015928639012386097]",100.0,"[0.02,0.02]",261.8934,0.0,18.0,18.0,173.0,1.0,0.0716,,,,,,,,
,,,,,,,68398283a2f2b6f05f300540,683aeeee751871b78dd2d16e,2025-05-31_07h59.10.347,shape_ratio,2024.1.5,Win32,60.97560976,683ae9196541af24d3a69e58,,,,,,,,,,,261.8954,262.3925,,,262.6426,262.7757,left,,,,,,,,0.1,,,,,,262.3926,262.6426,262.7758,"[-0.04633582401418865,0.13397492809741812]",4.0,"[-0.09345158491954383,0.16670413333718856]",4.0,"[-0.09047798509699657,-0.03881901319154353]",100.0,"[0.12701490912576452,0.018891638252253835]",4.0,"[0.15326229046408485,-0.12025004449934752]",4.0,"[0.1855704716766078,-0.031946018772818836]",4.0,"[0.07615327070216639,-0.17676344082396267]",4.0,"[-0.05503077383826021,-0.07877460100253136]",4.0,"[-0.040788927630874834,-0.14741309078255224]",4.0,"[0.0027272884386129693,-0.07608472136527705]",4.0,"[0.1637330710059966,0.03722230999558858]",100.0,"[-0.02074154159460329,0.04135547850602316]",4.0,"[0.07085176933719685,0.04178328339269899]",4.0,"[0.10074922415899067,0.10089321375927654]",4.0,"[0.04270119862305193,0.09558388545333785]",4.0,"[0.12898358287858797,0.14394198499629313]",4.0,"[0.10967129103986242,-0.08394041518781632]",4.0,"[-0.12505314121641622,0.00797797510588208]",4.0,"[0.03451497676276503,0.011204230648783545]",4.0,"[-0.1322788777295536,0.08503426524014834]",4.0,"[0.06609255493370403,-0.05258549800446098]",4.0,"[-0.07374513391118757,0.08701978905170331]",4.0,"[0.014669825609429699,-0.16305674236014367]",4.0,"[0.10655403720846793,-0.022839462286371986]",4.0,"[0.05517843329667745,0.14703450047191666]",4.0,"[-0.028174971412725982,-0.19220078539639956]",4.0,"[-0.13657104937600284,-0.041773350270655145]",100.0,"[-0.1911020933585415,-0.007595457262174223]",4.0,"[-0.004862727222098876,-0.017611928043845346]",4.0,"[-0.08016695044746643,0.025810302627168914]",4.0,"[-0.11402737210101621,-0.09071268590265495]",4.0,"[0.021134715768918177,0.18722468981791487]",4.0,"[0.02,0.02]",263.874,0.0,19.0,19.0,205.0,1.0,0.1183,,,,,,,,
,,,,,,,68398283a2f2b6f05f300540,683aeeee751871b78dd2d16e,2025-05-31_07h59.10.347,shape_ratio,2024.1.5,Win32,60.97560976,683ae9196541af24d3a69e58,,,,,,,,,,,263.8745,264.3738,,,264.6251,265.6396,right,,,,,,,,0.45,,,,,,264.3739,264.625,265.6398,"[-0.06637995748393882,0.18497757108259255]",100.0,"[-0.1718603486372267,-0.02665708306595486]",4.0,"[0.03832117100430241,0.04609962684008005]",4.0,"[0.10660327019131643,0.06761448372514227]",4.0,"[-0.07730523686155463,-0.1429528387276847]",4.0,"[0.08666490746873183,0.14044093402752728]",4.0,"[0.14319199851653114,0.12216837367833101]",4.0,"[-0.17691716714371652,0.0752995731594324]",100.0,"[0.03316851007285217,-0.08360534304025474]",100.0,"[-0.03916653931449234,-0.16739569427926473]",4.0,"[-0.05088996566808452,-0.10662930480705897]",4.0,"[-0.030858458702812817,-0.007375463659553629]",100.0,"[-0.08746672272171066,0.027043180723571127]",100.0,"[-0.026796533442731814,0.08470416184993759]",100.0,"[-0.11860361267683509,0.10206463667431381]",100.0,"[0.0010283655853683285,-0.1772359973710479]",4.0,"[0.10734026075560962,-0.0979905536486214]",100.0,"[-0.013437088724990495,0.18589586730487329]",100.0,"[0.08306273665327243,0.015272455080536575]",4.0,"[-0.12315438921309009,0.049048709122837014]",100.0,"[-0.1194321971336376,-0.046198031546407774]",4.0,"[0.16733158210699886,-0.029035928596519215]",100.0,"[-0.137690457367776,-0.08208959883371206]",4.0,"[0.015449365406770001,-0.13170918898144032]",4.0,"[-0.054295071084260925,0.050973050906389435]",4.0,"[0.03985065039146719,0.1850063475858775]",100.0,"[-0.15077926669266511,-0.12387982196513285]",4.0,"[0.1761096243338287,0.026491040831225502]",4.0,"[0.1098241771124726,-0.14710697276582668]",4.0,"[0.06548820996122719,-0.04864782715697691]",100.0,"[-0.1346712239001689,-0.008290784292660839]",4.0,"[0.12375647461852908,-0.044572377363714485]",100.0,"[0.02,0.02]",266.7382,0.0,20.0,20.0,128.0,1.0,1.0,,,,,,,,
,,,,,,,68398283a2f2b6f05f300540,683aeeee751871b78dd2d16e,2025-05-31_07h59.10.347,shape_ratio,2024.1.5,Win32,60.97560976,683ae9196541af24d3a69e58,,,,,,,,,,,266.7394,267.2382,,,267.4895,268.6209,right,,,,,,,,0.9,,,,,,267.2383,267.4894,268.621,"[0.1474386573824812,0.07064844970569255]",100.0,"[-0.10231911107419445,0.015457401331185883]",100.0,"[0.09502620656667875,0.024375746864635898]",100.0,"[-0.15920963621310288,-0.07727143859222092]",100.0,"[0.07842690899276716,-0.11857672220621467]",100.0,"[-0.11549330947436347,0.15902600825349117]",100.0,"[0.005749249036735167,-0.10459050506474048]",100.0,"[-0.14205146547101832,-0.11531045213907498]",100.0,"[0.14333748196786017,-0.09080517407454405]",100.0,"[-0.14120391285572378,-0.02023899202920457]",100.0,"[0.12258238668896564,-0.14106176917589755]",100.0,"[-0.14814976501441007,0.08703243472794965]",100.0,"[0.058838850637880226,0.18179556267907562]",100.0,"[-0.08155017464721397,-0.08108580479241931]",100.0,"[-0.10527769443515601,0.09930061708301596]",4.0,"[0.07904755763539163,0.1439580486504723]",100.0,"[0.09433678541644039,-0.0352124623007108]",100.0,"[-0.06384420413639393,-0.1541603882899476]",100.0,"[0.020651244629691097,0.009338803730624519]",4.0,"[-0.002943091990642394,-0.025171793732159137]",100.0,"[0.05217521898908384,-0.017982242811950804]",4.0,"[0.04962438079361772,-0.18433526821141247]",100.0,"[-0.022112216180478005,-0.06541725954256336]",100.0,"[0.19636687759704,0.0032060249876650656]",100.0,"[-0.10879293503346171,-0.04493095384253016]",100.0,"[0.12219708415026373,0.11136497326157101]",100.0,"[0.18893761402887027,0.048353872159613814]",100.0,"[0.016168093497957777,0.179815063107914]",100.0,"[-0.04897597074941958,0.049491031684392485]",100.0,"[0.00000993555168034349,-0.19471536400024728]",100.0,"[0.016968617711909384,0.057562963616664846]",100.0,"[0.05224376429142836,0.09374461244643578]",100.0,"[0.02,0.02]",269.7196,0.0,21.0,21.0,18.0,1.0,1.1208,,,,,,,,
,,,,,,,68398283a2f2b6f05f300540,683aeeee751871b78dd2d16e,2025-05-31_07h59.10.347,shape_ratio,2024.1.5,Win32,60.97560976,683ae9196541af24d3a69e58,,,,,,,,,,,269.7215,270.2237,,,270.4719,270.6198,left,,,,,,,,0.6,,,,,,270.2237,270.4718,270.62,"[-0.06624032496590837,-0.1077279087034407]",4.0,"[-0.10924680255561431,-0.09831261139013815]",100.0,"[0.0678525782204222,-0.162475009346048]",100.0,"[0.05958825378171226,-0.02691618759514908]",4.0,"[-0.15418032977673723,0.010167983513735821]",100.0,"[0.12043729017686944,0.11528445044660571]",4.0,"[0.12502422891142176,-0.15090274270313978]",4.0,"[-0.07007207286679451,0.1436673283709534]",4.0,"[0.058080653950096865,0.17585321339489052]",100.0,"[0.153580267876012,0.055467936942324755]",100.0,"[0.14334912949908132,-0.050299853880653556]",100.0,"[-0.016224019074754122,0.0407948688943851]",100.0,"[0.07297418455881848,-0.1139791983645518]",100.0,"[0.09226130944266693,0.008614342904916937]",100.0,"[0.041636867383538896,0.023982910050767026]",100.0,"[0.007560147672865227,0.17570508053859155]",4.0,"[0.16705961423447688,0.09337228187274589]",4.0,"[0.11007229367167823,0.0504548750268288]",100.0,"[-0.0037268849111121074,-0.0035550252627693313]",4.0,"[-0.09526273539240225,-0.03714634933024065]",4.0,"[0.012998635534928065,0.09996776324741032]",100.0,"[0.05558331594958926,0.09469199693311456]",100.0,"[0.16689143127210157,-0.0936642794567451]",100.0,"[0.17016028082117687,0.012754596523146837]",100.0,"[-0.16170290043038985,0.08466640891427998]",100.0,"[0.015405365232134644,-0.05358587096455027]",100.0,"[0.005809774973576233,-0.10663246309158629]",4.0,"[-0.11846215177865639,-0.13761987258457528]",100.0,"[-0.03205301340052574,0.09538200726776724]",4.0,"[-0.08116469042354055,0.08928815211894627]",100.0,"[-0.06382355765373483,-0.1644927804248937]",4.0,"[-0.19480418282208228,0.031033963694466725]",4.0,"[0.02,0.02]",271.7194,0.0,22.0,22.0,59.0,1.0,0.1341,,,,,,,,
,,,,,,,68398283a2f2b6f05f300540,683aeeee751871b78dd2d16e,2025-05-31_07h59.10.347,shape_ratio,2024.1.5,Win32,60.97560976,683ae9196541af24d3a69e58,,,,,,,,,,,271.7211,272.2188,,,272.4664,273.598,left,,,,,,,,0.1,,,,,,272.219,272.4663,273.5981,"[0.09281319414682973,0.0919783383550329]",4.0,"[0.19416008565580098,0.01671859244770148]",4.0,"[0.1466049596556884,-0.11597950004871362]",4.0,"[0.15180107068570278,0.0932076874870461]",4.0,"[-0.058103175023122275,-0.0897760146926528]",4.0,"[0.18162851471633892,-0.05130098250463688]",4.0,"[-0.09846170675204657,-0.06082011985584265]",4.0,"[-0.04144385823631051,-0.030739030946001517]",4.0,"[-0.1787709818138682,0.06494644928954088]",4.0,"[0.11193339227398669,-0.005075982000217783]",4.0,"[0.07817205230376348,0.14958716304598846]",4.0,"[0.12108609231102746,0.14329666981529635]",100.0,"[0.12796830685221808,-0.061670971873022694]",4.0,"[-0.001913566460707031,-0.14543910670654303]",4.0,"[0.10876009915405235,-0.09854424716181061]",4.0,"[-0.18014833915979792,-0.00677438631594963]",4.0,"[-0.11947023682076563,-0.09533751471157428]",4.0,"[-0.07194604843139163,-0.184507484505918]",100.0,"[-0.0350936527480095,0.034329504297762325]",4.0,"[-0.08446073127506301,0.022453732179609828]",4.0,"[-0.13538003849332889,0.144796509146713]",4.0,"[0.09762065963677483,-0.15745821942945665]",4.0,"[0.02509620644525759,-0.07282836134590286]",100.0,"[0.010420784729956436,0.06753088238395223]",4.0,"[0.007491513014995973,0.18571667005094855]",4.0,"[-0.1051311353822659,-0.14790530341305766]",4.0,"[-0.1440001136423061,0.015859551685055085]",4.0,"[0.022024925258165864,-0.012428209427678884]",4.0,"[-0.02318596220994855,0.10303142744657295]",4.0,"[0.05496187437257616,0.06211698406894716]",4.0,"[-0.1618518771651685,-0.0699132164429214]",4.0,"[0.018155118829183275,0.11949130008525775]",4.0,"[0.02,0.02]",274.6975,0.0,23.0,23.0,199.0,1.0,1.1163,,,,,,,,
,,,,,,,68398283a2f2b6f05f300540,683aeeee751871b78dd2d16e,2025-05-31_07h59.10.347,shape_ratio,2024.1.5,Win32,60.97560976,683ae9196541af24d3a69e58,,,,,,,,,,,274.6986,275.1968,,,275.4355,275.9142,left,,,,,,,,0.45,,,,,,275.1968,275.4354,275.9144,"[-0.18434063215430296,-0.01759860845035751]",4.0,"[0.02159511272023333,0.11139230245110268]",4.0,"[0.15567989224362908,0.04765565891139092]",4.0,"[0.01973943603990597,-0.1526477405502739]",100.0,"[-0.05594364841387339,0.12802889202813683]",100.0,"[0.08625613257649266,0.14929860531947386]",4.0,"[-0.1524613421640086,-0.11773388295638579]",100.0,"[0.08220623876368614,-0.04975984514594799]",4.0,"[0.1764682058725227,0.006286086833525764]",4.0,"[0.06474650490561941,0.021202281895440066]",4.0,"[-0.04499364366377366,-0.19004386218662386]",4.0,"[-0.08944836095997287,0.1543428284592397]",4.0,"[0.04772384253938117,0.06309171392133359]",100.0,"[-0.10233153269126653,-0.16670133713652846]",100.0,"[-0.1099697215563453,-0.055390900913392736]",4.0,"[0.057231414878747146,0.18439551324800924]",100.0,"[0.04648652310472482,-0.11969599311341986]",4.0,"[-0.17728984259314134,0.07839368908880665]",100.0,"[-0.034030152746264336,0.05292948421160008]",100.0,"[-0.11222322856834228,-0.09559253189367647]",4.0,"[-0.06506579803993237,-0.1431911895268122]",4.0,"[-0.13079178645094064,0.0853748954014862]",4.0,"[0.1631058490911062,-0.05947594769721178]",4.0,"[0.10392178454607427,0.0671052256073761]",100.0,"[0.1082804932873362,0.004715722552043677]",4.0,"[-0.05617325750534152,-0.0972529171502553]",100.0,"[-0.14833983816798907,-0.0416624257084317]",100.0,"[0.01921952623722123,-0.04896953716759536]",4.0,"[0.024217074771926295,-0.003370714844082512]",100.0,"[-0.1746516839151393,-0.08253285938098007]",100.0,"[-0.009400100934163897,0.16548262615696716]",100.0,"[-0.1350961774814605,0.13823525815869384]",4.0,"[0.02,0.02]",277.0127,0.0,24.0,24.0,135.0,1.0,0.4609,,,,,,,,
,,,,,,,68398283a2f2b6f05f300540,683aeeee751871b78dd2d16e,2025-05-31_07h59.10.347,shape_ratio,2024.1.5,Win32,60.97560976,683ae9196541af24d3a69e58,,,,,,,,,,,277.0141,277.5141,,,277.7638,277.7783,right,,,,,,,,0.5,,,,,,277.5141,277.7636,277.7784,"[-0.0643496480528014,0.162241537122419]",4.0,"[-0.15840110642153213,0.024235464536383422]",100.0,"[-0.06485875146153511,0.06394049437888011]",4.0,"[0.14561408258736344,-0.05145273861572369]",100.0,"[0.09175466821656177,0.026271165244228633]",100.0,"[-0.11959966141179437,0.0018015205155778595]",4.0,"[0.19305564261737967,0.032506861786212884]",4.0,"[-0.11346199274807163,-0.12309111586412087]",4.0,"[0.050906434395701444,-0.08235336410748545]",4.0,"[0.024028734379730955,0.04389450837061897]",100.0,"[-0.017985157199884007,-0.18668883198310193]",100.0,"[-0.08893908499987264,0.10118757319561628]",100.0,"[0.09162827917210654,0.15757562880107764]",100.0,"[-0.13525129112849357,-0.060736298881602535]",100.0,"[-0.026735125655820566,-0.03924042312017809]",4.0,"[-0.019096438866621865,0.10877595716687294]",100.0,"[0.11228829564453509,-0.10327236587322501]",4.0,"[0.023692899678551375,0.15685682071298632]",4.0,"[0.07199486599780855,-0.14974428043315513]",100.0,"[0.0744675421090568,0.09703137685024264]",100.0,"[-0.05296129628794829,-0.13731845168355716]",4.0,"[-0.16111342157356018,-0.016492207743833347]",4.0,"[0.14062394924795657,0.05200456985204151]",100.0,"[-0.08429865174672112,-0.06156717208393643]",100.0,"[0.01803850345063358,-0.1375636650824477]",4.0,"[-0.12819012903594348,0.13665791054108983]",100.0,"[-0.15931267136259655,0.08487614831823292]",100.0,"[0.15817930238324368,-0.0008582822772698395]",100.0,"[0.02017954871565859,-0.026437633279326557]",4.0,"[0.14354126361635886,-0.13308690218412314]",4.0,"[-0.10604163987368134,0.045069095261605914]",4.0,"[-0.008101383863947152,0.18405133053047928]",4.0,"[0.02,0.02]",278.877,0.0,25.0,25.0,106.0,1.0,0.0012,,,,,,,,
,,,,,,,68398283a2f2b6f05f300540,683aeeee751871b78dd2d16e,2025-05-31_07h59.10.347,shape_ratio,2024.1.5,Win32,60.97560976,683ae9196541af24d3a69e58,,,,,,,,,,,278.8785,279.3772,,,279.6327,279.7124,right,,,,,,,,0.1,,,,,,279.3775,279.6325,279.7125,"[0.14239885791510373,0.08106645188209223]",4.0,"[0.16458616825764738,-0.015101943703854977]",4.0,"[0.05974403249772547,-0.08336047105580756]",4.0,"[-0.1418488348056478,0.1041386703112422]",4.0,"[-0.055965955370221,0.07772827546663502]",4.0,"[-0.1704927218191427,-0.0427776082976269]",4.0,"[-0.09798972271500142,-0.0486158789803271]",4.0,"[0.1457471190959166,-0.08378676987100733]",4.0,"[0.1870487434232172,0.055630182418572593]",4.0,"[-0.08018245715871405,0.1550398191046223]",4.0,"[0.023619930164377464,0.1305469514383905]",4.0,"[-0.027148369271135973,0.11798545996627495]",4.0,"[-0.05547864664895895,0.03273621408419656]",4.0,"[0.035375845988023104,-0.008841068556847381]",4.0,"[-0.0801950502489681,-0.1309155034428175]",4.0,"[-0.1230784213476506,0.06284331632018296]",4.0,"[-0.16595557614642575,0.055677662444131006]",4.0,"[-0.0837534718762992,-0.17871984936204674]",100.0,"[0.10536269594741313,-0.03975153108284224]",4.0,"[0.036776324392678125,-0.11974578493377146]",4.0,"[-0.04420855702327009,-0.18862167401220709]",4.0,"[0.010884303382894363,-0.08627604744056072]",100.0,"[-0.15061210219949672,-0.0015044726840446724]",4.0,"[0.09997795336671295,0.0405433481413649]",4.0,"[0.06804816961960028,-0.16668804089071013]",4.0,"[0.06582494830892953,0.09078303219194105]",4.0,"[0.023724155783858485,0.03204511299557962]",100.0,"[0.11107087025851668,-0.12714282754800085]",4.0,"[-0.04484576949948634,-0.07289438590588741]",4.0,"[-0.006992829614910354,-0.010657982223643822]",4.0,"[-0.11912015368623452,-0.14496457773120855]",4.0,"[0.0036938172139914854,0.08063782285103828]",4.0,"[0.02,0.02]",280.8091,0.0,26.0,26.0,185.0,1.0,0.0699,,,,,,,,
,,,,,,,68398283a2f2b6f05f300540,683aeeee751871b78dd2d16e,2025-05-31_07h59.10.347,shape_ratio,2024.1.5,Win32,60.97560976,683ae9196541af24d3a69e58,,,,,,,,,,,280.8107,281.3095,,,281.563,281.7595,left,,,,,,,,0.6,,,,,,281.3096,281.5629,281.7599,"[-0.00022530230020430695,0.04077669829065434]",100.0,"[-0.1335853939484864,-0.07901145093906985]",100.0,"[0.035947066668421186,-0.004582466452958656]",4.0,"[-0.04903931347315245,0.16436917868154857]",4.0,"[0.04382701728466137,0.07887564328461748]",100.0,"[-0.0433277062048789,-0.06470671550519688]",4.0,"[-0.01603118893048425,-0.005701361751440067]",100.0,"[0.0015965803767220353,0.1891215817675259]",100.0,"[-0.0836097315413377,-0.08519003961027999]",100.0,"[0.05180863329056544,0.1909000254828279]",100.0,"[-0.04209637801273197,-0.1118404413979863]",4.0,"[0.11811126222593485,0.11170076971768515]",4.0,"[0.09855239687177163,-0.04594684489547337]",4.0,"[0.1771119637209937,0.01610191548532795]",100.0,"[0.10630285114595667,0.015661978845499892]",100.0,"[-0.10219675302561217,0.15191066238843262]",100.0,"[-0.0963102502620265,-0.13589623277287963]",100.0,"[0.06480105534200749,0.15146874761401125]",100.0,"[-0.12083482327031785,0.06362973989891316]",100.0,"[0.057955331262627585,-0.08080715230124351]",4.0,"[-0.16307317547225295,0.004699791245898666]",100.0,"[0.03256247983986766,-0.16988557284489908]",100.0,"[0.012351080114950409,-0.0628915539029883]",4.0,"[0.09342032901871063,-0.17621400723614133]",4.0,"[-0.1815257199640735,0.054126509562994814]",100.0,"[-0.14834485777018547,0.09646735735839247]",4.0,"[0.1894956403801495,-0.04203403705930835]",4.0,"[-0.07446530887448437,0.0950162273517684]",100.0,"[0.10015250608100627,-0.11249092348278791]",4.0,"[-0.004704158008775196,-0.12947727411792]",100.0,"[-0.10679269895950025,-0.019593255681202116]",4.0,"[0.11255725024574113,0.15299045742690126]",100.0,"[0.02,0.02]",282.8567,0.0,27.0,27.0,54.0,1.0,0.178,,,,,,,,
,,,,,,,68398283a2f2b6f05f300540,683aeeee751871b78dd2d16e,2025-05-31_07h59.10.347,shape_ratio,2024.1.5,Win32,60.97560976,683ae9196541af24d3a69e58,,,,,,,,,,,282.8587,283.3609,,,283.6088,284.1572,right,,,,,,,,0.45,,,,,,283.361,283.6085,284.1574,"[0.05501938176256223,-0.05408422237657931]",100.0,"[-0.11683580571877956,-0.113703394158337]",4.0,"[0.09940980462746724,-0.16843322825824764]",4.0,"[0.03631690302472455,0.1653933153928821]",4.0,"[-0.04501611121705875,-0.10463174503124552]",100.0,"[-0.053182329260449614,-0.004930523424522101]",4.0,"[-0.01886742867552156,0.14208622861341086]",100.0,"[-0.07711870167887434,-0.055078202708925515]",4.0,"[-0.04727714106429599,0.08022843592263514]",4.0,"[0.1175382158074827,0.10804212313128381]",4.0,"[0.09157528929355963,0.0640896337643279]",4.0,"[0.12188244904097151,-0.02936450258383465]",4.0,"[-0.14316214568236305,-0.04309447689398231]",4.0,"[0.06998074668542968,0.013576874079633804]",4.0,"[-0.11506144711727448,0.015965121088428694]",4.0,"[0.06001971162002297,-0.12867090413791663]",100.0,"[-0.05116210513185659,-0.18402031982042177]",100.0,"[0.0016480188364280993,-0.042968126214924025]",4.0,"[-0.12261355922604274,-0.15399161540533218]",100.0,"[0.011945930882625177,-0.18781554349917381]",100.0,"[0.19116470768542837,-0.007910919371085887]",4.0,"[0.014539201171014949,0.04915143752269539]",100.0,"[0.08343326458954606,0.1397199090675725]",100.0,"[0.13684165281314492,-0.14038079315507457]",4.0,"[0.027246459250988717,0.10124641525677011]",100.0,"[-0.010137431530409685,0.19001470625144198]",100.0,"[-0.11561994050329948,0.11515001440419831]",4.0,"[0.09165170381382592,-0.07923080958828523]",100.0,"[-0.07978976614919514,0.03878043181063997]",4.0,"[-0.1669487704981492,0.05600281058925888]",4.0,"[0.1716424963551981,-0.0844357907989627]",100.0,"[-0.18648639105986675,-0.014806135573785415]",100.0,"[0.02,0.02]",285.2547,0.0,28.0,28.0,138.0,1.0,0.5347,,,,,,,,
,,,,,,,68398283a2f2b6f05f300540,683aeeee751871b78dd2d16e,2025-05-31_07h59.10.347,shape_ratio,2024.1.5,Win32,60.97560976,683ae9196541af24d3a69e58,,,,,,,,,,,285.2568,285.7548,,,286.0082,286.1208,left,,,,,,,,0.1,,,,,,285.7552,286.0081,286.1209,"[0.0633065658597167,0.011013219744558335]",4.0,"[-0.09039408051937153,0.06976678195666242]",4.0,"[-0.12756503522038734,0.009476393408896987]",4.0,"[0.12621404297568667,0.06659163399334107]",100.0,"[0.0024240112271889137,-0.19242647855124104]",4.0,"[0.08642468649539606,0.11112822156663923]",100.0,"[-0.1065285709423883,-0.03338030787080703]",4.0,"[-0.040901524319604504,0.031749846873386604]",4.0,"[0.17259954567572428,0.09241476214540235]",4.0,"[0.08605841487226767,-0.10663946646657589]",4.0,"[0.03869746641589293,0.05699903054054136]",4.0,"[0.16284062411633773,-0.0701328537081292]",100.0,"[0.09372419747751512,0.04091114215795107]",4.0,"[-0.00805437707531361,0.15395234267299468]",4.0,"[0.14167556755982255,0.02269986860595818]",4.0,"[-0.08562594056795628,0.008102352617803728]",4.0,"[0.0251442359490684,-0.11005361939966062]",4.0,"[-0.060885251147891756,0.16214823884312746]",4.0,"[-0.017666856837549122,-0.06064323608152434]",4.0,"[0.1931175714201493,0.007171075895335207]",4.0,"[0.05772112880793998,-0.1551847630337486]",4.0,"[0.030033978791484974,0.1052506417230189]",4.0,"[-0.10270976154769257,-0.15818179600226048]",4.0,"[-0.12234646233118107,0.12388548728088636]",4.0,"[-0.009274942437677488,0.07714051196357381]",4.0,"[-0.03457290503475625,-0.09727073055998993]",4.0,"[-0.011686516517494203,-0.003164096390982051]",4.0,"[0.084023439970987,-0.04647528291394674]",4.0,"[-0.037364853617347586,-0.18767370448741863]",4.0,"[0.033960912399005574,0.17917128600399604]",4.0,"[-0.16433955684969925,-0.08646046764006998]",4.0,"[-0.16953335472221828,0.025954904678654297]",4.0,"[0.02,0.02]",287.2191,0.0,29.0,29.0,196.0,1.0,0.0924,,,,,,,,
,,,,,,,68398283a2f2b6f05f300540,683aeeee751871b78dd2d16e,2025-05-31_07h59.10.347,shape_ratio,2024.1.5,Win32,60.97560976,683ae9196541af24d3a69e58,,,,,,,,,,,287.2211,287.7188,,,287.9744,288.9366,right,,,,,,,,0.45,,,,,,287.7189,287.9743,288.9367,"[0.020239692247089724,-0.041041574145356384]",100.0,"[-0.09098718900159823,0.025730269350873115]",100.0,"[-0.03868907061412107,0.15521896390200882]",100.0,"[0.10879130153172513,-0.10338124454116968]",4.0,"[-0.13222583741485805,-0.0076394464361553074]",100.0,"[-0.007386395663650067,0.04705375505483434]",100.0,"[-0.00950297581440757,-0.16319275816539616]",4.0,"[0.1538919189933405,0.12327307839314608]",4.0,"[0.034902107820918474,0.006794606052108651]",4.0,"[0.04762399826436043,-0.1260750116721714]",100.0,"[-0.07864544158055431,-0.08550569319515378]",100.0,"[0.12950815067945923,-0.02039132954780832]",100.0,"[-0.16029838213908837,0.06154657105990856]",4.0,"[0.14806815270681098,-0.1260291438434731]",4.0,"[0.026635415333333842,0.1366034714312825]",4.0,"[0.15079448506788357,0.03891137730331793]",100.0,"[0.08254631854224312,0.1482174443633605]",4.0,"[0.0013989679476239033,0.09160753502179085]",100.0,"[-0.1645734227434726,-0.06676162280851448]",4.0,"[0.03545928540087507,-0.1705957323541696]",4.0,"[-0.1406550199150518,0.10417364220722626]",4.0,"[-0.19577746315457745,0.0003940748167599044]",100.0,"[0.07248900623182543,-0.0393942263759062]",4.0,"[-0.061726797462864406,0.06861472276145526]",4.0,"[0.10678391150202356,-0.1550666008355804]",100.0,"[0.15810126773243233,-0.08510282852287068]",100.0,"[0.019119387401839747,-0.08489833679577238]",4.0,"[0.10540742452602503,0.044086190916192175]",4.0,"[0.19194747628405545,0.024041698842362683]",4.0,"[0.036951443235532164,0.051947841964289816]",4.0,"[0.01144003780751342,0.17850262525528868]",4.0,"[-0.05338080496891668,-0.03455285341968598]",100.0,"[0.02,0.02]",290.033,0.0,30.0,30.0,136.0,1.0,0.9449,,,,,,,,
,,,,,,,68398283a2f2b6f05f300540,683aeeee751871b78dd2d16e,2025-05-31_07h59.10.347,shape_ratio,2024.1.5,Win32,60.97560976,683ae9196541af24d3a69e58,,,,,,,,,,,290.0347,290.5379,,,290.7831,291.2805,left,,,,,,,,0.55,,,,,,290.5379,290.7829,291.2806,"[0.12018949740790265,-0.15637916640718863]",4.0,"[0.08732613578792489,-0.014743113519793159]",4.0,"[0.03946572316880875,-0.09543686689998786]",4.0,"[-0.13047396085520094,0.14887874331062204]",4.0,"[0.0574347521559567,0.13424078005111448]",4.0,"[-0.18932888717996704,-0.028938094457279545]",100.0,"[-0.07596443149034503,-0.08340483486013184]",4.0,"[-0.015442404490436993,0.138670829882815]",100.0,"[0.1820346166856962,0.016440851483614672]",4.0,"[0.09109499052902234,-0.08078510962818582]",100.0,"[-0.013405409290445832,0.014852721549052036]",100.0,"[-0.17065009805321907,0.023696900019061443]",4.0,"[0.03690124907201694,0.08350781411372703]",100.0,"[-0.060857980692876214,0.0030005779778831164]",100.0,"[-0.10623796451525473,-0.15741298611975862]",100.0,"[0.15369694765097996,0.07746382927722228]",4.0,"[-0.11473097201910859,0.007997298045351021]",100.0,"[-0.13442574020611675,0.06905713892017822]",100.0,"[0.0325263907346383,-0.013608794709923735]",4.0,"[-0.060013595038445125,0.12506004198576087]",100.0,"[-0.13746251504811205,-0.1062494556637675]",100.0,"[0.08959079453192131,0.10604307299575774]",100.0,"[-0.04495891838775856,0.060350944840643704]",100.0,"[-0.18418275889091526,-0.07239234327673605]",4.0,"[0.1332033896044027,0.00350751701969301]",100.0,"[0.06383883104022817,0.04762791446282679]",100.0,"[-0.020677725647631734,-0.12971681810491426]",4.0,"[0.04883251029278185,-0.16225717615903806]",100.0,"[0.17766078496424687,-0.04004611849465349]",4.0,"[-0.01685517811417865,-0.08439770120619733]",100.0,"[0.01922856599031185,0.1918268048805316]",4.0,"[0.08484964813554081,-0.12775320613092472]",100.0,"[0.02,0.02]",292.3806,0.0,31.0,31.0,66.0,1.0,0.484,,,,,,,,
,,,,,,,68398283a2f2b6f05f300540,683aeeee751871b78dd2d16e,2025-05-31_07h59.10.347,shape_ratio,2024.1.5,Win32,60.97560976,683ae9196541af24d3a69e58,,,,,,,,,,,292.3822,292.88,,,293.1314,294.0966,right,,,,,,,,0.45,,,,,,292.8802,293.1312,294.0969,"[0.022887835516864973,-0.15944492964114323]",4.0,"[-0.009836245350763275,0.04206752531284453]",100.0,"[0.1837751369082638,-0.052680234184726706]",4.0,"[-0.02491720824707691,0.14393148628897895]",4.0,"[-0.10180310398335905,-0.10789347724871595]",100.0,"[0.0763785143297892,0.09182636531555907]",4.0,"[0.06508247243412409,-0.0759793998548102]",4.0,"[-0.1491812606478348,-0.11835132741211195]",4.0,"[-0.025938379754957927,-0.050973247038855245]",4.0,"[-0.16385326671571768,0.0463957512572015]",100.0,"[-0.060080623350306575,0.09460788055758275]",4.0,"[0.0706361222937418,-0.15996605267630862]",4.0,"[-0.19130285554540116,-0.020333432351893097]",4.0,"[-0.02059469322928458,-0.14147470440240495]",100.0,"[0.09017587685462486,0.1520018454414192]",100.0,"[0.10569574974513213,-0.05972001684028565]",4.0,"[0.0413356976284829,0.06908282917920965]",100.0,"[-0.05360576226788097,-0.17114869934340388]",4.0,"[-0.08279414830138311,-0.007183255346649102]",100.0,"[-0.0036902803267637166,0.09147462522200091]",4.0,"[-0.11994790543230709,0.07271341007603463]",4.0,"[0.11635975944287708,0.008537172580659336]",4.0,"[0.015904643238639687,0.13894589263576057]",100.0,"[-0.06854706567767871,-0.045692676354290654]",4.0,"[0.16665371671815998,-0.10396422731846383]",4.0,"[-0.009452832230522267,-0.19334400141234548]",100.0,"[-0.16078183935789025,-0.06762277322914623]",100.0,"[0.1510062032907861,-0.021844382990606665]",100.0,"[-0.09809191262552011,0.031736299663992516]",100.0,"[0.12314449274024712,0.09605971039821369]",100.0,"[-0.14257264049055546,-0.009934812077487127]",100.0,"[0.09540566957801727,-0.10452717209037946]",4.0,"[0.02,0.02]",295.1946,0.0,32.0,32.0,149.0,1.0,0.9505,,,,,,,,
,,,,,,,68398283a2f2b6f05f300540,683aeeee751871b78dd2d16e,2025-05-31_07h59.10.347,shape_ratio,2024.1.5,Win32,60.97560976,683ae9196541af24d3a69e58,,,,,,,,,,,295.196,295.6939,,,295.9453,296.3276,right,,,,,,,,0.55,,,,,,295.6941,295.9451,296.3281,"[0.089054506083076,-0.17144361595583074]",4.0,"[0.001725398217368284,-0.0006173148870529216]",4.0,"[0.1523076853989024,-0.08039685284980769]",100.0,"[-0.05150533967499958,-0.14165452717563168]",4.0,"[-0.12631243418579324,0.03917833954423013]",4.0,"[-0.07097361532508083,-0.05321268518037162]",4.0,"[0.07909265646103746,-0.09031343291467962]",100.0,"[-0.1788837113598617,0.04409596081063037]",100.0,"[0.10628350186019798,0.13658815674021507]",100.0,"[-0.12810597798043152,0.15178895489717745]",100.0,"[0.04312146283876871,-0.06258750028516875]",4.0,"[-0.08679075914099545,0.1678887871051913]",100.0,"[0.13792159934254447,-0.11775813760129694]",4.0,"[-0.0633055821871333,0.009308443672878515]",4.0,"[0.09913141114072005,-0.039174777407812465]",100.0,"[-0.019979576017281595,-0.06886945626648953]",100.0,"[-0.07440156854686304,-0.183253093491654]",100.0,"[-0.1545594991820615,-0.032188377980274116]",100.0,"[-0.16804437561917346,-0.08172663026566167]",4.0,"[0.11308566624959311,0.06394668981523494]",100.0,"[-0.013513513006455658,0.17614076192053918]",100.0,"[0.042208662884448585,-0.1781092471608851]",4.0,"[-0.1078054062970587,-0.013439483087757617]",100.0,"[0.13133343298892355,0.0037426857563476346]",4.0,"[0.015744775098374804,0.1443869664927128]",100.0,"[-0.10788449657524785,-0.13905953544448474]",4.0,"[-0.1063186841909331,0.1161081004154767]",4.0,"[-0.03240451424727127,0.09540059810908624]",4.0,"[0.1431007620540355,0.1029044615694045]",100.0,"[-0.06236166502111946,0.12631729006403405]",100.0,"[-0.09197230266347295,0.07045633216568391]",100.0,"[0.007177287873757733,-0.12087862877823438]",100.0,"[0.02,0.02]",297.4256,0.0,33.0,33.0,65.0,1.0,0.3673,,,,,,,,
,,,,,,,68398283a2f2b6f05f300540,683aeeee751871b78dd2d16e,2025-05-31_07h59.10.347,shape_ratio,2024.1.5,Win32,60.97560976,683ae9196541af24d3a69e58,,,,,,,,,,,297.4277,297.9249,,,298.1761,299.1228,left,,,,,,,,0.4,,,,,,297.925,298.176,299.123,"[-0.027029038911709335,-0.025350035090149835]",100.0,"[0.007767415324444172,0.15036217098739857]",100.0,"[-0.05591748973971947,0.19138816124527572]",4.0,"[0.15698846599315283,0.1197888922821649]",4.0,"[-0.10459896807430882,-0.0637237026943496]",4.0,"[0.13555295957781674,0.04932305367629671]",4.0,"[-0.04899836838124174,0.13684406549244627]",100.0,"[0.01903014649994171,0.04166525086496768]",100.0,"[-0.11275972954730086,0.023852000750260047]",4.0,"[0.14516985256555948,-0.018959596590919982]",4.0,"[0.06430742026012927,-0.026587073124832133]",4.0,"[-0.09404751662303432,-0.14307885339073312]",4.0,"[0.18858332454280105,-0.04376185062990828]",4.0,"[0.08063535920302832,0.06093516374037782]",4.0,"[-0.04919084247917738,-0.08372204911446933]",4.0,"[0.09916363055898761,-0.08783453825248691]",100.0,"[-0.029881644742888593,0.027145775194820265]",4.0,"[0.009400358221896355,-0.1075889146380085]",4.0,"[0.11392518830025572,0.13748426318599535]",100.0,"[-0.16255294517831956,-0.07395317063571302]",100.0,"[-0.15490875935821585,0.07796071102582715]",4.0,"[-0.1619977830171495,-0.01621666468127394]",4.0,"[-0.03492742857099985,0.07721925384164417]",4.0,"[-0.11003692578092919,0.0824256670494892]",4.0,"[0.08842109760965634,-0.1622895279371651]",100.0,"[0.028390585144072885,-0.16495877694978114]",100.0,"[0.10854641325536729,0.01634442146343812]",100.0,"[-0.019925724563460902,-0.16150914503302008]",4.0,"[0.05404319889653233,-0.10031250559623049]",100.0,"[0.14373830443777444,-0.11348068995329971]",4.0,"[0.03480223673571605,-0.06361650596987183]",100.0,"[0.04930241582950818,0.17161864086574521]",100.0,"[0.02,0.02]",300.2226,0.0,34.0,34.0,150.0,1.0,0.9359,,,,,,,,
,,,,,,,68398283a2f2b6f05f300540,683aeeee751871b78dd2d16e,2025-05-31_07h59.10.347,shape_ratio,2024.1.5,Win32,60.97560976,683ae9196541af24d3a69e58,,,,,,,,,,,300.2239,300.7221,,,300.9751,302.1574,right,,,,,,,,0.9,,,,,,300.7223,300.975,302.1575,"[0.04022474642553998,0.035468974549464495]",100.0,"[-0.07814078163162996,0.018073130673313353]",4.0,"[-0.08848668974700345,0.17389660573161622]",100.0,"[0.05558675812825195,-0.0057061209402737]",100.0,"[0.01543528115506321,0.0012937742514626015]",100.0,"[0.0018780350833813475,-0.1918310969189631]",100.0,"[-0.09540600635882689,-0.14697825274956502]",100.0,"[-0.027226283592163204,-0.026899085751849842]",100.0,"[0.08789505620305084,0.16204277053419197]",100.0,"[0.15271239022045197,0.012594375960567764]",100.0,"[-0.15926413790509814,-0.0005794147746769389]",100.0,"[0.059809869939388624,-0.10983312853610594]",100.0,"[0.08328510277834052,-0.16977988104897793]",100.0,"[-0.11453640693328906,-0.024549329136083486]",100.0,"[-0.0983260974556303,-0.08885666023166719]",100.0,"[0.047129657795801534,0.16948335446146864]",100.0,"[0.1783421946581342,-0.0709689278283029]",100.0,"[-0.0725541872697042,-0.03136311745294483]",100.0,"[-0.1754572199263343,0.05895470648887304]",100.0,"[0.11654232700214924,-0.1131268153368906]",100.0,"[-0.14569101468220416,0.1187410462597611]",100.0,"[-0.08653278971999023,0.12107731703148425]",4.0,"[0.11763012796174717,0.061473778012179806]",100.0,"[0.0034283811958989024,-0.1031371764215265]",100.0,"[-0.002977643897682629,0.13195221574489296]",4.0,"[0.03429924206142714,-0.1602308069571635]",100.0,"[-0.0023656857749267506,0.08542881867078644]",100.0,"[0.0035295434716688056,-0.06006532192036096]",100.0,"[0.0971854231414593,0.11642469391642353]",100.0,"[0.10713913394366628,-0.05335796369571818]",100.0,"[-0.1262752557618428,0.06377633649875918]",100.0,"[-0.1351779735286393,-0.06365441830806905]",100.0,"[0.02,0.02]",303.254,0.0,35.0,35.0,29.0,1.0,1.1635,,,,,,,,
,,,,,,,68398283a2f2b6f05f300540,683aeeee751871b78dd2d16e,2025-05-31_07h59.10.347,shape_ratio,2024.1.5,Win32,60.97560976,683ae9196541af24d3a69e58,,,,,,,,,,,303.2552,303.7527,,,304.0057,304.0383,left,,,,,,,,0.5,,,,,,303.7529,304.0056,304.0388,"[-0.03484843064754576,-0.1316759741798797]",100.0,"[0.130720395464326,-0.10673967717344539]",4.0,"[0.08477102420098873,0.12166477373414591]",4.0,"[0.029878488404996364,-0.019822635112029592]",100.0,"[-0.016130852604490896,0.19862911913619113]",100.0,"[-0.020909544572494165,0.07161563805230556]",100.0,"[0.1549198545700093,-0.05546798211947341]",100.0,"[0.025186003374171494,0.13313398108744187]",100.0,"[0.07908610378744023,-0.05176459671297885]",100.0,"[0.08970598039475242,-0.10482473063207959]",4.0,"[0.023008214643802812,-0.14855802134554733]",4.0,"[0.025713655060128546,0.08028870292288844]",4.0,"[-0.14928529238587193,0.003000296776703587]",100.0,"[0.002541794277240985,-0.050827296840809104]",100.0,"[-0.13134749101160217,0.10261986425752215]",100.0,"[0.14734240034399662,0.1078689323650497]",4.0,"[-0.04491308930701728,0.014791266763333984]",4.0,"[-0.04944211439316321,0.1483060235186614]",4.0,"[0.18294574816017803,0.02843764778914464]",4.0,"[-0.10271542880570378,-0.07452870736562894]",100.0,"[-0.17103377045642304,0.05646749964201164]",4.0,"[-0.0937562600694219,-0.004228174510560312]",100.0,"[0.12571423530695733,0.06860245202782941]",4.0,"[0.04804083331219577,0.021402757703047545]",100.0,"[0.12506982209589013,-0.15252182128892208]",4.0,"[-0.042295073657928804,-0.08939012740735024]",100.0,"[-0.03958779145006839,-0.17929429137860126]",4.0,"[-0.18575607160029128,-0.0355088991595023]",4.0,"[-0.11297267078167818,-0.12164799869424725]",4.0,"[-0.16398409194208366,-0.09683798550987875]",4.0,"[-0.08185419623957893,0.18013777936870584]",100.0,"[-0.12200908616778142,-0.03532054175856227]",100.0,"[0.02,0.02]",305.1355,0.0,36.0,36.0,119.0,1.0,0.0185,,,,,,,,
,,,,,,,68398283a2f2b6f05f300540,683aeeee751871b78dd2d16e,2025-05-31_07h59.10.347,shape_ratio,2024.1.5,Win32,60.97560976,683ae9196541af24d3a69e58,,,,,,,,,,,305.1374,305.6356,,,305.8851,305.9699,right,,,,,,,,0.45,,,,,,305.6356,305.885,305.9701,"[0.07267374182799002,-0.17812611948501944]",100.0,"[0.16188342543874018,-0.0021012390086712356]",100.0,"[-0.10813966405519947,-0.0006887206797946934]",100.0,"[0.12378309957411299,0.11473413669057131]",4.0,"[0.019799052437460166,-0.009951308558199841]",100.0,"[0.05757492823203274,0.16166867870146187]",4.0,"[-0.0791356926066897,-0.10102615882738666]",4.0,"[0.1903707078193685,0.04305773250448864]",4.0,"[0.1469256908328494,0.05952543226832286]",4.0,"[0.10441692022994478,0.014915449424976798]",4.0,"[-0.10265991823521368,0.12985791560842108]",100.0,"[0.003006893286337485,0.1776125341344289]",4.0,"[0.08898020195196209,-0.0755190846024934]",100.0,"[0.1367037615390477,-0.06382034251766935]",100.0,"[0.07351636706295882,0.12395545205474624]",4.0,"[-0.05718732621194799,-0.13635609675952845]",4.0,"[-0.09863147037874037,-0.060357763144384145]",4.0,"[0.012526707786571238,-0.0993893881854356]",100.0,"[-0.1170181449972212,0.055418179490214735]",100.0,"[-0.1917896806559744,0.021685806750129075]",4.0,"[-0.06460782401804813,0.17238831891135878]",4.0,"[0.08229904441598968,0.0752501332159592]",4.0,"[-0.056942367158810125,-0.0066042446448389665]",4.0,"[-0.1523133987497854,0.07441955157322454]",4.0,"[-0.03531486093374033,-0.19455431767086157]",4.0,"[-0.037221961131460875,0.08424597875090364]",100.0,"[0.035492743734045415,-0.13981155478920446]",4.0,"[-0.1600643321147076,-0.025133689239650994]",100.0,"[0.12828285207304943,-0.15078940437877678]",100.0,"[0.020444712907531883,0.06723705074979565]",100.0,"[0.08143175625105004,-0.03118870838510408]",4.0,"[-0.02950526237450346,0.14597285317820666]",100.0,"[0.02,0.02]",307.0665,0.0,37.0,37.0,120.0,1.0,0.0762,,,,,,,,
,,,,,,,68398283a2f2b6f05f300540,683aeeee751871b78dd2d16e,2025-05-31_07h59.10.347,shape_ratio,2024.1.5,Win32,60.97560976,683ae9196541af24d3a69e58,,,,,,,,,,,307.068,307.5659,,,307.8166,308.5481,right,,,,,,,,0.6,,,,,,307.5661,307.8164,308.5484,"[0.008847943560526027,0.13725772298340042]",4.0,"[0.17299670146126161,-0.056046551022681856]",4.0,"[0.13537450493007674,-0.12509021195853856]",100.0,"[0.15980844373863223,0.1042870478322136]",100.0,"[-0.13163486930405574,0.0868434297021028]",100.0,"[0.0840275832520499,-0.1745111531331319]",100.0,"[0.0669993391522867,0.09967052376862655]",100.0,"[-0.044711339835852494,0.04875898076593806]",100.0,"[0.06072716252233881,0.1811834596751398]",4.0,"[0.021050425475250278,0.07124058187805556]",100.0,"[-0.013803056807342855,0.01095323391890767]",100.0,"[-0.1260262677646625,-0.01028606754230922]",100.0,"[-0.04014245712184573,0.12379538794065743]",100.0,"[0.010542700976550893,-0.19533396232245617]",100.0,"[0.1556249778078175,-0.002748296195472791]",4.0,"[-0.04111443508194576,-0.19339114422984593]",4.0,"[0.05109399420826052,-0.11033471688852328]",4.0,"[-0.0771241262858414,-0.012609434118080208]",100.0,"[-0.030787081096402373,-0.1435553413507032]",4.0,"[-0.08269880972772195,0.1429227984835787]",100.0,"[0.08443594174613485,0.04120788800367442]",4.0,"[-0.08607684745933718,-0.06400436240934246]",100.0,"[-0.0485901674111836,0.19192480302651105]",4.0,"[0.11406597187223501,-0.05252743645390513]",100.0,"[-0.16839297614056506,-0.07519203221299917]",4.0,"[-0.13120139212289195,0.13699436691872255]",100.0,"[0.16155246065617737,0.06378610844640238]",4.0,"[0.10235227978973242,0.15457844474125684]",100.0,"[0.021083374774675052,-0.04184326727729724]",4.0,"[-0.11457545991052231,0.028491361446364057]",100.0,"[0.018927261683994587,0.1828281006197395]",100.0,"[0.051210478767222234,0.012463444371133538]",4.0,"[0.02,0.02]",309.6468,0.0,38.0,38.0,33.0,1.0,0.7213,,,,,,,,
,,,,,,,68398283a2f2b6f05f300540,683aeeee751871b78dd2d16e,2025-05-31_07h59.10.347,shape_ratio,2024.1.5,Win32,60.97560976,683ae9196541af24d3a69e58,,,,,,,,,,,309.6485,310.1463,,,310.3984,310.696,left,,,,,,,,0.55,,,,,,310.1464,310.3982,310.6966,"[0.007165104746608344,0.01183464228976134]",4.0,"[0.0014046918518000689,0.1021407025024846]",100.0,"[0.052141011684973246,-0.14262517853517043]",4.0,"[0.18309223578109143,-0.023508983764251316]",4.0,"[-0.034219280065938024,-0.13104312466255358]",100.0,"[0.02184136583921567,0.17152750928178048]",100.0,"[0.1615182996071313,-0.09033505183051506]",100.0,"[-0.0974749049678695,-0.1068861892766465]",100.0,"[-0.045311599966651045,-0.0024543271486531155]",100.0,"[-0.16983358150829214,-0.07581388104574105]",4.0,"[-0.11628812682307561,0.023790354009450013]",100.0,"[0.10606568030063505,-0.011167960758779776]",100.0,"[0.1037262849827373,-0.12072112626671458]",4.0,"[-0.13079829639851204,-0.13823916036916514]",4.0,"[-0.04896556701208373,0.04446773784541655]",100.0,"[-0.09691996033333763,0.07804479053371838]",100.0,"[-0.016075669826056398,0.19007142994562087]",100.0,"[-0.15171476345797758,-0.038433909831614085]",4.0,"[0.1522115449376658,0.10498229103473143]",4.0,"[-0.17951552972932372,0.00717282019506906]",4.0,"[-0.022131970240477954,0.1346994962176345]",4.0,"[0.06439412698751741,0.04710625063293178]",4.0,"[0.07634536665279333,0.13297397431416383]",100.0,"[0.10609047933709756,-0.06672048026401886]",100.0,"[-0.1674249637700656,0.06211269258991571]",4.0,"[-0.01381730380580297,-0.05313876800621742]",4.0,"[0.06538827662907565,-0.18105149271725787]",100.0,"[0.10799819778801666,-0.16764505695838128]",100.0,"[0.052430468327325876,0.0017078129872003234]",100.0,"[0.0003313831603815003,-0.178250717877686]",4.0,"[0.04862192889280843,-0.06067342650580837]",100.0,"[-0.10145902586668581,0.15937297248396973]",100.0,"[0.02,0.02]",311.7952,0.0,39.0,39.0,81.0,1.0,0.2829,,,,,,,,
,,,,,,,68398283a2f2b6f05f300540,683aeeee751871b78dd2d16e,2025-05-31_07h59.10.347,shape_ratio,2024.1.5,Win32,60.97560976,683ae9196541af24d3a69e58,,,,,,,,,,,311.7971,312.2946,,,312.5488,312.7833,right,,,,,,,,0.4,,,,,,312.2947,312.5488,312.7834,"[-0.014814726794760168,0.19094461600530982]",4.0,"[0.13112289263488794,-0.1254919363593046]",100.0,"[-0.04563740030655716,-0.05749776805978849]",4.0,"[0.005826889712644244,-0.0036858865733532817]",100.0,"[0.045092254136768976,-0.13293638465776406]",4.0,"[-0.1667338401704436,0.028170830584624176]",4.0,"[-0.08745062450962496,0.012365490308994058]",100.0,"[-0.03360847857154917,0.013335476902108286]",4.0,"[0.06708631251726935,-0.009085643126868033]",4.0,"[0.12494828749588037,0.07048031784667765]",4.0,"[0.17614719872647483,-0.06737123090608571]",4.0,"[-0.04659811994143347,0.14779475985618548]",4.0,"[0.11019706407260292,0.009911154597421644]",4.0,"[0.1875570153351071,0.020501861430385012]",100.0,"[-0.1453958800280686,0.08440906734143332]",4.0,"[0.02428665330525126,0.1775332112729973]",100.0,"[-0.1385090087390757,-0.12530957395620645]",100.0,"[0.10451407190372188,0.16789042917159847]",4.0,"[0.08051676149943293,-0.16767850778951227]",100.0,"[-0.03480307604893712,-0.11581882436450625]",4.0,"[-0.07643962770829447,0.09782147641551109]",100.0,"[0.010620609142194157,-0.17089710088053367]",100.0,"[-0.13043430172696713,-0.00039022122085622974]",100.0,"[-0.0951836568621152,-0.10248784141687946]",4.0,"[-0.149652798625228,-0.08435298353320661]",4.0,"[-0.10613438089434062,0.05621723555258952]",100.0,"[-0.018085846461230022,0.06079161465139835]",4.0,"[0.05011015012119994,0.062313255519893335]",4.0,"[-0.06258810222468465,0.185027253266052]",100.0,"[-0.13411531700822185,0.1411782411715952]",4.0,"[0.0552537872087835,-0.078114379727285]",100.0,"[0.011782094163275364,-0.05539514839921457]",4.0,"[0.02,0.02]",313.8769,0.0,40.0,40.0,164.0,1.0,0.2178,,,,,,,,
,,,,,,,68398283a2f2b6f05f300540,683aeeee751871b78dd2d16e,2025-05-31_07h59.10.347,shape_ratio,2024.1.5,Win32,60.97560976,683ae9196541af24d3a69e58,,,,,,,,,,,313.8786,314.3758,,,314.6272,315.3252,left,,,,,,,,0.4,,,,,,314.3762,314.6268,315.3254,"[0.0850367401920219,0.1433137052004396]",100.0,"[0.00679664148784289,-0.1754468623433273]",4.0,"[-0.15992573961306372,0.007389965964190168]",4.0,"[-0.05641576309452543,0.09547727696238216]",4.0,"[0.002928895317282511,-0.04123580938454008]",4.0,"[0.04311525634364267,-0.08498122536113753]",4.0,"[-0.14053211331703538,0.0676523959938073]",100.0,"[0.0926213084310454,0.050845084849380495]",4.0,"[0.15162994521835851,-0.03197875774755786]",4.0,"[-0.0028641244245623003,0.1642230164909357]",100.0,"[-0.048047305580425866,-0.10380595936699334]",100.0,"[-0.055400745462770566,0.14753397808945654]",100.0,"[0.13008747346069396,-0.14481169720859263]",4.0,"[0.1487214785503307,0.10558313552707015]",100.0,"[0.0953018498083217,-0.021090548889033847]",100.0,"[-0.013460631990000761,0.08664244599719605]",4.0,"[-0.07325280515993707,-0.13586518730726152]",4.0,"[-0.0742958857199108,-0.046637508643897804]",100.0,"[0.05798715374960275,0.001182541765767314]",100.0,"[-0.003324753052750289,-0.12090371677993614]",4.0,"[-0.18754590832445245,-0.061338825948229696]",100.0,"[-0.10648519116317552,-0.004861509987776279]",4.0,"[-0.0389264606634886,0.03173045547269606]",100.0,"[0.1593650352799774,-0.08361322123491162]",4.0,"[0.05674744251068751,0.10121191515832259]",4.0,"[0.18173423910518902,0.052402780379918724]",4.0,"[0.19386272313080846,-0.011044068248266023]",4.0,"[-0.03396705501583548,-0.1501578783781025]",4.0,"[-0.11269891513189824,-0.09837218494752965]",100.0,"[-0.18383662510604018,0.054891875388172515]",4.0,"[-0.13948101254906287,0.11281243471760491]",100.0,"[0.10461641388499374,-0.07365315194100101]",4.0,"[0.02,0.02]",316.4249,0.0,41.0,41.0,165.0,1.0,0.685,,,,,,,,
,,,,,,,68398283a2f2b6f05f300540,683aeeee751871b78dd2d16e,2025-05-31_07h59.10.347,shape_ratio,2024.1.5,Win32,60.97560976,683ae9196541af24d3a69e58,,,,,,,,,,,316.4264,316.9237,,,317.1786,318.0061,right,,,,,,,,0.9,,,,,,316.9239,317.1785,318.0063,"[0.03977595417846873,0.13258277689735365]",100.0,"[0.14550032114191788,-0.008024460867782376]",100.0,"[-0.12865635835826178,-0.015824820110064353]",100.0,"[0.02547736059252951,-0.17223478496076297]",100.0,"[0.14800788660067718,0.12335815961858212]",100.0,"[0.04534422621804942,0.03599766953022571]",4.0,"[0.09176567907405628,-0.03310102323089816]",100.0,"[0.1121401543042432,-0.13766139724426246]",100.0,"[0.18755664256509721,-0.04999988007185951]",100.0,"[-0.047366645715873935,-0.046662025048870015]",100.0,"[-0.05276244163447358,-0.08932030485848588]",100.0,"[-0.05976301788255615,0.16636961775990408]",100.0,"[-0.17117114377887033,0.0010831880873947103]",100.0,"[-0.10408218390077675,0.05641874321770091]",100.0,"[-0.12288509703759642,0.12425582696204909]",100.0,"[0.024566655692154445,0.08861324652216067]",100.0,"[0.10249871905029517,0.10242146501173767]",4.0,"[-0.010094025828853161,-0.07341334147208878]",100.0,"[-0.02272572903870884,-0.1621442723811421]",100.0,"[-0.04189438555689594,0.05040654670872946]",100.0,"[0.08791392756341453,0.04323487077655387]",100.0,"[-0.15159150111485858,-0.08784349629897939]",100.0,"[-0.10354439117857016,-0.0759508105794523]",100.0,"[0.03451904320871569,-0.09788514559276894]",100.0,"[-0.1930838967961671,-0.03664201702570694]",100.0,"[0.08453917651098383,-0.07939031353549923]",100.0,"[0.07204513100884448,-0.12081954633757347]",100.0,"[0.004941983813440272,-0.03550099692045109]",100.0,"[-0.15751311612212163,0.06693316328258624]",100.0,"[0.08407906034540055,0.14545327325196147]",100.0,"[-0.1063637506350822,-0.13886109497528998]",4.0,"[-0.056213466626166574,0.11972650588689418]",100.0,"[0.02,0.02]",319.1088,0.0,42.0,42.0,6.0,1.0,0.8069,,,,,,,,
,,,,,,,68398283a2f2b6f05f300540,683aeeee751871b78dd2d16e,2025-05-31_07h59.10.347,shape_ratio,2024.1.5,Win32,60.97560976,683ae9196541af24d3a69e58,,,,,,,,,,,319.1104,319.6038,,,319.856,320.1047,right,,,,,,,,0.5,,,,,,319.6042,319.8559,320.1048,"[-0.0769565668049917,0.02815719520124173]",4.0,"[0.00016352683444992416,-0.12476858871243603]",4.0,"[-0.17480005641778038,0.07591744477165843]",100.0,"[-0.13485215910198348,-0.09298175831755583]",4.0,"[0.0671443026643143,-0.09997468850862685]",4.0,"[0.0805004069217412,0.09999864730634972]",100.0,"[-0.03196551720708694,0.16727257335926352]",4.0,"[0.05719204593242484,0.14811869240088324]",100.0,"[0.10545887056439864,0.04227674168056896]",100.0,"[0.014290154614146233,-0.0598040674874107]",4.0,"[-0.09299947735399558,0.0948718092519912]",4.0,"[-0.060480128147981996,-0.18854681825585345]",100.0,"[-0.09092397423614484,-0.14532527974385465]",100.0,"[0.19045727160905596,0.02316304073550389]",100.0,"[-0.02521483315592757,-0.00017675005364415407]",100.0,"[-0.028107688251541432,-0.07138121702331725]",4.0,"[0.025690206531399973,0.022126808520701632]",100.0,"[0.009924541375865894,0.15446824147595206]",4.0,"[0.18833937034576098,-0.02098454239418451]",100.0,"[-0.10529086771809727,-0.021531055011930925]",100.0,"[0.13842273500818522,-0.08757951600917811]",100.0,"[0.11963531076618543,-0.028258116585961775]",4.0,"[0.05011737196566911,-0.146036755629976]",4.0,"[-0.05591940766501908,-0.12391088702831869]",4.0,"[0.16825105626538828,0.10275420596599215]",100.0,"[-0.09176536075620952,-0.0871133627057691]",4.0,"[-0.015555900002047192,0.04460746889213103]",4.0,"[0.08183793687125648,0.009522483372559119]",4.0,"[-0.05255857689909736,-0.03817670140076903]",100.0,"[-0.11027080440738792,0.16451719132011552]",100.0,"[0.1669147839810606,0.05865281289235373]",4.0,"[-0.019284588806697096,-0.17397292349358057]",100.0,"[0.02,0.02]",321.2033,0.0,43.0,43.0,97.0,1.0,0.2349,,,,,,,,
,,,,,,,68398283a2f2b6f05f300540,683aeeee751871b78dd2d16e,2025-05-31_07h59.10.347,shape_ratio,2024.1.5,Win32,60.97560976,683ae9196541af24d3a69e58,,,,,,,,,,,321.2046,321.702,,,321.9569,322.4516,left,,,,,,,,0.9,,,,,,321.7026,321.9568,322.4519,"[0.09340438471276012,-0.12182612191961675]",100.0,"[-0.04459697576210462,0.010625865692026238]",100.0,"[-0.07476644542678454,0.03931000025181717]",100.0,"[0.1248518537786495,0.0498777785259122]",100.0,"[-0.06741347954973652,-0.18522610013450894]",4.0,"[0.008824466723742085,0.16243302503896526]",100.0,"[0.047616677628667656,0.08683623357561539]",4.0,"[-0.09694164590955612,-0.13869325669554658]",100.0,"[0.03757402729901778,-0.018706321655057447]",100.0,"[-0.0968992291000895,0.08400359134195662]",100.0,"[0.11621943549826487,0.15911955051403254]",100.0,"[-0.10646241240233281,-0.022706608562537305]",100.0,"[0.00783794580850702,-0.05970037803444549]",100.0,"[0.0507541861603668,-0.11455531838573388]",100.0,"[-0.16579939856725237,-0.056252497047044034]",100.0,"[-0.03711927730878779,-0.06827332358934145]",100.0,"[0.19054711865331872,0.03498827951651389]",100.0,"[-0.024722065209203507,0.07002249308665186]",100.0,"[-0.027211106205528968,-0.16305824653803117]",100.0,"[0.13348314966212171,-0.030818991396820376]",100.0,"[-0.17208611187483924,0.08591213089812161]",100.0,"[0.0893020563939101,0.08871870386502566]",100.0,"[0.015354935934015216,0.02290211778111059]",100.0,"[0.04697758731958687,0.17578628361027338]",100.0,"[-0.12905805790399494,-0.11128763161343888]",100.0,"[-0.1848307637286171,0.00499074223204733]",100.0,"[0.05034225688545153,0.1341483185076096]",100.0,"[0.16228151907980926,0.08350538291699154]",100.0,"[0.01714152122242689,-0.19334432299617912]",100.0,"[-0.047104224367038414,0.1883774604611493]",4.0,"[0.06142781410398273,0.04343091043501581]",100.0,"[0.1803889689530913,-0.07246661038007102]",100.0,"[0.02,0.02]",323.551,0.0,44.0,44.0,9.0,1.0,0.4769,,,,,,,,
,,,,,,,68398283a2f2b6f05f300540,683aeeee751871b78dd2d16e,2025-05-31_07h59.10.347,shape_ratio,2024.1.5,Win32,60.97560976,683ae9196541af24d3a69e58,,,,,,,,,,,323.5526,324.05,,,324.3046,324.3499,left,,,,,,,,0.9,,,,,,324.0502,324.3046,324.35,"[-0.06328672318297426,0.05524233884513513]",4.0,"[-0.03641690434414257,-0.057858296411851286]",100.0,"[0.0693568753184517,-0.17142300120640755]",100.0,"[0.11330465097432423,-0.05424637518820758]",100.0,"[0.09440784562591803,0.07104790905334417]",100.0,"[-0.17073709199429432,-0.09432331201174748]",100.0,"[-0.07734820529210074,-0.11300730417784263]",100.0,"[0.13528060477711468,0.11640388093502485]",100.0,"[-0.0798301779938365,-0.025265328718272487]",100.0,"[0.13277220062887968,-0.13828226475319874]",4.0,"[0.05418723813579573,-0.04133049050180158]",100.0,"[0.026497318400084183,-0.1824831277450988]",100.0,"[-0.044378644319891615,0.1560482424159769]",100.0,"[-0.12885859067755379,-0.1070775653220302]",100.0,"[0.16091941240859953,-0.05257864007228101]",100.0,"[0.05447806118910467,0.17185783307639574]",4.0,"[0.19876014154094626,0.014650322815697855]",100.0,"[0.032838780804975584,-0.002294031999397672]",100.0,"[-0.01302778044209009,-0.1926943594551365]",100.0,"[-0.025174424063679722,-0.13459659833771667]",100.0,"[0.1512095893031892,-0.0051622894024263895]",100.0,"[-0.15914575452944466,0.015566665035261336]",100.0,"[-0.028264983978500757,0.01839640282505742]",100.0,"[0.19115332504577795,0.057504942867597546]",100.0,"[0.09842660167027159,-0.10499755450085467]",100.0,"[-0.1396685613521424,0.09351265778906102]",100.0,"[-0.047236021425989295,0.09481544278854867]",100.0,"[0.0979938047779294,0.0014920806015222268]",100.0,"[-0.008175716573465282,0.19509768881069625]",100.0,"[-0.16420555640819584,-0.05301668674684044]",100.0,"[-0.09735350580399935,0.11827230189665426]",100.0,"[0.024230099446182717,-0.13677432775176876]",100.0,"[0.02,0.02]",325.4482,0.0,45.0,45.0,10.0,1.0,0.0221,,,,,,,,
,,,,,,,68398283a2f2b6f05f300540,683aeeee751871b78dd2d16e,2025-05-31_07h59.10.347,shape_ratio,2024.1.5,Win32,60.97560976,683ae9196541af24d3a69e58,,,,,,,,,,,325.4502,325.9482,,,326.1999,326.3146,right,,,,,,,,0.9,,,,,,325.9484,326.1997,326.3148,"[-0.10787695231382094,0.03807430552541021]",100.0,"[0.03246451954404103,-0.11358870628252268]",100.0,"[0.15577406714565498,0.09484499757488646]",4.0,"[-0.030196319503297507,0.19764174101950316]",100.0,"[-0.13200132541395648,-0.0035223410854380807]",100.0,"[0.005030845909423385,0.137205168791725]",4.0,"[-0.015420215249153362,0.003866720621672159]",4.0,"[0.15496227217847533,0.023879866933136592]",100.0,"[-0.06718363843422966,0.13818325422408548]",100.0,"[0.06298508958172255,-0.006529538786063117]",100.0,"[0.11553196347249614,-0.10160156909932153]",100.0,"[-0.03903528452037385,-0.1615065682610354]",100.0,"[0.07202673963583714,0.1321896177580286]",100.0,"[-0.1507133884397199,0.12308021769527107]",100.0,"[0.01123652611516821,0.08574278520583155]",100.0,"[0.09491094326639433,0.09013575787247154]",100.0,"[-0.19024411007000733,0.0016641724269806414]",100.0,"[0.0766901262117531,-0.12664961934220753]",100.0,"[-0.06301665513382036,-0.09258401026762067]",100.0,"[0.054849100815630596,0.08874429856331563]",100.0,"[-0.03256534690988922,0.04130511197962778]",100.0,"[0.11513792722165417,0.031003690512756178]",100.0,"[0.17410359959703361,-0.05084483108348332]",100.0,"[-0.1380404262444295,-0.07503998460797834]",100.0,"[-0.08512032768394608,-0.014944037629380688]",100.0,"[-0.09055605110562559,0.09755871591517655]",100.0,"[0.10842442523271525,-0.1669074402845217]",100.0,"[0.06581332681623256,-0.07401597725651625]",100.0,"[-0.02520165078314602,-0.0776647179404164]",100.0,"[0.05055118419188762,0.17076729284368755]",100.0,"[-0.15024853140518438,-0.11916074147547881]",100.0,"[-0.05919816862373183,-0.04625222375452562]",100.0,"[0.02,0.02]",327.413,0.0,46.0,46.0,4.0,1.0,0.1012,,,,,,,,
,,,,,,,68398283a2f2b6f05f300540,683aeeee751871b78dd2d16e,2025-05-31_07h59.10.347,shape_ratio,2024.1.5,Win32,60.97560976,683ae9196541af24d3a69e58,,,,,,,,,,,327.4149,327.9122,,,328.1634,328.4123,left,,,,,,,,0.55,,,,,,327.9126,328.1632,328.4129,"[-0.035603204564950586,0.14518990874316953]",100.0,"[0.19228216038071852,-0.020926002465918345]",100.0,"[-0.1464964799959396,0.025505004341446855]",4.0,"[-0.14144330445550843,-0.0744653316351847]",100.0,"[-0.1247876429962521,0.06828535543018548]",100.0,"[0.07969082264448223,0.030836475373950675]",100.0,"[0.11810396510882422,0.11549779388561213]",4.0,"[0.01905989891710094,-0.17728874520574084]",100.0,"[-0.09900165278760525,0.10018436956448835]",100.0,"[0.012247504559690205,0.08476113850785387]",100.0,"[0.08551328090167974,0.08868294163957774]",100.0,"[0.0462428317442257,0.13640802257140167]",4.0,"[0.025360375243359306,-0.019306589401869186]",4.0,"[0.18014458143108955,-0.07605333369883677]",4.0,"[-0.01234625600661228,-0.048179340041297126]",100.0,"[0.07205215498845645,-0.0097003219989143]",100.0,"[-0.07717606772813422,0.03346048419809151]",4.0,"[-0.05449748498117726,0.0711796735076648]",4.0,"[-0.16386570168426223,0.10402758012294319]",4.0,"[0.06619982126717586,-0.1276120446633894]",100.0,"[-0.018432990052843275,0.04614913146623413]",100.0,"[0.006837157011564252,-0.10591570367415794]",4.0,"[-0.06104721107863436,-0.009944130465515942]",100.0,"[-0.0535906294726491,-0.0732856618567056]",100.0,"[-0.027594557960588316,-0.12764090559210417]",100.0,"[0.04643557887917024,0.18339864861561553]",4.0,"[-0.09335109428721639,-0.10908651045074828]",4.0,"[0.09507235944718109,-0.16910869059610698]",100.0,"[-0.16590473259895452,-0.11117673473853326]",4.0,"[-0.04848209002195236,-0.17335451265662905]",4.0,"[0.10964050007733081,0.15667902664779387]",100.0,"[-0.014955406054637268,-0.006792488592840262]",4.0,"[0.02,0.02]",329.5108,0.0,47.0,47.0,75.0,1.0,0.2368,,,,,,,,
,,,,,,,68398283a2f2b6f05f300540,683aeeee751871b78dd2d16e,2025-05-31_07h59.10.347,shape_ratio,2024.1.5,Win32,60.97560976,683ae9196541af24d3a69e58,,,,,,,,,,,329.5124,330.0105,,,330.2646,330.2938,left,,,,,,,,0.5,,,,,,330.0106,330.2645,330.2943,"[-0.138878653478161,-0.13456183825805648]",100.0,"[-0.07585822506331309,-0.0035684238198236957]",100.0,"[0.11593209296987396,-0.14755860202930826]",100.0,"[0.011146027657790958,-0.05803601861682159]",100.0,"[-0.03327471713250896,0.07678392717544263]",100.0,"[-0.1595986761281758,-0.017622738217505568]",4.0,"[0.14571276428658134,-0.029787763781544498]",100.0,"[0.043621283821583305,0.10358975372433082]",4.0,"[0.1357704210710768,0.13275791567821413]",100.0,"[0.10559357569493748,-0.0971240459801996]",4.0,"[0.12369167309337152,0.01229151230469215]",100.0,"[0.006184735612116452,0.19893459701570712]",100.0,"[-0.04128504754223824,0.14869832790688234]",4.0,"[0.014997179527843005,-0.10416451252039372]",100.0,"[0.042634994026611146,-0.0184411333547752]",4.0,"[-0.12936697555799576,0.1481149067330035]",100.0,"[-0.08320442400292997,-0.1387221162405476]",4.0,"[0.059384224303433264,-0.17113707119357605]",100.0,"[0.009709971472956639,0.015356025741191987]",4.0,"[-0.14617469245683548,0.0762998881446009]",4.0,"[0.03678406067680886,0.049552879968732026]",4.0,"[-0.10187564958890657,0.09168438055588123]",100.0,"[-0.033242839721575594,-0.1878743914064618]",4.0,"[-0.12602356000926898,-0.06821504097730101]",100.0,"[-0.036079686728327835,0.011442790132343717]",4.0,"[0.06848379203143112,-0.08089928006818252]",4.0,"[0.10214488304305593,0.07126713505781655]",100.0,"[0.061050609938412125,0.18937850715412816]",100.0,"[0.17635991993960318,-0.07318841924198383]",4.0,"[-0.041147546787847676,-0.028274818347767378]",4.0,"[-0.10534437033541184,0.030690575196901937]",4.0,"[0.08145536425137512,0.12116593687985584]",4.0,"[0.02,0.02]",331.3933,0.0,48.0,48.0,102.0,1.0,0.0083,,,,,,,,
,,,,,,,68398283a2f2b6f05f300540,683aeeee751871b78dd2d16e,2025-05-31_07h59.10.347,shape_ratio,2024.1.5,Win32,60.97560976,683ae9196541af24d3a69e58,,,,,,,,,,,331.3948,331.8947,,,332.1426,332.3589,right,,,,,,,,0.55,,,,,,331.8948,332.1425,332.3597,"[-0.08785151119792126,0.054243887562874966]",100.0,"[-0.16983808638373055,-0.009647912607353872]",4.0,"[-0.03843841409079257,0.0995881850376863]",4.0,"[-0.17505174853672212,-0.05688264696050046]",100.0,"[-0.0919556697526333,-0.08320404039283506]",100.0,"[0.1677181228451432,-0.08546216211916904]",4.0,"[0.16651603713365176,0.003011183597007357]",4.0,"[0.09120622743091361,-0.08344207988230125]",100.0,"[0.1374813205883034,-0.1416992300977124]",100.0,"[0.031191250920487017,-0.047649020826981206]",4.0,"[0.12706227005095286,-0.03229581092615617]",100.0,"[-0.1574256367213712,0.03626192866334741]",4.0,"[-0.07390643930906972,-0.12422689921309664]",100.0,"[0.0732191702023544,0.12419160072153436]",4.0,"[-0.09941106513925242,0.1116020203518403]",100.0,"[-0.07565751156912427,0.17297522087431905]",4.0,"[0.1579379625333835,0.09708798523439283]",100.0,"[-0.0597784753514136,0.0008968865211809196]",100.0,"[0.19329853547925202,-0.04223823588367511]",4.0,"[0.0886625754565599,0.06591815981075697]",100.0,"[-0.025995599236344268,0.05436238347937684]",4.0,"[-0.05949885344939028,-0.17922786171315094]",100.0,"[-0.11381981234007879,-0.11985705534769305]",100.0,"[-0.037389866727964856,0.13973983008282112]",100.0,"[0.012675905191012101,0.02329696711583513]",100.0,"[0.008151806039470012,-0.12596526925817444]",100.0,"[0.10967206482201652,0.006930129742335335]",100.0,"[0.011388692494379163,-0.19009005985970015]",4.0,"[0.008061736037932386,0.10160199340196129]",4.0,"[-0.03617108897588756,0.1851898300785086]",4.0,"[0.11366725118700838,0.12591355515444083]",100.0,"[-0.014033653683108046,-0.053957120486858016]",4.0,"[0.02,0.02]",333.4573,0.0,49.0,49.0,73.0,1.0,0.203,,,,,,,,
