right,left,explain.started,explain.stopped,key_resp_3.keys,key_resp_3.rt,key_resp_3.duration,participant,session,date,expName,psychopyVersion,OS,frameRate,study_id,explain_2.started,explain_2.stopped,key_resp_4.keys,key_resp_4.rt,key_resp_4.duration,explain_3.started,explain_3.stopped,key_resp_5.keys,key_resp_5.rt,key_resp_5.duration,fixation.started,fixation.stopped,practice.started,practice.stopped,response.started,response.stopped,key_resp.keys,feedback.started,feedback.stopped,trials_2.thisRepN,trials_2.thisTrialN,trials_2.thisN,trials_2.thisIndex,trials_2.ran,dot_ratio,key_resp.rt,key_resp.duration,explain_4.started,explain_4.stopped,key_resp_6.keys,key_resp_6.rt,key_resp_6.duration,dotDisplay.started,dotDisplay.stopped,ITI.started,polygon_1.pos,polygon_1.edges,polygon_2.pos,polygon_2.edges,polygon_3.pos,polygon_3.edges,polygon_4.pos,polygon_4.edges,polygon_5.pos,polygon_5.edges,polygon_6.pos,polygon_6.edges,polygon_7.pos,polygon_7.edges,polygon_8.pos,polygon_8.edges,polygon_9.pos,polygon_9.edges,polygon_10.pos,polygon_10.edges,polygon_11.pos,polygon_11.edges,polygon_12.pos,polygon_12.edges,polygon_13.pos,polygon_13.edges,polygon_14.pos,polygon_14.edges,polygon_15.pos,polygon_15.edges,polygon_16.pos,polygon_16.edges,polygon_17.pos,polygon_17.edges,polygon_18.pos,polygon_18.edges,polygon_19.pos,polygon_19.edges,polygon_20.pos,polygon_20.edges,polygon_21.pos,polygon_21.edges,polygon_22.pos,polygon_22.edges,polygon_23.pos,polygon_23.edges,polygon_24.pos,polygon_24.edges,polygon_25.pos,polygon_25.edges,polygon_26.pos,polygon_26.edges,polygon_27.pos,polygon_27.edges,polygon_28.pos,polygon_28.edges,polygon_29.pos,polygon_29.edges,polygon_30.pos,polygon_30.edges,polygon_31.pos,polygon_31.edges,polygon_32.pos,polygon_32.edges,dot_size,ITI.stopped,trials.thisRepN,trials.thisTrialN,trials.thisN,trials.thisIndex,trials.ran,break_2.started,break_2.stopped,trials_3.thisRepN,trials_3.thisTrialN,trials_3.thisN,trials_3.thisIndex,trials_3.ran
subject chose diamond,subject chose dot,0.0003,30.8274,space,15.8,,683b5b1a56674ca7248af790,684428b6f6b0f08d2aa35dbf,2025-06-07_08h00.14.057,shape_ratio,2024.1.5,Win32,60.24096386,684250e4f00cb30b92d1fa88,,,,,,,,,,,,,,,,,,,,,,,,,,,,,,,,,,,,,,,,,,,,,,,,,,,,,,,,,,,,,,,,,,,,,,,,,,,,,,,,,,,,,,,,,,,,,,,,,,,,,,,,,,,,,,,,,
,,,,,,,683b5b1a56674ca7248af790,684428b6f6b0f08d2aa35dbf,2025-06-07_08h00.14.057,shape_ratio,2024.1.5,Win32,60.24096386,684250e4f00cb30b92d1fa88,30.828,62.6755,space,1.829,,,,,,,,,,,,,,,,,,,,,,,,,,,,,,,,,,,,,,,,,,,,,,,,,,,,,,,,,,,,,,,,,,,,,,,,,,,,,,,,,,,,,,,,,,,,,,,,,,,,,,,,,,,,,
,,,,,,,683b5b1a56674ca7248af790,684428b6f6b0f08d2aa35dbf,2025-06-07_08h00.14.057,shape_ratio,2024.1.5,Win32,60.24096386,684250e4f00cb30b92d1fa88,,,,,,62.6761,68.3978,space,2.7117,,,,,,,,,,,,,,,,,,,,,,,,,,,,,,,,,,,,,,,,,,,,,,,,,,,,,,,,,,,,,,,,,,,,,,,,,,,,,,,,,,,,,,,,,,,,,,,,,,,,,,,,
,,,,,,,683b5b1a56674ca7248af790,684428b6f6b0f08d2aa35dbf,2025-06-07_08h00.14.057,shape_ratio,2024.1.5,Win32,60.24096386,684250e4f00cb30b92d1fa88,,,,,,,,,,,68.4325,68.9146,68.9152,69.1485,69.1488,70.6498,,70.65,71.7509,0.0,0.0,0.0,0.0,1.0,0.2,,,,,,,,,,,,,,,,,,,,,,,,,,,,,,,,,,,,,,,,,,,,,,,,,,,,,,,,,,,,,,,,,,,,,,,,,,,,,,,,,,,,,,,,
,,,,,,,683b5b1a56674ca7248af790,684428b6f6b0f08d2aa35dbf,2025-06-07_08h00.14.057,shape_ratio,2024.1.5,Win32,60.24096386,684250e4f00cb30b92d1fa88,,,,,,,,,,,71.7516,72.2511,72.2512,72.5019,72.502,73.1022,right,73.1024,74.2031,0.0,1.0,1.0,1.0,1.0,0.8,0.5831,,,,,,,,,,,,,,,,,,,,,,,,,,,,,,,,,,,,,,,,,,,,,,,,,,,,,,,,,,,,,,,,,,,,,,,,,,,,,,,,,,,,,,,
,,,,,,,683b5b1a56674ca7248af790,684428b6f6b0f08d2aa35dbf,2025-06-07_08h00.14.057,shape_ratio,2024.1.5,Win32,60.24096386,684250e4f00cb30b92d1fa88,,,,,,,,,,,,,,,,,,,,,,,,,,,,74.2036,80.7933,space,3.5847,,,,,,,,,,,,,,,,,,,,,,,,,,,,,,,,,,,,,,,,,,,,,,,,,,,,,,,,,,,,,,,,,,,,,,,,,,,,,,,,,,
,,,,,,,683b5b1a56674ca7248af790,684428b6f6b0f08d2aa35dbf,2025-06-07_08h00.14.057,shape_ratio,2024.1.5,Win32,60.24096386,684250e4f00cb30b92d1fa88,,,,,,,,,,,80.8126,81.2936,,,81.5446,81.6773,right,,,,,,,,0.4,0.1283,,,,,,,81.2942,81.5445,81.6779,"[0.04882818174384277,-0.0625670346255487]",4.0,"[0.0157032425793401,0.05966812313895356]",4.0,"[0.14887620369148508,-0.05961671450073968]",4.0,"[-0.0462228886567596,-0.0956600908269717]",4.0,"[-0.14964840348530084,0.04963474825468061]",100.0,"[0.04329313231051547,0.1778626358391225]",100.0,"[-0.07989998203313821,-0.15686108315124142]",4.0,"[-0.01799570446421593,0.11451091103732772]",100.0,"[0.011058409681709487,0.0009012314037791575]",4.0,"[0.1261323174219289,0.04329884872412626]",100.0,"[0.05654637004238562,0.12504808167258105]",100.0,"[0.008669611193971069,-0.0971456515387982]",4.0,"[-0.17298356134662204,-0.05157478518492338]",4.0,"[-0.04970029587037021,0.04911704956020522]",4.0,"[-0.06312943166316011,0.17110135013083197]",100.0,"[0.10658650190400723,-0.11928680847962962]",4.0,"[0.10896004236325446,-0.0011269948734883412]",100.0,"[0.06754958312512081,0.06725745476318205]",100.0,"[0.11044336618965409,0.11027265380796077]",4.0,"[0.005493431343026189,-0.16378975780914456]",4.0,"[0.05006908771667392,0.022656158951864677]",4.0,"[0.09718233719206519,0.15558003974380755]",100.0,"[0.08294087436711889,-0.15549611280298603]",4.0,"[-0.10533050161955158,0.0812526800224931]",4.0,"[0.06103452851449338,-0.11036721478283995]",4.0,"[-0.05395278155966585,-0.1908024872313408]",100.0,"[0.18074820678163844,-0.029298670208700004]",100.0,"[-0.059893810933505896,-0.00783211258592103]",4.0,"[0.16308214830537138,0.09223848882483497]",4.0,"[-0.1133532163697643,-0.06539541752169675]",100.0,"[-0.06577979158608932,0.09801749288360893]",4.0,"[-0.1640489893605383,-0.11269527205096272]",100.0,"[0.02,0.02]",82.7786,0.0,0.0,0.0,178.0,1.0,,,,,,,
,,,,,,,683b5b1a56674ca7248af790,684428b6f6b0f08d2aa35dbf,2025-06-07_08h00.14.057,shape_ratio,2024.1.5,Win32,60.24096386,684250e4f00cb30b92d1fa88,,,,,,,,,,,82.779,83.2788,,,83.5298,83.7128,left,,,,,,,,0.5,0.1672,,,,,,,83.2789,83.5297,83.7128,"[-0.10799170083391321,0.04125045117647417]",100.0,"[-0.10426681127754621,0.15028909645828864]",100.0,"[0.12771336152458765,0.12136428639332482]",4.0,"[0.01389804813649863,0.13138043458762394]",100.0,"[-0.054098062583838334,-0.025142898126050684]",100.0,"[0.05155018183261384,-0.06890615686789017]",100.0,"[-0.03453028595486478,0.16112367381112389]",4.0,"[0.1655435981342977,-0.06465970805633087]",100.0,"[0.02651497932180309,0.08803111087870347]",4.0,"[-0.10186609503467906,-0.06894874954004744]",4.0,"[0.03544604129699757,0.19268148925187814]",4.0,"[0.15110050066019506,-0.01677479574453327]",4.0,"[0.07581924800524599,0.05237944646911296]",4.0,"[-0.048347312981570224,0.06760724481189927]",100.0,"[0.0781464582739494,0.15946224639059858]",4.0,"[-0.02552940010973216,-0.07066544224478859]",4.0,"[0.03792402175781445,-0.022420842343046598]",100.0,"[-0.08930728912270829,0.0031769654454969947]",4.0,"[0.1484892400948247,0.024603949697067796]",100.0,"[0.12080954078214301,-0.1078522108719052]",100.0,"[0.024787097063243148,-0.18394047297266541]",100.0,"[-0.1564605675368393,-0.0037006627008702698]",100.0,"[-0.027559481439147406,-0.14950080491387405]",100.0,"[-0.08258709638003878,-0.1816181264460287]",4.0,"[0.10256835130855795,-0.02386546562117077]",100.0,"[-0.17929914608379766,0.057493267934731584]",4.0,"[-0.16553194182578365,-0.10851048302698796]",4.0,"[0.10748268043221008,-0.14964175803571853]",4.0,"[0.07886038708584117,-0.09859873260936183]",4.0,"[0.19673759068035013,0.013774918081479478]",100.0,"[0.0745040970256199,0.005996389142379687]",100.0,"[-0.052220552144437694,0.11118270379746127]",4.0,"[0.02,0.02]",84.8137,0.0,1.0,1.0,91.0,1.0,,,,,,,
,,,,,,,683b5b1a56674ca7248af790,684428b6f6b0f08d2aa35dbf,2025-06-07_08h00.14.057,shape_ratio,2024.1.5,Win32,60.24096386,684250e4f00cb30b92d1fa88,,,,,,,,,,,84.814,85.3142,,,85.565,85.9483,right,,,,,,,,0.55,0.3693,,,,,,,85.3143,85.565,85.9485,"[-0.0942448295504082,0.14495925599936735]",100.0,"[-0.04123095860695656,0.08377479764740361]",4.0,"[-0.023527506070099746,0.019763860648265144]",100.0,"[0.14579546916991037,0.061571766805852954]",4.0,"[0.13493614357533756,0.14184711744347248]",100.0,"[-0.0925456213441478,-0.15441543858740847]",100.0,"[0.028996533569402592,0.06917678606881353]",100.0,"[-0.15941672639586435,0.1103978605273788]",100.0,"[0.1794517735382168,0.08787028107310599]",4.0,"[-0.12447837203659688,-0.11127816429204206]",100.0,"[-0.18833555462493845,-0.05390831764639815]",100.0,"[0.16750586186003696,-0.005575786800338887]",4.0,"[0.016649520834691945,-0.08344325181127367]",4.0,"[-0.02087064055420543,-0.13124588326510417]",4.0,"[-0.049999196720993365,-0.03322057655329052]",100.0,"[0.09462036763519446,-0.0750698638482091]",100.0,"[0.06075625465035845,0.03160037829472499]",100.0,"[0.03575217029444216,-0.14302822038828186]",100.0,"[0.06952798609111052,0.15442400974532813]",100.0,"[0.1895921340622924,0.044936385791913114]",100.0,"[0.046576045353574166,-0.044683514611089936]",100.0,"[-0.13872339596022473,0.054099645930741985]",100.0,"[-0.10903160841244917,0.08227258937019297]",4.0,"[0.1252824634241942,-0.10599241546796667]",4.0,"[-0.054425356686217334,0.12315623934569178]",4.0,"[0.0730604955732042,-0.11978574493095462]",100.0,"[-0.1735206635051605,-0.01067862036298422]",4.0,"[-0.08076839990648292,0.049681109038495]",4.0,"[0.0036651569674438673,-0.18711388786198238]",4.0,"[-0.06798618497557597,0.17690473909190066]",4.0,"[-0.11676529692529174,0.019030925754608918]",100.0,"[0.17408577560272823,-0.059853156960669555]",4.0,"[0.02,0.02]",87.0493,0.0,2.0,2.0,60.0,1.0,,,,,,,
,,,,,,,683b5b1a56674ca7248af790,684428b6f6b0f08d2aa35dbf,2025-06-07_08h00.14.057,shape_ratio,2024.1.5,Win32,60.24096386,684250e4f00cb30b92d1fa88,,,,,,,,,,,87.05,87.5498,,,87.8029,87.8836,left,,,,,,,,0.9,0.059,,,,,,,87.5498,87.8029,87.8837,"[-0.10730832524211752,-0.1218502939939117]",100.0,"[0.002414765247173117,-0.03261815104953539]",100.0,"[-0.1641201202574273,0.11412332079843013]",100.0,"[-0.06708966058083378,0.01626439791462609]",100.0,"[-0.0629444312302406,-0.095219659106185]",100.0,"[-0.04342116652583625,0.1577658821437298]",100.0,"[0.059447135684018694,0.12895504747630085]",100.0,"[-0.10337717852401926,-0.0599868548283948]",100.0,"[0.05618159669391469,-0.11969475582990913]",100.0,"[0.023621783112648027,0.025608573572326234]",100.0,"[0.1132407457958355,-0.1387265392760159]",4.0,"[-0.018507609163733067,-0.0705548031770531]",100.0,"[0.03144474475826544,0.08169227356476695]",100.0,"[0.08777737824776176,-0.01940925400882078]",100.0,"[0.16610763585549115,0.09363608744038102]",100.0,"[-0.08219193187308153,-0.15756374148058017]",4.0,"[0.011541939153258206,0.14166848424199652]",100.0,"[-0.08766921472723369,0.07011632772229572]",100.0,"[0.0613347526160331,-0.19021940142632013]",100.0,"[0.1668296969221771,-0.04749029133160397]",100.0,"[-0.014644286320192566,-0.16531972335543083]",100.0,"[-0.1816857292835047,-0.030385850928538405]",100.0,"[0.11333738180517657,0.15954787857179847]",100.0,"[-0.15158956234061247,-0.09140009904677426]",100.0,"[-0.14381090228228852,0.06962716541943315]",100.0,"[0.12953426855177325,0.03801737933638901]",100.0,"[-0.018858964935515105,0.037799584800913236]",100.0,"[-0.08446947321501264,0.1161352414149032]",100.0,"[0.04485533615822431,-0.05041503497687822]",100.0,"[-0.09957174832847072,-0.017553588394740506]",4.0,"[0.10546858164305616,-0.08005913216732753]",100.0,"[-0.0038581079707176126,-0.11357537684008247]",100.0,"[0.02,0.02]",88.9845,0.0,3.0,3.0,20.0,1.0,,,,,,,
,,,,,,,683b5b1a56674ca7248af790,684428b6f6b0f08d2aa35dbf,2025-06-07_08h00.14.057,shape_ratio,2024.1.5,Win32,60.24096386,684250e4f00cb30b92d1fa88,,,,,,,,,,,88.9851,89.4851,,,89.7395,89.8523,right,,,,,,,,0.55,0.0915,,,,,,,89.4851,89.7395,89.8523,"[-0.07407160924139025,-0.054787253476979075]",100.0,"[0.09134829057777326,-0.04950205297522677]",4.0,"[0.058515494887372725,-0.07261957084838844]",100.0,"[-0.09307941344716177,0.04804830880637423]",100.0,"[-0.13357973311581514,0.02615398933473216]",4.0,"[0.048697894898381576,0.18920800195487522]",100.0,"[0.0033465780305444127,0.05376954821699757]",100.0,"[-0.0034129043853793947,-0.07669825434762254]",4.0,"[0.058208486434085736,-0.18124012881564847]",4.0,"[-0.19771249813662742,-0.00229233687172805]",100.0,"[0.08942024650484903,0.028115361870846508]",100.0,"[0.16840379405104428,0.08300134722968384]",4.0,"[-0.1354766278103704,-0.07701568693107508]",100.0,"[-0.012140956911445292,-0.1860858255251736]",100.0,"[-0.11894910495895583,-0.13334902979263294]",100.0,"[-0.10924859278892363,0.10923738693329897]",100.0,"[0.0822571503528494,-0.13142226271448645]",4.0,"[0.11431142290040065,-0.0098106968316901]",4.0,"[-0.012082726754670415,0.18557135078093623]",100.0,"[0.13680913434286177,-0.10033038413860632]",4.0,"[0.07869788279522573,0.07510778633042185]",100.0,"[0.07486504162557868,0.1344000470500156]",4.0,"[0.19610140012898533,-0.008790234043045046]",4.0,"[0.16856393782118798,0.03906480266660186]",100.0,"[-0.12033806217495366,-0.037049238959265623]",4.0,"[-0.0071656196379393374,-0.1277865418911479]",100.0,"[-0.1913985949652588,-0.05569207186731629]",100.0,"[-0.04680750738629235,0.10299369416788312]",4.0,"[-0.16160177787144137,0.08173307885047569]",100.0,"[-0.043094843728960525,0.047750010774269755]",100.0,"[-0.07022244214225609,0.004413612126988876]",4.0,"[-0.0591374707295364,-0.14371076115934064]",4.0,"[0.02,0.02]",90.9534,0.0,4.0,4.0,79.0,1.0,,,,,,,
,,,,,,,683b5b1a56674ca7248af790,684428b6f6b0f08d2aa35dbf,2025-06-07_08h00.14.057,shape_ratio,2024.1.5,Win32,60.24096386,684250e4f00cb30b92d1fa88,,,,,,,,,,,90.9538,91.4537,,,91.7066,91.9711,left,,,,,,,,0.6,0.2341,,,,,,,91.4537,91.7065,91.9711,"[-0.12459342471035013,0.10708919869838546]",100.0,"[0.03632736590070874,0.011345442245494964]",100.0,"[0.050053236405835276,-0.1550113967907963]",100.0,"[0.06750485498533511,-0.030999971542062865]",100.0,"[-0.03448804658821614,-0.15489504745485091]",100.0,"[0.12883438822710402,0.0008618303163851107]",4.0,"[0.18464669118442686,-0.00893051779565075]",4.0,"[0.143136915395327,-0.10473997905492079]",4.0,"[0.12724334763302908,0.04278129172452703]",4.0,"[0.022118654034320243,0.17598621852517093]",4.0,"[-0.013076260412782596,-0.1198825391789189]",100.0,"[0.0024684105099704277,0.11215681056736819]",4.0,"[0.11987516437965665,0.1240010178741172]",4.0,"[-0.12865348185222353,-0.12739450883225817]",4.0,"[-0.06470592938590498,0.09151465362126547]",100.0,"[-0.18539359884275336,0.04532649536259969]",100.0,"[0.011598910680454676,-0.16714434148195276]",100.0,"[0.02711123337348222,-0.06414650893925698]",100.0,"[-0.09622789727004935,-0.08176333697213685]",4.0,"[-0.061091980346240485,-0.018982848353013445]",4.0,"[0.04414530425199556,0.1285662800954394]",100.0,"[-0.09289968566243266,0.17642500386937954]",100.0,"[-0.10913855639885545,0.029906113143296928]",100.0,"[-0.07329048225882563,0.13907548865932373]",4.0,"[-0.01283638628711047,0.04015623520555628]",100.0,"[-0.12141137206071748,-0.026122294733323514]",100.0,"[0.05442392053330548,0.07890484138413019]",100.0,"[-0.07281002113010403,-0.18531436515212446]",100.0,"[-0.024899317385623662,0.18084585944648504]",4.0,"[-0.18283480054910445,-0.04809366610643904]",100.0,"[0.09983234472645483,-0.1343828387786542]",4.0,"[0.06428640634348462,-0.10118441922078567]",100.0,"[0.02,0.02]",93.072,0.0,5.0,5.0,39.0,1.0,,,,,,,
,,,,,,,683b5b1a56674ca7248af790,684428b6f6b0f08d2aa35dbf,2025-06-07_08h00.14.057,shape_ratio,2024.1.5,Win32,60.24096386,684250e4f00cb30b92d1fa88,,,,,,,,,,,93.0724,93.5724,,,93.8265,94.1732,right,,,,,,,,0.5,0.3172,,,,,,,93.5725,93.8265,94.1733,"[-0.03603861927971136,-0.1421387164474239]",4.0,"[-0.08997787849766971,0.13738239464393112]",100.0,"[0.14746655773121733,-0.10954468910118517]",100.0,"[-0.14762922214023133,0.13373798879089813]",100.0,"[-0.14084111340894867,0.018395368440177057]",100.0,"[0.14732861200634992,0.10085443779577095]",4.0,"[-0.03709577702039953,0.1101501921791783]",100.0,"[0.0699256045776127,-0.09184586986014892]",4.0,"[-0.093249011450016,-0.1420142904232366]",4.0,"[0.08501729626453942,-0.142803385900968]",100.0,"[-0.08015542832824499,-0.07013423865305217]",4.0,"[-0.023599152826804415,-0.0514253660516005]",100.0,"[-0.04481868676613027,0.01724318987876902]",100.0,"[-0.14039185361223627,-0.03591544808761123]",4.0,"[0.06853359278853774,0.01230432112084678]",4.0,"[0.11588973871141367,0.03827886186779056]",100.0,"[-0.027231890712573432,0.15433092846453655]",100.0,"[-0.09697579247040672,0.05138944306662929]",100.0,"[0.18522470528650153,0.01279881360662541]",4.0,"[-0.01679690516360226,0.06057375106961491]",4.0,"[0.06540244693743244,0.1240510703407567]",4.0,"[-0.1367757866639818,0.07106575933054471]",100.0,"[0.01654331011257748,-0.08354020688877332]",100.0,"[0.02202139689593461,-0.03329879064854938]",4.0,"[-0.18664302656787984,-0.034212166888285316]",4.0,"[0.17649965532398862,-0.03966764265996882]",4.0,"[0.08239056755289342,0.17396487128863034]",100.0,"[-0.16342135967176938,-0.0770813899645201]",4.0,"[-0.1824474989483555,0.018827697233079324]",100.0,"[0.033000888421503505,-0.18965599997053756]",4.0,"[-0.13537479584555337,-0.11831696382675712]",4.0,"[0.015930314874699196,0.12265028375423717]",100.0,"[0.02,0.02]",95.2743,0.0,6.0,6.0,110.0,1.0,,,,,,,
,,,,,,,683b5b1a56674ca7248af790,684428b6f6b0f08d2aa35dbf,2025-06-07_08h00.14.057,shape_ratio,2024.1.5,Win32,60.24096386,684250e4f00cb30b92d1fa88,,,,,,,,,,,95.2748,95.7748,,,96.0292,96.2921,left,,,,,,,,0.4,0.2339,,,,,,,95.7748,96.0292,96.2922,"[0.09250551248682232,-0.16365741481135426]",4.0,"[-0.12458668635172596,0.09628931930229015]",4.0,"[-0.1634573842899791,-0.11205561967904046]",4.0,"[-0.004950211627737173,-0.05810142606550384]",100.0,"[0.05515815635758267,-0.07717613423931143]",4.0,"[0.10202769434160841,0.093558374644488]",4.0,"[-0.07935829415502546,-0.17701198135109286]",4.0,"[-0.15282693628057992,0.061046192161243594]",100.0,"[-0.09262223972169065,-0.07870797282708276]",100.0,"[-0.11786234353328741,0.1511185228200214]",100.0,"[0.05919705101483976,0.07687998739286109]",4.0,"[-0.051899675875534415,0.034929013882824524]",100.0,"[0.02318991377737261,0.042728627187537456]",100.0,"[-0.025717571503739767,0.16891352857567993]",4.0,"[-0.04635370621365986,-0.10608592490432604]",100.0,"[-0.1061093606275206,-0.11761255434231145]",4.0,"[-0.008779848768477745,0.1048129389663909]",100.0,"[0.14660634321855343,0.11355160784815059]",4.0,"[0.10738568135739175,0.03677014245180681]",4.0,"[-0.10707947122583449,-0.0041445322175937315]",4.0,"[0.09662253876337122,-0.04480300280195713]",4.0,"[0.01284376264804393,-0.12663385126700594]",100.0,"[0.138772750499588,-0.10919069326997112]",100.0,"[-0.18557550324802213,-0.02940115101129858]",4.0,"[-0.04992365340425622,-0.045704181266494746]",4.0,"[0.14561914877210588,-0.054088190447374875]",100.0,"[0.17318391783102824,0.01295278960235901]",100.0,"[-0.055605248609315316,0.11259752832154536]",100.0,"[-0.16002725395229886,0.0068365931246181936]",4.0,"[0.030839315267384006,-0.028046248191889424]",4.0,"[-0.027218343912696032,-0.0005780182500593962]",4.0,"[-0.11949682215278629,-0.1591070863786691]",4.0,"[0.02,0.02]",97.393,0.0,7.0,7.0,151.0,1.0,,,,,,,
,,,,,,,683b5b1a56674ca7248af790,684428b6f6b0f08d2aa35dbf,2025-06-07_08h00.14.057,shape_ratio,2024.1.5,Win32,60.24096386,684250e4f00cb30b92d1fa88,,,,,,,,,,,97.3935,97.8934,,,98.1473,98.3608,right,,,,,,,,0.9,0.1881,,,,,,,97.8935,98.1473,98.3608,"[0.041405112358166365,0.024639736198463078]",100.0,"[-0.19760728312732562,0.015285601663723943]",100.0,"[0.04162193591216644,-0.04932182208940194]",4.0,"[-0.18934365019978558,-0.03145037880971698]",100.0,"[-0.0731526162542614,-0.135102205868061]",100.0,"[-0.15723874295204923,0.06603791347309937]",100.0,"[0.06824224878318266,0.1321519433512839]",100.0,"[-0.15547056944632667,0.11709173093345258]",100.0,"[-0.05108004025338059,0.18081689251985034]",100.0,"[-0.034738430748630644,-0.19342571009214413]",4.0,"[0.037664224629700836,0.16560526382818389]",100.0,"[-0.09469598902488573,-0.004399001348504842]",100.0,"[-0.048410506331591725,0.052467807365328675]",100.0,"[0.17310139246030248,-0.08308610224440192]",100.0,"[-0.027278308022268848,-0.029264462036628757]",100.0,"[-0.11294742977429949,-0.07461597348430295]",100.0,"[0.16350872185002122,-0.003911129594474303]",100.0,"[0.10587656562735409,-0.12543911353251722]",100.0,"[0.06501516731177816,0.0750624726374786]",100.0,"[0.12318329238457053,-0.06613700692934513]",100.0,"[-0.0681926888254018,0.09838367431717314]",100.0,"[0.09828326079577863,0.019509669713321395]",100.0,"[-0.0298219136795947,0.1356091403235958]",100.0,"[-0.13429653964478097,0.033220863415060704]",100.0,"[0.027194179160826185,-0.1473265763328299]",4.0,"[-0.07372842684602639,-0.06327568443504904]",100.0,"[0.004572436127234957,0.08510732401120098]",100.0,"[0.12271508337951088,0.09369599134382933]",100.0,"[-0.14526000362549762,-0.024824675083117895]",100.0,"[0.14274228384105755,0.05535491097526637]",100.0,"[0.08653249810582289,-0.039244642355210434]",100.0,"[0.1601398407176368,0.11767460854686658]",100.0,"[0.02,0.02]",99.4617,0.0,8.0,8.0,26.0,1.0,,,,,,,
,,,,,,,683b5b1a56674ca7248af790,684428b6f6b0f08d2aa35dbf,2025-06-07_08h00.14.057,shape_ratio,2024.1.5,Win32,60.24096386,684250e4f00cb30b92d1fa88,,,,,,,,,,,99.4622,99.9621,,,100.2175,100.6463,left,,,,,,,,0.6,0.4062,,,,,,,99.9623,100.2174,100.6464,"[0.04122921984941717,-0.12345132620336645]",100.0,"[0.09740941517690717,-0.16290272704097614]",4.0,"[-0.025418421632514555,0.1508035035228169]",100.0,"[0.1014089603453406,0.08601229748410116]",100.0,"[-0.12664777687098325,-0.11689023679326489]",100.0,"[-0.0714268753700673,-0.1492336416435988]",100.0,"[0.032857913286941424,-0.1657074959428077]",4.0,"[-0.06775648787750951,0.06932517578917975]",4.0,"[-0.12892209770521967,0.07791359500821854]",4.0,"[0.004955975996421919,0.08224091001951545]",100.0,"[0.0002184919185977556,-0.10221844212551422]",4.0,"[0.044452883988604225,-0.07860230563133304]",4.0,"[0.0003285892077046375,0.011792497093811109]",100.0,"[0.12742625103855124,-0.10731605675077349]",4.0,"[0.14645856611813626,-0.05495219087684644]",100.0,"[0.14005954712105176,0.10427091208603843]",100.0,"[-0.052156753283103964,-0.03937066292003062]",100.0,"[-0.09104165507223567,-0.07688653063426336]",100.0,"[-0.13116171228790816,0.003466434726565127]",4.0,"[0.03382942998861191,0.11444068523876366]",100.0,"[0.10901994123507944,-0.03528474414210902]",100.0,"[-0.17285294636068865,0.05203197203830623]",4.0,"[-0.028234613903893133,-0.07381323399539198]",100.0,"[0.09199336509651719,-0.08315352908942739]",100.0,"[0.027695445740909014,0.18363923070105836]",100.0,"[0.0668357233825515,-0.005059431383292989]",4.0,"[0.17892205949185835,-0.013364377527882026]",4.0,"[0.1463346445727166,0.02804461661392584]",4.0,"[-0.1478027593158502,0.12179672863894844]",100.0,"[-0.010432808552012141,-0.15500535830457526]",4.0,"[-0.1030997353973444,0.13415120802681654]",100.0,"[0.06392124547759591,0.05588460512761598]",100.0,"[0.02,0.02]",101.7474,0.0,9.0,9.0,48.0,1.0,,,,,,,
,,,,,,,683b5b1a56674ca7248af790,684428b6f6b0f08d2aa35dbf,2025-06-07_08h00.14.057,shape_ratio,2024.1.5,Win32,60.24096386,684250e4f00cb30b92d1fa88,,,,,,,,,,,101.7479,102.2479,,,102.5018,102.8152,right,,,,,,,,0.6,0.2842,,,,,,,102.2479,102.5018,102.8152,"[0.038491745762898565,-0.10308745792219465]",100.0,"[0.061751830929781745,-0.01813516439007356]",4.0,"[0.0707500070312768,0.06464652266461515]",100.0,"[0.12669658484369392,0.117908448326673]",100.0,"[0.05495043714775742,0.12838169010298217]",100.0,"[-0.10743332861374373,-0.1009275339892922]",100.0,"[-0.131263779205659,0.10636579259752595]",100.0,"[-0.09037846020587034,0.11311614067773074]",100.0,"[0.1879221807509344,0.03141999227845233]",100.0,"[0.0426708264875597,0.02755720920101698]",100.0,"[-0.07479675057795768,-0.17876888118752152]",4.0,"[-0.017803064324005868,0.10982764225585102]",4.0,"[0.12188775778628062,0.03275288099539494]",100.0,"[0.1779982066848874,-0.07625790138675488]",100.0,"[-0.0498833608627073,0.17240117840061314]",4.0,"[-0.05853460323129942,0.02526378843676943]",100.0,"[0.0008214132379050313,-0.05917430829241324]",100.0,"[-0.19305366380236344,-0.042005637416313676]",4.0,"[0.1817930096383949,-0.021615066696377142]",4.0,"[0.10496113931500461,-0.11017955258473124]",4.0,"[-0.12094195486325203,-0.04343178903623668]",100.0,"[-0.15380721785996865,0.005690459669343554]",100.0,"[0.049878044126466195,-0.15141014046587872]",4.0,"[-0.036766645836779854,-0.09350289071814044]",4.0,"[-0.1601480426092598,-0.1137211396964635]",100.0,"[0.04661477600388678,0.17834565699490285]",4.0,"[0.008782622925030008,0.057026610705749436]",100.0,"[-0.11345158735174779,-0.14590722132891515]",4.0,"[-0.004327985907743265,0.15054950143114648]",100.0,"[-0.035158244078387545,0.06713413437367084]",4.0,"[0.14202577512507822,0.07884531821257894]",100.0,"[-0.01255798286837418,-0.15097801449397275]",4.0,"[0.02,0.02]",103.9162,0.0,10.0,10.0,35.0,1.0,,,,,,,
,,,,,,,683b5b1a56674ca7248af790,684428b6f6b0f08d2aa35dbf,2025-06-07_08h00.14.057,shape_ratio,2024.1.5,Win32,60.24096386,684250e4f00cb30b92d1fa88,,,,,,,,,,,103.9168,104.4167,,,104.6704,105.101,left,,,,,,,,0.5,0.4032,,,,,,,104.4168,104.6703,105.101,"[-0.006573230655293054,0.1621187032585002]",100.0,"[0.008925131514290512,-0.05582045700662521]",100.0,"[-0.13769002332762903,-0.07620582056743139]",4.0,"[0.022098324759717927,-0.14933023549269347]",4.0,"[0.02849634063002713,0.10919568412014183]",100.0,"[-0.050843651878705175,-0.11198658013335462]",4.0,"[0.09588600193438515,0.0736454998668526]",4.0,"[-0.10224955372510144,-0.15878813120501659]",4.0,"[-0.12953521387749897,0.0577617740212171]",4.0,"[-0.02000468526660729,0.06533128548629924]",100.0,"[0.10817042778162113,-0.16171893185833916]",100.0,"[-0.06013300553395536,-0.011133372948357279]",4.0,"[-0.19216280021529616,-0.012701899896640093]",4.0,"[0.10448826738995728,-0.0672980904722499]",100.0,"[-0.06973029015760865,0.08187870373884322]",100.0,"[-0.10082599497839027,-0.11647566527456411]",100.0,"[0.1975388986826622,0.009337465182105636]",4.0,"[0.051230938698386505,0.03283193133386779]",100.0,"[0.12435381873268564,-0.00672887229099666]",100.0,"[0.02590645127334246,-0.0035453259750071004]",4.0,"[0.1292506314654979,-0.11517573203553186]",4.0,"[0.16092880639137958,0.1113963278007339]",100.0,"[-0.08352416063751268,0.040410208396026714]",4.0,"[-0.16692595042536715,0.08347932874874947]",100.0,"[-0.16415621108562328,0.031544655445377955]",100.0,"[-0.0423834250183168,0.12283174169293089]",100.0,"[0.06742409562764443,0.1372953380603313]",4.0,"[-0.10272814755346826,0.16119592214685302]",100.0,"[-0.18698566200059344,-0.06344035231796144]",4.0,"[-0.019084419745672866,-0.1462410854240837]",100.0,"[0.07910587527333222,-0.034482621675355755]",4.0,"[-0.1303008861804862,-0.0039207634491810125]",4.0,"[0.02,0.02]",106.2018,0.0,11.0,11.0,100.0,1.0,,,,,,,
,,,,,,,683b5b1a56674ca7248af790,684428b6f6b0f08d2aa35dbf,2025-06-07_08h00.14.057,shape_ratio,2024.1.5,Win32,60.24096386,684250e4f00cb30b92d1fa88,,,,,,,,,,,106.2025,106.7022,,,106.9532,107.3368,right,,,,,,,,0.5,0.364,,,,,,,106.7023,106.9532,107.3369,"[-0.0873882352619475,-0.0646184696633706]",4.0,"[0.11631451630984715,-0.08029101099115522]",4.0,"[0.14799007183040366,0.0178335530508261]",4.0,"[0.12037916268653986,0.14447255353389157]",100.0,"[-0.09640213766845665,0.00005260947748375718]",100.0,"[-0.15580308265426884,-0.08692044961759733]",4.0,"[-0.17431190232129287,0.044447212939413255]",4.0,"[0.08005942461016825,0.16728697213880966]",4.0,"[0.020200494031251154,-0.12104783090718436]",4.0,"[-0.039133358245245546,-0.10085243054345953]",100.0,"[-0.08559125487468913,0.1587340921191801]",100.0,"[0.0713400887526415,0.046498292721291225]",100.0,"[-0.09018650283952309,0.10175529726461878]",100.0,"[0.04398953444102434,0.09128713639612188]",100.0,"[-0.12928007898683858,0.1325445307495039]",4.0,"[-0.027165257503216026,0.016550401176557386]",100.0,"[-0.07635279572509204,0.05442803569125368]",4.0,"[0.03991621620999302,-0.16993840392426116]",4.0,"[0.07447189610360543,-0.0587714399059]",100.0,"[0.004190282302159919,0.18387097823676724]",100.0,"[-0.03667858056060798,0.17150910169111602]",100.0,"[-0.013037628614063582,-0.051684067040776355]",100.0,"[0.15496867441867362,-0.0966643011051038]",4.0,"[-0.010521794089859428,-0.19348997838886572]",4.0,"[-0.15883804298067242,0.006505454939702265]",100.0,"[0.005080883250265675,-0.015456370909405812]",4.0,"[-0.07019383349610539,-0.16129140730347388]",100.0,"[0.15444281941494198,0.08464875126246316]",4.0,"[0.10821650134745076,-0.009782872914440993]",100.0,"[0.060996311742255414,0.007489836593366938]",4.0,"[0.04369347915855819,0.13176959068735952]",100.0,"[-0.012473512303038283,0.07223916539763856]",4.0,"[0.02,0.02]",108.4373,0.0,12.0,12.0,116.0,1.0,,,,,,,
,,,,,,,683b5b1a56674ca7248af790,684428b6f6b0f08d2aa35dbf,2025-06-07_08h00.14.057,shape_ratio,2024.1.5,Win32,60.24096386,684250e4f00cb30b92d1fa88,,,,,,,,,,,108.4379,108.9378,,,109.1917,109.5554,left,,,,,,,,0.6,0.3424,,,,,,,108.9378,109.1917,109.5555,"[-0.057451152999773866,-0.16813180645534864]",100.0,"[0.04256105142488604,-0.04056275984414463]",100.0,"[0.12638923962201212,-0.07139648786819491]",100.0,"[-0.14274872021513624,0.09602881522029526]",4.0,"[-0.16911165970895833,-0.07915873183975883]",100.0,"[-0.013321398581700197,0.0767676712604224]",100.0,"[0.034665427614939334,-0.17617453609315636]",100.0,"[0.07049979096224236,-0.10496910528898319]",100.0,"[-0.19959890902297364,0.004005424972672889]",100.0,"[0.18788601911120822,-0.0439946773179599]",100.0,"[0.08636809868271539,0.1431364472482218]",4.0,"[0.1399337145225222,0.10855016604936818]",4.0,"[0.03116986759275058,0.033523725637725016]",4.0,"[-0.0507869445820502,0.015660783218390775]",100.0,"[0.026624952107156576,-0.1076398618538053]",4.0,"[-0.11021299214680376,-0.06642168504208315]",4.0,"[-0.02782586992170872,-0.12120001343700566]",100.0,"[-0.03715619814707886,0.1749827900298435]",100.0,"[0.12113629329224096,-0.12131442186499489]",4.0,"[0.1663946368284125,-0.0905257558156163]",4.0,"[0.12783312253775891,-0.02011053582164932]",4.0,"[-0.07884553602924389,-0.022484612675829966]",100.0,"[-0.0963438439409557,0.05964110659361051]",4.0,"[0.1397368694300844,0.033685749896341405]",100.0,"[-0.047924415588929625,-0.05056761273180555]",100.0,"[-0.0686658739657441,-0.1275623257761493]",100.0,"[-0.06791999966685501,0.14547998973257523]",100.0,"[0.09296383356092776,-0.00024380736623979882]",4.0,"[-0.07411056694910202,0.10251025118627251]",4.0,"[-0.16078391221384442,-0.012007207367260641]",100.0,"[-0.1666285204619157,0.03124123152788157]",100.0,"[0.10147976851106388,0.06580772151312149]",4.0,"[0.02,0.02]",110.6561,0.0,13.0,13.0,30.0,1.0,,,,,,,
,,,,,,,683b5b1a56674ca7248af790,684428b6f6b0f08d2aa35dbf,2025-06-07_08h00.14.057,shape_ratio,2024.1.5,Win32,60.24096386,684250e4f00cb30b92d1fa88,,,,,,,,,,,110.6567,111.1567,,,111.4074,111.7407,right,,,,,,,,0.9,0.3118,,,,,,,111.1567,111.4073,111.7408,"[-0.1538552342095597,0.05239514901396455]",100.0,"[-0.0520884454912944,0.09369156605935287]",100.0,"[-0.004266077834539275,-0.17811532434176286]",100.0,"[0.11487368503725608,0.0919794578072737]",100.0,"[-0.18896095179386846,-0.04726808922963376]",100.0,"[-0.15408501311072592,-0.10236020105436924]",100.0,"[-0.0641261350365984,-0.14931985819980947]",100.0,"[-0.0035252013288531174,0.09170603211383353]",100.0,"[0.038322257911656187,0.07974341390770137]",100.0,"[0.0850275203560668,0.1269994302488606]",100.0,"[-0.019449439843362823,-0.05579088952645142]",100.0,"[-0.08070922100283626,-0.02973468987432405]",100.0,"[-0.13450690898404552,0.00018306194674408332]",100.0,"[0.12712256659894752,0.05127734351416036]",100.0,"[0.18363601314743733,-0.0035485559322870875]",100.0,"[-0.011840419748872169,0.013483027924388675]",100.0,"[0.147056243662364,-0.12189615058491289]",4.0,"[0.06508148605522027,-0.05056526461074436]",100.0,"[-0.016090216307014227,0.17460107709876851]",100.0,"[-0.007917874341148,-0.12114678441526301]",4.0,"[-0.04939442332412691,-0.09339628499269659]",100.0,"[-0.19738405674047502,0.0004409281035893751]",100.0,"[0.058382546951394734,-0.13181222586979824]",100.0,"[0.10046376678422671,-0.10393893441932628]",100.0,"[0.09958115539791315,0.16788597587884485]",4.0,"[-0.04428584284867698,-0.18665823259402262]",100.0,"[-0.0788918862618521,0.022438082315795634]",100.0,"[0.1423283215641904,-0.03345445332722522]",100.0,"[-0.11253056231628106,-0.06748860735120235]",100.0,"[-0.09691875069559928,-0.17474687439501452]",100.0,"[-0.16848151870696004,0.09067920692400099]",100.0,"[-0.07424788628983396,0.1308705332104798]",100.0,"[0.02,0.02]",112.8415,0.0,14.0,14.0,22.0,1.0,,,,,,,
,,,,,,,683b5b1a56674ca7248af790,684428b6f6b0f08d2aa35dbf,2025-06-07_08h00.14.057,shape_ratio,2024.1.5,Win32,60.24096386,684250e4f00cb30b92d1fa88,,,,,,,,,,,112.8424,113.3422,,,113.5931,113.8762,left,,,,,,,,0.1,0.2508,,,,,,,113.3422,113.5931,113.8763,"[-0.07805962895420611,0.07735593617496948]",4.0,"[0.1603725177773929,0.0485971663513425]",100.0,"[0.14909851130986926,0.1136913726771229]",4.0,"[-0.012316103524082685,0.16031076450735626]",4.0,"[0.07014564447613499,-0.03748217706087734]",4.0,"[0.13211600711858293,-0.10095812691958413]",4.0,"[-0.11878449044891687,0.06547864902038801]",4.0,"[0.13797470819272725,-0.03198537691159578]",4.0,"[0.04448623416488024,0.09472015596393535]",4.0,"[0.18208628556752904,-0.07517071756286796]",4.0,"[-0.13820619907466852,0.02219668584263694]",100.0,"[-0.15130645102061438,-0.12382647546280431]",4.0,"[0.12327422104450977,0.026215743932595067]",100.0,"[-0.10842909586409409,-0.06876053885576873]",4.0,"[0.03396923105269609,0.033285796976342874]",4.0,"[-0.050355426734393076,0.021037299539220004]",4.0,"[-0.16938639391590363,0.08499479170562185]",4.0,"[-0.008537419844656762,0.09960052304253587]",4.0,"[-0.04293680362635959,-0.12181480336216538]",4.0,"[0.011866611484435843,-0.019335459231366047]",4.0,"[0.10009848325323792,0.16167285873441392]",4.0,"[-0.1996393365612291,-0.011208061365619955]",4.0,"[0.08046774305378052,-0.11791261863339103]",4.0,"[-0.09809157411387213,-0.014562584582737643]",4.0,"[-0.09900963178981784,0.1374913860478744]",4.0,"[-0.054226000731176845,0.17864654501026797]",4.0,"[0.019912693292043572,-0.09057783671169309]",4.0,"[-0.1661665583848473,-0.034656599510875886]",4.0,"[0.007383478885426064,-0.19501089042955494]",4.0,"[-0.14224422914017676,0.1216108662193699]",4.0,"[0.19439395234356824,-0.02660186898932504]",4.0,"[-0.06049975131214828,-0.18263857307935866]",4.0,"[0.02,0.02]",114.9771,0.0,15.0,15.0,189.0,1.0,,,,,,,
,,,,,,,683b5b1a56674ca7248af790,684428b6f6b0f08d2aa35dbf,2025-06-07_08h00.14.057,shape_ratio,2024.1.5,Win32,60.24096386,684250e4f00cb30b92d1fa88,,,,,,,,,,,114.9776,115.4776,,,115.7316,115.9118,right,,,,,,,,0.1,0.1541,,,,,,,115.4776,115.7316,115.9118,"[-0.09611320171548081,0.0411241371433929]",4.0,"[0.19528818761919764,0.01785179318459389]",4.0,"[0.09773582245687984,0.15722168822291707]",4.0,"[0.10906260102239003,-0.10974299660133525]",4.0,"[-0.040091671594080065,0.09330769642086438]",100.0,"[0.14385853892142403,-0.07759890919632124]",4.0,"[-0.08901386983090255,-0.13684273517836282]",4.0,"[0.15914167376161018,0.06051459293876975]",4.0,"[-0.15149161548259815,0.04955267626579225]",4.0,"[0.05021621472202259,-0.06140154996425977]",4.0,"[0.14272650932771555,0.1006683178659115]",4.0,"[0.0009423186617873317,0.19313395006027145]",4.0,"[-0.055227846256640595,-0.07763310850917882]",4.0,"[-0.055713240598156966,-0.02775190553142564]",4.0,"[-0.15751118418232762,-0.029369781203037005]",4.0,"[-0.0019043779190822602,-0.16269517383203969]",4.0,"[0.10404252275379886,0.08695937783074668]",4.0,"[-0.0660973401550492,-0.186934909759572]",4.0,"[0.015733330138919466,0.007903482924991375]",4.0,"[-0.023884390706239066,-0.10675069859416701]",4.0,"[-0.05287048825959187,0.026122610903950506]",4.0,"[-0.04955853900298543,0.1407582393201009]",4.0,"[-0.13427070801288127,-0.06485797831835598]",100.0,"[0.049200369269520414,0.0425733066690236]",4.0,"[0.05522156855759058,-0.1342677312955202]",4.0,"[0.11507727274665928,-0.04543015312303837]",4.0,"[-0.13797189259778042,-0.11774965298617789]",4.0,"[-0.0034729917824802828,-0.051911406451392604]",4.0,"[0.06426056022418523,-0.02168305636881915]",100.0,"[0.10176850735875512,0.007023531569567053]",4.0,"[-0.13628788121483584,0.08917242288819716]",4.0,"[0.018245786929827694,0.14009913985429312]",4.0,"[0.02,0.02]",117.0131,0.0,16.0,16.0,193.0,1.0,,,,,,,
,,,,,,,683b5b1a56674ca7248af790,684428b6f6b0f08d2aa35dbf,2025-06-07_08h00.14.057,shape_ratio,2024.1.5,Win32,60.24096386,684250e4f00cb30b92d1fa88,,,,,,,,,,,117.0139,117.513,,,117.7641,118.2507,right,,,,,,,,0.55,0.467,,,,,,,117.513,117.7641,118.2507,"[0.08112932428685879,0.12092678407410147]",4.0,"[-0.002414173904715597,-0.19928632120412307]",4.0,"[-0.17923080789477044,-0.04053764343207317]",4.0,"[0.07091027212443565,-0.12301030384088497]",4.0,"[0.02481674151439431,0.146709745461317]",4.0,"[0.029910952478981415,-0.16042083849647165]",100.0,"[0.09895538991628343,0.023134584916962866]",100.0,"[-0.035479823446593756,-0.1387955671513307]",4.0,"[-0.09580586593544502,-0.1415293736740368]",4.0,"[0.06608274940201399,0.18297527931608673]",100.0,"[-0.19510688644752183,0.024583610663235857]",100.0,"[-0.058417638032848246,0.047430550148243544]",100.0,"[0.01338301348485639,0.10107065585243107]",4.0,"[-0.10261323010737587,0.030467594931402067]",4.0,"[-0.11061908584747994,0.14392738495221163]",100.0,"[-0.04959461612615839,0.13948050692371997]",4.0,"[0.008870056360942374,0.0431856765098574]",4.0,"[-0.09146576292306959,0.0722842974991292]",100.0,"[-0.04391063851979115,-0.09863864336051766]",4.0,"[-0.008202792917994249,0.00396082798708158]",4.0,"[-0.1406496457108448,0.09217767334051226]",100.0,"[0.05471008873105158,0.05488447996735686]",100.0,"[-0.14377160655100088,0.007798436331879174]",100.0,"[-0.13653874590313092,-0.11674453342187303]",100.0,"[0.12431517630647716,-0.09850633555485085]",100.0,"[0.16691782120808837,0.09190066357231304]",100.0,"[-0.09908365298353224,-0.07743316623066612]",4.0,"[-0.02610516964904292,0.19121569275084718]",100.0,"[0.10046884747016983,-0.06468278577988158]",100.0,"[-0.08782084305492602,-0.03368291082363316]",100.0,"[0.1728916836453166,-0.04795604932750562]",100.0,"[0.029180371372016387,-0.061741855100710126]",100.0,"[0.02,0.02]",119.3482,0.0,17.0,17.0,73.0,1.0,,,,,,,
,,,,,,,683b5b1a56674ca7248af790,684428b6f6b0f08d2aa35dbf,2025-06-07_08h00.14.057,shape_ratio,2024.1.5,Win32,60.24096386,684250e4f00cb30b92d1fa88,,,,,,,,,,,119.3487,119.8487,,,120.0998,120.452,left,,,,,,,,0.4,0.3324,,,,,,,119.8487,120.0997,120.452,"[-0.01893009684526457,-0.14510790230414222]",4.0,"[0.057315157732455844,0.1654752350785268]",4.0,"[-0.02943012985059583,-0.053746914922847576]",100.0,"[-0.041149484176871885,0.1558763005696805]",4.0,"[-0.09070000250646673,-0.021287804346453765]",4.0,"[-0.06192827203562571,0.01545294056531146]",100.0,"[0.018179487159782962,0.11863634039936441]",4.0,"[0.07699665950097563,0.12399831712314867]",100.0,"[0.1895520776290321,-0.05698437963351175]",4.0,"[0.01790274315536418,0.028001266754211194]",100.0,"[-0.10341792133519527,-0.15996850654271402]",4.0,"[0.11693008550093144,-0.02527725175005298]",100.0,"[-0.10531767066413303,0.13070073258723094]",4.0,"[-0.017896754135457212,-0.00024364744472190583]",4.0,"[0.12392446450687483,0.1221927648459656]",4.0,"[0.13040450166472678,-0.09333777903214201]",100.0,"[0.06074312695704916,-0.06559184499354957]",4.0,"[-0.14622682229867023,0.13091203417734507]",4.0,"[0.0836171994388432,0.025763057675074353]",100.0,"[0.10248534829128118,-0.16926192320440012]",100.0,"[0.043840462144710754,0.07936087910081996]",100.0,"[0.19835711519623206,-0.006804132326642694]",100.0,"[-0.05994019374498987,0.05726486385057677]",100.0,"[0.04558709375343733,-0.01881989459793333]",100.0,"[0.01834632496591913,-0.08598659939509215]",4.0,"[0.1237425952913305,0.0774649574634279]",100.0,"[0.08077825887522423,-0.11350590739651913]",4.0,"[0.04978476033823158,-0.16293215017520285]",4.0,"[0.16112284136519273,0.09995980517568981]",4.0,"[-0.05401760928064039,0.10428477514450048]",4.0,"[0.15795488557495954,0.00700661438286563]",4.0,"[-0.16841167353340517,-0.07250454227180986]",4.0,"[0.02,0.02]",121.5503,0.0,18.0,18.0,173.0,1.0,,,,,,,
,,,,,,,683b5b1a56674ca7248af790,684428b6f6b0f08d2aa35dbf,2025-06-07_08h00.14.057,shape_ratio,2024.1.5,Win32,60.24096386,684250e4f00cb30b92d1fa88,,,,,,,,,,,121.5507,122.0509,,,122.3016,122.5181,right,,,,,,,,0.1,0.1842,,,,,,,122.0509,122.3015,122.5182,"[-0.028311524735101134,-0.07372948722385878]",4.0,"[-0.08201168083313053,0.05220577859491811]",100.0,"[-0.13034529257255079,0.08386714861645833]",4.0,"[0.12407171914240324,0.05850617944518376]",100.0,"[-0.08039128663655863,0.09898732065447276]",4.0,"[0.06022892598910864,-0.14867575091814864]",4.0,"[0.029787341818736796,0.07195413625150494]",4.0,"[-0.07466397022185593,-0.08824257239544045]",4.0,"[-0.02997403663730583,-0.15300037332430222]",4.0,"[-0.05785244638110094,0.14348330033311898]",4.0,"[-0.028497825685497236,0.06074362445909829]",4.0,"[-0.05444381976076334,-0.005597688095657844]",4.0,"[0.12057110290423934,-0.15154540874640984]",4.0,"[0.19224571294262238,-0.05248039801749706]",4.0,"[-0.10059348001082737,0.14260488711057726]",4.0,"[-0.10096296546192773,-0.05063556790352431]",4.0,"[0.14296577526883425,-0.02157605113980691]",4.0,"[0.040109842960085365,0.18717842672326676]",4.0,"[0.013287626733471884,-0.15084013565278187]",4.0,"[-0.08246367222195694,-0.17364137277144917]",4.0,"[-0.17245933042592257,-0.017869193276188168]",4.0,"[-0.10642153984882402,-0.11554854895770475]",4.0,"[0.06596285611038899,-0.09585715714646142]",4.0,"[0.08882306807379033,0.14498557133618764]",4.0,"[-0.055162232232301094,0.1862749269545542]",100.0,"[-0.11515341299099592,0.0012385007737558812]",4.0,"[-0.00659640333474946,0.005463781461552792]",4.0,"[0.12116267793229372,-0.1008643630630261]",4.0,"[-0.1751292088012511,0.07525652592933053]",4.0,"[0.16307028840647525,0.03896293102400096]",4.0,"[0.025629353176656426,-0.060545400983021636]",4.0,"[-0.01208043129138524,0.11752272954456162]",4.0,"[0.02,0.02]",123.6191,0.0,19.0,19.0,180.0,1.0,,,,,,,
,,,,,,,683b5b1a56674ca7248af790,684428b6f6b0f08d2aa35dbf,2025-06-07_08h00.14.057,shape_ratio,2024.1.5,Win32,60.24096386,684250e4f00cb30b92d1fa88,,,,,,,,,,,123.6196,124.1196,,,124.3736,124.6203,right,,,,,,,,0.6,0.2248,,,,,,,124.1197,124.3735,124.6204,"[-0.08682594850363672,-0.0033830042807656514]",100.0,"[-0.01929245453544602,0.11956852701875223]",4.0,"[0.016576680564920933,0.0050749462875378714]",100.0,"[0.17597463247848386,-0.08217512148468971]",100.0,"[0.08888428115083971,-0.10496337061848579]",100.0,"[0.046460902911433226,0.05254660620099354]",4.0,"[0.09001627970378724,-0.028631548912542847]",4.0,"[-0.04937519873727547,-0.12873332807248256]",100.0,"[-0.03396427483158818,-0.18521025600435223]",4.0,"[0.02857718626891401,0.08959322909774317]",4.0,"[0.1038471745299682,0.16984450952380573]",100.0,"[-0.07932378835791673,0.15457065377625429]",100.0,"[-0.03710136113963591,-0.04947757663118449]",100.0,"[-0.052964853708073245,0.04722902277065409]",4.0,"[0.060935729372242654,0.17818188856075212]",100.0,"[-0.06481925513844311,0.09343784045600988]",4.0,"[0.12073573333106055,0.05577061489159866]",4.0,"[-0.17347698152719793,-0.09491565834870354]",100.0,"[0.18952383085096783,-0.008479162593352062]",4.0,"[0.15957919117859423,-0.03831913323838917]",100.0,"[-0.17955981363700624,-0.05416057618053719]",4.0,"[0.036544586049376604,-0.15362533901497027]",100.0,"[-0.14717482623627404,0.05012659582965859]",100.0,"[-0.09230910231460934,-0.11292849361143276]",100.0,"[-0.12571857318505072,-0.07654167779733899]",100.0,"[0.04509135875629708,-0.09091020784821935]",100.0,"[-0.0025426145116630955,-0.10213664183898571]",100.0,"[0.05927287379307462,0.007475344715441224]",4.0,"[0.11753539018820407,0.118739453916354]",4.0,"[-0.03031515943529975,0.005443116456031602]",100.0,"[0.07272972571778401,0.1100385065233066]",4.0,"[0.02275556093143941,0.1607751200619142]",100.0,"[0.02,0.02]",125.7212,0.0,20.0,20.0,36.0,1.0,,,,,,,
,,,,,,,683b5b1a56674ca7248af790,684428b6f6b0f08d2aa35dbf,2025-06-07_08h00.14.057,shape_ratio,2024.1.5,Win32,60.24096386,684250e4f00cb30b92d1fa88,,,,,,,,,,,125.7217,126.2217,,,126.4758,126.8058,right,,,,,,,,0.45,0.3129,,,,,,,126.2217,126.4758,126.8058,"[0.08667037630626079,0.06393352349171749]",4.0,"[0.10976966537866084,-0.09202700842523089]",100.0,"[-0.047862582565490946,-0.18121619465396827]",4.0,"[0.056291117929055,-0.013264868983678176]",100.0,"[-0.14113186396685806,-0.04940366343237978]",100.0,"[0.12625406294052396,0.03213933811640001]",4.0,"[-0.0969366747249817,0.02717664523465347]",100.0,"[0.009354032952371904,0.046410848037284416]",4.0,"[-0.060222117556523104,0.08454943819935626]",100.0,"[0.0940879831035006,0.13650512927451786]",100.0,"[-0.07419965288017044,0.1383363252471103]",100.0,"[0.018284246786328517,-0.07397415054073235]",4.0,"[-0.17803728333050411,0.07313832504600433]",4.0,"[-0.0352703228178766,0.11993015516857856]",4.0,"[-0.14573491230940105,0.006877664225125413]",100.0,"[0.1682713868287693,0.006455634937818179]",4.0,"[-0.041775573375097574,-0.10283449623593065]",100.0,"[-0.0005433715823046537,0.1759162965935118]",4.0,"[-0.008071665908800593,0.0001409207278785492]",100.0,"[0.015298061540026268,-0.12597387974390764]",4.0,"[0.023308493128219032,-0.19128460776687475]",4.0,"[0.14546419248874054,0.11877675175018046]",4.0,"[-0.08325704301842807,-0.07776259934581355]",4.0,"[0.13620468151887444,-0.025614113813345586]",4.0,"[-0.04382196079939624,-0.044488077860844244]",100.0,"[0.08108025251517222,-0.15661928706048173]",4.0,"[0.1630332144647548,-0.06805719662648416]",4.0,"[-0.08045553102039517,-0.12707010238072947]",100.0,"[-0.1190477219662153,0.13967507062469434]",4.0,"[0.046239585980665215,0.11449612847269024]",100.0,"[-0.1875346136735994,0.02871074812196597]",100.0,"[-0.1251021173646624,0.0680761018336988]",4.0,"[0.02,0.02]",127.9067,0.0,21.0,21.0,149.0,1.0,,,,,,,
,,,,,,,683b5b1a56674ca7248af790,684428b6f6b0f08d2aa35dbf,2025-06-07_08h00.14.057,shape_ratio,2024.1.5,Win32,60.24096386,684250e4f00cb30b92d1fa88,,,,,,,,,,,127.9072,128.4073,,,128.6611,129.008,right,,,,,,,,0.55,0.3179,,,,,,,128.4073,128.661,129.008,"[-0.03676909214509317,0.1707407609508532]",4.0,"[0.10425700838296763,-0.09942165749657064]",100.0,"[0.17235543494412384,0.026803828358387072]",100.0,"[0.06458743818884416,0.08655924666929762]",4.0,"[-0.057357611149580164,-0.004181223681558668]",100.0,"[-0.14628072534803235,0.07404146469644146]",4.0,"[0.008642064491381803,0.10742061663188152]",100.0,"[0.10569770380262707,-0.01510091085441673]",4.0,"[0.07635582996288423,0.013186368313091248]",4.0,"[-0.04891412663031204,-0.07561956122716576]",100.0,"[-0.03313947445594958,-0.17350156045748039]",4.0,"[0.07346057229562065,-0.138518292602443]",4.0,"[0.14263415668585538,-0.04070381828880755]",100.0,"[-0.08644682960720053,0.1462437422275814]",100.0,"[0.17712192810175048,0.07030410916884526]",100.0,"[-0.07586906137737566,0.055436850390056296]",100.0,"[-0.005378132930267954,-0.12948142243060684]",100.0,"[0.07029776484710702,0.15443044461262356]",100.0,"[-0.14068248941899067,0.0018928074453227763]",4.0,"[-0.1716103715789784,0.027527834953196745]",4.0,"[-0.18361877669598925,-0.05664749941628617]",100.0,"[-0.07907491411507224,-0.18020390907451372]",100.0,"[0.03395108039674756,-0.15432428585885577]",100.0,"[0.05112131619220316,-0.05710695262153877]",4.0,"[-0.004969612715699631,-0.03923986825163483]",4.0,"[-0.11589057424640467,-0.06401270364591485]",100.0,"[-0.027007543263161793,0.07215880641799323]",100.0,"[-0.03603998493322231,0.12214154856888879]",100.0,"[0.024626889503152057,-0.1949140403547774]",4.0,"[0.13374795892519434,0.09517160646258993]",4.0,"[-0.010233446779020593,0.02535300080818555]",100.0,"[-0.10545466080668675,0.08740209509744329]",4.0,"[0.02,0.02]",130.1089,0.0,22.0,22.0,86.0,1.0,,,,,,,
,,,,,,,683b5b1a56674ca7248af790,684428b6f6b0f08d2aa35dbf,2025-06-07_08h00.14.057,shape_ratio,2024.1.5,Win32,60.24096386,684250e4f00cb30b92d1fa88,,,,,,,,,,,130.1094,130.6093,,,130.8634,131.01,left,,,,,,,,0.5,0.1237,,,,,,,130.6094,130.8634,131.0101,"[0.10392019969165694,0.1230256443354876]",100.0,"[0.1736474370491829,0.0537041113570008]",4.0,"[-0.13163699560325698,0.14470782335417368]",100.0,"[-0.02978432831020718,0.16236824212459908]",4.0,"[-0.045433839539059676,-0.13418109131508316]",4.0,"[0.12818035973709108,-0.07931903069992705]",100.0,"[0.10960715415579417,0.07589655073185808]",4.0,"[-0.08280823918116391,-0.16499253476873293]",4.0,"[0.10184037122930946,-0.1439028488371312]",4.0,"[-0.009330726315521641,0.016104666921283043]",4.0,"[0.016243332617367365,-0.11648738160337242]",4.0,"[-0.14417433166040167,-0.04989431646873025]",100.0,"[-0.040915958271490936,-0.014447282111622628]",100.0,"[-0.09929869171098238,0.11681239266481538]",100.0,"[-0.08155109929035287,0.07529713024515163]",100.0,"[-0.14498891598095653,-0.000005904038177408399]",4.0,"[-0.14137293366106793,0.06824184545312882]",100.0,"[-0.15453395139350176,0.10982300637123948]",4.0,"[-0.12967356951564007,-0.10297187612690097]",100.0,"[-0.03050789400383067,-0.05750843204823302]",100.0,"[0.052014540004159664,-0.1857523977273376]",4.0,"[0.024130317310398608,0.05265587837439936]",4.0,"[-0.18667762400095123,0.023578373570811623]",100.0,"[0.04435856697268937,0.11675322490002579]",4.0,"[0.013993996887807844,0.1572221984292916]",100.0,"[0.11395429215509577,-0.017422584910205857]",4.0,"[0.14880236664519983,-0.11604373539058771]",4.0,"[-0.039809459827607266,0.11890943881948322]",4.0,"[-0.07917523017424968,-0.09436889164484086]",100.0,"[-0.09723108585417248,-0.023575975839138917]",100.0,"[0.07316470999157207,0.025271919030217825]",100.0,"[-0.03851128564550049,0.06320850896536967]",100.0,"[0.02,0.02]",132.111,0.0,23.0,23.0,97.0,1.0,,,,,,,
,,,,,,,683b5b1a56674ca7248af790,684428b6f6b0f08d2aa35dbf,2025-06-07_08h00.14.057,shape_ratio,2024.1.5,Win32,60.24096386,684250e4f00cb30b92d1fa88,,,,,,,,,,,132.1114,132.6115,,,132.8654,133.0287,right,,,,,,,,0.45,0.1338,,,,,,,132.6115,132.8654,133.0287,"[0.0036328332465651483,-0.006510165680399934]",4.0,"[0.058678747901244714,-0.11927774961090375]",100.0,"[0.07546050263384416,0.0014614173085106031]",100.0,"[-0.010630335611200555,0.11001178661964732]",100.0,"[0.1824460374752364,-0.06866991834911026]",100.0,"[-0.012999120237326384,-0.14386601052446438]",4.0,"[-0.12771460748453264,-0.1509691518806428]",100.0,"[-0.032080608118890824,0.19037934683879879]",4.0,"[-0.15729152990888415,0.03881432771441787]",100.0,"[-0.09458438073993591,0.17437566964447918]",4.0,"[-0.16290815544178797,0.07991896945230442]",4.0,"[0.12223293963771482,0.004728234040800369]",100.0,"[0.10652710493470129,0.16582919091288495]",100.0,"[0.1710151422625885,-0.017364584697749645]",4.0,"[-0.1160268749357631,0.07253439706535206]",4.0,"[-0.18838270429111015,-0.03391731857820854]",4.0,"[-0.1959066661177161,0.024182146014232474]",4.0,"[0.028731902583784164,0.08312311434404109]",4.0,"[0.10409154317169933,0.10222279208739633]",4.0,"[-0.06003029881451454,-0.09549679791058]",100.0,"[-0.03202594981557096,-0.1913803423787858]",100.0,"[0.05772147943311449,-0.04084673080818678]",4.0,"[0.11007391826733387,-0.05275158417551716]",4.0,"[-0.1580529345930893,-0.10058296285047186]",100.0,"[-0.11182324858762195,0.11353639043305856]",4.0,"[-0.0024555564373551003,0.03554193043476046]",100.0,"[0.17154062501010353,0.0690257031991649]",4.0,"[-0.0970576129264841,0.0322560154925858]",4.0,"[-0.05008257306205308,0.04285795236067323]",100.0,"[-0.06305375196114345,-0.16000026965447908]",100.0,"[-0.11177597476699294,-0.04962999688410421]",4.0,"[0.07463437067159036,-0.18469182192767458]",4.0,"[0.02,0.02]",134.1296,0.0,24.0,24.0,144.0,1.0,,,,,,,
,,,,,,,683b5b1a56674ca7248af790,684428b6f6b0f08d2aa35dbf,2025-06-07_08h00.14.057,shape_ratio,2024.1.5,Win32,60.24096386,684250e4f00cb30b92d1fa88,,,,,,,,,,,134.1302,134.6302,,,134.8829,135.2646,right,,,,,,,,0.5,0.3639,,,,,,,134.6302,134.8829,135.2647,"[0.007774379311576059,0.0830292895909509]",100.0,"[-0.17085339339399527,0.039966002014702615]",4.0,"[0.029711072140226055,0.12839268623439445]",4.0,"[0.09725645148228385,-0.12857733594399295]",4.0,"[0.14801178930377307,0.08836342446314709]",4.0,"[-0.055467678765176394,-0.044123470723012474]",4.0,"[0.19412683835145111,-0.018985775955453865]",100.0,"[-0.030761852320784256,0.0042243033859490865]",4.0,"[-0.12101157039489588,-0.06904257232918799]",100.0,"[-0.051921666031649986,-0.18604900897870888]",100.0,"[0.12790890003464178,0.1445312008271434]",100.0,"[-0.13114731838387264,0.07713285360812269]",100.0,"[-0.1184623771041082,-0.14174142017287528]",4.0,"[0.023311281044326886,-0.055065339444927405]",4.0,"[0.08745020123430888,0.13723239067408505]",100.0,"[0.015200996794281153,-0.16122195383970117]",100.0,"[0.15682967332977157,0.02894414001951488]",4.0,"[0.04685086204865767,-0.10924916645878802]",100.0,"[0.17476840356961962,-0.08075639109771574]",4.0,"[0.10743455945549157,-0.0350812853012692]",100.0,"[-0.19362359316970892,-0.029960528054862063]",4.0,"[-0.08269821450182527,0.05456940741665966]",100.0,"[0.09423468735437956,-0.17467118707768167]",4.0,"[-0.10181383006778665,0.14089432510124167]",100.0,"[0.15599071547580115,-0.03347506130964872]",100.0,"[-0.07111295717786209,-0.09547398743050219]",100.0,"[-0.019023584885534836,0.04930924147484483]",4.0,"[-0.04175902609442769,-0.13632106579708142]",4.0,"[0.11185680643430193,-0.09008696782813345]",100.0,"[-0.15035265952024096,0.1169258833564595]",4.0,"[-0.1838705651595331,-0.07230874904694225]",4.0,"[0.11399266584461847,0.01580366351920851]",100.0,"[0.02,0.02]",136.3652,0.0,25.0,25.0,111.0,1.0,,,,,,,
,,,,,,,683b5b1a56674ca7248af790,684428b6f6b0f08d2aa35dbf,2025-06-07_08h00.14.057,shape_ratio,2024.1.5,Win32,60.24096386,684250e4f00cb30b92d1fa88,,,,,,,,,,,136.3659,136.8658,,,137.1164,137.4666,right,,,,,,,,0.1,0.3249,,,,,,,136.8658,137.1164,137.4666,"[-0.10709537897675991,-0.1430860852736137]",4.0,"[0.046453977705415476,-0.1770764082370836]",100.0,"[0.11004012355658263,0.06728203836514204]",4.0,"[-0.14523421476275528,0.05487447029765185]",4.0,"[0.01647013662962948,0.042048382918205944]",4.0,"[0.14132257053629524,-0.10677882645641885]",4.0,"[-0.04165300973420432,0.008498324363764695]",4.0,"[0.17204758943739806,0.048034097540528745]",4.0,"[-0.051022355929339736,0.07712968859776284]",4.0,"[0.01262158784825761,-0.011128272920015904]",4.0,"[-0.09421597107738529,0.0763621215279065]",4.0,"[-0.017880253773939175,-0.10542327514913653]",4.0,"[0.06200722711261699,0.0037373849079906517]",4.0,"[-0.06034332839328424,-0.05386063402000309]",4.0,"[-0.1397990574424055,-0.10684141505957732]",4.0,"[-0.06086676573408625,0.18117058318523013]",4.0,"[0.05739399624631611,0.1481698581346148]",4.0,"[-0.0022457799274473093,0.12074952458917444]",100.0,"[0.020348222085462508,-0.13173682744325396]",4.0,"[-0.1345573356430115,0.004797320288745083]",4.0,"[0.16812478827998698,-0.06524996685134674]",4.0,"[-0.19094479885229973,0.002932786184472952]",100.0,"[0.14825898142085484,0.09265633221494897]",4.0,"[0.02624817891374103,-0.07070457954137203]",4.0,"[-0.18659488659285903,-0.05458618889783288]",4.0,"[0.09158784382762303,0.10725482080641123]",4.0,"[0.09188077210445213,-0.06318714682575322]",4.0,"[-0.14241369280889493,0.11098923288167996]",4.0,"[-0.10533193401510015,0.16522552306056576]",4.0,"[-0.1435255733741014,-0.039974342304480465]",4.0,"[-0.07431563255727015,0.11229702563787228]",4.0,"[-0.08771959289796256,-0.09787171286566826]",4.0,"[0.02,0.02]",138.5674,0.0,26.0,26.0,184.0,1.0,,,,,,,
,,,,,,,683b5b1a56674ca7248af790,684428b6f6b0f08d2aa35dbf,2025-06-07_08h00.14.057,shape_ratio,2024.1.5,Win32,60.24096386,684250e4f00cb30b92d1fa88,,,,,,,,,,,138.5678,139.0679,,,139.3222,139.6853,right,,,,,,,,0.4,0.3339,,,,,,,139.0679,139.3221,139.6854,"[-0.01333983300460957,-0.0021028289477910684]",4.0,"[0.14303556916080656,0.09017769270969374]",4.0,"[-0.10863389671649346,0.15693572620011567]",4.0,"[-0.028613204796014802,-0.07922779792785445]",4.0,"[-0.1546137877545069,0.08585769245741554]",4.0,"[-0.020371314080312928,0.06098513263015801]",4.0,"[-0.06046758730555154,0.1692722125266515]",4.0,"[0.02335073243911504,0.1365664148036161]",100.0,"[-0.010924098003037922,0.16603409814032066]",4.0,"[-0.08895596080102815,-0.08706119076155841]",100.0,"[-0.0645704887384294,-0.009140264049870723]",100.0,"[-0.1271143004226134,-0.010784141757630605]",100.0,"[-0.09830610745468128,-0.03885005096582422]",4.0,"[0.0447771686393906,-0.18300911891763902]",100.0,"[0.05717386791536172,-0.042333534497293365]",4.0,"[-0.1739313136239392,-0.08451203610572776]",100.0,"[-0.09185082362216879,0.02975203989192511]",100.0,"[-0.1315207192449383,0.042473321807532854]",4.0,"[0.12158387108466423,-0.09646160771930576]",100.0,"[0.09700075781448571,0.09786378043963435]",100.0,"[0.039090121890266755,-0.10805669642020621]",4.0,"[-0.11330613761881037,-0.1256627966136936]",100.0,"[0.10531288660791706,0.034314602951692495]",100.0,"[0.11949331617148085,0.1333495448242766]",4.0,"[-0.056444785051043014,-0.1334026452874486]",100.0,"[-0.08932647997285548,0.08607351082806988]",4.0,"[-0.1446855558144888,0.12765934211910243]",4.0,"[0.13075535619790238,-0.012848046348719281]",4.0,"[0.06757350261251081,0.05263422495871166]",4.0,"[0.01104765326230147,0.03580828849971889]",100.0,"[-0.18971285644055771,-0.022774183787612548]",4.0,"[0.14427907378343288,-0.05769438172131166]",4.0,"[0.02,0.02]",140.7863,0.0,27.0,27.0,150.0,1.0,,,,,,,
,,,,,,,683b5b1a56674ca7248af790,684428b6f6b0f08d2aa35dbf,2025-06-07_08h00.14.057,shape_ratio,2024.1.5,Win32,60.24096386,684250e4f00cb30b92d1fa88,,,,,,,,,,,140.7868,141.2868,,,141.5407,141.8042,left,,,,,,,,0.6,0.2382,,,,,,,141.2868,141.5406,141.8042,"[-0.02285352737760631,-0.17242752659442334]",100.0,"[-0.1800754693951956,0.005078726984077655]",100.0,"[0.007364532477056581,-0.14134774882294032]",100.0,"[-0.038375877686215774,-0.04512865744218893]",4.0,"[0.05296440687971068,0.09829141454870043]",100.0,"[-0.1345567731423382,-0.01433456520174737]",100.0,"[-0.17734678734718287,0.054669371555242194]",4.0,"[0.12336937027408865,-0.009297916824613684]",100.0,"[0.038499628964190215,0.013955831303177239]",4.0,"[-0.09481051208861006,0.12319015911841832]",100.0,"[0.07881827090249956,-0.04490933256218252]",4.0,"[0.0955387722117346,0.12588043744829958]",4.0,"[0.006572129528619146,0.14375535773449613]",4.0,"[0.01807459184952948,-0.08668560025511662]",4.0,"[0.11881399383230526,-0.1191502076888746]",100.0,"[0.19102316644357029,0.0022387409909824366]",100.0,"[-0.016728963403298,0.19422496935669553]",100.0,"[-0.025215215166175888,-0.0007248156132916072]",100.0,"[-0.04105810706365953,0.07414005173966241]",4.0,"[-0.08248163115732682,-0.004278351058195586]",100.0,"[0.09060153400165313,0.03429076719104225]",4.0,"[0.17395105430641675,0.0636737398204781]",100.0,"[0.07021537500375725,0.17475618774021803]",100.0,"[-0.032292177446423286,-0.11156173478035909]",4.0,"[-0.06748456810314682,0.15898382617223736]",4.0,"[0.04296835062611437,-0.16884757260989522]",4.0,"[-0.1662791001109582,-0.10455072686357422]",100.0,"[-0.15762611387461697,0.10230454423739622]",100.0,"[-0.09136567216128698,-0.14144926456256035]",100.0,"[0.15892823265369585,-0.11305318008323488]",100.0,"[0.18058720520125554,-0.0431936029485752]",100.0,"[0.023862002987756866,-0.036211602496783055]",4.0,"[0.02,0.02]",142.9049,0.0,28.0,28.0,33.0,1.0,,,,,,,
,,,,,,,683b5b1a56674ca7248af790,684428b6f6b0f08d2aa35dbf,2025-06-07_08h00.14.057,shape_ratio,2024.1.5,Win32,60.24096386,684250e4f00cb30b92d1fa88,,,,,,,,,,,142.9054,143.4056,,,143.6599,143.9934,right,,,,,,,,0.9,0.3172,,,,,,,143.4056,143.6598,143.9934,"[0.030011111195510014,-0.1642549653571768]",100.0,"[0.18837818251623994,0.015114138949965137]",4.0,"[0.011193367521963754,-0.058233815363512575]",100.0,"[0.03868077636976635,0.04745678683361003]",100.0,"[0.08451418056247637,0.13365412890986986]",100.0,"[-0.08523605099769092,0.057200817524824]",100.0,"[-0.049188530975677276,-0.02527183187381098]",100.0,"[0.09204315945383162,0.0860421081325946]",100.0,"[0.1121160585664154,0.025719855186268542]",100.0,"[-0.11163587290028099,-0.14333425345157677]",100.0,"[-0.16021633313479539,-0.05825585033866614]",100.0,"[0.16626376961937125,-0.0820397587615176]",4.0,"[-0.042431872004429584,-0.0897824131432083]",100.0,"[-0.17173809985779398,0.04932904727067013]",100.0,"[-0.16745709733690395,-0.009015068221442107]",100.0,"[-0.024849115392462276,-0.13634639267965235]",100.0,"[-0.14190645817188238,0.09749876021544741]",100.0,"[0.10317163860557997,-0.08682766319548053]",100.0,"[0.03403440469861223,-0.021467607419124887]",4.0,"[-0.08127018403982048,-0.05231443925137272]",100.0,"[-0.14723846131243692,-0.11941067377560399]",100.0,"[-0.1335005499550729,0.014621146941474868]",100.0,"[-0.014424440263547939,0.19144224262156845]",100.0,"[-0.06937084608183042,0.10844261219533546]",100.0,"[-0.012414759087427356,0.07188658077467662]",100.0,"[0.030165600137096352,0.15646477497119296]",100.0,"[0.0008877347065417672,0.02013003621842428]",100.0,"[0.14440203568572368,0.10258273270810898]",100.0,"[-0.07898191300269873,-0.11494964822119735]",100.0,"[0.035810905778170865,-0.10791818293518839]",100.0,"[0.12100605047329997,-0.027434929215799195]",100.0,"[-0.06737014347687413,-0.18528686564065852]",100.0,"[0.02,0.02]",145.0905,0.0,29.0,29.0,28.0,1.0,,,,,,,
,,,,,,,683b5b1a56674ca7248af790,684428b6f6b0f08d2aa35dbf,2025-06-07_08h00.14.057,shape_ratio,2024.1.5,Win32,60.24096386,684250e4f00cb30b92d1fa88,,,,,,,,,,,145.0911,145.5911,,,145.845,147.3469,,,,,,,,,0.6,,,,,,,,145.5912,145.845,147.347,"[-0.1262193538003532,-0.14155346755087372]",100.0,"[-0.03834627871566634,0.09862024223223705]",100.0,"[-0.16809953601545435,0.1012710233091175]",4.0,"[-0.1769359381992893,-0.07564994164165739]",100.0,"[0.04756727844088591,-0.10842834371253092]",100.0,"[0.01554717935871251,-0.03179286477907005]",4.0,"[-0.15125183574905612,-0.009304274366123336]",4.0,"[0.17051419434262824,0.015887723128581603]",4.0,"[-0.026740971186841954,0.19766259571569605]",100.0,"[-0.18010445484872764,0.060215039045091755]",4.0,"[-0.04462000045070708,-0.1743694218380022]",4.0,"[-0.10482058861457168,0.1654321581212117]",100.0,"[-0.09470029180432057,-0.10504310810883724]",100.0,"[0.11609198333509574,-0.09447344191123376]",100.0,"[-0.011348341016335152,-0.08286806182648301]",100.0,"[0.04714126119359741,0.045699513636683536]",100.0,"[0.16490176782932664,0.07781820639511934]",100.0,"[0.14876981397019448,-0.12413066661625467]",100.0,"[-0.0682442002744141,0.13577878403788057]",100.0,"[0.08316626023580297,0.006818072153545995]",4.0,"[0.09895906542014446,-0.1366385319592204]",4.0,"[-0.06406407787271141,-0.012830420630624714]",4.0,"[0.06199623665744938,-0.06867968344825325]",4.0,"[0.12309822304555637,0.0529222843691888]",100.0,"[0.10719276980647222,0.14240899914630478]",100.0,"[0.04831634620854308,0.14746198675106964]",100.0,"[0.010509804979797201,-0.16322765069328268]",4.0,"[0.16038804611721777,-0.04451399549508693]",100.0,"[-0.13692071710043202,-0.07984477040102772]",4.0,"[-0.11831369378808239,0.05484812804572464]",100.0,"[-0.10911503062101652,-0.04888788205849379]",100.0,"[0.11525623536309501,0.0977013024341905]",4.0,"[0.02,0.02]",148.4439,0.0,30.0,30.0,56.0,1.0,,,,,,,
,,,,,,,683b5b1a56674ca7248af790,684428b6f6b0f08d2aa35dbf,2025-06-07_08h00.14.057,shape_ratio,2024.1.5,Win32,60.24096386,684250e4f00cb30b92d1fa88,,,,,,,,,,,148.4444,148.9444,,,149.1982,149.8288,right,,,,,,,,0.5,0.6009,,,,,,,148.9444,149.1982,149.8289,"[0.040438425194410606,-0.18267690973257902]",100.0,"[0.1263806231702855,0.08913412157038858]",100.0,"[0.0003570915632513371,-0.09034546358289702]",4.0,"[-0.14084470218106437,-0.018470563304807102]",4.0,"[-0.1488800268431978,0.07845487778831835]",4.0,"[0.12931795315076167,-0.13584883044257656]",4.0,"[0.030144128380595426,-0.022633363178691537]",100.0,"[-0.045242333242792566,-0.11780153422853144]",4.0,"[-0.1625526913634721,-0.09416636052005303]",100.0,"[0.06663248932092597,-0.06313701713701787]",4.0,"[-0.019952298157124747,-0.1825238889894162]",100.0,"[-0.08364593736611668,-0.0829318012519378]",4.0,"[0.16722948146378558,-0.09461960657506104]",100.0,"[-0.17628283876474837,-0.044189206539738304]",4.0,"[0.07746328238203173,-0.11150548393261334]",100.0,"[-0.08132273527066448,0.06473464474853298]",4.0,"[-0.19704806662072982,0.0030332670152159527]",100.0,"[0.014358899006132126,0.12778176221583726]",4.0,"[0.06442017282513005,0.12332975171904824]",100.0,"[0.1435167329650346,-0.061545380653336486]",100.0,"[-0.025505285054210042,0.08754637535501661]",100.0,"[0.10096564540011874,-0.023693058166440736]",4.0,"[-0.12438344895234063,-0.1398956046009337]",4.0,"[-0.0025180351259218746,0.02706636080166365]",100.0,"[-0.04292354943092113,-0.03844093651405558]",100.0,"[-0.07281009803235129,-0.14722027519662503]",100.0,"[-0.09589012727199145,0.019400255711283385]",4.0,"[0.03654630369659659,-0.11907286508448592]",4.0,"[0.07003000466704896,0.17074599478990155]",100.0,"[0.1801950122588955,0.08157999465234526]",100.0,"[0.15211344405288443,0.016655207613648085]",4.0,"[-0.13237519089098373,0.14877529878966805]",4.0,"[0.02,0.02]",150.9297,0.0,31.0,31.0,119.0,1.0,,,,,,,
,,,,,,,683b5b1a56674ca7248af790,684428b6f6b0f08d2aa35dbf,2025-06-07_08h00.14.057,shape_ratio,2024.1.5,Win32,60.24096386,684250e4f00cb30b92d1fa88,,,,,,,,,,,150.9302,151.4302,,,151.6809,152.8318,right,,,,,,,,0.55,1.1216,,,,,,,151.4302,151.6809,152.8318,"[0.09757595193638863,0.05388531700373119]",4.0,"[0.05473002293028348,-0.15831269648176052]",100.0,"[0.12884864251760025,0.02130485347614059]",100.0,"[0.06651829253225122,-0.05773351361292095]",4.0,"[0.1089916348809596,0.10268884364482497]",4.0,"[-0.01415161769806112,-0.1581545288006017]",100.0,"[0.10857432789251781,0.14416670581064364]",100.0,"[-0.09914375488104452,-0.15253391886324108]",4.0,"[-0.11680738382565026,0.0897446621641952]",4.0,"[0.030964499094633162,-0.030081743239578372]",100.0,"[0.007106144778415987,0.0570026513114336]",4.0,"[-0.012291077232472936,-0.05151487270267756]",100.0,"[-0.06084023739690311,0.15779689325599766]",100.0,"[0.18142294949054938,-0.04470804259443597]",4.0,"[0.02699890655193041,0.19406088316447123]",100.0,"[0.09530100816204053,-0.12247414758882509]",100.0,"[-0.0789655255525487,0.044725174026860284]",4.0,"[-0.08119308729126645,0.0014106038666846126]",100.0,"[-0.052530313108552794,0.11028209405756297]",4.0,"[0.012681251712354425,0.009466415712014637]",100.0,"[0.03775989051655603,0.0921805492910717]",4.0,"[0.05202549031826441,0.021128450179621398]",4.0,"[-0.16942308398109976,-0.02791560288086475]",100.0,"[-0.11736109204203425,0.13771860266718158]",100.0,"[0.01771373502308981,-0.08537352296647704]",100.0,"[-0.10536944308804026,-0.03253174049229765]",100.0,"[-0.14167548087392184,-0.08946922487344783]",100.0,"[-0.04524184178039066,-0.18936138734024005]",4.0,"[0.06529096377012103,0.1727086285554761]",100.0,"[0.09605140634145075,-0.17181238285326406]",4.0,"[-0.04074959715918397,-0.08796518674159767]",4.0,"[0.10290106357489091,-0.07833371889847959]",100.0,"[0.02,0.02]",153.9327,0.0,32.0,32.0,82.0,1.0,,,,,,,
,,,,,,,683b5b1a56674ca7248af790,684428b6f6b0f08d2aa35dbf,2025-06-07_08h00.14.057,shape_ratio,2024.1.5,Win32,60.24096386,684250e4f00cb30b92d1fa88,,,,,,,,,,,153.9333,154.4333,,,154.684,155.5679,right,,,,,,,,0.1,0.8526,,,,,,,154.4333,154.6839,155.568,"[-0.07301143032693427,-0.06214903650417907]",4.0,"[0.02159708372245934,-0.09099032295026968]",4.0,"[0.0036208405482097863,0.12915435240102555]",4.0,"[-0.0400675009205103,-0.19067574621882236]",4.0,"[-0.04114650860555595,0.013957684579729332]",4.0,"[0.11564865436777874,0.02770701318211154]",4.0,"[-0.179619528154574,-0.02014695208676608]",4.0,"[-0.03866377830241595,0.14791522960407313]",4.0,"[0.06331194206593313,0.1870484996838635]",4.0,"[0.17761167991194068,0.01536652019716057]",4.0,"[0.04860896020406111,0.037893345488043746]",4.0,"[-0.06505549158446709,0.0662737286038475]",4.0,"[-0.0848138400902805,0.023717470050780017]",4.0,"[-0.1435686859815945,0.10208825216885448]",4.0,"[0.13204601218883472,-0.1348701707864831]",4.0,"[-0.11463001573735836,-0.07378192219296151]",4.0,"[0.08245774380064042,-0.07909572553741472]",4.0,"[-0.022549194626966904,-0.09997945478557232]",4.0,"[-0.124438713625075,0.010873354990550468]",4.0,"[0.13065760203368393,-0.06586798749850929]",4.0,"[0.16855707011673682,0.07751421602210613]",4.0,"[0.07026617523355129,-0.15020114574346102]",100.0,"[-0.09517735176480459,0.16048271268956538]",4.0,"[0.09417844694335181,-0.006653453871195348]",4.0,"[-0.005455613179722695,-0.0559338867653487]",4.0,"[-0.16730450098283753,-0.06932930358453519]",4.0,"[0.010948421022406922,-0.013813290154879556]",4.0,"[0.0857466449292444,0.10808491160339553]",100.0,"[-0.08608327692190076,-0.10279261399177486]",4.0,"[-0.18063330924783666,0.056677902979744225]",4.0,"[-0.08476989407608888,-0.15650873277160976]",100.0,"[0.1169687687614608,0.15246591365755938]",4.0,"[0.02,0.02]",156.6688,0.0,33.0,33.0,188.0,1.0,,,,,,,
,,,,,,,683b5b1a56674ca7248af790,684428b6f6b0f08d2aa35dbf,2025-06-07_08h00.14.057,shape_ratio,2024.1.5,Win32,60.24096386,684250e4f00cb30b92d1fa88,,,,,,,,,,,156.6691,157.1694,,,157.42,158.087,right,,,,,,,,0.4,0.6365,,,,,,,157.1694,157.42,158.0871,"[-0.035580350200941885,0.11769150665772375]",100.0,"[0.10786188150088262,0.027462324656036853]",4.0,"[0.0406048379049973,-0.1606415537641526]",100.0,"[0.05685499157676787,-0.09246736832043513]",100.0,"[0.12091435246279594,0.10370383766696978]",4.0,"[0.18762294954180744,0.03337751651271793]",100.0,"[-0.16600338061176298,0.006435296555522726]",4.0,"[0.004899254281805328,0.09362765234327562]",4.0,"[-0.10795901122001188,-0.16334953121386414]",4.0,"[-0.06211284861211176,-0.04309944304735877]",4.0,"[-0.11003778488800922,-0.10557832005301082]",4.0,"[0.18844969935429357,-0.05567221891388973]",4.0,"[-0.15833680925781024,-0.06963939499547718]",4.0,"[-0.08653600093031272,0.15366832240668898]",100.0,"[0.11885010843935079,0.15303649135575226]",100.0,"[-0.01218191718442027,0.05370606450176865]",4.0,"[0.03260947343247372,0.1287371769311893]",100.0,"[0.1464906380100648,0.05871147213079935]",100.0,"[-0.04077802088291959,-0.09868509684331521]",4.0,"[-0.05073774541305439,0.03111743635072507]",100.0,"[-0.11472856877856973,0.10308807825534923]",4.0,"[0.031693468551965955,-0.05376364646759387]",100.0,"[0.1648893622581475,-0.10775648607831614]",100.0,"[-0.09326139149879493,0.03002256786981215]",4.0,"[0.03475487453384362,0.014951928447592085]",4.0,"[0.10352527445800723,-0.12975142404342666]",4.0,"[0.02623867271584821,-0.12237349598768574]",4.0,"[0.06218521970215299,0.05821093401530954]",4.0,"[-0.011769291049461431,0.19886204928912957]",4.0,"[0.060044916976954306,-0.022738302343815145]",4.0,"[-0.019027876030576457,-0.15304736173410485]",100.0,"[0.09106380984757532,-0.06693915811772311]",100.0,"[0.02,0.02]",159.188,0.0,34.0,34.0,163.0,1.0,,,,,,,
,,,,,,,683b5b1a56674ca7248af790,684428b6f6b0f08d2aa35dbf,2025-06-07_08h00.14.057,shape_ratio,2024.1.5,Win32,60.24096386,684250e4f00cb30b92d1fa88,,,,,,,,,,,159.1885,159.6884,,,159.9423,160.4394,left,,,,,,,,0.55,0.4729,,,,,,,159.6886,159.9422,160.4395,"[-0.05400972977666448,-0.1204800225701692]",100.0,"[0.1419053662320689,0.06698882409230936]",4.0,"[-0.04298586351605733,0.09837384699590691]",100.0,"[0.1887965354604978,-0.05916420144696707]",100.0,"[-0.1772940945391617,0.08418846765574833]",100.0,"[0.07534885939919284,0.08996131362340981]",100.0,"[-0.1237360201016997,-0.11637563952668926]",100.0,"[0.06319943985644066,-0.14034502264930224]",100.0,"[-0.005926075175652712,0.15453975856081287]",4.0,"[-0.03367379974047714,-0.023810063591271365]",100.0,"[0.13865815147460805,-0.09035048908455462]",100.0,"[-0.09091764480567685,0.06997034263266182]",100.0,"[-0.14544680314071573,-0.07497390443055109]",4.0,"[0.13097814041248923,-0.03485108845453063]",100.0,"[-0.1261692562963478,0.02983764202318167]",100.0,"[-0.03964852050962078,0.05624449029291629]",4.0,"[0.061216785000727185,-0.03469656189982939]",4.0,"[0.10261046217516416,0.01870848380038198]",100.0,"[0.10120616783081857,-0.15403535820840616]",100.0,"[0.0050178889136521035,0.1084271545165618]",4.0,"[0.06400478120867902,-0.0935335925525117]",4.0,"[0.16646455802316787,0.02460316195862705]",4.0,"[0.039805859835694374,0.19331519264665098]",100.0,"[0.05654072519953798,0.13978412203899987]",4.0,"[-0.03377131385554175,0.18806346093683335]",100.0,"[0.01006473496711075,-0.1367976356303608]",4.0,"[0.0030380917749174984,0.008300509884622703]",4.0,"[-0.08016947723056456,0.17055969054836295]",4.0,"[-0.09343945294892364,-0.09003733320124002]",4.0,"[-0.09322193036329826,-0.1736766398076394]",4.0,"[0.11063499397761964,0.1480948468628561]",100.0,"[-0.005505818212712536,-0.19636495854222366]",100.0,"[0.02,0.02]",161.5402,0.0,35.0,35.0,78.0,1.0,,,,,,,
,,,,,,,683b5b1a56674ca7248af790,684428b6f6b0f08d2aa35dbf,2025-06-07_08h00.14.057,shape_ratio,2024.1.5,Win32,60.24096386,684250e4f00cb30b92d1fa88,,,,,,,,,,,161.5408,162.0409,,,162.2949,162.6583,right,,,,,,,,0.1,0.3463,,,,,,,162.0409,162.2949,162.6583,"[0.048863557603591526,-0.09055325479445113]",4.0,"[0.1948614475240824,0.019617599361952415]",4.0,"[-0.09218276853783436,0.07276850747340895]",4.0,"[-0.16539301168076662,-0.07797359068193768]",4.0,"[-0.08681601774822512,-0.12116529625879252]",4.0,"[-0.17225667895344343,0.03652311900046174]",4.0,"[-0.008898198842639298,-0.10234859181034545]",4.0,"[-0.05487792299515162,-0.18661072742763646]",4.0,"[0.10034626573861134,0.10003635785674211]",4.0,"[0.010025823737058253,0.00851561571312028]",100.0,"[-0.06677754936946793,0.18835520324045069]",4.0,"[0.06121986493807659,-0.023502307725074813]",4.0,"[-0.09987351451519558,0.12306731757767822]",4.0,"[0.07630638920889038,-0.16913152997418524]",4.0,"[0.018930280425441877,0.16224749538920702]",4.0,"[-0.1783168424810725,-0.014357610216917498]",4.0,"[0.12383230645989668,0.06720363230582872]",4.0,"[0.09135820470864661,0.020181418217446102]",100.0,"[-0.07464254968643488,-0.05684557027461513]",4.0,"[-0.08349771484616315,-0.01147409748284466]",4.0,"[0.06764555220085945,0.12921898093555753]",4.0,"[0.18803730388831533,-0.0623242078021853]",4.0,"[-0.029740382944130436,-0.008476318101982162]",100.0,"[-0.02046299941396144,0.04069727130942331]",4.0,"[0.1769001579256244,-0.01865119737355816]",4.0,"[0.1172823393903293,0.14351079623227686]",4.0,"[0.11336624714778093,-0.1120512567354933]",4.0,"[0.15133896722084444,-0.1299424686210095]",4.0,"[0.07839733840632186,0.17952141249672612]",4.0,"[0.020508228122213493,-0.18302597741546894]",4.0,"[-0.11327404396717326,0.03458976671727704]",4.0,"[0.020915790953487695,-0.03009435450253981]",4.0,"[0.02,0.02]",163.7593,0.0,36.0,36.0,194.0,1.0,,,,,,,
,,,,,,,683b5b1a56674ca7248af790,684428b6f6b0f08d2aa35dbf,2025-06-07_08h00.14.057,shape_ratio,2024.1.5,Win32,60.24096386,684250e4f00cb30b92d1fa88,,,,,,,,,,,163.7596,164.2596,,,164.5138,164.7937,right,,,,,,,,0.1,0.2625,,,,,,,164.2597,164.5137,164.7937,"[-0.04497332375938499,0.1703818717082968]",4.0,"[-0.1867391789438084,-0.021606038587815204]",4.0,"[-0.025714110410474236,0.12498985481862741]",100.0,"[0.13262011184506994,-0.12588408242656915]",4.0,"[0.0628438673352383,0.04479825468304314]",4.0,"[-0.12435730014586954,0.008939606222570675]",4.0,"[0.01471395649031089,0.14649703936795588]",4.0,"[-0.06720094474741477,-0.18057280271363207]",4.0,"[0.03201164206516528,-0.05656618182144302]",100.0,"[-0.16080025223321548,0.0503139195840355]",4.0,"[-0.14026016100390845,-0.07637244977597733]",4.0,"[0.09309833721618559,0.13637063340925548]",4.0,"[0.15237383380402186,0.07958761899694858]",4.0,"[-0.08152729421464426,0.036802652672284705]",4.0,"[0.00034132936019656216,-0.0072229105468748465]",4.0,"[-0.06445248528647145,-0.0029175771751517414]",4.0,"[0.08595896462115236,-0.0472261648298178]",100.0,"[-0.10098987848128124,0.15767682343940437]",4.0,"[0.04378453334604245,-0.1751004485362424]",4.0,"[0.1525490505006406,-0.010505702146450442]",4.0,"[-0.11384136798460312,-0.11552091656588176]",4.0,"[-0.0714828296965839,-0.1117621706445176]",4.0,"[-0.01818548570798981,-0.14957770666945042]",4.0,"[0.1797016452366527,0.043459687019280685]",4.0,"[0.12675294304257215,0.04594405034228197]",4.0,"[-0.07463520751864887,-0.04195673251544998]",4.0,"[0.1382884404715324,-0.05798790145482179]",4.0,"[-0.03127099292432211,0.055079303446022305]",4.0,"[0.026931021167631675,0.02431429688944696]",4.0,"[-0.07207370141073191,0.10230290783040376]",4.0,"[0.08335279277633677,0.09024964208505304]",4.0,"[-0.0010009102507574166,-0.18803839342554693]",4.0,"[0.02,0.02]",165.8947,0.0,37.0,37.0,197.0,1.0,,,,,,,
,,,,,,,683b5b1a56674ca7248af790,684428b6f6b0f08d2aa35dbf,2025-06-07_08h00.14.057,shape_ratio,2024.1.5,Win32,60.24096386,684250e4f00cb30b92d1fa88,,,,,,,,,,,165.8952,166.3952,,,166.6491,166.9793,right,,,,,,,,0.6,0.3042,,,,,,,166.3952,166.649,166.9794,"[-0.030921535860401347,-0.14313105587056765]",100.0,"[0.08827421292284657,-0.029681363417667438]",100.0,"[-0.07835304854934191,0.08053426154243257]",100.0,"[-0.12020827541894753,-0.11338319195331545]",4.0,"[0.10673812748200857,0.052893247621294735]",100.0,"[0.19106509753034343,-0.015011196388373432]",4.0,"[0.01376313857017175,-0.011560618600356376]",100.0,"[0.014654526958432263,-0.18463844682682676]",4.0,"[-0.05706013065083987,0.025990325055119324]",100.0,"[0.04067592607458331,0.1322659298720309]",100.0,"[-0.07093795800937662,-0.054455269943079136]",4.0,"[-0.014496226778489014,-0.04332103060107361]",4.0,"[0.18729587750874702,0.03768869888238048]",4.0,"[-0.15494712126431448,0.0012235124812784767]",100.0,"[-0.06293605951942667,-0.11279088950411427]",4.0,"[-0.11145487820808184,-0.014884736937232778]",4.0,"[0.10494702713187624,0.12931512262338773]",100.0,"[-0.17294189117227934,0.06396892859250056]",100.0,"[0.036141157902513155,0.17409973104114898]",100.0,"[-0.12907218750178676,-0.054080976378267594]",100.0,"[0.08811431133932955,-0.09663570350319546]",100.0,"[0.16846921718993177,0.09215900238354116]",4.0,"[0.011179884497574616,0.03210104667134204]",100.0,"[0.05514333096766876,0.041631807019665304]",4.0,"[-0.0012131575567617154,0.07957505987763847]",100.0,"[0.005454644514868415,-0.0896319004888592]",100.0,"[0.13901887977964628,-0.029767196770905665]",4.0,"[-0.058996431137757724,0.15291147546871864]",100.0,"[-0.17897412066241622,-0.07013833117304565]",4.0,"[-0.02949388294302406,0.18509440837766375]",4.0,"[0.050410053819920676,-0.11773319870381749]",100.0,"[0.10487420699539238,-0.1649834133562551]",100.0,"[0.02,0.02]",168.0801,0.0,38.0,38.0,31.0,1.0,,,,,,,
,,,,,,,683b5b1a56674ca7248af790,684428b6f6b0f08d2aa35dbf,2025-06-07_08h00.14.057,shape_ratio,2024.1.5,Win32,60.24096386,684250e4f00cb30b92d1fa88,,,,,,,,,,,168.0807,168.5807,,,168.8315,169.5318,right,,,,,,,,0.55,0.6719,,,,,,,168.5807,168.8315,169.5318,"[0.015255927445865828,-0.13558378797688794]",100.0,"[0.15822130403135531,0.08382531015755812]",4.0,"[0.037658647387164734,0.03524167858738477]",100.0,"[0.00872583665731585,0.10623901568756404]",4.0,"[-0.16100175932125277,-0.01527474902882]",4.0,"[-0.06931376851971091,-0.12608358376399986]",100.0,"[-0.15106805585415808,0.08915660665392794]",100.0,"[-0.058354789216769586,0.1711807586661916]",4.0,"[-0.002622342227282971,-0.01591684111422893]",4.0,"[0.03828878734045882,-0.1724420586073979]",100.0,"[0.10715132407614433,-0.048034663100568364]",100.0,"[-0.04908610772931907,0.050739692302253024]",100.0,"[0.11070349288609846,-0.1579110120325095]",4.0,"[-0.045194632011698335,-0.05320658905587488]",4.0,"[0.1257061911772901,-0.009762945539713744]",4.0,"[-0.11375594635599551,0.06800232329760318]",4.0,"[0.040160065333048986,0.189615519288258]",100.0,"[-0.12104620609664118,0.027092459372476167]",4.0,"[0.1347620549066303,-0.08061116042029917]",4.0,"[0.057219749835714886,0.1359336326253932]",100.0,"[-0.12257992808048832,-0.04016158482111808]",100.0,"[-0.12007753483370143,0.13377449454608448]",4.0,"[-0.06528889150410115,-0.16933374095737047]",100.0,"[0.042692621194490146,-0.07458645334182037]",100.0,"[-0.1520816538594469,-0.07214068348382682]",4.0,"[0.11791219567987209,0.09584491215809703]",100.0,"[-0.13184157758736792,-0.11231278285984882]",4.0,"[0.039250021626568043,-0.009541263899204108]",100.0,"[0.09994451228094343,0.17196649433935854]",100.0,"[0.0020454232125810636,-0.19505283137689464]",100.0,"[-0.10894202363412464,-0.1577430478418588]",100.0,"[-0.01697535498866587,-0.10726225753180743]",100.0,"[0.02,0.02]",170.6327,0.0,39.0,39.0,84.0,1.0,,,,,,,
,,,,,,,683b5b1a56674ca7248af790,684428b6f6b0f08d2aa35dbf,2025-06-07_08h00.14.057,shape_ratio,2024.1.5,Win32,60.24096386,684250e4f00cb30b92d1fa88,,,,,,,,,,,170.6331,171.1332,,,171.3871,172.4013,left,,,,,,,,0.55,0.9981,,,,,,,171.1332,171.3871,172.4014,"[0.15026182744590413,-0.039037732750628766]",4.0,"[-0.07140182330349105,-0.12028659232410889]",100.0,"[0.12049190712170299,-0.14541099374408792]",100.0,"[0.022847562607699122,0.19522439594824353]",100.0,"[0.06827925875627064,-0.1507407041529081]",4.0,"[-0.0126700334329431,-0.1750480135927115]",4.0,"[-0.18899368242624423,-0.02436756242207477]",4.0,"[0.0881643966931223,-0.11522001291517403]",100.0,"[-0.07301097461555928,0.16433942724967737]",100.0,"[0.10513224075066044,-0.03830612893209949]",100.0,"[-0.08449645837813519,0.09653087768037773]",100.0,"[0.0489850019602658,0.08116856093556338]",4.0,"[0.1738762650352012,0.027305141402753932]",100.0,"[-0.14629400799887135,0.04700613820320637]",4.0,"[-0.12038049103043506,-0.010267787618743621]",100.0,"[-0.09394294937457662,-0.15657423055496064]",4.0,"[-0.03151445098173237,-0.09664452403687683]",100.0,"[-0.15805539490703713,-0.06718045380130812]",4.0,"[0.11006714826845564,0.1127732198755463]",100.0,"[0.10468927743221355,0.15884430381480513]",4.0,"[0.06053971840604512,-0.07668029693996502]",100.0,"[0.052277426785802376,0.01835580645224516]",100.0,"[0.020395795045492025,-0.057814258949898945]",4.0,"[0.09529812500357861,0.05544902695078895]",100.0,"[-0.039638716862369576,0.06238365358183154]",4.0,"[-0.0788477975419641,-0.07331405822849318]",100.0,"[-0.008937267967173012,0.08819950987260573]",100.0,"[-0.016721232221521064,0.16372227686057506]",100.0,"[-0.07489819637475754,0.014343763360741271]",4.0,"[0.0523538281159856,0.1445228015879375]",100.0,"[-0.04319430488308918,-0.04891838427347019]",4.0,"[-0.04894443168938242,0.12790741288786864]",4.0,"[0.02,0.02]",173.5024,0.0,40.0,40.0,80.0,1.0,,,,,,,
,,,,,,,683b5b1a56674ca7248af790,684428b6f6b0f08d2aa35dbf,2025-06-07_08h00.14.057,shape_ratio,2024.1.5,Win32,60.24096386,684250e4f00cb30b92d1fa88,,,,,,,,,,,173.5029,174.0028,,,174.2567,175.0243,right,,,,,,,,0.1,0.751,,,,,,,174.0029,174.2567,175.0243,"[0.16435483977481824,0.017174759908190288]",4.0,"[0.12582720265831598,-0.07861541648120661]",4.0,"[-0.12659677359110158,0.1288249935554079]",4.0,"[-0.052178506800026364,-0.03962369664268326]",4.0,"[0.1782239329705709,-0.059634113063656465]",4.0,"[0.019753006247917138,-0.19459525224520655]",4.0,"[-0.023428817074663766,0.15127143812116564]",4.0,"[-0.0061669334443620995,-0.05269697054601524]",4.0,"[0.07494869185463619,0.09343920779846684]",4.0,"[-0.12789042309597665,-0.004227851279641131]",100.0,"[-0.05150643216063145,-0.11774925347099748]",4.0,"[-0.155358300874992,-0.07210339068615713]",4.0,"[0.0925177157201404,-0.13244654751800028]",4.0,"[0.11449574763662933,-0.025770119819087858]",4.0,"[0.03238803459370686,0.16996985467698686]",4.0,"[-0.03332024622455156,-0.17560389812218127]",4.0,"[0.06164621928006688,-0.07900329314949195]",4.0,"[-0.08836370678618145,0.15625838764734432]",100.0,"[-0.05985077807882433,0.05392365562049126]",4.0,"[-0.12953918833629544,-0.1355102920996596]",4.0,"[-0.1746893865007208,0.0928256478094007]",4.0,"[0.07657720245515447,0.03162443992699654]",4.0,"[0.08866170749824774,0.13659129812146648]",4.0,"[-0.0010542085224240114,0.08831199393688462]",4.0,"[0.12108168417819219,0.09491997566077279]",4.0,"[-0.08100041637695175,-0.18216775348516118]",4.0,"[-0.1341614437132644,0.08298017021161683]",4.0,"[-0.098932524763111,-0.10297269204398839]",4.0,"[0.06517804950504956,-0.034895331011066295]",4.0,"[0.19527396643300723,-0.01615710711816805]",4.0,"[0.002459450078910993,-0.14972597164613555]",4.0,"[0.028676329585611136,-0.11553195375826064]",100.0,"[0.02,0.02]",176.1216,0.0,41.0,41.0,185.0,1.0,,,,,,,
,,,,,,,683b5b1a56674ca7248af790,684428b6f6b0f08d2aa35dbf,2025-06-07_08h00.14.057,shape_ratio,2024.1.5,Win32,60.24096386,684250e4f00cb30b92d1fa88,,,,,,,,,,,176.1221,176.622,,,176.875,177.7069,left,,,,,,,,0.5,0.8142,,,,,,,176.6221,176.8749,177.707,"[0.14775738865208718,0.00631731355257867]",100.0,"[0.017782603027230774,-0.04592534629526489]",100.0,"[0.03954591066684407,0.02370720805260484]",4.0,"[-0.04487484915257194,0.054203819603163485]",4.0,"[0.028727407084856136,0.10746057747098821]",4.0,"[0.1103310438065011,-0.009173664745557985]",4.0,"[0.06000635644005421,-0.10007756755128393]",4.0,"[0.19013693485413435,-0.05963140686129081]",100.0,"[0.09283308426684553,0.13299994181310365]",100.0,"[-0.05801150852087839,-0.08404521426610602]",4.0,"[-0.005869781520514217,-0.11302879819553134]",100.0,"[-0.002835178467697285,0.08239120819554821]",4.0,"[-0.12488794921372653,-0.10993733141285715]",100.0,"[-0.02116794627355864,-0.15582770628351317]",100.0,"[-0.18898342274499003,0.007154344703936497]",4.0,"[-0.1397522416894746,0.031413583932731345]",100.0,"[-0.0289632687351742,0.12323372945778956]",100.0,"[0.04416268449736276,0.1661928149131186]",100.0,"[0.16802067049761218,0.07603095349587198]",4.0,"[-0.030863648793260708,0.18580709538274798]",100.0,"[0.09042016684845816,-0.17695717195084543]",4.0,"[-0.10026982205643147,0.16565058651560247]",4.0,"[-0.17938749879974428,-0.08246276395122243]",100.0,"[0.04629651254823556,-0.1824483128679407]",4.0,"[0.19299993580553726,-0.016361234514480048]",4.0,"[0.10576860334511856,-0.13903354649450037]",100.0,"[-0.005981237148409151,0.0077300128270957405]",100.0,"[0.13339583209929196,-0.08493712667652518]",4.0,"[-0.07149700319219668,-0.17603790321226104]",4.0,"[-0.06424590190352404,-0.0219319134726316]",4.0,"[0.055737625352721164,0.06620950174134758]",100.0,"[0.11596221531071624,0.03333553430801816]",100.0,"[0.02,0.02]",178.8076,0.0,42.0,42.0,95.0,1.0,,,,,,,
,,,,,,,683b5b1a56674ca7248af790,684428b6f6b0f08d2aa35dbf,2025-06-07_08h00.14.057,shape_ratio,2024.1.5,Win32,60.24096386,684250e4f00cb30b92d1fa88,,,,,,,,,,,178.808,179.308,,,179.5619,180.3928,left,,,,,,,,0.6,0.8041,,,,,,,179.3082,179.5619,180.3928,"[0.14637630372678206,-0.049761035024190076]",100.0,"[0.05085510365376636,0.17248918520977002]",100.0,"[0.045264771495252605,0.02052507900981168]",4.0,"[-0.11349391103705492,0.006670187043140455]",4.0,"[-0.004119671770954916,-0.13128559960347028]",100.0,"[-0.08515936374967267,-0.08056192294304676]",4.0,"[-0.18497597385336736,-0.07133351756721489]",4.0,"[-0.01008716922613174,0.08727255383288914]",100.0,"[0.020495072281625788,-0.04705657243871717]",4.0,"[-0.01203357788281858,-0.09100048316045971]",100.0,"[-0.1241696868484847,0.14780861848998034]",100.0,"[-0.10228174522097329,0.05479258160603411]",100.0,"[0.120792756863229,-0.08703961861970957]",4.0,"[0.18944667413949412,0.0149780845646686]",100.0,"[-0.15722356493660444,0.09171819325233656]",100.0,"[-0.03689595101958142,-0.1886380457945225]",100.0,"[0.07517889798169525,-0.06340328015881916]",100.0,"[0.15623851424130675,-0.12409421480611191]",4.0,"[0.09168558622186909,0.030761531891390432]",4.0,"[-0.003285679824613569,0.003652783290913262]",100.0,"[-0.05123800625588532,0.12037545285931243]",100.0,"[0.03225479774018018,0.12018976373899508]",100.0,"[-0.0332540619978722,-0.03925036385179608]",4.0,"[-0.08134071160182059,-0.18149707682052607]",4.0,"[0.13450365237981393,0.017736888889330796]",4.0,"[0.07509298897310358,0.09485250524881939]",100.0,"[0.18380422194684262,0.057759462893404]",100.0,"[-0.019038466136575918,0.04154696086691898]",100.0,"[-0.09036111946326912,-0.14244317587083008]",100.0,"[-0.025514218197501694,0.162987627570789]",4.0,"[-0.06712331049183458,0.15863324296947054]",100.0,"[0.08167226316040603,-0.1628307067889997]",4.0,"[0.02,0.02]",181.4935,0.0,43.0,43.0,54.0,1.0,,,,,,,
,,,,,,,683b5b1a56674ca7248af790,684428b6f6b0f08d2aa35dbf,2025-06-07_08h00.14.057,shape_ratio,2024.1.5,Win32,60.24096386,684250e4f00cb30b92d1fa88,,,,,,,,,,,181.494,181.9946,,,182.2481,183.3456,left,,,,,,,,0.45,1.0794,,,,,,,181.9947,182.2481,183.3456,"[-0.016151584295951642,0.06795407430722407]",4.0,"[-0.15841199636022743,0.06179978417675515]",100.0,"[-0.16297612140438256,-0.004689856224659742]",4.0,"[-0.12292843461298092,-0.04979181229579011]",100.0,"[-0.05919923530963021,0.017441227523892447]",4.0,"[-0.0641483412057125,-0.11163066025625155]",100.0,"[0.12177459808998622,0.12870147663078227]",4.0,"[-0.019840697819294605,0.16822754254105488]",4.0,"[-0.029368763738818592,-0.14189187460688374]",100.0,"[-0.10804957936616476,0.07951195149764728]",4.0,"[0.11087839721887116,-0.07639766009349427]",100.0,"[0.003824946434138957,0.0008182101623028496]",4.0,"[0.1700361526354742,0.050755058661099216]",4.0,"[0.04670144796448845,0.01112095344741268]",4.0,"[-0.10773783335433212,-0.11833928982066254]",100.0,"[0.11126683666061878,0.025105081622933983]",4.0,"[-0.11434292123502632,0.021601813552026193]",100.0,"[0.16737939260187298,-0.09055832918334283]",4.0,"[-0.023300689837097092,-0.09152083482674389]",4.0,"[-0.07398604558094317,0.15558571019096737]",100.0,"[0.0370332030043026,-0.09027657963700517]",100.0,"[0.0328069144473047,0.07982561012195087]",4.0,"[-0.08698382728692095,-0.16824394314457705]",4.0,"[0.05816971277180225,-0.15179308667517563]",4.0,"[0.15446544508128873,-0.005230788049434257]",4.0,"[0.05268974766170931,-0.04582918589563104]",100.0,"[-0.016979058528147028,-0.04771893123855348]",100.0,"[0.14777590552544353,-0.12816263126415153]",4.0,"[-0.06988722490178867,-0.06529790534919767]",100.0,"[-0.16662654216609812,-0.10126422656989219]",4.0,"[0.0353981304247329,0.15984244944087575]",100.0,"[0.17118040026711331,0.09787972838125715]",100.0,"[0.02,0.02]",184.4465,0.0,44.0,44.0,142.0,1.0,,,,,,,
,,,,,,,683b5b1a56674ca7248af790,684428b6f6b0f08d2aa35dbf,2025-06-07_08h00.14.057,shape_ratio,2024.1.5,Win32,60.24096386,684250e4f00cb30b92d1fa88,,,,,,,,,,,184.447,184.9471,,,185.2008,186.1985,left,,,,,,,,0.9,0.9756,,,,,,,184.9471,185.2008,186.1985,"[0.0934900341062662,-0.15981051891936368]",100.0,"[-0.0926308242883246,0.04614784252922362]",4.0,"[-0.1885660814830701,-0.005734086856348341]",100.0,"[0.011751169172151988,-0.053081309164320814]",100.0,"[-0.04896183495820627,0.12101988646998199]",100.0,"[-0.11892648560790392,0.11726392668109514]",100.0,"[-0.018824496582520993,0.16033837991559868]",100.0,"[-0.05848856500512351,-0.07648431499995105]",100.0,"[-0.0342618210401183,0.008718991407836179]",100.0,"[0.1368523116622513,-0.0932395815110276]",100.0,"[0.08763724014676985,0.13702920936703467]",100.0,"[0.07522147940775535,-0.11205478161122366]",100.0,"[0.007723029651501012,0.02665142818339784]",100.0,"[-0.12888527437232558,-0.13673449721842273]",100.0,"[0.17372959894641402,0.08725792430154031]",100.0,"[-0.03883065933312857,-0.17553486671906787]",100.0,"[0.12927267979817025,0.0414917867797015]",100.0,"[0.05393257474551783,-0.016633278155497068]",100.0,"[-0.16057887454650924,-0.057471070577928045]",100.0,"[-0.05388335181782097,-0.035047901424999264]",100.0,"[-0.1330200582944474,0.05098742203587036]",100.0,"[0.170195097152227,0.029688652502017607]",100.0,"[-0.02638619263728527,0.05963115195419194]",100.0,"[0.0609946269385674,0.07989570471191366]",100.0,"[-0.09059438242815751,-0.009263177917474065]",4.0,"[0.19136878655133377,-0.02311020193185593]",100.0,"[0.03376503410542254,-0.14553649970664148]",100.0,"[-0.08057652832466793,-0.17886486161957632]",100.0,"[-0.18568996486801362,0.03903897884200583]",100.0,"[0.14792845924364548,0.12689462996259532]",4.0,"[0.04542899512235645,-0.18743121898003853]",100.0,"[0.06383723502850307,0.17741593778017142]",100.0,"[0.02,0.02]",187.2993,0.0,45.0,45.0,27.0,1.0,,,,,,,
,,,,,,,683b5b1a56674ca7248af790,684428b6f6b0f08d2aa35dbf,2025-06-07_08h00.14.057,shape_ratio,2024.1.5,Win32,60.24096386,684250e4f00cb30b92d1fa88,,,,,,,,,,,187.2999,187.7998,,,188.0505,189.0847,left,,,,,,,,0.9,1.0081,,,,,,,187.7999,188.0505,189.0848,"[-0.03272620073086126,-0.15233049913663377]",100.0,"[-0.05999418720922013,0.015337865150242849]",100.0,"[-0.09335911280055387,-0.06908274998265637]",100.0,"[0.039906693670028234,0.1673043632092646]",100.0,"[0.04533016483877886,-0.0880365418006269]",100.0,"[0.1198623077000425,0.11250624490726907]",100.0,"[-0.12108569115589896,-0.15630064458234716]",4.0,"[0.08839813692819427,0.030503666704499756]",100.0,"[-0.031324633713952624,0.19680127606986905]",100.0,"[-0.0286788938654296,0.12398921112896692]",100.0,"[0.013380598380917463,0.0064374247850363395]",100.0,"[0.12685991265325677,-0.01376745845912136]",100.0,"[-0.08266510552762203,0.14838961539043893]",100.0,"[-0.15777683471617437,0.10430221262189113]",4.0,"[0.07064027351201536,-0.12674410143655093]",100.0,"[0.16185958853516438,0.05057247614199369]",100.0,"[0.04998500412012988,0.09024759508536058]",100.0,"[-0.010131181179025622,0.04190444737761104]",100.0,"[0.13308516775267848,-0.12651002283824125]",100.0,"[-0.04279643198044238,-0.06073788707418344]",100.0,"[0.18430788335637066,-0.038265162975129434]",4.0,"[-0.16193483532245204,-0.038169175281700954]",100.0,"[-0.1000625873217953,-0.11724857674660782]",100.0,"[0.007197544649720265,-0.11651141172876978]",100.0,"[-0.15842837251765188,0.005862655144494688]",100.0,"[0.00030778566918032246,-0.1937297309330032]",100.0,"[0.07514560250355994,-0.023590886702534786]",100.0,"[-0.06806447448375956,0.06276037167187846]",100.0,"[-0.08781283017543744,-0.025287584251011276]",100.0,"[0.1423166364648287,-0.05482424705908128]",100.0,"[-0.02160146168569533,0.0838527573723474]",100.0,"[-0.19340040590812613,0.03900759770940064]",100.0,"[0.02,0.02]",190.1857,0.0,46.0,46.0,24.0,1.0,,,,,,,
,,,,,,,683b5b1a56674ca7248af790,684428b6f6b0f08d2aa35dbf,2025-06-07_08h00.14.057,shape_ratio,2024.1.5,Win32,60.24096386,684250e4f00cb30b92d1fa88,,,,,,,,,,,190.1862,190.6861,,,190.94,191.4871,right,,,,,,,,0.6,0.5187,,,,,,,190.6861,190.94,191.4872,"[0.10433699999126654,0.07350969826592935]",4.0,"[-0.046550411902944046,0.04998726639093714]",100.0,"[0.028788253404913804,-0.13455144109321687]",4.0,"[-0.12958250484037476,0.042543206599709844]",4.0,"[0.1413637814855129,0.0020483581100329815]",100.0,"[0.06153837162593272,0.11997255378163699]",100.0,"[-0.1667829663489574,0.004921262567405928]",4.0,"[0.08511578098713043,0.1531724369913185]",100.0,"[-0.0331194854349212,-0.046308183575476634]",100.0,"[0.0793185005531165,-0.13791867356054677]",4.0,"[-0.09367690426477587,-0.15846382128233868]",100.0,"[-0.05285891712578531,-0.1923449117325018]",4.0,"[-0.07979800020316942,0.1280420513211546]",4.0,"[0.1748532290346592,0.09147725951126194]",100.0,"[-0.16567578776137956,-0.06191885164815796]",100.0,"[-0.14873499695789308,0.10230731119586091]",100.0,"[-0.08734782621184775,0.03631155005900165]",4.0,"[-0.011938523604765671,-0.1186147385239478]",4.0,"[0.00966969457914373,0.08432711364941152]",100.0,"[0.12540267245036799,-0.10792280317533674]",100.0,"[0.025273806366445842,-0.005662579806529968]",4.0,"[-0.10687081172660844,-0.035365834199641864]",4.0,"[-0.007470626954691169,-0.18235040742479355]",100.0,"[-0.19458918839797087,0.04012059159143389]",100.0,"[0.1428484337505999,0.046140410111938576]",100.0,"[-0.0820059187596525,-0.10088277938628454]",4.0,"[-0.06447906628972372,0.086372160786822]",100.0,"[0.19320040104253192,-0.03770267219906133]",100.0,"[0.07910620935392115,-0.17896246810571861]",100.0,"[0.03303558394765626,-0.17865804965053805]",100.0,"[-0.01059781197860116,0.19243872972983583]",100.0,"[0.07867930387137556,-0.03522364783201667]",4.0,"[0.02,0.02]",192.588,0.0,47.0,47.0,32.0,1.0,,,,,,,
,,,,,,,683b5b1a56674ca7248af790,684428b6f6b0f08d2aa35dbf,2025-06-07_08h00.14.057,shape_ratio,2024.1.5,Win32,60.24096386,684250e4f00cb30b92d1fa88,,,,,,,,,,,192.5887,193.0885,,,193.3423,194.0563,left,,,,,,,,0.45,0.6955,,,,,,,193.0885,193.3423,194.0563,"[-0.03587049928049152,0.13743872657894485]",4.0,"[0.011787052855571765,0.11634034023999369]",100.0,"[-0.06808347887613769,0.08073513635879258]",100.0,"[-0.09206457822498207,-0.10746555314376845]",4.0,"[-0.19326572706626569,0.02867844379201027]",100.0,"[0.147046833980564,0.05123423555358389]",100.0,"[0.07124209291147028,0.030999949738934263]",4.0,"[0.022829039537017714,0.1697477910317798]",100.0,"[-0.1113316563936558,-0.018885449957373606]",4.0,"[0.030264841700735724,-0.14653689609245932]",100.0,"[-0.058325631379856475,0.035598148761023914]",100.0,"[0.12373134116609649,0.08415186177790171]",4.0,"[-0.15109293010099437,0.05560042788521305]",4.0,"[0.17834054627172966,-0.03142715832614872]",4.0,"[-0.02424941928888989,-0.04862057919939536]",4.0,"[-0.027580454535634836,0.07562242745006291]",4.0,"[0.008510496717949267,-0.09479308024950069]",4.0,"[0.07594311841442944,-0.029319517405888722]",100.0,"[0.029243547969713218,-0.02085548461926966]",100.0,"[-0.148133053973595,-0.043192200275515125]",4.0,"[-0.18454712119940078,-0.025250329050815805]",4.0,"[-0.05082405201320648,-0.1106177867997444]",4.0,"[0.07737504341772898,-0.1420235322501526]",4.0,"[0.17494307549279886,-0.09175282600187211]",4.0,"[-0.1512815710525465,-0.09910315172450888]",4.0,"[0.06964329950275429,0.07279222566762393]",100.0,"[-0.06445626674731691,-0.06657381829864314]",100.0,"[0.16409882201012546,0.0897110702291375]",100.0,"[0.08044449494925754,-0.09914726385825516]",100.0,"[-0.04026679406028006,-0.004598053852301825]",4.0,"[0.09294505590459848,0.11094985039994067]",4.0,"[-0.036616260862290244,-0.19532074161584304]",100.0,"[0.02,0.02]",195.1572,0.0,48.0,48.0,148.0,1.0,,,,,,,
,,,,,,,683b5b1a56674ca7248af790,684428b6f6b0f08d2aa35dbf,2025-06-07_08h00.14.057,shape_ratio,2024.1.5,Win32,60.24096386,684250e4f00cb30b92d1fa88,,,,,,,,,,,195.1577,195.6577,,,195.9119,196.9592,left,,,,,,,,0.55,1.0181,,,,,,,195.6577,195.9118,196.9592,"[-0.17129537058974245,0.0579803340076093]",100.0,"[0.06780098048063744,0.10462329431966547]",100.0,"[-0.13207961911166125,0.06950006739334644]",100.0,"[0.17872994735992706,-0.015057787869207601]",4.0,"[-0.04999696553928063,0.11039552194286388]",100.0,"[-0.05371376832055455,0.1870562225329904]",100.0,"[-0.08562971069035893,-0.10396061989110715]",4.0,"[-0.034333009911227404,-0.003853311815465125]",4.0,"[0.1376972787967388,-0.019279679831630505]",4.0,"[0.01892866195447657,0.17961817945918268]",100.0,"[0.09313136131648103,-0.14060960417555057]",4.0,"[0.1578667073727679,-0.06606418889292695]",4.0,"[0.03173634734750079,-0.18549092565364994]",100.0,"[0.042971554688430856,0.0016411879520522577]",100.0,"[-0.14517930667345605,-0.05568016470544897]",4.0,"[0.11838831333247694,0.09523861919546049]",100.0,"[-0.17670997950693204,-0.00427353765482274]",100.0,"[-0.11858481837427384,0.16046709758978303]",100.0,"[0.05584663429524357,0.0592328768844551]",100.0,"[0.024684634358018088,0.12010100866107594]",100.0,"[0.09463350306125205,0.010904074989216788]",100.0,"[0.10603495926581928,0.05189471342506725]",4.0,"[0.055065767985190084,-0.037801076326428845]",4.0,"[-0.03835025352848583,-0.19360916113307697]",4.0,"[-0.010486058904959156,-0.16092941667679203]",4.0,"[0.030990022869572524,-0.09331863088852574]",4.0,"[-0.1347092802703813,0.1128588578774308]",100.0,"[-0.027549230629076674,-0.08134474481790417]",4.0,"[-0.14676912230556988,-0.12323760033139759]",100.0,"[-0.09783106051886656,0.008241231629274457]",100.0,"[-0.06264628516369238,0.052892731495000775]",4.0,"[0.015331779689456763,0.06171125901959566]",100.0,"[0.02,0.02]",198.0601,0.0,49.0,49.0,67.0,1.0,,,,,,,
