right,left,explain.started,explain.stopped,key_resp_3.keys,key_resp_3.rt,key_resp_3.duration,participant,session,date,expName,psychopyVersion,OS,frameRate,study_id,explain_2.started,explain_2.stopped,key_resp_4.keys,key_resp_4.rt,key_resp_4.duration,explain_3.started,explain_3.stopped,key_resp_5.keys,key_resp_5.rt,key_resp_5.duration,fixation.started,fixation.stopped,practice.started,practice.stopped,response.started,response.stopped,key_resp.keys,feedback.started,feedback.stopped,trials_2.thisRepN,trials_2.thisTrialN,trials_2.thisN,trials_2.thisIndex,trials_2.ran,dot_ratio,explain_4.started,explain_4.stopped,key_resp_6.keys,key_resp_6.rt,key_resp_6.duration,dotDisplay.started,dotDisplay.stopped,key_resp.rt,key_resp.duration,ITI.started,polygon_1.pos,polygon_1.edges,polygon_2.pos,polygon_2.edges,polygon_3.pos,polygon_3.edges,polygon_4.pos,polygon_4.edges,polygon_5.pos,polygon_5.edges,polygon_6.pos,polygon_6.edges,polygon_7.pos,polygon_7.edges,polygon_8.pos,polygon_8.edges,polygon_9.pos,polygon_9.edges,polygon_10.pos,polygon_10.edges,polygon_11.pos,polygon_11.edges,polygon_12.pos,polygon_12.edges,polygon_13.pos,polygon_13.edges,polygon_14.pos,polygon_14.edges,polygon_15.pos,polygon_15.edges,polygon_16.pos,polygon_16.edges,polygon_17.pos,polygon_17.edges,polygon_18.pos,polygon_18.edges,polygon_19.pos,polygon_19.edges,polygon_20.pos,polygon_20.edges,polygon_21.pos,polygon_21.edges,polygon_22.pos,polygon_22.edges,polygon_23.pos,polygon_23.edges,polygon_24.pos,polygon_24.edges,polygon_25.pos,polygon_25.edges,polygon_26.pos,polygon_26.edges,polygon_27.pos,polygon_27.edges,polygon_28.pos,polygon_28.edges,polygon_29.pos,polygon_29.edges,polygon_30.pos,polygon_30.edges,polygon_31.pos,polygon_31.edges,polygon_32.pos,polygon_32.edges,dot_size,ITI.stopped,trials.thisRepN,trials.thisTrialN,trials.thisN,trials.thisIndex,trials.ran,break_2.started,break_2.stopped,trials_3.thisRepN,trials_3.thisTrialN,trials_3.thisN,trials_3.thisIndex,trials_3.ran
subject chose diamond,subject chose dot,0.0004,47.3395,space,32.3061,0.0005,683dd5dbf93407b4f87a7cd9,68442818c56998de97088960,2025-06-07_04h53.54.695,shape_ratio,2024.1.5,Win32,59.88023952,684250e4f00cb30b92d1fa88,,,,,,,,,,,,,,,,,,,,,,,,,,,,,,,,,,,,,,,,,,,,,,,,,,,,,,,,,,,,,,,,,,,,,,,,,,,,,,,,,,,,,,,,,,,,,,,,,,,,,,,,,,,,,,,,,
,,,,,,,683dd5dbf93407b4f87a7cd9,68442818c56998de97088960,2025-06-07_04h53.54.695,shape_ratio,2024.1.5,Win32,59.88023952,684250e4f00cb30b92d1fa88,47.3401,125.1197,space,47.7544,,,,,,,,,,,,,,,,,,,,,,,,,,,,,,,,,,,,,,,,,,,,,,,,,,,,,,,,,,,,,,,,,,,,,,,,,,,,,,,,,,,,,,,,,,,,,,,,,,,,,,,,,,,,,
,,,,,,,683dd5dbf93407b4f87a7cd9,68442818c56998de97088960,2025-06-07_04h53.54.695,shape_ratio,2024.1.5,Win32,59.88023952,684250e4f00cb30b92d1fa88,,,,,,125.1213,131.5388,space,3.3987,,,,,,,,,,,,,,,,,,,,,,,,,,,,,,,,,,,,,,,,,,,,,,,,,,,,,,,,,,,,,,,,,,,,,,,,,,,,,,,,,,,,,,,,,,,,,,,,,,,,,,,,
,,,,,,,683dd5dbf93407b4f87a7cd9,68442818c56998de97088960,2025-06-07_04h53.54.695,shape_ratio,2024.1.5,Win32,59.88023952,684250e4f00cb30b92d1fa88,,,,,,,,,,,131.5898,132.0477,132.0487,132.2885,132.289,133.7853,,133.7856,134.8798,0.0,0.0,0.0,1.0,1.0,0.8,,,,,,,,,,,,,,,,,,,,,,,,,,,,,,,,,,,,,,,,,,,,,,,,,,,,,,,,,,,,,,,,,,,,,,,,,,,,,,,,,,,,,,,,
,,,,,,,683dd5dbf93407b4f87a7cd9,68442818c56998de97088960,2025-06-07_04h53.54.695,shape_ratio,2024.1.5,Win32,59.88023952,684250e4f00cb30b92d1fa88,,,,,,,,,,,134.8812,135.3793,135.3798,135.6302,135.6303,137.1265,,137.1267,138.2257,0.0,1.0,1.0,0.0,1.0,0.2,,,,,,,,,,,,,,,,,,,,,,,,,,,,,,,,,,,,,,,,,,,,,,,,,,,,,,,,,,,,,,,,,,,,,,,,,,,,,,,,,,,,,,,,
,,,,,,,683dd5dbf93407b4f87a7cd9,68442818c56998de97088960,2025-06-07_04h53.54.695,shape_ratio,2024.1.5,Win32,59.88023952,684250e4f00cb30b92d1fa88,,,,,,,,,,,,,,,,,,,,,,,,,,138.2277,144.8618,space,3.6181,,,,,,,,,,,,,,,,,,,,,,,,,,,,,,,,,,,,,,,,,,,,,,,,,,,,,,,,,,,,,,,,,,,,,,,,,,,,,,,,,,,,
,,,,,,,683dd5dbf93407b4f87a7cd9,68442818c56998de97088960,2025-06-07_04h53.54.695,shape_ratio,2024.1.5,Win32,59.88023952,684250e4f00cb30b92d1fa88,,,,,,,,,,,144.9153,145.3681,,,145.6216,145.9889,left,,,,,,,,0.6,,,,,,145.3688,145.6215,0.3523,,145.9912,"[-0.04476720241372752,0.008386521911194043]",100.0,"[-0.11802500322313247,0.04928869987452569]",4.0,"[0.18453637371810735,-0.03614356654021324]",100.0,"[-0.09083224523907647,-0.08233590438617305]",4.0,"[0.07985128389061956,0.11479432327636337]",100.0,"[-0.0855926434913355,0.13403209718173045]",100.0,"[0.07599931346482279,-0.16431075167108292]",100.0,"[-0.09272909912885342,-0.12403663347277104]",100.0,"[-0.04998502005721321,-0.04740676867868503]",100.0,"[0.17754400065845466,-0.07698917090777085]",100.0,"[-0.009508684957755592,-0.01706989190874925]",100.0,"[-0.13339872839518913,-0.11341510196173446]",100.0,"[-0.018284516774025247,0.16824856218496492]",4.0,"[-0.10912549673121512,-0.03833673984536247]",4.0,"[-0.01812017876350298,-0.09958418051754775]",4.0,"[0.031699914361679425,-0.19152578506358892]",100.0,"[0.1245419863664462,0.13585999211323854]",4.0,"[0.10681323983816161,0.05261415851660358]",100.0,"[0.17687335772700344,0.07261632291912262]",4.0,"[0.15955980542594095,0.02804858632558492]",4.0,"[0.07339583379431551,-0.08290739465633751]",4.0,"[-0.020263512423832522,0.08846708732800203]",4.0,"[-0.18283011076627764,-0.010726253457518415]",100.0,"[-0.16917594041311787,-0.08070451803215944]",4.0,"[-0.12944409780998772,0.00039373192888925477]",100.0,"[0.011030763988935948,0.1325365909528116]",100.0,"[0.022459440210302096,0.01213821714047073]",4.0,"[0.08048584969372626,-0.03546629191174051]",100.0,"[-0.05539612425359136,0.047916765381861175]",100.0,"[0.05723066635696487,0.07927529491107992]",100.0,"[-0.16592800508850553,0.06336075059336078]",100.0,"[-0.007530590290380069,-0.1636837140613207]",4.0,"[0.02,0.02]",147.0846,0.0,0.0,0.0,35.0,1.0,,,,,,,
,,,,,,,683dd5dbf93407b4f87a7cd9,68442818c56998de97088960,2025-06-07_04h53.54.695,shape_ratio,2024.1.5,Win32,59.88023952,684250e4f00cb30b92d1fa88,,,,,,,,,,,147.086,147.5838,,,147.8343,148.1837,right,,,,,,,,0.4,,,,,,147.5841,147.8341,0.337,,148.1838,"[-0.06947039990840659,-0.1448029255003988]",4.0,"[0.058021840037547484,-0.048808874995620345]",4.0,"[-0.04076537415142818,-0.05384991055440255]",4.0,"[-0.12596689101765227,0.036336711207770406]",4.0,"[-0.15443231048534345,0.06591995387492243]",4.0,"[0.13996434197944982,0.03143234507919769]",100.0,"[0.030716078763679745,-0.13970557624146257]",4.0,"[0.021951724410819825,0.12926579544091596]",100.0,"[0.09100228532492784,-0.09902159186468701]",100.0,"[-0.043492034150846334,0.005454605257645736]",4.0,"[0.17247483655786255,-0.01726904934644876]",4.0,"[-0.15771609539308656,-0.0820195695933816]",4.0,"[0.09650006546259732,-0.03530703866760485]",100.0,"[-0.1439155223611345,0.11559834916482468]",100.0,"[0.05569218361616281,0.051820969174757876]",100.0,"[-0.06948177839062371,0.13074437743438044]",4.0,"[0.1692906407491916,-0.081742985286388]",100.0,"[-0.014536596248749725,0.06861609842846733]",100.0,"[0.008311889366200592,-0.17438874785330205]",4.0,"[0.12429599320083053,0.10480329545427082]",4.0,"[-0.08742243275089344,0.054739792447121474]",100.0,"[-0.05378258461553195,0.08559916912610355]",100.0,"[0.024480677783171107,0.013523007397400493]",4.0,"[-0.19631446586251788,0.03750424745074332]",100.0,"[0.023295393421930797,-0.09047443782011874]",4.0,"[0.13097122479892823,0.14964052100798628]",4.0,"[-0.16200150149682435,-0.014371114747923313]",4.0,"[0.06905618624607159,0.00720389606301381]",4.0,"[-0.11337793930373001,-0.012204884464617073]",4.0,"[-0.09601811543507781,-0.05291424571900516]",100.0,"[-0.03836187897489965,0.16788759516584378]",100.0,"[0.04278841119438608,-0.19508722723801866]",4.0,"[0.02,0.02]",149.2819,0.0,1.0,1.0,159.0,1.0,,,,,,,
,,,,,,,683dd5dbf93407b4f87a7cd9,68442818c56998de97088960,2025-06-07_04h53.54.695,shape_ratio,2024.1.5,Win32,59.88023952,684250e4f00cb30b92d1fa88,,,,,,,,,,,149.2833,149.7814,,,150.0215,150.4985,right,,,,,,,,0.1,,,,,,149.7815,150.0214,0.4556,,150.4989,"[0.13921763632870945,0.07404507466162019]",4.0,"[-0.001699940945293756,0.11128789296893066]",4.0,"[-0.062161795795573814,0.05382773059419945]",100.0,"[0.15182257789643447,-0.026744399476202104]",4.0,"[-0.17862069440813458,0.03768571686262312]",4.0,"[0.10696409538000204,0.16617992396363146]",4.0,"[0.08770647032281707,0.07927576839772617]",4.0,"[-0.10959207564962016,-0.06504759834024058]",4.0,"[0.05139207993724483,-0.056790715989197396]",4.0,"[-0.03599509832833279,0.18876494881880188]",100.0,"[0.058850147359931895,0.11603690873731815]",4.0,"[-0.019967627113726034,0.059749929903378185]",4.0,"[0.09195771761115268,-0.08145883731234477]",4.0,"[-0.08591718096845645,0.12869864500150832]",4.0,"[0.1600606311846692,0.1164697777821456]",4.0,"[0.014327684137193658,-0.11025088203083212]",100.0,"[-0.1175650154424879,0.05433253380515454]",4.0,"[-0.17993176914404443,-0.06194611928719445]",4.0,"[0.04825604344227459,-0.14788149409348184]",4.0,"[-0.0845480305969927,-0.13288439520583245]",4.0,"[0.08371030648076792,0.03317147921654574]",4.0,"[-0.1375796008779753,-0.14386917436775376]",4.0,"[-0.019158060642857713,-0.012461661030296181]",4.0,"[0.10646387075471979,-0.16124055122216416]",4.0,"[-0.12997927245124757,-0.017700523193743226]",4.0,"[0.08448710265069885,-0.00993757098427158]",4.0,"[-0.12764939446715237,0.15092751391064718]",4.0,"[0.14236817329159202,-0.10155980710715977]",4.0,"[-0.08579224940732316,-0.004299173817967189]",4.0,"[0.15017782599013696,0.03519069276892627]",4.0,"[0.0199020024029153,-0.19509817486529088]",4.0,"[-0.15636480842046727,-0.1046270086678797]",4.0,"[0.02,0.02]",151.5964,0.0,2.0,2.0,196.0,1.0,,,,,,,
,,,,,,,683dd5dbf93407b4f87a7cd9,68442818c56998de97088960,2025-06-07_04h53.54.695,shape_ratio,2024.1.5,Win32,59.88023952,684250e4f00cb30b92d1fa88,,,,,,,,,,,151.5981,152.0961,,,152.3527,152.8049,right,,,,,,,,0.5,,,,,,152.0962,152.3527,0.436,,152.8053,"[-0.00554977682469458,0.1661560621018082]",4.0,"[-0.018687890725626526,0.02966277434501161]",100.0,"[-0.12188980646043812,0.0533058321513858]",4.0,"[0.08808376970635584,0.013901404790330285]",100.0,"[0.156925652042314,0.08198955287043794]",100.0,"[-0.14263088875558816,0.12827915593340136]",100.0,"[0.04756004828960077,0.09661993470570829]",100.0,"[-0.035841371184398826,0.13716398179138228]",4.0,"[0.028027985329380153,-0.08405850511829088]",100.0,"[0.1381207029788765,0.007799286885668696]",100.0,"[0.0008152639382680868,0.08751751754995996]",100.0,"[-0.009141563310824465,-0.19945965045270747]",100.0,"[0.1575814432927549,-0.10841903199622029]",100.0,"[0.13466151497121118,-0.14375971027618253]",100.0,"[-0.04928310037974918,0.0038523721107241054]",100.0,"[0.002848215862185613,-0.14362686002446387]",100.0,"[0.04554059675464601,-0.13575125521306525]",4.0,"[-0.11418873245780302,-0.15833584993144745]",4.0,"[-0.062441856865779924,-0.1851776176592261]",4.0,"[-0.15100152820715654,0.023688440788958293]",4.0,"[0.189651031849714,-0.012415730768031596]",4.0,"[0.08095143524584103,-0.11384099928098385]",4.0,"[-0.031333515990423125,-0.04966434024124282]",4.0,"[0.13003243873761408,0.14787240989672895]",100.0,"[-0.17174476127461552,0.08711036238445892]",4.0,"[0.05935384398384549,0.1418165773678461]",100.0,"[0.024501085588220943,0.04236049929914911]",4.0,"[-0.06503227417025205,-0.11882476873549529]",4.0,"[0.0733276389679067,-0.03940130924877997]",4.0,"[0.03604945068933299,0.17699002184252513]",4.0,"[0.17712417254515764,-0.06559494179172616]",100.0,"[-0.17417322369179708,-0.03262561992700467]",4.0,"[0.02,0.02]",153.8943,0.0,3.0,3.0,100.0,1.0,,,,,,,
,,,,,,,683dd5dbf93407b4f87a7cd9,68442818c56998de97088960,2025-06-07_04h53.54.695,shape_ratio,2024.1.5,Win32,59.88023952,684250e4f00cb30b92d1fa88,,,,,,,,,,,153.8966,154.394,,,154.6509,155.0849,right,,,,,,,,0.55,,,,,,154.3943,154.6506,0.4179,,155.0853,"[0.14628844935339505,-0.03167148092371843]",4.0,"[0.06683287733047605,-0.008043597138114544]",100.0,"[0.00722677851928858,-0.12580112956785341]",4.0,"[-0.09657440361147669,0.11713758482254309]",100.0,"[-0.06106733762632614,0.003484142417793702]",100.0,"[0.07362603456589173,-0.07372802740642696]",4.0,"[0.07999143050155262,0.16014890464449724]",100.0,"[-0.0038347200989070403,-0.018982634109785616]",4.0,"[0.10766556193255926,0.020735345188357814]",100.0,"[0.13644714230104854,-0.0986576239297499]",4.0,"[0.18681095858182944,0.007897004973339021]",4.0,"[-0.09840940081338874,-0.06975956827801706]",100.0,"[0.048522653552216966,-0.1919115610997027]",100.0,"[0.13923991019399434,0.11663732910303883]",100.0,"[0.07663836030555475,0.1013880574581705]",100.0,"[-0.02605218537780206,-0.17002674580006616]",100.0,"[-0.13965959022206073,-0.01879257199794184]",100.0,"[0.15066071596912858,0.03715915022387504]",100.0,"[-0.05546962603643089,-0.05479417810378886]",100.0,"[-0.09571903858776841,-0.12945584255074566]",4.0,"[-0.029723056502824363,0.07256592529744163]",4.0,"[0.11951342585375895,-0.13539039945504486]",4.0,"[-0.14580448518191558,0.0738544065694176]",4.0,"[0.08202595407685466,0.058489878049218874]",4.0,"[0.1750225240527128,0.07307299350080497]",100.0,"[-0.05181517480259981,-0.11861760955048253]",100.0,"[0.02290704073068738,0.15746190508567365]",100.0,"[-0.01558494001165948,0.13400314787681833]",4.0,"[-0.17438656175228198,-0.05094422717292579]",4.0,"[-0.1870775895283447,0.036110547795567764]",4.0,"[-0.13823265138658436,-0.11970226592565786]",100.0,"[-0.1390148694069285,0.13738636555155898]",100.0,"[0.02,0.02]",156.1755,0.0,4.0,4.0,84.0,1.0,,,,,,,
,,,,,,,683dd5dbf93407b4f87a7cd9,68442818c56998de97088960,2025-06-07_04h53.54.695,shape_ratio,2024.1.5,Win32,59.88023952,684250e4f00cb30b92d1fa88,,,,,,,,,,,156.1779,156.6744,,,156.9148,157.2756,left,,,,,,,,0.6,,,,,,156.6745,156.9147,0.3368,,157.2772,"[-0.06341258533891586,0.132112552005199]",4.0,"[-0.04697231776372333,-0.08004440244448494]",100.0,"[-0.10925147432441513,-0.01856334510157194]",4.0,"[0.1713549664798521,-0.042401723545308634]",100.0,"[0.017902655195261755,0.007071816831510181]",100.0,"[0.031140052310790346,0.05912699412331807]",4.0,"[-0.06630961489178429,0.18684669387908454]",4.0,"[-0.007889691785877421,0.13366147074212797]",100.0,"[0.18503447578366194,0.058459589483429615]",4.0,"[0.04969748270707162,-0.13656865257545253]",4.0,"[-0.1086281863571191,-0.1366756140065233]",100.0,"[0.08662646031442556,0.16247150314373338]",100.0,"[0.1064864546501551,-0.0002632393597738815]",100.0,"[-0.04729381187561329,-0.17357992679619733]",100.0,"[-0.027122171967709555,0.06341626231202123]",100.0,"[0.06689513692441543,-0.094671378194774]",4.0,"[-0.16309741047738002,-0.09000891060051312]",100.0,"[0.16052880087955304,-0.11388912147388568]",100.0,"[0.08292109460835612,0.08948533258174685]",100.0,"[-0.16265581495284887,0.014988499086837359]",100.0,"[0.04716596605352561,0.1372253570722039]",100.0,"[-0.007359163025671943,-0.1820361375545875]",100.0,"[-0.024271120394274613,0.1840331209346912]",4.0,"[-0.0006847128551564752,-0.10161346245811045]",4.0,"[0.08988991450027019,-0.052490649955173545]",4.0,"[-0.1400988762060839,0.10320768073754]",100.0,"[-0.0668898432039094,0.021139292347760824]",4.0,"[-0.03476891390838615,-0.029043758326390397]",100.0,"[-0.10036324844230114,-0.08152744198315967]",4.0,"[0.14776650723909793,0.12852905712327387]",100.0,"[-0.17841289863241422,0.08522808784454511]",100.0,"[-0.09870800470299153,0.06169546938635205]",4.0,"[0.02,0.02]",168.4404,0.0,5.0,5.0,47.0,1.0,,,,,,,
,,,,,,,683dd5dbf93407b4f87a7cd9,68442818c56998de97088960,2025-06-07_04h53.54.695,shape_ratio,2024.1.5,Win32,59.88023952,684250e4f00cb30b92d1fa88,,,,,,,,,,,168.4415,168.4418,,,168.4796,168.4803,,,,,,,,,0.45,,,,,,168.4419,168.4795,,,168.4803,"[-0.05313997617909531,0.08843383177503387]",4.0,"[-0.0438771089169198,-0.08430659945560064]",100.0,"[0.03580340342548294,-0.0991178784269105]",4.0,"[0.06231644800118495,0.01887132314404433]",100.0,"[0.11917469313445064,-0.10469752080320455]",4.0,"[0.008780349797882527,-0.1586489875138392]",100.0,"[-0.13140370001651575,0.09773111402963437]",4.0,"[-0.11892710843209879,0.035873474971017706]",4.0,"[0.13749034058781245,0.1321160817921412]",100.0,"[-0.01968129616637266,-0.1257312872254467]",4.0,"[0.1600912801084932,-0.044160867827991224]",100.0,"[-0.18371210279983255,0.05142180408435592]",100.0,"[-0.09031192736622347,-0.08345267247142489]",100.0,"[-0.15244259895005663,-0.09952201471890006]",4.0,"[0.00017988237691571971,0.16449464318310286]",4.0,"[0.08369896296894905,0.07210605401215346]",100.0,"[0.12435943124263596,-0.02204603697496671]",4.0,"[0.032796794286480115,0.1049883019832126]",4.0,"[-0.09839837234381277,-0.12591027194414048]",4.0,"[0.02283920402741866,0.04636119299601249]",4.0,"[-0.18905465697991825,-0.031239222854817752]",4.0,"[0.1253344549436757,0.02971877457949272]",100.0,"[0.05549026063101205,-0.1628166095168565]",4.0,"[-0.0062835102122582726,-0.0008852821077447234]",4.0,"[-0.050745239595717945,-0.03594955856686371]",100.0,"[0.18707210240102617,0.0371398692788859]",100.0,"[-0.0336862332277178,0.04109864159856552]",4.0,"[-0.1282878366105574,-0.01714511349238945]",4.0,"[0.05498905601976989,0.16267304057110196]",4.0,"[0.0330023106279121,-0.012909346699576128]",100.0,"[-0.03908227696912048,0.180378857203862]",100.0,"[-0.09378455518197164,0.1536197673173245]",100.0,"[0.02,0.02]",168.481,0.0,6.0,6.0,124.0,1.0,,,,,,,
,,,,,,,683dd5dbf93407b4f87a7cd9,68442818c56998de97088960,2025-06-07_04h53.54.695,shape_ratio,2024.1.5,Win32,59.88023952,684250e4f00cb30b92d1fa88,,,,,,,,,,,168.4817,168.4818,,,168.5269,168.527,,,,,,,,,0.55,,,,,,168.4819,168.5268,,,168.527,"[0.08075752091377279,-0.1736484081686699]",100.0,"[0.11223889609616483,0.01369201012172368]",100.0,"[-0.007299814890496757,-0.19211289819121186]",4.0,"[-0.04502470760744067,0.09611459785881156]",100.0,"[0.1375795709530079,-0.11513668790961556]",100.0,"[0.055198999128801995,0.009647343730122276]",4.0,"[0.11030835909407471,-0.04109133803877709]",4.0,"[-0.13587381531662135,0.05724432252876673]",100.0,"[0.16327085821088616,0.039308033688240894]",100.0,"[0.11433303845805673,0.08654385329003259]",4.0,"[0.057284149631629006,0.18709059831432084]",100.0,"[0.011670108595589883,0.17397679818043912]",100.0,"[-0.07657440845549182,-0.1474753244183046]",100.0,"[-0.14146988599864146,-0.08848972727669893]",4.0,"[-0.015928685739014098,-0.00412260987720443]",4.0,"[-0.09515277838462903,0.03258168949852574]",4.0,"[0.025451323309742188,-0.16788695914331617]",4.0,"[0.051948738478459947,-0.11575286974008252]",4.0,"[0.06796935273183652,0.08829026412984102]",100.0,"[-0.19459408481162263,-0.04570272970712437]",100.0,"[-0.08846008634477759,-0.08948785403452127]",4.0,"[0.1207467811925332,0.15278939688429677]",4.0,"[-0.1865719805278694,0.05967845668566106]",4.0,"[-0.14163485111909543,-0.03938891876290423]",100.0,"[-0.12135017356257329,0.13493511091852783]",100.0,"[-0.027976841928707877,0.19675170098422548]",100.0,"[0.06029611694977734,-0.05952396561928627]",100.0,"[0.09803978619532631,-0.13023745485327615]",4.0,"[-0.005847268293423508,0.13487082035300202]",100.0,"[-0.05040336472867536,-0.10738540624060261]",100.0,"[-0.06684991840047277,0.18009398829009096]",100.0,"[-0.04647236424397036,-0.03036795033207032]",4.0,"[0.02,0.02]",168.5275,0.0,7.0,7.0,75.0,1.0,,,,,,,
,,,,,,,683dd5dbf93407b4f87a7cd9,68442818c56998de97088960,2025-06-07_04h53.54.695,shape_ratio,2024.1.5,Win32,59.88023952,684250e4f00cb30b92d1fa88,,,,,,,,,,,168.528,168.5282,,,168.5471,168.5471,,,,,,,,,0.1,,,,,,168.5282,168.547,,,168.5472,"[-0.042681092524957845,-0.05694704082942191]",4.0,"[0.010119086835301593,-0.1592230753060224]",4.0,"[0.13015077483372792,-0.028773008398494743]",4.0,"[-0.16530883170050886,0.04985042546584001]",4.0,"[-0.18172846060112494,-0.017879056285304944]",4.0,"[-0.07716332266526267,-0.007361148550734134]",4.0,"[-0.0821587415982358,-0.1758903388038822]",4.0,"[0.05600317237395531,-0.06726698399642157]",4.0,"[-0.030398998837193845,0.14582105273186086]",4.0,"[0.08872937199103116,0.1188211788436034]",4.0,"[-0.058024836779960474,0.07982516869723642]",4.0,"[-0.15560234957433125,0.12223932583460079]",4.0,"[-0.11622861652467936,0.029921082648524052]",4.0,"[-0.052358338432680555,0.19176682130178999]",4.0,"[-0.04170388798630621,-0.16778057636882857]",4.0,"[0.009955185154695916,0.15565466724118843]",4.0,"[0.08457046029006288,0.07104235458967946]",4.0,"[-0.035018798338759344,-0.1169617607333944]",4.0,"[0.024585982203732138,0.02632050906060421]",4.0,"[0.10961564140072057,-0.06981860683213058]",4.0,"[-0.07001242472458748,0.0353522129430802]",100.0,"[-0.016382375106362868,0.026857035546763282]",4.0,"[-0.1057264953180878,0.07945840850253129]",4.0,"[0.04977557090147166,-0.13662784030259756]",100.0,"[-0.1515313241172877,-0.09702399464764805]",4.0,"[-0.1187747409026425,-0.014374258602397072]",4.0,"[0.19851924418917075,0.008690430216178054]",4.0,"[-0.11569091790956368,-0.12049676470898532]",4.0,"[0.18602909550350177,0.055890877798506766]",4.0,"[0.08745615036089546,-0.0005359534546121835]",100.0,"[0.14190129469471707,-0.12638532923678164]",4.0,"[0.13889521148835882,0.10669984277467014]",4.0,"[0.02,0.02]",168.5475,0.0,8.0,8.0,195.0,1.0,,,,,,,
,,,,,,,683dd5dbf93407b4f87a7cd9,68442818c56998de97088960,2025-06-07_04h53.54.695,shape_ratio,2024.1.5,Win32,59.88023952,684250e4f00cb30b92d1fa88,,,,,,,,,,,168.5478,168.5558,,,168.5744,170.0782,,,,,,,,,0.4,,,,,,168.5559,168.5743,,,170.0782,"[0.16335890215001106,0.0327456953102705]",100.0,"[-0.0009215392272795923,0.009171275287830825]",4.0,"[-0.07847509846030203,0.0454000065661427]",100.0,"[0.05116746293020052,0.07166037228723883]",4.0,"[-0.0847390687658762,-0.07057900234397593]",4.0,"[-0.09627939697484628,-0.013551236719877116]",100.0,"[-0.0700847482613661,0.1838025142372952]",100.0,"[0.10092664629405558,0.15546960795004644]",100.0,"[0.06224835047664624,-0.09512684300759133]",4.0,"[-0.04035752129054541,0.078928194779048]",4.0,"[0.13962318415171623,-0.11893785049369068]",4.0,"[-0.03157905992480027,-0.13522041828126186]",100.0,"[-0.18659809140292374,0.0238355624737615]",4.0,"[-0.1466505451476222,-0.058739838349554194]",100.0,"[0.1194247033741266,0.07462158976814205]",4.0,"[-0.1256017969203795,-0.1468612840989102]",4.0,"[0.05072732559887485,0.1250648120889723]",100.0,"[0.16008181207386943,0.11417278140891529]",100.0,"[0.04262911653285836,-0.011864162983760865]",4.0,"[-0.1088773439884295,0.13804672687840552]",4.0,"[0.1078379370050911,0.005385030322808426]",4.0,"[0.07960875381276541,-0.1801775911256928]",4.0,"[0.15794084411186513,-0.07163968875611623]",4.0,"[0.06562805355750226,-0.14267981997028306]",4.0,"[-0.03081014969358235,0.11834531633626386]",4.0,"[-0.13355942343498572,0.05567210401450671]",4.0,"[0.015030628406796588,0.1030153867933852]",100.0,"[0.03246642763848836,-0.19603065025122088]",100.0,"[-0.040723321472429436,-0.18792976288096594]",4.0,"[0.011894062492087853,0.15718741882768314]",100.0,"[-0.0425581555180763,-0.06083304429988895]",100.0,"[0.01245224120398287,-0.0596183789733281]",4.0,"[0.02,0.02]",171.1778,0.0,9.0,9.0,150.0,1.0,,,,,,,
,,,,,,,683dd5dbf93407b4f87a7cd9,68442818c56998de97088960,2025-06-07_04h53.54.695,shape_ratio,2024.1.5,Win32,59.88023952,684250e4f00cb30b92d1fa88,,,,,,,,,,,171.179,171.6776,,,171.9273,173.4249,,,,,,,,,0.55,,,,,,171.6776,171.9272,,,173.425,"[-0.13925142108225141,0.05243456629263309]",4.0,"[-0.016231837191425326,-0.02972472313713431]",100.0,"[-0.11421986124227013,0.01964982967473212]",100.0,"[0.15810833693136914,-0.0006156849610613412]",100.0,"[0.09677494726075977,0.04952579916421378]",4.0,"[-0.1339323138944439,0.1461200307105452]",100.0,"[-0.05928256327028959,-0.16132720465382086]",100.0,"[0.10197281274831645,-0.11026868862568669]",4.0,"[0.13255691812347528,-0.13972284267926505]",4.0,"[-0.006633712680672405,-0.15893422791758416]",100.0,"[-0.07964103392376086,0.11928822282945321]",100.0,"[-0.18572471850369943,0.05340670927636705]",4.0,"[0.15221106282731134,0.076341577555853]",100.0,"[-0.11140836163281309,-0.04165532762232291]",4.0,"[-0.07974663661821194,0.1681182020345976]",100.0,"[0.04892774550045117,-0.07291774859848878]",4.0,"[0.0063319677870603604,0.015535224929963407]",4.0,"[-0.09782157784508572,-0.10610359124906808]",4.0,"[-0.041339158044941315,-0.10713219295658898]",100.0,"[0.004589449764678612,0.15412724773261785]",100.0,"[0.0908251509839548,-0.1593430754394394]",4.0,"[-0.047907332470761434,0.08399358320828611]",100.0,"[0.03391558305266277,-0.17031422549610145]",100.0,"[0.06059159418061091,0.08107745737336146]",4.0,"[0.09875167409777692,0.15366795799934993]",100.0,"[0.004477437711795167,-0.097733425846736]",100.0,"[-0.1408307902850348,-0.08802964129332444]",4.0,"[-0.1933992221101652,-0.014677001285244426]",100.0,"[0.051538245999801634,-0.12374709404188611]",100.0,"[0.08819807150800689,-0.009191975235133177]",4.0,"[-0.17887525018910053,-0.060310232593254874]",100.0,"[0.0033479599612397225,0.06675958215209606]",4.0,"[0.02,0.02]",174.5246,0.0,10.0,10.0,62.0,1.0,,,,,,,
,,,,,,,683dd5dbf93407b4f87a7cd9,68442818c56998de97088960,2025-06-07_04h53.54.695,shape_ratio,2024.1.5,Win32,59.88023952,684250e4f00cb30b92d1fa88,,,,,,,,,,,174.5258,175.0245,,,175.2807,176.7734,,,,,,,,,0.45,,,,,,175.0246,175.2806,,,176.7736,"[0.09918679716745903,0.16176554012518993]",100.0,"[-0.10663969661639794,-0.04166433460386872]",100.0,"[0.07404307531453087,-0.019838907984971163]",100.0,"[0.05967970908145284,0.11677147374321255]",4.0,"[-0.1274752785025042,0.04921310152205516]",100.0,"[-0.05501753729967602,0.0364615669301009]",4.0,"[0.003316495955160059,-0.0863191857104355]",4.0,"[0.11587703541975257,-0.016515609005161067]",100.0,"[0.03810504195710011,0.1595426649545549]",100.0,"[0.011928176444217134,0.05652774430778344]",4.0,"[0.05008466058691057,-0.12894353860511873]",4.0,"[-0.08949277023788986,0.17200239807122836]",100.0,"[-0.003977849224571359,-0.14837616066338963]",100.0,"[0.07513473938690067,0.027499535624269378]",100.0,"[-0.13128528244824422,-0.12126305458355859]",4.0,"[-0.07716367999714586,-0.07627828086869415]",4.0,"[-0.055485619236815484,-0.019793555179620902]",4.0,"[0.08639145528492057,-0.09010597839915893]",4.0,"[0.160870527561969,-0.012666840760932784]",4.0,"[-0.18241244250863736,0.05417447454554931]",4.0,"[-0.06319215755870776,-0.1314198306406305]",100.0,"[-0.06644167265137316,-0.17930062393080626]",4.0,"[0.142150307029374,-0.06346651691754804]",100.0,"[0.11160755569131382,0.10211742929436751]",4.0,"[-0.13048062233968494,0.13021048035661262]",4.0,"[0.021503367934529876,-0.006029070795226104]",100.0,"[-0.1299913640548162,-0.08105746187609784]",4.0,"[0.0031890311162899626,0.09699334189171464]",100.0,"[-0.0028642675918405,0.14845381425625973]",4.0,"[-0.0703535587068987,0.08479263038027553]",4.0,"[0.13019418669763352,-0.14524941368864286]",100.0,"[-0.11947241157783649,-0.15997541174302232]",4.0,"[0.02,0.02]",177.8723,0.0,11.0,11.0,147.0,1.0,,,,,,,
,,,,,,,683dd5dbf93407b4f87a7cd9,68442818c56998de97088960,2025-06-07_04h53.54.695,shape_ratio,2024.1.5,Win32,59.88023952,684250e4f00cb30b92d1fa88,,,,,,,,,,,177.8743,178.3719,,,178.6156,179.2055,left,,,,,,,,0.55,,,,,,178.3721,178.6155,0.5723,,179.2056,"[0.12067078965219567,0.1289483156632133]",4.0,"[-0.045812856550933874,-0.04528544627338921]",100.0,"[-0.014931702211530633,0.14037084328853303]",100.0,"[0.04666454392259031,0.07274854887595138]",100.0,"[-0.02919171115642875,-0.13273162850200262]",100.0,"[-0.1166673339240165,-0.02018695904279364]",4.0,"[-0.1901607804965962,-0.0345739707972289]",4.0,"[-0.09643254239605335,0.14331373043204876]",4.0,"[-0.11969460138768698,-0.14645929146317732]",4.0,"[0.13047258031393064,-0.13973121680210804]",100.0,"[0.1330664788666857,-0.0002570292875797119]",4.0,"[-0.1456464917474213,-0.0630822149035603]",4.0,"[-0.1492257176925108,0.12662332598456735]",100.0,"[0.1611525831231201,0.10933660942616971]",100.0,"[-0.05748571340555925,0.056002364044309694]",100.0,"[0.017390653153801738,-0.17027711114080815]",4.0,"[-0.030380417034043594,0.0004008419595415019]",4.0,"[0.10422288356320078,0.040118230862764795]",4.0,"[0.04296541892855328,-0.1228722527181869]",4.0,"[-0.14081171717929825,0.05610214807338258]",100.0,"[0.17868033625798474,-0.0021325783425791083]",4.0,"[-0.016364019962276245,0.06479089902777857]",100.0,"[-0.0972158433667566,0.07066138747969355]",100.0,"[0.0959436386183701,-0.10154944680906193]",4.0,"[0.06740665022394352,0.02219598715480442]",100.0,"[0.022241683191518764,0.12043214932800017]",100.0,"[0.14280762738449918,0.0688076167650751]",100.0,"[0.013390473595167419,-0.06448456108749888]",100.0,"[-0.023210770550218248,-0.17318068308888024]",100.0,"[0.04611422732348092,0.17183887063406408]",4.0,"[-0.09815003589920378,0.02698754236887157]",100.0,"[0.16870417449062156,-0.05597921780349487]",100.0,"[0.02,0.02]",180.3033,0.0,12.0,12.0,71.0,1.0,,,,,,,
,,,,,,,683dd5dbf93407b4f87a7cd9,68442818c56998de97088960,2025-06-07_04h53.54.695,shape_ratio,2024.1.5,Win32,59.88023952,684250e4f00cb30b92d1fa88,,,,,,,,,,,180.3054,180.8037,,,181.0531,181.6035,left,,,,,,,,0.9,,,,,,180.8039,181.053,0.534,,181.6037,"[-0.18239921359813596,0.0743153521003596]",100.0,"[0.0020771761154077333,0.19010343125941312]",100.0,"[0.0018191518449424153,-0.13208421542269974]",100.0,"[0.057918162389821864,0.02448712074488485]",100.0,"[-0.03520884532215566,0.05632730386566427]",100.0,"[-0.1631522706118572,-0.039025780825207024]",100.0,"[0.02368720791183941,0.14648891301211278]",100.0,"[-0.11442550921515966,-0.12698372859881435]",100.0,"[-0.19224704300457582,-0.011018615204356586]",100.0,"[-0.06556856106011398,-0.015194592325562533]",100.0,"[-0.06746658682868899,-0.14754082108409183]",4.0,"[-0.10506999553068408,0.09733351942005204]",4.0,"[0.07959771014348543,-0.17094277317167023]",100.0,"[-0.00112970321728731,0.008097390886496199]",100.0,"[0.10748647511210328,-0.08876460874218943]",4.0,"[0.035760339511658364,-0.01774958432506629]",100.0,"[0.08852678305238895,0.1392991199807219]",100.0,"[0.055624716257047735,-0.1385407880586701]",100.0,"[-0.019970545112979902,-0.16832359084256898]",100.0,"[-0.06019580556699513,0.16490704981438095]",100.0,"[0.06871230989903769,0.07808054077083738]",100.0,"[0.1289939357394624,0.08711181190704112]",100.0,"[-0.011238179465852234,-0.0653027675485491]",100.0,"[-0.13815388605148102,-0.07628906168366442]",100.0,"[0.13255744520032942,-0.1215092353023584]",100.0,"[0.11157421986533105,0.03180836606683145]",100.0,"[-0.0845381370109709,-0.056450957247037935]",100.0,"[-0.1621246719007515,0.017852306690818012]",100.0,"[-0.02940947736689446,0.11782573785813873]",100.0,"[0.0556330871003978,0.19135305560359828]",100.0,"[0.07796221711699272,-0.03776261129398465]",100.0,"[0.12784852978695813,-0.02156763242153045]",100.0,"[0.02,0.02]",182.7002,0.0,13.0,13.0,23.0,1.0,,,,,,,
,,,,,,,683dd5dbf93407b4f87a7cd9,68442818c56998de97088960,2025-06-07_04h53.54.695,shape_ratio,2024.1.5,Win32,59.88023952,684250e4f00cb30b92d1fa88,,,,,,,,,,,182.7015,183.2001,,,183.4404,184.0034,left,,,,,,,,0.5,,,,,,183.2004,183.4402,0.5414,,184.0035,"[0.10790813540161362,-0.13521553976326725]",4.0,"[-0.1572771613070161,-0.11244614139164431]",4.0,"[-0.09709912795125339,-0.12228595294285817]",100.0,"[-0.09645829005979538,0.02766275509469442]",100.0,"[0.13070376841929773,0.025668911237797746]",4.0,"[0.0801158507066793,0.022198379799411725]",4.0,"[0.01422574256459506,0.044133858520122526]",100.0,"[0.05181478625888734,-0.186899448175138]",4.0,"[-0.17530156082025428,0.03721076236065174]",4.0,"[-0.07117655014950573,0.15450318376363315]",100.0,"[-0.11474082118806019,0.07143320597725979]",100.0,"[-0.05448465724684599,0.043081910538022905]",100.0,"[0.05816813935471805,-0.0659799374070584]",4.0,"[-0.12111841420813099,-0.02099609408779078]",100.0,"[0.18516007963109796,-0.0037370767504687546]",100.0,"[-0.04262959656840954,-0.17850299726503327]",100.0,"[0.07719170462832292,0.1435013798522338]",100.0,"[0.04415174445846235,0.07783839646909867]",4.0,"[-0.11110737242227804,0.12197464566607974]",4.0,"[-0.12485000552714942,-0.155666404993594]",4.0,"[0.13862420270916284,0.09416949721129704]",4.0,"[0.09590546060518437,-0.033323642112348645]",4.0,"[-0.047596019270122865,0.09693331366606822]",4.0,"[-0.036629738141727965,-0.08775291180571985]",100.0,"[0.006070520420864901,-0.07281697674121582]",100.0,"[0.06540510811851467,-0.13551460626149073]",4.0,"[0.17217527005419958,0.03569794760891085]",4.0,"[0.16960066626404818,-0.06338517907560566]",100.0,"[-0.19118147144744327,-0.0018474865005322968]",100.0,"[0.030748066280423366,0.14779093547241037]",100.0,"[-0.005502314966797484,-0.14259935888700204]",4.0,"[0.12208320452873406,0.14656479607597134]",100.0,"[0.02,0.02]",185.0978,0.0,14.0,14.0,92.0,1.0,,,,,,,
,,,,,,,683dd5dbf93407b4f87a7cd9,68442818c56998de97088960,2025-06-07_04h53.54.695,shape_ratio,2024.1.5,Win32,59.88023952,684250e4f00cb30b92d1fa88,,,,,,,,,,,185.0991,185.6046,,,185.8477,186.2504,right,,,,,,,,0.1,,,,,,185.6047,185.8476,0.3809,,186.2505,"[-0.0077133804468925106,-0.14817818871027236]",4.0,"[-0.06082588981114888,0.14775982180395963]",4.0,"[0.05390986778399338,-0.03974181024293076]",4.0,"[0.13371820371014914,0.0015328248051897904]",4.0,"[0.08397450382957924,0.029157623958981728]",100.0,"[-0.01751518020458372,0.17316422446903026]",100.0,"[-0.15342306706284553,-0.07894247478630556]",4.0,"[0.08138505930396965,-0.17261562895812024]",4.0,"[0.17358850600756398,-0.030992998726228294]",4.0,"[-0.053869885896664846,-0.09154957997562312]",4.0,"[-0.1266654424277783,0.03840813841392264]",4.0,"[0.11117573581695943,-0.08689348110820741]",4.0,"[0.015240235892255385,-0.07634140065535387]",4.0,"[0.05385288550973803,-0.10286586778818177]",4.0,"[0.08610134599130002,-0.12847912977442505]",100.0,"[-0.07985011987082064,-0.011846141974415598]",4.0,"[-0.17492128038340862,-0.03316771589828058]",4.0,"[0.07050768822624878,0.14291246446045155]",4.0,"[0.016576415148276544,0.0263224367121053]",4.0,"[-0.11832627788033281,0.15583294989195198]",4.0,"[0.18171483280674694,0.016484067929645633]",4.0,"[-0.02377950250627238,0.03901256011785064]",4.0,"[0.0528919642377242,0.19268577506801834]",4.0,"[-0.1173127426230733,-0.05050612885097743]",4.0,"[-0.006017168615870215,0.07508663408518694]",4.0,"[0.15249181807044446,0.0677148121880027]",4.0,"[-0.1126826300129263,0.11011422305809318]",4.0,"[-0.1308101255674822,-0.15106810517050293]",4.0,"[-0.16535084955160295,0.0226774689336987]",4.0,"[-0.04965242004449458,0.09259351827945755]",4.0,"[-0.05895539115228791,-0.17356963921326254]",4.0,"[0.12196951030812388,0.145099262270401]",4.0,"[0.02,0.02]",187.3455,0.0,15.0,15.0,180.0,1.0,,,,,,,
,,,,,,,683dd5dbf93407b4f87a7cd9,68442818c56998de97088960,2025-06-07_04h53.54.695,shape_ratio,2024.1.5,Win32,59.88023952,684250e4f00cb30b92d1fa88,,,,,,,,,,,187.346,187.8461,,,188.103,188.7625,right,,,,,,,,0.5,,,,,,187.8462,188.1029,0.6389,,188.7628,"[-0.16432831159535058,0.08055410005407129]",100.0,"[-0.0014745752447531157,0.17252768340612834]",100.0,"[-0.027523136695153088,0.07889092093396922]",100.0,"[-0.16572946214389786,-0.06285898396358561]",4.0,"[-0.054458921634500196,-0.03449584847512174]",100.0,"[0.04889135127083687,-0.1319463375525421]",4.0,"[-0.07643016070393698,0.18076110366103423]",4.0,"[0.15563999291383343,0.026486511264464743]",4.0,"[-0.018843344843544375,-0.1629868080074119]",100.0,"[-0.09681972247593588,-0.1054093707585317]",100.0,"[0.08745000676114659,0.13882640202519544]",4.0,"[0.1718763079267601,0.10038055924896278]",100.0,"[0.006781856508794119,0.11793853454343259]",4.0,"[-0.17648508343787256,-0.008287707118750482]",100.0,"[0.11151468343019601,0.10190955613248692]",100.0,"[0.06925218361839125,-0.016933422001485076]",4.0,"[0.09408947030143784,0.04679262577370619]",4.0,"[-0.0362002098507057,-0.10670388223673985]",100.0,"[-0.07540474280808548,0.05230690520361363]",100.0,"[-0.06718599878850925,-0.07454791597757719]",4.0,"[-0.1317293744910251,-0.01102557666827894]",4.0,"[-0.1767857104824494,0.03668625595585375]",4.0,"[0.15221593629296584,-0.015523264082718874]",100.0,"[-0.0001258989935291029,-0.08454910151033329]",4.0,"[-0.13714197416656673,-0.1004384458298487]",100.0,"[0.03962075955118669,0.03551192030294968]",100.0,"[-0.1184927773861346,0.06516166692718901]",4.0,"[-0.06134897369832164,0.14355914596053806]",4.0,"[-0.002719815635206688,-0.016117487485560068]",100.0,"[0.13763947241653116,-0.12851591739533128]",4.0,"[0.08170089642664694,-0.08897248153779154]",100.0,"[-0.12316843402132409,-0.05740746579367088]",4.0,"[0.02,0.02]",189.8607,0.0,16.0,16.0,111.0,1.0,,,,,,,
,,,,,,,683dd5dbf93407b4f87a7cd9,68442818c56998de97088960,2025-06-07_04h53.54.695,shape_ratio,2024.1.5,Win32,59.88023952,684250e4f00cb30b92d1fa88,,,,,,,,,,,189.8619,190.3599,,,190.6112,191.1087,left,,,,,,,,0.45,,,,,,190.3599,190.6111,0.4856,,191.1088,"[0.019524802106936502,0.025441193624408928]",4.0,"[0.13381986371542134,0.14692044883223707]",4.0,"[-0.07503472363367113,-0.16554810508678336]",4.0,"[-0.15916103665293563,0.0028049807562107267]",4.0,"[0.06993266910623887,0.12340484918872242]",4.0,"[-0.02479384327901999,0.006653350026099209]",4.0,"[0.07705684015793246,0.017600425611273108]",4.0,"[-0.07599737456657663,0.05344945080455983]",4.0,"[0.12486436118814295,0.09180893343004697]",100.0,"[0.01930480420794062,-0.19844869696600864]",4.0,"[0.01018397668188702,-0.055844130680023384]",4.0,"[-0.025758585503309245,0.10663509354244659]",100.0,"[-0.140068908953118,-0.10964617302629551]",4.0,"[-0.09560305524981665,-0.0016314702220362734]",100.0,"[-0.09883087865375931,0.11494196663069535]",100.0,"[0.05395203239882422,0.16990188575199228]",4.0,"[-0.03778154455711442,-0.08281106216809503]",100.0,"[-0.0236888867442944,0.15877288393113895]",4.0,"[0.12493409985096438,-0.003251700793367985]",100.0,"[-0.004396971629959177,0.06146745332978169]",100.0,"[-0.029242671569967637,-0.1623171348373434]",100.0,"[0.14428240521405317,-0.07181600923426765]",4.0,"[-0.15645784663854656,0.07242741289043901]",100.0,"[0.17135527516216606,0.002088384079727209]",4.0,"[0.1760055131648792,0.04634994264207711]",100.0,"[0.06406928271392848,-0.16882775667480568]",100.0,"[0.05260698782651366,-0.02237703126754699]",4.0,"[0.05323068087369768,-0.07838013681881527]",100.0,"[0.17195620854083024,0.0894556141674122]",100.0,"[0.05025495199764156,-0.13007756917710525]",4.0,"[0.1465764608192018,-0.1259626874833906]",4.0,"[0.09437940844826409,-0.11774012129758725]",100.0,"[0.02,0.02]",192.2087,0.0,17.0,17.0,144.0,1.0,,,,,,,
,,,,,,,683dd5dbf93407b4f87a7cd9,68442818c56998de97088960,2025-06-07_04h53.54.695,shape_ratio,2024.1.5,Win32,59.88023952,684250e4f00cb30b92d1fa88,,,,,,,,,,,192.2098,192.7078,,,192.9641,193.5422,right,,,,,,,,0.6,,,,,,192.7078,192.9639,0.5555,,193.5424,"[-0.029546291108862605,0.15206834806036434]",100.0,"[0.09375611298959662,-0.03588832242418296]",100.0,"[0.029704053766260122,-0.12109728523468405]",4.0,"[-0.06389589166575693,0.06235194803753287]",100.0,"[0.0871307230642284,0.08848402974304259]",100.0,"[-0.14576690272378678,0.10449223545792793]",100.0,"[0.01886382869460602,0.19576536195543695]",4.0,"[0.04271168171900604,0.07130775632215865]",100.0,"[-0.015024338828519078,-0.11540321289979655]",100.0,"[-0.036581775580812145,-0.013467180347762953]",100.0,"[-0.14030375516465415,-0.020180396257896315]",100.0,"[-0.17323666900969698,0.024522119829461307]",4.0,"[0.051414312539454894,0.029710704499733266]",100.0,"[-0.01371442234859524,-0.1603573449218359]",100.0,"[0.15505635455518835,0.06312375930881009]",100.0,"[0.15119129437614934,0.10659748966395205]",4.0,"[-0.1477045404855334,-0.060741449313688946]",4.0,"[-0.11121918161216475,0.027699666097820694]",4.0,"[0.16331042592891554,-0.09563225035964981]",100.0,"[-0.12047259613160412,0.13665772018392192]",100.0,"[-0.0666215709349738,-0.1479748629921101]",4.0,"[0.06886024905749391,0.170883007083694]",100.0,"[-0.1602964948687553,0.06603386695413482]",100.0,"[0.07977975926511935,-0.11067460449902215]",4.0,"[0.18904609465422248,-0.025796424788031368]",100.0,"[0.09837060396629854,0.02584575822877136]",4.0,"[0.02993221217649453,0.15387951762542218]",4.0,"[-0.05709061569166445,-0.10557491843845422]",100.0,"[0.0071413986555770095,-0.1981274747267453]",100.0,"[0.0021634470571501273,-0.04299111982464075]",4.0,"[0.05852645698355552,-0.012191046088376328]",4.0,"[-0.11871056545415531,-0.14955107575994256]",4.0,"[0.02,0.02]",194.6408,0.0,18.0,18.0,53.0,1.0,,,,,,,
,,,,,,,683dd5dbf93407b4f87a7cd9,68442818c56998de97088960,2025-06-07_04h53.54.695,shape_ratio,2024.1.5,Win32,59.88023952,684250e4f00cb30b92d1fa88,,,,,,,,,,,194.6428,195.1413,,,195.3954,195.8219,left,,,,,,,,0.9,,,,,,195.1414,195.3953,0.4008,,195.8222,"[0.033472810123092514,0.04079706670531835]",100.0,"[0.15714325960274542,0.005061041986414949]",100.0,"[0.05528786937496202,0.1223709442451776]",100.0,"[-0.12056105793537712,-0.0678143482214462]",4.0,"[-0.10173532180193214,-0.10734154934324423]",100.0,"[0.06602406108623035,0.011863587350677288]",100.0,"[-0.018763739895946138,-0.15954576976613635]",100.0,"[0.0429984764546905,-0.07012821312188176]",100.0,"[0.14081496142540684,0.0657887364026699]",100.0,"[-0.13133171152476278,0.14590065749790634]",100.0,"[-0.1333864224392999,0.06376722650106514]",100.0,"[-0.0011999188971835596,0.09734503400282943]",100.0,"[0.02365198058620179,0.19468215496439972]",100.0,"[-0.058881198863718655,0.08671742018253518]",100.0,"[-0.10971772471170052,0.1035246730675001]",100.0,"[0.008785376473838856,-0.11377929026697418]",100.0,"[-0.008374311556416278,-0.06002632652978547]",100.0,"[-0.1428779041600486,0.01904697982736924]",100.0,"[0.10805855489770806,0.019495796766747685]",100.0,"[-0.1565366769688875,-0.08894108639222086]",100.0,"[0.08242253912692069,-0.1253157799297183]",100.0,"[0.0063911909611024135,0.004056991442459964]",100.0,"[0.10769782110106833,0.14909619163604151]",100.0,"[0.1646441261245832,0.11305430312912823]",100.0,"[0.10127762408054394,0.0768937884909285]",100.0,"[0.012736279820913294,-0.18885370424694528]",100.0,"[-0.056541179200340685,-0.09378030564725157]",100.0,"[0.11507065420672193,-0.15733025843867823]",4.0,"[-0.03739078824901166,0.13497789339044533]",100.0,"[-0.08504978718255718,0.026094930921181956]",100.0,"[-0.055221092994708613,-0.051072801213581355]",100.0,"[-0.1258933289235271,-0.026561539849277498]",4.0,"[0.02,0.02]",196.9249,0.0,19.0,19.0,11.0,1.0,,,,,,,
,,,,,,,683dd5dbf93407b4f87a7cd9,68442818c56998de97088960,2025-06-07_04h53.54.695,shape_ratio,2024.1.5,Win32,59.88023952,684250e4f00cb30b92d1fa88,,,,,,,,,,,196.926,197.4206,,,197.6714,198.1533,left,,,,,,,,0.9,,,,,,197.4209,197.6714,0.4689,,198.1534,"[0.19047666000582,0.03490371119649344]",100.0,"[0.04789795384866545,0.09058971708136886]",100.0,"[0.009253570381987505,0.10484685702612823]",100.0,"[-0.18989697150009244,-0.04753984786475591]",100.0,"[-0.04960056788978355,0.15825646584200803]",4.0,"[0.09501486481342676,-0.05806826833154783]",100.0,"[-0.06318651342834883,-0.15469450834843762]",100.0,"[-0.05625403867272791,0.045447410633519585]",100.0,"[-0.1518798889724303,0.0966305875699824]",100.0,"[0.11791648840708097,-0.006497998487692013]",100.0,"[0.11269061925557536,0.04531601543872356]",100.0,"[0.19213014527468086,-0.03903125422524173]",100.0,"[0.023688551640333025,-0.00849970410139596]",100.0,"[-0.0034844924442666834,0.0367924825987044]",100.0,"[0.10188619765131149,-0.1563925986326752]",100.0,"[-0.054877154358241906,-0.029604771221251124]",100.0,"[-0.15707855114948766,-0.09970202620226003]",100.0,"[0.10894240344024882,0.15363294270020217]",100.0,"[0.04417919043320477,-0.11000127463781992]",100.0,"[0.06917766147664728,-0.008441252629483616]",100.0,"[-0.01497929698723855,0.13742777638560066]",4.0,"[0.0348835768677935,0.18302167368580494]",100.0,"[-0.08507636627965559,-0.11273349206012312]",100.0,"[-0.1518360200740892,-0.032437674604442655]",100.0,"[-0.04979104612823462,-0.08966813345001239]",4.0,"[0.17488592016137894,-0.09605137482473923]",100.0,"[-0.10287106506760582,0.16490813197415802]",100.0,"[-0.07330068716147305,0.11030134300178829]",100.0,"[0.15567514522438444,0.06966853009595787]",100.0,"[0.04240703670234491,-0.17178209948554082]",100.0,"[-0.028713734526637228,-0.1783414204177662]",100.0,"[0.1383112508308139,-0.12622164499195554]",100.0,"[0.02,0.02]",199.2511,0.0,20.0,20.0,24.0,1.0,,,,,,,
,,,,,,,683dd5dbf93407b4f87a7cd9,68442818c56998de97088960,2025-06-07_04h53.54.695,shape_ratio,2024.1.5,Win32,59.88023952,684250e4f00cb30b92d1fa88,,,,,,,,,,,199.2517,199.7506,,,200.0009,200.2347,right,,,,,,,,0.55,,,,,,199.7506,200.0009,0.2237,,200.2349,"[0.09516623466346703,-0.16767669651681683]",100.0,"[0.15460866778041554,0.01798320974819718]",100.0,"[0.10290529076377329,-0.002762988658866635]",4.0,"[0.1530546583706069,0.06996171402566793]",100.0,"[-0.000038361005109203744,-0.010049424639566533]",100.0,"[-0.0756098783366093,-0.1698541793692453]",4.0,"[0.16869432745238713,-0.09130191911862028]",4.0,"[0.05101773180838381,0.07159497296559669]",4.0,"[0.07183390450430252,0.025110167180341113]",100.0,"[-0.14130479722630493,-0.08592351344036123]",4.0,"[-0.0407151133519622,0.10791106755754076]",4.0,"[-0.15482817601905494,0.030123923404295195]",4.0,"[-0.06723492709959128,0.0008751313974454177]",100.0,"[0.011731966276263054,0.04562555977523469]",100.0,"[0.1147829710672851,0.08608719991324573]",100.0,"[-0.0033542795328235595,-0.16439562680741812]",4.0,"[-0.10096457497885983,-0.062464307770459734]",4.0,"[-0.06993093218853995,-0.1141625832566009]",100.0,"[0.11759541621303278,-0.09343397921817849]",4.0,"[-0.13173836801620506,-0.007132234286506371]",100.0,"[0.054268608588942766,-0.17937734005243838]",100.0,"[-0.12115939475131024,0.06864702427989493]",100.0,"[-0.10261402093335555,0.030005587105185343]",100.0,"[-0.021853462351437047,-0.12145795375046141]",4.0,"[-0.024481813323297432,0.17132795783994326]",100.0,"[-0.13766558093676998,0.13996179756897556]",100.0,"[-0.06700212658701954,0.14974922436513644]",100.0,"[-0.16948863247771245,-0.04567069198162647]",100.0,"[0.030532279616053558,-0.10746137392777123]",4.0,"[0.04186237781059275,0.13601948158109287]",100.0,"[0.1266010540249611,-0.03539042022024016]",4.0,"[-0.07451000711218005,0.07818874721823295]",4.0,"[0.02,0.02]",201.3324,0.0,21.0,21.0,86.0,1.0,,,,,,,
,,,,,,,683dd5dbf93407b4f87a7cd9,68442818c56998de97088960,2025-06-07_04h53.54.695,shape_ratio,2024.1.5,Win32,59.88023952,684250e4f00cb30b92d1fa88,,,,,,,,,,,201.3331,201.8327,,,202.0726,202.5357,left,,,,,,,,0.6,,,,,,201.8328,202.0724,0.4429,,202.5358,"[-0.02644388733057621,-0.17449818406977427]",4.0,"[-0.00266530609797315,0.19670463031485663]",4.0,"[0.1147394561089035,0.13191577267032853]",100.0,"[-0.19255831376061774,-0.0287671188411646]",4.0,"[0.18000629872912313,-0.03071491714180004]",4.0,"[-0.14292499476610016,-0.1248697549624688]",4.0,"[-0.09821537672201072,0.022227025755320446]",100.0,"[-0.109647414617964,-0.05334649854504699]",4.0,"[0.09841101296261935,-0.02806874029511204]",100.0,"[-0.06451743185187075,-0.05857710091670413]",100.0,"[-0.09127606040584013,-0.15053264011565026]",100.0,"[0.14712784597368997,0.0819033121468611]",100.0,"[0.09950362255792151,-0.14397425043713047]",100.0,"[0.059180974896569746,0.16893825433739051]",4.0,"[-0.06988396420627503,0.16570367515153492]",4.0,"[-0.0003335590876708688,-0.11276293817681418]",4.0,"[0.017863135952885734,-0.15346401768491783]",100.0,"[-0.11139855935941323,0.16546363777056017]",4.0,"[-0.13501796905908725,-0.002099858328457596]",100.0,"[-0.16701498688673863,0.07930925311283751]",100.0,"[0.054733307164075096,-0.11616726310682149]",100.0,"[0.009277047130354545,0.020311541571134732]",100.0,"[0.02659766227514428,-0.07003406767637423]",100.0,"[-0.17633506487272885,0.04027768371791915]",100.0,"[-0.04226661514336508,-0.09962310842180204]",100.0,"[-0.04283430440284347,0.07715081927836184]",100.0,"[-0.0632153174015479,0.11406021942273468]",4.0,"[0.0793083053925749,0.09504859169278058]",100.0,"[-0.057896789207900985,0.0022471095371897833]",4.0,"[-0.1121031819554753,0.07430818629256224]",100.0,"[0.003542507352119527,0.0934323762996636]",4.0,"[0.05803645320448052,-0.030720253036455262]",100.0,"[0.02,0.02]",203.6314,0.0,22.0,22.0,43.0,1.0,,,,,,,
,,,,,,,683dd5dbf93407b4f87a7cd9,68442818c56998de97088960,2025-06-07_04h53.54.695,shape_ratio,2024.1.5,Win32,59.88023952,684250e4f00cb30b92d1fa88,,,,,,,,,,,203.6335,204.1319,,,204.3812,204.846,right,,,,,,,,0.55,,,,,,204.1325,204.381,0.4501,,204.846,"[-0.09351963436534609,0.14359822876141962]",100.0,"[0.09028378934721318,-0.09186068847520022]",4.0,"[-0.09762624616874897,-0.1334883401706705]",4.0,"[0.15275451468683504,0.024846012822635762]",100.0,"[-0.0753855452884208,0.0722678510207455]",4.0,"[0.06737435468984468,0.095824084297738]",100.0,"[-0.0007946571422166835,0.16702665446531978]",100.0,"[-0.07772344399605909,0.020661767489689127]",100.0,"[0.03705493396057329,-0.10814956393767539]",100.0,"[0.1102594443330902,0.1359936345581886]",100.0,"[0.15943454839640897,-0.07508348882299068]",4.0,"[-0.18561991637076328,-0.04913610255259119]",4.0,"[0.07052295650251164,0.15928712519416388]",4.0,"[-0.02982014500216167,-0.09161771061742456]",4.0,"[0.0064428121451524205,-0.040583619858511694]",100.0,"[0.11992692470382055,0.09628433278084274]",100.0,"[-0.05464363043874027,0.17573584503988676]",100.0,"[0.05950445228653083,-0.04924492985555124]",4.0,"[-0.18755075064153892,0.0037942715108293455]",100.0,"[-0.03744823185872243,-0.16859075311425295]",4.0,"[0.033318901069348546,-0.004373391409440402]",100.0,"[0.14980671011215596,-0.12783697244227216]",4.0,"[0.16256149832302594,-0.03510992110858491]",100.0,"[0.12160635141408914,-0.022360776806797353]",4.0,"[0.017515664086191443,-0.18449561924119814]",4.0,"[0.10310973037148327,-0.14323765125159194]",4.0,"[0.10142461510798201,0.0369266581175722]",100.0,"[-0.12807405795301477,0.11038156458403751]",100.0,"[-0.10701793699525844,-0.07621586540872789]",4.0,"[-0.1798244868611284,0.05781868507399172]",100.0,"[-0.04536481328673857,-0.03843717593910383]",100.0,"[-0.042036370035993975,0.1303995829829581]",100.0,"[0.02,0.02]",205.9449,0.0,23.0,23.0,63.0,1.0,,,,,,,
,,,,,,,683dd5dbf93407b4f87a7cd9,68442818c56998de97088960,2025-06-07_04h53.54.695,shape_ratio,2024.1.5,Win32,59.88023952,684250e4f00cb30b92d1fa88,,,,,,,,,,,205.9456,206.4452,,,206.6843,207.0948,right,,,,,,,,0.45,,,,,,206.4452,206.6842,0.3851,,207.0953,"[-0.14907960834724798,-0.1327833083473725]",4.0,"[-0.11599054672660691,0.1543933998937313]",100.0,"[0.11265770924739144,-0.044401980453419206]",4.0,"[-0.05466960677331453,0.06401696280509968]",4.0,"[0.018701878219116983,0.08181353994701093]",4.0,"[-0.15212003950918493,-0.028853246401609446]",100.0,"[-0.08507828082817524,-0.17315654509500727]",4.0,"[0.0832635240509278,0.0008481699521810049]",4.0,"[0.027669917140472147,0.034254248346402116]",100.0,"[-0.12859482512447198,0.09849348367950522]",4.0,"[0.03837022353326092,-0.03672761640734857]",4.0,"[0.16573242553461498,-0.02913167017496697]",4.0,"[0.05067321920506821,-0.14406536803967077]",4.0,"[-0.13719262921955153,-0.07770513312400083]",100.0,"[-0.08089650306662884,-0.0987726166795333]",100.0,"[0.12389478042320823,0.006053051955151966]",100.0,"[-0.10779194784725618,0.05732948039604521]",4.0,"[-0.15696928641412608,0.01901978262788604]",100.0,"[-0.030077771340040225,0.11100955260217531]",100.0,"[-0.032138554626385686,-0.13603163954145137]",100.0,"[0.1618711229266612,0.11667563831338448]",100.0,"[-0.06698557230264944,-0.04889892741927255]",4.0,"[0.11686055635960668,-0.11331226931777144]",4.0,"[0.09774735474273824,-0.16376071078415988]",4.0,"[0.04339396157285271,-0.08941887451914664]",100.0,"[0.16322164608928688,0.017922847568373892]",4.0,"[-0.0750645098434586,0.1563543769465758]",100.0,"[0.1154197555185575,0.04727931390380054]",4.0,"[-0.10826374844469172,0.010185339766021848]",4.0,"[-0.16205067765854514,0.0749001367414016]",100.0,"[-0.02009577103198783,-0.1925473685224813]",4.0,"[0.037001954156323694,0.12131827641500958]",100.0,"[0.02,0.02]",208.1942,0.0,24.0,24.0,137.0,1.0,,,,,,,
,,,,,,,683dd5dbf93407b4f87a7cd9,68442818c56998de97088960,2025-06-07_04h53.54.695,shape_ratio,2024.1.5,Win32,59.88023952,684250e4f00cb30b92d1fa88,,,,,,,,,,,208.1977,208.6932,,,208.9331,209.445,right,,,,,,,,0.6,,,,,,208.6933,208.933,0.487,,209.4451,"[0.1290795804408942,0.06629031892943738]",100.0,"[0.07938037665396484,0.09884390755728698]",100.0,"[-0.014637726151364439,-0.16030942296947207]",100.0,"[-0.17740267212154454,0.040785209452224434]",4.0,"[0.03218507626951849,0.19324328384778808]",100.0,"[-0.11017196015723876,-0.09998250687599855]",100.0,"[0.11893360598829959,0.13605362351903139]",4.0,"[-0.05568178942785573,0.05294017738233322]",100.0,"[0.044193768653915104,0.03324652863465765]",4.0,"[0.09499249849222853,0.03300148213470925]",4.0,"[0.059646435284619104,-0.15554897670629722]",4.0,"[0.004346947125361166,0.11142979148575256]",100.0,"[-0.12028179579572412,-0.0021949827711861855]",4.0,"[0.16409738453091102,-0.08544819392880947]",4.0,"[-0.021584597004609286,0.18035746825359336]",100.0,"[-0.09607684727755501,0.1526766628241785]",100.0,"[0.17481221706856975,0.0366762100519638]",100.0,"[-0.13891213237812414,0.12472411922118878]",100.0,"[0.025682139650253732,-0.0862051126268715]",100.0,"[0.12252200491225965,-0.11106576823133472]",100.0,"[0.0714966719302451,-0.03698840463619539]",4.0,"[-0.16741643732645578,-0.03465603813555514]",4.0,"[-0.10627075393579603,-0.04582826193290703]",4.0,"[-0.13757152284582408,0.055359141793835685]",100.0,"[0.01821576515140483,0.07071968465449291]",4.0,"[0.1363430076929077,0.019265155880743064]",100.0,"[0.17687575265684224,-0.006144195744291056]",100.0,"[-0.03228187370871689,-0.03419563191563698]",4.0,"[0.12558690091383976,-0.03104969821545897]",4.0,"[0.09763015211322064,0.1729779343537437]",100.0,"[-0.16899894487483214,0.09298384043037486]",100.0,"[0.05121966365613243,0.15236413462437076]",100.0,"[0.02,0.02]",210.5414,0.0,25.0,25.0,37.0,1.0,,,,,,,
,,,,,,,683dd5dbf93407b4f87a7cd9,68442818c56998de97088960,2025-06-07_04h53.54.695,shape_ratio,2024.1.5,Win32,59.88023952,684250e4f00cb30b92d1fa88,,,,,,,,,,,210.5433,211.0411,,,211.281,211.7238,left,,,,,,,,0.45,,,,,,211.0412,211.2809,0.421,,211.7241,"[0.05847770610740164,0.12826330281290785]",100.0,"[-0.09457420799449505,-0.17015065189392028]",4.0,"[0.16912670471323707,-0.0937236803767329]",100.0,"[0.13140680152984768,0.12562900070754635]",4.0,"[0.043760991008181045,0.0390761171735769]",4.0,"[0.11238233766727604,0.07581668599061188]",100.0,"[0.08394055095352525,-0.06777609277833578]",100.0,"[-0.17335186613311354,-0.025214733074107674]",4.0,"[-0.06556640270898283,-0.12023964005308249]",4.0,"[0.03396696076443405,0.19638836411980407]",100.0,"[-0.12279638619027994,-0.12392166184605155]",100.0,"[0.13418370715113398,-0.04513338981109597]",4.0,"[0.05803459625188289,-0.008004227886738614]",100.0,"[-0.04431979966677,0.15674948114853351]",100.0,"[0.01755271216932521,-0.09400944917713591]",4.0,"[-0.09289776072864249,0.08508677847224938]",4.0,"[0.0825853666830857,-0.17421880967704884]",4.0,"[-0.004047750721874021,0.05234607216239318]",100.0,"[-0.15774699280062973,-0.07902501889347016]",4.0,"[-0.14459630186728667,0.03264936791027878]",100.0,"[0.16650022244425763,0.060128000193604585]",4.0,"[0.034182818518970495,0.08733731833866483]",100.0,"[0.07139400502674671,-0.12333409041868014]",100.0,"[-0.0514103770734423,-0.16507604537500428]",4.0,"[0.005847501741356197,-0.19012303873121428]",4.0,"[-0.04646498510170464,0.03119822441775716]",4.0,"[-0.10427206198919509,0.004980699785631868]",4.0,"[0.011250723910336206,0.0025316146760509107]",100.0,"[-0.025440680188207266,-0.08717363378556446]",4.0,"[-0.03462177618673304,-0.03597150676370901]",100.0,"[0.02755670683245782,-0.03807619030118014]",4.0,"[-0.09238178316839193,-0.06024660485309787]",4.0,"[0.02,0.02]",212.8225,0.0,26.0,26.0,122.0,1.0,,,,,,,
,,,,,,,683dd5dbf93407b4f87a7cd9,68442818c56998de97088960,2025-06-07_04h53.54.695,shape_ratio,2024.1.5,Win32,59.88023952,684250e4f00cb30b92d1fa88,,,,,,,,,,,212.8238,213.322,,,213.5624,213.956,right,,,,,,,,0.5,,,,,,213.3221,213.5623,0.3709,,213.9582,"[-0.03085782097513621,-0.1727081979502287]",100.0,"[0.1692199979013106,0.10093538231483756]",100.0,"[0.10887279640255323,-0.161365401777811]",100.0,"[-0.04279094701003687,0.09752381621715223]",4.0,"[0.07039372762941497,0.014732075677388747]",4.0,"[-0.1569365522924487,-0.0069005859920598005]",4.0,"[0.12749098786410398,0.07028006982816387]",4.0,"[0.036524455538741105,0.10276192476622578]",100.0,"[-0.09059518717058505,0.030998153079325155]",4.0,"[0.0036052626852158356,-0.1273643865561278]",100.0,"[0.11588007206054579,-0.0787172399075677]",4.0,"[0.11418238565708105,-0.03346143028855592]",4.0,"[-0.08396292201729483,-0.01450698300401321]",100.0,"[0.028068621290326185,0.15590352369159452]",4.0,"[-0.12827155909925567,-0.07556709411167596]",100.0,"[0.1375446419219199,-0.13214411585516836]",4.0,"[0.04814621235786942,-0.10025178925868534]",4.0,"[0.0827025377221443,0.17527468138267344]",100.0,"[-0.01444949708896138,0.16264171957711682]",4.0,"[0.005138464960781772,-0.08553027677265769]",100.0,"[-0.16781933336310006,-0.08536569115161788]",100.0,"[-0.03897088912270929,-0.11408507076628092]",4.0,"[-0.15960087183186386,0.04125651396221499]",100.0,"[-0.1270488077383961,0.12012160740921607]",100.0,"[-0.11166583758167212,-0.15404980152131312]",100.0,"[0.07992615059530166,0.10250109270324735]",4.0,"[0.03500498194614925,-0.012841318198538404]",100.0,"[-0.19123963656803433,-0.048715149937494984]",4.0,"[0.16519188652014202,0.039421615066058846]",100.0,"[0.19441455997807902,-0.03645112478358262]",4.0,"[-0.032865921709583405,-0.04268528362877223]",100.0,"[-0.03652611538171511,0.028538586459695883]",4.0,"[0.02,0.02]",215.0538,0.0,27.0,27.0,99.0,1.0,,,,,,,
,,,,,,,683dd5dbf93407b4f87a7cd9,68442818c56998de97088960,2025-06-07_04h53.54.695,shape_ratio,2024.1.5,Win32,59.88023952,684250e4f00cb30b92d1fa88,,,,,,,,,,,215.0559,215.5533,,,215.7926,216.246,left,,,,,,,,0.6,,,,,,215.5533,215.7924,0.4348,,216.2471,"[0.01582796508909744,0.13871195115662835]",4.0,"[0.07288875966980836,0.09885119169426176]",100.0,"[-0.08172895372411408,0.010183021321454652]",100.0,"[0.01105880109485533,0.022246210031307497]",100.0,"[0.02949507145945349,-0.01794597028917527]",100.0,"[-0.14990024813225764,0.042676967795529916]",100.0,"[-0.08482644594351753,-0.07120947070405406]",4.0,"[0.0998202613548293,-0.07953486530837853]",100.0,"[-0.1546870405014818,-0.00947514666858747]",100.0,"[-0.07279283829659933,0.09720103706381862]",4.0,"[-0.030548611563094213,0.0887813363356515]",4.0,"[0.10300097752607493,0.06896924883296995]",100.0,"[0.030985296083500414,-0.1603924998598282]",4.0,"[-0.040783139081347904,-0.19249462793841143]",4.0,"[-0.15009652115905608,-0.07061962951677722]",4.0,"[-0.10046337193636384,0.1613114591392382]",100.0,"[0.15853912227594927,-0.013589372137098174]",100.0,"[0.11601263481628235,-0.010409564099735065]",4.0,"[-0.04114159867300474,0.18998796767515158]",100.0,"[-0.00822957428516945,-0.12319719547005152]",100.0,"[-0.045070337908010856,-0.1455187360455285]",100.0,"[0.12614505955117228,0.13577074851343293]",4.0,"[0.030323401578212804,-0.09467626956944866]",100.0,"[0.08592993095362955,-0.15883954097391673]",100.0,"[0.14448875190477842,-0.08238681552280705]",4.0,"[0.1461386592818483,0.029830820879717578]",4.0,"[-0.10713999323921027,0.06889666324712236]",100.0,"[-0.03453739038965353,0.14106858534625902]",100.0,"[-0.010856594388217256,-0.01420627553172144]",4.0,"[-0.09710238197425713,-0.15733294921199056]",4.0,"[0.18912781232822917,0.05142636980037799]",100.0,"[-0.14215558426035171,0.09003733819829296]",100.0,"[0.02,0.02]",217.3393,0.0,28.0,28.0,36.0,1.0,,,,,,,
,,,,,,,683dd5dbf93407b4f87a7cd9,68442818c56998de97088960,2025-06-07_04h53.54.695,shape_ratio,2024.1.5,Win32,59.88023952,684250e4f00cb30b92d1fa88,,,,,,,,,,,217.3405,217.8346,,,218.0851,218.6382,left,,,,,,,,0.55,,,,,,217.8347,218.0851,0.5328,,218.6393,"[-0.007233568915508944,-0.0748726509886765]",100.0,"[-0.010229554101316284,0.0805822162856057]",4.0,"[-0.08653588704162705,-0.03224233449714366]",100.0,"[0.15222602995976578,-0.035218874815791425]",100.0,"[0.06349927241510292,0.04329326217124624]",100.0,"[0.09510733598871349,-0.17547952850478843]",100.0,"[-0.041576786874784645,-0.14671432021640332]",4.0,"[0.06601860106548131,-0.051117596888742144]",100.0,"[0.11997885719815093,0.08345769151923053]",4.0,"[-0.10028273406853924,0.04555255184952571]",100.0,"[-0.044872560279353685,0.11939549837535314]",4.0,"[0.05625451634113074,-0.1436363062904682]",100.0,"[-0.13270970291533526,0.14030275385118682]",4.0,"[-0.011213104795795577,-0.19056254226023076]",100.0,"[0.015269674889112938,0.14489719572354898]",4.0,"[-0.11073489801682063,-0.09856011848825295]",4.0,"[-0.009426824009237991,-0.12144213306932196]",100.0,"[-0.15261569824396584,0.09116864183688485]",100.0,"[0.11358896937154869,-0.10561340611950451]",4.0,"[-0.020311021877817834,0.18174365726269184]",4.0,"[0.030428220036207522,-0.10264211767177014]",4.0,"[0.04314985755065516,0.19016060950384686]",100.0,"[0.17903277384508479,-0.08830011715993831]",100.0,"[-0.07797746321221066,-0.17923580048435778]",100.0,"[0.10630493957853643,0.011834378867248046]",4.0,"[-0.10120081677235357,-0.14265677378309366]",100.0,"[0.19042070600558544,0.0395736703061093]",4.0,"[-0.17174480586621668,0.04706308288143133]",100.0,"[0.00914408966731931,0.01608504620235447]",4.0,"[0.10354233025478388,0.12014902961015989]",100.0,"[-0.19508742726270703,-0.013048996570199]",4.0,"[0.024421520185870137,-0.045850884675595754]",100.0,"[0.02,0.02]",219.733,0.0,29.0,29.0,70.0,1.0,,,,,,,
,,,,,,,683dd5dbf93407b4f87a7cd9,68442818c56998de97088960,2025-06-07_04h53.54.695,shape_ratio,2024.1.5,Win32,59.88023952,684250e4f00cb30b92d1fa88,,,,,,,,,,,219.7341,220.2323,,,220.4742,220.8172,right,,,,,,,,0.55,,,,,,220.2324,220.4741,0.3259,,220.8185,"[-0.14623931019355638,0.09248248149541825]",4.0,"[0.13124843199104358,0.1231492826970128]",100.0,"[0.16759680215475084,0.07471629156512642]",100.0,"[-0.09365758017802014,0.011578815086419744]",4.0,"[0.11312506558091721,-0.06350138228971439]",100.0,"[-0.138054992265164,-0.012395237828211229]",100.0,"[0.14227269618325683,-0.10725174661576886]",4.0,"[0.031062915262661667,-0.03472273369407201]",100.0,"[0.1860563033729945,-0.046232115589528104]",100.0,"[0.1597761897966767,0.033648405855010534]",4.0,"[-0.10794839615527006,-0.12323479651233339]",100.0,"[-0.051138787570352735,-0.06173817982316923]",100.0,"[-0.07635896497468136,0.15466289368894515]",4.0,"[-0.07539184303200676,0.052972162545229746]",4.0,"[0.10087291780373528,0.15608907303987898]",100.0,"[-0.15833221788633936,-0.05752607048942489]",100.0,"[0.10881925013211899,0.08471176257021205]",4.0,"[-0.186932789404317,0.026836290545640407]",100.0,"[0.1743221598499615,-0.004078719636124399]",100.0,"[0.03240615428454598,0.05788854123218679]",100.0,"[0.02706016886139342,-0.10002869962371468]",4.0,"[-0.04067981817516282,0.08612614420816006]",100.0,"[0.04579846939021341,0.09930290730188322]",4.0,"[0.03178148692816142,0.1717325775995431]",100.0,"[-0.18280391539038787,-0.01909535077625005]",4.0,"[-0.03835029309517077,0.18441989720435104]",100.0,"[-0.10264905526514426,0.09495380613889377]",100.0,"[-0.06687139476362051,-0.14119541447909387]",4.0,"[-0.012543843812363674,-0.08221070931657636]",100.0,"[-0.017993907513380467,0.020803168824154217]",4.0,"[-0.008861066801059404,0.11266354977665802]",4.0,"[0.1101561467440615,-0.13118231934819677]",4.0,"[0.02,0.02]",221.9139,0.0,30.0,30.0,74.0,1.0,,,,,,,
,,,,,,,683dd5dbf93407b4f87a7cd9,68442818c56998de97088960,2025-06-07_04h53.54.695,shape_ratio,2024.1.5,Win32,59.88023952,684250e4f00cb30b92d1fa88,,,,,,,,,,,221.9162,222.4136,,,222.6648,223.0469,right,,,,,,,,0.1,,,,,,222.4137,222.6647,0.3684,,223.0471,"[0.11882177876202801,-0.10760606692671335]",4.0,"[0.06597290948662103,-0.11890414530193848]",4.0,"[-0.16724726459970835,-0.035718128737623825]",4.0,"[-0.1544899170809339,-0.12315209937474134]",4.0,"[-0.11655117567162021,-0.0743419642887041]",4.0,"[0.06970244299006916,0.05997545379426999]",4.0,"[0.17327903761557092,-0.07603669541002366]",4.0,"[0.06002558285478525,0.013981803866398721]",4.0,"[0.010393254723726805,0.0012033678263692613]",4.0,"[0.05976239381249998,0.17142869515905787]",4.0,"[-0.07195484619367423,-0.03429440544462539]",4.0,"[0.16461229676345862,-0.02658117505775591]",4.0,"[-0.16080891335195427,0.04103521876988101]",4.0,"[-0.04153942747529145,-0.06574152706757547]",4.0,"[-0.07850085609774343,-0.1580353114839153]",4.0,"[-0.053151266980578045,0.11286812226096359]",4.0,"[0.19403282362226698,0.044647038253236945]",4.0,"[0.009632276836477589,-0.14766866255181865]",4.0,"[-0.07869088688684242,0.04736163799786161]",4.0,"[-0.0028630540436983716,-0.04059117311674812]",4.0,"[-0.10792898220374778,0.14503335114565816]",100.0,"[0.10052947730278737,0.12885299880131124]",4.0,"[-0.10529192466724549,-0.0013321477993620677]",4.0,"[-0.004734679066417504,0.1066955053115835]",4.0,"[-0.004655793680364361,-0.08599478920869007]",4.0,"[-0.060171553377374225,0.008153374630874833]",4.0,"[0.06144660062413832,0.11236348972650653]",4.0,"[0.041385544379316,-0.18907358233420296]",100.0,"[-0.00632463073308421,0.046166210695591674]",100.0,"[-0.09585145172264341,-0.120139731002672]",4.0,"[-0.046332786591915934,-0.1338286233821397]",4.0,"[0.04531627524576952,-0.04023398150969916]",4.0,"[0.02,0.02]",224.1454,0.0,31.0,31.0,185.0,1.0,,,,,,,
,,,,,,,683dd5dbf93407b4f87a7cd9,68442818c56998de97088960,2025-06-07_04h53.54.695,shape_ratio,2024.1.5,Win32,59.88023952,684250e4f00cb30b92d1fa88,,,,,,,,,,,224.1463,224.6449,,,224.8834,225.2974,right,,,,,,,,0.6,,,,,,224.6449,224.8834,0.3904,,225.2977,"[0.07479927814425184,-0.038800247923152384]",100.0,"[-0.11268675877335838,0.13034125919448175]",100.0,"[0.07899093447237435,0.15809768679787156]",100.0,"[-0.17574997963091293,-0.011431094869484335]",100.0,"[-0.04796929528493984,-0.04928785055533211]",4.0,"[0.061574046421021766,0.024426768762266803]",100.0,"[-0.10498957269398841,-0.05135555393952472]",100.0,"[-0.12808746116937517,-0.10387302974140847]",100.0,"[0.035235650193485284,0.06341218672458379]",4.0,"[-0.05171736354226992,0.037026281888447074]",4.0,"[0.10899223876435342,-0.12689514379808375]",100.0,"[-0.043077509128734516,-0.14069263026420767]",100.0,"[0.03389722111555959,-0.11895104608348923]",100.0,"[-0.018284185529053306,0.131434622501755]",100.0,"[0.14340655851830617,0.09176073858743755]",4.0,"[0.17645770839161076,-0.03070380690035925]",4.0,"[0.04180267089885371,0.17810171983768072]",4.0,"[0.09730060774357983,-0.07894677666823585]",4.0,"[-0.012601744199616783,0.023957467556642655]",100.0,"[-0.050022996118176496,0.16505965337868683]",100.0,"[0.10127225701117357,0.1171425936222067]",4.0,"[-0.054427648887383044,0.09562925022549648]",100.0,"[-0.16987509188409577,0.07272376924170101]",4.0,"[-0.09093827438587025,0.024109935488206266]",100.0,"[-0.11066812877067633,0.08786124109458116]",100.0,"[0.058949442958337345,0.11830573229653077]",100.0,"[-0.06411637703198864,-0.17643238685252124]",4.0,"[0.0784016780471512,-0.18340282924648024]",100.0,"[-0.18721990804097186,0.02957017289210278]",4.0,"[0.012642456951815617,-0.06760737913192787]",4.0,"[-0.004234445570011415,-0.1775468831365365]",4.0,"[-0.05508869834897088,-0.09759568112540568]",100.0,"[0.02,0.02]",226.3927,0.0,32.0,32.0,52.0,1.0,,,,,,,
,,,,,,,683dd5dbf93407b4f87a7cd9,68442818c56998de97088960,2025-06-07_04h53.54.695,shape_ratio,2024.1.5,Win32,59.88023952,684250e4f00cb30b92d1fa88,,,,,,,,,,,226.3953,226.8924,,,227.1429,227.5592,right,,,,,,,,0.55,,,,,,226.8925,227.1428,0.404,,227.5593,"[-0.06563159419171091,0.06352988590497276]",100.0,"[-0.017139923223360817,0.08416841392624065]",4.0,"[0.16837848008789105,-0.08793256173433411]",100.0,"[-0.034611809567127394,-0.006096044552336898]",100.0,"[0.052927017581264287,-0.06112816638791358]",4.0,"[0.08352654088009843,0.02913139294131368]",4.0,"[-0.07855891357355375,0.13542164535439716]",100.0,"[0.03593677243571094,-0.1437032248567932]",4.0,"[0.046531214649120536,-0.015910867885427952]",4.0,"[-0.15636197807602686,0.11709822880538481]",100.0,"[0.17226688246381855,0.007158053219750945]",100.0,"[0.14552912073506197,-0.1259277585862252]",100.0,"[-0.16675301307681747,-0.006821589105806347]",100.0,"[0.11709861451970906,-0.029464635813705578]",4.0,"[-0.05398964872472616,-0.10820219648271129]",100.0,"[0.00003970646559377598,-0.07308836358760508]",100.0,"[0.03685091455797269,0.13564608689420596]",100.0,"[-0.030854672581861114,-0.14708240924283303]",4.0,"[-0.14515347416004953,-0.12266384204498423]",4.0,"[-0.07011998484694967,0.17972662875381964]",100.0,"[0.06802869602943078,-0.11615776200002652]",4.0,"[0.18049731352645923,-0.04701766674607257]",100.0,"[-0.01638040549402296,0.18913304935940614]",100.0,"[0.11437678962125719,0.09537857582960539]",4.0,"[-0.01237891676807852,0.03984215549678102]",100.0,"[-0.18181719969824384,0.07501003271792518]",4.0,"[-0.18025535845006496,-0.0743644454445389]",100.0,"[-0.1063982156613311,0.02944635020668982]",4.0,"[-0.030842427169514835,0.14407341078362618]",100.0,"[0.05243289612221285,0.08399712797294101]",100.0,"[0.08131010303601474,0.13849807134808254]",4.0,"[0.16470472374183484,0.06953420444215529]",4.0,"[0.02,0.02]",228.6568,0.0,33.0,33.0,85.0,1.0,,,,,,,
,,,,,,,683dd5dbf93407b4f87a7cd9,68442818c56998de97088960,2025-06-07_04h53.54.695,shape_ratio,2024.1.5,Win32,59.88023952,684250e4f00cb30b92d1fa88,,,,,,,,,,,228.6572,229.1563,,,229.4078,229.7421,right,,,,,,,,0.1,,,,,,229.1565,229.4078,0.3241,,229.7423,"[0.08381831906113293,0.07460215669595231]",4.0,"[-0.13258947550485223,-0.060320150846870486]",4.0,"[-0.06236155597881854,-0.015345438720048536]",4.0,"[-0.0023893007749951614,-0.018797795339122163]",4.0,"[-0.07469330892339048,0.14325288256545388]",4.0,"[0.020001271085069175,0.039762171561141146]",100.0,"[-0.04830978820305176,0.046053047015494314]",4.0,"[0.10514009071945957,0.021450433971545058]",4.0,"[-0.062173455099502284,-0.18317512346835474]",4.0,"[-0.19557406622294993,-0.007729603866983832]",4.0,"[0.06691845040772411,-0.04865992212531084]",100.0,"[-0.12113407555849977,-0.12585146209080375]",4.0,"[0.039071132892875,-0.079755220593793]",4.0,"[-0.022063342793822105,-0.1192506084400351]",4.0,"[0.1620516752741391,0.11599048092230305]",4.0,"[-0.015817824279799317,0.01954118370955395]",4.0,"[0.08430308198907588,-0.10885751003707372]",4.0,"[-0.11329664975024445,0.1255161374808944]",4.0,"[0.13533523398144492,-0.00987114463216983]",4.0,"[0.13553226147637643,-0.12280222690188093]",4.0,"[-0.1332498054445881,-0.00859941933398745]",4.0,"[-0.15574363573375408,0.10759321356795076]",4.0,"[0.04650961969027556,-0.129316597466084]",4.0,"[0.1218265088857199,0.11318212632534051]",4.0,"[-0.040571565551895714,0.17450252774103672]",4.0,"[-0.0645508591672803,-0.08108923970320818]",4.0,"[0.04310144385504696,0.07541890035797176]",4.0,"[0.06392577253849709,0.001329912467579699]",4.0,"[-0.012147103358530415,-0.1601430474621337]",4.0,"[0.14755013162800593,-0.05317983403318219]",4.0,"[0.16146493452696742,0.02952050431446596]",100.0,"[-0.10939167309207676,0.0668938142697839]",4.0,"[0.02,0.02]",230.8391,0.0,34.0,34.0,198.0,1.0,,,,,,,
,,,,,,,683dd5dbf93407b4f87a7cd9,68442818c56998de97088960,2025-06-07_04h53.54.695,shape_ratio,2024.1.5,Win32,59.88023952,684250e4f00cb30b92d1fa88,,,,,,,,,,,230.8402,231.3383,,,231.5789,231.991,right,,,,,,,,0.5,,,,,,231.3385,231.5789,0.3906,,231.9911,"[-0.017896381805740515,-0.06075758725857553]",4.0,"[0.0861225397608707,-0.14522548581958242]",4.0,"[0.02586587134897617,0.06485360080223748]",100.0,"[0.00557745647511014,-0.024310262551579403]",4.0,"[-0.13439006267347584,0.04877654929203418]",4.0,"[0.11153352472909236,0.10993833314456607]",4.0,"[0.11622567652885334,-0.09001699113062406]",100.0,"[-0.00462758130319182,0.030860878696076944]",100.0,"[-0.04866700553103129,-0.16729474475990502]",100.0,"[-0.10454724798211543,-0.16784916036644618]",100.0,"[0.018817327526098018,0.19832849876214376]",100.0,"[0.0009226194203401884,0.1260934524006388]",100.0,"[-0.09912868053578383,-0.034530543323718785]",4.0,"[-0.12296777649087598,0.138928063789062]",100.0,"[-0.1487494492315321,-0.03479805269382635]",100.0,"[0.09387746780588185,-0.00451151649962962]",100.0,"[0.037962998239941155,0.025272065150628988]",4.0,"[-0.14041370774844458,-0.09359014180337684]",100.0,"[0.038766279928358835,-0.15371614908995476]",100.0,"[0.019445542816330263,-0.08274694107444829]",4.0,"[-0.059650121095124034,0.025965599938869436]",4.0,"[-0.19909991650142453,-0.005823504095945723]",100.0,"[-0.06543283709322169,0.08133734659799748]",4.0,"[-0.07464934684650744,0.16496618879023983]",4.0,"[0.09177438969720605,0.16575523909499532]",100.0,"[0.05736329328238333,0.12120581763369241]",4.0,"[0.12977893274636293,-0.041309273582863765]",4.0,"[-0.032440059116607946,-0.010529122419247014]",4.0,"[0.16409113346341211,0.078856755719286]",4.0,"[-0.18058070415531421,-0.06972219243758968]",4.0,"[-0.07497992013128357,-0.11660225086111503]",100.0,"[0.11184137481533066,0.03341139266598958]",100.0,"[0.02,0.02]",233.0877,0.0,35.0,35.0,106.0,1.0,,,,,,,
,,,,,,,683dd5dbf93407b4f87a7cd9,68442818c56998de97088960,2025-06-07_04h53.54.695,shape_ratio,2024.1.5,Win32,59.88023952,684250e4f00cb30b92d1fa88,,,,,,,,,,,233.0895,233.5868,,,233.8368,234.2211,right,,,,,,,,0.6,,,,,,233.5869,233.8367,0.3687,,234.2213,"[-0.03646404617671429,-0.05701075801965881]",4.0,"[0.05759779851344347,-0.068474025266534]",100.0,"[-0.16159656427714872,-0.0009905549113232183]",100.0,"[-0.0910351607517496,-0.17177523388394125]",4.0,"[-0.05010360573892787,-0.19124012397704065]",100.0,"[0.16997682970061778,-0.05166625930516164]",4.0,"[0.0076916281437881245,0.16754634620033823]",4.0,"[-0.07555620654428172,0.1802745467251012]",4.0,"[-0.09826848975552917,0.07269161657239466]",4.0,"[0.027651070529723282,0.07922759164946765]",100.0,"[-0.1717819579257872,0.08996377626723223]",100.0,"[0.06940464307332873,0.08088492572789505]",4.0,"[0.029290487117681556,-0.15737442199993854]",4.0,"[0.0675206107779063,0.007107740450042008]",100.0,"[0.09567375994795246,-0.032647793205202925]",100.0,"[0.1505568331463606,0.0848166910646123]",100.0,"[-0.03426922124959147,0.13543701605295996]",100.0,"[0.0915685523205828,-0.17418039753901945]",100.0,"[0.12462439544669053,0.15546917724054507]",100.0,"[0.162152143591025,0.020862934998752938]",4.0,"[0.027574584706721993,0.03853749127166964]",100.0,"[-0.006824866149093893,-0.004479897993292612]",100.0,"[-0.0016197650850453894,-0.1894757043118213]",100.0,"[-0.04053435329263338,0.05328670173760254]",100.0,"[-0.1382521569877535,-0.11895352537386593]",4.0,"[0.18293756361241717,0.05589887749857221]",4.0,"[-0.03700238566511774,-0.12170025435283516]",4.0,"[0.11620904458435412,-0.07027381031979615]",4.0,"[-0.17422119389199872,0.041814155374107466]",100.0,"[0.04660863774923281,0.14978155824995443]",100.0,"[-0.07486765965257967,0.12334429930631505]",100.0,"[-0.0901151982576887,-0.061927448541315176]",100.0,"[0.02,0.02]",235.3183,0.0,36.0,36.0,39.0,1.0,,,,,,,
,,,,,,,683dd5dbf93407b4f87a7cd9,68442818c56998de97088960,2025-06-07_04h53.54.695,shape_ratio,2024.1.5,Win32,59.88023952,684250e4f00cb30b92d1fa88,,,,,,,,,,,235.3193,235.8176,,,236.0691,236.4844,left,,,,,,,,0.6,,,,,,235.8178,236.069,0.4059,,236.4845,"[-0.14362892230917015,0.0069243945540053715]",100.0,"[0.022146610317850358,0.1370506399445968]",100.0,"[-0.03248807492924571,0.11999205433179226]",100.0,"[0.017507587827633116,-0.08690844204468405]",100.0,"[0.0041261510565810825,0.07441891388378011]",4.0,"[-0.1280821198698057,-0.030042863525978573]",100.0,"[-0.1594141325542208,0.12031006041467725]",4.0,"[0.14007782119968035,0.03932014912197665]",4.0,"[-0.11056557372050672,-0.1371294441940565]",4.0,"[0.11308137215147404,-0.0866884161634727]",4.0,"[0.04889983476268853,-0.03898813703124863]",100.0,"[0.16322397186069443,0.09476685301584323]",4.0,"[0.16602952282725764,-0.0763329740256647]",100.0,"[0.07551859233721946,-0.14084842635885253]",100.0,"[0.07292976081705603,0.14016898863044203]",100.0,"[-0.04856227884494596,-0.16781552656855273]",100.0,"[0.027947141916806775,0.1820217034888871]",4.0,"[-0.10520729717246208,-0.09541100847723608]",100.0,"[-0.037297877540100784,0.1902299819189193]",100.0,"[0.17455562631188906,-0.013176215024670347]",100.0,"[-0.06428505691391412,-0.07684062749459249]",4.0,"[-0.059180143542817414,0.07303707154045158]",100.0,"[-0.0014399571213515195,-0.015352745043855804]",4.0,"[-0.045809362380867386,0.030249822044473546]",100.0,"[0.06929501457456383,0.0062062666320962375]",4.0,"[-0.11237883776724243,0.050238830535877306]",4.0,"[-0.06902182249400153,-0.1265183396017836]",100.0,"[0.02742261921714896,0.01823742873256216]",4.0,"[0.10585134069131641,0.08613410183913743]",4.0,"[0.044863680205628746,-0.1941738457450933]",100.0,"[-0.0822477226632555,0.15461950123274792]",100.0,"[0.19387897435806023,0.026796001664117285]",100.0,"[0.02,0.02]",237.5828,0.0,37.0,37.0,45.0,1.0,,,,,,,
,,,,,,,683dd5dbf93407b4f87a7cd9,68442818c56998de97088960,2025-06-07_04h53.54.695,shape_ratio,2024.1.5,Win32,59.88023952,684250e4f00cb30b92d1fa88,,,,,,,,,,,237.584,238.0814,,,238.3315,238.8821,left,,,,,,,,0.9,,,,,,238.0814,238.3315,0.5395,,238.8822,"[0.09543492448670093,0.1408122188074266]",100.0,"[-0.008700405229916601,-0.1957613080308878]",100.0,"[-0.05253006831474747,0.04069751755408368]",100.0,"[0.03804132390695532,0.0018585029258069165]",100.0,"[-0.07403389447142632,-0.10196997816835034]",100.0,"[0.030586537915710022,-0.09799341988021679]",100.0,"[-0.18798058940004017,-0.014080442662915617]",100.0,"[0.14549556932700833,-0.12611471435552424]",100.0,"[0.04954536311152867,-0.05355714149820071]",100.0,"[0.1830954635194944,0.0563607490013113]",100.0,"[-0.09042056485256286,-0.016584580433098562]",100.0,"[-0.07808728012686823,0.08694348072431679]",100.0,"[-0.06438874513707014,0.1351087144436626]",100.0,"[0.10359749301154213,-0.12189101213107524]",100.0,"[0.17722727212265135,-0.0178296720044334]",100.0,"[-0.1421785403887609,-0.00009786554377394975]",100.0,"[0.034689265658422695,0.10254535232785306]",100.0,"[0.10151390872201736,0.04327189210246189]",100.0,"[0.10812566227566726,-0.01666679585074032]",100.0,"[-0.009259269358162235,0.12369114923609291]",100.0,"[-0.10712684433828322,0.14114564977663505]",100.0,"[0.006825409536302536,0.04324898320712025]",100.0,"[0.143444278265335,0.0420724369390317]",100.0,"[-0.1131054330000015,0.05218251448016642]",100.0,"[0.10375467055599988,-0.06289561070109764]",100.0,"[-0.022542286851164862,-0.015596157453297566]",100.0,"[-0.045052543796035675,0.1769242642679827]",100.0,"[-0.025622929660487785,-0.08340698421025527]",4.0,"[-0.07849176606987658,-0.056450870134401004]",4.0,"[-0.14321089648225557,0.10473950159591981]",100.0,"[0.06528496458887244,-0.17568817356074856]",100.0,"[0.15141439139861274,-0.07501351697582334]",4.0,"[0.02,0.02]",239.9807,0.0,38.0,38.0,9.0,1.0,,,,,,,
,,,,,,,683dd5dbf93407b4f87a7cd9,68442818c56998de97088960,2025-06-07_04h53.54.695,shape_ratio,2024.1.5,Win32,59.88023952,684250e4f00cb30b92d1fa88,,,,,,,,,,,239.9819,240.4796,,,240.7304,241.1979,left,,,,,,,,0.6,,,,,,240.4797,240.7303,0.4565,,241.1982,"[0.012555111743091459,0.12664438463063404]",100.0,"[-0.06887171940496725,-0.03348438203656887]",4.0,"[-0.10283929106285614,-0.13758940669246553]",4.0,"[-0.09213530014849942,-0.08900857566237884]",100.0,"[0.14456190402665756,0.1234278344269434]",100.0,"[0.05462779844018423,-0.18710165023046954]",4.0,"[-0.006240476859217444,-0.08753925490193809]",4.0,"[-0.028250116303878983,-0.13767778401477454]",100.0,"[-0.05127807050732469,0.08585364378748285]",100.0,"[0.11568792548223532,-0.08340282199678507]",4.0,"[0.09419071976204586,-0.14823001361362653]",100.0,"[-0.0633352945293495,0.15729836904451747]",100.0,"[-0.1430632517535993,-0.011678299706471721]",4.0,"[0.13830684698942675,0.08372193361864003]",100.0,"[-0.13488158949730955,0.14544572122202565]",4.0,"[0.0435344242459587,-0.014430192675551968]",100.0,"[0.06637390175114706,-0.07599841022755636]",4.0,"[-0.13686453093592782,0.06529950539690985]",100.0,"[0.067787278557668,0.08192859459963567]",4.0,"[-0.10910270560295461,-0.04634646730251015]",100.0,"[-0.04037193186227578,0.015690393622388638]",100.0,"[0.17729321062176034,-0.001875233177756527]",100.0,"[0.007792481076143469,-0.18157783451180137]",100.0,"[-0.09019083066271423,0.10682620095133438]",4.0,"[0.050064357934870476,-0.1152677715666664]",100.0,"[0.16120125800087112,-0.06851312844472932]",100.0,"[-0.003315817274448887,0.06390638917647712]",100.0,"[-0.07580823410507359,-0.1783684434393713]",100.0,"[0.1096851259347458,0.03261081200778204]",100.0,"[-0.1822970616041979,-0.02715556062684942]",4.0,"[-0.09416266472028229,0.021674625173685017]",4.0,"[0.12605919505472327,-0.03488262486492315]",4.0,"[0.02,0.02]",242.2943,0.0,39.0,39.0,40.0,1.0,,,,,,,
,,,,,,,683dd5dbf93407b4f87a7cd9,68442818c56998de97088960,2025-06-07_04h53.54.695,shape_ratio,2024.1.5,Win32,59.88023952,684250e4f00cb30b92d1fa88,,,,,,,,,,,242.295,242.7945,,,243.0348,243.3626,right,,,,,,,,0.4,,,,,,242.7945,243.0347,0.3122,,243.3628,"[-0.08612455090878132,0.05984125539459909]",100.0,"[0.11292986789042446,0.16254102326044864]",100.0,"[0.04763268894450213,-0.1171384493329105]",4.0,"[-0.14067167084136004,-0.09045172312263217]",100.0,"[0.05688184383085113,0.16475117841758558]",4.0,"[0.032719569275544015,0.054835096045685976]",100.0,"[-0.010309227754552768,0.08388377842606909]",4.0,"[-0.16131336214009387,0.005807759115794594]",100.0,"[0.05348299378427872,0.09289262463515945]",4.0,"[-0.027458272874259667,-0.154355516377123]",100.0,"[0.06244702463401103,-0.007771385606497832]",100.0,"[-0.049149065218861386,-0.06771151672467388]",4.0,"[0.11293587385428634,0.05179423449974419]",100.0,"[0.14405289726087045,-0.10944213490067642]",4.0,"[-0.05947384344244878,0.1812111023031312]",4.0,"[0.01661624072204046,0.00406735394211919]",4.0,"[-0.1156565604979887,0.005845060248556513]",4.0,"[-0.05757033081082299,0.003286489666116023]",4.0,"[0.1128983904256768,0.003639696966007305]",4.0,"[0.16877419225265047,0.021807374162482573]",100.0,"[-0.10100925293167563,-0.16557206237979663]",4.0,"[0.1323452494103162,-0.04090088284689169]",4.0,"[0.11557019382358723,-0.15365151456853304]",4.0,"[-0.08095293208155858,0.11082348390127407]",100.0,"[-0.04630459536008205,0.05220256171325135]",100.0,"[-0.13058918385805132,0.11694387986265457]",100.0,"[-0.012358008184648571,-0.0869374839243497]",4.0,"[0.10228614533414794,0.1126111984083064]",100.0,"[0.07279401643714918,-0.0769907481073492]",4.0,"[-0.06119573348210254,-0.18390066235742858]",4.0,"[-0.016300297205761725,0.12854657269028363]",4.0,"[-0.026325308548180163,-0.033198402390890995]",4.0,"[0.02,0.02]",244.4617,0.0,40.0,40.0,170.0,1.0,,,,,,,
,,,,,,,683dd5dbf93407b4f87a7cd9,68442818c56998de97088960,2025-06-07_04h53.54.695,shape_ratio,2024.1.5,Win32,59.88023952,684250e4f00cb30b92d1fa88,,,,,,,,,,,244.463,244.9582,,,245.2144,245.8242,left,,,,,,,,0.55,,,,,,244.9584,245.2144,0.5874,,245.8242,"[-0.19831841643220613,-0.003921412414443364]",4.0,"[0.14387075122209522,0.061769349039740684]",4.0,"[-0.13583574937113896,-0.044745926012745185]",4.0,"[0.04955983105713982,0.08582444428394381]",4.0,"[0.11918018361396913,0.13352533973434366]",100.0,"[-0.04942579863158912,0.13397797166822356]",4.0,"[-0.1533200206520963,0.027455659039906342]",100.0,"[0.11875996199074668,-0.03800490341208946]",100.0,"[0.0885965646680917,-0.0029079300618460382]",4.0,"[-0.05941485292135727,-0.06571848349885419]",4.0,"[0.18870903891001897,-0.026254118191394737]",100.0,"[0.01709691742677586,-0.169510926555782]",100.0,"[0.042316986921188786,-0.06171131779814842]",100.0,"[-0.039448197033414976,0.17355357269161706]",100.0,"[-0.15890036101118932,0.10748448610475482]",100.0,"[-0.10937184881872326,-0.1670479166453964]",4.0,"[0.07847307167496329,0.1809165869458133]",100.0,"[0.08635997803034791,-0.06777209589108003]",4.0,"[0.09879134661841266,-0.13900272790354537]",4.0,"[0.13848461082760757,-0.10539223529866772]",4.0,"[-0.0664836183519688,-0.1589620124395791]",100.0,"[-0.017344799862176845,0.10791958080026348]",100.0,"[-0.08807391127447757,0.062430697001850256]",4.0,"[0.018758878334805308,0.03436636709551706]",100.0,"[0.01940754621286693,-0.007566126362146707]",100.0,"[0.02851016415189535,-0.11278154878210689]",4.0,"[0.17799248399817394,0.09029763308540016]",100.0,"[0.007796636310902669,0.15148013737746013]",100.0,"[0.028801831428178538,0.19500638900752895]",4.0,"[-0.09859492688107295,0.12481533597311809]",100.0,"[-0.0012208707335553065,-0.0653962446768449]",100.0,"[0.14156508503887336,-0.0002876833129319093]",100.0,"[0.02,0.02]",246.9231,0.0,41.0,41.0,77.0,1.0,,,,,,,
,,,,,,,683dd5dbf93407b4f87a7cd9,68442818c56998de97088960,2025-06-07_04h53.54.695,shape_ratio,2024.1.5,Win32,59.88023952,684250e4f00cb30b92d1fa88,,,,,,,,,,,246.9237,247.4228,,,247.6635,248.076,right,,,,,,,,0.5,,,,,,247.4228,247.6635,0.3871,,248.0761,"[0.12003999131149713,-0.14072444270765838]",4.0,"[0.0625012128081858,-0.13348510533208835]",100.0,"[0.06292236897422038,-0.08213455401020177]",4.0,"[0.0044351452500388825,0.10993785706636881]",4.0,"[0.008227394631947289,-0.1221301132486933]",4.0,"[-0.10486965057403703,0.17017310149642995]",4.0,"[-0.11432314087284633,0.07861183289494561]",4.0,"[-0.11384975264412965,-0.024316691245781914]",4.0,"[-0.03712033721928597,-0.02762905500545947]",4.0,"[-0.027255982215019046,-0.07642832493813684]",4.0,"[-0.18371898429128736,0.012516454153812098]",100.0,"[0.027947091815359485,0.031032932671358492]",100.0,"[0.022247741397902355,0.18445172935801435]",100.0,"[-0.1837984826761233,-0.05235868175068732]",4.0,"[0.1067820634773997,0.14895837569948492]",100.0,"[-0.15932187286060562,0.05312659637347475]",4.0,"[0.15407832643474584,-0.04624541474430897]",100.0,"[0.0735743594794534,0.04068567089757039]",4.0,"[-0.12682062852057352,0.1345342944767251]",100.0,"[0.043465395404128256,-0.03738124460047488]",100.0,"[-0.10984436727201384,-0.12572148481486314]",100.0,"[0.007793378516880335,-0.004510537244371309]",100.0,"[-0.027547643419023566,-0.15764640957641277]",4.0,"[-0.03573939393605516,0.11118452858315109]",4.0,"[0.10957738050187274,-0.006176518186478498]",100.0,"[0.004489607993067756,-0.18246052923711958]",100.0,"[0.08769667952906796,0.09424129231633512]",4.0,"[0.17559948965025335,0.024546493951400166]",4.0,"[-0.07991719745971869,-0.08510551985344957]",100.0,"[0.15651536021750603,-0.1206185879731811]",100.0,"[-0.15911280286075305,-0.10850112323868187]",100.0,"[0.11200760481967291,-0.07061546811160511]",100.0,"[0.02,0.02]",249.1723,0.0,42.0,42.0,109.0,1.0,,,,,,,
,,,,,,,683dd5dbf93407b4f87a7cd9,68442818c56998de97088960,2025-06-07_04h53.54.695,shape_ratio,2024.1.5,Win32,59.88023952,684250e4f00cb30b92d1fa88,,,,,,,,,,,249.1746,249.6766,,,249.924,250.313,left,,,,,,,,0.1,,,,,,249.6766,249.924,0.3686,,250.3134,"[0.03466005956432768,0.09841389241366763]",4.0,"[-0.11061912115348294,-0.11307537299016075]",4.0,"[-0.1613095570346902,0.006707071002589199]",4.0,"[0.02389324227270311,-0.15132546710158845]",4.0,"[-0.07122908928560978,-0.1438777264645534]",4.0,"[0.09781856074288882,-0.026459934218253392]",4.0,"[0.14406164108989064,0.036169681638343304]",4.0,"[0.11896084457121792,-0.07546756072393124]",4.0,"[-0.010881567475858061,-0.11408889049413452]",4.0,"[-0.03711667411037802,0.016943044808625383]",4.0,"[-0.0024493843275324415,-0.1921808882164301]",100.0,"[0.09924508695871971,0.12878350573488823]",4.0,"[0.17616080738862366,-0.06830338067682051]",4.0,"[-0.0971371090155784,0.03604142573175047]",100.0,"[0.13967914785461957,-0.14015885419186286]",4.0,"[-0.02898539398457844,0.19375425763894444]",4.0,"[0.01671920825584904,0.019211765438828323]",4.0,"[0.1273593295299451,0.0917421478395764]",4.0,"[-0.15216891542627706,0.1274787341258754]",4.0,"[-0.07301143619608123,-0.0805351603039351]",4.0,"[0.006110379821808866,0.059386132824277536]",4.0,"[-0.09650938179680056,0.11676089404750879]",4.0,"[0.017695836227687053,-0.045704428594215994]",100.0,"[-0.036691408141978174,0.09877335822218476]",4.0,"[0.05495133864377961,-0.02372362573746986]",4.0,"[-0.06129502448503688,-0.029222386604291585]",4.0,"[0.08310174530016473,-0.12548905846395245]",4.0,"[0.16691763278346602,0.07847332344084801]",4.0,"[-0.16623161660395216,-0.10607178326370818]",4.0,"[0.008780211153627933,0.1786772382551678]",4.0,"[-0.06316547236662834,0.06145178659700492]",4.0,"[-0.13465767078376276,0.06318369255312223]",4.0,"[0.02,0.02]",251.4035,0.0,43.0,43.0,203.0,1.0,,,,,,,
,,,,,,,683dd5dbf93407b4f87a7cd9,68442818c56998de97088960,2025-06-07_04h53.54.695,shape_ratio,2024.1.5,Win32,59.88023952,684250e4f00cb30b92d1fa88,,,,,,,,,,,251.4057,251.903,,,252.1528,252.6185,left,,,,,,,,0.9,,,,,,251.9032,252.1527,0.4572,,252.6185,"[0.05910045017942803,-0.14460921239794342]",100.0,"[-0.17403028011201524,-0.03251418978095891]",100.0,"[0.03561409431357193,-0.19281327719575472]",100.0,"[-0.07864361075575217,0.11037804809761907]",4.0,"[0.10941348772238682,0.14152098890079845]",100.0,"[0.17255362932411228,-0.040465080084843674]",4.0,"[0.1186475863534862,-0.10639077632173462]",100.0,"[-0.16449880244508389,-0.07860980752137565]",100.0,"[-0.030070482834237078,0.08002394337129173]",4.0,"[-0.14446270781025455,0.09608319790990032]",100.0,"[0.18025333632207172,0.05672382874217532]",100.0,"[0.01696884022726288,0.014554338162307383]",100.0,"[-0.10129325200610279,-0.011849254595868972]",100.0,"[-0.09221739318459433,0.15991508474400176]",100.0,"[-0.15817549859444413,0.052998459416885725]",100.0,"[0.09158307153871073,-0.056702884571416035]",100.0,"[-0.09429942529243493,0.03677152032819157]",100.0,"[0.0461653018494376,0.1206550726783205]",100.0,"[-0.05744381056600496,-0.07658658574791093]",100.0,"[-0.046424894610868885,0.024693469799253645]",100.0,"[0.05984356892528247,-0.02956632636073434]",100.0,"[-0.13276217295088677,-0.1271829274952982]",100.0,"[0.00009275454438766564,-0.14325358089533716]",100.0,"[-0.05396790368656518,-0.16487994187148972]",100.0,"[-0.024579435128165093,0.15870969385058042]",100.0,"[0.09398795277123512,0.07465816562799533]",100.0,"[0.056258940225957094,0.024395928667831784]",100.0,"[0.02784854373060888,0.06723357433103194]",100.0,"[0.13805922872588822,0.0057752807829523686]",100.0,"[0.010388240301732996,0.18391069625946074]",100.0,"[-0.10033628875567546,-0.058480801389790865]",100.0,"[0.03809997796847111,-0.07609110677011098]",100.0,"[0.02,0.02]",253.7177,0.0,44.0,44.0,1.0,1.0,,,,,,,
,,,,,,,683dd5dbf93407b4f87a7cd9,68442818c56998de97088960,2025-06-07_04h53.54.695,shape_ratio,2024.1.5,Win32,59.88023952,684250e4f00cb30b92d1fa88,,,,,,,,,,,253.7187,254.2171,,,254.4675,254.9823,left,,,,,,,,0.6,,,,,,254.2172,254.4673,0.4968,,254.9823,"[0.11895555207441331,-0.035355760877302474]",100.0,"[-0.07801271649165155,0.040845146225430166]",100.0,"[-0.11817541704328689,-0.10323510448465874]",4.0,"[0.02386665266459942,0.06252531474575972]",100.0,"[0.09287659027982235,0.1568441745348341]",4.0,"[0.020524953602440256,-0.13021284700422459]",100.0,"[-0.04352094261735823,0.15305800646435533]",100.0,"[0.14170400331003852,0.014506906957340348]",100.0,"[-0.005398311764174838,-0.09517560482848235]",4.0,"[0.04617008621915028,0.10511274636983468]",4.0,"[-0.10104866332941738,0.08865345433272008]",100.0,"[0.013581680731918329,0.13375712401467105]",100.0,"[-0.02537936926638746,-0.16219835044892422]",100.0,"[-0.1515740889034001,-0.02477861299404765]",4.0,"[-0.09071644344601808,0.13260945871300694]",100.0,"[-0.00228729013929637,0.17191459780435298]",4.0,"[0.0074632992990957174,0.019200158077081784]",100.0,"[-0.08397472409179099,-0.04970530432933591]",100.0,"[0.045564808466186796,0.18989142020544597]",100.0,"[0.17180497624567714,0.05762149166654453]",4.0,"[0.0864005563869849,0.0027640328780500134]",4.0,"[-0.03639179147240316,0.07040240435244743]",4.0,"[-0.12114085882737322,-0.15846194921544085]",100.0,"[0.10522828916783389,-0.10853080580600036]",4.0,"[0.05256909301465572,-0.17851666151804235]",100.0,"[0.06371624108353509,-0.09794102518024259]",100.0,"[0.1826585570606151,0.010706134958328102]",100.0,"[-0.16262270656645178,-0.08023040439543865]",100.0,"[-0.002452907012038331,-0.027664292091007386]",4.0,"[-0.1601114027495854,0.10039989257795655]",4.0,"[-0.11238990493673227,-0.011273959337269603]",100.0,"[0.03149690028025437,-0.06444593496570389]",4.0,"[0.02,0.02]",256.0819,0.0,45.0,45.0,34.0,1.0,,,,,,,
,,,,,,,683dd5dbf93407b4f87a7cd9,68442818c56998de97088960,2025-06-07_04h53.54.695,shape_ratio,2024.1.5,Win32,59.88023952,684250e4f00cb30b92d1fa88,,,,,,,,,,,256.083,256.5813,,,256.8226,257.2043,left,,,,,,,,0.9,,,,,,256.5815,256.8225,0.366,,257.2043,"[0.1527100243323708,0.06345882483266992]",100.0,"[-0.12353782344410404,-0.10300827132456285]",100.0,"[0.07857802754634291,-0.04189687811467587]",100.0,"[0.11349256296386512,-0.08098765439318953]",100.0,"[-0.0290363574489792,0.05094112437481119]",100.0,"[0.07285792952663776,0.0869922211534981]",100.0,"[0.17730219440814454,-0.040873854891640846]",100.0,"[0.018272433688343713,0.10748795720359829]",100.0,"[-0.08362861757701474,0.04000213721995099]",100.0,"[-0.1075660350903701,-0.15878376306539901]",100.0,"[-0.13694195466555342,0.12155445113659173]",100.0,"[-0.1535101234836063,0.017507917014956204]",100.0,"[0.1294499041311729,0.0030184269617631915]",100.0,"[-0.014859982001666274,-0.04837604817991593]",4.0,"[-0.1483296199934064,0.0673893269444624]",100.0,"[-0.03508874155561218,0.001184298529175885]",100.0,"[-0.16651932869144348,-0.039310410482377565]",4.0,"[0.03762877202273185,-0.08471585780980447]",100.0,"[-0.10928267569838188,-0.05903436603397647]",100.0,"[0.08036850524260526,-0.10457424717561756]",100.0,"[-0.11022823550375006,0.15453724305807032]",100.0,"[-0.06312664440376509,0.16134782754242497]",100.0,"[-0.02979893733959134,-0.10459601146897778]",100.0,"[0.18882063361140858,0.037248231537518287]",100.0,"[-0.05613444966779315,-0.1658055683971059]",100.0,"[0.05411775309932421,0.15778335459264883]",100.0,"[0.16692921705267502,-0.09293455753489]",100.0,"[-0.027911099688182135,0.09196339382796069]",100.0,"[0.10648256456869144,0.11900092398310497]",100.0,"[-0.011026547852030638,-0.16648912115083384]",4.0,"[0.045059929905169785,-0.006774892597944169]",100.0,"[-0.09290939928350914,0.09571706125355128]",100.0,"[0.02,0.02]",258.2963,0.0,46.0,46.0,20.0,1.0,,,,,,,
,,,,,,,683dd5dbf93407b4f87a7cd9,68442818c56998de97088960,2025-06-07_04h53.54.695,shape_ratio,2024.1.5,Win32,59.88023952,684250e4f00cb30b92d1fa88,,,,,,,,,,,258.298,258.7961,,,259.0473,259.2615,right,,,,,,,,0.4,,,,,,258.7962,259.0473,0.2017,,259.2616,"[-0.16535414981208646,-0.011693633424327478]",100.0,"[-0.07043932420494955,-0.1438610802777993]",100.0,"[-0.09892395877808136,0.03446566528187729]",100.0,"[0.02728798275935267,0.12684968565111893]",4.0,"[-0.10812708798785496,-0.11113966445576014]",4.0,"[-0.14667398104034204,-0.05832019126336577]",100.0,"[-0.02584769219295892,-0.156174241493087]",4.0,"[-0.15109868539447266,0.06352402979611141]",4.0,"[-0.08639399561893518,-0.057509692093856965]",100.0,"[0.10813133486129911,-0.00496974440867688]",100.0,"[-0.10918512096370367,0.15537426245517247]",4.0,"[0.09231268595298239,-0.09138259133762898]",4.0,"[-0.014182944816292403,0.06097994060519741]",100.0,"[0.05237889027337849,-0.058653197371530956]",4.0,"[0.14133774511839034,0.05214105169033395]",100.0,"[0.021790946862832835,0.1816812547054941]",100.0,"[-0.013543770131785355,-0.0418868056628472]",4.0,"[0.08711032667112363,0.03246633198763555]",100.0,"[0.03685414460024752,-0.09923607321448892]",4.0,"[0.004482845711939086,0.01505255358840564]",4.0,"[-0.07398433223348451,-0.007267330114914007]",4.0,"[0.19055431340724727,0.054845230810183526]",4.0,"[0.15814376429902582,-0.08718316807538587]",4.0,"[0.15156217823485046,0.002810768834519443]",4.0,"[0.03303411769028329,0.08047589947212883]",4.0,"[0.07950336021329675,0.0930867149231548]",4.0,"[-0.055830098440422624,0.13064299315810002]",100.0,"[-0.07652579921080248,0.08934297574797068]",100.0,"[-0.1485869505972778,-0.09920020940407309]",100.0,"[0.1512882629535274,0.11180700583395752]",4.0,"[-0.0329096169427284,-0.10446981314347205]",4.0,"[0.18147334059150114,-0.051841758482600524]",4.0,"[0.02,0.02]",260.3615,0.0,47.0,47.0,164.0,1.0,,,,,,,
,,,,,,,683dd5dbf93407b4f87a7cd9,68442818c56998de97088960,2025-06-07_04h53.54.695,shape_ratio,2024.1.5,Win32,59.88023952,684250e4f00cb30b92d1fa88,,,,,,,,,,,260.363,260.861,,,261.1114,261.3783,right,,,,,,,,0.4,,,,,,260.8612,261.1113,0.2507,,261.3787,"[-0.15590812831754888,-0.07905461056492494]",4.0,"[0.0834133964530665,0.08054565063840123]",4.0,"[-0.19397247133458134,-0.0050979429102825475]",4.0,"[0.12709834330390918,0.1291904870555038]",4.0,"[-0.05578954519839315,0.1711080788644886]",4.0,"[0.10425937608539329,-0.07737805197228975]",100.0,"[-0.1390985642118473,-0.12501357058180868]",4.0,"[0.05084285076594788,-0.1561452146379003]",4.0,"[-0.03524913593286165,-0.1490721375873521]",4.0,"[0.06382784758837458,0.02925025917061143]",100.0,"[0.13256976353561867,-0.10948084748095711]",4.0,"[-0.07371928289597596,0.03462849518463922]",4.0,"[0.007825437558052775,-0.01401798300951087]",4.0,"[-0.07425939801252683,-0.03342108027875333]",100.0,"[-0.12065645471371889,0.11626681655327321]",4.0,"[0.027453204359671527,0.1278954086050983]",4.0,"[-0.025892510798535315,-0.037520493342468285]",100.0,"[-0.12962777516157353,0.021909605469695618]",4.0,"[0.18088594366514898,-0.0688061800495808]",100.0,"[0.1702235889233951,0.0277128122375941]",4.0,"[-0.10858097776449538,-0.08772107485755944]",100.0,"[0.05739654014962161,0.1563320155163928]",4.0,"[0.047229786729791126,-0.10408381239416185]",100.0,"[0.1525449889801192,-0.022333295194829465]",4.0,"[0.08618995514071888,-0.176154397117587]",100.0,"[0.02214688325308579,-0.0657907821235251]",4.0,"[-0.15741952139708443,0.09609360587688885]",100.0,"[0.017087388465052908,0.1913015370647868]",100.0,"[-0.00034542890956768484,0.031119092381904693]",100.0,"[0.17482607346156948,0.06781106417317362]",100.0,"[-0.12068483781013083,0.07044101451028835]",100.0,"[-0.08817192395884284,-0.1574374492125148]",4.0,"[0.02,0.02]",262.4757,0.0,48.0,48.0,173.0,1.0,,,,,,,
,,,,,,,683dd5dbf93407b4f87a7cd9,68442818c56998de97088960,2025-06-07_04h53.54.695,shape_ratio,2024.1.5,Win32,59.88023952,684250e4f00cb30b92d1fa88,,,,,,,,,,,262.477,262.9747,,,263.2267,263.5423,right,,,,,,,,0.4,,,,,,262.9748,263.2265,0.3019,,263.5425,"[0.06821467994640207,0.02669562691043613]",4.0,"[0.15676898920722726,-0.011856638535620771]",4.0,"[-0.04802980269362151,-0.08776358335460771]",100.0,"[0.15927365518410924,0.07262814214982377]",4.0,"[-0.14601415027923023,0.0903823944721062]",4.0,"[0.05625857472553023,0.07677556512235682]",4.0,"[-0.0007346191599291121,-0.10517449302764159]",4.0,"[-0.10059528431829128,-0.007691125910483043]",100.0,"[-0.06794536119584156,0.1106506792105354]",100.0,"[0.06941312693702117,-0.06541106414129921]",4.0,"[0.10774067248725742,0.15843618191103068]",4.0,"[0.003982428592220016,0.025225371393670197]",100.0,"[-0.13190175040524876,0.14537379002798093]",4.0,"[-0.1576470973909015,-0.08415758546573188]",100.0,"[-0.1838274098019597,0.05341657708800286]",100.0,"[-0.18230011134141608,-0.005290871787709144]",4.0,"[0.06041343665781936,-0.16539368149532277]",4.0,"[0.12966231964477803,-0.08434578046346221]",100.0,"[0.13574626104865112,0.12298033960338822]",4.0,"[0.0960960773577475,0.06589738911269247]",4.0,"[-0.14660469554223685,-0.13186414454508155]",4.0,"[-0.008204151946157085,0.14020071785413046]",4.0,"[0.11550616604118355,-0.15563435453340047]",100.0,"[-0.04516077410496337,-0.04589996833288825]",100.0,"[-0.048982590822690596,0.012898801986643001]",100.0,"[-0.08121176809119525,-0.1559126945975425]",100.0,"[-0.014692732040780665,0.06735587772795923]",100.0,"[0.1424155629732308,0.02715556891285338]",4.0,"[0.046190876955366535,0.1689325721775244]",4.0,"[0.019671593232489855,-0.038173914965676514]",4.0,"[-0.09094947280926034,-0.10956948054164212]",100.0,"[-0.07347563760754398,0.05263541178696367]",4.0,"[0.02,0.02]",264.6408,0.0,49.0,49.0,161.0,1.0,,,,,,,
