right,left,explain.started,explain.stopped,key_resp_3.keys,key_resp_3.rt,key_resp_3.duration,participant,session,date,expName,psychopyVersion,OS,frameRate,study_id,explain_2.started,explain_2.stopped,key_resp_4.keys,key_resp_4.rt,key_resp_4.duration,explain_3.started,explain_3.stopped,key_resp_5.keys,key_resp_5.rt,key_resp_5.duration,fixation.started,fixation.stopped,practice.started,practice.stopped,response.started,response.stopped,key_resp.keys,feedback.started,feedback.stopped,trials_2.thisRepN,trials_2.thisTrialN,trials_2.thisN,trials_2.thisIndex,trials_2.ran,dot_ratio,key_resp.rt,key_resp.duration,explain_4.started,explain_4.stopped,key_resp_6.keys,key_resp_6.rt,key_resp_6.duration,dotDisplay.started,dotDisplay.stopped,ITI.started,polygon_1.pos,polygon_1.edges,polygon_2.pos,polygon_2.edges,polygon_3.pos,polygon_3.edges,polygon_4.pos,polygon_4.edges,polygon_5.pos,polygon_5.edges,polygon_6.pos,polygon_6.edges,polygon_7.pos,polygon_7.edges,polygon_8.pos,polygon_8.edges,polygon_9.pos,polygon_9.edges,polygon_10.pos,polygon_10.edges,polygon_11.pos,polygon_11.edges,polygon_12.pos,polygon_12.edges,polygon_13.pos,polygon_13.edges,polygon_14.pos,polygon_14.edges,polygon_15.pos,polygon_15.edges,polygon_16.pos,polygon_16.edges,polygon_17.pos,polygon_17.edges,polygon_18.pos,polygon_18.edges,polygon_19.pos,polygon_19.edges,polygon_20.pos,polygon_20.edges,polygon_21.pos,polygon_21.edges,polygon_22.pos,polygon_22.edges,polygon_23.pos,polygon_23.edges,polygon_24.pos,polygon_24.edges,polygon_25.pos,polygon_25.edges,polygon_26.pos,polygon_26.edges,polygon_27.pos,polygon_27.edges,polygon_28.pos,polygon_28.edges,polygon_29.pos,polygon_29.edges,polygon_30.pos,polygon_30.edges,polygon_31.pos,polygon_31.edges,polygon_32.pos,polygon_32.edges,dot_size,ITI.stopped,trials.thisRepN,trials.thisTrialN,trials.thisN,trials.thisIndex,trials.ran,break_2.started,break_2.stopped,trials_3.thisRepN,trials_3.thisTrialN,trials_3.thisN,trials_3.thisIndex,trials_3.ran
subject chose diamond,subject chose dot,0.0005,39.6155,space,24.5911,,678d265eb819fdb2c5a362f9,6846a866269b30c6d305f7c5,2025-06-09_11h25.24.536,shape_ratio,2024.1.5,Win32,60.97560976,684250e4f00cb30b92d1fa88,,,,,,,,,,,,,,,,,,,,,,,,,,,,,,,,,,,,,,,,,,,,,,,,,,,,,,,,,,,,,,,,,,,,,,,,,,,,,,,,,,,,,,,,,,,,,,,,,,,,,,,,,,,,,,,,,
,,,,,,,678d265eb819fdb2c5a362f9,6846a866269b30c6d305f7c5,2025-06-09_11h25.24.536,shape_ratio,2024.1.5,Win32,60.97560976,684250e4f00cb30b92d1fa88,39.6164,85.9763,space,16.3373,,,,,,,,,,,,,,,,,,,,,,,,,,,,,,,,,,,,,,,,,,,,,,,,,,,,,,,,,,,,,,,,,,,,,,,,,,,,,,,,,,,,,,,,,,,,,,,,,,,,,,,,,,,,,
,,,,,,,678d265eb819fdb2c5a362f9,6846a866269b30c6d305f7c5,2025-06-09_11h25.24.536,shape_ratio,2024.1.5,Win32,60.97560976,684250e4f00cb30b92d1fa88,,,,,,85.9765,96.2102,space,7.2109,,,,,,,,,,,,,,,,,,,,,,,,,,,,,,,,,,,,,,,,,,,,,,,,,,,,,,,,,,,,,,,,,,,,,,,,,,,,,,,,,,,,,,,,,,,,,,,,,,,,,,,,
,,,,,,,678d265eb819fdb2c5a362f9,6846a866269b30c6d305f7c5,2025-06-09_11h25.24.536,shape_ratio,2024.1.5,Win32,60.97560976,684250e4f00cb30b92d1fa88,,,,,,,,,,,96.2485,96.724,96.7249,96.9485,96.9489,98.4404,,98.441,99.5402,0.0,0.0,0.0,1.0,1.0,0.8,,,,,,,,,,,,,,,,,,,,,,,,,,,,,,,,,,,,,,,,,,,,,,,,,,,,,,,,,,,,,,,,,,,,,,,,,,,,,,,,,,,,,,,,
,,,,,,,678d265eb819fdb2c5a362f9,6846a866269b30c6d305f7c5,2025-06-09_11h25.24.536,shape_ratio,2024.1.5,Win32,60.97560976,684250e4f00cb30b92d1fa88,,,,,,,,,,,99.5427,100.0398,100.0399,100.2916,100.2917,101.1096,right,101.1099,102.2085,0.0,1.0,1.0,0.0,1.0,0.2,0.8036,,,,,,,,,,,,,,,,,,,,,,,,,,,,,,,,,,,,,,,,,,,,,,,,,,,,,,,,,,,,,,,,,,,,,,,,,,,,,,,,,,,,,,,
,,,,,,,678d265eb819fdb2c5a362f9,6846a866269b30c6d305f7c5,2025-06-09_11h25.24.536,shape_ratio,2024.1.5,Win32,60.97560976,684250e4f00cb30b92d1fa88,,,,,,,,,,,,,,,,,,,,,,,,,,,,102.2101,108.4109,space,3.1855,,,,,,,,,,,,,,,,,,,,,,,,,,,,,,,,,,,,,,,,,,,,,,,,,,,,,,,,,,,,,,,,,,,,,,,,,,,,,,,,,,
,,,,,,,678d265eb819fdb2c5a362f9,6846a866269b30c6d305f7c5,2025-06-09_11h25.24.536,shape_ratio,2024.1.5,Win32,60.97560976,684250e4f00cb30b92d1fa88,,,,,,,,,,,108.4483,108.9251,,,109.1748,109.6588,right,,,,,,,,0.1,0.4693,,,,,,,108.9264,109.1748,109.6601,"[-0.08187144147897898,-0.014484382328104296]",4.0,"[0.1068842075679045,-0.006269197300467387]",4.0,"[0.12166335162199526,-0.09394332801160239]",4.0,"[0.04507614774865754,0.160842927208576]",4.0,"[0.011406678071913687,-0.05723681249736202]",4.0,"[0.003401697163148218,0.12168910758359626]",4.0,"[-0.025646167925983412,0.1718081743830364]",100.0,"[-0.03497869863587426,0.08538111636759901]",4.0,"[0.007209746916312989,-0.128921988417257]",4.0,"[-0.10542515300897401,0.05882582870230065]",4.0,"[-0.10635472264009448,-0.0965178733047359]",4.0,"[0.17442316503273114,-0.013291288593242724]",4.0,"[-0.00689150234507353,-0.19963277242787147]",4.0,"[-0.04573217511778379,-0.13885549055169988]",100.0,"[-0.13884999457812155,0.09016281983415758]",4.0,"[-0.16938111252817278,-0.09583881433148586]",4.0,"[0.17791539892692684,0.04936356993688663]",4.0,"[-0.13774162637432544,-0.02174715387078]",4.0,"[0.09470185173595706,0.03920913107263902]",4.0,"[0.04362675195934394,0.05359261227292632]",100.0,"[-0.05157606704962106,0.015191544102772592]",4.0,"[0.14659020630064984,-0.046435992778511306]",4.0,"[-0.14228797329685977,-0.06206766808627863]",4.0,"[-0.17637571404483326,0.03900380700530387]",4.0,"[-0.17464607596811915,-0.003420151523860897]",4.0,"[0.09847083760015751,0.1384252854728712]",4.0,"[-0.14827055677714998,0.1330587167499619]",4.0,"[0.07198165417624124,0.09230196592884038]",4.0,"[-0.04876248627002452,-0.18729600296366844]",4.0,"[-0.14388051663018045,-0.13790899179325636]",4.0,"[0.13774543043101695,-0.1418512357031196]",4.0,"[0.1386505299209205,0.06255667671370453]",4.0,"[0.02,0.02]",110.7587,0.0,0.0,0.0,203.0,1.0,,,,,,,
,,,,,,,678d265eb819fdb2c5a362f9,6846a866269b30c6d305f7c5,2025-06-09_11h25.24.536,shape_ratio,2024.1.5,Win32,60.97560976,684250e4f00cb30b92d1fa88,,,,,,,,,,,110.7596,111.2576,,,111.5098,111.8924,right,,,,,,,,0.4,0.3699,,,,,,,111.2583,111.5097,111.8924,"[0.03722584888586067,0.055261406586398484]",4.0,"[-0.06461629554063593,0.05346451898257417]",100.0,"[0.178177798063382,0.05688228788511227]",4.0,"[0.04544176580931744,-0.15358178975523862]",4.0,"[0.0532147230931899,0.016715425040388067]",4.0,"[-0.13152034909802676,0.05151533212157417]",100.0,"[-0.1693943251454482,-0.008497625355051486]",4.0,"[-0.10617235970104949,-0.06087287539784353]",100.0,"[0.06007895660731645,-0.07748452466068312]",100.0,"[0.09566849692546779,-0.1530373608640169]",4.0,"[-0.028960037053704618,-0.04080327511826646]",4.0,"[-0.1589879374105604,0.10287101613594847]",4.0,"[-0.022376145511399766,-0.0013113273558761002]",4.0,"[-0.10790141235941679,-0.1371324830026452]",4.0,"[-0.07725132084885254,0.008758063140427671]",4.0,"[-0.031171970008417215,-0.130191694381497]",100.0,"[0.08947276517162521,0.08875174032370459]",4.0,"[0.1190132215034412,0.12792462572489535]",4.0,"[0.07526090181746965,0.16359541860768034]",100.0,"[-0.17897532843322705,0.05170559368945298]",100.0,"[0.005247080398982344,0.1991593393615927]",4.0,"[0.0020388089047751958,-0.08294355460820511]",4.0,"[0.07917051145996278,-0.015393185843171285]",100.0,"[-0.010046680600335301,-0.19401165092039974]",4.0,"[-0.11407059994315556,-0.01710061079743914]",4.0,"[0.09896527580731587,-0.0953013583697714]",100.0,"[-0.06515705518328899,-0.09653341491246217]",4.0,"[0.033032701263111135,-0.10827550423931856]",100.0,"[-0.13514732775202476,-0.10228044660260614]",100.0,"[-0.045910566638712354,0.1789872736631972]",100.0,"[-0.021677023235767416,0.08455281928978502]",4.0,"[-0.09343360385380024,0.16698802942092872]",100.0,"[0.02,0.02]",112.991,0.0,1.0,1.0,173.0,1.0,,,,,,,
,,,,,,,678d265eb819fdb2c5a362f9,6846a866269b30c6d305f7c5,2025-06-09_11h25.24.536,shape_ratio,2024.1.5,Win32,60.97560976,684250e4f00cb30b92d1fa88,,,,,,,,,,,112.9942,113.4916,,,113.7423,113.9587,left,,,,,,,,0.1,0.2044,,,,,,,113.4916,113.7422,113.9588,"[0.01895084503141912,-0.12022582301314298]",4.0,"[0.10362423231787057,0.16105904299784216]",4.0,"[-0.11169673851469178,0.081389528558274]",4.0,"[-0.08013850330119977,-0.15104206754058913]",4.0,"[-0.16652737861134795,-0.09291969474357574]",4.0,"[-0.05757210231946618,0.002205524832591593]",4.0,"[-0.0707769558280113,0.11060854903819378]",4.0,"[0.03775852303069142,-0.07709306430864647]",4.0,"[0.04139959316704911,-0.014237153447522738]",4.0,"[0.04443897563838945,0.08060424469233736]",4.0,"[0.11589881368078724,0.06766678525333518]",100.0,"[-0.1674187648244219,0.07509579690107347]",4.0,"[-0.05763122844367223,-0.039546759756100995]",4.0,"[-0.0017011345047875065,0.11432479832674236]",4.0,"[-0.13459857052713575,-0.04898694460250671]",100.0,"[-0.15842458214847682,0.012205813370626276]",4.0,"[0.04427403576622281,0.18831783352023967]",4.0,"[-0.016374622411660603,-0.012604143545320044]",4.0,"[0.1153433777298944,-0.13952919654820914]",4.0,"[-0.07472310130355736,-0.11091668698888238]",4.0,"[0.16383192283120632,0.05927080123878338]",4.0,"[0.12161541437996554,-0.09765864633513545]",4.0,"[-0.12186612179792065,-0.12629197113329574]",100.0,"[0.1774732311277463,-0.07640121625438412]",4.0,"[-0.02633932810346085,-0.10871215152050967]",4.0,"[0.1488193412236725,0.011579281136585944]",4.0,"[-0.003127474276986118,-0.15950101381646228]",4.0,"[0.07777151938724917,-0.059503200333238]",4.0,"[-0.18966890547513046,-0.05964065933051356]",4.0,"[0.0357127242299198,0.0272103530678235]",4.0,"[-0.009420962253796603,0.1546375207302896]",4.0,"[0.08678392087470563,0.12176406157546778]",4.0,"[0.02,0.02]",115.0568,0.0,2.0,2.0,183.0,1.0,,,,,,,
,,,,,,,678d265eb819fdb2c5a362f9,6846a866269b30c6d305f7c5,2025-06-09_11h25.24.536,shape_ratio,2024.1.5,Win32,60.97560976,684250e4f00cb30b92d1fa88,,,,,,,,,,,115.0584,115.5582,,,115.8078,116.1588,right,,,,,,,,0.55,0.3375,,,,,,,115.5585,115.8078,116.1589,"[0.00689581909076337,-0.030705329566377847]",100.0,"[-0.11311367624838786,-0.10984078452117178]",100.0,"[0.08228937254263546,-0.1402695401175427]",100.0,"[-0.02801005611784213,0.05446096340217608]",4.0,"[0.14809091097337382,0.11216547835186645]",4.0,"[-0.037127488075645726,0.14788434733962874]",100.0,"[-0.03913097020194,0.0058165066804982055]",100.0,"[0.16291941538474172,-0.04022735893264561]",100.0,"[0.05433537306417713,0.0804443748225448]",4.0,"[0.09570560682903054,-0.001713172348835112]",4.0,"[-0.15536073932034428,-0.11496693584053261]",4.0,"[0.18250818539262234,0.028493086162367752]",100.0,"[-0.12204832545521735,0.06015138684891007]",100.0,"[-0.12856111180642307,0.10472321270427233]",4.0,"[0.016791085865150036,-0.1648264559624049]",4.0,"[-0.17582428640740272,-0.03427423272614428]",4.0,"[-0.04922598043648569,0.10784746231346064]",4.0,"[0.11822816967374172,-0.10955759483659178]",100.0,"[-0.16403858945623173,0.0373949601026547]",100.0,"[0.03599436576447766,0.1337969157682234]",100.0,"[-0.061418199601623646,-0.11300483058563258]",4.0,"[-0.12486044280565034,-0.045756430921315566]",100.0,"[0.13173406691173853,0.02923175841165367]",100.0,"[0.0042582695548788775,0.010513701891317851]",100.0,"[0.08975273494610833,0.16283969483654545]",100.0,"[-0.022760648840856133,-0.18109022661421434]",100.0,"[-0.019001089352217827,-0.12354191932098059]",100.0,"[-0.04278129585927016,0.19264886474815351]",4.0,"[0.04255584218313975,-0.08430716631638678]",4.0,"[0.14759088481726498,0.07004791209253591]",4.0,"[-0.0040769821868706455,0.12434523915574516]",100.0,"[-0.15683531834004635,-0.07058675354180546]",4.0,"[0.02,0.02]",117.2588,0.0,3.0,3.0,76.0,1.0,,,,,,,
,,,,,,,678d265eb819fdb2c5a362f9,6846a866269b30c6d305f7c5,2025-06-09_11h25.24.536,shape_ratio,2024.1.5,Win32,60.97560976,684250e4f00cb30b92d1fa88,,,,,,,,,,,117.2603,117.7576,,,118.0058,118.3053,left,,,,,,,,0.4,0.285,,,,,,,117.7577,118.0057,118.3054,"[0.06670212138385377,0.020987749440867422]",4.0,"[-0.09287896202291537,0.10330053360241756]",4.0,"[-0.06537647215438613,0.03192491965446477]",4.0,"[-0.05319588363059387,-0.08788307148436618]",100.0,"[-0.0934205965601816,-0.08645618917855381]",4.0,"[0.138132700282745,-0.07439405285877586]",100.0,"[-0.02487685060229497,-0.18260629503985334]",4.0,"[-0.1388521669706863,-0.06391399136480089]",100.0,"[0.018973331846579018,-0.19675306364122297]",4.0,"[0.12684242895533746,0.01780882814608948]",100.0,"[0.05482136250141278,0.09951121449309273]",4.0,"[0.022577183666614986,-0.13003093598047397]",4.0,"[-0.058041063275728444,-0.15277176856545507]",4.0,"[-0.04569586454556932,-0.04432407684337589]",4.0,"[-0.09378031860029652,-0.026433055674170248]",100.0,"[0.018331878240626594,0.013088125664413898]",100.0,"[0.1020837521769335,0.10228010910672043]",4.0,"[0.18364692721652112,0.04395750494291426]",4.0,"[0.045195474711072305,-0.07509800886006512]",100.0,"[0.048190170410286344,0.18843670854512073]",100.0,"[0.1785512029202601,-0.015508066523477011]",4.0,"[-0.03963100713734608,0.19192999331482893]",4.0,"[0.09488299810441786,-0.16461382880960088]",4.0,"[-0.17349655887040608,-0.000029403016300712363]",100.0,"[0.10135013208983665,0.16115232375757896]",100.0,"[-0.12921720591071437,-0.1320474058937747]",4.0,"[0.09821264515099545,-0.08732252411518635]",4.0,"[0.1609040228095711,-0.11606111522151101]",4.0,"[0.08996622450883617,-0.02453036653150313]",100.0,"[-0.020067072769879044,0.10383628495652661]",100.0,"[0.02814266468471132,-0.03076085929451658]",4.0,"[-0.12726436172478914,0.13109923460294395]",100.0,"[0.02,0.02]",119.4047,0.0,4.0,4.0,152.0,1.0,,,,,,,
,,,,,,,678d265eb819fdb2c5a362f9,6846a866269b30c6d305f7c5,2025-06-09_11h25.24.536,shape_ratio,2024.1.5,Win32,60.97560976,684250e4f00cb30b92d1fa88,,,,,,,,,,,119.4058,119.9046,,,120.1567,120.3052,right,,,,,,,,0.4,0.1373,,,,,,,119.9047,120.1567,120.3053,"[-0.15267719899040177,-0.028890683788250004]",4.0,"[-0.03960124370924334,-0.009959608255073717]",4.0,"[0.05306087927118355,-0.12740521713153055]",4.0,"[-0.11460270784831689,-0.00962708235468973]",100.0,"[0.0002527022338347797,0.030949467271215367]",4.0,"[-0.12981506224822267,0.10845779386415698]",4.0,"[0.16979106891916637,0.014580644003485124]",4.0,"[-0.06114528972043851,0.08231335813954799]",4.0,"[0.09348162124223089,0.00644398249887926]",4.0,"[-0.12109892478956566,-0.10939114542782671]",100.0,"[0.1028484762769037,0.0997704580294745]",100.0,"[-0.16390528829291484,-0.09248497503583905]",4.0,"[-0.19472986788834762,-0.02944466217976896]",100.0,"[0.03401117659774359,0.17294954644157465]",100.0,"[-0.0924879268009652,-0.1756945818660995]",100.0,"[0.053089341983305637,-0.0036587333403086996]",100.0,"[-0.024130155502998893,-0.11663426823892839]",4.0,"[-0.07367267982036833,0.1508183845140028]",4.0,"[0.1350655805514937,-0.12142522332077502]",4.0,"[0.15133074390507378,0.10152497137811241]",100.0,"[0.07267832202760197,-0.17500917812106098]",4.0,"[0.044036847551919334,-0.05984810062593198]",100.0,"[0.035147947808064836,0.09519541828232614]",4.0,"[0.11524257227976274,-0.07863861723626657]",100.0,"[0.1273196181910235,0.06622180767025913]",4.0,"[-0.16963428785787837,0.07306359721492427]",4.0,"[0.17995897801693306,-0.06819394109891487]",4.0,"[-0.11750298418091448,0.04617932285586662]",4.0,"[-0.004521222587014993,0.18937125502865235]",4.0,"[-0.033441180106018036,0.1299396435769362]",100.0,"[-0.03501025098607431,-0.1927741436727456]",100.0,"[-0.062905473349091,-0.05311845347918382]",100.0,"[0.02,0.02]",121.4048,0.0,5.0,5.0,174.0,1.0,,,,,,,
,,,,,,,678d265eb819fdb2c5a362f9,6846a866269b30c6d305f7c5,2025-06-09_11h25.24.536,shape_ratio,2024.1.5,Win32,60.97560976,684250e4f00cb30b92d1fa88,,,,,,,,,,,121.4062,121.9051,,,122.156,122.4929,left,,,,,,,,0.45,0.3307,,,,,,,121.9052,122.1559,122.493,"[0.10089149940637747,-0.057157333746455694]",100.0,"[-0.11491228153509438,-0.11442681235090264]",4.0,"[-0.07362216805839156,0.018457521272050352]",100.0,"[0.19165846977739937,0.009419117865552442]",4.0,"[-0.1565885062254118,0.03365477928284949]",4.0,"[0.12512106220069763,0.011925762101958021]",4.0,"[-0.12194418411466991,-0.016031280020752502]",4.0,"[-0.0040686250192844215,-0.05289131388615557]",4.0,"[0.0855951533064313,-0.11770447891329261]",4.0,"[0.1942627092517183,-0.033881143079951444]",4.0,"[0.006926919695446746,-0.19253720763911947]",4.0,"[0.029833001654243928,0.08059326645779592]",100.0,"[0.17071720530230136,-0.07172787743063654]",100.0,"[0.029057120132521083,0.12142199704258681]",100.0,"[0.030566327528641968,-0.07494280524484971]",100.0,"[0.09055852234586764,0.09088518207649482]",100.0,"[-0.02172310878534181,0.13847313880087714]",4.0,"[-0.11444758275346865,0.08404298212882359]",4.0,"[0.032577469568346236,0.17511583593404736]",100.0,"[0.15373094673117296,0.1155741218226]",100.0,"[0.15222882133648316,-0.021764886599815524]",4.0,"[-0.086500029983661,-0.17250904145441406]",4.0,"[-0.02335985360822704,0.09850039503551568]",4.0,"[0.16407908363279228,0.059070388851221865]",100.0,"[0.011705313784752749,-0.14854139072992836]",4.0,"[-0.12761154447433942,0.12868343922261874]",4.0,"[0.101544643148005,0.13287529487168329]",100.0,"[-0.04053772142031325,-0.19048600229621773]",100.0,"[-0.1530658437944785,-0.07152913814406951]",100.0,"[0.08514819529491402,0.037755397697803506]",100.0,"[-0.18840262266221494,0.002096595844570735]",4.0,"[-0.01742674233759605,-0.11016446082406264]",4.0,"[0.02,0.02]",123.5896,0.0,6.0,6.0,140.0,1.0,,,,,,,
,,,,,,,678d265eb819fdb2c5a362f9,6846a866269b30c6d305f7c5,2025-06-09_11h25.24.536,shape_ratio,2024.1.5,Win32,60.97560976,684250e4f00cb30b92d1fa88,,,,,,,,,,,123.5905,124.0907,,,124.3424,124.7402,right,,,,,,,,0.1,0.3892,,,,,,,124.0908,124.3423,124.7403,"[-0.011550427896311128,-0.12787515178649617]",100.0,"[0.17008820105820455,0.03435787517745279]",4.0,"[0.15804420052595505,-0.02106938775686589]",4.0,"[-0.01910281251700825,0.05893833885841172]",4.0,"[-0.08319133574173385,0.11681018757094169]",4.0,"[0.11536741292012306,-0.08167425572747963]",4.0,"[0.04173624604652373,-0.06424733118738496]",4.0,"[-0.015928783488960548,-0.06809112054060781]",4.0,"[-0.15979541421279392,-0.06589770282987634]",4.0,"[-0.10813488329930286,-0.005512419267842715]",4.0,"[-0.05450325080675804,0.16973811066828637]",4.0,"[0.08606481805570952,-0.17277190197289172]",100.0,"[-0.04320225898386831,0.10992670623209023]",4.0,"[0.05534979953197627,0.150409222064739]",4.0,"[-0.016854576272262757,0.1901207213760844]",4.0,"[-0.14952391085849534,0.028389063975538975]",4.0,"[-0.03790810699468179,-0.008060635248947165]",4.0,"[0.10716556602587597,0.0631058273025161]",100.0,"[-0.14598035940030213,-0.13463117422500426]",4.0,"[-0.0884008237313149,-0.14500942296875122]",4.0,"[-0.1895246518719772,0.028295413947535805]",4.0,"[-0.0017750825815683214,-0.16742616429267687]",4.0,"[-0.18167242638590342,0.08018359932010065]",4.0,"[0.14703346516147253,0.08870740964639015]",4.0,"[-0.07172717185424722,0.0434329096023788]",4.0,"[0.12323020519811077,0.14958177215689386]",4.0,"[0.03503811881546723,-0.1344766947763449]",4.0,"[0.025551875317474704,0.016442115684960373]",4.0,"[0.046024817747598666,0.08323360398662294]",4.0,"[-0.007033614732155509,0.14228546793243343]",4.0,"[0.10321153922982108,0.10892164570971757]",4.0,"[-0.13585067101755588,0.07430708053607704]",4.0,"[0.02,0.02]",125.8411,0.0,7.0,7.0,192.0,1.0,,,,,,,
,,,,,,,678d265eb819fdb2c5a362f9,6846a866269b30c6d305f7c5,2025-06-09_11h25.24.536,shape_ratio,2024.1.5,Win32,60.97560976,684250e4f00cb30b92d1fa88,,,,,,,,,,,125.8424,126.3411,,,126.5923,126.9095,left,,,,,,,,0.5,0.3107,,,,,,,126.3412,126.5922,126.9097,"[0.029802163118565376,0.01323824387523436]",4.0,"[-0.14217350784189034,0.08862489135011692]",100.0,"[-0.014338124813055428,0.06272865883525633]",4.0,"[0.05425345761973884,0.1271727843867037]",4.0,"[-0.0950948139048443,-0.14479153800975064]",100.0,"[0.036583867009581814,-0.11278588117828921]",4.0,"[-0.12151829566009441,-0.11273965924631225]",100.0,"[0.029150973930477265,-0.063792428916971]",100.0,"[0.06983737586340764,0.011108493749887849]",100.0,"[0.15610330889137458,0.05788283840764374]",100.0,"[0.016563911898250062,0.1882366900218294]",100.0,"[-0.060266425601716626,-0.03398450288496321]",4.0,"[0.13052114325621117,-0.12765696013363023]",100.0,"[0.19012216622615102,0.019806045181389127]",4.0,"[-0.08987615654708378,0.06576531195602081]",100.0,"[0.03709424202274084,-0.19446158498985155]",4.0,"[-0.005758601909367346,0.12391496035245617]",4.0,"[-0.036102481587901504,-0.16142838106757826]",100.0,"[0.13858185617696117,-0.021705568747403856]",4.0,"[-0.1368921200596428,-0.004983254822141701]",100.0,"[0.0041164893387505225,-0.16093912885561573]",4.0,"[0.08783792559246666,-0.0961722075333608]",100.0,"[-0.06123341199899674,0.17884746022558062]",4.0,"[-0.014974053161650859,-0.12084323790016165]",4.0,"[-0.12552132419151268,-0.05800751451937145]",4.0,"[0.11073814670159499,0.14174813653231308]",4.0,"[0.026729163382280752,0.07804721194441452]",100.0,"[-0.09948302361682615,0.010076039175643859]",100.0,"[0.09100704800853986,-0.031012759753361614]",100.0,"[0.08799732486677021,0.10110188844801092]",100.0,"[-0.19433530085685138,-0.00481137013852079]",4.0,"[-0.18495090240167453,-0.04997859516781732]",4.0,"[0.02,0.02]",128.0069,0.0,8.0,8.0,110.0,1.0,,,,,,,
,,,,,,,678d265eb819fdb2c5a362f9,6846a866269b30c6d305f7c5,2025-06-09_11h25.24.536,shape_ratio,2024.1.5,Win32,60.97560976,684250e4f00cb30b92d1fa88,,,,,,,,,,,128.0079,128.5061,,,128.7564,128.9397,right,,,,,,,,0.9,0.1683,,,,,,,128.5061,128.7564,128.9398,"[-0.025784577713812755,0.08374060554382465]",100.0,"[-0.1141000961813189,-0.02305796467416879]",100.0,"[-0.02876437500207158,-0.04799463151411335]",100.0,"[0.0969940776336185,0.047641818589835634]",100.0,"[0.11562712211000375,-0.054686116820371056]",100.0,"[0.18636849064245561,-0.01574892332286989]",4.0,"[-0.1188301202107554,0.06042734077834386]",100.0,"[0.058403355584327174,0.17480973795793306]",100.0,"[0.18471860053145822,-0.0659536895026101]",100.0,"[-0.15138353471767593,-0.05774572545093061]",100.0,"[-0.05953850426572127,0.15022226464466082]",100.0,"[0.15328937817344862,0.12321193169475987]",100.0,"[-0.06486689774523294,0.03162246975483096]",4.0,"[-0.12780703807473892,-0.12096084181904987]",100.0,"[-0.05377875134057604,-0.1877530615522026]",100.0,"[0.1394151204861844,0.015064541623018955]",100.0,"[-0.10437209285241707,0.02139959962269202]",100.0,"[-0.016404809288837353,0.007508156955904378]",100.0,"[0.05733064556866464,-0.16347997554341323]",100.0,"[-0.031994905368651856,-0.11321636544315308]",100.0,"[0.04904859251095206,0.12681538152460975]",100.0,"[0.10381791136330133,0.1118005271591007]",100.0,"[0.04906693687799179,-0.07052821079812024]",4.0,"[0.08165226688980612,-0.10283233712332839]",100.0,"[-0.19364549727459276,0.01803520266091413]",100.0,"[-0.0655506446383136,0.07409912653460807]",100.0,"[-0.013958746510542705,0.14823758185733027]",100.0,"[0.10398739287008521,0.16922313041656356]",100.0,"[-0.10585307994348515,-0.15979753829971852]",100.0,"[0.1971245406360547,0.030264125127971726]",100.0,"[0.061154754346441575,0.007893958831382013]",100.0,"[-0.09801860934029889,-0.08553290430706748]",100.0,"[0.02,0.02]",130.0398,0.0,9.0,9.0,28.0,1.0,,,,,,,
,,,,,,,678d265eb819fdb2c5a362f9,6846a866269b30c6d305f7c5,2025-06-09_11h25.24.536,shape_ratio,2024.1.5,Win32,60.97560976,684250e4f00cb30b92d1fa88,,,,,,,,,,,130.0406,130.5392,,,130.7919,130.9726,left,,,,,,,,0.9,0.167,,,,,,,130.5392,130.7919,130.9729,"[-0.02526191637384102,0.12781568357765108]",100.0,"[-0.16511299094393841,0.0812633005365801]",100.0,"[-0.014321623270451986,0.17413500510744503]",100.0,"[-0.01935323009176449,-0.1932464965021596]",4.0,"[0.08791233354065114,0.07833926637629413]",100.0,"[-0.135125976643888,0.03991299406163076]",4.0,"[-0.09346094616531173,0.011169118983097553]",100.0,"[0.005189685972431611,-0.14405947920712547]",100.0,"[-0.01353077902489979,-0.09242312490921574]",100.0,"[0.045716055562390494,-0.13590226256071655]",100.0,"[0.0762946934914506,0.11791066918934116]",100.0,"[0.009179953586031344,0.074428268524262]",100.0,"[-0.14698412439090341,-0.0765489403985933]",100.0,"[0.005912861921274809,0.027197061525356378]",100.0,"[-0.05343026606116223,-0.134950181353122]",100.0,"[0.19133211999291175,0.03752871962555845]",100.0,"[0.13356634753758795,-0.1316151357994345]",100.0,"[-0.1739356931355692,-0.006571357000427265]",100.0,"[0.06107607521075813,-0.005513242012830016]",100.0,"[-0.07334801457414912,0.1751978427850109]",100.0,"[0.0732744568002507,-0.08323221288695351]",100.0,"[-0.12243418678825957,-0.15657102003514514]",100.0,"[0.055696389784891866,0.03951370890959013]",4.0,"[0.03667849600030491,-0.19338222687144213]",100.0,"[0.14859987101489683,-0.06657985275540261]",100.0,"[-0.0002177251030316477,-0.046090457000001674]",100.0,"[0.1512628307728486,0.12597793055169001]",100.0,"[-0.11977899287328703,-0.04222987252791338]",100.0,"[-0.0680761395400975,0.059014761510348006]",100.0,"[-0.09648657226233619,-0.10384429182186976]",100.0,"[-0.04725753797680486,-0.005730332090599213]",100.0,"[0.08459171314413358,0.17380304523104861]",100.0,"[0.02,0.02]",132.0736,0.0,10.0,10.0,17.0,1.0,,,,,,,
,,,,,,,678d265eb819fdb2c5a362f9,6846a866269b30c6d305f7c5,2025-06-09_11h25.24.536,shape_ratio,2024.1.5,Win32,60.97560976,684250e4f00cb30b92d1fa88,,,,,,,,,,,132.075,132.574,,,132.8213,133.138,left,,,,,,,,0.55,0.3087,,,,,,,132.5741,132.8212,133.138,"[0.06491517354315932,0.04644508750695537]",4.0,"[0.09035920422732624,0.003940486026496014]",100.0,"[-0.002527156573562478,-0.026464914854698915]",4.0,"[-0.009221174659381376,-0.17699261622959792]",4.0,"[-0.04390228481902122,0.1322699693439659]",100.0,"[0.03821625754950245,0.09903352831997402]",100.0,"[0.1724924437073286,-0.09842711613151246]",100.0,"[0.08668593973412538,0.10789832610382791]",4.0,"[0.08845090619285367,0.1482346739126091]",4.0,"[0.11333545153463767,-0.04439974016979499]",4.0,"[-0.011850343078483302,0.17941090561511988]",100.0,"[-0.11230727336653717,-0.06457744641758328]",100.0,"[0.0399039291668012,0.17605075922656865]",100.0,"[-0.008964644515890774,0.058651875876094585]",4.0,"[-0.13782773668665307,0.12713429911495858]",100.0,"[-0.039770807326948904,-0.008811073219386718]",100.0,"[-0.14064600087682574,0.022875154682974387]",4.0,"[-0.07122255821328202,-0.11249955257124025]",100.0,"[0.035647679609225755,-0.03872540532679827]",100.0,"[-0.13670072090990035,-0.11620014145768034]",100.0,"[0.16780421457951247,0.05682317189231299]",100.0,"[0.0036477102271008886,-0.1004787013647023]",4.0,"[-0.08057506844731299,-0.027297977343828123]",4.0,"[0.052171528580524075,-0.19000668140426472]",100.0,"[0.05410282397766081,-0.12146137741077351]",100.0,"[0.0974176479089835,-0.12793067939857283]",100.0,"[-0.05339109002925935,0.08929591025822861]",4.0,"[-0.0919629812004736,0.11252107256078572]",4.0,"[-0.163116590953184,-0.038018861419101095]",100.0,"[-0.1381460913460534,0.08707193767062393]",4.0,"[-0.10498486164340134,-0.16255506087187055]",4.0,"[0.14276171367026586,0.02455901987289745]",100.0,"[0.02,0.02]",134.2373,0.0,11.0,11.0,77.0,1.0,,,,,,,
,,,,,,,678d265eb819fdb2c5a362f9,6846a866269b30c6d305f7c5,2025-06-09_11h25.24.536,shape_ratio,2024.1.5,Win32,60.97560976,684250e4f00cb30b92d1fa88,,,,,,,,,,,134.2389,134.7375,,,134.9898,135.0388,left,,,,,,,,0.45,0.0341,,,,,,,134.7377,134.9898,135.0389,"[0.0753196332543229,-0.17689940878712954]",4.0,"[0.056853526390946936,-0.08000761006861325]",100.0,"[0.025752302931298487,0.17362149725857026]",100.0,"[-0.09584287096097065,0.07121263664659822]",100.0,"[-0.051295924933442275,0.033617579766990514]",100.0,"[0.1518429651957795,0.1063398094831095]",4.0,"[-0.0166213311888581,-0.0655150858252558]",4.0,"[0.08264576066850461,0.15876560922227176]",100.0,"[0.18091404766791047,0.014922280813977864]",4.0,"[0.015633369671022083,0.026118724620502312]",100.0,"[-0.16755156295610713,-0.04720630588163245]",4.0,"[0.15649989286420898,-0.09069812149344893]",4.0,"[0.14123471567617876,-0.0024924456404969986]",100.0,"[-0.18296247782296565,0.024540243059909133]",100.0,"[-0.05705456174939799,0.1159580700818189]",4.0,"[0.13547272116296155,0.04310913116081171]",4.0,"[0.11137293782629933,-0.07412615669181041]",4.0,"[-0.07402363648385436,-0.12986311283130017]",4.0,"[-0.12458532586372506,-0.08768798522509809]",4.0,"[0.01929996929073555,0.11276297093828132]",4.0,"[-0.07176806174084552,-0.057957989584387394]",100.0,"[-0.0464437938177898,-0.01327272062327222]",100.0,"[-0.134094792896658,0.04613709019337208]",4.0,"[0.10340474478085031,0.11807712876200056]",4.0,"[0.12260289642244511,-0.137156849838974]",100.0,"[-0.019021772734024864,-0.14663160449403187]",100.0,"[-0.09486143191388476,0.17110088454206301]",4.0,"[-0.14072771725543984,0.10389671596720829]",4.0,"[0.01973597893363526,-0.1847748064228029]",100.0,"[0.09695507759215254,0.014850504455671652]",4.0,"[-0.050790386173575626,-0.17984870843790818]",100.0,"[0.0861246742594447,-0.03898866061213389]",4.0,"[0.02,0.02]",136.1404,0.0,12.0,12.0,132.0,1.0,,,,,,,
,,,,,,,678d265eb819fdb2c5a362f9,6846a866269b30c6d305f7c5,2025-06-09_11h25.24.536,shape_ratio,2024.1.5,Win32,60.97560976,684250e4f00cb30b92d1fa88,,,,,,,,,,,136.1414,136.6398,,,136.8875,136.9876,right,,,,,,,,0.1,0.0899,,,,,,,136.6407,136.8874,136.9876,"[0.1174555121858679,-0.15984513321647512]",4.0,"[0.15901633565105008,-0.00489552695305058]",4.0,"[0.11157643368241131,0.04340007152028997]",4.0,"[0.11276239545041204,-0.015660849807589215]",4.0,"[-0.1851936633707674,-0.023775501125402013]",4.0,"[-0.11949767779054095,0.03129057273793412]",4.0,"[-0.07589237768247481,-0.05522002833974829]",4.0,"[-0.04899418745596929,0.12801375065596948]",4.0,"[-0.11671446628703157,-0.033592971873174414]",4.0,"[0.008542605804137642,0.17183619349838578]",4.0,"[0.058501702659923105,0.06509637261826876]",4.0,"[-0.08926033063805096,0.0037615571697773155]",100.0,"[-0.017740856823836342,-0.15697234954254144]",4.0,"[-0.10727571382536774,-0.1583113196387442]",4.0,"[0.15738684355464846,0.09160360258477686]",100.0,"[-0.17276495957782853,0.04353459930462965]",100.0,"[-0.019959958005955732,-0.02595971092272919]",4.0,"[0.08711443250230905,-0.07071367022010991]",4.0,"[-0.11913659675474536,0.09589504190039193]",4.0,"[0.06554919931931161,0.01220938656692302]",4.0,"[0.04105503964839367,-0.08073799408999859]",4.0,"[0.1533592981735774,-0.10089251028361179]",4.0,"[0.0200098628134861,0.006679788680077355]",4.0,"[0.1364054120399281,0.13715067574781997]",4.0,"[-0.06025696743950856,0.050205959472823684]",4.0,"[0.09938957944984483,0.17194424688208979]",4.0,"[-0.05102056364351724,-0.08935224900016064]",4.0,"[-0.11922310262122805,0.14130329893686605]",4.0,"[-0.1342461705041174,-0.1270062648210254]",4.0,"[-0.07297308455891122,0.17548881880587924]",4.0,"[0.1624234045392759,0.048918248607705335]",4.0,"[0.054905030702041634,-0.1535139782375488]",4.0,"[0.02,0.02]",138.0901,0.0,13.0,13.0,180.0,1.0,,,,,,,
,,,,,,,678d265eb819fdb2c5a362f9,6846a866269b30c6d305f7c5,2025-06-09_11h25.24.536,shape_ratio,2024.1.5,Win32,60.97560976,684250e4f00cb30b92d1fa88,,,,,,,,,,,138.0913,138.59,,,138.8408,139.3736,left,,,,,,,,0.9,0.5191,,,,,,,138.5903,138.8408,139.3738,"[0.13768369918876838,-0.12842865313513058]",100.0,"[-0.052054648376283964,0.008642893342769565]",100.0,"[0.05163326924376609,-0.09033561043115272]",100.0,"[-0.009230758733002106,-0.003664635842181219]",100.0,"[0.09981895773200483,-0.10746376168559534]",100.0,"[0.16831757630867425,-0.07805672661418084]",100.0,"[-0.1183405150616924,0.00860805521969076]",100.0,"[-0.15641541413336524,0.04866209471735067]",100.0,"[-0.15167105930515618,-0.07151552292012693]",100.0,"[0.09064592392235175,0.038688620995391644]",100.0,"[-0.0007873078928861903,-0.04520831239546521]",100.0,"[-0.08492574901383658,-0.09989934981533134]",100.0,"[0.053731879426936316,0.1716922873511931]",100.0,"[0.039998923122555645,0.12248154045180519]",100.0,"[-0.09763374309268602,-0.14404666628057794]",100.0,"[0.015606226162657914,-0.18431532199597592]",100.0,"[-0.050783888607898425,0.18982195178294167]",100.0,"[-0.027084846107058233,-0.11472984856628642]",4.0,"[0.16737262246849974,0.0891240961311329]",100.0,"[-0.023579998481609146,-0.17023906976687928]",100.0,"[-0.16361939346285057,-0.11459985548074234]",100.0,"[0.1394437237463338,-0.026380087912809817]",100.0,"[-0.0482695024081295,0.14131195311234618]",100.0,"[0.06949280196738997,-0.015363793497615876]",100.0,"[0.029922814602954557,0.018050744646555823]",100.0,"[-0.0968411766908638,-0.05079718796868545]",4.0,"[-0.056162641685008105,-0.04629906135765396]",100.0,"[0.03594828406156703,0.06303456154883877]",4.0,"[-0.036181435161851724,0.08849636134600748]",100.0,"[0.13083231388960526,0.03842561825993645]",100.0,"[0.04343739319724567,-0.14505632392626536]",100.0,"[-0.09968635189381586,0.113257196837452]",100.0,"[0.02,0.02]",140.4733,0.0,14.0,14.0,18.0,1.0,,,,,,,
,,,,,,,678d265eb819fdb2c5a362f9,6846a866269b30c6d305f7c5,2025-06-09_11h25.24.536,shape_ratio,2024.1.5,Win32,60.97560976,684250e4f00cb30b92d1fa88,,,,,,,,,,,140.4744,140.973,,,141.2223,141.7233,left,,,,,,,,0.6,0.4879,,,,,,,140.9735,141.2223,141.7237,"[-0.08723914775608432,0.12638670146464182]",4.0,"[-0.04584489990259053,-0.011708127667213065]",4.0,"[-0.09192346418604211,0.04023291829602499]",4.0,"[0.0685767452995872,0.06419933834979911]",100.0,"[-0.06499539676033805,-0.12080741689498405]",4.0,"[0.02441634205926977,-0.15823922336250282]",4.0,"[-0.09424051351030413,0.16644977551459494]",100.0,"[-0.13756099796158916,-0.10524440769668653]",100.0,"[0.003825586014243253,0.0020279624443596232]",100.0,"[-0.18033236274719525,0.042742133021890914]",4.0,"[-0.0062505726951915105,0.05938172904788081]",100.0,"[0.17443074619248033,0.06165529071432136]",100.0,"[0.08860807603865607,-0.010477889491720654]",100.0,"[0.12943757608943912,-0.0742243005162164]",100.0,"[-0.03095415681763715,0.14921442619650177]",100.0,"[-0.06895289229892208,-0.16947774211731875]",4.0,"[0.18790920687171433,0.011073469989466388]",4.0,"[-0.13237400842041777,0.14224203853821848]",100.0,"[0.1528297359193744,-0.024338762733156223]",4.0,"[0.12184266572447963,0.13573609879221618]",100.0,"[-0.036837744229211676,-0.08283620923836137]",100.0,"[0.08029074218788189,0.1763617898077545]",100.0,"[0.06820974211003665,0.10455088612385353]",100.0,"[-0.010193392468993272,-0.1947146663090478]",100.0,"[0.119198459230703,0.03762361054577241]",100.0,"[0.05116573059934406,0.006419824905679558]",4.0,"[0.06376329788207835,-0.13062261367379768]",100.0,"[0.0801691987410534,-0.07336190982315782]",100.0,"[0.1460657275749889,0.1009828758396632]",4.0,"[-0.00485724778400118,-0.05406867654521946]",4.0,"[0.03330119196237658,-0.1012344028677151]",4.0,"[-0.11127064738393407,-0.05622816285157131]",100.0,"[0.02,0.02]",142.8223,0.0,15.0,15.0,32.0,1.0,,,,,,,
,,,,,,,678d265eb819fdb2c5a362f9,6846a866269b30c6d305f7c5,2025-06-09_11h25.24.536,shape_ratio,2024.1.5,Win32,60.97560976,684250e4f00cb30b92d1fa88,,,,,,,,,,,142.824,143.3231,,,143.5713,144.1702,right,,,,,,,,0.1,0.5854,,,,,,,143.3232,143.571,144.1704,"[-0.022150816979663982,0.1265247070257014]",4.0,"[-0.0665810333820084,-0.09003357796687284]",4.0,"[0.1643674065325866,-0.03362888293885969]",100.0,"[-0.11254421335862178,0.08276214762317081]",100.0,"[0.02455538767448533,-0.0918669939414742]",4.0,"[0.11981624190651441,-0.0528430640992821]",4.0,"[-0.036660848673744195,0.018406044583186083]",4.0,"[0.05513357164486124,0.16098745111637683]",4.0,"[0.07958765219146569,-0.033893868520829755]",4.0,"[0.01517382822660565,0.011987651498675492]",4.0,"[-0.1568284773882311,0.05648915571740618]",4.0,"[-0.1471792248004198,-0.03814264244105835]",4.0,"[0.01311975291004781,0.06622642591996414]",4.0,"[-0.0827032526944439,-0.017451958150587508]",4.0,"[-0.09571531609872867,-0.14028480111983044]",4.0,"[-0.18395528613826173,-0.05769148864634004]",100.0,"[0.008065900924675549,0.155633681931583]",4.0,"[0.10217256875505423,0.17181244621016054]",4.0,"[0.045039931795370164,0.11886308988320149]",4.0,"[0.13953189601518273,0.050184208643185395]",4.0,"[0.0833165464991638,-0.17743198398792775]",4.0,"[-0.04322011510123232,0.06869406079414526]",4.0,"[-0.02012997268491347,-0.10093529627847432]",4.0,"[-0.0758449709584733,0.033701568374947095]",4.0,"[0.1007865996266473,0.08300249674791751]",4.0,"[-0.09424269368196206,0.17007208250243624]",4.0,"[0.18767667826480008,0.02428681625072887]",4.0,"[-0.04268248711300295,0.19498976427069636]",4.0,"[-0.12903462340098984,-0.11494125879107556]",4.0,"[0.0591233287556607,-0.11710447409450937]",4.0,"[-0.1330285427004808,0.13531385007135055]",4.0,"[0.01248942058674818,-0.1589184602844832]",4.0,"[0.02,0.02]",145.2732,0.0,16.0,16.0,181.0,1.0,,,,,,,
,,,,,,,678d265eb819fdb2c5a362f9,6846a866269b30c6d305f7c5,2025-06-09_11h25.24.536,shape_ratio,2024.1.5,Win32,60.97560976,684250e4f00cb30b92d1fa88,,,,,,,,,,,145.2743,145.7768,,,146.0202,146.5868,left,,,,,,,,0.9,0.5531,,,,,,,145.7769,146.0201,146.5869,"[0.07895310925632364,0.180919445191598]",4.0,"[0.0470904339174473,0.01624216244836737]",100.0,"[-0.09661906351925702,0.17493721718491345]",100.0,"[-0.03208387139902276,0.16621341285887256]",100.0,"[0.03541948032117425,-0.09499560779646936]",100.0,"[-0.13003521589830044,-0.12396323480594323]",100.0,"[0.04765751816803481,0.1353081963142065]",100.0,"[0.081773247719014,-0.07731556533621359]",100.0,"[-0.1880155090028597,-0.0542865665861148]",100.0,"[0.10183413215825739,-0.16733722741452778]",100.0,"[0.11763764277356407,-0.10510682610051221]",100.0,"[0.17748735800664708,-0.005807606361307157]",100.0,"[-0.03378210280406563,-0.1732624244145847]",100.0,"[-0.0011673793930729094,0.07541084806149458]",100.0,"[0.004482758343762644,0.0004584294311189989]",100.0,"[-0.000020586055139791275,0.1418399533878509]",100.0,"[-0.03999466163568349,-0.021118154572677853]",100.0,"[-0.17915715382233136,-0.011177623028214744]",100.0,"[-0.12536912966882063,0.0821178886127469]",100.0,"[0.09270892986520259,0.13761831900253196]",4.0,"[-0.1203645867606422,0.015950255337011016]",100.0,"[0.04416562181349323,-0.18453439630753687]",100.0,"[-0.059411737794998414,-0.1284332711935383]",100.0,"[0.12018967063383461,0.04412674131468539]",100.0,"[0.04488995775011565,-0.14062549488784418]",4.0,"[0.11833841485867827,-0.04116368439905837]",100.0,"[-0.07922673855874979,0.0471357173613989]",100.0,"[0.18762691398585535,0.033439345547403354]",100.0,"[-0.09625036586005928,-0.03372324900439347]",100.0,"[0.08609025504639249,0.006541241404782759]",100.0,"[0.18297723200273402,-0.048979612493974235]",100.0,"[-0.08437309118601193,-0.1603026180763337]",100.0,"[0.02,0.02]",147.687,0.0,17.0,17.0,15.0,1.0,,,,,,,
,,,,,,,678d265eb819fdb2c5a362f9,6846a866269b30c6d305f7c5,2025-06-09_11h25.24.536,shape_ratio,2024.1.5,Win32,60.97560976,684250e4f00cb30b92d1fa88,,,,,,,,,,,147.6884,148.1865,,,148.4374,148.8028,right,,,,,,,,0.55,0.3518,,,,,,,148.1866,148.4374,148.8028,"[0.07560288708063553,-0.14150112271374193]",4.0,"[0.12354709392001856,0.12015398583068146]",100.0,"[-0.08924679009608737,0.12121111323841709]",4.0,"[0.1794401966642215,0.024947362892933388]",100.0,"[0.0034139827611016304,0.06419249636556265]",100.0,"[-0.13492848857901854,-0.08739118941111193]",100.0,"[0.032669883979806094,-0.05527721827149993]",4.0,"[-0.05169683037820697,0.04082918337840785]",4.0,"[0.14373654239045727,-0.12053665446539626]",100.0,"[-0.06339637301109187,-0.033253046603759974]",100.0,"[-0.09013215869882603,-0.0031180666076998202]",4.0,"[0.11937029313696564,-0.04255754136133852]",4.0,"[-0.1362604876026619,0.05375113757323261]",100.0,"[0.06539411652786523,0.00036120730577897354]",100.0,"[-0.10306239547581349,-0.16096229918033148]",100.0,"[-0.008050612767916928,-0.03847923596075336]",4.0,"[0.07116863874913935,0.09683052465425918]",100.0,"[-0.07967246052882025,0.07249708757461272]",4.0,"[-0.14973995378868288,0.11947192080908853]",100.0,"[0.11831105731658717,0.026498269472990922]",100.0,"[-0.17672550706115936,0.01584588330651475]",4.0,"[-0.1346937119886556,-0.0005894871258978052]",100.0,"[0.008981128672190771,-0.19458817421103078]",4.0,"[-0.1757702639642892,0.08713661759117768]",4.0,"[0.1192505918483864,-0.15964374574177348]",100.0,"[0.0844865166063199,0.17464742174391137]",100.0,"[0.02883840060424941,-0.12419048174122052]",100.0,"[0.18483842197337963,-0.06826295789329383]",100.0,"[0.011748334133550946,0.006053969288066219]",4.0,"[-0.04045220800982139,0.12159507890266162]",4.0,"[-0.050689707903440684,-0.16828073170187668]",4.0,"[0.17683798929835493,0.08837691214654377]",100.0,"[0.02,0.02]",149.903,0.0,18.0,18.0,71.0,1.0,,,,,,,
,,,,,,,678d265eb819fdb2c5a362f9,6846a866269b30c6d305f7c5,2025-06-09_11h25.24.536,shape_ratio,2024.1.5,Win32,60.97560976,684250e4f00cb30b92d1fa88,,,,,,,,,,,149.9045,150.4031,,,150.6542,151.1554,left,,,,,,,,0.4,0.4866,,,,,,,150.4031,150.6542,151.1558,"[-0.15025078644635953,0.07808484656437109]",4.0,"[0.11298780087033554,-0.0020651146361025338]",100.0,"[0.03334302110208131,-0.03617760615474176]",100.0,"[0.0965634601194665,0.09784888128982991]",100.0,"[-0.11586158649700419,-0.04358001604765555]",4.0,"[-0.03656501045188441,0.1707773422202068]",4.0,"[-0.042359799645499324,0.010624722967462889]",4.0,"[-0.08853580185937662,0.13677777950781236]",100.0,"[0.08757790971324662,-0.06369791083221608]",100.0,"[-0.03639418625639328,-0.11125377608854407]",100.0,"[0.04406203140295404,-0.1071458517118853]",100.0,"[-0.11986960517888345,-0.12308842406348887]",100.0,"[0.026603044034393668,0.07250949195761369]",4.0,"[-0.015523517386128036,0.12095153728150906]",4.0,"[-0.07861679959472434,-0.07460761871952575]",100.0,"[0.002853855993890969,-0.072669208291488]",4.0,"[-0.16328033333874764,-0.08666588804437761]",4.0,"[0.13447205003997453,-0.13079415896294072]",4.0,"[0.09377573547461829,0.14453737061094182]",100.0,"[0.18461606998247448,-0.003967165789439476]",100.0,"[0.06842906200113319,-0.1829985485786305]",100.0,"[0.08521793286287675,-0.120396607221397]",100.0,"[-0.08880787851602592,0.03546002115565111]",4.0,"[-0.009140276759818664,-0.16724995549469188]",4.0,"[0.12960072219834276,-0.0635711676840991]",4.0,"[-0.0734162902336914,-0.13363334764568433]",4.0,"[-0.0844922558250906,-0.01767647671496154]",4.0,"[0.025942716554645216,0.0052808080049027714]",4.0,"[-0.129085270688553,0.11969656152083562]",4.0,"[0.02192656051737414,0.15159483209411218]",4.0,"[0.15955478366968634,0.11095073006334866]",4.0,"[-0.09095086058361451,-0.17412776736088292]",4.0,"[0.02,0.02]",152.2556,0.0,19.0,19.0,156.0,1.0,,,,,,,
,,,,,,,678d265eb819fdb2c5a362f9,6846a866269b30c6d305f7c5,2025-06-09_11h25.24.536,shape_ratio,2024.1.5,Win32,60.97560976,684250e4f00cb30b92d1fa88,,,,,,,,,,,152.2566,152.7545,,,153.0031,153.4874,right,,,,,,,,0.5,0.4723,,,,,,,152.7552,153.003,153.4875,"[-0.14030558589443226,-0.062244851088171]",100.0,"[-0.10891691200083449,0.03438305860146915]",4.0,"[0.08778306080266936,-0.07862441961929]",100.0,"[-0.059676046187792965,-0.18300758033920006]",4.0,"[0.05451064921552147,-0.006384461883253577]",100.0,"[-0.11714489221300263,0.12776326607910746]",100.0,"[0.031898202544585925,0.13345801625380008]",100.0,"[-0.008827382107881705,0.03856777166348225]",4.0,"[0.12498187286833423,-0.14124763730883014]",4.0,"[0.09761790496058562,-0.018538015283243673]",100.0,"[0.1560184199438076,0.11175345229758234]",4.0,"[0.15490333549611063,-0.05779224948413076]",100.0,"[-0.023262625333241277,0.10124161370433635]",4.0,"[-0.16855048267912334,0.06872683425541679]",4.0,"[-0.010374792818917863,-0.12700950504812364]",4.0,"[-0.08266205539623248,-0.09679190850569912]",100.0,"[0.08726087844134581,0.10645477643408048]",100.0,"[0.162949987783097,-0.011811316224199446]",4.0,"[-0.09951109936061393,-0.1664113251500636]",100.0,"[0.022117952542833604,-0.10219869943907288]",100.0,"[-0.028080485979053268,-0.05148267210719771]",4.0,"[-0.1468565508913275,0.020182451083408562]",4.0,"[0.023169699381111637,-0.18380968218548072]",100.0,"[0.08688931746825368,0.02170832715290864]",4.0,"[-0.05817938893934095,0.004200079158709076]",4.0,"[0.1847128821274448,0.06390041105012871]",100.0,"[-0.03528263776551881,0.15716703795375686]",100.0,"[-0.1659247071148513,-0.09935183434353602]",4.0,"[0.07384463648107253,0.159622800891203]",100.0,"[0.04407009342034196,0.05052716535061149]",4.0,"[0.07301577990896788,-0.12425281718632819]",4.0,"[-0.09004108657763502,-0.046216212491255196]",100.0,"[0.02,0.02]",154.5862,0.0,20.0,20.0,103.0,1.0,,,,,,,
,,,,,,,678d265eb819fdb2c5a362f9,6846a866269b30c6d305f7c5,2025-06-09_11h25.24.536,shape_ratio,2024.1.5,Win32,60.97560976,684250e4f00cb30b92d1fa88,,,,,,,,,,,154.5883,155.0887,,,155.3383,155.7561,left,,,,,,,,0.55,0.4059,,,,,,,155.0891,155.3383,155.7562,"[-0.05582747573401623,0.14038108633950344]",4.0,"[0.043835298210562014,-0.155266400705578]",4.0,"[0.10592677975102219,-0.05497259524042035]",4.0,"[0.14588138168449066,-0.059852121221103935]",100.0,"[-0.029268653302893348,-0.08508874684069735]",4.0,"[-0.0871501926357428,0.008818314234138345]",100.0,"[-0.043114681558538454,-0.1266343317596175]",100.0,"[0.0759216939476372,0.17233910056403107]",4.0,"[0.18346607036742452,-0.037052893798307215]",100.0,"[-0.14644852503728187,0.0209590380527579]",100.0,"[0.12486437446248509,-0.14193822618762572]",100.0,"[0.01587506553132098,0.09270281349808235]",4.0,"[-0.04579222194161123,0.045655760002784325]",4.0,"[-0.12724067593302846,-0.01545118552576802]",100.0,"[-0.1556329492776218,0.11610008372541748]",100.0,"[0.037104309721175475,-0.07751158623652743]",100.0,"[0.001496224294426898,-0.1810614474668337]",4.0,"[0.09363862038267377,0.0166352940700124]",4.0,"[-0.025652082404039732,-0.015934339134620185]",4.0,"[0.07597751424216267,0.06477958947749723]",100.0,"[0.03492812508317422,0.12798573514383127]",100.0,"[-0.1560559935689435,0.07107244985465418]",4.0,"[-0.08536674211382637,-0.07197484480877755]",4.0,"[0.029796792311439387,0.04147436472216343]",4.0,"[-0.18813756384780897,0.02207843196522319]",100.0,"[0.1744794714107631,0.012029521081726651]",100.0,"[-0.01995809744989821,0.18124858882621306]",4.0,"[-0.15399246274263398,-0.05927645711970228]",100.0,"[0.13530313885186174,0.12544916873013323]",100.0,"[0.03758441490598257,-0.03659853712741675]",100.0,"[0.115480612894416,0.08084986814164447]",100.0,"[0.07816322318942183,-0.02588305439915881]",100.0,"[0.02,0.02]",156.854,0.0,21.0,21.0,74.0,1.0,,,,,,,
,,,,,,,678d265eb819fdb2c5a362f9,6846a866269b30c6d305f7c5,2025-06-09_11h25.24.536,shape_ratio,2024.1.5,Win32,60.97560976,684250e4f00cb30b92d1fa88,,,,,,,,,,,156.8555,157.3552,,,157.6048,158.1393,left,,,,,,,,0.5,0.5199,,,,,,,157.3552,157.6047,158.1393,"[-0.14325998113873928,0.13081968426623802]",4.0,"[0.014512513506468488,-0.10121242508547676]",4.0,"[-0.004992880497532477,-0.06286577555566517]",100.0,"[-0.05913465146272734,0.08455577359353202]",4.0,"[0.09685112059373704,0.15101358920547467]",100.0,"[-0.1452048893750201,-0.0347898040480046]",4.0,"[0.10338953196715431,-0.1177305917720745]",100.0,"[0.10501047201716485,-0.07540108798340016]",4.0,"[-0.017861592916110596,-0.1813427989208245]",100.0,"[-0.007310779486405236,0.023240512526235848]",100.0,"[0.12560226592505053,0.11873190473467041]",4.0,"[0.06621538317093559,-0.17553119133716827]",100.0,"[0.05537066698162885,0.03175135315533433]",4.0,"[-0.05509632250582478,-0.1533874782448239]",4.0,"[0.04753768216211611,0.1268730868940145]",4.0,"[0.061519381495174455,-0.02008920224000394]",4.0,"[-0.11279367373079274,-0.11464460992902976]",4.0,"[-0.09859244015327925,-0.048079962855668686]",4.0,"[0.18350929266243485,-0.04850909244914325]",100.0,"[-0.06088629030897552,-0.0256154923683982]",100.0,"[0.01889759904483236,0.16731727586932785]",4.0,"[0.03803000036520368,-0.05296312189391823]",4.0,"[-0.17063969490712375,0.03606415116753604]",100.0,"[0.12575074757119453,0.05017652246691845]",100.0,"[-0.058082657955527535,0.15530627794544033]",100.0,"[0.17929101739730588,-0.0077301974142048886]",100.0,"[-0.036070064267544645,-0.1146301860000515]",4.0,"[-0.08872693877083918,0.012989051846852161]",100.0,"[-0.0008154186272632191,0.09773675684505032]",100.0,"[-0.12657292225316824,0.047595601881563615]",100.0,"[-0.010087778063741306,0.1975037201034964]",100.0,"[0.05921410878745914,-0.09798194129729099]",4.0,"[0.02,0.02]",159.2386,0.0,22.0,22.0,112.0,1.0,,,,,,,
,,,,,,,678d265eb819fdb2c5a362f9,6846a866269b30c6d305f7c5,2025-06-09_11h25.24.536,shape_ratio,2024.1.5,Win32,60.97560976,684250e4f00cb30b92d1fa88,,,,,,,,,,,159.2399,159.7368,,,159.9883,160.5197,right,,,,,,,,0.4,0.5257,,,,,,,159.7369,159.9882,160.5197,"[0.076084863769971,-0.1480495769373952]",4.0,"[0.17184534570729534,0.05910415207897589]",100.0,"[0.08351002410737908,-0.07101935148699737]",4.0,"[0.007966170326687297,0.17083928358358172]",100.0,"[-0.1207842422693346,0.08799941665718525]",100.0,"[-0.00890262463153332,0.06450366751936691]",4.0,"[-0.14337793853342184,0.04522552145085271]",100.0,"[-0.006474218447674353,-0.000664384840447841]",4.0,"[-0.12344753922481039,-0.04788200403813566]",4.0,"[0.15966485522465249,-0.014219277556638262]",100.0,"[-0.05253363356511851,-0.13250653161600803]",4.0,"[-0.11783300203354181,-0.13976036722205223]",100.0,"[0.03721630521636438,-0.11184139750695954]",4.0,"[0.061894683031027645,0.010397692032794965]",4.0,"[-0.08587897391227171,0.14414311458691936]",4.0,"[0.07600825831645101,0.13599748221861008]",100.0,"[0.09936694137983475,-0.11317458793087402]",4.0,"[0.15147553564569408,0.11010722489323475]",4.0,"[0.025059082636479737,-0.06357296737369812]",100.0,"[-0.04265844147392061,-0.02405246496051775]",4.0,"[0.11571056814093729,0.07709725868436329]",100.0,"[-0.017324042685255146,0.13963123911055117]",4.0,"[-0.0890331604355881,-0.0985614972556353]",100.0,"[0.13168271734967452,-0.05171121999553309]",100.0,"[-0.04225892999382379,-0.07165995615480776]",100.0,"[-0.04870302853074292,0.01641092954207768]",4.0,"[-0.049041331708396266,0.1151362976161188]",4.0,"[0.1370799188748587,-0.09738892699363444]",100.0,"[0.024757546047819025,-0.19702349219042226]",4.0,"[-0.00576082104518793,-0.09697686804100639]",4.0,"[0.008971379669420418,-0.14384408611069197]",4.0,"[0.05162153204396394,0.08980463247151067]",4.0,"[0.02,0.02]",161.6219,0.0,23.0,23.0,178.0,1.0,,,,,,,
,,,,,,,678d265eb819fdb2c5a362f9,6846a866269b30c6d305f7c5,2025-06-09_11h25.24.536,shape_ratio,2024.1.5,Win32,60.97560976,684250e4f00cb30b92d1fa88,,,,,,,,,,,161.6232,162.1219,,,162.3702,162.7727,left,,,,,,,,0.5,0.3859,,,,,,,162.1222,162.3701,162.7727,"[0.0037481309092385973,-0.05505028920005553]",100.0,"[-0.18052242796938264,-0.03343014038188409]",100.0,"[-0.15649567812210918,0.03806317833012972]",4.0,"[-0.08429124332163408,-0.1241593129132845]",100.0,"[-0.0755486459796754,0.050071187586527365]",4.0,"[0.10481493348099506,0.037107131655713735]",4.0,"[0.04324907662259848,-0.0420529366786699]",100.0,"[-0.07981012918606199,-0.08116370716384286]",100.0,"[-0.007421953751255352,0.08334969827486828]",4.0,"[-0.02598785434200029,-0.13601819031632478]",4.0,"[-0.03449949907988908,0.15457352751465128]",4.0,"[0.04264404824595862,0.1455731188954951]",4.0,"[0.1408289860106865,-0.04532944672307476]",4.0,"[0.06138300426396315,-0.12122253766446302]",100.0,"[0.11078181999443591,-0.10832956124695799]",100.0,"[-0.11500585603345052,-0.058369774097315905]",100.0,"[-0.12458992978605472,0.010776976516676801]",4.0,"[0.04521861942897293,0.08494186799333285]",100.0,"[0.09285707118301172,0.14538932885774933]",100.0,"[0.03522547835158424,-0.15566215528356228]",100.0,"[-0.04143684246968527,-0.007526343265360397]",100.0,"[0.010694182886860784,-0.11351624367782184]",100.0,"[0.0656847050931474,0.1829216504010994]",4.0,"[0.16025469959541422,0.018949296640769567]",4.0,"[0.09052578694763531,-0.16702595514731797]",4.0,"[0.13571613338025998,0.14405485357941625]",4.0,"[0.15025370187478426,0.07945172748637815]",4.0,"[-0.14947295348793949,0.10472102647285404]",100.0,"[-0.010863775058752629,-0.17525763744583428]",100.0,"[0.051441944402835275,0.03993680612233746]",4.0,"[-0.12489056774344955,-0.15122991848881406]",4.0,"[0.014686528891235182,0.009072651086974826]",100.0,"[0.02,0.02]",163.8689,0.0,24.0,24.0,117.0,1.0,,,,,,,
,,,,,,,678d265eb819fdb2c5a362f9,6846a866269b30c6d305f7c5,2025-06-09_11h25.24.536,shape_ratio,2024.1.5,Win32,60.97560976,684250e4f00cb30b92d1fa88,,,,,,,,,,,163.8706,164.3693,,,164.6213,165.3228,right,,,,,,,,0.55,0.6875,,,,,,,164.3695,164.6212,165.3228,"[-0.15471274153667672,-0.06278122221061291]",4.0,"[-0.007833150958438314,-0.19632943305784376]",100.0,"[-0.02861955527756031,-0.1512874661797206]",100.0,"[0.09504617120148699,0.02045463916178733]",100.0,"[0.025591014304041416,-0.12038456810046952]",100.0,"[0.17556343199503602,-0.08521431703801229]",100.0,"[0.14469517135173182,0.0006515827069935497]",4.0,"[0.015214795886682168,0.0320059014129032]",4.0,"[0.08898104298266797,-0.17874043648919813]",4.0,"[-0.0776652373945187,-0.163333824607262]",100.0,"[-0.0997819273292571,0.08367729563847474]",100.0,"[0.013263951858262126,-0.07009714904441325]",100.0,"[-0.11273582215622797,-0.14328182197723377]",4.0,"[0.07088942076648314,-0.11623879081803022]",100.0,"[0.16658250723791382,0.07866754782681916]",100.0,"[0.04861393842229386,0.1450841566730757]",100.0,"[0.12763208981149152,-0.06847868822892961]",100.0,"[-0.10528829610325605,0.02975771247812699]",4.0,"[-0.09320799824899456,-0.07259841635257497]",4.0,"[-0.12997440375846403,-0.024150018919036124]",4.0,"[0.11256547594952707,-0.026939800012453254]",4.0,"[-0.18240763007674637,0.020117797537564694]",4.0,"[-0.15900628770545427,0.07711520618068293]",100.0,"[-0.046958208334304356,0.00004438708024135869]",4.0,"[0.11844739362913684,0.10813494577291484]",100.0,"[-0.06242597391766413,0.06509969708268935]",100.0,"[-0.07699983532040326,-0.1142616821885486]",100.0,"[-0.13686935643789402,0.1148746715272597]",4.0,"[-0.03509999787107733,0.1753665381936432]",100.0,"[0.06839437958313206,-0.033431930919311084]",4.0,"[-0.1028857362027228,0.15285472018341292]",100.0,"[0.0428058057504334,-0.1795850874013319]",4.0,"[0.02,0.02]",166.42,0.0,25.0,25.0,88.0,1.0,,,,,,,
,,,,,,,678d265eb819fdb2c5a362f9,6846a866269b30c6d305f7c5,2025-06-09_11h25.24.536,shape_ratio,2024.1.5,Win32,60.97560976,684250e4f00cb30b92d1fa88,,,,,,,,,,,166.4216,166.9215,,,167.17,167.4866,left,,,,,,,,0.55,0.3024,,,,,,,166.9216,167.1699,167.4866,"[0.08268814658169271,-0.16367970225761336]",100.0,"[0.14431450309304195,-0.0882299822864413]",100.0,"[0.031296358030312506,0.1405218089501697]",4.0,"[0.015224756654644145,0.06644958527605754]",100.0,"[-0.0954937751655457,-0.10927847732682083]",100.0,"[0.060027363876526865,-0.1113177169018535]",4.0,"[0.06092736880340718,0.057896755554537015]",100.0,"[-0.060346609507362876,0.13568530516562372]",4.0,"[-0.13714701613493466,0.003202383989284897]",100.0,"[0.17145792885262473,0.0878333667818427]",100.0,"[0.1402883353419775,0.002342765346101261]",100.0,"[-0.11212528730743221,0.12384517379247602]",4.0,"[0.054829259936609975,-0.030083127522756617]",100.0,"[0.1174472843352532,-0.13622438115682348]",100.0,"[-0.05786066932980291,-0.013534203136688586]",4.0,"[-0.027647602798549647,0.1084389137992648]",4.0,"[-0.19653457478444553,0.0195506886064826]",100.0,"[0.024369551944078003,-0.14688820901405233]",4.0,"[-0.05499113051647354,-0.14428285338302435]",4.0,"[-0.16326895079355144,-0.08546342826712373]",100.0,"[-0.11883614125059186,-0.034809763312205616]",100.0,"[0.07816639656001288,-0.06394653312375821]",4.0,"[-0.011331522717761548,-0.019355964405278366]",100.0,"[-0.05402090948796804,-0.08200824551072264]",4.0,"[0.06113578297800128,0.1885369714788829]",100.0,"[-0.07701851377282384,0.1790206621422661]",100.0,"[-0.008874233095945053,0.1478448782752678]",4.0,"[-0.012200692721933267,-0.11727293231755391]",4.0,"[-0.042418419275275523,-0.18636903499919868]",100.0,"[-0.17706306125153062,-0.01706873612330313]",100.0,"[-0.02077708659966972,0.03540471685057309]",4.0,"[-0.03136902853107105,0.19533997337937983]",4.0,"[0.02,0.02]",168.5857,0.0,26.0,26.0,73.0,1.0,,,,,,,
,,,,,,,678d265eb819fdb2c5a362f9,6846a866269b30c6d305f7c5,2025-06-09_11h25.24.536,shape_ratio,2024.1.5,Win32,60.97560976,684250e4f00cb30b92d1fa88,,,,,,,,,,,168.5876,169.0884,,,169.3365,169.6197,right,,,,,,,,0.55,0.2742,,,,,,,169.0884,169.3363,169.6197,"[-0.06291755443785944,0.17284059980143485]",100.0,"[0.1689319356389403,-0.10345331090172927]",4.0,"[0.06911461617072649,0.17035383228476114]",100.0,"[-0.0078048690243389205,-0.01621974583898698]",4.0,"[-0.03402676182623743,0.12519893463951887]",100.0,"[0.007331374812736936,-0.1794962778491917]",100.0,"[-0.03560701182159716,-0.14412540913695462]",4.0,"[0.07250519744767735,0.059283555077979264]",100.0,"[-0.10670970507360437,0.11210426860412924]",4.0,"[0.11858040408410205,0.15195181107023353]",100.0,"[-0.07760471134528006,-0.17685735876006262]",100.0,"[-0.07548073566231649,-0.11544204087651838]",4.0,"[0.005110137034957786,-0.09933319785235359]",4.0,"[0.12421337353564085,-0.04039025653373783]",100.0,"[-0.026590951515431237,0.07676938352455477]",100.0,"[0.07718893671217265,-0.17226099674447581]",100.0,"[0.11187439518284067,-0.13598689197238595]",4.0,"[0.15233373746762466,0.011883674761028633]",100.0,"[-0.14394034530320193,-0.00607511441207778]",4.0,"[-0.11537470422821562,-0.15563458093872198]",4.0,"[0.15081764230219666,0.08458612789525961]",100.0,"[0.032406825127304084,-0.01886541825331632]",100.0,"[-0.11471080644585153,-0.03680726057418221]",100.0,"[0.11119455138514889,0.018797610867551592]",4.0,"[0.005755727211600926,0.18601507925785643]",100.0,"[0.19621050100951506,0.025931133141918312]",4.0,"[0.1869101166152803,-0.06707955945894889]",4.0,"[-0.19145537331496998,0.008520387884814889]",4.0,"[-0.055246398938948366,0.03884166644156302]",100.0,"[-0.072647536686716,-0.050153963123298985]",100.0,"[-0.0010268457269732583,-0.059450529991399416]",100.0,"[0.020453199590497375,0.06689784031398482]",4.0,"[0.02,0.02]",170.7196,0.0,27.0,27.0,64.0,1.0,,,,,,,
,,,,,,,678d265eb819fdb2c5a362f9,6846a866269b30c6d305f7c5,2025-06-09_11h25.24.536,shape_ratio,2024.1.5,Win32,60.97560976,684250e4f00cb30b92d1fa88,,,,,,,,,,,170.7207,171.2195,,,171.4696,171.8521,left,,,,,,,,0.9,0.3654,,,,,,,171.2195,171.4696,171.8521,"[0.17916783371524733,-0.056800754683330325]",100.0,"[-0.13871107369166288,0.05202463697986993]",100.0,"[0.0848472166121163,0.1258294279505932]",4.0,"[-0.14887245599282892,-0.08240555924116502]",100.0,"[0.15502493772008086,0.12499635230629641]",100.0,"[-0.04181910697143048,0.04490266574212877]",100.0,"[0.0056008809223361215,0.1009107669466996]",100.0,"[-0.050594261711253176,0.14279433946782974]",100.0,"[-0.09681498556130078,-0.15155694443870216]",100.0,"[0.08632128926584043,-0.14281566877165233]",100.0,"[0.0065863511447606556,0.15980424603594381]",100.0,"[0.016882958650678206,-0.1432398171967831]",100.0,"[-0.07838365722763546,-0.08057576758406183]",100.0,"[-0.023742637728434185,-0.18907786921239644]",100.0,"[0.05113067177718178,0.08315721911333299]",100.0,"[0.18919792306373473,0.030911725079781776]",100.0,"[0.03794198431478397,-0.09490482818882293]",100.0,"[0.009007077247703226,0.04825385255661389]",100.0,"[-0.01958471221859452,0.011633528470800658]",100.0,"[-0.11309634831988492,-0.04988572454101404]",100.0,"[0.1455543114873652,-0.09035204613422426]",100.0,"[0.15773498677054865,-0.0006744105558751928]",100.0,"[0.06372299959082019,0.03260836446965493]",4.0,"[-0.054648828561214634,-0.013890891302214645]",100.0,"[0.03552841477443597,0.18764030447138438]",100.0,"[-0.020929536755480135,-0.062493838346117006]",100.0,"[-0.11703174438395528,0.14058596065613704]",100.0,"[-0.03907126721746073,0.09087861666201563]",100.0,"[0.04165754029284987,-0.17500536897237975]",100.0,"[0.030091503755272815,-0.02120870064988971]",4.0,"[-0.022281698561858836,-0.12494678124461413]",100.0,"[0.10477765191716765,0.036077566232211596]",100.0,"[0.02,0.02]",172.9516,0.0,28.0,28.0,13.0,1.0,,,,,,,
,,,,,,,678d265eb819fdb2c5a362f9,6846a866269b30c6d305f7c5,2025-06-09_11h25.24.536,shape_ratio,2024.1.5,Win32,60.97560976,684250e4f00cb30b92d1fa88,,,,,,,,,,,172.9525,173.4514,,,173.7017,174.1348,right,,,,,,,,0.45,0.419,,,,,,,173.4515,173.7017,174.1349,"[-0.06507223172776087,-0.12982224042498744]",4.0,"[-0.16685902342746264,-0.020436180689130754]",100.0,"[0.0324030310874679,0.03043864128243429]",100.0,"[-0.06589840811958342,0.10911411654425496]",100.0,"[0.018886486698738412,-0.06745237085538731]",100.0,"[0.15314672182648928,-0.04671702147900936]",100.0,"[0.12289434340636796,0.015016442805597816]",4.0,"[0.11187407995676073,-0.13632956052698467]",4.0,"[-0.001053242290441223,-0.17453993166897408]",4.0,"[0.055181644216279815,-0.17701767829819479]",4.0,"[0.12831503784273401,0.12057644519242375]",4.0,"[-0.10472506770668076,-0.1642061326888504]",4.0,"[-0.1028719396671771,0.04933764516236823]",100.0,"[0.04747537166252343,0.08234497099859263]",4.0,"[-0.06336787685833953,-0.005807837310188967]",4.0,"[-0.033372408997138184,-0.08092285875260347]",4.0,"[-0.19420384312172206,0.015043161382239318]",100.0,"[0.0344439894375746,0.13507097258149162]",4.0,"[-0.14816492696731987,0.12442175148103359]",4.0,"[-0.16878775005327376,0.04901705590826837]",4.0,"[-0.13925860244223082,-0.05882830652460606]",4.0,"[0.035485680424553905,-0.013191205549448762]",4.0,"[-0.00781339962079975,0.1310186370190651]",100.0,"[-0.09244493035626351,-0.08395237796596496]",100.0,"[-0.1449269468197567,-0.11141564277032484]",100.0,"[-0.01561048119667019,0.04089578000827719]",100.0,"[0.013442851537886377,0.1966641893709512]",100.0,"[0.10986485909806687,-0.059005341825892295]",4.0,"[-0.09935327781314901,0.14131686079180947]",4.0,"[0.09517339298423667,0.08491203236244257]",4.0,"[-0.013607930667969857,-0.0060165424628347295]",100.0,"[0.16790225518485816,0.06470864523856591]",100.0,"[0.02,0.02]",175.2362,0.0,29.0,29.0,124.0,1.0,,,,,,,
,,,,,,,678d265eb819fdb2c5a362f9,6846a866269b30c6d305f7c5,2025-06-09_11h25.24.536,shape_ratio,2024.1.5,Win32,60.97560976,684250e4f00cb30b92d1fa88,,,,,,,,,,,175.2373,175.7361,,,175.9862,176.652,right,,,,,,,,0.55,0.6543,,,,,,,175.7362,175.9861,176.6521,"[0.06292480921842623,0.07996365949035557]",100.0,"[-0.000018684024155455345,0.02368021312296009]",100.0,"[-0.0945486420595598,-0.05735209508064245]",4.0,"[-0.13491297611653452,-0.11766243963468437]",4.0,"[0.07142275494321995,0.03803088571236306]",4.0,"[0.010627935927952198,0.17638158426125602]",4.0,"[0.11180197078981474,-0.032313274342495715]",100.0,"[-0.13830451060576415,-0.03999169124428917]",100.0,"[-0.03109385570732304,0.09411085471429986]",100.0,"[-0.014805475777381637,-0.19425640122922558]",100.0,"[0.029691693700094387,-0.16623257807474734]",100.0,"[-0.002929797049963521,0.1277933987179797]",100.0,"[-0.08140133487510105,0.07543151376984661]",4.0,"[-0.16182562298860242,0.06250133894263904]",100.0,"[-0.19337715292632832,-0.017357060469802798]",100.0,"[-0.08704901019798325,-0.12079234832850001]",100.0,"[-0.0704853865293773,0.16053567133879756]",100.0,"[0.07255504598052567,0.16721998462622778]",100.0,"[0.06082230794133092,-0.09022898085711586]",4.0,"[-0.13174769610735088,0.10499586848552772]",4.0,"[-0.08265092734378832,-0.18138235834414507]",4.0,"[-0.1242973739812623,0.1533364318808397]",100.0,"[-0.02769277876633621,-0.12712824683520213]",4.0,"[-0.0008745915155828113,-0.08782710501660466]",4.0,"[0.17567705027804623,0.09315686456473124]",100.0,"[0.1424024875018603,-0.06866381621988837]",4.0,"[0.10114261490447468,0.13522775213557342]",100.0,"[-0.05163341117946708,0.040396156726227886]",100.0,"[-0.04475251558992109,-0.04459142038015544]",4.0,"[0.01372769777203531,0.07838243415063119]",100.0,"[0.1530599352254639,-0.027203591924011557]",4.0,"[0.1282973880663701,0.024654155933772858]",4.0,"[0.02,0.02]",177.753,0.0,30.0,30.0,89.0,1.0,,,,,,,
,,,,,,,678d265eb819fdb2c5a362f9,6846a866269b30c6d305f7c5,2025-06-09_11h25.24.536,shape_ratio,2024.1.5,Win32,60.97560976,684250e4f00cb30b92d1fa88,,,,,,,,,,,177.7537,178.2534,,,178.5038,178.7538,left,,,,,,,,0.45,0.2333,,,,,,,178.2534,178.5038,178.754,"[0.020896932833538606,0.05692877080670449]",4.0,"[-0.13912509526103117,-0.059679550808367336]",4.0,"[0.005212256240280429,-0.021175034920682068]",100.0,"[-0.06717086777392364,0.15352378020346663]",100.0,"[0.022737567242239166,-0.07993403242003282]",4.0,"[-0.09334454314684282,0.07693947502693033]",4.0,"[0.1356686906480708,0.041879567911349024]",100.0,"[0.07469401127139955,-0.17033863743954367]",4.0,"[-0.1908765653739523,0.028870198986866127]",100.0,"[-0.038838013483152564,-0.13292365142528678]",4.0,"[0.09289085134966867,0.15180567973884146]",100.0,"[0.1521905691334105,-0.06052337814590798]",4.0,"[0.09894258388806455,-0.09258046697344634]",100.0,"[0.16057210876701047,0.10070689479026546]",4.0,"[-0.13166205292696626,0.11882008961244292]",100.0,"[0.1450129792590695,-0.1283287602603825]",100.0,"[0.07376904939963287,0.03274422732203197]",100.0,"[-0.0793492663289051,-0.02772263179734411]",4.0,"[0.028815015535798134,0.09896297721236971]",100.0,"[-0.06953734609250614,0.015281929322673766]",100.0,"[-0.1643665843542463,-0.11192006474470183]",4.0,"[0.1897145054937866,0.033057655050979795]",4.0,"[0.07745483303736625,0.10825926386608328]",4.0,"[-0.028700527851011345,-0.07358478124543112]",100.0,"[0.11550192930824035,0.0812285598243815]",4.0,"[0.06677051331484267,-0.04640927933916206]",4.0,"[-0.14407871229610847,0.009020005396479142]",100.0,"[-0.030320043115705714,0.03504790790752194]",4.0,"[-0.03328593426524676,-0.004983299616725145]",100.0,"[-0.045721651901125766,-0.1786925142934175]",4.0,"[0.01788026337408161,-0.1860759752069075]",4.0,"[-0.1074690558009151,-0.0976449788246608]",4.0,"[0.02,0.02]",179.853,0.0,31.0,31.0,128.0,1.0,,,,,,,
,,,,,,,678d265eb819fdb2c5a362f9,6846a866269b30c6d305f7c5,2025-06-09_11h25.24.536,shape_ratio,2024.1.5,Win32,60.97560976,684250e4f00cb30b92d1fa88,,,,,,,,,,,179.8536,180.353,,,180.6034,181.053,right,,,,,,,,0.1,0.4416,,,,,,,180.3532,180.6034,181.0531,"[-0.10220510288496251,0.023860205657984294]",4.0,"[-0.08062842339554002,-0.04779715022283383]",4.0,"[-0.05715618662158958,0.0665914945129723]",4.0,"[-0.18795388014790762,-0.0072330825621704795]",4.0,"[-0.025564688442633498,0.140519705803422]",4.0,"[0.1363844997665068,-0.11940101998201913]",4.0,"[0.18587926420521367,-0.01048337225871544]",4.0,"[-0.09756517789848759,-0.11307053022728582]",4.0,"[0.10804602604050874,0.04586887880634678]",4.0,"[-0.03341527361846243,-0.1089789101718165]",4.0,"[0.19519507496555924,0.03384777264073069]",4.0,"[0.07290162240431283,0.002222294141080174]",100.0,"[-0.0540474556714857,0.017505817637052393]",100.0,"[0.025503519677941754,0.159335588535968]",4.0,"[-0.007950175365014692,0.06886484429981223]",4.0,"[0.14800466917753277,-0.06502437578912716]",4.0,"[-0.14952386462256334,0.03787420596914729]",4.0,"[0.07059331464874562,-0.14522993462464975]",4.0,"[-0.07796120264906388,0.1421257291533292]",4.0,"[-0.09071231038711225,0.09620089649534648]",4.0,"[0.024119902808032834,-0.16928207791182187]",100.0,"[-0.03930486042950657,-0.04680823386811108]",4.0,"[0.03983481679557708,0.03555967813728846]",4.0,"[0.02319169576753745,0.11838972420719647]",4.0,"[0.06795940127714468,0.1874352121762515]",4.0,"[0.14227821559006626,0.08598505482789973]",4.0,"[-0.16452214811171698,-0.05185619361088065]",4.0,"[-0.10290838081903846,-0.16762388125340763]",4.0,"[0.08705973860398342,0.1319157160966871]",4.0,"[-0.17708439090973796,0.08637264603700613]",4.0,"[0.04472846942881282,-0.055462189014070705]",4.0,"[-0.12800180322458457,0.07713200444754321]",4.0,"[0.02,0.02]",182.1556,0.0,32.0,32.0,209.0,1.0,,,,,,,
,,,,,,,678d265eb819fdb2c5a362f9,6846a866269b30c6d305f7c5,2025-06-09_11h25.24.536,shape_ratio,2024.1.5,Win32,60.97560976,684250e4f00cb30b92d1fa88,,,,,,,,,,,182.1569,182.6557,,,182.9029,183.4881,left,,,,,,,,0.45,0.5796,,,,,,,182.6558,182.9028,183.4882,"[-0.1443562961217126,-0.018931255012992462]",100.0,"[-0.14123770006894715,0.054092321251810134]",4.0,"[-0.10122901867797449,-0.03347331752451042]",4.0,"[0.10405583258755284,0.10840617089702836]",4.0,"[-0.12680489497978137,-0.0814559811931256]",100.0,"[-0.04145995480448111,0.012374969011734597]",4.0,"[-0.007199477157815687,0.03913990156895876]",100.0,"[0.1600927720447016,-0.05459788915470436]",100.0,"[0.08628380499772885,0.17830993822358046]",100.0,"[0.023034864533850112,0.1492541421793692]",4.0,"[0.013581631441801887,-0.10909867790009062]",4.0,"[-0.03720651869092488,-0.07776187136912885]",100.0,"[0.004550114154695961,0.08718062390171677]",4.0,"[-0.09845641957803408,0.08216972614480804]",4.0,"[0.09925348377296464,-0.027342579027134484]",4.0,"[0.06092019824930297,-0.07248882453472688]",100.0,"[-0.05834340205445709,-0.16371489329286104]",100.0,"[0.13933090844515775,0.12943344831152476]",4.0,"[-0.06876629443625962,-0.10976784298924179]",100.0,"[0.002637206530848036,-0.18397583513524063]",100.0,"[0.004199321399170329,-0.02267572825344454]",100.0,"[-0.07061199839359603,0.15417827632132594]",4.0,"[-0.03579321958952838,0.19467093715001835]",100.0,"[-0.05209490995314131,0.09288370158684811]",4.0,"[0.017580483873294563,-0.06268608723774108]",4.0,"[-0.11624432996245798,0.15884090343548282]",100.0,"[0.19110004171998257,0.05696388510627662]",4.0,"[-0.16492002303922335,0.021364424318391306]",4.0,"[-0.17711684852683235,0.07478489437233904]",4.0,"[0.05907069012483145,0.0595956732317255]",4.0,"[0.140106369308254,-0.10460357674939723]",4.0,"[0.13941505353610198,0.06364275567206694]",100.0,"[0.02,0.02]",184.5869,0.0,33.0,33.0,134.0,1.0,,,,,,,
,,,,,,,678d265eb819fdb2c5a362f9,6846a866269b30c6d305f7c5,2025-06-09_11h25.24.536,shape_ratio,2024.1.5,Win32,60.97560976,684250e4f00cb30b92d1fa88,,,,,,,,,,,184.5882,185.0854,,,185.3365,186.1378,right,,,,,,,,0.6,0.7894,,,,,,,185.0854,185.3362,186.1379,"[-0.03568139545407866,-0.11541721071849528]",100.0,"[0.06545799215621557,-0.17635353499320788]",4.0,"[-0.15132651042992795,0.012378080304089737]",4.0,"[-0.1228841207845174,-0.04079475980803815]",4.0,"[0.03488702148845125,0.043854598302767875]",100.0,"[-0.10841701226896557,-0.08943048643332599]",100.0,"[-0.00822920394734302,0.026492579264269175]",100.0,"[0.004546559151619422,-0.1699452614151592]",100.0,"[-0.06545302530099026,0.06889635191903908]",100.0,"[0.03491599952552404,-0.015171168614153815]",4.0,"[-0.019891484581901753,0.13498913457868997]",4.0,"[0.07541326680159705,-0.02558295880836774]",100.0,"[-0.10504288272450911,0.16518810129137612]",100.0,"[-0.041965573525156424,-0.16932351847122507]",100.0,"[-0.0036965163033291686,-0.041498557889069525]",4.0,"[0.02213327269279039,0.12406372664646997]",100.0,"[0.11822366744678468,0.06696537965394544]",100.0,"[0.17446284935902842,0.03759906271554899]",100.0,"[-0.15180906422632678,0.1168903113582748]",4.0,"[0.08465987696716598,-0.06892005848963889]",100.0,"[0.104210619766896,-0.11104763667834044]",100.0,"[0.12736077188221143,0.12249047357608833]",4.0,"[-0.06579532951062526,0.14412355474389413]",4.0,"[0.14538221889453665,-0.08506026596893543]",100.0,"[-0.10548769166154577,0.05572362748286961]",100.0,"[-0.061321155331915,0.023307484871563477]",4.0,"[-0.18567044985855155,-0.012529990070206162]",100.0,"[0.11513824242958744,0.0017893547819675078]",4.0,"[0.08209488117416679,0.14106197393756706]",100.0,"[0.06444730185269096,0.09342711627502066]",100.0,"[-0.0980241207850462,0.004509094886732263]",4.0,"[0.16998466020682101,-0.04243566530626688]",4.0,"[0.02,0.02]",187.2374,0.0,34.0,34.0,48.0,1.0,,,,,,,
,,,,,,,678d265eb819fdb2c5a362f9,6846a866269b30c6d305f7c5,2025-06-09_11h25.24.536,shape_ratio,2024.1.5,Win32,60.97560976,684250e4f00cb30b92d1fa88,,,,,,,,,,,187.2384,187.7373,,,187.9842,188.4339,left,,,,,,,,0.5,0.4344,,,,,,,187.7373,187.9842,188.4339,"[-0.003051891357540679,-0.16605208969122212]",100.0,"[-0.03075259611691906,-0.13481812528248485]",100.0,"[-0.13435467528953268,-0.05191289582336179]",4.0,"[0.15127027823963632,0.1239022423079399]",4.0,"[-0.1525477808911814,-0.010729677059269253]",100.0,"[-0.06311551550195081,0.01532491231187388]",100.0,"[-0.16564923649203853,-0.09184991476410324]",4.0,"[0.18913706196065355,0.03719663563052948]",4.0,"[-0.04317557935629894,0.1356964058496983]",4.0,"[-0.18477466722649663,-0.04430621169617213]",4.0,"[0.1007463028974318,-0.03825202890287036]",100.0,"[0.05845716735630512,0.08758889925053659]",100.0,"[0.14095314719358543,-0.04327997896098627]",4.0,"[-0.10575311373583782,-0.0018618154873784678]",100.0,"[0.04036644548032897,-0.08313210270431395]",100.0,"[0.0830908339877831,-0.07834047163564922]",4.0,"[0.07573163177059795,-0.1839901524679438]",4.0,"[0.13772185551486926,-0.121784035710848]",100.0,"[-0.13001951547779217,0.04675838922501566]",100.0,"[-0.06792179207046357,0.17916357335415975]",100.0,"[-0.02121024324462672,0.02656294695990451]",4.0,"[-0.029394907782742615,0.191293227596264]",100.0,"[0.18802067275850173,-0.04073436658757163]",100.0,"[0.10230960768135972,0.12233729440004933]",100.0,"[-0.013528886737618243,-0.06816225373442983]",100.0,"[0.022441575802065322,0.1459419530664877]",4.0,"[0.023079397008777258,-0.03307635615637593]",4.0,"[-0.0027679306471053503,0.08868762372275937]",4.0,"[0.06613284126488873,-0.017934477727375008]",4.0,"[0.030341555049413296,-0.19514030670549878]",4.0,"[-0.05987793048470413,-0.059060811344452284]",4.0,"[-0.11757637734160614,-0.1250720786916992]",100.0,"[0.02,0.02]",189.5338,0.0,35.0,35.0,100.0,1.0,,,,,,,
,,,,,,,678d265eb819fdb2c5a362f9,6846a866269b30c6d305f7c5,2025-06-09_11h25.24.536,shape_ratio,2024.1.5,Win32,60.97560976,684250e4f00cb30b92d1fa88,,,,,,,,,,,189.5351,190.0342,,,190.2864,190.8534,left,,,,,,,,0.5,0.5528,,,,,,,190.0343,190.2864,190.8537,"[0.11868622779045927,0.0852208521018605]",4.0,"[0.10589782916488512,-0.04358637366350112]",100.0,"[0.1450203824396026,-0.05975918085878901]",100.0,"[-0.0811516593138293,0.08358282135858486]",4.0,"[0.06626738696428212,-0.04969042377399486]",4.0,"[-0.10035092710395171,0.1398940297613984]",4.0,"[-0.1905252183648065,-0.038862110469071086]",4.0,"[0.06972897225278799,0.11056368761085383]",100.0,"[0.14695769991326277,0.024841902584724403]",4.0,"[-0.13378759632546955,-0.07612622595652498]",100.0,"[0.162687174714603,0.10584663241332917]",100.0,"[-0.021600928380459763,0.12611646674351593]",100.0,"[-0.13646397109016248,0.0925203925604903]",100.0,"[0.07074881889544235,-0.17262577928117726]",4.0,"[0.012247657636579534,0.0890563672221441]",100.0,"[0.1668744184508438,-0.010222283946922825]",100.0,"[0.0639850408235537,0.016289540841838306]",100.0,"[-0.05834139536958265,0.03507617294675178]",100.0,"[-0.09733529577617427,-0.09343709382203463]",4.0,"[0.053299668382052405,0.1683557758710939]",100.0,"[-0.017798370645405483,-0.1887314863157301]",100.0,"[0.017515752452368943,0.003167779150745165]",100.0,"[-0.09901115716578339,0.017718661048704017]",4.0,"[-0.0028111827346427886,-0.0748320536951653]",4.0,"[-0.03807064969857134,-0.015758063078860768]",4.0,"[0.08041610261926624,-0.12983394412911067]",4.0,"[0.09341746905592332,0.14848604782169295]",4.0,"[-0.14990837395422202,-0.12199667433866092]",4.0,"[-0.17812531388869665,0.04382922971941985]",100.0,"[-0.042751116339774735,0.18133586389648346]",4.0,"[-0.004420990154546464,-0.14105139041285814]",100.0,"[0.04952309243021546,0.06681811309908]",4.0,"[0.02,0.02]",191.9529,0.0,36.0,36.0,95.0,1.0,,,,,,,
,,,,,,,678d265eb819fdb2c5a362f9,6846a866269b30c6d305f7c5,2025-06-09_11h25.24.536,shape_ratio,2024.1.5,Win32,60.97560976,684250e4f00cb30b92d1fa88,,,,,,,,,,,191.9539,192.4525,,,192.7013,193.034,right,,,,,,,,0.1,0.3256,,,,,,,192.4532,192.7012,193.0341,"[0.03508269080365138,0.013508287955289038]",4.0,"[-0.13418070851888042,-0.12213139820978725]",4.0,"[0.05451217525742578,0.1333708368446398]",4.0,"[-0.11072833377287093,0.1336978778783549]",4.0,"[0.1426390225926905,0.101393639584073]",4.0,"[0.1287052688071455,-0.028371427691637138]",4.0,"[0.05011848572977763,-0.17312173466193115]",100.0,"[-0.1678044137339486,-0.033301130834542926]",4.0,"[-0.10978611215014532,-0.04005556089844394]",4.0,"[-0.01140460364069398,-0.11116915551416584]",4.0,"[0.12806498274149494,0.03852660158570988]",4.0,"[-0.1318739990422791,0.08980966740611541]",100.0,"[-0.07374669619763939,-0.0706381701214748]",4.0,"[0.10453158760976396,0.14947034648600724]",4.0,"[-0.18337544502461942,0.0721604558095664]",4.0,"[-0.03898052585540311,0.189471561233594]",4.0,"[0.06309425580078702,-0.02843062563307962]",4.0,"[-0.07765110094319021,0.03429870027511711]",4.0,"[-0.05754126691688027,0.11556388042131813]",4.0,"[-0.15284277159631637,-0.07477450340998079]",4.0,"[0.05509937313807634,0.07128023734751557]",4.0,"[-0.07809513328365911,-0.15099073955634912]",4.0,"[0.011690948939847954,0.09732787225293428]",100.0,"[0.08540665512292789,-0.12184904902060907]",4.0,"[-0.0016333987006356872,0.05755891770451007]",4.0,"[-0.015632726166196112,-0.0476253164108228]",4.0,"[0.04938883638238294,0.1894523794658624]",4.0,"[-0.0914873370626086,0.09317736339079326]",4.0,"[0.1908307560356895,0.0012268764912259562]",4.0,"[-0.019574143744163063,-0.1534995166724721]",4.0,"[-0.04205154930371801,-0.009497293933716625]",4.0,"[0.08036986926518057,0.014311656639133342]",4.0,"[0.02,0.02]",194.1341,0.0,37.0,37.0,182.0,1.0,,,,,,,
,,,,,,,678d265eb819fdb2c5a362f9,6846a866269b30c6d305f7c5,2025-06-09_11h25.24.536,shape_ratio,2024.1.5,Win32,60.97560976,684250e4f00cb30b92d1fa88,,,,,,,,,,,194.1356,194.6339,,,194.8837,195.4538,right,,,,,,,,0.6,0.5442,,,,,,,194.6339,194.8836,195.4539,"[-0.1376303760137806,0.015636280272860462]",100.0,"[0.016893783283412706,-0.08984023394544131]",100.0,"[0.1432433476429551,0.03423079938144008]",4.0,"[0.015750890138226527,-0.19528852523044254]",4.0,"[0.17450503782673968,0.07472381021875311]",100.0,"[0.008865167953831245,0.12595356189739187]",100.0,"[0.09092956935091202,0.09279183135899322]",4.0,"[-0.1443118088987356,0.07901650388490325]",100.0,"[-0.08376982940202887,0.0090306334153449]",4.0,"[0.008741830897606329,0.19430242098433798]",100.0,"[-0.13508143756062477,-0.08439868376980676]",4.0,"[-0.10311333130346727,-0.11104443844667114]",100.0,"[0.07424739043569092,-0.04397939083397848]",100.0,"[0.05318109091889975,0.07856079542892383]",4.0,"[0.14595919545050748,0.12721466365295364]",100.0,"[-0.039445965853399004,0.15693991045111685]",100.0,"[-0.038020546130309814,0.024060880105704327]",4.0,"[0.14615017769980476,-0.007079800225772506]",4.0,"[-0.04979001584567443,0.07783000017713938]",4.0,"[-0.1153127177849918,0.10800911884573741]",4.0,"[-0.03648205215804442,-0.17739718430978169]",100.0,"[0.024912060100011825,0.011499594569025865]",4.0,"[0.04165535313142601,-0.13715972298611606]",4.0,"[-0.06248383493592322,-0.061128341396168434]",100.0,"[0.06170342913251754,-0.10002840408354537]",100.0,"[-0.15081224243554728,-0.024653511237640775]",100.0,"[0.13676763391872773,-0.09501727861491903]",100.0,"[0.028733724302417975,-0.05129772646937587]",4.0,"[-0.19277993369073762,-0.002263863453907593]",100.0,"[0.0891726444003872,0.1503490807298842]",100.0,"[0.11223320069166803,-0.02830331674264574]",100.0,"[-0.04308607815105671,-0.11646875095302436]",100.0,"[0.02,0.02]",196.5536,0.0,38.0,38.0,36.0,1.0,,,,,,,
,,,,,,,678d265eb819fdb2c5a362f9,6846a866269b30c6d305f7c5,2025-06-09_11h25.24.536,shape_ratio,2024.1.5,Win32,60.97560976,684250e4f00cb30b92d1fa88,,,,,,,,,,,196.5546,197.053,,,197.3028,197.7368,left,,,,,,,,0.9,0.4209,,,,,,,197.053,197.3027,197.7369,"[-0.019242384924089327,-0.124679645435768]",100.0,"[-0.003123407651201032,0.1165269188721979]",100.0,"[-0.14417777893283734,-0.1322589761017452]",100.0,"[-0.04083051794493022,-0.003991754003485009]",100.0,"[-0.11913631474810385,0.08906655292934568]",100.0,"[-0.15433172104774734,-0.0004934247775273171]",100.0,"[-0.18605353146606982,0.0654000095723492]",100.0,"[0.11162106609715702,-0.050856699651552324]",100.0,"[0.03306091460952419,0.07695965800098643]",100.0,"[0.0876294350131044,-0.15262053514822246]",100.0,"[0.024691172872238768,0.17015138009578276]",100.0,"[0.002967479035269076,-0.04212216349194707]",100.0,"[0.1497573244423651,0.11820774965244565]",100.0,"[0.054220143343277884,-0.07288490367514779]",100.0,"[-0.08759476205128282,-0.16930392765440894]",100.0,"[-0.03753313994459595,-0.04423056519526066]",100.0,"[-0.09575469745780771,0.15215042369838377]",100.0,"[0.1670945029272857,-0.06063345810008134]",4.0,"[0.03162670661421812,-0.17039328349323732]",100.0,"[0.14984073216864127,-0.10141632793760763]",100.0,"[0.1371238762712736,0.012374232418699185]",100.0,"[-0.19430138642491465,-0.0468060444614464]",4.0,"[0.09775389520027472,0.043727020786698725]",4.0,"[-0.011167667537047383,0.19878918636061618]",100.0,"[-0.04861541103695579,0.1077848856539187]",100.0,"[-0.08440385822530425,0.050519285579272384]",100.0,"[-0.10403448232712194,-0.058670653127003744]",100.0,"[-0.08880356993510008,-0.10748744003534434]",100.0,"[0.012856519235798516,-0.0032758270244115616]",100.0,"[-0.1453673555684958,-0.05285106962020993]",100.0,"[-0.010653623853943424,0.06167715942957913]",100.0,"[0.061363785225776304,0.11143658043660877]",100.0,"[0.02,0.02]",198.8371,0.0,39.0,39.0,5.0,1.0,,,,,,,
,,,,,,,678d265eb819fdb2c5a362f9,6846a866269b30c6d305f7c5,2025-06-09_11h25.24.536,shape_ratio,2024.1.5,Win32,60.97560976,684250e4f00cb30b92d1fa88,,,,,,,,,,,198.8378,199.3358,,,199.5847,200.2696,right,,,,,,,,0.1,0.679,,,,,,,199.336,199.5847,200.2696,"[0.0997139521348052,-0.07215011066090311]",4.0,"[0.08167037331671853,0.11238174887452079]",4.0,"[-0.18285675776366292,0.03346308892546734]",4.0,"[-0.08009364922313578,0.1381198538372752]",4.0,"[-0.02638859934591532,0.025045839151898983]",4.0,"[0.0726808517209465,0.16874841544184574]",4.0,"[-0.06120709473807311,-0.01721628170314688]",4.0,"[0.013380738042688807,0.06648799687396263]",4.0,"[-0.02438995596157506,0.08086815406745446]",4.0,"[-0.14011180672842077,-0.13655683618041423]",4.0,"[0.1326392630459752,0.08424420805181765]",4.0,"[0.13864648846152758,0.010757795750129294]",4.0,"[0.11006505181975028,-0.020349891113830346]",4.0,"[0.029763696906274572,-0.148210759417319]",4.0,"[-0.1059653192258126,0.00034367613960831846]",100.0,"[0.04449711331223578,-0.10400908158659591]",4.0,"[0.09965046862571708,-0.12296371045738176]",4.0,"[0.1551333518288945,-0.042740651484493165]",4.0,"[-0.0011876209405841897,0.12425744840920643]",4.0,"[-0.17688724794628582,-0.056064968676804244]",4.0,"[-0.12842408902057292,-0.08096447184696769]",4.0,"[-0.012599980419215145,-0.06910400371253647]",100.0,"[-0.001571916032289151,0.17556938592579252]",4.0,"[-0.11883575350667545,0.07276106157699898]",4.0,"[0.12189402881277685,0.14004643409083853]",4.0,"[0.05311149604679444,0.057273953524267965]",4.0,"[0.01741069221090224,-0.036290231374204535]",4.0,"[-0.14179887160266505,0.13204862493224703]",4.0,"[0.03354739681762575,0.15595918998079678]",4.0,"[0.1788138907811165,0.0089292943974843]",4.0,"[-0.0047346257977561495,-0.1111750296428772]",4.0,"[0.056198608062003455,-0.019834055051055257]",100.0,"[0.02,0.02]",201.3685,0.0,40.0,40.0,184.0,1.0,,,,,,,
,,,,,,,678d265eb819fdb2c5a362f9,6846a866269b30c6d305f7c5,2025-06-09_11h25.24.536,shape_ratio,2024.1.5,Win32,60.97560976,684250e4f00cb30b92d1fa88,,,,,,,,,,,201.3701,201.8684,,,202.1173,202.6837,right,,,,,,,,0.6,0.5531,,,,,,,201.8689,202.1172,202.6839,"[-0.09103657400380337,-0.0986187739598425]",100.0,"[0.01509770223975345,0.07044615325968469]",100.0,"[0.07901699635455661,-0.10750852696791699]",100.0,"[-0.17596634493258986,0.0475646403666277]",4.0,"[-0.10394476424484307,-0.1391663334641802]",100.0,"[0.0561646883353698,-0.05718382328268785]",100.0,"[-0.06653329359599013,0.10262753706104046]",4.0,"[0.09898098606227208,0.048258002005700504]",100.0,"[-0.028368116659347346,0.19258506008087245]",4.0,"[-0.03673460455164338,0.011229091750379838]",4.0,"[0.0922180713068979,0.1518853344341429]",100.0,"[0.1704873447929238,-0.06800707517374975]",100.0,"[-0.09048574857756396,0.14306828423681556]",100.0,"[-0.06289538824639461,-0.13464669554831143]",4.0,"[0.041149501948258296,0.17645745029010115]",4.0,"[0.15274475287625494,0.09634300987078122]",4.0,"[-0.15384838413854532,-0.0589965456372014]",100.0,"[0.1426212304505889,0.041010642838634766]",100.0,"[0.11781303594715345,-0.008090885754731686]",4.0,"[0.13123469918082292,-0.11586558847613966]",4.0,"[-0.12312453933583381,0.05304194720628837]",100.0,"[0.061765238470775384,0.01619988701066131]",100.0,"[0.043086589218976186,-0.01930526739267211]",4.0,"[-0.002333227877329974,-0.08598409969516373]",4.0,"[-0.035450171062922906,-0.17130617045008284]",100.0,"[0.10258579507855799,-0.15877644587540865]",100.0,"[0.11703885853272382,-0.07328894789908184]",100.0,"[-0.187322808208377,0.0028010642330392106]",100.0,"[-0.10229362073990111,-0.031083292527507897]",100.0,"[-0.04775945277711125,-0.0820724217130891]",100.0,"[0.019196995798082886,0.12701885077406144]",4.0,"[0.02750990061828588,-0.15051526165487594]",4.0,"[0.02,0.02]",203.7828,0.0,41.0,41.0,47.0,1.0,,,,,,,
,,,,,,,678d265eb819fdb2c5a362f9,6846a866269b30c6d305f7c5,2025-06-09_11h25.24.536,shape_ratio,2024.1.5,Win32,60.97560976,684250e4f00cb30b92d1fa88,,,,,,,,,,,203.7835,204.2859,,,204.5335,204.952,left,,,,,,,,0.9,0.4033,,,,,,,204.2859,204.5334,204.9521,"[0.05005071186290869,-0.01567803370322165]",100.0,"[0.19037679211041086,0.02050389825801493]",100.0,"[-0.11290212347573077,-0.08242280354410156]",100.0,"[0.17783952941557266,0.08144384231081278]",100.0,"[-0.016371388920122833,-0.19222692912210856]",4.0,"[-0.006556736933378752,-0.04621811196053037]",100.0,"[0.03241695574238276,0.1499363767491936]",4.0,"[0.06471588555107219,-0.13884387672983153]",100.0,"[-0.0034010881020079234,0.1311721444382433]",100.0,"[-0.17600722735428928,-0.023222004606727357]",100.0,"[0.08084871910404705,0.06743419534142778]",100.0,"[-0.1572183387986877,0.033602074028985365]",100.0,"[-0.08642720515436403,0.14877334057375485]",100.0,"[0.17419796908373594,-0.03338594134410105]",100.0,"[0.11253315945858611,-0.1233408029768143]",100.0,"[-0.11857664921822006,0.08424250510514554]",100.0,"[0.1279901797211958,0.013911751521801336]",100.0,"[-0.1201530669252977,-0.008700630568162232]",100.0,"[-0.14305582357291016,-0.11124580534806085]",4.0,"[-0.08251191677406605,-0.03905981586002332]",100.0,"[-0.048800259837137074,-0.012924673037997074]",100.0,"[0.0862196789078843,-0.0760141165138677]",100.0,"[-0.004949494827043774,-0.1350567719709651]",100.0,"[0.17859549914433204,-0.08919561139993669]",100.0,"[-0.04674286439608115,0.0760806631868425]",100.0,"[0.011340643064891014,0.01544866507677716]",100.0,"[0.07231459637439647,0.16222898689308407]",100.0,"[-0.19383956263302762,0.017162997994006737]",100.0,"[-0.1805623017057476,0.0806608834287065]",100.0,"[0.03988291005365026,-0.05769339194467395]",100.0,"[-0.042657394282287375,-0.1598423892878355]",100.0,"[0.11267099728436426,0.1095000301516318]",100.0,"[0.02,0.02]",206.0513,0.0,42.0,42.0,8.0,1.0,,,,,,,
,,,,,,,678d265eb819fdb2c5a362f9,6846a866269b30c6d305f7c5,2025-06-09_11h25.24.536,shape_ratio,2024.1.5,Win32,60.97560976,684250e4f00cb30b92d1fa88,,,,,,,,,,,206.0524,206.5518,,,206.7996,207.2331,left,,,,,,,,0.4,0.4173,,,,,,,206.5524,206.7996,207.2332,"[-0.05609805718453707,0.06759974631597362]",4.0,"[0.0619763983961139,0.16718748653263055]",100.0,"[-0.038856012596740715,0.18977812197478316]",100.0,"[0.08945146325854227,-0.06095714920735239]",100.0,"[-0.0862889654373313,0.04106646678476768]",100.0,"[-0.16047252309876675,0.05229779170155056]",4.0,"[-0.13540985926901844,-0.12393322300188746]",100.0,"[-0.03642553812814376,-0.15767100790494581]",4.0,"[0.08152077258437951,-0.10214459856248016]",100.0,"[-0.12475247704598694,-0.0746155637135527]",4.0,"[-0.02270416319232781,0.008155671703609535]",4.0,"[0.08094564626577296,0.08276791258277043]",100.0,"[0.06475892748092417,0.02411752185637156]",100.0,"[-0.048273791469566306,-0.05405455308959945]",100.0,"[-0.17681961503048413,-0.08205998231393757]",4.0,"[0.04844662621089086,-0.18420829497126862]",100.0,"[-0.06775130754064693,0.13531967483390844]",4.0,"[-0.1841069830034068,-0.015274926069715587]",4.0,"[0.0245339270517524,0.034711517492732984]",4.0,"[0.023696282395233127,0.1935609312023268]",4.0,"[0.04045018054423874,0.07727714906027844]",4.0,"[0.13880907078381374,-0.06804483178214721]",4.0,"[-0.08121489691026514,-0.1813353814924983]",4.0,"[-0.08327860708035163,0.17813748133059246]",100.0,"[-0.03136813256728547,0.11626020610509476]",100.0,"[0.14242196533560772,-0.019989480648950404]",100.0,"[-0.11504132645897402,0.14065289099292003]",4.0,"[0.018138052745844045,-0.0714624568041115]",4.0,"[0.08001408864255867,-0.143674235722501]",4.0,"[0.18182169605585843,0.028001601206107424]",4.0,"[0.0341351454702842,-0.03034966171590799]",4.0,"[-0.10697482470563888,-0.009826363635642276]",4.0,"[0.02,0.02]",208.3331,0.0,43.0,43.0,157.0,1.0,,,,,,,
,,,,,,,678d265eb819fdb2c5a362f9,6846a866269b30c6d305f7c5,2025-06-09_11h25.24.536,shape_ratio,2024.1.5,Win32,60.97560976,684250e4f00cb30b92d1fa88,,,,,,,,,,,208.3351,208.8323,,,209.0829,209.3998,left,,,,,,,,0.5,0.3083,,,,,,,208.8324,209.0828,209.4,"[-0.02828993723195002,-0.07804999010764707]",4.0,"[-0.11996258673031802,-0.08154565878181072]",100.0,"[-0.07585406756065728,0.005596145830813033]",4.0,"[0.07434575815214034,0.00991545129698791]",4.0,"[0.09251093253936866,0.1528887279465113]",4.0,"[0.01622884281432827,-0.08411930994632145]",4.0,"[-0.156037608079001,-0.03806941711610452]",4.0,"[-0.07061678886801905,0.10454848497212288]",4.0,"[-0.1726147398092981,0.05602127315019456]",100.0,"[-0.06848551965946642,-0.03881945679573743]",4.0,"[-0.1263719923194919,-0.14027122361103425]",100.0,"[0.008145475642285127,0.05634820529017082]",4.0,"[0.19730904028090057,0.028682213799534964]",4.0,"[-0.039308530659100685,-0.12196170778309474]",100.0,"[0.0746239540945582,-0.09178890736720728]",100.0,"[0.06189980847138243,0.07318484526695808]",100.0,"[-0.08675293801435961,0.15932155604383047]",4.0,"[-0.07903592772095884,-0.16197902005440004]",4.0,"[-0.029745391189110376,0.18628859448813528]",100.0,"[0.01784499513328323,-0.1835303140215775]",4.0,"[-0.14196082566560725,0.12065399732356517]",100.0,"[0.09840395458986026,-0.16312752541102726]",100.0,"[-0.02736441538545772,0.015804196413103717]",100.0,"[0.009591571661344604,-0.04277280893188131]",100.0,"[-0.04609285341667706,0.06701255081515864]",4.0,"[0.14152540566291624,-0.12701843046069733]",100.0,"[0.006776563201716517,-0.1448846432308559]",100.0,"[-0.12691324119372613,0.049529512916072056]",100.0,"[0.15691321379484546,0.027311034651348105]",4.0,"[0.11363245213070729,-0.043146728307125966]",4.0,"[-0.03770707207869413,-0.16743829008897393]",100.0,"[0.1271188122150756,0.08268648103567967]",100.0,"[0.02,0.02]",210.5001,0.0,44.0,44.0,108.0,1.0,,,,,,,
,,,,,,,678d265eb819fdb2c5a362f9,6846a866269b30c6d305f7c5,2025-06-09_11h25.24.536,shape_ratio,2024.1.5,Win32,60.97560976,684250e4f00cb30b92d1fa88,,,,,,,,,,,210.5014,210.9996,,,211.2504,211.4326,right,,,,,,,,0.45,0.1719,,,,,,,210.9996,211.2503,211.4327,"[-0.10222011671670461,0.08893075279653481]",100.0,"[-0.012041949078265774,0.07810463279299065]",4.0,"[0.057288001067694945,-0.030694448794995163]",4.0,"[0.18913423455596412,0.04306864689463235]",4.0,"[0.12230103608732452,0.07291195924146296]",4.0,"[-0.04256036166754469,-0.1065046716599336]",4.0,"[0.07188384126397417,0.06722316412076895]",4.0,"[0.15440334990799254,-0.016270924845585295]",100.0,"[0.06893155870232011,-0.14907725611593883]",4.0,"[0.13954626055716812,-0.07762134613831892]",100.0,"[-0.12922180645746242,-0.13955586472182058]",100.0,"[-0.03093725576444966,-0.019775820407124067]",100.0,"[0.08914496115849115,0.14680846163459393]",4.0,"[0.17008332847269886,0.09702017105283064]",100.0,"[-0.07523297745066063,-0.027539050396335]",100.0,"[0.07168386157361209,-0.0771776472400984]",4.0,"[-0.1643165363486925,0.06515438646350746]",4.0,"[-0.062268131650677086,0.11354463410112972]",4.0,"[-0.08856219552935181,-0.1332449454127556]",4.0,"[-0.11333106155004904,0.15364052757459226]",4.0,"[-0.15076153739919662,-0.06356745658360027]",100.0,"[0.048017659118751,0.01644623746507404]",4.0,"[-0.02549295403035417,0.138546178862103]",100.0,"[0.18200402921918094,-0.05772021183836811]",100.0,"[0.12492987969510522,0.031511337818624974]",100.0,"[0.01026865342179902,-0.14214298116228105]",4.0,"[-0.1749363101218544,-0.09557947413335516]",100.0,"[-0.05493135507549976,-0.1655692633856598]",4.0,"[0.039633873627488915,0.16458256567113747]",100.0,"[-0.007912955262843637,-0.19204717674289631]",4.0,"[0.10543066289957016,-0.1154996076714462]",100.0,"[0.13037678831907332,0.12839629735800195]",4.0,"[0.02,0.02]",212.5352,0.0,45.0,45.0,138.0,1.0,,,,,,,
,,,,,,,678d265eb819fdb2c5a362f9,6846a866269b30c6d305f7c5,2025-06-09_11h25.24.536,shape_ratio,2024.1.5,Win32,60.97560976,684250e4f00cb30b92d1fa88,,,,,,,,,,,212.5365,213.0351,,,213.2866,213.7879,left,,,,,,,,0.5,0.4949,,,,,,,213.0352,213.2865,213.788,"[0.10634370273975438,-0.040323997207691614]",100.0,"[0.048961167983459196,0.12554574868354598]",100.0,"[-0.01550281886979526,0.13385798838951538]",4.0,"[-0.12609084678882587,-0.14758718045405178]",100.0,"[0.10195855955205228,0.027325943094922665]",4.0,"[0.06125862185524193,-0.18835699358716884]",4.0,"[0.046067695348427626,-0.04338195525744308]",100.0,"[-0.1919461055456857,0.022421575668728117]",100.0,"[0.1508602921444301,0.10577867396850095]",4.0,"[-0.07671256753505794,0.05862711408112818]",100.0,"[-0.12320591198393012,-0.03421497014550084]",4.0,"[0.14884996829559077,-0.05396851590140217]",100.0,"[-0.04485234507596442,-0.13429235162893927]",4.0,"[0.1450576692557007,-0.1032210370518329]",4.0,"[-0.025884545808335612,-0.07342236853809367]",4.0,"[-0.16043113529511094,-0.06109195538171569]",4.0,"[0.05893738813803015,0.07856955112814148]",100.0,"[-0.18198481545480807,-0.02636084610203927]",100.0,"[-0.14310664292753833,0.11802366296570409]",4.0,"[0.14904101942661382,-0.006692166129134045]",100.0,"[0.08091829870477926,0.1513164399401034]",4.0,"[-0.132301257175474,0.05208129514070147]",4.0,"[0.043056991900939534,-0.10056770294315415]",100.0,"[-0.09920695885312801,0.13886680659426182]",4.0,"[-0.06463467269272657,-0.09225107091940705]",100.0,"[0.025255365616364392,0.1819066406814847]",100.0,"[0.02259544967493068,-0.16967808326873904]",100.0,"[0.005127803829109492,-0.007452164949097631]",100.0,"[0.019946711985772313,0.06803581070786358]",100.0,"[-0.06610552441796225,-0.014520189682477407]",4.0,"[0.05948232891867674,0.012311313747347879]",4.0,"[0.13391156533254586,0.1455944793410021]",4.0,"[0.02,0.02]",214.8835,0.0,46.0,46.0,111.0,1.0,,,,,,,
,,,,,,,678d265eb819fdb2c5a362f9,6846a866269b30c6d305f7c5,2025-06-09_11h25.24.536,shape_ratio,2024.1.5,Win32,60.97560976,684250e4f00cb30b92d1fa88,,,,,,,,,,,214.8845,215.3851,,,215.6358,216.1535,left,,,,,,,,0.9,0.5126,,,,,,,215.3852,215.6357,216.1536,"[-0.0843367907094007,-0.03705938806214558]",100.0,"[-0.029081040202733447,-0.1422127591778177]",100.0,"[0.022499389571669536,0.10925628661273991]",100.0,"[-0.0383233005451437,0.016295124111781162]",100.0,"[-0.12940289300342017,-0.04148616631125853]",100.0,"[-0.11372244043560344,0.022899537707305778]",100.0,"[0.04530708162426372,0.19021545950621363]",100.0,"[-0.0744910746628336,0.10074426112886722]",100.0,"[-0.0631759087713296,-0.1890337621727365]",100.0,"[0.10594823865807006,-0.16944058686861166]",100.0,"[0.1278214087639339,0.051492300354896964]",100.0,"[0.11381073663215314,-0.05711659341291579]",100.0,"[-0.029933017886066872,-0.06942806140185692]",100.0,"[0.1669965218521864,0.10204524195062148]",100.0,"[0.06550346562665739,-0.13766474812235382]",100.0,"[0.058932941626988526,-0.17977218010423568]",4.0,"[-0.055381422114725895,0.14563619687250054]",100.0,"[-0.1609176605965697,0.05860599251021688]",100.0,"[0.007876674712190513,-0.01330987790600586]",100.0,"[0.1277807404309227,-0.1319960604855985]",100.0,"[0.15198523460045107,0.004113001101713505]",100.0,"[0.0036770952380115467,0.17473834534491603]",100.0,"[-0.09095077398587217,-0.1567032453585737]",100.0,"[0.07972653240152873,0.1333003872783261]",100.0,"[0.07739699034285423,0.0004775880117040923]",4.0,"[-0.11454282720396661,0.07633743910979089]",100.0,"[0.013705250013127286,-0.10242166161275579]",100.0,"[-0.10193610453803506,-0.08319695562412224]",4.0,"[0.07009286751447748,-0.094289164808161]",100.0,"[0.044329231483612876,0.06098300537877725]",100.0,"[-0.18659980295021164,0.023272349098070643]",100.0,"[-0.11125880567977467,0.1422269255050432]",100.0,"[0.02,0.02]",217.2507,0.0,47.0,47.0,1.0,1.0,,,,,,,
,,,,,,,678d265eb819fdb2c5a362f9,6846a866269b30c6d305f7c5,2025-06-09_11h25.24.536,shape_ratio,2024.1.5,Win32,60.97560976,684250e4f00cb30b92d1fa88,,,,,,,,,,,217.2522,217.7507,,,218.001,218.4192,right,,,,,,,,0.1,0.4052,,,,,,,217.7513,218.001,218.4192,"[0.025124054670796734,0.08097990427025066]",4.0,"[0.13961686185687044,0.11940811970346646]",4.0,"[-0.17674858950786007,-0.02812658461164966]",4.0,"[0.018085765056737937,0.00661815207002563]",4.0,"[0.02606815314806242,-0.14976137496380215]",4.0,"[-0.12426886797204378,0.008248481878788332]",4.0,"[0.15755416100573677,0.0562890451933628]",4.0,"[-0.09308240232466275,-0.02180142258098147]",4.0,"[0.151880361786356,-0.02304382346632877]",4.0,"[-0.09663218981881405,-0.06165477697081928]",4.0,"[0.0032405900342292312,-0.19882815402104065]",4.0,"[-0.1397671620027359,0.10416386193508972]",4.0,"[-0.024293117685703507,0.0723543286290155]",4.0,"[0.06712467130871268,-0.0021990774612606055]",4.0,"[0.07769936582746698,0.047517711744140274]",4.0,"[-0.019939154691466624,0.15969881673325]",4.0,"[0.033917159035492535,0.15227027469796164]",100.0,"[0.0715767013846313,-0.1303418516947947]",4.0,"[0.08863111439911237,0.09055062025196978]",4.0,"[-0.14605457578197156,-0.13545176848553656]",4.0,"[-0.00279548081487193,-0.07118128744389711]",4.0,"[-0.01424436075743606,-0.11926218284737311]",100.0,"[-0.03082400505996744,0.003071458878176961]",4.0,"[-0.107464356264384,-0.11072476637589107]",4.0,"[-0.08340485311617325,-0.15339009049834293]",4.0,"[-0.1731532183273151,-0.0786292525655664]",100.0,"[-0.1983632462576764,0.01921094417161657]",4.0,"[-0.07088069608844987,0.1345528448532369]",4.0,"[-0.05816722561214307,-0.08864408683857469]",4.0,"[0.14112577813736582,-0.12822359225866703]",4.0,"[0.09524945930441886,-0.06964813012978209]",4.0,"[0.0799520681809537,0.16363338286548795]",4.0,"[0.02,0.02]",219.5186,0.0,48.0,48.0,196.0,1.0,,,,,,,
,,,,,,,678d265eb819fdb2c5a362f9,6846a866269b30c6d305f7c5,2025-06-09_11h25.24.536,shape_ratio,2024.1.5,Win32,60.97560976,684250e4f00cb30b92d1fa88,,,,,,,,,,,219.5196,220.0192,,,220.2669,220.6994,left,,,,,,,,0.5,0.4202,,,,,,,220.0192,220.2668,220.6995,"[0.17835136859842116,-0.03171139287622714]",100.0,"[-0.18979494102939706,0.054687927300092934]",100.0,"[-0.014912030755577886,0.13669935454228727]",100.0,"[-0.11974228251995117,-0.14795070761118204]",4.0,"[0.05518781071573145,-0.0009179830841404548]",4.0,"[-0.09497301737145948,-0.011603757722340737]",4.0,"[0.06756539153632116,0.07721379860127826]",4.0,"[-0.04491783539917634,0.10388928433363923]",100.0,"[-0.04738112392519959,-0.01908530797974495]",100.0,"[0.1645017743013823,0.0668038411321365]",100.0,"[-0.028164073574454412,-0.06681217325345433]",100.0,"[-0.027433839952217116,0.05950214055948053]",4.0,"[0.11695697800281048,0.15189011714347841]",100.0,"[0.015672741416019847,0.09423001331788267]",100.0,"[0.1274442031135506,-0.1486379213654988]",4.0,"[0.06837418173575036,-0.0471608927925608]",4.0,"[0.013749293721733145,0.001236686773514744]",100.0,"[0.09812204739999755,-0.1115487679365081]",4.0,"[0.10174980292723258,0.02083243064961966]",4.0,"[-0.10305680546277426,0.14212207716566963]",4.0,"[-0.12493628863784972,0.06649992472907276]",100.0,"[0.05809272311465812,0.1896374849279441]",4.0,"[0.11113380487216623,-0.05674037083803825]",100.0,"[0.010903750433881294,-0.042739930284721284]",4.0,"[-0.07054247846338027,-0.1240512478255195]",4.0,"[-0.18098064016775264,0.0015081774379503519]",100.0,"[0.14953040271382453,-0.08528859920654978]",100.0,"[-0.17935443324556846,-0.08321620370311818]",100.0,"[0.029125803647446158,-0.08872395647241949]",100.0,"[-0.13735556478662078,0.010305153618160959]",4.0,"[-0.13567221826245005,0.11767114543276566]",4.0,"[0.004093980787931935,0.19638735601149088]",4.0,"[0.02,0.02]",221.7992,0.0,49.0,49.0,105.0,1.0,,,,,,,
