right,left,explain.started,explain.stopped,key_resp_3.keys,key_resp_3.rt,key_resp_3.duration,participant,session,date,expName,psychopyVersion,OS,frameRate,study_id,explain_2.started,explain_2.stopped,key_resp_4.keys,key_resp_4.rt,key_resp_4.duration,explain_3.started,explain_3.stopped,key_resp_5.keys,key_resp_5.rt,key_resp_5.duration,fixation.started,fixation.stopped,practice.started,practice.stopped,response.started,response.stopped,key_resp.keys,feedback.started,feedback.stopped,trials_2.thisRepN,trials_2.thisTrialN,trials_2.thisN,trials_2.thisIndex,trials_2.ran,dot_ratio,key_resp.rt,key_resp.duration,explain_4.started,explain_4.stopped,key_resp_6.keys,key_resp_6.rt,key_resp_6.duration,dotDisplay.started,dotDisplay.stopped,ITI.started,polygon_1.pos,polygon_1.edges,polygon_2.pos,polygon_2.edges,polygon_3.pos,polygon_3.edges,polygon_4.pos,polygon_4.edges,polygon_5.pos,polygon_5.edges,polygon_6.pos,polygon_6.edges,polygon_7.pos,polygon_7.edges,polygon_8.pos,polygon_8.edges,polygon_9.pos,polygon_9.edges,polygon_10.pos,polygon_10.edges,polygon_11.pos,polygon_11.edges,polygon_12.pos,polygon_12.edges,polygon_13.pos,polygon_13.edges,polygon_14.pos,polygon_14.edges,polygon_15.pos,polygon_15.edges,polygon_16.pos,polygon_16.edges,polygon_17.pos,polygon_17.edges,polygon_18.pos,polygon_18.edges,polygon_19.pos,polygon_19.edges,polygon_20.pos,polygon_20.edges,polygon_21.pos,polygon_21.edges,polygon_22.pos,polygon_22.edges,polygon_23.pos,polygon_23.edges,polygon_24.pos,polygon_24.edges,polygon_25.pos,polygon_25.edges,polygon_26.pos,polygon_26.edges,polygon_27.pos,polygon_27.edges,polygon_28.pos,polygon_28.edges,polygon_29.pos,polygon_29.edges,polygon_30.pos,polygon_30.edges,polygon_31.pos,polygon_31.edges,polygon_32.pos,polygon_32.edges,dot_size,ITI.stopped,trials.thisRepN,trials.thisTrialN,trials.thisN,trials.thisIndex,trials.ran,break_2.started,break_2.stopped,trials_3.thisRepN,trials_3.thisTrialN,trials_3.thisN,trials_3.thisIndex,trials_3.ran
subject chose dot,subject chose diamond,0.0003,69.5169,space,54.4951,,68272b1f7a7966395e63196d,6843917e8adeadd9d3902052,2025-06-06_18h10.58.870,shape_ratio,2024.1.5,Win32,59.88023952,6842b561977af9ba9b0f87ca,,,,,,,,,,,,,,,,,,,,,,,,,,,,,,,,,,,,,,,,,,,,,,,,,,,,,,,,,,,,,,,,,,,,,,,,,,,,,,,,,,,,,,,,,,,,,,,,,,,,,,,,,,,,,,,,,
,,,,,,,68272b1f7a7966395e63196d,6843917e8adeadd9d3902052,2025-06-06_18h10.58.870,shape_ratio,2024.1.5,Win32,59.88023952,6842b561977af9ba9b0f87ca,69.518,114.0629,space,14.5195,,,,,,,,,,,,,,,,,,,,,,,,,,,,,,,,,,,,,,,,,,,,,,,,,,,,,,,,,,,,,,,,,,,,,,,,,,,,,,,,,,,,,,,,,,,,,,,,,,,,,,,,,,,,,
,,,,,,,68272b1f7a7966395e63196d,6843917e8adeadd9d3902052,2025-06-06_18h10.58.870,shape_ratio,2024.1.5,Win32,59.88023952,6842b561977af9ba9b0f87ca,,,,,,114.0636,118.527,space,1.4459,,,,,,,,,,,,,,,,,,,,,,,,,,,,,,,,,,,,,,,,,,,,,,,,,,,,,,,,,,,,,,,,,,,,,,,,,,,,,,,,,,,,,,,,,,,,,,,,,,,,,,,,
,,,,,,,68272b1f7a7966395e63196d,6843917e8adeadd9d3902052,2025-06-06_18h10.58.870,shape_ratio,2024.1.5,Win32,59.88023952,6842b561977af9ba9b0f87ca,,,,,,,,,,,118.5733,119.0428,119.0437,119.2932,119.2935,120.7911,,120.7913,121.8906,0.0,0.0,0.0,0.0,1.0,0.2,,,,,,,,,,,,,,,,,,,,,,,,,,,,,,,,,,,,,,,,,,,,,,,,,,,,,,,,,,,,,,,,,,,,,,,,,,,,,,,,,,,,,,,,
,,,,,,,68272b1f7a7966395e63196d,6843917e8adeadd9d3902052,2025-06-06_18h10.58.870,shape_ratio,2024.1.5,Win32,59.88023952,6842b561977af9ba9b0f87ca,,,,,,,,,,,121.8914,122.3907,122.3908,122.6417,122.6418,123.157,right,123.1575,124.2561,0.0,1.0,1.0,1.0,1.0,0.8,0.4925,,,,,,,,,,,,,,,,,,,,,,,,,,,,,,,,,,,,,,,,,,,,,,,,,,,,,,,,,,,,,,,,,,,,,,,,,,,,,,,,,,,,,,,
,,,,,,,68272b1f7a7966395e63196d,6843917e8adeadd9d3902052,2025-06-06_18h10.58.870,shape_ratio,2024.1.5,Win32,59.88023952,6842b561977af9ba9b0f87ca,,,,,,,,,,,,,,,,,,,,,,,,,,,,124.2569,130.5051,space,3.2268,,,,,,,,,,,,,,,,,,,,,,,,,,,,,,,,,,,,,,,,,,,,,,,,,,,,,,,,,,,,,,,,,,,,,,,,,,,,,,,,,,
,,,,,,,68272b1f7a7966395e63196d,6843917e8adeadd9d3902052,2025-06-06_18h10.58.870,shape_ratio,2024.1.5,Win32,59.88023952,6842b561977af9ba9b0f87ca,,,,,,,,,,,130.5475,131.0202,,,131.2727,131.8202,right,,,,,,,,0.45,0.5162,,,,,,,131.0211,131.2726,131.8213,"[-0.00727424909953523,-0.006534593049198744]",4.0,"[-0.143851943617054,-0.09033014329304162]",100.0,"[-0.06188462903050931,0.07079755700306874]",4.0,"[-0.10922287905426487,-0.1261381323998118]",100.0,"[0.07167286073114017,0.15684116555562003]",4.0,"[0.03874335888447311,0.0813580919622959]",4.0,"[0.1782108904247947,-0.08720742461239628]",100.0,"[0.01699903512394481,-0.08370161584139858]",100.0,"[-0.04374961640923997,-0.15360768301376815]",100.0,"[0.08109903565821612,0.11165238810723133]",100.0,"[-0.1156521846141501,-0.002946791550283068]",4.0,"[-0.06649171626898442,0.005857655598604111]",100.0,"[0.05882480222007248,-0.1440027989924516]",100.0,"[-0.12884299438674496,0.05381436943321631]",100.0,"[-0.09400617036228001,-0.06041279774904079]",4.0,"[0.12419298091104455,-0.052035830988917633]",4.0,"[-0.13268400641280778,-0.049068531966049045]",4.0,"[-0.013159005836198003,0.05569681646012748]",100.0,"[-0.12160017963905681,0.1214447904352662]",4.0,"[-0.031405562946779875,-0.0877498615277811]",100.0,"[-0.01854214357424393,-0.0475998846440428]",4.0,"[-0.04787239226675172,0.14142320594597824]",4.0,"[0.03564805858711163,0.03828151541281108]",4.0,"[0.08800990014460514,-0.01128478266795769]",4.0,"[0.16689562072117942,0.03764562324346956]",4.0,"[0.14811597613315503,0.13130875902590505]",4.0,"[0.001450489166646809,0.10077202147881661]",100.0,"[0.10806673655648354,-0.12753066326515727]",4.0,"[-0.18791875839068126,0.06332180105472075]",4.0,"[-0.013680764671976889,-0.18624569200071628]",100.0,"[-0.17733121408609193,-0.018317407608409247]",4.0,"[0.1759760968851705,0.08103637239742675]",100.0,"[0.02,0.02]",132.9199,0.0,0.0,0.0,140.0,1.0,,,,,,,
,,,,,,,68272b1f7a7966395e63196d,6843917e8adeadd9d3902052,2025-06-06_18h10.58.870,shape_ratio,2024.1.5,Win32,59.88023952,6842b561977af9ba9b0f87ca,,,,,,,,,,,132.9213,133.4189,,,133.6698,134.4523,right,,,,,,,,0.4,0.7589,,,,,,,133.419,133.6697,134.4525,"[-0.12560374609989197,0.1342996280016436]",100.0,"[0.0762031165133736,0.15488100971260824]",4.0,"[0.17520059303484958,0.03624851753422802]",100.0,"[-0.12574072543649803,0.012924837889739783]",100.0,"[-0.1611857786991825,0.1130609860338212]",4.0,"[-0.012415761808854424,-0.11941738165923016]",100.0,"[0.0743075876791207,-0.09812884651344214]",100.0,"[-0.09960988938698122,-0.06417399299914903]",4.0,"[0.007106884580303317,0.002447659221482141]",4.0,"[-0.18346643983870314,-0.012573584301006321]",4.0,"[0.08549858791363928,0.04743699475212966]",100.0,"[0.06606954834749001,-0.05853762789996172]",100.0,"[-0.05756139796232382,-0.04108894879121735]",100.0,"[0.12997078199314338,-0.145318593046824]",4.0,"[-0.0759900721233107,0.13646588556053332]",4.0,"[0.1697343569834087,-0.030104867460130347]",4.0,"[0.003261227265540869,0.09771919957465465]",100.0,"[0.14431423626156775,0.06920126448380477]",4.0,"[-0.08211286098996635,-0.00029514045819865306]",4.0,"[0.07989514346273302,0.10788696947773495]",4.0,"[-0.05689339767419536,-0.1377812069448762]",4.0,"[0.025257924421708006,-0.10403786152493229]",4.0,"[0.0619170039749881,-0.18361655303284793]",100.0,"[0.02919175144541824,0.15230122382558262]",4.0,"[-0.017315830325536415,0.17927712664417303]",4.0,"[0.13739495981921457,0.02217122277894305]",100.0,"[-0.006981998033292405,-0.19266137438675507]",4.0,"[0.06280894681281167,-0.012505927032759304]",100.0,"[-0.15488697637635954,0.04671357858473554]",4.0,"[-0.03211183514263099,-0.08297871808887201]",4.0,"[-0.0854001544660456,0.08189142011470307]",100.0,"[0.14787735378427383,0.1128705214789347]",4.0,"[0.02,0.02]",135.5513,0.0,1.0,1.0,173.0,1.0,,,,,,,
,,,,,,,68272b1f7a7966395e63196d,6843917e8adeadd9d3902052,2025-06-06_18h10.58.870,shape_ratio,2024.1.5,Win32,59.88023952,6842b561977af9ba9b0f87ca,,,,,,,,,,,135.5525,136.0511,,,136.2917,136.818,left,,,,,,,,0.9,0.5014,,,,,,,136.0512,136.2916,136.8182,"[-0.04260353793208456,0.16690929198710852]",100.0,"[-0.08338829810923663,0.04971904247487084]",100.0,"[-0.07676785494944355,-0.09868776178107977]",100.0,"[0.0010788234497950942,-0.057510898624025523]",100.0,"[0.13108741712423772,-0.13788154514788575]",100.0,"[0.03782197600175697,-0.1001689278504156]",100.0,"[0.029650906187543555,0.14068406154585675]",100.0,"[-0.0778413192780445,0.11732576061698848]",100.0,"[0.050295858229818934,0.03713854699770379]",100.0,"[-0.11314344870751677,-0.129358138952835]",100.0,"[-0.09415879556002621,-0.03374732339829725]",100.0,"[0.1414161824199181,-0.022758476130799753]",4.0,"[0.10493881662337916,0.12318498494066947]",4.0,"[-0.02517637002514548,0.032678073181869736]",100.0,"[0.0009332211234201253,0.000523745294346555]",100.0,"[0.015046117860856693,0.06082619340293567]",100.0,"[-0.15507126268164056,0.08773856303691105]",100.0,"[-0.07592116362809288,-0.1764916207524211]",100.0,"[0.18961029890750558,-0.041653972725603707]",100.0,"[-0.1282373823250249,0.02455636239481883]",100.0,"[-0.18638646864819802,-0.045474722410747216]",100.0,"[-0.019752869570195567,-0.11711758191366588]",100.0,"[-0.1824131088258577,0.03815485750474265]",100.0,"[-0.0878987073991386,0.1654938185056986]",100.0,"[0.1010324344513269,-0.04967137069199463]",4.0,"[0.09226561981971383,-0.17510174352676047]",100.0,"[0.12349399608663104,0.06935862835437398]",100.0,"[0.16684786885138717,0.08979484771918908]",100.0,"[0.18142739400442565,0.033604773345047745]",100.0,"[-0.035205857154645144,-0.15627162296362518]",100.0,"[0.013030917487443951,-0.19567223691232163]",100.0,"[0.0933998866659849,-0.1194648812645464]",100.0,"[0.02,0.02]",137.9172,0.0,2.0,2.0,15.0,1.0,,,,,,,
,,,,,,,68272b1f7a7966395e63196d,6843917e8adeadd9d3902052,2025-06-06_18h10.58.870,shape_ratio,2024.1.5,Win32,59.88023952,6842b561977af9ba9b0f87ca,,,,,,,,,,,137.9183,138.4165,,,138.6677,138.8341,right,,,,,,,,0.5,0.1349,,,,,,,138.4166,138.6675,138.8342,"[-0.044239401622644475,-0.14392319861956096]",4.0,"[-0.10556702302785208,-0.008024493994994957]",100.0,"[-0.053025712799625556,-0.0054927253047648145]",4.0,"[0.05094360947526452,-0.038214483283786155]",100.0,"[-0.15336816988930618,-0.0983121552881524]",100.0,"[0.17286922703110227,-0.003580306892379936]",4.0,"[0.14023339377925303,0.03660510637323468]",4.0,"[0.0046988237629692975,0.006693286322193961]",4.0,"[0.08391136443287457,0.025233400881738435]",4.0,"[0.04652074584898557,0.06082670355624238]",100.0,"[-0.17016677247021086,0.03833687537466733]",100.0,"[0.12113111157625696,-0.11458581481709132]",100.0,"[-0.06502970662131335,0.177805455524164]",100.0,"[-0.12595157676540997,-0.13528858420589637]",4.0,"[-0.04607310622147826,0.12622292354404457]",100.0,"[0.06881753981467485,-0.1837241275296798]",4.0,"[-0.09762630448177417,0.1359041533006278]",100.0,"[0.01515718078505268,-0.1842888348503742]",100.0,"[0.07627102400665361,-0.12057802412371568]",4.0,"[0.047104535908584315,0.10523226076934733]",100.0,"[-0.020591723954500273,0.1699546675695698]",4.0,"[-0.07111308771838266,0.07603948642731467]",4.0,"[-0.012985622745061738,-0.044077306604168504]",4.0,"[-0.19589035877248273,-0.03747736307785213]",100.0,"[-0.0198608067763458,0.05348349053248405]",4.0,"[0.0469588080169605,0.17880245588751098]",4.0,"[0.10006881137466124,-0.021908817963428494]",100.0,"[0.1685038611359052,-0.0989522367134572]",100.0,"[0.026560334086592256,-0.1449408211618631]",100.0,"[-0.06663107638926395,-0.05694546269289775]",4.0,"[0.0874370610194843,-0.07268783658943254]",4.0,"[-0.154159619077341,-0.024795148101368614]",100.0,"[0.02,0.02]",139.9327,0.0,3.0,3.0,116.0,1.0,,,,,,,
,,,,,,,68272b1f7a7966395e63196d,6843917e8adeadd9d3902052,2025-06-06_18h10.58.870,shape_ratio,2024.1.5,Win32,59.88023952,6842b561977af9ba9b0f87ca,,,,,,,,,,,139.9339,140.4324,,,140.6834,140.7822,left,,,,,,,,0.4,0.0836,,,,,,,140.4326,140.6833,140.7823,"[-0.10900882181173659,0.15962243802478485]",4.0,"[0.04311398013347709,-0.013763107535207283]",100.0,"[0.024115536100287688,-0.050518548301872336]",4.0,"[0.17993315368149534,-0.02945055597647533]",4.0,"[0.034347178863108264,-0.18357893095346978]",4.0,"[-0.14841446854111076,-0.04232276493875785]",4.0,"[0.11816630105885761,0.06527659098427645]",100.0,"[-0.03531974935380718,-0.1014965526699235]",4.0,"[0.16526964550960946,0.009035095897334894]",4.0,"[0.07163829283934939,-0.11053611062619485]",100.0,"[0.10526926097457616,-0.001602284068301236]",4.0,"[-0.10461631969370246,0.07547306361365072]",4.0,"[-0.16546256078679308,0.0878625916681396]",4.0,"[-0.0021837970380001316,0.17099675987683155]",100.0,"[-0.13064324748249762,-0.0815615356130565]",100.0,"[0.060217948074452916,0.09379200139215144]",4.0,"[-0.03816951109117059,0.11253388354715127]",100.0,"[-0.016863380097409092,0.02889681268485176]",100.0,"[0.1076398157113354,-0.0425861292761547]",4.0,"[-0.0801060090476868,-0.12686324350821634]",100.0,"[0.048105344744835736,0.040372982786201723]",4.0,"[0.04283277581198392,0.16308779446180058]",4.0,"[-0.08352893238518058,-0.014272060959589336]",100.0,"[0.15845033605814232,0.07946071374177192]",100.0,"[0.15934069006132315,-0.08297088075865496]",4.0,"[0.005441674095697677,-0.14887477669531218]",4.0,"[-0.17739489603220454,0.01871379618345397]",100.0,"[-0.028516614622147437,-0.18255335484254667]",100.0,"[0.08340836125485235,0.14095700606734307]",100.0,"[-0.124948713067651,0.021217843030219827]",4.0,"[0.08729398065306945,-0.17092031912386982]",4.0,"[0.02531584134010571,0.11792801554525147]",4.0,"[0.02,0.02]",141.8822,0.0,4.0,4.0,175.0,1.0,,,,,,,
,,,,,,,68272b1f7a7966395e63196d,6843917e8adeadd9d3902052,2025-06-06_18h10.58.870,shape_ratio,2024.1.5,Win32,59.88023952,6842b561977af9ba9b0f87ca,,,,,,,,,,,141.8833,142.3817,,,142.6326,142.7657,right,,,,,,,,0.5,0.1018,,,,,,,142.3817,142.6325,142.7658,"[-0.18446686206750548,-0.04093939613553002]",100.0,"[-0.03199655417618213,0.18923279729833972]",100.0,"[-0.10378572258074187,0.12053779732812787]",4.0,"[-0.07205059731528952,-0.11100301671364575]",4.0,"[-0.03753473317262654,-0.07496409758955475]",100.0,"[0.12948950050051306,0.09956092059369441]",4.0,"[0.09048200373552974,0.11799565429311747]",100.0,"[-0.034862488532649276,0.0437472930794549]",4.0,"[0.09533466653862464,-0.0688433909729747]",100.0,"[-0.019067483744238715,-0.14946685862171483]",100.0,"[0.06847447050153989,-0.13455982030374186]",4.0,"[0.04203002174542279,0.15432877452355956]",4.0,"[0.0197951699568757,0.02574815383140661]",4.0,"[0.16992194064409075,0.037071424248226154]",100.0,"[0.16965283806173886,-0.02708175708867337]",4.0,"[-0.08532757979688643,0.16449681597448296]",4.0,"[0.13994715553804526,-0.08719982699925968]",4.0,"[-0.10780230676876745,0.045633118811509735]",4.0,"[0.04087084771137472,0.09813511889219946]",100.0,"[-0.036371553213889005,-0.023602933745026082]",100.0,"[0.09515963305531656,0.0576744539018392]",100.0,"[-0.13712606724148438,-0.0663699315797794]",4.0,"[-0.023560832994670305,0.09295293279828916]",4.0,"[0.09011491087932817,-0.003706848524822618]",100.0,"[0.0003835992783143529,0.15987971544201215]",4.0,"[-0.08694801668061077,-0.05614876968795734]",100.0,"[-0.044312407536026804,0.12986295140716692]",100.0,"[0.001302283428073347,-0.11109871094634947]",100.0,"[-0.13274510319066618,0.08946244639489186]",4.0,"[-0.18383298021448027,0.037076254328218435]",100.0,"[0.07756764889057023,-0.1822875570642712]",100.0,"[0.0419340072351821,-0.05728374833955137]",4.0,"[0.02,0.02]",143.8646,0.0,5.0,5.0,100.0,1.0,,,,,,,
,,,,,,,68272b1f7a7966395e63196d,6843917e8adeadd9d3902052,2025-06-06_18h10.58.870,shape_ratio,2024.1.5,Win32,59.88023952,6842b561977af9ba9b0f87ca,,,,,,,,,,,143.8656,144.364,,,144.6147,144.7977,right,,,,,,,,0.4,0.1692,,,,,,,144.3642,144.6146,144.7977,"[0.06423033887884991,-0.07184156858479832]",100.0,"[-0.020100372030967255,0.16892336946784836]",4.0,"[0.05675578018640988,-0.19039472217655187]",4.0,"[-0.06540450073124089,-0.11773629099643318]",4.0,"[-0.1249673448671183,-0.08122981374964941]",4.0,"[0.1514598734667941,-0.030847707584285674]",100.0,"[-0.00031625562622553414,-0.18213197251835037]",100.0,"[-0.14044885824939365,0.1152843401461929]",100.0,"[-0.05457161766732589,0.024602388513966008]",100.0,"[0.08535339926963569,0.17863973060647675]",100.0,"[-0.09494839193663644,-0.02008706360320747]",100.0,"[-0.02967942852094694,-0.02642997584736171]",100.0,"[0.015963375149249157,-0.018970852432644267]",4.0,"[-0.08078423311000259,-0.17772281708748747]",4.0,"[0.07897763657342952,0.03831796351153112]",4.0,"[-0.06702295730682506,0.1718675118581192]",100.0,"[-0.17428892175205168,0.06814447379184521]",4.0,"[0.02097225008832331,0.07007853448812969]",4.0,"[0.05669485731981223,0.08813797792898204]",4.0,"[-0.08936391907699243,0.11776889810029634]",100.0,"[-0.05460328314683054,-0.07407081480215488]",4.0,"[0.12640092705927156,-0.06776084293252893]",4.0,"[0.11342830143669738,0.10953350001733474]",4.0,"[0.010755345821155192,-0.07835995432180527]",4.0,"[0.09452410265683692,-0.12095277237142116]",4.0,"[-0.18581055415215803,0.012523285750184951]",4.0,"[0.05646289376558644,-0.005309965643747912]",100.0,"[0.17956840822658432,-0.07515188244410329]",100.0,"[-0.16717119865960556,-0.06608164279744312]",4.0,"[0.03885000810575751,0.18247656241046628]",4.0,"[0.13785742355412506,0.045387123840590675]",4.0,"[0.16275070217570906,0.07872417291751387]",100.0,"[0.02,0.02]",145.8966,0.0,6.0,6.0,155.0,1.0,,,,,,,
,,,,,,,68272b1f7a7966395e63196d,6843917e8adeadd9d3902052,2025-06-06_18h10.58.870,shape_ratio,2024.1.5,Win32,59.88023952,6842b561977af9ba9b0f87ca,,,,,,,,,,,145.8973,146.3968,,,146.6472,147.413,right,,,,,,,,0.9,0.7414,,,,,,,146.3969,146.6472,147.4131,"[-0.07226719088391827,0.12962810501124164]",100.0,"[0.015063844561443664,-0.021790194024348453]",100.0,"[-0.07350561009678304,-0.12312556537737136]",100.0,"[0.05250656369854534,0.03493577302866134]",100.0,"[0.0073448950216226825,0.13813629181416417]",100.0,"[-0.12654178872148156,0.045754874121578144]",100.0,"[0.08758097108519683,0.1245903275232923]",100.0,"[-0.0961791399795394,0.07957722155862881]",100.0,"[-0.18816364309766187,0.039937200378008464]",4.0,"[0.1341474449549197,-0.09325367977081078]",4.0,"[-0.1516966790261278,0.004824464101195874]",100.0,"[0.05811355301680624,-0.14455881919348684]",100.0,"[-0.02627988527747909,0.18518338468018444]",100.0,"[-0.02302564288975963,-0.15935216733847166]",100.0,"[-0.02667962346283749,-0.09686041959742611]",100.0,"[-0.061856187973305596,-0.04644886738954459]",100.0,"[-0.027109198515534966,0.0950330044048705]",100.0,"[-0.009475124800156618,0.02091634140354916]",100.0,"[-0.11285517752430034,0.12175382900244186]",100.0,"[-0.10761415565202011,-0.03544111911647482]",100.0,"[0.14505614353198826,0.053081181566943844]",100.0,"[-0.14571763518068587,-0.07997461861366943]",100.0,"[-0.10635915762020662,0.005119024260272271]",100.0,"[0.09534712410593028,-0.16156812889406083]",100.0,"[0.10252410564384765,0.03263250375333232]",100.0,"[0.014120974921886095,0.08329493379722555]",100.0,"[0.07856925520024628,-0.05050581636053616]",100.0,"[0.15011119570638518,-0.024756149627843258]",100.0,"[-0.00007998110664894981,-0.19275347805158324]",100.0,"[-0.04025101151965843,0.05526191848599476]",100.0,"[-0.10988895610369671,0.16465198934497602]",100.0,"[0.12781359225072603,0.13983981635663773]",4.0,"[0.02,0.02]",148.5125,0.0,7.0,7.0,23.0,1.0,,,,,,,
,,,,,,,68272b1f7a7966395e63196d,6843917e8adeadd9d3902052,2025-06-06_18h10.58.870,shape_ratio,2024.1.5,Win32,59.88023952,6842b561977af9ba9b0f87ca,,,,,,,,,,,148.5136,149.0124,,,149.2625,149.5287,right,,,,,,,,0.1,0.2561,,,,,,,149.0125,149.2625,149.5287,"[0.0846643641957495,0.10663751915026574]",4.0,"[0.045306610357841136,-0.08179208900267006]",4.0,"[-0.15003110470816833,-0.06683334942194201]",4.0,"[-0.10442785748277554,0.05206703732969641]",4.0,"[0.16640062402760258,0.05889030798339435]",4.0,"[-0.02733642717271769,-0.013868376360686465]",4.0,"[0.03678954776845039,-0.1848372539746726]",4.0,"[0.07442987593201808,0.1766716967188188]",4.0,"[-0.08802338382409247,-0.15004474136991577]",4.0,"[-0.15916886050297094,0.02128062741367179]",4.0,"[0.07031266658005983,0.02235747893434911]",4.0,"[0.08138838015732593,-0.15562845691144922]",4.0,"[0.12287474492785583,-0.1409231143491277]",4.0,"[0.09939321776129223,0.05727734357084016]",4.0,"[0.18973276511433457,-0.022200519852272508]",4.0,"[-0.10096706945076364,-0.050010122258263866]",4.0,"[-0.055093975089278616,0.13520628600925996]",4.0,"[-0.03697262367838207,-0.12798740974821055]",4.0,"[-0.11831285432946381,-0.0067670951940594125]",100.0,"[-0.12192939221852242,0.13053825141128866]",4.0,"[0.004974566610750103,0.04788483590444283]",4.0,"[0.016274068440722527,-0.03443310885383462]",100.0,"[0.0028548393882086784,-0.15912291862603264]",4.0,"[-0.05669118151736708,-0.04701834838066824]",100.0,"[0.1293580029517737,0.14915091205139963]",4.0,"[-0.08547974232872739,-0.1079537258285118]",4.0,"[-0.1999001382258399,-0.001821887539233309]",4.0,"[0.00554474077830493,-0.09794950433151069]",4.0,"[0.035864695708120745,0.1629213678890191]",4.0,"[0.0458692613107685,0.07121236384748814]",4.0,"[0.044943017065647635,-0.12794341828132996]",4.0,"[-0.056007376305558666,-0.18531942406347085]",4.0,"[0.02,0.02]",150.6281,0.0,8.0,8.0,188.0,1.0,,,,,,,
,,,,,,,68272b1f7a7966395e63196d,6843917e8adeadd9d3902052,2025-06-06_18h10.58.870,shape_ratio,2024.1.5,Win32,59.88023952,6842b561977af9ba9b0f87ca,,,,,,,,,,,150.6288,151.1272,,,151.3783,152.2439,left,,,,,,,,0.45,0.8339,,,,,,,151.1272,151.3783,152.2441,"[-0.18384368806756804,-0.037635908344514676]",4.0,"[0.09073381767971438,-0.0028892288541513137]",100.0,"[0.052813280895251564,-0.02117117816216963]",100.0,"[0.1911845921828941,0.03743431868945629]",4.0,"[-0.09159863648721106,0.01225579739362863]",4.0,"[-0.02648381875024458,-0.07620096899828582]",4.0,"[0.10500078070291446,-0.16314682906968372]",4.0,"[-0.00891136218201418,-0.11296868661906959]",100.0,"[0.13431061208753906,0.13726314790464492]",100.0,"[-0.08234341193351366,-0.10949497510117824]",100.0,"[0.09148538834864191,0.16762865055479098]",100.0,"[0.07729625828160633,-0.0638006930082782]",100.0,"[-0.0009744109024756755,-0.03895789035541584]",4.0,"[0.07103149437620418,-0.13008186062579294]",4.0,"[0.16091760870962765,0.07435951745564043]",4.0,"[-0.002533713098718151,-0.1707555355956422]",100.0,"[0.16678320461584267,-0.08431980133453738]",4.0,"[-0.03526508509680482,0.03502545344065175]",4.0,"[-0.10501989278085365,0.1257772224042712]",4.0,"[-0.15340754786455119,0.09811940174873979]",100.0,"[0.09258096333511816,0.0445304888257115]",4.0,"[-0.01602258653747847,0.18692596194545136]",4.0,"[0.053786708915687646,0.1833030979463568]",4.0,"[0.14526993649960523,0.0179672848935633]",4.0,"[0.13258314715476163,-0.05320817295653172]",100.0,"[0.17306410764140218,-0.03957146468444004]",100.0,"[-0.10287002998267168,-0.14785573072473815]",4.0,"[-0.11722722488509385,-0.026202810912359008]",4.0,"[-0.07756604487368737,0.060208665927479185]",100.0,"[-0.004234000989354451,0.07780019581017776]",100.0,"[-0.034961199773761144,0.1480591635773462]",100.0,"[0.006583201157439728,0.02872826705080198]",4.0,"[0.02,0.02]",153.3437,0.0,9.0,9.0,137.0,1.0,,,,,,,
,,,,,,,68272b1f7a7966395e63196d,6843917e8adeadd9d3902052,2025-06-06_18h10.58.870,shape_ratio,2024.1.5,Win32,59.88023952,6842b561977af9ba9b0f87ca,,,,,,,,,,,153.3446,153.8427,,,154.0967,154.5598,right,,,,,,,,0.6,0.4368,,,,,,,153.8427,154.0967,154.56,"[-0.04703745880208939,0.1475657252983407]",100.0,"[0.056385527921895134,-0.11287662901020615]",100.0,"[0.12845923033595516,0.14076880951727969]",4.0,"[-0.03106079717343489,-0.028681623396457037]",4.0,"[-0.09667557481414714,-0.11848049239717857]",100.0,"[0.1639463627427104,-0.09515577420922203]",4.0,"[-0.1059140592577023,0.018025665773630368]",100.0,"[0.12822217361631635,-0.00010488196201703019]",100.0,"[0.19043150605916126,-0.0088310738817015]",100.0,"[0.04454504598626237,0.06109822826026805]",4.0,"[0.11841217178639903,-0.1443496593744253]",100.0,"[-0.022279400742274108,-0.1543731104413458]",4.0,"[0.029963930112902562,0.11551553175947597]",100.0,"[-0.054738634852854164,-0.08718498521861545]",4.0,"[0.1492593128840207,-0.03898580521235527]",4.0,"[-0.03401655038092612,0.06095895357816522]",100.0,"[0.16690597301540053,0.04073727478449519]",4.0,"[0.12186595971625627,-0.09393170797686386]",100.0,"[0.008857205193303462,-0.18733743176014755]",100.0,"[0.06176945118880111,-0.012345870728342563]",100.0,"[0.08580176771945887,0.11748233287182244]",4.0,"[-0.17306390074643246,-0.03663701499380829]",4.0,"[0.12570855586630894,0.06512909504369406]",4.0,"[-0.09358523882223058,0.09938954642959721]",100.0,"[-0.08924712658424698,-0.026239527503317282]",100.0,"[0.07690901234576783,0.16085348130123292]",4.0,"[-0.08948523099800691,0.05549070447833726]",100.0,"[-0.11951453352272293,-0.07239511296680703]",4.0,"[-0.1852323453871298,0.0151108067943067]",100.0,"[0.16649039661969792,0.10676189265091941]",100.0,"[0.0002426773188645027,0.19887217232068083]",100.0,"[-0.10649375132691848,-0.16247992676201634]",100.0,"[0.02,0.02]",155.6589,0.0,10.0,10.0,33.0,1.0,,,,,,,
,,,,,,,68272b1f7a7966395e63196d,6843917e8adeadd9d3902052,2025-06-06_18h10.58.870,shape_ratio,2024.1.5,Win32,59.88023952,6842b561977af9ba9b0f87ca,,,,,,,,,,,155.6604,156.1588,,,156.4098,156.8918,right,,,,,,,,0.5,0.4508,,,,,,,156.1588,156.4098,156.8918,"[-0.035210177208576214,0.01491355048840675]",4.0,"[-0.07173567574896661,-0.05257568922853361]",4.0,"[-0.05235111812433106,0.17938566220298877]",4.0,"[0.08432961351119737,-0.11132766836056555]",4.0,"[0.10173684621961901,0.030157025395887008]",4.0,"[0.03568241362985005,0.11770004046288535]",100.0,"[0.08433991709868696,-0.034869482484508565]",4.0,"[0.16219825776480132,-0.01591666692113418]",100.0,"[-0.16186953398378512,0.10114317564294358]",100.0,"[-0.004144905412275282,0.08190407362800296]",100.0,"[-0.0439251383581212,0.10237793241297957]",100.0,"[-0.09933150392064716,-0.1048575916503293]",4.0,"[0.188441292621336,-0.058890111059818166]",4.0,"[0.14720278307895523,-0.13339486544358206]",4.0,"[0.044506097903967846,-0.18796344182865174]",4.0,"[0.13795217500616683,0.07245847446872901]",100.0,"[-0.11369224678193239,0.009305953087415206]",100.0,"[-0.12182431818017679,0.06825283981597494]",100.0,"[-0.01158482574348246,-0.15737797941941173]",100.0,"[0.09037655504945453,-0.17057554037144795]",100.0,"[0.02504943912011709,0.02423680791782232]",100.0,"[-0.13704036896220803,-0.029675811845410092]",4.0,"[-0.0704154591873605,0.1388047741857781]",4.0,"[-0.003011506227612355,-0.07141323388676908]",100.0,"[-0.04265425786088844,-0.08860158974825029]",100.0,"[0.11063314408234728,-0.07402628160882768]",4.0,"[0.04139474846018322,-0.13396231936946348]",4.0,"[-0.18105077243203563,-0.004524973791120355]",4.0,"[-0.05098596376885135,-0.1866372888562031]",100.0,"[0.07946767546598851,0.0855716685909738]",100.0,"[-0.012349380214587887,-0.028324215502644266]",4.0,"[0.08243564952001396,0.17147734744567403]",100.0,"[0.02,0.02]",157.9916,0.0,11.0,11.0,115.0,1.0,,,,,,,
,,,,,,,68272b1f7a7966395e63196d,6843917e8adeadd9d3902052,2025-06-06_18h10.58.870,shape_ratio,2024.1.5,Win32,59.88023952,6842b561977af9ba9b0f87ca,,,,,,,,,,,157.9926,158.4911,,,158.7416,158.9411,left,,,,,,,,0.5,0.1814,,,,,,,158.4912,158.7414,158.9411,"[0.06633779297576749,-0.14665931597894105]",4.0,"[0.06494579734799372,-0.0838326604277752]",4.0,"[-0.04212499400206566,-0.12452068286423972]",100.0,"[0.02363616347773685,0.1084647828849598]",4.0,"[0.11547710130557305,0.1332184231872985]",100.0,"[0.10905830380167215,-0.08490446011689451]",100.0,"[-0.048417609168664395,0.13074110380094955]",4.0,"[-0.1537923844398079,-0.10262904230872061]",4.0,"[-0.07235103607554515,0.0827603050521657]",4.0,"[-0.10038822210852008,-0.07662178820672742]",4.0,"[-0.09596753853815068,0.1548471923126186]",4.0,"[0.053702433249664575,0.1483019028357048]",100.0,"[0.002221840497039589,-0.02512075055671885]",4.0,"[-0.011335306023670572,0.18852257687536328]",100.0,"[0.08988749516698112,-0.03809418447369272]",100.0,"[0.14935820704489472,-0.002420734407307304]",100.0,"[0.018272965331368334,-0.06826745568908534]",100.0,"[-0.05517709365103233,0.006780749345641616]",100.0,"[0.06671739965580802,0.09643967238205366]",4.0,"[-0.14789244111889624,0.11585731013856296]",100.0,"[0.18434674068023094,-0.058684277703996854]",4.0,"[0.004597212238314536,-0.14051191493705908]",4.0,"[-0.10791496742779902,0.04208743073539038]",100.0,"[0.09303563104537614,0.06409065987671803]",100.0,"[-0.13399214496152825,-0.03866977366138511]",100.0,"[-0.18031913339134534,-0.014318471436503244]",4.0,"[0.05413456874410601,0.003532176595282837]",4.0,"[0.1132733493859558,0.02779822957440471]",4.0,"[-0.03982864561305795,-0.06439598756828707]",100.0,"[0.05367652825933255,0.04892920259058716]",100.0,"[-0.18839450598506033,0.028722052929460024]",100.0,"[-0.013640381537295649,0.048383498018989245]",4.0,"[0.02,0.02]",160.0397,0.0,12.0,12.0,95.0,1.0,,,,,,,
,,,,,,,68272b1f7a7966395e63196d,6843917e8adeadd9d3902052,2025-06-06_18h10.58.870,shape_ratio,2024.1.5,Win32,59.88023952,6842b561977af9ba9b0f87ca,,,,,,,,,,,160.0401,160.5396,,,160.7906,160.9399,right,,,,,,,,0.55,0.1317,,,,,,,160.5396,160.7905,160.9401,"[-0.043553103723314945,-0.08980117362931268]",100.0,"[0.09154346415116738,-0.16624990527869637]",4.0,"[-0.10017292838770249,-0.10765352124592095]",100.0,"[-0.029440667783897166,0.147287697516688]",4.0,"[0.021675132400206142,-0.041605645843027894]",4.0,"[0.06543938027415434,0.12582749825516157]",100.0,"[-0.12042781754622654,0.12414950092445075]",100.0,"[0.12509994920876166,-0.06925914795621724]",100.0,"[-0.18343991088979272,-0.04437275447929731]",100.0,"[-0.140230557623044,0.08095433630798171]",4.0,"[-0.031161922584455076,0.04023246025125351]",4.0,"[0.15511625376631938,-0.1220619971169665]",100.0,"[-0.07882858372935732,0.0784604454933764]",4.0,"[-0.1316976542711495,0.033767665111076]",4.0,"[-0.10051058753646801,-0.059059552623651396]",100.0,"[0.03831678103420918,0.05641229998351192]",100.0,"[0.09757485256911044,-0.02712002517622583]",100.0,"[0.01015733549110368,0.02600225895606758]",4.0,"[0.15829743794123963,0.024417718589638916]",100.0,"[0.015755188958883025,-0.1033554924487318]",100.0,"[0.09141401244288776,0.1634144330365363]",4.0,"[-0.14761152043856207,-0.025541493384520476]",100.0,"[-0.06518166538062882,-0.15610479823647683]",100.0,"[-0.04879905572774194,-0.02071862913686696]",100.0,"[0.11765035779007858,0.026659613119224396]",4.0,"[0.049918616830654926,-0.131852686435229]",4.0,"[-0.14043308989817943,-0.13692346921827722]",100.0,"[0.10377187357684634,0.08373506007323332]",100.0,"[-0.08581709814950574,0.026813014340283537]",100.0,"[-0.0035115405012276363,0.19020350281468368]",4.0,"[0.01353069001601022,-0.18531466650281936]",4.0,"[-0.06770648882485898,0.13377302132972105]",4.0,"[0.02,0.02]",162.0394,0.0,13.0,13.0,66.0,1.0,,,,,,,
,,,,,,,68272b1f7a7966395e63196d,6843917e8adeadd9d3902052,2025-06-06_18h10.58.870,shape_ratio,2024.1.5,Win32,59.88023952,6842b561977af9ba9b0f87ca,,,,,,,,,,,162.0402,162.539,,,162.7889,162.9058,left,,,,,,,,0.4,0.1077,,,,,,,162.5391,162.7888,162.9059,"[0.073300700491909,0.17068804127362738]",4.0,"[-0.05933446714230149,-0.0374030448049604]",4.0,"[0.1266283556102035,0.14571126721299027]",4.0,"[0.04728695269416823,0.13017649194912742]",4.0,"[-0.057912546500061286,-0.12330491263601039]",4.0,"[0.05140793208703266,-0.10059189502553839]",4.0,"[-0.10444017252094435,-0.06610764205678914]",100.0,"[0.0050451552543674845,0.023355907251011467]",4.0,"[-0.025069457371119923,0.10499904833539317]",4.0,"[0.013161011112682298,-0.17099776009837994]",100.0,"[0.03571523477265563,-0.05005734534602907]",100.0,"[0.15906097143763112,0.06462322891671779]",4.0,"[0.1471640751243949,-0.0901851997008044]",4.0,"[0.07426812030979586,-0.14594319232485334]",4.0,"[0.12488639130779648,-0.006154858560377646]",100.0,"[0.016119180038810847,0.08186011012342055]",100.0,"[-0.15586128499731908,-0.048419243342264585]",4.0,"[-0.05494283310514617,0.03468900975249651]",4.0,"[0.0032845001941827954,0.1483006314187402]",100.0,"[-0.18703610554505223,0.04563611332480731]",100.0,"[-0.07624461768964526,0.1444616908346116]",100.0,"[-0.08545949692503506,0.0750566675064717]",100.0,"[-0.1299947163589197,0.13280689797266093]",100.0,"[-0.029259123016648216,0.181549639520909]",4.0,"[0.07138937064262585,0.027943860266718017]",100.0,"[-0.10324768347780347,-0.1188430431724204]",100.0,"[0.132540330545116,-0.14939033567074517]",4.0,"[-0.023903151844981346,-0.004492247223905067]",4.0,"[-0.1456474310927594,0.000724101555635744]",4.0,"[0.17974002847822096,0.020272755375402764]",100.0,"[-0.04852104782179828,-0.08079153470700053]",4.0,"[0.17456014752469853,-0.021419699142066703]",4.0,"[0.02,0.02]",164.0049,0.0,14.0,14.0,168.0,1.0,,,,,,,
,,,,,,,68272b1f7a7966395e63196d,6843917e8adeadd9d3902052,2025-06-06_18h10.58.870,shape_ratio,2024.1.5,Win32,59.88023952,6842b561977af9ba9b0f87ca,,,,,,,,,,,164.0053,164.5048,,,164.7557,165.4883,right,,,,,,,,0.1,0.7014,,,,,,,164.5049,164.7556,165.4884,"[-0.16602803904319938,0.02633246194152232]",4.0,"[0.16406885858089246,-0.02048825208127392]",4.0,"[0.005667735977345676,-0.13838618466786076]",4.0,"[-0.06591977946313435,0.032366494404002]",4.0,"[0.06281845118630025,0.011800063906162657]",4.0,"[-0.1821659871744021,-0.04042820424282858]",4.0,"[-0.12531483052541695,0.12919910112654753]",4.0,"[-0.055028682828686955,-0.0563521999391574]",4.0,"[0.045630737264397,-0.16081545347183554]",4.0,"[0.08608928777484282,0.12279167660915137]",4.0,"[0.08823078596705139,0.17532239112922723]",4.0,"[0.0037128902892769105,0.008100498169078083]",4.0,"[-0.013280236214756333,-0.08056716321104958]",4.0,"[0.11976675535271565,-0.15030805676749381]",100.0,"[0.05260302063767121,-0.08774445828431332]",4.0,"[-0.0002147768243015155,0.18282007394745128]",4.0,"[0.11859991946995709,-0.03483903416059201]",4.0,"[0.1530335284675656,-0.0709156419602177]",4.0,"[-0.03933753592688876,-0.11248446705621873]",4.0,"[-0.1276626983537716,-0.04251130795176951]",4.0,"[-0.12842930841225378,-0.12235941174484224]",4.0,"[-0.12425719508859485,0.024978809440690506]",100.0,"[-0.03252313624243849,-0.1947011027922635]",4.0,"[-0.01525316687749283,0.043514658517167]",4.0,"[-0.07333074694837184,0.10360709039134193]",4.0,"[0.1759602604601634,0.08481087995273949]",100.0,"[-0.017449954208978293,0.09006863092248639]",4.0,"[0.13091946944532684,0.11790969741558775]",4.0,"[-0.07385624607538674,-0.17548309602697598]",4.0,"[0.10343603518435635,-0.09939617160328669]",4.0,"[0.14258049442253398,0.018476910266515906]",4.0,"[-0.10242081303411288,-0.008905880853671387]",4.0,"[0.02,0.02]",166.5876,0.0,15.0,15.0,206.0,1.0,,,,,,,
,,,,,,,68272b1f7a7966395e63196d,6843917e8adeadd9d3902052,2025-06-06_18h10.58.870,shape_ratio,2024.1.5,Win32,59.88023952,6842b561977af9ba9b0f87ca,,,,,,,,,,,166.5886,167.0874,,,167.3374,167.4873,right,,,,,,,,0.1,0.1238,,,,,,,167.0875,167.3374,167.4875,"[-0.08111644486709593,-0.1220667906426444]",4.0,"[0.10657078765656386,0.12233308084825185]",4.0,"[-0.05503528031742839,-0.03521858344286882]",4.0,"[-0.02849055411291515,0.18315642605947677]",4.0,"[0.18155597909829949,-0.0742339981154147]",100.0,"[0.07307187730438042,0.08041487138322992]",4.0,"[-0.1200125910503534,0.06797700803017671]",4.0,"[0.13098513922964397,-0.059202209612759786]",4.0,"[0.19590397829560716,-0.028796035889132397]",4.0,"[-0.13519928327515635,-0.12267030182896121]",4.0,"[0.12337122187692087,0.06069964866813512]",4.0,"[-0.1239079467795931,0.11573210840225015]",4.0,"[0.09381773932599573,-0.1731967058900659]",4.0,"[0.030917217501640712,0.19000628280274917]",100.0,"[-0.03674795430069299,-0.19411613528326535]",4.0,"[0.016243415557229586,0.11667029196526253]",4.0,"[-0.08002656429104126,0.17642938501148472]",100.0,"[-0.16770617167276222,0.09053670211728602]",4.0,"[-0.010080518231820818,0.03753265890181052]",4.0,"[-0.0996677985648408,-0.02097467683587477]",4.0,"[-0.12716775323540974,-0.06901938382163729]",4.0,"[0.08797824917581153,-0.0749341049320444]",4.0,"[0.18393967197014202,0.07534347547729603]",4.0,"[-0.1981884075433614,0.004518327260067499]",4.0,"[0.16692901754543235,0.0012636994910520459]",4.0,"[0.03838782729823836,-0.19573852070749412]",4.0,"[0.00971508471139837,-0.15577054085775077]",4.0,"[0.04718325074802044,-0.026914105001396644]",4.0,"[0.030214926817747054,0.057972502651085264]",4.0,"[-0.06350964743932005,0.12674068473214442]",4.0,"[-0.03720558752548991,-0.0754218485103187]",4.0,"[-0.12755741342380392,0.011021575316843273]",4.0,"[0.02,0.02]",168.5858,0.0,16.0,16.0,180.0,1.0,,,,,,,
,,,,,,,68272b1f7a7966395e63196d,6843917e8adeadd9d3902052,2025-06-06_18h10.58.870,shape_ratio,2024.1.5,Win32,59.88023952,6842b561977af9ba9b0f87ca,,,,,,,,,,,168.5864,169.0866,,,169.3369,169.4032,left,,,,,,,,0.6,0.0362,,,,,,,169.0867,169.3368,169.4034,"[-0.023710181560286436,0.19096947572243986]",4.0,"[0.08966877964855022,0.10044214449895666]",100.0,"[0.02944682813388987,-0.03433863828229153]",4.0,"[-0.010675853613441031,0.02398696591229392]",4.0,"[-0.11011885100596917,-0.16575236629934728]",100.0,"[-0.012419521173757211,-0.13709691969917723]",4.0,"[-0.17773664622485874,-0.014284833299347712]",100.0,"[-0.09769684544318524,0.08519199578767431]",100.0,"[0.1829779880350543,-0.03449920005220796]",4.0,"[0.03229002198496023,0.13977235880918373]",4.0,"[-0.06025768519586265,-0.008619825160211298]",4.0,"[-0.004634620452417037,0.11482540612298185]",100.0,"[-0.11471738153440147,0.12359844902026065]",100.0,"[0.11636436102270155,-0.012512880916665615]",4.0,"[0.10044939202376976,0.1554951438686032]",4.0,"[-0.1927406922036485,0.03274782998624811]",4.0,"[0.14923663352771996,-0.10370507587758693]",100.0,"[0.05595700779533418,-0.10509087541718595]",100.0,"[-0.13789042419875455,-0.10156683838486978]",100.0,"[0.11591470503565368,-0.06867994779640589]",100.0,"[-0.026883465014874965,-0.03228666097889362]",4.0,"[0.04904291418837711,0.07816002820517015]",100.0,"[0.10054667784348802,-0.12151897947929072]",100.0,"[-0.11930500917166846,-0.005670800448291804]",100.0,"[-0.06963785991854793,-0.06037235518470201]",100.0,"[0.06483722310037168,0.0344302815211499]",4.0,"[0.058888132803582814,-0.1894442225740661]",100.0,"[0.07725018925890248,-0.030278645235148664]",100.0,"[-0.06947684484058858,-0.185055164983062]",100.0,"[-0.1293306207222816,0.04925063532459499]",100.0,"[0.14493636304232954,0.12749609010236956]",100.0,"[0.024265683323441607,0.18930763811657308]",4.0,"[0.02,0.02]",170.5022,0.0,17.0,17.0,46.0,1.0,,,,,,,
,,,,,,,68272b1f7a7966395e63196d,6843917e8adeadd9d3902052,2025-06-06_18h10.58.870,shape_ratio,2024.1.5,Win32,59.88023952,6842b561977af9ba9b0f87ca,,,,,,,,,,,170.5034,171.0023,,,171.2526,172.7512,,,,,,,,,0.6,,,,,,,,171.0024,171.2525,172.7514,"[0.047993660797677064,0.1745865772629854]",100.0,"[0.03596875706634572,-0.1844409200090766]",100.0,"[0.023517294723952573,-0.07407209672560927]",100.0,"[0.16911553206390778,0.03268687382133839]",100.0,"[-0.08860259523650794,0.13814065476859377]",100.0,"[0.05054591874224965,0.125330684301799]",100.0,"[-0.08231618953494407,-0.17633636292364224]",100.0,"[0.09511797573717579,-0.0928676467250127]",4.0,"[-0.04812375008486191,-0.05245614376280037]",4.0,"[0.0513508820305354,0.04633460735258237]",100.0,"[0.0670184079956624,-0.14012832577390316]",100.0,"[-0.006781612724143458,0.03293363500615743]",100.0,"[0.1175056578540852,-0.15647035556270122]",100.0,"[0.14296038828100546,0.12184598934670353]",4.0,"[-0.06977443283160949,0.07052111034629516]",4.0,"[-0.05916591480107465,0.19096283226942581]",100.0,"[-0.1260898732266983,0.0605101224876727]",100.0,"[0.18975665034217337,-0.04130022780239303]",4.0,"[0.00738789696753992,-0.1495046302714843]",4.0,"[-0.1549391284403744,-0.11805451798418183]",4.0,"[-0.19488729887172695,-0.0430080802284188]",100.0,"[0.006042092878309377,0.11567509476803634]",4.0,"[-0.048072381351935006,0.14324786776898063]",100.0,"[-0.19155540377873725,0.02335774011966324]",4.0,"[0.16062123180105528,0.08062765169543638]",4.0,"[0.07799898749192694,0.08847239552877063]",4.0,"[0.15190087910952133,-0.05430166618302385]",4.0,"[-0.06489595720002145,0.002747281275118494]",100.0,"[-0.12563343606540853,-0.05039912524566437]",100.0,"[0.07614158623983806,-0.02774213764729333]",100.0,"[0.08765927320398519,0.14689538366449792]",100.0,"[0.12777198415348887,-0.013329450857907049]",4.0,"[0.02,0.02]",173.8508,0.0,18.0,18.0,48.0,1.0,,,,,,,
,,,,,,,68272b1f7a7966395e63196d,6843917e8adeadd9d3902052,2025-06-06_18h10.58.870,shape_ratio,2024.1.5,Win32,59.88023952,6842b561977af9ba9b0f87ca,,,,,,,,,,,173.8518,174.3508,,,174.6073,176.0998,,,,,,,,,0.9,,,,,,,,174.3509,174.6072,176.0999,"[-0.014587077531700871,-0.09852785831195379]",100.0,"[0.09449538157084375,-0.14627530924838675]",100.0,"[0.12909837302155147,-0.020419869862699527]",100.0,"[0.13981705478074505,0.04457442294816305]",100.0,"[0.0999685817536475,0.15102094504496225]",100.0,"[-0.003815254683497103,-0.15259314483928818]",100.0,"[-0.16962080404286178,-0.047362896980220295]",4.0,"[-0.03601757034576379,0.0846172447952369]",100.0,"[0.16218174451951156,0.10469553377671911]",100.0,"[-0.06102588776080869,-0.18429102245159298]",100.0,"[-0.1597570779441397,0.08639301035669375]",100.0,"[0.011805730747982336,-0.19480996631747471]",100.0,"[0.04841820562755505,-0.06476704318126235]",100.0,"[-0.11316138424210703,0.04525357939822733]",100.0,"[0.05574155584277048,0.08513166207507909]",100.0,"[-0.09281846710291762,-0.09592524638839978]",100.0,"[0.17713272828388282,0.0279000751514132]",100.0,"[0.030892514702915038,-0.10984367071867027]",100.0,"[-0.11197553709460391,0.11589430844369748]",100.0,"[0.09001692330892636,-0.07057637704782176]",4.0,"[-0.07157016844307723,0.06198029924551886]",100.0,"[0.01221444647225681,0.04803374172678098]",100.0,"[-0.06928669052674048,-0.04465629213637726]",100.0,"[0.0927572961069524,-0.0017477237373288205]",4.0,"[-0.17123585888857218,0.014357266455802532]",100.0,"[-0.14519152736770802,-0.09332026493592972]",100.0,"[0.18390558874552682,-0.07177798325115964]",100.0,"[0.0217143217807681,0.1264251288308048]",100.0,"[-0.04756113434861682,0.15441260518034666]",100.0,"[0.16048553469836113,-0.11213209998911952]",100.0,"[0.015163623506395114,-0.031087012479084002]",100.0,"[-0.1179145417585583,-0.00580278368890917]",100.0,"[0.02,0.02]",177.1994,0.0,19.0,19.0,18.0,1.0,,,,,,,
,,,,,,,68272b1f7a7966395e63196d,6843917e8adeadd9d3902052,2025-06-06_18h10.58.870,shape_ratio,2024.1.5,Win32,59.88023952,6842b561977af9ba9b0f87ca,,,,,,,,,,,177.2005,177.6992,,,177.9534,177.9658,right,,,,,,,,0.6,0.0011,,,,,,,177.6993,177.9533,177.966,"[0.1359435842965015,0.09431506301893978]",100.0,"[0.18360816167375918,-0.041010772158551714]",4.0,"[0.08236857461716288,-0.08741615364713178]",4.0,"[-0.09071969660311557,-0.1716883262289865]",100.0,"[-0.16523121818537337,0.010186423263825246]",4.0,"[0.032542724070156785,0.15994480992611004]",4.0,"[0.11489898021272685,-0.12474350599323794]",4.0,"[-0.1374882111225363,0.07340066982223695]",100.0,"[0.03234743729277551,-0.07084841186109699]",100.0,"[-0.03032012656826862,-0.0009099604647223025]",100.0,"[-0.02810711405364977,0.061305437683162343]",4.0,"[-0.11428018330922866,-0.013548007071146452]",100.0,"[-0.18764948830945213,0.05718036873275886]",100.0,"[0.1045044986026508,-0.014873329227675203]",100.0,"[0.00827122736263963,0.12685837366387415]",100.0,"[-0.13215866576889382,-0.09343814009547981]",100.0,"[0.1523133214739811,0.05601489216286697]",100.0,"[0.10956827721180956,0.049423200366798196]",4.0,"[-0.03724082438608834,-0.078109994047766]",4.0,"[0.0005740130731552133,-0.19251052638497831]",100.0,"[0.11238278120947112,0.15330718721338388]",4.0,"[-0.03832197169699566,0.18661576765780288]",100.0,"[0.09148235848378973,-0.17523731221508937]",100.0,"[-0.0869543501491506,0.15331402790691132]",4.0,"[0.07502416551970036,0.1764722755593433]",100.0,"[-0.18635011319553144,-0.03763111344105502]",100.0,"[-0.06351051377649532,0.09227240978420549]",100.0,"[0.04724718683100966,-0.0322599853783481]",100.0,"[0.1643350574232808,-0.10248831096840154]",4.0,"[-0.02983016846067298,-0.16634477972151795]",4.0,"[0.06825137553285528,0.04202150265363995]",4.0,"[0.021495788098086457,0.08754434580020126]",100.0,"[0.02,0.02]",179.0653,0.0,20.0,20.0,56.0,1.0,,,,,,,
,,,,,,,68272b1f7a7966395e63196d,6843917e8adeadd9d3902052,2025-06-06_18h10.58.870,shape_ratio,2024.1.5,Win32,59.88023952,6842b561977af9ba9b0f87ca,,,,,,,,,,,179.0663,179.5651,,,179.816,180.065,left,,,,,,,,0.55,0.2192,,,,,,,179.5652,179.8159,180.0651,"[0.08115145336034495,0.10501746328712018]",4.0,"[0.05839093588906913,-0.15841726054916286]",4.0,"[-0.034609956183642765,0.06879618430036288]",100.0,"[0.07984353109724383,0.0017969615666497932]",100.0,"[0.16422147272564824,0.09506067616188052]",100.0,"[-0.11686324077018645,0.09479877868922729]",4.0,"[0.11000987770276825,0.030578024773857074]",4.0,"[-0.13689320264283564,0.01674198669172455]",100.0,"[0.11125577169041695,-0.10163974991434316]",100.0,"[-0.11833702761307084,0.14120829324018092]",100.0,"[-0.013007714157502903,-0.14254292228303916]",100.0,"[-0.18508246884619547,-0.05514824697568339]",100.0,"[-0.00605884103829131,-0.03618443678641941]",4.0,"[0.09725617638200725,0.14784051487518732]",4.0,"[-0.06445278833830637,-0.1001305641207375]",4.0,"[0.0007659516431692338,0.08948208929271953]",100.0,"[-0.10680247992373985,-0.037703075723258275]",100.0,"[0.0653496336294299,-0.08064985304614095]",100.0,"[0.07063653220388198,0.050049783208471345]",100.0,"[-0.14904828794161432,-0.08066388809635838]",4.0,"[-0.040939425454621516,-0.008530489440202132]",4.0,"[0.040783997331957846,0.1769774523258291]",4.0,"[-0.048081321430496066,-0.19163569395459906]",100.0,"[-0.19453158394134887,0.036776911205239786]",4.0,"[0.014315009842733487,0.1425356828979962]",4.0,"[0.032281627989343274,0.00809287648546557]",4.0,"[0.14601801174125276,-0.01096830009285726]",100.0,"[-0.027247903755217667,0.11981231745993265]",4.0,"[0.10951516045452497,-0.057095017315053835]",100.0,"[0.19530908394853622,0.031087476229879448]",100.0,"[0.05465248254576391,-0.04016853585734208]",100.0,"[0.14890487620138587,-0.13065260820926441]",100.0,"[0.02,0.02]",181.164,0.0,21.0,21.0,89.0,1.0,,,,,,,
,,,,,,,68272b1f7a7966395e63196d,6843917e8adeadd9d3902052,2025-06-06_18h10.58.870,shape_ratio,2024.1.5,Win32,59.88023952,6842b561977af9ba9b0f87ca,,,,,,,,,,,181.1651,181.6632,,,181.9147,183.4133,,,,,,,,,0.45,,,,,,,,181.6632,181.9145,183.4134,"[0.09666107055672023,-0.010434968432139025]",100.0,"[-0.032527046157792866,0.0014455792861244776]",4.0,"[0.13352287131289078,0.024764724891590977]",4.0,"[-0.1057459937832425,0.09939457419272608]",4.0,"[0.13598900056752483,0.1162464297237268]",100.0,"[-0.02729936904339423,-0.1750165751653489]",100.0,"[-0.07532519865581976,0.1415665668006649]",4.0,"[0.061617502416859066,0.16973222306276928]",100.0,"[0.013868761150356958,0.05196990922226654]",4.0,"[-0.07624591994706098,-0.000949865660863136]",4.0,"[-0.0814334737694338,-0.13270892488115804]",4.0,"[-0.17050796811606883,0.053962561482886175]",4.0,"[0.144863390231553,-0.07674869033349546]",100.0,"[0.03395363202926582,0.10582977034831341]",100.0,"[-0.14932492378047163,-0.12285222408818902]",100.0,"[0.1667117086469292,-0.003320697322348913]",4.0,"[-0.06519865799819763,0.057067404467780934]",4.0,"[-0.12146810904593529,-0.008459064062098091]",4.0,"[0.017988206830645972,-0.0012217703428976036]",100.0,"[0.06428143229669578,-0.09606998126407308]",4.0,"[-0.12066634938127115,0.04623189918137247]",4.0,"[0.18030832198452845,-0.042282286710343765]",4.0,"[-0.12181543371288507,-0.08335715768285237]",100.0,"[0.06250278118274948,-0.044100060985031095]",100.0,"[0.053902014814651414,-0.14560512938343323]",100.0,"[-0.18778072997327885,0.002347383549173748]",4.0,"[0.1228363329493419,-0.13535277770427334]",100.0,"[0.08762778892784404,-0.17422081428948483]",100.0,"[0.09572151896004753,0.12289639999378156]",4.0,"[0.018349273240272763,0.18722405647188933]",100.0,"[-0.0757621254536686,-0.043492896115184115]",4.0,"[0.028632326470492766,-0.0749418133726739]",4.0,"[0.02,0.02]",184.5129,0.0,22.0,22.0,127.0,1.0,,,,,,,
,,,,,,,68272b1f7a7966395e63196d,6843917e8adeadd9d3902052,2025-06-06_18h10.58.870,shape_ratio,2024.1.5,Win32,59.88023952,6842b561977af9ba9b0f87ca,,,,,,,,,,,184.514,185.0123,,,185.2631,186.7615,,,,,,,,,0.9,,,,,,,,185.0123,185.2631,186.7615,"[-0.13828686137852103,0.04936475112156002]",100.0,"[0.0959671533766092,-0.10285142599415892]",100.0,"[0.1251633670552244,0.09901908613373901]",100.0,"[0.022257196589269133,-0.1571492494280557]",100.0,"[-0.12403095750560182,-0.06586263982170441]",100.0,"[0.14721366549152598,-0.10598184966400774]",100.0,"[-0.029990485356065157,0.14921781670416404]",100.0,"[0.08127260728527248,0.15361676644264544]",100.0,"[-0.03704232353931602,-0.008317306532095779]",100.0,"[-0.0949631620079788,0.016959267565606555]",100.0,"[-0.14226249015787434,-0.1355038846550079]",100.0,"[0.09387969266735985,0.007397763872836226]",100.0,"[0.038607253369108904,0.053816145774187946]",4.0,"[-0.031055327524524518,0.04732919252600026]",100.0,"[0.15304211805294105,0.011848862111732689]",100.0,"[0.004575104333698636,0.09435557298604416]",100.0,"[-0.18623395768697415,0.06558733153756913]",100.0,"[0.056108658211914936,-0.18347661632751558]",100.0,"[-0.07367302888491298,-0.1181597442031823]",4.0,"[-0.05951291641786795,-0.19076901048213135]",100.0,"[0.07729785902188445,0.10850487272957042]",100.0,"[0.09512584519485197,-0.1620675023206674]",100.0,"[0.031273936124190584,-0.03381356445853436]",100.0,"[-0.0897180637203914,0.13098150485718202]",100.0,"[-0.05958859335429274,0.1897083843871724]",100.0,"[-0.08823665441299071,0.08616047939346866]",100.0,"[-0.12662581253114613,0.10414503694663597]",100.0,"[0.15683411682406673,-0.06320537168908257]",100.0,"[0.07159833400531747,-0.04028408049947792]",100.0,"[-0.0379906564011193,-0.07895208281632371]",100.0,"[0.008886972485062818,-0.1108348860710994]",100.0,"[0.1378196991636133,0.1423666529875665]",4.0,"[0.02,0.02]",187.8606,0.0,23.0,23.0,25.0,1.0,,,,,,,
,,,,,,,68272b1f7a7966395e63196d,6843917e8adeadd9d3902052,2025-06-06_18h10.58.870,shape_ratio,2024.1.5,Win32,59.88023952,6842b561977af9ba9b0f87ca,,,,,,,,,,,187.861,188.3608,,,188.6107,188.6944,right,,,,,,,,0.1,0.0661,,,,,,,188.3609,188.6106,188.6944,"[0.043321812902934805,-0.009880368223872303]",4.0,"[-0.1853703481030533,0.03135424119603828]",4.0,"[-0.00635388608542998,0.18619986449525477]",4.0,"[-0.046467142695747414,0.020747469317180287]",4.0,"[0.13704530313441482,-0.061045456367358523]",4.0,"[-0.1217696502646809,0.14790437269754114]",4.0,"[-0.05782526748151704,0.07881602718108961]",100.0,"[-0.01757549062904721,-0.12668053852906266]",4.0,"[-0.1455263374676806,0.10051106624648329]",4.0,"[-0.030126726458468662,-0.1682910533695928]",4.0,"[0.09231217660908721,0.1417683330851673]",100.0,"[0.03287428451078125,0.03407163815637652]",4.0,"[-0.1602965634271181,-0.036920515240832265]",4.0,"[0.1092525014604329,0.012734298245235224]",4.0,"[-0.10694640783413263,-0.16287217846511387]",4.0,"[-0.06861381755450044,0.12278147621646063]",4.0,"[0.04987760474768208,-0.14647077539957423]",4.0,"[-0.05303172462237708,0.17046806025304354]",4.0,"[0.09154078562257696,-0.15418501794016218]",4.0,"[-0.08481152083467093,-0.04908001225379079]",4.0,"[0.07005356694126277,-0.050308075520828326]",4.0,"[-0.1419954811525424,0.03804897788764017]",4.0,"[0.0370172760851684,-0.07742656104562806]",100.0,"[0.17334027747328415,0.09329953335531187]",4.0,"[-0.09801085203758717,0.040374145813009875]",4.0,"[-0.02830726981471907,-0.030060770881165325]",4.0,"[-0.06310069391277039,-0.14249872869473137]",4.0,"[0.032169093651736834,0.14074627237557552]",4.0,"[0.09038139656386024,0.0745929551684454]",4.0,"[-0.09934020201319549,0.09172630964599696]",4.0,"[0.1525895838312595,-0.01515917019907879]",4.0,"[0.022625717202713943,0.09492758318222017]",4.0,"[0.02,0.02]",189.7935,0.0,24.0,24.0,207.0,1.0,,,,,,,
,,,,,,,68272b1f7a7966395e63196d,6843917e8adeadd9d3902052,2025-06-06_18h10.58.870,shape_ratio,2024.1.5,Win32,59.88023952,6842b561977af9ba9b0f87ca,,,,,,,,,,,189.7942,190.293,,,190.5436,190.7101,left,,,,,,,,0.4,0.1503,,,,,,,190.2932,190.5435,190.7102,"[0.03485611576524372,0.18928155861890958]",4.0,"[0.12680781402845953,-0.0951807718721964]",100.0,"[-0.09370388657906277,0.14691959007335995]",4.0,"[0.05048346154036203,-0.07313898050874902]",4.0,"[-0.12452895558420582,-0.05001061149792906]",100.0,"[0.18106423557165144,-0.0015457445928162181]",100.0,"[-0.04302151857047683,-0.09618465959811788]",4.0,"[0.04162653942355428,-0.15266209118337543]",4.0,"[0.10135076160180104,-0.05103039167556384]",100.0,"[0.08136789761386573,0.08743363133393538]",4.0,"[-0.1639299543406537,0.11100194655477975]",4.0,"[-0.08527254188488742,-0.16371390019868715]",100.0,"[0.016242195228919176,0.11265351273818301]",4.0,"[0.03628316469647828,-0.011963592695145147]",4.0,"[0.08024054934251537,-0.1655890314144515]",4.0,"[-0.13780029492683574,-0.09736795853004418]",4.0,"[0.1249623247673698,0.03794860981106949]",100.0,"[-0.01282339333085706,-0.13925910791599191]",4.0,"[-0.08031436275006594,0.00729245769904923]",4.0,"[-0.18393149667930747,-0.009225771925897328]",4.0,"[-0.04127230848321416,0.1710149611103956]",4.0,"[-0.06553073281659792,0.06516343829363283]",100.0,"[-0.047156872977730906,-0.049660808824470125]",4.0,"[0.14301543211869658,-0.0481034989707445]",100.0,"[-0.009269208501099614,0.054576546912609894]",100.0,"[-0.13902077700125742,0.0736410690221986]",100.0,"[-0.009866498274722265,0.012783342858052164]",4.0,"[0.0038813048965978796,0.15447015753457782]",4.0,"[0.1637514061875514,0.11401985205245471]",100.0,"[-0.1322363455387617,0.014774504316601333]",100.0,"[-0.08055545011975519,0.10680481677245723]",100.0,"[0.1372044125653222,-0.13780764030616408]",4.0,"[0.02,0.02]",191.8092,0.0,25.0,25.0,157.0,1.0,,,,,,,
,,,,,,,68272b1f7a7966395e63196d,6843917e8adeadd9d3902052,2025-06-06_18h10.58.870,shape_ratio,2024.1.5,Win32,59.88023952,6842b561977af9ba9b0f87ca,,,,,,,,,,,191.8101,192.3091,,,192.5597,193.6754,right,,,,,,,,0.45,1.1,,,,,,,192.3092,192.5595,193.6755,"[-0.09054686495681895,0.049304817164701045]",4.0,"[0.1407416613067385,0.004519437753081099]",100.0,"[-0.017640351722347864,-0.008577614486364163]",100.0,"[0.06316736262835097,-0.04732111957423309]",4.0,"[0.05961151331481082,0.15912824035739795]",100.0,"[0.1152666309313811,-0.08965882934857652]",100.0,"[-0.0010703433180072764,-0.10573186559605022]",4.0,"[0.08355850758679029,0.023268246981594375]",100.0,"[0.023706195717579148,-0.18083060135951848]",100.0,"[-0.1253076194351236,0.013608740391189715]",100.0,"[-0.020325876875878113,-0.05998546684252896]",4.0,"[0.07885495505242135,-0.1538044885394163]",4.0,"[-0.054854279425007035,-0.1347524189102112]",4.0,"[-0.0939076249648788,-0.06887650052018492]",100.0,"[0.08144503211468515,0.1118464055813628]",100.0,"[0.10547845107568622,-0.03246588624367172]",4.0,"[0.015324017093587767,0.14335432834108638]",4.0,"[-0.035600877094543806,-0.17590439405728328]",100.0,"[-0.08047658555358636,0.08806362017201502]",4.0,"[-0.15353173883888352,-0.04713096920677013]",100.0,"[0.04503176328558365,-0.11085751175580401]",4.0,"[0.1268156534352551,0.07212075415016142]",4.0,"[-0.13668278580738416,0.12024713060946636]",4.0,"[-0.14956061941005902,-0.12753347680508337]",4.0,"[-0.18474040111294115,-0.07481196599876022]",4.0,"[0.03237824837528513,-0.01680047144854076]",4.0,"[-0.15275315834037936,0.07447745997404552]",100.0,"[-0.010273861274119039,0.06162975596627952]",100.0,"[-0.16805739585308344,0.03050636823179067]",4.0,"[0.18486363477700662,0.023889684346276502]",4.0,"[-0.029113838394988174,0.12401361307505518]",4.0,"[0.1470271519552021,-0.05777540805118321]",100.0,"[0.02,0.02]",194.7747,0.0,26.0,26.0,120.0,1.0,,,,,,,
,,,,,,,68272b1f7a7966395e63196d,6843917e8adeadd9d3902052,2025-06-06_18h10.58.870,shape_ratio,2024.1.5,Win32,59.88023952,6842b561977af9ba9b0f87ca,,,,,,,,,,,194.776,195.2745,,,195.5239,195.8577,left,,,,,,,,0.9,0.3231,,,,,,,195.2746,195.5238,195.8578,"[0.022036729436443307,-0.15675616370769113]",100.0,"[-0.1134208451956526,0.08964450453455844]",100.0,"[-0.0045520801202846625,-0.10343809395029203]",100.0,"[0.00041258166655096533,0.08265045020851373]",100.0,"[0.06921559124888188,-0.12745028102544814]",100.0,"[-0.12643505773549196,-0.042729374553010714]",100.0,"[0.07654002602768072,0.09339844528969436]",100.0,"[-0.021358346380107883,0.01773554582621807]",4.0,"[-0.08050471070835585,-0.08462710565597226]",4.0,"[-0.10422440076652725,-0.13252098077048305]",100.0,"[0.18772983720475725,0.01957328804993311]",100.0,"[-0.16095784837429483,0.012136050045001604]",100.0,"[0.09966139326780729,0.1544680518098714]",100.0,"[0.1312806394441755,0.07246177950243476]",100.0,"[-0.02071751564610355,0.12389011155430253]",100.0,"[0.007303936662765515,0.1739365876931492]",100.0,"[-0.06096438604083202,0.07171912558694613]",100.0,"[-0.05607121647615261,-0.04998705599673443]",100.0,"[0.08342812294894796,-0.16909428233138463]",100.0,"[0.13784898633968098,-0.06451572512505623]",100.0,"[0.08364783076712835,0.04859153992011817]",100.0,"[0.12363372418836734,0.11384550763576448]",100.0,"[-0.054009335525055865,0.18989227483153365]",100.0,"[0.018522036731659627,-0.00002534867337222932]",100.0,"[0.1901882117217295,-0.04637326952120075]",100.0,"[0.09529210625392175,-0.05929131963162592]",100.0,"[-0.11946435880593143,0.04528125993950633]",100.0,"[-0.07144068833580733,-0.006125469429096483]",100.0,"[-0.07826245140774443,-0.16306528766284986]",100.0,"[-0.14049161831544474,-0.10026228405012123]",4.0,"[0.14551355863360727,0.03141883945574785]",100.0,"[0.022115757702338677,-0.051348769973571684]",100.0,"[0.02,0.02]",196.9566,0.0,27.0,27.0,19.0,1.0,,,,,,,
,,,,,,,68272b1f7a7966395e63196d,6843917e8adeadd9d3902052,2025-06-06_18h10.58.870,shape_ratio,2024.1.5,Win32,59.88023952,6842b561977af9ba9b0f87ca,,,,,,,,,,,196.9573,197.4561,,,197.7062,198.6064,right,,,,,,,,0.45,0.8885,,,,,,,197.4561,197.7062,198.6065,"[0.0823533204990311,0.08492902998351705]",4.0,"[-0.07764711694018343,0.12464287915941816]",4.0,"[0.03459000543195878,-0.10214635933470038]",4.0,"[-0.022114142640970863,-0.1419706073720241]",100.0,"[-0.02113756215947243,-0.07221628765202194]",4.0,"[-0.007959345193839727,0.16028586749422355]",100.0,"[-0.08933170529794816,-0.11602941226803855]",4.0,"[0.05714261989167945,0.023269617997028837]",100.0,"[0.10859148818737605,0.11792055313507666]",4.0,"[0.020269498337206645,-0.015376721624486233]",100.0,"[-0.11361798127738115,0.03336169802228379]",4.0,"[-0.00037141695702000953,0.023186679126986735]",100.0,"[0.1441093273305715,-0.052810707304956774]",100.0,"[-0.14190570277762882,0.07787802314952186]",4.0,"[0.004750719289751536,0.09518533156768945]",4.0,"[-0.11512666826333297,-0.030224033532073202]",4.0,"[0.041005427870839474,0.16760212236796287]",4.0,"[-0.11924460011443419,-0.14343775644007445]",4.0,"[-0.06109832710710077,0.0745294210278508]",100.0,"[0.10024664925404976,0.0008684012356211745]",100.0,"[0.12164351323698093,-0.09471555439211712]",4.0,"[0.07991031733874511,-0.03881701396078037]",4.0,"[-0.06871544776777169,-0.015081906575473657]",4.0,"[0.04519751570433272,-0.18862970117715694]",100.0,"[0.11750679967024691,-0.1486654561185386]",100.0,"[0.08482703286874299,-0.11157459147812203]",100.0,"[-0.08289332921554032,-0.16819803428445484]",4.0,"[0.14603240459544362,-0.0051123541648299105]",100.0,"[-0.18081471698526966,-0.07988921369939422]",4.0,"[0.11821508905257713,0.1611076625029762]",100.0,"[0.18014016626201432,0.06966063070388202]",100.0,"[0.19542585010950153,-0.019145208996595366]",4.0,"[0.02,0.02]",199.7058,0.0,28.0,28.0,132.0,1.0,,,,,,,
,,,,,,,68272b1f7a7966395e63196d,6843917e8adeadd9d3902052,2025-06-06_18h10.58.870,shape_ratio,2024.1.5,Win32,59.88023952,6842b561977af9ba9b0f87ca,,,,,,,,,,,199.7065,200.2054,,,200.4561,200.6884,left,,,,,,,,0.4,0.2032,,,,,,,200.2055,200.456,200.6885,"[0.1617359748501275,-0.0814748348160614]",100.0,"[0.10901552289665355,-0.15794208339103813]",4.0,"[-0.05442561416222593,0.05915247740243538]",100.0,"[-0.16524024935165893,0.036121898758409016]",4.0,"[-0.04797746892414315,-0.16920078546461542]",4.0,"[-0.10675837307325281,0.16785710324130287]",100.0,"[0.1330290352330188,-0.03554249939829079]",4.0,"[0.00262499982992564,0.1323154963552239]",4.0,"[0.038700979008218644,-0.1337369800287938]",100.0,"[-0.17698248881195652,-0.05719092459848341]",100.0,"[-0.041374153167090554,-0.12422628217809399]",100.0,"[0.020286023225335154,-0.18331915205602883]",4.0,"[0.056943305350327655,-0.03870355618831139]",4.0,"[-0.06707849709715956,-0.0018988523183387394]",100.0,"[0.02148900263098105,0.009736929767369874]",4.0,"[0.08135005070673111,0.1536588452499896]",4.0,"[-0.16382564050932605,0.0829306587388987]",4.0,"[0.0776088570529844,0.10090986682530746]",100.0,"[0.12332372104177118,0.08519621626167348]",4.0,"[0.1147780316223424,0.0284239291243806]",4.0,"[0.11273747918856698,-0.07902020315013965]",100.0,"[-0.042638484021720616,0.099613145138276]",4.0,"[-0.005969021812768085,-0.09585643746429023]",4.0,"[-0.0567805720410486,0.15702213969917728]",100.0,"[0.1376900147186343,-0.12313523978583873]",4.0,"[-0.11127894985619956,-0.08549651759209506]",100.0,"[0.033802157567553774,0.06067231422513865]",100.0,"[-0.008633850143411505,0.06712683256079735]",4.0,"[0.02962931251355523,0.1850215418619975]",4.0,"[0.07965254012718329,-0.10507318494508455]",100.0,"[-0.1282294700266766,0.060180722744190514]",4.0,"[-0.03304437160358349,-0.05285677417809721]",4.0,"[0.02,0.02]",201.7878,0.0,29.0,29.0,166.0,1.0,,,,,,,
,,,,,,,68272b1f7a7966395e63196d,6843917e8adeadd9d3902052,2025-06-06_18h10.58.870,shape_ratio,2024.1.5,Win32,59.88023952,6842b561977af9ba9b0f87ca,,,,,,,,,,,201.7896,202.2874,,,202.5388,202.6046,right,,,,,,,,0.6,0.0413,,,,,,,202.2875,202.5386,202.6047,"[-0.08378397067723509,0.09076453682570051]",4.0,"[0.08297430145543758,-0.0033635424397517456]",100.0,"[0.08143662904853723,-0.049877805324420814]",4.0,"[-0.01727777916987,-0.09143836254653821]",4.0,"[0.15722766328202942,0.1004954397889654]",100.0,"[-0.09242760125419901,0.1537585191514899]",100.0,"[0.09177662942426196,0.040651410300325194]",100.0,"[-0.07904407135138841,-0.06770257893677557]",100.0,"[-0.13259700370206426,0.11693178327483572]",4.0,"[0.14868666142464976,0.014242676342329787]",4.0,"[-0.10917390175029547,0.041506240714212723]",100.0,"[0.04287017353637391,0.08844925107559388]",100.0,"[0.1012312472292836,-0.13937637285562599]",100.0,"[-0.19021223175762114,-0.0423265384097443]",100.0,"[-0.06400871648445486,0.04679075518426428]",100.0,"[-0.03306602363357792,0.10467246513165088]",100.0,"[0.015219704024937214,-0.12637175516067878]",100.0,"[-0.0630318062183055,-0.022345091996491994]",100.0,"[-0.008995082426874506,0.18776438926799724]",100.0,"[-0.01767616333170739,0.01899629088017031]",100.0,"[0.016983873524425215,0.05786104280865371]",4.0,"[-0.0928407218471156,-0.12286830593018601]",100.0,"[0.040892462797395744,0.1730277032800935]",4.0,"[0.12243188440932247,0.12136392025542549]",4.0,"[0.12201462730298274,-0.08432693675301939]",100.0,"[-0.13599871156076365,-0.014090660963799708]",100.0,"[-0.14847241849807372,0.07677526693927686]",100.0,"[0.035998867218719054,-0.19155215105297763]",4.0,"[-0.17198867787385225,0.01311829224656896]",4.0,"[0.0821026933659565,0.1363678572721644]",4.0,"[-0.05133401795664485,0.17350575577523986]",4.0,"[0.02396844570931499,0.01805042143359133]",4.0,"[0.02,0.02]",203.7039,0.0,30.0,30.0,54.0,1.0,,,,,,,
,,,,,,,68272b1f7a7966395e63196d,6843917e8adeadd9d3902052,2025-06-06_18h10.58.870,shape_ratio,2024.1.5,Win32,59.88023952,6842b561977af9ba9b0f87ca,,,,,,,,,,,203.7049,204.2038,,,204.4542,204.7538,right,,,,,,,,0.5,0.2824,,,,,,,204.2039,204.454,204.7538,"[-0.17803006549351214,0.04881888131716969]",4.0,"[0.00467095887732548,0.14246764511480375]",100.0,"[-0.07877843789757244,0.09531916990238203]",4.0,"[-0.014075688834462073,0.004007126107316623]",4.0,"[-0.11952607323160137,-0.1034512634788011]",100.0,"[0.05778746613567092,0.06158529363845863]",4.0,"[0.005182192131659506,-0.18855984297271144]",4.0,"[-0.05742075501135917,0.16832038280489867]",4.0,"[0.0021391003251500728,-0.053731928592725305]",4.0,"[0.0836699104900456,-0.11978112134854128]",4.0,"[-0.055142013936582544,-0.18500844425095675]",4.0,"[-0.15502675715222988,-0.05860980413601277]",100.0,"[-0.06418864316317008,-0.020013154839116865]",4.0,"[-0.03301095708868203,0.04367964273474736]",100.0,"[-0.03153874931669995,-0.0801726735474821]",4.0,"[-0.10658027041489906,0.12485799921642972]",100.0,"[-0.13055554083969545,0.07812355206397248]",4.0,"[0.11282228120473627,-0.07085371957396112]",4.0,"[-0.06907623842133984,-0.1355228723277045]",100.0,"[0.1288645348618326,0.10247229292160812]",100.0,"[0.08688337501334566,0.10673169852671359]",100.0,"[0.0602561535449168,-0.1581790726017335]",100.0,"[0.05035188348778088,0.00008077889360093173]",100.0,"[0.048119893654658644,-0.09795133668623685]",100.0,"[0.014646156469289972,0.06382711272038305]",100.0,"[0.18796665147919844,0.03736574568957782]",4.0,"[0.08442107861102179,0.14903038728271037]",100.0,"[-0.02616748978692203,0.0968883418421125]",100.0,"[-0.01163983794512949,-0.1181771733848998]",100.0,"[0.16668629383195807,0.07422802423657032]",4.0,"[-0.13484289020750628,-0.14527927322803874]",100.0,"[0.04491860571634479,0.11858396159858091]",4.0,"[0.02,0.02]",205.853,0.0,31.0,31.0,111.0,1.0,,,,,,,
,,,,,,,68272b1f7a7966395e63196d,6843917e8adeadd9d3902052,2025-06-06_18h10.58.870,shape_ratio,2024.1.5,Win32,59.88023952,6842b561977af9ba9b0f87ca,,,,,,,,,,,205.8537,206.3529,,,206.6031,206.6692,left,,,,,,,,0.45,0.0472,,,,,,,206.3529,206.6031,206.6692,"[0.04731641634990604,-0.08144333345384056]",4.0,"[-0.000907153816781492,0.15790228777104695]",4.0,"[-0.08923397843777935,-0.009782478112356448]",4.0,"[-0.12049872116569016,0.05405488883988057]",100.0,"[-0.16718687565017543,-0.01932847441783633]",4.0,"[0.12194368295016418,-0.04128200267064055]",4.0,"[-0.12456472286425793,-0.03486487297885256]",100.0,"[-0.00827051580211814,-0.15146478782262054]",100.0,"[-0.015590750748135925,0.03869457816070506]",4.0,"[-0.05209130563642442,0.17282272090736095]",4.0,"[-0.1383949494320687,-0.10104337948593267]",4.0,"[0.017849794572793117,0.07268635321553456]",4.0,"[-0.1074803470045271,0.09740251077943538]",4.0,"[0.06280323028879786,0.03389252158627207]",4.0,"[-0.18803534876442488,-0.06414916110143837]",100.0,"[-0.0017459151536116074,-0.07022700468216558]",100.0,"[0.11385070049923918,-0.09344757950112335]",4.0,"[-0.05765802068083192,-0.13277716301396777]",100.0,"[0.06273094231208702,0.11513715525037847]",4.0,"[0.13449875108937961,0.013507354667023453]",4.0,"[0.06961230632840273,0.16160934597103144]",100.0,"[-0.1987533239248322,0.012836735502328068]",100.0,"[-0.04821052178951039,-0.05942082768195049]",100.0,"[-0.11181873838734813,0.14877005116149294]",4.0,"[-0.08974070076590857,-0.09743778622799397]",100.0,"[0.1007486461303945,-0.15032644448156426]",100.0,"[0.16488077820829278,0.0596806844420217]",4.0,"[0.16457950125454812,-0.09162870236894478]",4.0,"[-0.05898990376919291,0.10386162935518704]",4.0,"[0.18414274242154377,-0.016386203181706173]",100.0,"[-0.01710961437503905,0.1115231722579984]",100.0,"[0.0488006961555509,-0.19198543723816938]",100.0,"[0.02,0.02]",207.7684,0.0,32.0,32.0,145.0,1.0,,,,,,,
,,,,,,,68272b1f7a7966395e63196d,6843917e8adeadd9d3902052,2025-06-06_18h10.58.870,shape_ratio,2024.1.5,Win32,59.88023952,6842b561977af9ba9b0f87ca,,,,,,,,,,,207.769,208.2681,,,208.5189,208.8512,left,,,,,,,,0.5,0.3152,,,,,,,208.2681,208.5189,208.8513,"[0.020180783540402102,-0.06276222284738575]",100.0,"[-0.042168316850226484,0.1389791977515985]",100.0,"[-0.08712698319683188,0.11494123840549296]",100.0,"[0.029883046475958793,0.02181223003897184]",4.0,"[-0.1000159344941291,-0.10361977437752726]",100.0,"[-0.03108261720330644,-0.007702837299121186]",4.0,"[-0.052232360397307484,-0.13958523538674775]",4.0,"[0.06850302954392362,0.10911897134754364]",4.0,"[-0.1556142580127751,-0.0021650974580266504]",4.0,"[0.17936634076481797,-0.0417266081527227]",100.0,"[0.031668368778075745,-0.13433119048074652]",4.0,"[-0.07330767663667387,0.1701401182276408]",100.0,"[0.12086038858126809,0.025688826590576863]",4.0,"[0.08982815468921826,-0.07716148790036431]",100.0,"[0.05070129339690961,0.14499294924271322]",4.0,"[0.11280426176067451,-0.039809909649938434]",4.0,"[-0.0302707594111131,-0.078176860082471]",100.0,"[-0.1517144668496242,-0.08620288969930606]",100.0,"[-0.09916916006723547,-0.02369217766541315]",100.0,"[0.06418410134449945,0.06407981101339205]",100.0,"[0.13462631578090675,0.0756644399490459]",100.0,"[0.12023880579862217,0.11334584059658677]",4.0,"[-0.1980153095585343,0.022057586801631737]",4.0,"[-0.06745727666201301,0.07388889160291573]",4.0,"[-0.013815254132727115,0.08042319944579475]",4.0,"[-0.17724949203880738,-0.04305361364892363]",100.0,"[-0.17654795085527691,0.06562587722368231]",100.0,"[0.11925458374415561,-0.11665284739438042]",4.0,"[0.010882595523179718,-0.1960745300188915]",4.0,"[0.15088104214437525,-0.003260806657157703]",100.0,"[0.08995206313626934,-0.16566523338080566]",100.0,"[0.058358569323768546,-0.024750364056243628]",4.0,"[0.02,0.02]",209.951,0.0,33.0,33.0,99.0,1.0,,,,,,,
,,,,,,,68272b1f7a7966395e63196d,6843917e8adeadd9d3902052,2025-06-06_18h10.58.870,shape_ratio,2024.1.5,Win32,59.88023952,6842b561977af9ba9b0f87ca,,,,,,,,,,,209.9517,210.4507,,,210.7014,210.8506,left,,,,,,,,0.5,0.1176,,,,,,,210.4507,210.7014,210.8508,"[-0.13320382861133392,0.11018003993976376]",100.0,"[0.1268595036093084,-0.015227177474317484]",4.0,"[0.0859369973717127,0.0882161955969377]",4.0,"[-0.09011406287809959,-0.053354572934943834]",100.0,"[0.03800216689542992,0.057388130363135746]",4.0,"[0.011326214737647234,-0.035653581359196725]",4.0,"[-0.07942978052484485,0.060210123315176924]",100.0,"[-0.12469034434242912,-0.0951981041241552]",100.0,"[-0.13331579948455746,0.052638792974561865]",4.0,"[0.190041255154504,0.055144987620248366]",100.0,"[-0.05281041974179877,-0.15815617450767333]",4.0,"[-0.18008862414898996,0.04423552422567907]",4.0,"[0.11123184198236856,0.04547148579229622]",100.0,"[0.05233809820555109,0.007374933410046197]",100.0,"[0.1546263977753703,-0.10308683105288494]",100.0,"[0.0049199192907747194,0.10857392222420229]",4.0,"[-0.06664045922069162,0.1260587123329715]",100.0,"[0.15299654351596573,0.08186022447367972]",4.0,"[0.15096496332034431,0.03960077075469812]",100.0,"[0.07426913060682537,-0.1377869891680983]",4.0,"[0.05038104384124304,-0.07440539600460441]",4.0,"[-0.1238924698999668,-0.1366857393323686]",4.0,"[0.09682718625359696,-0.08647574317363324]",100.0,"[0.08741562179025449,0.16510729427500737]",4.0,"[0.00550685593050187,0.007047407260982414]",100.0,"[0.05819303205177029,0.12372646170390704]",100.0,"[0.07371432780588877,-0.04111739817366664]",4.0,"[-0.18962808792316935,-0.01609626136130043]",100.0,"[-0.14849646617968076,-0.05000254400522298]",4.0,"[-0.03716252693940209,0.19466665295803856]",4.0,"[-0.07816532011452293,0.016014325187912303]",100.0,"[-0.03475090026821379,-0.00654333631426617]",100.0,"[0.02,0.02]",211.95,0.0,34.0,34.0,90.0,1.0,,,,,,,
,,,,,,,68272b1f7a7966395e63196d,6843917e8adeadd9d3902052,2025-06-06_18h10.58.870,shape_ratio,2024.1.5,Win32,59.88023952,6842b561977af9ba9b0f87ca,,,,,,,,,,,211.951,212.45,,,212.7054,212.8668,left,,,,,,,,0.5,0.1457,,,,,,,212.4501,212.7054,212.8669,"[0.052491168861069706,0.1426842108337286]",100.0,"[0.14011539893560976,0.02571524490710545]",4.0,"[0.050890946698538664,-0.0036706353389659983]",4.0,"[0.12113048428390646,0.08658804022780008]",4.0,"[0.0315538660165153,-0.12359402141416226]",100.0,"[0.19310269002559607,0.01538447999592752]",100.0,"[0.17460340433622218,-0.02792366815445746]",4.0,"[-0.04468802246704971,0.015750069576359865]",4.0,"[-0.08639982094495391,0.10417743248816501]",4.0,"[0.16583575618769442,0.09013715497822654]",100.0,"[-0.058777523806667925,0.14168328215183154]",4.0,"[0.0974984591199833,-0.03988976303664375]",4.0,"[-0.08515958502583784,-0.08185501237147177]",100.0,"[0.09732885654975484,-0.167234279979143]",100.0,"[-0.11509987961320477,-0.12929877916004195]",4.0,"[-0.14266983044194165,0.019667092778360307]",100.0,"[-0.019709329970675305,-0.07405883827605622]",4.0,"[-0.05696259291952718,-0.1856840151709524]",4.0,"[-0.11147204194507117,0.05012716729833682]",100.0,"[0.01630373691383197,-0.038823637862891475]",100.0,"[0.13571512935852745,0.13445532141701103]",4.0,"[0.03826046489092617,0.04479184238366749]",4.0,"[-0.06841338752831505,0.05432014532497263]",4.0,"[-0.03459448785638752,-0.14131182049709554]",4.0,"[0.023504685340086255,-0.08347269187323272]",4.0,"[0.12656014016530892,-0.07951055507203957]",100.0,"[-0.018628996012856152,0.1501871644948186]",100.0,"[0.07522805668464178,0.0716187802153126]",100.0,"[0.019789203864500414,0.11410707501912079]",100.0,"[-0.18073663526317565,0.00027933242296122505]",100.0,"[-0.1612376128001907,0.0734345974811743]",100.0,"[-0.17363090212207274,-0.09550244776438813]",100.0,"[0.02,0.02]",213.9657,0.0,35.0,35.0,112.0,1.0,,,,,,,
,,,,,,,68272b1f7a7966395e63196d,6843917e8adeadd9d3902052,2025-06-06_18h10.58.870,shape_ratio,2024.1.5,Win32,59.88023952,6842b561977af9ba9b0f87ca,,,,,,,,,,,213.9666,214.4657,,,214.7163,214.9155,right,,,,,,,,0.4,0.1737,,,,,,,214.4657,214.7162,214.9156,"[0.1263626690656901,0.09114068452849182]",100.0,"[-0.11178691841436551,0.07305029260402054]",4.0,"[-0.11877510940658328,0.008720294854023949]",4.0,"[0.02803515424689468,0.098204262310143]",100.0,"[0.0981246273232223,-0.1699258448498006]",4.0,"[-0.017130568834732317,0.13031922024722167]",4.0,"[-0.10686450424492415,0.15882736815663287]",4.0,"[-0.020112836967724576,-0.15570573068583768]",4.0,"[0.1409124387224705,-0.13635646517511676]",4.0,"[-0.08971093293214084,0.11966305859668758]",4.0,"[0.06198199109519503,-0.1439485472578635]",100.0,"[-0.10459870178731863,-0.02948842183502024]",4.0,"[-0.1569877271458146,-0.09500076773612971]",100.0,"[0.11288568910836039,-0.03149204336013784]",4.0,"[0.015189963370505186,-0.13229039848528187]",100.0,"[-0.15790091946037307,0.023485957102810907]",4.0,"[0.10010138218205417,0.1404775390654635]",100.0,"[0.16218325251621685,0.07099911506406191]",100.0,"[-0.025456757368258563,0.1815406166090033]",100.0,"[-0.05340809179743485,-0.0019616006497348813]",100.0,"[-0.03230136798859655,0.08308465308018087]",4.0,"[0.1365916687115098,0.03829903556866569]",4.0,"[0.0903339353631718,-0.06827762881666236]",4.0,"[0.17970614597811987,-0.043978235886162884]",4.0,"[-0.004187999877245147,-0.035204199692170736]",100.0,"[0.0822052607051037,0.037487131666270455]",100.0,"[-0.06554926966649993,0.17545447278843046]",100.0,"[-0.11778343166036026,-0.07051020822292825]",100.0,"[0.05037261472544519,-0.020682453020877244]",4.0,"[-0.12166354218319653,-0.14982622859719588]",4.0,"[-0.16922362901433982,0.10062106631231126]",4.0,"[-0.18727955596120033,0.05280519879288553]",4.0,"[0.02,0.02]",216.015,0.0,36.0,36.0,165.0,1.0,,,,,,,
,,,,,,,68272b1f7a7966395e63196d,6843917e8adeadd9d3902052,2025-06-06_18h10.58.870,shape_ratio,2024.1.5,Win32,59.88023952,6842b561977af9ba9b0f87ca,,,,,,,,,,,216.016,216.5148,,,216.7655,216.8991,left,,,,,,,,0.9,0.1261,,,,,,,216.5149,216.7654,216.8993,"[-0.02068101430946842,-0.10584473947358071]",100.0,"[-0.09187537598525511,-0.13890872118429715]",100.0,"[0.058362234222606404,-0.18955089915832016]",100.0,"[0.057651427136788926,-0.07547591089031958]",100.0,"[0.18209645904597366,0.0596017412222202]",100.0,"[0.17657297462046426,-0.046419471994153166]",100.0,"[0.1307702901033488,-0.11181662710961837]",100.0,"[0.11849491796880321,-0.02641401343179245]",4.0,"[-0.18532838102614818,-0.029493938939672563]",100.0,"[-0.1748923951444766,-0.08570857281550998]",100.0,"[0.11439517475476772,0.15379849838173404]",100.0,"[0.08118149572328323,0.000649426495761282]",100.0,"[-0.09452698664901757,0.1206878903306412]",100.0,"[-0.13544144149019025,0.13813373694348255]",100.0,"[-0.07980166723095543,-0.008757814536962727]",100.0,"[-0.1253333203611229,0.05496602515080374]",100.0,"[0.017730965912589196,-0.04923182832762801]",4.0,"[-0.08081227720737319,0.16614102102862516]",100.0,"[-0.03820455338574186,0.09914079099861091]",100.0,"[0.04579223643469925,-0.11629083076516179]",100.0,"[-0.16524867192938517,0.010888915541680493]",100.0,"[0.1566851720001697,0.09984385479748226]",100.0,"[-0.16790154971964102,0.08595410413688329]",100.0,"[0.03491349386809383,0.1044856841800009]",4.0,"[-0.0754296802051361,0.04929582488775416]",100.0,"[0.15185483645728834,0.013523377846093065]",100.0,"[0.044114168618884515,0.04788813311764621]",100.0,"[-0.11008608498226669,-0.08579052990816179]",100.0,"[0.08226159712004218,0.06488116029704437]",100.0,"[-0.02244448126853345,-0.014904392151041649]",100.0,"[0.16823646562646152,-0.08661064570925801]",100.0,"[0.07811245572554065,0.13450044459912394]",100.0,"[0.02,0.02]",217.9974,0.0,37.0,37.0,26.0,1.0,,,,,,,
,,,,,,,68272b1f7a7966395e63196d,6843917e8adeadd9d3902052,2025-06-06_18h10.58.870,shape_ratio,2024.1.5,Win32,59.88023952,6842b561977af9ba9b0f87ca,,,,,,,,,,,217.9985,218.4969,,,218.7481,219.0806,right,,,,,,,,0.55,0.3142,,,,,,,218.497,218.7481,219.0807,"[-0.09337213204538482,0.17473243608913372]",4.0,"[0.15599338904006987,0.009788241465257468]",4.0,"[-0.056926330174485125,-0.040442714970463395]",4.0,"[0.11646698037159327,0.017401863962023128]",100.0,"[0.05547255994440723,-0.1338326301168975]",4.0,"[0.12747765056467208,-0.09355436716673453]",100.0,"[-0.019897155761105484,0.15319715537756778]",100.0,"[-0.1564011758795911,0.025515415437569147]",100.0,"[0.1054238285585016,0.06928779730666569]",100.0,"[0.05776531861160959,0.0714557150731677]",4.0,"[-0.1461933926736507,-0.03234955752146008]",100.0,"[-0.030152583876922896,0.009988304701215934]",100.0,"[-0.011717046729976798,-0.11877147090674867]",100.0,"[0.011551752475274539,0.18030770978033986]",4.0,"[-0.07987593025633678,-0.08308205704639635]",100.0,"[-0.07834287346075283,-0.17356167469103195]",4.0,"[0.057717497638825596,-0.06938818749426479]",100.0,"[0.15301898697784277,0.11815020797308876]",4.0,"[-0.14459417123004986,-0.08224207728308065]",100.0,"[-0.09574393982979039,0.06534231225815493]",100.0,"[0.16869329215490803,-0.06117284708338769]",4.0,"[0.06830128070488668,0.010324325915899197]",100.0,"[0.01212477190520186,0.10825813252591227]",100.0,"[-0.010227121862329092,-0.062152409355965325]",100.0,"[0.05122265025035139,0.14718760985353002]",4.0,"[0.10737399679390543,-0.15079777549962398]",100.0,"[0.1298343169280521,-0.026333845789632437]",4.0,"[-0.04319554841890202,0.10300747266377912]",100.0,"[0.005937963808525693,-0.16031827289967554]",4.0,"[-0.10943073703131104,-0.0014477574973359017]",4.0,"[0.014590307601223864,0.03245656410617528]",4.0,"[-0.16169987860050644,0.11012496319896371]",100.0,"[0.02,0.02]",220.1799,0.0,38.0,38.0,74.0,1.0,,,,,,,
,,,,,,,68272b1f7a7966395e63196d,6843917e8adeadd9d3902052,2025-06-06_18h10.58.870,shape_ratio,2024.1.5,Win32,59.88023952,6842b561977af9ba9b0f87ca,,,,,,,,,,,220.1805,220.6795,,,220.929,221.346,left,,,,,,,,0.1,0.3997,,,,,,,220.6796,220.9289,221.3461,"[-0.08128474310333728,0.05687152059795269]",100.0,"[-0.14499032758654926,-0.11408402021303465]",4.0,"[0.030229194200063713,-0.06543979346591769]",4.0,"[-0.1984696615148776,0.018415780186613676]",100.0,"[-0.10095671616483026,-0.08904411810353802]",4.0,"[0.03619895248544595,-0.010519627727506937]",4.0,"[0.11194686985755539,0.09816775784267752]",4.0,"[-0.17108982710268197,-0.07328871608768521]",4.0,"[0.1539768044199672,0.09766191529609367]",4.0,"[-0.10775520123181004,-0.14911580758893742]",4.0,"[-0.1468701398259246,0.05766092092278765]",4.0,"[-0.041214440785640336,0.13796500642908863]",4.0,"[-0.14714618881795533,-0.008612199326546353]",4.0,"[0.06013382880502563,0.12524936713663654]",4.0,"[0.1567212759294325,0.014110929802030417]",4.0,"[0.05545307991044535,0.045842942522171956]",4.0,"[0.06475006482861737,-0.11222284174266227]",4.0,"[-0.04223722918702853,-0.15129515588383438]",4.0,"[-0.06777144566512486,0.18362593322086673]",4.0,"[-0.07344610830500087,0.00022499475437595673]",4.0,"[-0.015176935444257078,-0.04774814616371272]",4.0,"[0.003242040524128022,-0.1629899747918781]",4.0,"[-0.11782593902109115,0.11747832261197928]",4.0,"[0.02065773197088315,0.1780858143156425]",4.0,"[-0.10703560886312448,-0.046342704167953]",100.0,"[-0.0015883411640655268,0.1442575564028235]",4.0,"[0.09983652018221324,0.05814232504366532]",4.0,"[0.11369104220605918,-0.04707874277687321]",4.0,"[0.004349637342455004,0.08221649967023695]",4.0,"[-0.035895788209845104,-0.0862137815678835]",4.0,"[0.08569227467084756,0.16795657048771823]",4.0,"[0.17979090746670334,-0.028813262366817895]",4.0,"[0.02,0.02]",222.4454,0.0,39.0,39.0,194.0,1.0,,,,,,,
,,,,,,,68272b1f7a7966395e63196d,6843917e8adeadd9d3902052,2025-06-06_18h10.58.870,shape_ratio,2024.1.5,Win32,59.88023952,6842b561977af9ba9b0f87ca,,,,,,,,,,,222.4463,222.9449,,,223.195,223.2612,right,,,,,,,,0.5,0.036,,,,,,,222.9449,223.1949,223.2613,"[0.06321128262435391,0.028315665240561838]",4.0,"[0.005056125334757597,0.06158478501348396]",100.0,"[-0.08397289012662723,-0.07043615499161715]",4.0,"[-0.04359965147395199,-0.015283285932208221]",100.0,"[-0.06078805872346193,0.07750942844956285]",4.0,"[-0.1340524350674795,0.1310254814564542]",100.0,"[-0.019417416086193816,0.13029885100312996]",100.0,"[0.014162735412189625,0.0016245723418825903]",4.0,"[-0.12324881857136723,-0.05205404161373417]",4.0,"[-0.01472376860941414,-0.044611003106420785]",4.0,"[0.05135404997713731,0.16708307310810908]",4.0,"[0.10483779950022454,0.158224933341867]",100.0,"[0.06975087647927956,-0.14914087298921197]",100.0,"[0.08489528223025374,-0.07206428937026821]",100.0,"[0.15350914271259702,-0.06656584328670069]",4.0,"[0.11764443301370713,-0.11969246457501122]",100.0,"[0.19017429996353621,0.029489149993656493]",4.0,"[0.11648274449934994,0.015768140004132958]",4.0,"[0.125507898347152,0.06443619048229628]",100.0,"[-0.08368797773197599,-0.01082546865415556]",100.0,"[-0.10567015771571213,0.10093046332764691]",100.0,"[0.04406773941083207,-0.0663418459696923]",100.0,"[0.15485450344189472,-0.007586515912268366]",4.0,"[0.005970134242808756,-0.08563193802893186]",4.0,"[-0.007823065760161386,0.1692288380771874]",4.0,"[-0.05752430223194579,-0.11108783074904542]",100.0,"[-0.1497874735801791,0.06342159687191203]",4.0,"[0.15469520227678626,0.1173917871019206]",4.0,"[-0.19181699468758442,-0.01709836268224543]",100.0,"[-0.14984011015240864,-0.08370182237010264]",4.0,"[-0.12587529790953572,0.01836998265557095]",100.0,"[0.07160139294448137,0.11330930264994456]",100.0,"[0.02,0.02]",224.3605,0.0,40.0,40.0,97.0,1.0,,,,,,,
,,,,,,,68272b1f7a7966395e63196d,6843917e8adeadd9d3902052,2025-06-06_18h10.58.870,shape_ratio,2024.1.5,Win32,59.88023952,6842b561977af9ba9b0f87ca,,,,,,,,,,,224.3616,224.8608,,,225.1115,225.2445,right,,,,,,,,0.4,0.1177,,,,,,,224.861,225.1113,225.2445,"[0.05134191436576922,0.09294868017865701]",4.0,"[0.09854897645135192,0.12997684741067972]",100.0,"[-0.02271181213369928,0.1801845770248486]",100.0,"[0.025623257482722418,0.15585132254076553]",4.0,"[-0.0677461329576132,0.0545427683951039]",100.0,"[-0.11770508290400135,0.1456507740873315]",100.0,"[-0.0149189527071053,-0.11308529480990656]",4.0,"[-0.1757418816745903,0.08609779905118865]",4.0,"[0.14946410287220718,-0.025900229687882057]",4.0,"[0.016108946954457692,-0.19368266379246]",4.0,"[-0.03105794051123934,0.007021013058706563]",100.0,"[0.1559858185461874,-0.07067934704167197]",4.0,"[-0.00009961140444547302,0.07075599258204196]",4.0,"[-0.07338966088669573,0.1294774569441186]",4.0,"[0.08619473850466532,-0.10233025329678873]",100.0,"[-0.1481889153777441,-0.1051717289384213]",4.0,"[-0.12438746219536215,0.011848262784193573]",4.0,"[0.18616874121519084,0.021574708892098268]",4.0,"[-0.1059361358747176,-0.05287706446976024]",100.0,"[-0.12816724417799794,-0.1474598492188106]",100.0,"[-0.07118248100767295,-0.14443425256597112]",4.0,"[0.015583657133302621,0.02594058389552248]",4.0,"[0.09777891880585404,-0.16623419852240157]",4.0,"[-0.17628838051560416,0.03730939046605698]",100.0,"[0.09964463983492897,0.04992857049772199]",100.0,"[0.13848071042170454,0.03262085458349521]",100.0,"[0.1438988174887906,-0.11123027626654372]",4.0,"[0.04539701879370008,-0.11382977097830907]",100.0,"[0.06674387368137703,0.012854889654291404]",4.0,"[-0.16120879105745287,-0.0467148315795202]",4.0,"[0.027656454655505463,-0.0140224877177839]",100.0,"[-0.030267891986560803,-0.06609646628765226]",4.0,"[0.02,0.02]",226.3428,0.0,41.0,41.0,156.0,1.0,,,,,,,
,,,,,,,68272b1f7a7966395e63196d,6843917e8adeadd9d3902052,2025-06-06_18h10.58.870,shape_ratio,2024.1.5,Win32,59.88023952,6842b561977af9ba9b0f87ca,,,,,,,,,,,226.3433,226.8429,,,227.0939,227.2928,right,,,,,,,,0.55,0.1718,,,,,,,226.8429,227.0938,227.2929,"[0.08723046624468396,-0.13077591391156]",100.0,"[-0.024483562115897483,0.011561158229639068]",4.0,"[0.19354551994151648,-0.004458492242896409]",4.0,"[0.10315970401487833,-0.08421536779934348]",100.0,"[-0.1537105720004865,-0.10494483151491583]",4.0,"[-0.14626742300367246,0.05833939408254884]",100.0,"[-0.04754416717950652,-0.08843177623686393]",100.0,"[0.07872141898872173,0.1338233169463109]",4.0,"[0.030763050526405312,-0.10122692796717642]",4.0,"[-0.03904436527536315,0.1704622828932459]",4.0,"[0.05598394572473499,0.052917652453431295]",100.0,"[0.11633934553548586,0.11832273613413252]",4.0,"[0.049122968825610465,-0.1590527361299384]",100.0,"[-0.011624503015916204,-0.1292253365568801]",100.0,"[-0.10932150156395296,0.03837090153088641]",4.0,"[0.015530569096709837,-0.007053564234560469]",100.0,"[-0.07871736058787468,-0.12272607737915688]",4.0,"[0.11833228894009033,0.029488983131742724]",100.0,"[0.15504703289687158,0.07393391069168284]",100.0,"[0.15064508903697266,-0.048182909343168136]",100.0,"[-0.03361256944788209,0.06420375867762547]",100.0,"[0.08510940186897631,-0.041949135107959286]",100.0,"[-0.0071123342269912146,-0.17247543940940605]",4.0,"[0.018963210134752422,0.15575595949256774]",100.0,"[0.1827083921616317,-0.07307851417068861]",100.0,"[-0.17837964710520704,-0.007384597820910654]",100.0,"[-0.016874272769227653,0.13621523606888566]",100.0,"[0.0014282452706562711,0.04406898865002651]",4.0,"[-0.12302162686740468,0.13757765624498214]",4.0,"[-0.1344315647228362,-0.14417365831342835]",100.0,"[0.11956601141652005,-0.01572554795276929]",4.0,"[-0.065338775081444,0.13197070482826864]",4.0,"[0.02,0.02]",228.3925,0.0,42.0,42.0,62.0,1.0,,,,,,,
,,,,,,,68272b1f7a7966395e63196d,6843917e8adeadd9d3902052,2025-06-06_18h10.58.870,shape_ratio,2024.1.5,Win32,59.88023952,6842b561977af9ba9b0f87ca,,,,,,,,,,,228.3936,228.8925,,,229.1428,229.2425,right,,,,,,,,0.9,0.0837,,,,,,,228.8926,229.1428,229.2426,"[0.1265200793414829,-0.02003559948533074]",100.0,"[-0.03402494074964804,0.08706754578958915]",100.0,"[-0.09546037308272064,-0.09415819804292888]",100.0,"[0.06756507038313955,0.024385607636619164]",100.0,"[-0.024131970178994072,-0.026207283315305373]",4.0,"[0.06280051091739902,-0.16605953180686575]",100.0,"[-0.03131306620358609,-0.15414698241786312]",100.0,"[-0.1507562525913717,0.03750428900544754]",100.0,"[-0.1488367765742831,-0.09728897820856212]",100.0,"[-0.07243598112219099,0.173741846481158]",100.0,"[-0.13828787001619916,-0.01991371610375416]",100.0,"[0.0297123236448973,0.19481534400072392]",4.0,"[-0.024926415339829124,0.016472271249835416]",100.0,"[-0.17487836073915758,-0.0590540584052177]",100.0,"[-0.06856714837895939,0.01694961329367365]",100.0,"[0.019346419496452865,0.059029887666148154]",100.0,"[-0.09173345689342603,-0.03398564699614829]",100.0,"[-0.07856131610088005,0.10761424262838884]",100.0,"[-0.0025627449050319457,-0.11249523438439343]",100.0,"[0.04523854886880407,-0.12298800978526182]",100.0,"[0.05094327700757315,0.08965233397875269]",100.0,"[0.13020834473540585,0.04780943508649376]",100.0,"[0.01524450254055662,-0.15521766327166803]",100.0,"[0.19265748080809444,0.03735173118456333]",100.0,"[-0.14531715521589286,0.09952409180853695]",100.0,"[0.16553170663191513,0.08395093281007902]",100.0,"[0.10584274776644671,-0.09418756265398152]",100.0,"[-0.009301832337619362,0.12710106977674895]",100.0,"[0.031175817083205486,-0.061676002968379016]",100.0,"[0.16241141772540646,-0.1064015146667781]",4.0,"[0.07855921957613798,-0.03057285748863708]",100.0,"[0.08000053996271245,0.16612591156291778]",100.0,"[0.02,0.02]",230.3415,0.0,43.0,43.0,12.0,1.0,,,,,,,
,,,,,,,68272b1f7a7966395e63196d,6843917e8adeadd9d3902052,2025-06-06_18h10.58.870,shape_ratio,2024.1.5,Win32,59.88023952,6842b561977af9ba9b0f87ca,,,,,,,,,,,230.3425,230.8415,,,231.0924,231.2085,right,,,,,,,,0.1,0.098,,,,,,,230.8417,231.0923,231.2086,"[0.10521480391740502,0.10420293174264057]",4.0,"[0.00776071107666137,-0.015967629914295543]",4.0,"[0.07369387636298148,0.060934301406425403]",4.0,"[-0.15812912013203453,-0.07945145873113074]",4.0,"[-0.03659577860292546,0.0028083828056668513]",4.0,"[0.08922585887301217,-0.15484792335299088]",4.0,"[0.08368781946692913,-0.05404769399913604]",4.0,"[-0.11661088973580527,-0.006677618240473968]",4.0,"[0.05171121439641339,-0.13031359908467888]",4.0,"[-0.043428742350244215,0.08427452184381018]",4.0,"[0.0013167551295254591,0.027099461351054302]",4.0,"[0.1463034668870351,-0.0060436130129805365]",4.0,"[0.040266642395426044,0.16490370485358521]",4.0,"[-0.005382780093578079,-0.10559700850880706]",4.0,"[-0.17500508556325028,0.08171021029526657]",4.0,"[-0.05048075215381287,-0.05665459460584033]",4.0,"[0.07272214386286509,-0.09283462972376674]",4.0,"[-0.024489805453791324,-0.1584036957818989]",4.0,"[-0.1305269205337194,0.10997651050367062]",4.0,"[0.02326041460395977,-0.16996685489735916]",4.0,"[0.18340601817157193,0.034276614357262265]",100.0,"[0.13903983231568523,-0.055721528824333295]",4.0,"[-0.09416796278519785,-0.1594850896293491]",4.0,"[-0.16995504312544196,0.0024283336502151425]",4.0,"[0.1131861338786895,0.01986903297444094]",100.0,"[-0.12220153500365236,0.058593373187479224]",4.0,"[0.005280085958890442,0.1375088614079485]",4.0,"[0.14369362092614424,-0.10994475873422546]",100.0,"[-0.04477373372565787,0.13375712679721338]",4.0,"[0.16133236376002347,0.08035691772414125]",4.0,"[-0.1268209932047231,-0.047461110640580124]",4.0,"[0.03826726283201109,0.0945034703236874]",4.0,"[0.02,0.02]",232.3076,0.0,44.0,44.0,181.0,1.0,,,,,,,
,,,,,,,68272b1f7a7966395e63196d,6843917e8adeadd9d3902052,2025-06-06_18h10.58.870,shape_ratio,2024.1.5,Win32,59.88023952,6842b561977af9ba9b0f87ca,,,,,,,,,,,232.3083,232.8073,,,233.0579,233.1741,right,,,,,,,,0.55,0.0912,,,,,,,232.8074,233.0578,233.1742,"[-0.15979566461785358,0.010010247593479538]",4.0,"[0.19509134603247255,0.035866829526978616]",4.0,"[-0.06406202409397337,-0.11070240234678488]",100.0,"[-0.11099122822569739,0.06826517898654752]",4.0,"[-0.013406816003769254,-0.05036181879421863]",100.0,"[-0.012732023844603528,0.10880210474797802]",4.0,"[-0.10000184946713479,-0.1693165274528064]",100.0,"[-0.11110834440957533,-0.051463989513270136]",4.0,"[-0.03675730747653729,0.1909945311524255]",100.0,"[-0.05371895551029092,0.07433503996920682]",4.0,"[0.017369157456243754,0.15653303015681216]",100.0,"[-0.14443896376592993,0.12246600992184911]",100.0,"[0.09097643022727049,0.1738050311516039]",4.0,"[0.15642120805097137,0.0850327918677642]",4.0,"[0.02810858045593274,-0.12431150340394857]",4.0,"[0.14722429502587067,-0.1271987012465074]",100.0,"[0.03868586861001259,-0.04764459067551441]",100.0,"[0.12648130441837332,-0.05915754806882388]",4.0,"[-0.18998328574604,-0.02287801470903902]",100.0,"[-0.003862606753649873,0.05751749063081059]",100.0,"[-0.048722756304005764,-0.013864247548659673]",100.0,"[0.11559492971420607,0.0694659340883411]",4.0,"[0.061226105462671064,-0.0029941816717193965]",4.0,"[-0.15494446258770075,0.06108131674467719]",100.0,"[-0.13410930785865732,-0.13438468896455202]",100.0,"[-0.04559985449665875,0.13634520328388341]",100.0,"[0.11587297924183193,-0.0017936570175706562]",4.0,"[0.12085642666423087,0.12359798033065167]",100.0,"[0.08231635962616654,-0.11281155247227802]",100.0,"[-0.10041545203448383,0.029228432198329275]",100.0,"[0.03177211166206398,0.11414479711424859]",100.0,"[-0.1497574950702653,-0.08360623038237748]",4.0,"[0.02,0.02]",234.2733,0.0,45.0,45.0,61.0,1.0,,,,,,,
,,,,,,,68272b1f7a7966395e63196d,6843917e8adeadd9d3902052,2025-06-06_18h10.58.870,shape_ratio,2024.1.5,Win32,59.88023952,6842b561977af9ba9b0f87ca,,,,,,,,,,,234.2744,234.7724,,,235.0237,235.1404,right,,,,,,,,0.5,0.0932,,,,,,,234.7725,235.0236,235.1406,"[0.053412065206296086,0.1815849045378552]",4.0,"[0.005988571945141416,-0.12755780553098925]",100.0,"[0.06323658226569795,-0.0678700320245713]",4.0,"[-0.1252232421904792,-0.028514598966771994]",100.0,"[0.03609188686132567,0.09290517363913878]",100.0,"[0.0466602799554476,0.039766303137180554]",4.0,"[0.12471706523418485,-0.12612356568822236]",100.0,"[-0.08932550429586107,0.10359449707206499]",4.0,"[-0.11485277326088364,0.02614704490682853]",4.0,"[0.08499301984095545,-0.1700313425673473]",100.0,"[-0.05664578011448425,-0.1801127898708195]",100.0,"[0.132823645631247,0.004776304782340532]",4.0,"[0.0040132124856124335,0.16352799617849256]",4.0,"[-0.03555629669247287,-0.06864583249005952]",4.0,"[0.0004415920806248905,-0.03558675935858594]",4.0,"[0.08257176979004557,-0.11911053898997462]",4.0,"[-0.05587404177232201,0.17121376244018202]",100.0,"[-0.18478259348200682,-0.009554427609640034]",4.0,"[0.10056647019359444,-0.05231382696568626]",100.0,"[0.09982412280364385,0.1689132685590983]",100.0,"[-0.09943157963958801,-0.07305713138660828]",100.0,"[-0.04232272123019368,0.017442842042130913]",100.0,"[-0.1706358306911194,0.0397388103795693]",4.0,"[0.12807183093815094,0.0763310362662939]",4.0,"[0.014974938319735736,-0.17640476368632174]",4.0,"[0.1318921580924174,0.13902200994365166]",4.0,"[-0.146461369878211,-0.06717014907710205]",100.0,"[-0.005958854691924993,0.10597083703797747]",4.0,"[0.16715325752386706,-0.023310011245290835]",100.0,"[-0.1688689674980368,0.09332949844222138]",100.0,"[-0.09641320666404156,0.061646528290093296]",100.0,"[0.17194310276775812,0.0589820793157863]",100.0,"[0.02,0.02]",236.2392,0.0,46.0,46.0,96.0,1.0,,,,,,,
,,,,,,,68272b1f7a7966395e63196d,6843917e8adeadd9d3902052,2025-06-06_18h10.58.870,shape_ratio,2024.1.5,Win32,59.88023952,6842b561977af9ba9b0f87ca,,,,,,,,,,,236.2403,236.739,,,236.9893,237.1387,right,,,,,,,,0.1,0.1321,,,,,,,236.7392,236.9893,237.1388,"[0.1001595898422354,-0.11435971126079347]",4.0,"[0.056130943113099956,-0.08127747210803889]",4.0,"[0.09127971527143647,0.16683483266114976]",4.0,"[-0.008088434556479451,-0.02984310470705432]",4.0,"[0.156086647905623,0.10621786611802042]",4.0,"[-0.015432993717185962,0.0493699686057431]",4.0,"[0.015217122704566748,0.17219178653493195]",4.0,"[-0.18527911456868748,-0.016812271884540635]",4.0,"[0.17776634847327055,-0.0012464711479587731]",4.0,"[0.09898939420040757,0.04015866402209465]",4.0,"[-0.08334578368419347,-0.16803007055659436]",4.0,"[-0.1575416619313839,0.057111240064557964]",100.0,"[-0.0277472759802031,-0.15309513716963594]",4.0,"[0.039955334783126746,0.029593723870304213]",4.0,"[0.060806282894712745,-0.009103329852555141]",4.0,"[-0.05594973648847135,-0.060502046366047536]",4.0,"[-0.08140863718222775,0.17910213159570465]",4.0,"[-0.07973176651173618,0.032245392124235585]",4.0,"[-0.08987855827421506,0.11787241049124615]",4.0,"[-0.026795082220901732,0.08937313708370924]",4.0,"[-0.11125240826993534,-0.08975916521975424]",4.0,"[-0.12728524376426162,-0.03690126957254928]",4.0,"[0.14018573734133308,0.048490963323750504]",100.0,"[0.15470607505295797,-0.10476873763407421]",4.0,"[-0.16826478903133546,0.10739330748060506]",4.0,"[0.05708073271507091,-0.15763207608154967]",4.0,"[-0.04789356011971134,-0.005893798848715358]",4.0,"[-0.16068940545242935,-0.11128618193197438]",4.0,"[-0.07141233082270682,-0.12700923272196038]",4.0,"[0.14028985771918465,-0.0617104845915057]",4.0,"[0.09789921251461754,0.0862345596069362]",4.0,"[0.07418347367906201,0.12572650941552937]",100.0,"[0.02,0.02]",238.2379,0.0,47.0,47.0,185.0,1.0,,,,,,,
,,,,,,,68272b1f7a7966395e63196d,6843917e8adeadd9d3902052,2025-06-06_18h10.58.870,shape_ratio,2024.1.5,Win32,59.88023952,6842b561977af9ba9b0f87ca,,,,,,,,,,,238.2387,238.738,,,238.9887,239.3212,right,,,,,,,,0.6,0.3043,,,,,,,238.7381,238.9885,239.3213,"[-0.08780376123415433,-0.14320803731929227]",4.0,"[0.16408907356781852,-0.06175300905584119]",100.0,"[0.0174356942125594,-0.1529438815021241]",4.0,"[-0.15779286442377308,0.07762453268254856]",4.0,"[0.04541924280667599,0.02267095787348274]",100.0,"[0.07813196538686368,0.13922881356795802]",100.0,"[-0.03671534641542831,-0.0017151377852169848]",4.0,"[-0.022879172415290337,-0.16592412550146313]",4.0,"[-0.14496582823032583,-0.09890791409365063]",100.0,"[-0.06769644248600847,-0.05937065781628507]",100.0,"[0.09798959511094196,0.026141140424215444]",4.0,"[0.06686912702998385,0.1855020935320607]",100.0,"[0.1312180135705273,-0.1286019860201969]",100.0,"[0.12734757514845652,0.14046054222164592]",100.0,"[0.14119699771208385,-0.0003692495792095759]",4.0,"[-0.11729854381502998,0.05423824552636648]",100.0,"[0.09055235244175056,-0.08495296325888696]",4.0,"[-0.13916658642799803,0.018684602155125567]",100.0,"[-0.0606151969966911,0.11175961815842414]",100.0,"[-0.19000492320302229,-0.05568626755647321]",4.0,"[0.08491140081280918,-0.027289552502743186]",100.0,"[0.029519133832291926,0.08745776899840468]",100.0,"[0.023295861278799596,-0.07505868642507466]",100.0,"[-0.03533729821730235,0.1928194075247772]",100.0,"[0.01814656878909899,0.1680186243525034]",4.0,"[-0.017953224987945837,-0.09349145152314708]",100.0,"[-0.07228128501750876,0.022089277841944595]",4.0,"[-0.01909479566746457,0.08774608991406672]",100.0,"[-0.14914138227733928,0.12598853208195981]",100.0,"[-0.08231222325390596,-0.1007784880502135]",4.0,"[0.09142230090267767,0.09680432156929195]",100.0,"[0.179486544964122,0.08456231861166794]",4.0,"[0.02,0.02]",240.4206,0.0,48.0,48.0,43.0,1.0,,,,,,,
,,,,,,,68272b1f7a7966395e63196d,6843917e8adeadd9d3902052,2025-06-06_18h10.58.870,shape_ratio,2024.1.5,Win32,59.88023952,6842b561977af9ba9b0f87ca,,,,,,,,,,,240.4216,240.9205,,,241.1711,241.1916,left,,,,,,,,0.9,0.0011,,,,,,,240.9206,241.171,241.1917,"[0.12922024783011132,-0.0057021961884911815]",100.0,"[-0.17403734387617484,0.021745378648182698]",100.0,"[0.13205372037119115,-0.13619663272796217]",100.0,"[-0.15869554965098479,-0.07085131485225518]",100.0,"[0.027898441143747663,0.16253988547954518]",100.0,"[-0.12469719174164445,-0.032222318106158845]",100.0,"[-0.06753402600745731,0.002898217854169911]",100.0,"[0.06533448400738973,-0.006902321324107701]",100.0,"[0.050705922857118994,0.11620633657718771]",100.0,"[-0.0815949610667151,-0.10464539178063423]",100.0,"[-0.19132144761517256,-0.014578276997665987]",100.0,"[-0.15221360705734374,-0.1153708428054318]",100.0,"[-0.12933610302452225,0.04028011504330805]",100.0,"[-0.06341084622436695,0.10484059372926982]",4.0,"[-0.07984303541467783,0.05650709330325993]",100.0,"[-0.1866422367530965,0.06762859819190198]",100.0,"[0.07241771177769343,0.17347368807631627]",4.0,"[-0.0887939332154685,-0.15849054966649123]",100.0,"[0.053551633420192035,0.06810943674988282]",100.0,"[0.022408042583616186,-0.0253375912746966]",4.0,"[0.0029178256542118416,0.0512980774111954]",100.0,"[0.08064617498223897,-0.09347186271019048]",100.0,"[-0.04808894776508417,0.19412328420409694]",100.0,"[0.050777742465334376,-0.1280984534777416]",100.0,"[0.036662914441615235,-0.18499233561563203]",100.0,"[0.15249884980242942,0.12890075874728177]",100.0,"[-0.029209885690933222,-0.08413698902700689]",100.0,"[-0.041279834309252326,0.0369707712478606]",100.0,"[-0.01884935366837452,-0.14318227705609024]",100.0,"[0.08718811780714864,-0.1748110367300844]",100.0,"[0.11084041620342489,0.05167020983908397]",100.0,"[0.17323293935179054,0.012212604399155657]",100.0,"[0.02,0.02]",242.2862,0.0,49.0,49.0,20.0,1.0,,,,,,,
