right,left,explain.started,explain.stopped,key_resp_3.keys,key_resp_3.rt,key_resp_3.duration,participant,session,date,expName,psychopyVersion,OS,frameRate,study_id,explain_2.started,explain_2.stopped,key_resp_4.keys,key_resp_4.rt,key_resp_4.duration,explain_3.started,explain_3.stopped,key_resp_5.keys,key_resp_5.rt,key_resp_5.duration,fixation.started,fixation.stopped,practice.started,practice.stopped,response.started,response.stopped,key_resp.keys,key_resp.rt,key_resp.duration,feedback.started,feedback.stopped,trials_2.thisRepN,trials_2.thisTrialN,trials_2.thisN,trials_2.thisIndex,trials_2.ran,dot_ratio,explain_4.started,explain_4.stopped,key_resp_6.keys,key_resp_6.rt,key_resp_6.duration,dotDisplay.started,dotDisplay.stopped,ITI.started,polygon_1.pos,polygon_1.edges,polygon_2.pos,polygon_2.edges,polygon_3.pos,polygon_3.edges,polygon_4.pos,polygon_4.edges,polygon_5.pos,polygon_5.edges,polygon_6.pos,polygon_6.edges,polygon_7.pos,polygon_7.edges,polygon_8.pos,polygon_8.edges,polygon_9.pos,polygon_9.edges,polygon_10.pos,polygon_10.edges,polygon_11.pos,polygon_11.edges,polygon_12.pos,polygon_12.edges,polygon_13.pos,polygon_13.edges,polygon_14.pos,polygon_14.edges,polygon_15.pos,polygon_15.edges,polygon_16.pos,polygon_16.edges,polygon_17.pos,polygon_17.edges,polygon_18.pos,polygon_18.edges,polygon_19.pos,polygon_19.edges,polygon_20.pos,polygon_20.edges,polygon_21.pos,polygon_21.edges,polygon_22.pos,polygon_22.edges,polygon_23.pos,polygon_23.edges,polygon_24.pos,polygon_24.edges,polygon_25.pos,polygon_25.edges,polygon_26.pos,polygon_26.edges,polygon_27.pos,polygon_27.edges,polygon_28.pos,polygon_28.edges,polygon_29.pos,polygon_29.edges,polygon_30.pos,polygon_30.edges,polygon_31.pos,polygon_31.edges,polygon_32.pos,polygon_32.edges,dot_size,ITI.stopped,trials.thisRepN,trials.thisTrialN,trials.thisN,trials.thisIndex,trials.ran,break_2.started,break_2.stopped,trials_3.thisRepN,trials_3.thisTrialN,trials_3.thisN,trials_3.thisIndex,trials_3.ran
subject chose diamond,subject chose dot,0.0002,68.9731,space,53.9496,,67c1d7dfe0aaba274972150e,683aef14190727d64367fe4f,2025-05-31_07h01.55.757,shape_ratio,2024.1.5,Win32,59.88023952,683ae9196541af24d3a69e58,,,,,,,,,,,,,,,,,,,,,,,,,,,,,,,,,,,,,,,,,,,,,,,,,,,,,,,,,,,,,,,,,,,,,,,,,,,,,,,,,,,,,,,,,,,,,,,,,,,,,,,,,,,,,,,,,
,,,,,,,67c1d7dfe0aaba274972150e,683aef14190727d64367fe4f,2025-05-31_07h01.55.757,shape_ratio,2024.1.5,Win32,59.88023952,683ae9196541af24d3a69e58,68.9739,106.7377,space,7.7537,,,,,,,,,,,,,,,,,,,,,,,,,,,,,,,,,,,,,,,,,,,,,,,,,,,,,,,,,,,,,,,,,,,,,,,,,,,,,,,,,,,,,,,,,,,,,,,,,,,,,,,,,,,,,
,,,,,,,67c1d7dfe0aaba274972150e,683aef14190727d64367fe4f,2025-05-31_07h01.55.757,shape_ratio,2024.1.5,Win32,59.88023952,683ae9196541af24d3a69e58,,,,,,106.7381,111.0984,space,1.3433,,,,,,,,,,,,,,,,,,,,,,,,,,,,,,,,,,,,,,,,,,,,,,,,,,,,,,,,,,,,,,,,,,,,,,,,,,,,,,,,,,,,,,,,,,,,,,,,,,,,,,,,
,,,,,,,67c1d7dfe0aaba274972150e,683aef14190727d64367fe4f,2025-05-31_07h01.55.757,shape_ratio,2024.1.5,Win32,59.88023952,683ae9196541af24d3a69e58,,,,,,,,,,,111.1438,111.6147,111.6154,111.8651,111.8654,113.1485,left,1.2193,,113.149,114.2479,0.0,0.0,0.0,1.0,1.0,0.8,,,,,,,,,,,,,,,,,,,,,,,,,,,,,,,,,,,,,,,,,,,,,,,,,,,,,,,,,,,,,,,,,,,,,,,,,,,,,,,,,,,,,,
,,,,,,,67c1d7dfe0aaba274972150e,683aef14190727d64367fe4f,2025-05-31_07h01.55.757,shape_ratio,2024.1.5,Win32,59.88023952,683ae9196541af24d3a69e58,,,,,,,,,,,114.2491,114.7472,114.7473,115.0065,115.0066,115.8904,right,0.8665,,115.8905,116.9807,0.0,1.0,1.0,0.0,1.0,0.2,,,,,,,,,,,,,,,,,,,,,,,,,,,,,,,,,,,,,,,,,,,,,,,,,,,,,,,,,,,,,,,,,,,,,,,,,,,,,,,,,,,,,,
,,,,,,,67c1d7dfe0aaba274972150e,683aef14190727d64367fe4f,2025-05-31_07h01.55.757,shape_ratio,2024.1.5,Win32,59.88023952,683ae9196541af24d3a69e58,,,,,,,,,,,,,,,,,,,,,,,,,,,,116.9815,131.5651,space,11.5592,,,,,,,,,,,,,,,,,,,,,,,,,,,,,,,,,,,,,,,,,,,,,,,,,,,,,,,,,,,,,,,,,,,,,,,,,,,,,,,,,,
,,,,,,,67c1d7dfe0aaba274972150e,683aef14190727d64367fe4f,2025-05-31_07h01.55.757,shape_ratio,2024.1.5,Win32,59.88023952,683ae9196541af24d3a69e58,,,,,,,,,,,131.5936,132.0809,,,132.3315,132.6145,left,0.2516,,,,,,,,,0.1,,,,,,132.0817,132.3314,132.6154,"[-0.031317253096538655,-0.11898012454355894]",4.0,"[0.12970518518094784,-0.006947573259780481]",4.0,"[0.11714295746568762,0.045663298524813045]",4.0,"[-0.07864583372385081,0.09615373593069437]",4.0,"[-0.053232506118419246,-0.1544846513179522]",4.0,"[-0.12312991273762282,-0.14282048761636143]",100.0,"[-0.03457065136750557,0.10196077464980724]",100.0,"[-0.10044443997695905,-0.03905948242121876]",4.0,"[-0.05840453979870632,-0.061666285424550535]",4.0,"[0.03127104775695542,0.13631392589829283]",4.0,"[0.11528719981323968,-0.04932469319922967]",4.0,"[0.05659334143721547,-0.14230738943194643]",4.0,"[-0.1931236448936732,0.020489822567764188]",4.0,"[-0.14652870791376585,-0.04058938667758846]",100.0,"[-0.018631653077002805,-0.002044826554090709]",4.0,"[-0.12260033099230265,0.03993406718844821]",4.0,"[0.03911386056212222,0.08967334384972138]",4.0,"[0.017721937990293445,0.04619303080266131]",4.0,"[-0.07628106737704415,0.15654978799818398]",4.0,"[0.16961405845116015,-0.036470149578739584]",4.0,"[0.09038039528343349,0.007174613430455141]",4.0,"[-0.10780255158110025,-0.08507906157094136]",4.0,"[-0.08596008769867006,0.00301381754478967]",4.0,"[-0.015680416469613285,0.18450904396646853]",4.0,"[0.1404184843082707,0.13764474848770267]",4.0,"[0.003653083791394638,-0.19162089071324553]",4.0,"[-0.12343573392449937,0.12020122463668985]",4.0,"[-0.03829118185876903,0.04242320466642904]",4.0,"[0.029698473654038843,0.1820181106635419]",4.0,"[0.0414186325313256,-0.06333381647684314]",4.0,"[-0.0007091096208354041,-0.06654339869712857]",4.0,"[0.08105243464421677,0.15488783012031876]",4.0,"[0.02,0.02]",133.7145,0.0,0.0,0.0,199.0,1.0,,,,,,,
,,,,,,,67c1d7dfe0aaba274972150e,683aef14190727d64367fe4f,2025-05-31_07h01.55.757,shape_ratio,2024.1.5,Win32,59.88023952,683ae9196541af24d3a69e58,,,,,,,,,,,133.7153,134.2142,,,134.4641,134.7583,right,0.2675,,,,,,,,,0.1,,,,,,134.2143,134.4641,134.7583,"[-0.15911842727593128,0.10077644030811926]",4.0,"[0.09396302723532754,-0.15675787636764338]",4.0,"[0.12338040408425228,0.009838776403358479]",4.0,"[-0.0033608010462516003,0.17496011696692987]",4.0,"[-0.0005467136333412194,0.0977212200846235]",100.0,"[0.08695112532503661,-0.11344516041987858]",4.0,"[-0.04039961921130708,-0.03404724476412103]",4.0,"[0.1702703607883045,-0.08896206169944128]",4.0,"[0.07174634647472118,0.09483237347125947]",4.0,"[-0.020705677925562528,0.0010339121309809068]",4.0,"[0.13483155070226785,0.14187625213735536]",4.0,"[-0.12946414052089444,-0.08239914739856348]",4.0,"[0.13700210053879244,0.07377521911456542]",4.0,"[0.012580410564606494,-0.16073001025728512]",4.0,"[-0.17248717047769357,-0.06672280764558018]",100.0,"[0.14429830164986127,-0.12177402428462455]",4.0,"[-0.11429931184998819,-0.12035503026522894]",100.0,"[-0.19229788406391332,0.04752722009691903]",4.0,"[-0.09268476090648356,-0.05206395794052289]",4.0,"[-0.05997877114884715,0.09924386885556889]",4.0,"[-0.12897512967679112,0.0009748257795575023]",4.0,"[0.12752749373171818,-0.062451356249859244]",4.0,"[0.04473918598150325,0.01334170508195775]",4.0,"[-0.12208607073586589,0.0765723284377149]",4.0,"[0.08866126790729399,0.17754299101918095]",4.0,"[-0.0817254532391834,0.1559974974333134]",4.0,"[-0.01368749503995809,0.040431980311055486]",4.0,"[-0.07486061697022701,-0.13850232067376128]",4.0,"[0.09676827392374632,0.042915760338698684]",4.0,"[-0.05586387001795723,-0.07143272856847684]",4.0,"[-0.10178084567643188,0.11658787961963829]",4.0,"[0.18465162582082562,0.07104142419804658]",4.0,"[0.02,0.02]",135.8476,0.0,1.0,1.0,192.0,1.0,,,,,,,
,,,,,,,67c1d7dfe0aaba274972150e,683aef14190727d64367fe4f,2025-05-31_07h01.55.757,shape_ratio,2024.1.5,Win32,59.88023952,683ae9196541af24d3a69e58,,,,,,,,,,,135.8482,136.3476,,,136.5979,136.9811,right,0.3515,,,,,,,,,0.5,,,,,,136.3477,136.5979,136.9812,"[0.11087278882080331,0.030450615005507685]",100.0,"[-0.011470148524348302,-0.03889921297191482]",4.0,"[0.08666688828756296,0.14165184371858175]",4.0,"[0.0607422634855429,0.07072112116173601]",100.0,"[-0.11783121333900494,-0.0023290570105496244]",100.0,"[-0.15871521078799208,0.05503416542117226]",4.0,"[-0.06818957620547228,0.006075631660539306]",100.0,"[-0.01670791513759634,0.04041597446709538]",100.0,"[0.16925193345313314,0.025449043505986608]",100.0,"[0.1094980673078347,-0.032981661340013374]",4.0,"[0.028050763378366865,-0.1541643588882111]",4.0,"[0.12264760427268302,-0.10961414322018156]",4.0,"[0.11619441369696933,0.08148184235840664]",100.0,"[0.04542306707433879,0.15752054933647783]",100.0,"[-0.08379104252701135,0.09050053934699476]",4.0,"[-0.09524963175126001,-0.11772017249786901]",100.0,"[0.1461687575610666,0.11802028487803035]",100.0,"[-0.12655891655890783,-0.06204488003585209]",4.0,"[-0.19595887662897954,-0.013943125437234164]",4.0,"[0.07482157993128413,-0.0041185417260249805]",4.0,"[0.051118530358898066,0.03061652902595736]",100.0,"[-0.039823226837526954,-0.18087286674531367]",100.0,"[0.032253839518522814,-0.05485392450611379]",100.0,"[-0.022247054984653607,-0.10336406580765725]",4.0,"[0.10790504073205519,-0.15891331554420846]",4.0,"[-0.07162526716743128,0.1316508075119078]",4.0,"[-0.10501087599279628,0.04346891389135759]",4.0,"[-0.08501211820297659,-0.16061901550646684]",4.0,"[0.1809655157886815,-0.06835458202265596]",100.0,"[-0.08667181870530234,-0.057606058947536766]",100.0,"[0.0066694182256924915,0.19157761426779774]",4.0,"[-0.13146736738382545,0.14932107062679217]",100.0,"[0.02,0.02]",138.0808,0.0,2.0,2.0,105.0,1.0,,,,,,,
,,,,,,,67c1d7dfe0aaba274972150e,683aef14190727d64367fe4f,2025-05-31_07h01.55.757,shape_ratio,2024.1.5,Win32,59.88023952,683ae9196541af24d3a69e58,,,,,,,,,,,138.0815,138.5808,,,138.8306,139.0978,left,0.2366,,,,,,,,,0.45,,,,,,138.5809,138.8305,139.0979,"[0.06210495893579264,-0.08448323138687791]",4.0,"[0.0027874279608079305,0.16740539811118835]",100.0,"[-0.023758474177546972,-0.047427754655060265]",100.0,"[-0.15445625944126834,-0.033623128684808636]",4.0,"[0.005826562450455039,-0.11944197198020753]",4.0,"[0.052418850677561156,0.13959055040946894]",4.0,"[-0.04018318706359593,-0.10817586922244025]",100.0,"[0.17897017689713127,-0.08912170677869886]",100.0,"[0.16574488993051933,0.015893399682813315]",100.0,"[0.10321215756201055,0.1705923293003416]",100.0,"[-0.11484643228106965,-0.04342868598371094]",4.0,"[0.12781071814134637,-0.07345564726760424]",4.0,"[-0.10647687951517217,0.13659036428103744]",4.0,"[0.04274237813331568,0.0595263027522301]",4.0,"[-0.12558192805252139,0.023616323857836612]",100.0,"[-0.06558733995002972,0.04169195626620004]",4.0,"[-0.01501351774536859,0.07876714850844299]",4.0,"[-0.1273749720757757,0.097913560663162]",100.0,"[0.05105005343654616,0.014958051295881283]",4.0,"[0.155277353438895,0.09806140981852858]",4.0,"[-0.06873507231388516,-0.06288672145276163]",100.0,"[0.02191602309106163,-0.16899697846900624]",4.0,"[0.13278887606257525,-0.13191001753642656]",100.0,"[-0.06258629360484483,-0.15740127649647453]",4.0,"[-0.01069556975717843,-0.19550351416452216]",100.0,"[-0.07651194064291117,0.002817246987252479]",4.0,"[-0.09744940626185988,-0.12025306706727666]",4.0,"[0.09625012971891538,-0.012666819887008457]",4.0,"[0.015160767338466736,-0.037251659961439615]",4.0,"[-0.14410461794079849,-0.11211002725900066]",100.0,"[-0.037058458474712806,0.1711912401800453]",100.0,"[-0.08727854126939139,0.1758847641286298]",100.0,"[0.02,0.02]",140.1976,0.0,3.0,3.0,146.0,1.0,,,,,,,
,,,,,,,67c1d7dfe0aaba274972150e,683aef14190727d64367fe4f,2025-05-31_07h01.55.757,shape_ratio,2024.1.5,Win32,59.88023952,683ae9196541af24d3a69e58,,,,,,,,,,,140.1982,140.6976,,,140.9479,141.2476,left,0.2798,,,,,,,,,0.4,,,,,,140.6977,140.9478,141.2478,"[-0.07780670847609437,0.15348030857052794]",100.0,"[-0.020564749812075678,-0.05406182227491547]",4.0,"[-0.030781735044713182,0.1485431957074865]",100.0,"[0.028037722907540745,-0.09176354239501103]",4.0,"[-0.16330095756330268,-0.011182303507626133]",100.0,"[0.03119863487525993,0.13192090830388492]",4.0,"[0.03064072096604631,0.18825975683062549]",100.0,"[-0.10423484045951258,-0.07218569493303278]",100.0,"[-0.07287934290127214,0.0680100495880706]",4.0,"[0.06658164476872537,0.08568220929011625]",100.0,"[-0.07338607291538735,-0.1453614320565524]",4.0,"[-0.021107719398552993,0.07346656660043918]",4.0,"[-0.1708372743902351,0.09530229338214549]",4.0,"[0.05546719238636456,-0.16454300928458435]",4.0,"[0.013064249665613491,0.02511117873368382]",4.0,"[-0.08890099054920723,0.0035657610720813706]",100.0,"[0.08495636446615873,-0.09254966640974086]",4.0,"[0.09959185248168877,-0.13449669303528913]",4.0,"[0.12523939816242594,0.02413202648443817]",100.0,"[-0.12775357298043552,0.15053151571879483]",4.0,"[0.0887081724526381,-0.006367663571441905]",100.0,"[-0.1940515501535718,0.0460643484344929]",4.0,"[0.16517640253084917,-0.00023722805449347034]",4.0,"[0.057500181165415165,-0.03365588704468358]",4.0,"[0.12333389602451557,0.10554611595048431]",4.0,"[0.01024989085823678,-0.017804261013847425]",100.0,"[-0.04331890233880634,-0.006367501797462863]",4.0,"[0.19530882446049583,0.03940327218284524]",100.0,"[-0.11980485390299601,-0.15363709272349638]",4.0,"[0.133185750585897,-0.06652127302403257]",4.0,"[0.024724758081944378,0.06387852481588716]",100.0,"[0.10576123871997356,0.14675312279245775]",100.0,"[0.02,0.02]",142.3477,0.0,4.0,4.0,154.0,1.0,,,,,,,
,,,,,,,67c1d7dfe0aaba274972150e,683aef14190727d64367fe4f,2025-05-31_07h01.55.757,shape_ratio,2024.1.5,Win32,59.88023952,683ae9196541af24d3a69e58,,,,,,,,,,,142.3484,142.8476,,,143.0982,143.5311,right,0.4014,,,,,,,,,0.1,,,,,,142.8477,143.0982,143.5312,"[0.0013133652034410337,-0.128269065919896]",4.0,"[-0.08207729753244859,0.1573975136158844]",4.0,"[0.16029211942391292,0.01992897503553445]",4.0,"[-0.046285393431839225,0.06752980060985168]",4.0,"[-0.01934602193336052,-0.057023205761620094]",4.0,"[-0.1498675390174528,-0.02739516619812285]",4.0,"[0.11699081164777113,0.08824116611369631]",100.0,"[-0.05254102455298671,-0.09959093700804598]",4.0,"[-0.10733702408868159,-0.16603052496533227]",4.0,"[-0.15417494286766345,-0.10257499085994708]",4.0,"[-0.054221147654017594,0.001942300345285936]",4.0,"[-0.06462461207113872,-0.15576719771523023]",4.0,"[0.08944215573655888,-0.08795155830427763]",4.0,"[0.17026899535335704,-0.061386081418395175]",4.0,"[0.10765655672869623,0.033962344285914964]",4.0,"[0.0009764696971032141,0.19975836788172782]",4.0,"[0.09516901537033184,-0.03558511701037067]",4.0,"[0.008196582089858885,0.0021475520649162343]",4.0,"[-0.1778201160750044,0.021546925968858373]",100.0,"[0.03610719086715367,0.16190749499220575]",4.0,"[0.052933266311744574,0.1015598796707961]",4.0,"[-0.08981259254824323,0.08333422533074468]",4.0,"[0.004628257778426822,-0.1815099934582825]",100.0,"[-0.12174159395443417,0.054092488559496374]",4.0,"[0.12317260383281253,-0.12464390015581082]",4.0,"[-0.10478901626480475,-0.06554962220514961]",4.0,"[0.06732933371924203,-0.16202823572652333]",4.0,"[-0.09701308703937837,0.012454864345853307]",4.0,"[-0.030566306711571244,0.16636064645676846]",4.0,"[0.18228034699880652,0.05873886672748722]",4.0,"[0.138663657457043,0.12288888918591083]",4.0,"[-0.058725058071047886,0.11635179765548757]",4.0,"[0.02,0.02]",144.6309,0.0,5.0,5.0,208.0,1.0,,,,,,,
,,,,,,,67c1d7dfe0aaba274972150e,683aef14190727d64367fe4f,2025-05-31_07h01.55.757,shape_ratio,2024.1.5,Win32,59.88023952,683ae9196541af24d3a69e58,,,,,,,,,,,144.6315,145.131,,,145.371,145.6811,right,0.2871,,,,,,,,,0.45,,,,,,145.131,145.371,145.6811,"[0.05075412105494947,0.014418669591503933]",100.0,"[0.022535456937648992,0.09619004169912589]",4.0,"[0.07034615371259585,0.07647609551889613]",4.0,"[0.009954863426158303,-0.17867340563493458]",100.0,"[0.10094022019454987,-0.1486391431191798]",4.0,"[-0.08489142509027874,0.1528487989541791]",100.0,"[0.023518409791194437,-0.08425459310118852]",4.0,"[-0.10184088440258675,-0.03505945822697391]",4.0,"[-0.13252914787945785,0.01846493117455722]",100.0,"[0.03524314114367007,-0.14176200931491514]",4.0,"[0.1211528253123036,-0.07484738277215269]",4.0,"[-0.17110820992077239,0.03692891197133651]",4.0,"[0.1126034926730593,0.09796168817642062]",100.0,"[-0.03824844605519794,-0.1569439178525773]",100.0,"[0.04312052526117227,0.18458686901890525]",100.0,"[-0.10156153827441261,-0.08567407724261229]",4.0,"[-0.025131223079791775,0.15467072094260642]",4.0,"[-0.1645015181752815,-0.022042052159060643]",4.0,"[-0.03688687799922789,-0.08571548218636313]",4.0,"[0.0037806812252874915,-0.031879311005043466]",4.0,"[-0.018499050045986246,0.09473319580175832]",100.0,"[-0.15942806045696503,-0.09646882056526956]",100.0,"[0.0414980570347118,0.1439750768044185]",100.0,"[-0.12295168492866189,0.10300897645921676]",100.0,"[-0.09475758743613927,-0.15819881871960112]",4.0,"[0.004007504476477332,0.19808381147681248]",4.0,"[0.18275248271877598,0.024748417847385483]",4.0,"[0.058493202006729555,-0.1791327158794566]",100.0,"[-0.13839791472950697,-0.13169616866898312]",4.0,"[0.07289111569315722,-0.03873961852000604]",4.0,"[0.18313249797578043,-0.022842280203443387]",100.0,"[0.1705555271805308,0.08785096075834789]",100.0,"[0.02,0.02]",146.7808,0.0,6.0,6.0,132.0,1.0,,,,,,,
,,,,,,,67c1d7dfe0aaba274972150e,683aef14190727d64367fe4f,2025-05-31_07h01.55.757,shape_ratio,2024.1.5,Win32,59.88023952,683ae9196541af24d3a69e58,,,,,,,,,,,146.7814,147.2808,,,147.522,147.8644,left,0.3177,,,,,,,,,0.5,,,,,,147.2809,147.522,147.8644,"[0.07258878836182407,0.1191059170744997]",100.0,"[0.06103594680093503,-0.1121739856314315]",100.0,"[0.1399508822927344,0.13474319194500844]",4.0,"[-0.032356497288720774,-0.13947542728582782]",100.0,"[0.13507687470910018,-0.022621355097942768]",100.0,"[-0.04329984169608231,0.19365306315385936]",4.0,"[0.1334569726982746,0.054564172498077074]",100.0,"[0.057511127340943144,0.17054259836139476]",4.0,"[0.16926900202973721,-0.0712214974112122]",4.0,"[-0.06856821947182346,0.0976092233237343]",4.0,"[-0.10955697526213135,-0.03694233898809211]",4.0,"[-0.15274928469413548,-0.049509373997694714]",4.0,"[0.03758099569518581,-0.02172690475070928]",4.0,"[-0.0883335152697682,0.012382139785074076]",100.0,"[-0.14282219755549805,0.10624190102575967]",100.0,"[-0.10339104997418429,-0.16920619794234984]",4.0,"[0.0737388822554988,-0.04050535315244007]",100.0,"[0.17624077672327756,0.03816203451152399]",100.0,"[0.0723225677555055,0.048875380954213926]",4.0,"[0.005182577895463393,-0.16074940755585196]",4.0,"[-0.16344196324014393,0.04364207245933097]",100.0,"[0.01703591569505751,-0.07999554667098446]",100.0,"[-0.058046027218012025,-0.10607619191511002]",100.0,"[-0.039195496997314824,-0.028781112232475092]",100.0,"[-0.0892732783110729,0.13971391805195624]",4.0,"[0.021241790755872132,0.07366994777317801]",4.0,"[-0.08704698561314188,0.06004358125527089]",100.0,"[0.11635028819823054,-0.1385782582704464]",4.0,"[0.10511435713089633,-0.08171776219625572]",4.0,"[-0.15973294939020424,-0.1169261223346802]",100.0,"[-0.1320808293990657,0.01625871615170107]",100.0,"[-0.19505932768577655,-0.011419378049093572]",4.0,"[0.02,0.02]",148.9642,0.0,7.0,7.0,118.0,1.0,,,,,,,
,,,,,,,67c1d7dfe0aaba274972150e,683aef14190727d64367fe4f,2025-05-31_07h01.55.757,shape_ratio,2024.1.5,Win32,59.88023952,683ae9196541af24d3a69e58,,,,,,,,,,,148.9649,149.4641,,,149.7146,149.8473,right,0.1005,,,,,,,,,0.9,,,,,,149.4642,149.7145,149.8474,"[0.12329767477918076,0.1151405133884872]",100.0,"[0.04718582982171557,0.12170128492921962]",100.0,"[-0.11047977230690108,0.06723033877414766]",4.0,"[0.032229781507644925,0.025121443355380513]",4.0,"[-0.16855217994219243,-0.10436347113257384]",100.0,"[-0.01819648803939441,0.1466414139463012]",100.0,"[-0.15728597716394205,0.0885699359347842]",100.0,"[-0.13267390472490134,0.0064483818150193155]",4.0,"[0.09577403967206301,-0.0011566766842358556]",100.0,"[0.020121680757005232,-0.03762148504636507]",100.0,"[0.11145736986797002,0.15596199525698948]",100.0,"[0.1228602890103407,-0.1441955211171026]",100.0,"[0.15509665378410936,0.012022765247941648]",100.0,"[-0.06241171723231245,0.09165543684714178]",100.0,"[-0.05362393676920713,-0.07128258882696328]",100.0,"[-0.10567681377149139,-0.15908955506957126]",100.0,"[-0.11376049507416759,0.13451246658651786]",100.0,"[0.019512396971746844,-0.17000744883837748]",100.0,"[0.09594418769739971,0.04791922770252606]",100.0,"[0.16863057974954243,-0.0775127673831117]",100.0,"[-0.05376038619312225,-0.15641919124489587]",100.0,"[-0.029581444917068475,0.06003060938885767]",100.0,"[-0.19674204989773486,-0.029843064699332962]",100.0,"[0.05586103765126722,-0.0710356541196946]",100.0,"[0.1968839017262713,-0.026722213003391573]",100.0,"[-0.026590492623983622,-0.008589233997013414]",100.0,"[0.05364177780347056,0.17317783636864745]",100.0,"[-0.07244880187695954,0.15305088802529604]",100.0,"[-0.019326653880869918,0.1011331473232334]",100.0,"[0.027815693247954694,-0.10545125068175874]",100.0,"[-0.08373647421980712,-0.12485886860870221]",100.0,"[-0.14343805954971284,-0.04807221767449081]",100.0,"[0.02,0.02]",150.9471,0.0,8.0,8.0,26.0,1.0,,,,,,,
,,,,,,,67c1d7dfe0aaba274972150e,683aef14190727d64367fe4f,2025-05-31_07h01.55.757,shape_ratio,2024.1.5,Win32,59.88023952,683ae9196541af24d3a69e58,,,,,,,,,,,150.9474,151.4475,,,151.6982,152.0474,left,0.3289,,,,,,,,,0.1,,,,,,151.4476,151.6981,152.0475,"[-0.06831898112731408,0.1651961631006131]",4.0,"[-0.10639592954033121,0.04453468160889622]",4.0,"[0.08092841578698767,0.16720233586829786]",4.0,"[-0.03358773969322405,-0.1386052383368285]",100.0,"[0.089160800950326,0.017179298969236163]",4.0,"[0.06092503365774862,-0.09559380691883301]",4.0,"[0.02228507739166513,0.05967275825785899]",4.0,"[0.04814824249738029,-0.1730616020786162]",4.0,"[0.1852872070254098,-0.05150039156088533]",4.0,"[-0.19529180600163104,0.030352408047114057]",4.0,"[0.004005113481159919,-0.010743180598442509]",4.0,"[0.11632677205504237,0.056660101476840675]",4.0,"[-0.17469735317574178,-0.06477472953634822]",4.0,"[-0.13483756535628721,-0.03355097484129547]",100.0,"[-0.010730467403682735,-0.0916791315788499]",4.0,"[0.06230679637612611,0.09110244011141966]",4.0,"[-0.08497285240302072,0.004634767575625349]",4.0,"[-0.004191130355916526,0.19006151732546686]",4.0,"[-0.04117433540560916,0.04200136601891123]",4.0,"[0.004083623527844529,0.09963221280487784]",4.0,"[-0.078182577354444,-0.17999771645047452]",4.0,"[0.13892613117819974,-0.0347435669749286]",4.0,"[-0.0562244612615642,-0.07302691177542123]",4.0,"[-0.07255571387041448,0.09833771428407032]",4.0,"[-0.13027194954148658,-0.14208631058547033]",4.0,"[-0.1035312099373236,-0.09106775788116764]",4.0,"[-0.03850544681823006,-0.0058424579521960405]",4.0,"[0.15555368244378787,0.00568668767331625]",4.0,"[-0.11299022241831681,0.1342415530172451]",4.0,"[0.09892577781567322,-0.16904777056608117]",100.0,"[-0.14202172575862898,0.023749280704549274]",4.0,"[0.10390114525439755,0.1020695527562046]",4.0,"[0.02,0.02]",153.1471,0.0,9.0,9.0,205.0,1.0,,,,,,,
,,,,,,,67c1d7dfe0aaba274972150e,683aef14190727d64367fe4f,2025-05-31_07h01.55.757,shape_ratio,2024.1.5,Win32,59.88023952,683ae9196541af24d3a69e58,,,,,,,,,,,153.1475,153.6475,,,153.9075,154.6976,left,0.7694,,,,,,,,,0.9,,,,,,153.6476,153.9073,154.6977,"[-0.1713836172284344,0.04994336168733112]",100.0,"[-0.17718873844053706,-0.014335142762480456]",100.0,"[-0.12170663920224599,-0.1333017280767308]",100.0,"[0.015356808520458157,0.14893320179330882]",100.0,"[0.17951935018616064,-0.02632142253812016]",100.0,"[0.05220908429820686,0.128574922088824]",100.0,"[-0.08909940684086246,-0.046613553420726775]",100.0,"[-0.10951620023614748,0.11896434520905357]",100.0,"[-0.18335269271842566,-0.05691853524465664]",100.0,"[-0.04524801464748434,-0.023878282964532416]",100.0,"[0.13620217517413533,-0.006331659966427185]",100.0,"[0.04953669981824602,0.04235280023498174]",100.0,"[0.02866563363861592,-0.1307161627522333]",100.0,"[0.0798958330537733,0.07448388308418266]",100.0,"[-0.0014948472327186951,-0.07330259455533084]",100.0,"[-0.1257937614633953,-0.0779606698393794]",100.0,"[0.12427783907527502,-0.14637418059431742]",100.0,"[0.13474986216820758,-0.06801280635273804]",100.0,"[-0.16061786141432124,0.1090365462641683]",100.0,"[0.06985759165656608,-0.09861277621056388]",100.0,"[-0.07859374428288543,0.04582979744516559]",100.0,"[-0.02038634712331096,0.1771495518189808]",100.0,"[0.11270759956051875,0.11118970051585704]",100.0,"[-0.03725820068540814,0.019597006144818335]",100.0,"[0.18729688952982204,0.014577977079247576]",4.0,"[-0.021806276210704204,-0.15915537393636142]",100.0,"[0.06518510104988823,0.17694338434766826]",100.0,"[-0.06786044490808904,0.18127679521489892]",100.0,"[0.019888542653347562,0.0984720204101444]",4.0,"[-0.05831069833136523,-0.10364244592021968]",100.0,"[0.020094195479343734,-0.1844295236097739]",4.0,"[-0.12981993202108016,-0.032908000273524064]",100.0,"[0.02,0.02]",155.7976,0.0,10.0,10.0,14.0,1.0,,,,,,,
,,,,,,,67c1d7dfe0aaba274972150e,683aef14190727d64367fe4f,2025-05-31_07h01.55.757,shape_ratio,2024.1.5,Win32,59.88023952,683ae9196541af24d3a69e58,,,,,,,,,,,155.7982,156.2975,,,156.5393,157.0803,left,0.517,,,,,,,,,0.9,,,,,,156.2975,156.5393,157.0803,"[0.19561850366494643,0.017253982471396385]",100.0,"[0.14485513796011637,0.0133881873008451]",100.0,"[0.16975876081938462,-0.1032891579983204]",100.0,"[-0.023248793694569118,-0.13461702375244267]",100.0,"[0.08555750628733384,-0.08235812775067754]",100.0,"[-0.0803245421560667,0.10162020341592898]",100.0,"[-0.0584563847099313,0.03308214343513061]",100.0,"[-0.012314314422833554,0.025254172952142502]",100.0,"[-0.06631021192253467,0.17580246796054397]",100.0,"[0.17736219475987355,0.08099958432325759]",100.0,"[0.1257089417402387,0.08500565889418918]",100.0,"[-0.11010845862275344,0.1564760573369579]",100.0,"[-0.0905672591943935,-0.12276901375871278]",100.0,"[-0.08461217432248515,-0.08002547448961077]",4.0,"[-0.0903388747426697,0.002127434859497953]",100.0,"[-0.1846195060892024,0.00529229404219086]",100.0,"[0.08675459789422822,0.1210366985267913]",100.0,"[0.05266320211499918,0.18368437690873163]",100.0,"[-0.0005212614688458074,0.14833212466830675]",100.0,"[0.06713046940753088,0.007201121592790327]",4.0,"[0.12318151179506573,-0.13689690139213342]",4.0,"[0.12241270434526896,-0.02891295759372849]",100.0,"[-0.003976127335649978,-0.1721828942405787]",100.0,"[-0.12612618145759674,-0.09501046503229625]",100.0,"[-0.16403027935239803,-0.03589748647805931]",100.0,"[0.1723515398258661,-0.04865333984789805]",100.0,"[-0.01174924158932932,-0.038159382698803146]",100.0,"[-0.1486455997887972,0.12372180332232255]",100.0,"[0.1324999666182292,-0.08584277106849117]",100.0,"[-0.015135319976013265,0.1936798169103009]",100.0,"[0.03883293689500763,-0.12108528478044445]",100.0,"[-0.05238970914404037,-0.055545416648818735]",100.0,"[0.02,0.02]",158.1803,0.0,11.0,11.0,3.0,1.0,,,,,,,
,,,,,,,67c1d7dfe0aaba274972150e,683aef14190727d64367fe4f,2025-05-31_07h01.55.757,shape_ratio,2024.1.5,Win32,59.88023952,683ae9196541af24d3a69e58,,,,,,,,,,,158.1805,158.6802,,,158.9408,159.9818,right,1.0248,,,,,,,,,0.4,,,,,,158.6802,158.9407,159.9819,"[0.011539059898014563,0.04263232328673986]",100.0,"[-0.09789922057856475,0.03645143194167291]",100.0,"[-0.10651446424179657,-0.009623752543918214]",4.0,"[-0.18191526356376708,0.0052651923586519035]",100.0,"[-0.14186493165724914,0.08332737868063915]",4.0,"[0.09543595424262859,0.08027079772466778]",4.0,"[0.01534135739053113,0.11345654162738496]",4.0,"[-0.05594019642465239,0.11940308882889583]",4.0,"[-0.17082144645213193,-0.08382696228459918]",4.0,"[0.059087486526488105,-0.1899739556381809]",100.0,"[0.08241313279569809,-0.12327514797061905]",4.0,"[0.12104797188133025,-0.14079129514575792]",100.0,"[0.16837814510980567,0.015450099569662831]",4.0,"[0.016419488535741187,0.1887638372406831]",4.0,"[0.0601435390348574,-0.01349343628035676]",100.0,"[0.01890894849358988,-0.16368246389091393]",4.0,"[-0.06099645481177778,-0.10168761732948407]",100.0,"[-0.08771645402928696,-0.06647719301904355]",4.0,"[0.005133984171148254,-0.010087454380646019]",4.0,"[-0.09050646998602885,0.16507856342186242]",4.0,"[0.10738763734081054,0.16605395390048913]",100.0,"[-0.03879422970857782,-0.06296265009635005]",4.0,"[-0.031781868647072296,-0.14320395173409875]",100.0,"[0.15330583709999385,0.07178967825751323]",4.0,"[0.10406696077004113,-0.012833245450896986]",4.0,"[-0.10800727337744055,0.12633534476137256]",100.0,"[-0.08594877508249549,-0.1555005371648234]",4.0,"[-0.16289005412312665,-0.03969449118321943]",100.0,"[-0.02170893180911055,0.15766192264307055]",4.0,"[0.0898634148741042,0.03320217338518812]",4.0,"[0.14530789141147177,-0.04375983676084775]",100.0,"[-0.0718309320710175,0.07040161608494783]",100.0,"[0.02,0.02]",161.0808,0.0,12.0,12.0,178.0,1.0,,,,,,,
,,,,,,,67c1d7dfe0aaba274972150e,683aef14190727d64367fe4f,2025-05-31_07h01.55.757,shape_ratio,2024.1.5,Win32,59.88023952,683ae9196541af24d3a69e58,,,,,,,,,,,161.0813,161.5808,,,161.8308,162.8977,left,1.0347,,,,,,,,,0.55,,,,,,161.5808,161.8308,162.8978,"[0.1163179875051752,0.1042325242006577]",4.0,"[0.04637175948403062,0.06946015495292489]",100.0,"[0.04906126472414496,0.006382470163162633]",4.0,"[-0.03521912031507088,0.08438213059150808]",4.0,"[-0.04305860946609045,-0.07890139000045526]",100.0,"[0.0886663416705281,-0.0593702054576249]",100.0,"[0.07142395057674679,-0.13509853918578685]",4.0,"[-0.08515763574570458,0.068848434073672]",100.0,"[-0.018956047785318172,0.17323111669437147]",100.0,"[-0.10767198845697172,0.00918243189831469]",4.0,"[-0.0839397741701767,0.1470237656916863]",4.0,"[-0.1807786018186598,0.05517876126853622]",100.0,"[0.032724470972742975,-0.05261956911127416]",100.0,"[-0.009140066970307866,-0.1745222282478907]",4.0,"[-0.07915274472020804,-0.04102691305633909]",100.0,"[0.08937552525315048,0.16565563700565844]",4.0,"[0.025953689324532122,-0.19766422568731917]",100.0,"[0.1934842144533827,0.03993592514814233]",100.0,"[-0.042385934166261595,-0.0059940392924237845]",4.0,"[0.1969490462398106,-0.015028583444357044]",100.0,"[-0.19244260728343215,0.008028699325801414]",100.0,"[-0.12543075906011594,-0.1204271347820314]",100.0,"[-0.12801482595385583,0.05277686980806206]",4.0,"[-0.0652925259601069,-0.134207718497681]",4.0,"[0.030664646892935004,-0.14481421190272936]",100.0,"[0.122241977789855,0.05399811242406239]",100.0,"[0.12028734751189822,-0.13825239899338743]",100.0,"[-0.05517389613065551,-0.18076868734578375]",4.0,"[-0.04232479929122837,0.1282758928114935]",100.0,"[-0.17770530721055425,-0.039581277126130986]",4.0,"[0.15132512483785576,-0.042107235306809196]",100.0,"[-0.13686281069023254,0.13526245803444858]",4.0,"[0.02,0.02]",163.9973,0.0,13.0,13.0,66.0,1.0,,,,,,,
,,,,,,,67c1d7dfe0aaba274972150e,683aef14190727d64367fe4f,2025-05-31_07h01.55.757,shape_ratio,2024.1.5,Win32,59.88023952,683ae9196541af24d3a69e58,,,,,,,,,,,163.9979,164.4975,,,164.7382,165.1981,right,0.4455,,,,,,,,,0.6,,,,,,164.4975,164.7382,165.1982,"[0.14312173880418863,-0.07746384853992791]",4.0,"[0.01599399206208176,-0.12638764472768846]",4.0,"[-0.02513422689868923,0.03557693944343589]",4.0,"[0.04115064579279214,0.015991451122397266]",100.0,"[0.035756737369312785,0.0978707631085261]",4.0,"[-0.08662591436830441,0.11536505682230011]",100.0,"[-0.1631247530215912,0.09670892573271135]",4.0,"[0.15948779192778573,0.11561035921194299]",100.0,"[0.1510626244140307,0.0746033983693221]",4.0,"[-0.04660524809358261,0.14404153680024936]",100.0,"[-0.049588688874023755,-0.1842758619696044]",4.0,"[0.09233403972950849,0.022064019531391806]",100.0,"[0.02404652875370028,-0.06694191552155497]",100.0,"[0.1400835708988897,0.005095882235971833]",4.0,"[0.09262715448607638,-0.1574863097526293]",100.0,"[-0.07823220820020993,0.06942782014740516]",100.0,"[0.06985215345487451,-0.02609152410593655]",100.0,"[-0.1847498194414638,-0.041476728077045555]",100.0,"[-0.03490637712578558,0.0907918856357411]",4.0,"[0.07027473610956488,-0.08786408190949697]",4.0,"[-0.09135306556948551,-0.1413790392454801]",100.0,"[0.01883673097226969,0.19015806319886658]",100.0,"[-0.09682412943734174,-0.1002700880394091]",100.0,"[-0.18977304160894995,0.02902967476381889]",100.0,"[-0.0629098418920974,-0.007078407321661911]",100.0,"[-0.14270640670982654,-0.049390470145885414]",100.0,"[0.016358586671170326,-0.17923621549090998]",4.0,"[0.12390817149718042,-0.03271081025127311]",4.0,"[-0.13594893596230845,0.13129191729080358]",4.0,"[-0.0017075318079148,0.13580666759102716]",100.0,"[-0.14202226218316738,0.015326670024449625]",100.0,"[-0.02019252679444918,-0.1031121640731184]",100.0,"[0.02,0.02]",166.2973,0.0,14.0,14.0,33.0,1.0,,,,,,,
,,,,,,,67c1d7dfe0aaba274972150e,683aef14190727d64367fe4f,2025-05-31_07h01.55.757,shape_ratio,2024.1.5,Win32,59.88023952,683ae9196541af24d3a69e58,,,,,,,,,,,166.2976,166.7974,,,167.0481,167.981,right,0.9136,,,,,,,,,0.6,,,,,,166.7975,167.0481,167.9811,"[0.03410224236201441,0.05404393885931445]",4.0,"[-0.19050029458933557,0.017880199964128596]",100.0,"[-0.017251130299037708,-0.13399639159246315]",100.0,"[0.15237986786567229,-0.0786462205178856]",4.0,"[-0.06150219955698011,0.15295872805901317]",100.0,"[-0.11555251340604798,-0.15542685286587296]",4.0,"[0.14281472690896332,0.03555096347102017]",100.0,"[-0.1498192015169865,-0.12336712051276488]",100.0,"[-0.06696468347797925,-0.13120509669470296]",4.0,"[0.10695723090662938,-0.06301356068485406]",4.0,"[-0.04591964334484212,-0.017028516901196035]",100.0,"[-0.15232151791339002,0.07125247519440392]",4.0,"[0.05542153413720632,-0.004261701349683593]",100.0,"[-0.09028940865558545,-0.060252004404897294]",4.0,"[-0.020641877969439806,-0.07523329351541383]",100.0,"[0.10907226114809096,0.058293907702087575]",4.0,"[0.16655828915537513,-0.020910096659191208]",100.0,"[-0.018238469099917134,0.13958988537105538]",100.0,"[-0.072530088988619,0.06114135196383989]",4.0,"[0.1924719182299756,0.019289480070487693]",100.0,"[0.0247848473727391,-0.161468899005367]",100.0,"[-0.1108944576819443,0.04945450055922741]",4.0,"[0.04711796261114098,-0.10610073707496001]",100.0,"[0.029473264925654837,0.09662484558671787]",100.0,"[0.03950040252265465,-0.04793945236423064]",4.0,"[0.1504218342041719,-0.12890950258690884]",100.0,"[0.09527403247374348,-0.024593738524694653]",100.0,"[-0.033806719921651775,0.07152853903634403]",4.0,"[-0.05914731047817014,-0.08795262867486635]",4.0,"[0.05337088960635018,0.14357252799573025]",100.0,"[-0.15849188457046326,-0.00710140097465997]",100.0,"[-0.028031048167375134,0.18752014290546665]",100.0,"[0.02,0.02]",169.0808,0.0,15.0,15.0,43.0,1.0,,,,,,,
,,,,,,,67c1d7dfe0aaba274972150e,683aef14190727d64367fe4f,2025-05-31_07h01.55.757,shape_ratio,2024.1.5,Win32,59.88023952,683ae9196541af24d3a69e58,,,,,,,,,,,169.0815,169.5804,,,169.8312,170.2477,left,0.4022,,,,,,,,,0.6,,,,,,169.5804,169.8312,170.2477,"[-0.1493503288614735,-0.12993738193806853]",4.0,"[0.07568585830979778,-0.0961922323968305]",100.0,"[-0.04801690866932365,0.05285149325526126]",4.0,"[0.08750951020702166,0.14455412377755858]",4.0,"[-0.051128805400530705,-0.00568111661450139]",100.0,"[0.1284639642823312,-0.10363169610004161]",4.0,"[-0.1731901518303492,0.01045716307973037]",4.0,"[-0.10041875842613877,0.03566233117200883]",100.0,"[0.046517473180945255,-0.027803200401628127]",100.0,"[0.038120765553378885,0.16930036313572433]",100.0,"[-0.10348349450100752,-0.1679852584251286]",100.0,"[-0.0052472149463254686,-0.13630167988835662]",4.0,"[0.0007888258569076019,-0.01667897414917502]",4.0,"[-0.048206403778987134,0.13552418375991002]",4.0,"[0.15254646580877654,0.0371625760659102]",100.0,"[0.09484250801720613,0.013464307393064395]",100.0,"[-0.08705124009633529,0.1598010222472007]",100.0,"[0.015394388375399078,-0.09407422075406788]",4.0,"[0.04218074919644074,-0.16950972732769815]",100.0,"[-0.13663319895172932,0.11962144947166893]",100.0,"[-0.18301965459418684,-0.06858676308846236]",4.0,"[-0.0009704002574765995,0.04790083520155159]",100.0,"[-0.07326449068135808,-0.07294681256530458]",4.0,"[0.09740646691673155,-0.02806140348745592]",100.0,"[-0.1638537249135753,0.08743066501472178]",100.0,"[0.0989140455568306,0.09312559135941019]",4.0,"[0.09316565936152309,-0.13790315621175508]",4.0,"[-0.005801779893878175,-0.1906923820569472]",100.0,"[-0.11862437830312696,-0.05228569382136641]",100.0,"[0.16300952151873163,-0.04342026230772053]",100.0,"[0.045337685734261245,0.0714885757877571]",100.0,"[0.1959150583285321,-0.009012099635355873]",100.0,"[0.02,0.02]",171.3475,0.0,16.0,16.0,42.0,1.0,,,,,,,
,,,,,,,67c1d7dfe0aaba274972150e,683aef14190727d64367fe4f,2025-05-31_07h01.55.757,shape_ratio,2024.1.5,Win32,59.88023952,683ae9196541af24d3a69e58,,,,,,,,,,,171.348,171.8475,,,172.098,172.3645,right,0.2471,,,,,,,,,0.4,,,,,,171.8476,172.098,172.3645,"[0.09359580074239662,-0.09907822667846011]",100.0,"[0.06635600379985823,-0.0289309426823302]",4.0,"[-0.1697637288888173,-0.03686610437397643]",4.0,"[-0.13513980499993705,0.10787447161616043]",4.0,"[0.12939867826957943,-0.027384494003446475]",100.0,"[0.06110238672129807,0.16051428669390858]",100.0,"[-0.024820174983666652,-0.07383892611276059]",4.0,"[-0.08103897720347229,-0.13622650039012998]",4.0,"[0.035094601517048574,-0.15441293323938293]",100.0,"[-0.044828208893385,0.0785751904119921]",4.0,"[0.027808412849352326,0.04613211623044989]",4.0,"[-0.12851842176435851,-0.052791603841848826]",100.0,"[0.19437680017480555,-0.006938386232842772]",4.0,"[-0.044445353437949066,0.16181031410104119]",100.0,"[0.09136215740230465,0.023047623239987984]",4.0,"[-0.0820424425436224,0.03531104126040706]",4.0,"[0.05047208072046196,0.1123102103013489]",4.0,"[0.1278468404463341,0.056414657711352664]",100.0,"[-0.09060148596601209,0.12476826410681109]",100.0,"[-0.0850087419832985,-0.023672319920729618]",4.0,"[0.11987719256187412,0.15232051339112232]",4.0,"[0.1416066017967114,-0.0950703062758595]",4.0,"[-0.19110824523570696,0.022964469743094313]",100.0,"[0.008323795869481336,-0.006004224748486671]",4.0,"[0.17773938628355315,-0.0606482029443864]",100.0,"[-0.03383339564985076,0.01629499273640925]",4.0,"[0.009697462707998967,-0.04795089308829005]",4.0,"[-0.14196374010917737,0.02321132292249926]",4.0,"[-0.11357665658281217,0.06598565989824584]",4.0,"[-0.007543219464844327,-0.16695963263042454]",100.0,"[0.042062354830384834,-0.09274786849121432]",100.0,"[0.020950165583895095,0.19017035573510693]",100.0,"[0.02,0.02]",173.4642,0.0,17.0,17.0,175.0,1.0,,,,,,,
,,,,,,,67c1d7dfe0aaba274972150e,683aef14190727d64367fe4f,2025-05-31_07h01.55.757,shape_ratio,2024.1.5,Win32,59.88023952,683ae9196541af24d3a69e58,,,,,,,,,,,173.4648,173.964,,,174.2052,174.498,left,0.2677,,,,,,,,,0.6,,,,,,173.9641,174.205,174.498,"[-0.17617089075736073,0.007746468024484508]",4.0,"[-0.08532216904415504,-0.16136705420531333]",100.0,"[-0.11525673705964183,-0.09185407490575363]",100.0,"[0.14345579276610124,0.04711982499747645]",4.0,"[-0.09004642541236436,0.0469533102477079]",4.0,"[0.07165912863956413,-0.044675734292128406]",100.0,"[0.15018953380457403,0.09750359330606478]",100.0,"[0.1295059618034382,0.1374292032052004]",100.0,"[-0.007980933925990584,-0.18243757343189368]",100.0,"[0.14499417233045173,-0.016063521775954395]",4.0,"[0.1167145023878983,0.015158758530535816]",100.0,"[-0.06989115149036705,-0.033035157721874465]",4.0,"[0.16116910380975089,-0.10110175991264354]",100.0,"[0.19100594845964786,0.012398427908546464]",100.0,"[-0.006226146098623112,0.11895702000563627]",4.0,"[-0.04296567259072796,0.007021593580462399]",100.0,"[0.05550905271767546,0.12446646808904811]",100.0,"[0.10211748758842969,-0.1207394612891959]",4.0,"[-0.14028479539358812,0.11508106066588844]",100.0,"[-0.09046212576596954,0.09248978315650426]",100.0,"[0.036106913680759786,0.03140344302620345]",4.0,"[-0.13122736190073955,0.02481031044373976]",100.0,"[0.02849624329545836,0.09326176849542192]",4.0,"[-0.12575047290987684,-0.14179817656627572]",100.0,"[-0.0015282731258134494,-0.05846628853417793]",100.0,"[-0.15126798198676622,-0.03681164639069145]",4.0,"[0.10020325383799344,0.08116575290991024]",4.0,"[0.024775331412931874,-0.10576188699208038]",100.0,"[-0.17482547327839176,0.05838464651533863]",4.0,"[-0.006416319110776876,0.02996764166321205]",100.0,"[-0.08727047877252361,0.1586483989740728]",4.0,"[-0.03825604043649916,0.06367292237238692]",100.0,"[0.02,0.02]",175.5975,0.0,18.0,18.0,58.0,1.0,,,,,,,
,,,,,,,67c1d7dfe0aaba274972150e,683aef14190727d64367fe4f,2025-05-31_07h01.55.757,shape_ratio,2024.1.5,Win32,59.88023952,683ae9196541af24d3a69e58,,,,,,,,,,,175.5979,176.0974,,,176.3474,177.2475,right,0.8868,,,,,,,,,0.55,,,,,,176.0974,176.3473,177.2475,"[0.0019281848806980567,0.033174101143814576]",4.0,"[-0.09002183960407183,0.12486458192562168]",100.0,"[0.1114055876568111,-0.1616169025792651]",4.0,"[0.10713517650487096,0.010985269231229026]",100.0,"[0.008493682263887362,-0.1703992366810623]",4.0,"[0.1724394250659146,-0.006649519186764804]",100.0,"[0.04656760733886757,0.18851649946713642]",4.0,"[-0.12873420462337315,-0.041483819585962346]",100.0,"[0.04276637259757984,0.14672840058395917]",4.0,"[-0.1832567675221534,0.03442579863778933]",100.0,"[-0.1061080570517462,-0.1183303528853593]",100.0,"[0.14840404700827575,0.06556508944711374]",4.0,"[0.06157782652311998,-0.04103206640575005]",100.0,"[-0.1635194102147363,-0.10089376233250258]",100.0,"[0.09489220489618891,0.14115037818829157]",100.0,"[-0.0004470625895219792,0.11566030134426573]",100.0,"[0.0640719215789539,-0.14385195337541745]",4.0,"[0.05748672887840047,0.10178905833138391]",4.0,"[-0.04611261274335277,0.14759029382497874]",4.0,"[0.04086407081427488,-0.10896043230454704]",100.0,"[-0.12882997829894752,0.01328628772755579]",100.0,"[0.1517572988096615,0.12010758677895203]",100.0,"[-0.021223049256344634,-0.07053101675115483]",100.0,"[-0.18417570970888197,-0.06440905592691482]",4.0,"[0.07625866934145568,0.05592039585997718]",4.0,"[-0.09327518453184878,0.07131810766964712]",100.0,"[-0.06938819013573518,-0.023201228905150743]",100.0,"[-0.025629203577011823,-0.1472831568504128]",4.0,"[-0.06159049720027383,0.1869201350528958]",100.0,"[0.12088273066012653,-0.05785976806137199]",100.0,"[-0.05581384973866256,0.10399954958790454]",4.0,"[-0.13239031351082572,0.08655978774692653]",4.0,"[0.02,0.02]",178.347,0.0,19.0,19.0,76.0,1.0,,,,,,,
,,,,,,,67c1d7dfe0aaba274972150e,683aef14190727d64367fe4f,2025-05-31_07h01.55.757,shape_ratio,2024.1.5,Win32,59.88023952,683ae9196541af24d3a69e58,,,,,,,,,,,178.3474,178.8475,,,179.0977,180.0309,left,0.9055,,,,,,,,,0.5,,,,,,178.8475,179.0976,180.0309,"[0.16820882405870038,0.06952013536784317]",4.0,"[0.04698122585823399,0.0803140897630304]",4.0,"[-0.18825546035154378,-0.01946233709195888]",100.0,"[-0.1048304698081568,-0.12213683350549306]",4.0,"[-0.0793238843819665,0.024999790602593972]",4.0,"[-0.16218828921303155,0.03337372680889376]",4.0,"[-0.13646444417006984,-0.06411044076963267]",100.0,"[-0.024998091739615355,0.1016004061479847]",100.0,"[0.09501028651794828,-0.10559002676595931]",100.0,"[0.041492364699305596,-0.050311272072043195]",100.0,"[0.07990744778835367,0.05688560078706008]",100.0,"[-0.04361990589027912,-0.1914135925813028]",4.0,"[0.017204254726643456,0.1509314772565446]",4.0,"[0.06594012082593495,-0.1388248686887049]",4.0,"[0.08246046039157058,0.16153846863400245]",4.0,"[-0.01071023061087358,0.19647684930665937]",100.0,"[0.08009840532823882,-0.02409376643075529]",100.0,"[-0.004205900335521088,-0.148998704075661]",4.0,"[-0.11462124401861391,-0.0001965353292480732]",100.0,"[-0.0676116450443004,0.07306588745970953]",100.0,"[-0.021717853111573506,-0.07808807109311519]",100.0,"[-0.05647296711084667,-0.11221462407906771]",4.0,"[-0.13861958093698018,0.09371053495026975]",100.0,"[-0.06272072703255685,-0.07247457265793436]",4.0,"[-0.04847584773593167,-0.029427743361678575]",100.0,"[0.0988391724920505,-0.0614948299639945]",4.0,"[-0.03042183151519672,0.05098781953040089]",100.0,"[0.1759268910075817,-0.09189923368332334]",100.0,"[0.14136401123323888,-0.04741681801277738]",4.0,"[-0.12261694748940503,0.13386195445795293]",4.0,"[0.04633757759504421,-0.0941296115576912]",4.0,"[0.1320343107862614,0.11192485588653198]",100.0,"[0.02,0.02]",181.1306,0.0,20.0,20.0,101.0,1.0,,,,,,,
,,,,,,,67c1d7dfe0aaba274972150e,683aef14190727d64367fe4f,2025-05-31_07h01.55.757,shape_ratio,2024.1.5,Win32,59.88023952,683ae9196541af24d3a69e58,,,,,,,,,,,181.1311,181.6303,,,181.8811,182.8309,right,0.9178,,,,,,,,,0.45,,,,,,181.6303,181.8811,182.831,"[0.11811459180430701,0.11900909281464164]",4.0,"[0.07832527596278824,0.16455476894078092]",4.0,"[-0.028362796348459004,0.03542277281829861]",100.0,"[0.04540799005463659,-0.13240491754138894]",100.0,"[0.059361545335546384,0.1008391443256212]",4.0,"[-0.0008427205250183374,-0.049243909042908644]",4.0,"[0.07162819743461636,0.007261135960436501]",100.0,"[0.1995112673431297,0.0009229249501903139]",100.0,"[-0.03389714274593574,0.09946588786066672]",100.0,"[-0.024122910669649344,0.17226759594039043]",4.0,"[0.0925546878367772,-0.040504377593760015]",4.0,"[-0.058788257057544584,-0.10201911572875631]",100.0,"[-0.02226730111574442,-0.1363654846621287]",100.0,"[-0.12594614804115353,-0.05750403144475974]",100.0,"[-0.023195786103045412,-0.1905132949798524]",4.0,"[-0.08757257077474967,0.176707384894871]",100.0,"[0.06244458735306735,0.059042253285251596]",4.0,"[0.128148248384038,0.012815183619078317]",4.0,"[0.12469597003891805,-0.1024011192025934]",4.0,"[-0.0049374101212480955,-0.008657277902765392]",4.0,"[-0.16498204970848798,-0.006728469550551504]",4.0,"[0.04622898558184094,-0.059410047534071586]",100.0,"[-0.15991614902633303,0.10971344238562447]",100.0,"[0.02162817071208499,0.08723631381908498]",4.0,"[-0.11798118328840349,-0.11727846132511162]",4.0,"[-0.12097108856526251,0.1446402825580911]",4.0,"[0.16628628753578265,-0.08367243405750896]",100.0,"[-0.13617538910066498,0.022921657222884702]",100.0,"[0.0075771246690480645,-0.10374045795370086]",4.0,"[-0.0766535134787644,0.07230185209021736]",4.0,"[0.16776757834968328,0.026498957902796775]",4.0,"[0.07494748741047058,-0.1006767541879951]",100.0,"[0.02,0.02]",183.9305,0.0,21.0,21.0,145.0,1.0,,,,,,,
,,,,,,,67c1d7dfe0aaba274972150e,683aef14190727d64367fe4f,2025-05-31_07h01.55.757,shape_ratio,2024.1.5,Win32,59.88023952,683ae9196541af24d3a69e58,,,,,,,,,,,183.9311,184.4307,,,184.6809,185.3808,left,0.6681,,,,,,,,,0.6,,,,,,184.4307,184.6809,185.3808,"[-0.10539408688575477,0.07404401902687496]",100.0,"[-0.04365232789546034,0.08902615237398236]",4.0,"[0.16005665778389555,-0.020112536446276835]",100.0,"[-0.12244919004518874,-0.14701328791447346]",100.0,"[0.05828139843656691,-0.1420683207896992]",100.0,"[0.11836633258545891,0.000635115720716645]",100.0,"[-0.10896906794116791,0.00034909577815712766]",4.0,"[-0.027720398717048723,-0.16482493313397475]",4.0,"[-0.13649156619730765,0.0341952574890341]",100.0,"[0.030430223371540516,0.19755920920025283]",100.0,"[0.1315321056378275,-0.0988556482961703]",4.0,"[-0.11543630829645422,0.14882338498325395]",100.0,"[0.03521553914840728,0.14388140134035898]",100.0,"[-0.06585624227817795,0.003940274403574577]",100.0,"[-0.15325671786589695,-0.08883341527325468]",100.0,"[-0.10084294578886356,-0.049110867312282994]",4.0,"[-0.18549460926251526,0.061945560475552164]",100.0,"[0.13745917740590222,0.04708356100600129]",100.0,"[0.00917632173407706,-0.045057565506817374]",100.0,"[-0.06489134347387472,0.17391004645658065]",4.0,"[0.05355189300692677,0.04639662513299222]",100.0,"[-0.09605919413174809,-0.10153780834028472]",4.0,"[0.05612322173650695,-0.0988310744375732]",4.0,"[0.08593390475362266,0.17445980192876445]",4.0,"[0.06390572906291347,-0.023442190907550838]",100.0,"[-0.16159107874322828,-0.03378312915151012]",4.0,"[-0.034974746100354885,0.04268149280390675]",100.0,"[0.1792446921108029,-0.08792488034336719]",100.0,"[0.009334255942168366,0.0696499552721481]",100.0,"[0.17399927651084543,0.08923572376371337]",4.0,"[-0.009749498253463348,-0.0009781920388264905]",4.0,"[0.06401626332205852,-0.1816899372103335]",4.0,"[0.02,0.02]",186.4801,0.0,22.0,22.0,41.0,1.0,,,,,,,
,,,,,,,67c1d7dfe0aaba274972150e,683aef14190727d64367fe4f,2025-05-31_07h01.55.757,shape_ratio,2024.1.5,Win32,59.88023952,683ae9196541af24d3a69e58,,,,,,,,,,,186.4803,186.9802,,,187.2387,188.4476,right,1.188,,,,,,,,,0.6,,,,,,186.9803,187.2386,188.4477,"[-0.18190623909649548,0.029182058413385604]",4.0,"[-0.06375878874815359,-0.1639910690311453]",4.0,"[-0.13318118058614625,0.03216198395415085]",100.0,"[-0.03348452153241041,0.010244438266343562]",4.0,"[-0.06235249787070336,0.07991469150120487]",100.0,"[0.0003570982474042699,0.16053504020480572]",100.0,"[0.024982847925541264,-0.09017634461233524]",100.0,"[0.17704652005345092,-0.07591724749384099]",100.0,"[-0.11464056646205387,0.16110951316471608]",4.0,"[0.1245851628869335,-0.054595178581461914]",100.0,"[-0.13451280534480864,0.10229813496038219]",4.0,"[0.1407299274717112,0.07876871869787934]",100.0,"[0.10542910767100652,-0.10925655927450914]",100.0,"[0.04808224442591798,-0.011248547076216529]",4.0,"[-0.1690148321163338,0.07577714990673648]",100.0,"[0.09424160179348065,0.12192882198947781]",100.0,"[-0.09231385170208428,0.11862783152567538]",4.0,"[0.028440976557565136,0.07260941229933092]",100.0,"[-0.04871255650901838,-0.10608079105750463]",4.0,"[0.12767776823476618,0.1478321361279607]",4.0,"[0.003504742870419548,-0.13726198832187345]",100.0,"[0.14273766354976136,-0.0011469122918929492]",4.0,"[-0.0976111052186973,-0.02161020401672654]",4.0,"[-0.1108195745134326,-0.08823739207733075]",4.0,"[0.07621444986860507,-0.1542725319299511]",100.0,"[0.007115451284051546,-0.1914470484463153]",100.0,"[0.062221748234113236,-0.07478993114393163]",100.0,"[0.1769521372680973,0.05081497837953941]",100.0,"[-0.0526080036847307,-0.04530834051904235]",100.0,"[0.06045528418692439,0.18254407110238785]",100.0,"[0.09392468242845253,0.07928940103614913]",4.0,"[0.06005680651686735,0.04323004972058207]",100.0,"[0.02,0.02]",189.5474,0.0,23.0,23.0,35.0,1.0,,,,,,,
,,,,,,,67c1d7dfe0aaba274972150e,683aef14190727d64367fe4f,2025-05-31_07h01.55.757,shape_ratio,2024.1.5,Win32,59.88023952,683ae9196541af24d3a69e58,,,,,,,,,,,189.548,190.0474,,,190.3041,191.4138,right,1.0997,,,,,,,,,0.5,,,,,,190.0474,190.3041,191.4138,"[0.11592200538932732,0.12872432007322823]",4.0,"[-0.05586739854170582,-0.06332346368626161]",100.0,"[0.006486036863009169,0.06837873353016662]",4.0,"[0.06544498865725502,0.14276089238573925]",4.0,"[0.1074849282030518,-0.10590680455512799]",100.0,"[-0.05769011975087396,0.13697658725114822]",100.0,"[-0.1131485326976764,0.06819525086645246]",4.0,"[-0.16720638146482963,-0.015411534137073307]",4.0,"[0.015017781655465304,-0.11508745607941914]",4.0,"[0.07242457640561832,0.06656437625521067]",100.0,"[-0.1360375912568808,0.11728694976756232]",100.0,"[-0.1118515095944255,-0.006406879589257602]",4.0,"[-0.08614161357248533,-0.16009658872090096]",100.0,"[0.13319564962467537,-0.031837782343297726]",100.0,"[-0.119486551873205,-0.10974224391372014]",100.0,"[-0.1639884692227837,-0.09550397969962503]",4.0,"[0.1815183271333977,0.05264368431045175]",100.0,"[-0.05500061744276612,0.02965537850129477]",100.0,"[-0.04141506410235465,0.06777290142410522]",100.0,"[0.07767412518526372,-0.1752494501863521]",4.0,"[-0.18540563750950373,0.05888482352486427]",4.0,"[-0.018627652900068414,0.18237914575438408]",100.0,"[-0.03723178418372081,-0.11466890665090487]",4.0,"[0.178813359712207,-0.0016395903789543523]",4.0,"[0.1464173325008172,0.0736438504527784]",4.0,"[0.048502695485071266,0.03432990653313674]",4.0,"[0.18684898878312242,-0.06648368299314396]",100.0,"[0.09032147398041532,0.01919705873934373]",4.0,"[0.05449177866351456,0.10411006015778793]",100.0,"[0.020715879156290782,-0.16964157848377268]",4.0,"[-0.14611506245420428,0.025957782927767913]",100.0,"[-0.10975541874026219,0.16466127203118913]",100.0,"[0.02,0.02]",192.5138,0.0,24.0,24.0,114.0,1.0,,,,,,,
,,,,,,,67c1d7dfe0aaba274972150e,683aef14190727d64367fe4f,2025-05-31_07h01.55.757,shape_ratio,2024.1.5,Win32,59.88023952,683ae9196541af24d3a69e58,,,,,,,,,,,192.5145,193.014,,,193.2643,194.5976,right,1.3178,,,,,,,,,0.1,,,,,,193.014,193.2643,194.5976,"[-0.15032405146953357,0.00023898693579984642]",4.0,"[-0.08633287071190374,0.02763214772145731]",100.0,"[0.14039699394949884,0.13513307138456548]",4.0,"[-0.1577553340779912,0.04728894684792077]",4.0,"[0.1472270205322144,0.07180316956005135]",4.0,"[-0.11349329295139303,-0.14535938488459643]",4.0,"[-0.11658975539831594,-0.10438274761170378]",4.0,"[0.03795555227224303,0.07172904512003997]",4.0,"[-0.0031958615650797633,-0.0841110972953917]",4.0,"[-0.07895754360131593,0.12677394288996793]",4.0,"[-0.17987439511982542,-0.06308772331692343]",4.0,"[-0.009445174707214118,0.10062987020156039]",4.0,"[0.0794543945774024,-0.11269265213699094]",4.0,"[0.043604836349415324,-0.07016935689311972]",4.0,"[0.0339908624069491,-0.11618679065591422]",4.0,"[-0.00048347531740413713,0.1449457876121326]",4.0,"[0.09482836366083265,0.13636092279215475]",4.0,"[-0.012429150457705596,-0.138867824739679]",4.0,"[-0.19891713777624617,-0.008226458913446082]",100.0,"[0.010974410639853533,0.1979898381940885]",4.0,"[-0.12378340373318047,-0.06454169498014962]",4.0,"[-0.06706419360116059,-0.06303321162243485]",4.0,"[-0.0895002264488433,-0.014931344569272881]",4.0,"[0.1183991594051127,0.013342206052519122]",4.0,"[0.03073355122445748,-0.1868347091376495]",4.0,"[0.03567433202324624,0.11174509569695627]",4.0,"[-0.09471165863867188,0.16631877422283417]",4.0,"[0.11172248606000452,-0.04954021957767363]",4.0,"[-0.041200446482752416,0.031092892884714517]",4.0,"[0.18434350468766325,-0.01467835556260981]",4.0,"[0.08194579301381542,-0.0041644929484816505]",4.0,"[0.17342810862064312,-0.08449378356571866]",100.0,"[0.02,0.02]",195.6901,0.0,25.0,25.0,194.0,1.0,,,,,,,
,,,,,,,67c1d7dfe0aaba274972150e,683aef14190727d64367fe4f,2025-05-31_07h01.55.757,shape_ratio,2024.1.5,Win32,59.88023952,683ae9196541af24d3a69e58,,,,,,,,,,,195.6907,196.1806,,,196.4311,197.1642,left,0.7009,,,,,,,,,0.9,,,,,,196.1807,196.431,197.1642,"[0.15938636409094067,0.01237006210958442]",100.0,"[-0.051662869144043874,-0.12422903806272656]",100.0,"[-0.030880616600897616,0.11345898563228142]",100.0,"[-0.08784214815525983,0.045440898652626883]",100.0,"[-0.005714919839569914,0.02242045382082101]",100.0,"[0.05565840932693866,-0.18099500742795954]",100.0,"[0.03216065912660483,-0.027461818312751598]",100.0,"[-0.17991150639622835,0.007097980906051153]",100.0,"[-0.077109236535721,0.1834458874223064]",100.0,"[-0.17505834386386693,0.08247476529857473]",100.0,"[-0.10791549814511207,-0.09561923922928663]",4.0,"[0.1056533305166564,-0.02766633716972478]",100.0,"[0.12629133540868928,0.12563300211937323]",100.0,"[-0.13717512320802827,-0.062411871574986164]",100.0,"[-0.04665201141865098,0.15650844367533073]",100.0,"[0.003570353167833014,-0.07121641321436624]",100.0,"[-0.024923056043726678,-0.17634005001510686]",100.0,"[-0.10013620833682707,-0.1643627112380947]",100.0,"[0.19476356272497025,-0.042015765649494954]",100.0,"[-0.11557380969258327,0.15486307983825187]",100.0,"[0.024568859158878117,0.1704462288483379]",4.0,"[0.1542240715152294,-0.05559444610150587]",100.0,"[0.05601298768819363,0.06739143897430644]",100.0,"[-0.1859597610279117,-0.059871599989087324]",100.0,"[0.07103284092639331,0.12004807717865223]",100.0,"[0.007318427234004961,-0.13352805731114614]",100.0,"[-0.07153750248872368,-0.07616622390997009]",4.0,"[0.10959408459682986,-0.07026239665901267]",100.0,"[-0.10987883468914142,0.008500142090300882]",100.0,"[-0.16086683132655719,0.04401829014270239]",100.0,"[0.06016972814688054,-0.1354810770737975]",100.0,"[0.0666635534581574,-0.06046830569465468]",100.0,"[0.02,0.02]",198.2639,0.0,26.0,26.0,2.0,1.0,,,,,,,
,,,,,,,67c1d7dfe0aaba274972150e,683aef14190727d64367fe4f,2025-05-31_07h01.55.757,shape_ratio,2024.1.5,Win32,59.88023952,683ae9196541af24d3a69e58,,,,,,,,,,,198.2645,198.764,,,199.0136,199.7914,left,0.7515,,,,,,,,,0.4,,,,,,198.764,199.0136,199.7915,"[-0.10346533749464613,0.039131022649312217]",100.0,"[-0.0888140726452116,-0.04311051696381992]",100.0,"[-0.15327231737444041,-0.009546661209608088]",4.0,"[-0.07989887731814113,-0.09477543217179807]",100.0,"[0.03750713334407843,0.1288921831953865]",4.0,"[-0.05598504692033744,0.16092846744929243]",4.0,"[-0.032262858019978795,-0.1344067856180419]",4.0,"[0.13576101777279817,0.09789424936632977]",4.0,"[0.0749973850422688,0.09494591491103413]",4.0,"[0.03689344638963376,-0.14183829963328654]",100.0,"[0.0033992379079317908,-0.04800865494479846]",4.0,"[-0.103713454880369,-0.15903269580272672]",4.0,"[0.0715336648595409,-0.041478887223228664]",4.0,"[0.08575929429365327,0.019427785917105315]",100.0,"[-0.03516779661604993,0.024136598376070535]",100.0,"[-0.10058787023584004,0.11753164839440002]",4.0,"[0.07891812859819648,-0.1730017669258687]",100.0,"[-0.05294804466698431,0.07516158165719135]",100.0,"[-0.01896539414727036,0.18617012534806626]",4.0,"[0.13222185839255252,-0.005896589649207016]",100.0,"[0.11625342713560981,-0.14678733328700166]",100.0,"[0.13783974928431608,-0.048119036467150864]",4.0,"[0.1819821922991045,-0.05712791951979288]",4.0,"[0.04844152942258716,0.1728159028114178]",4.0,"[-0.16144318387465756,0.030728373212578944]",4.0,"[0.07244529328171971,-0.08775021166281081]",4.0,"[0.02109656789292994,0.0704055779925973]",100.0,"[0.002737322405230577,-0.1760876112745133]",4.0,"[-0.16211140747265856,-0.11672319254794168]",100.0,"[-0.046221377152506626,-0.06715927644189783]",100.0,"[0.16572555676078604,0.02869721882190544]",4.0,"[0.0022896170827278795,-0.09940707623318412]",4.0,"[0.02,0.02]",200.8806,0.0,27.0,27.0,157.0,1.0,,,,,,,
,,,,,,,67c1d7dfe0aaba274972150e,683aef14190727d64367fe4f,2025-05-31_07h01.55.757,shape_ratio,2024.1.5,Win32,59.88023952,683ae9196541af24d3a69e58,,,,,,,,,,,200.8812,201.3804,,,201.6311,202.7642,right,1.1007,,,,,,,,,0.1,,,,,,201.3804,201.631,202.7643,"[0.033492130791059685,0.16301959146256123]",4.0,"[-0.18858066273066929,0.031219830016481306]",4.0,"[-0.0893102497152787,-0.1344892064465434]",4.0,"[0.1536097913299542,-0.08625641719527156]",4.0,"[0.0726947348764192,0.12520263579049393]",4.0,"[-0.152147802281139,-0.007384296016379718]",4.0,"[-0.013535635101170958,0.0660232591672884]",4.0,"[-0.03979350244637439,-0.0069909748978929575]",100.0,"[0.13627734444506448,0.08223973462861012]",4.0,"[0.02257795229816049,-0.05701575616943023]",4.0,"[-0.08995659759412972,0.15191069154916378]",4.0,"[0.04098436971915103,-0.15851906071820587]",100.0,"[-0.03784996222619143,-0.16704565769467156]",4.0,"[0.09246171276617213,0.024826650906969523]",4.0,"[-0.11751011876895509,0.1171424692622519]",4.0,"[-0.06181498109233639,0.11117060286137183]",100.0,"[-0.09029335774034218,-0.17734773404967405]",4.0,"[0.09588894289854909,-0.06864673819264233]",4.0,"[0.08215172645480379,-0.024034925482811886]",4.0,"[0.06994424363554526,0.18598424540135053]",4.0,"[-0.1650892773625397,0.09180590665297411]",4.0,"[0.01192026037359937,0.10910801843822045]",4.0,"[0.12305734044883293,-0.12515391527053787]",4.0,"[0.036985449229680764,0.058963503371535955]",4.0,"[0.12231287191222807,0.14183346542352054]",4.0,"[0.005180665434429809,-0.12801726967226074]",4.0,"[0.145356705691733,-0.03053631982106721]",4.0,"[0.029363202683811613,-0.004166466413840728]",4.0,"[-0.11123322915517328,0.07256501117085129]",4.0,"[-0.0694087114904543,-0.0587507329001121]",4.0,"[0.1817946042083043,0.002442884053261429]",4.0,"[-0.01574636010858527,0.19440252449550785]",4.0,"[0.02,0.02]",203.864,0.0,28.0,28.0,182.0,1.0,,,,,,,
,,,,,,,67c1d7dfe0aaba274972150e,683aef14190727d64367fe4f,2025-05-31_07h01.55.757,shape_ratio,2024.1.5,Win32,59.88023952,683ae9196541af24d3a69e58,,,,,,,,,,,203.8645,204.364,,,204.6136,205.5974,left,0.9569,,,,,,,,,0.5,,,,,,204.364,204.6136,205.5974,"[-0.032375238299424555,0.10465551996999307]",100.0,"[0.08919726661136278,-0.11334364520102205]",100.0,"[0.06436368691517305,0.016832381940526556]",4.0,"[-0.06887288021205555,-0.17614062964277075]",4.0,"[-0.037102693846090384,0.1808674627883096]",4.0,"[-0.017850132642150837,-0.16209631802280877]",100.0,"[0.08765149015531687,-0.17213252070352017]",100.0,"[0.06120486270656364,0.17779729511615064]",4.0,"[-0.10110550433769733,-0.1385898729679946]",4.0,"[0.14401367602663562,0.08136489598370739]",4.0,"[-0.16461565619683047,-0.08130628151520715]",4.0,"[-0.11626593000570627,0.013372840904959181]",4.0,"[-0.15564796686584523,-0.00795966731213755]",4.0,"[-0.11355635671410372,0.1318049490604284]",100.0,"[0.12490987104554534,-0.027259794523682292]",100.0,"[0.06919557137570133,-0.055147636593369694]",100.0,"[0.1849971505635905,-0.017752127282025805]",4.0,"[-0.04090304344056082,-0.05756038821197126]",4.0,"[0.010979742296627295,-0.04894048702999915]",100.0,"[-0.07786580087219404,0.06033514613878463]",100.0,"[-0.010787263121032047,-0.12007612684504881]",100.0,"[0.026507823141135728,0.05026975795985939]",4.0,"[-0.08500051273862515,-0.09689311069375947]",4.0,"[-0.1818378400320698,-0.03898557993614792]",100.0,"[0.017224053448713982,0.1685454257408406]",100.0,"[0.17925158427036025,0.05717523875510829]",4.0,"[0.0394702589481597,-0.16849733302879816]",100.0,"[0.155411421803752,-0.07154635792335592]",100.0,"[0.042327436649958514,-0.08968268975173425]",4.0,"[-0.18877003690047137,0.021022762336446767]",100.0,"[-0.016758465441598373,-0.01294339797122189]",100.0,"[0.130283894612838,0.03889558157566224]",4.0,"[0.02,0.02]",206.6969,0.0,29.0,29.0,108.0,1.0,,,,,,,
,,,,,,,67c1d7dfe0aaba274972150e,683aef14190727d64367fe4f,2025-05-31_07h01.55.757,shape_ratio,2024.1.5,Win32,59.88023952,683ae9196541af24d3a69e58,,,,,,,,,,,206.6973,207.1971,,,207.438,208.3645,left,0.9123,,,,,,,,,0.55,,,,,,207.1971,207.438,208.3645,"[-0.03973104239695877,-0.08625282487108385]",100.0,"[-0.11605138311547132,-0.09180962225850936]",100.0,"[-0.09879385865874868,-0.03086065562968179]",100.0,"[-0.08429220975336778,-0.11961809820833269]",4.0,"[-0.16095274733111406,-0.015726182720748588]",100.0,"[0.008612091334380572,-0.18638662762780092]",4.0,"[0.03380951368413199,-0.028103557530775196]",100.0,"[-0.004610631009243736,-0.062309044250733775]",100.0,"[0.0744279153996826,0.07479405666762179]",100.0,"[-0.0815741206259805,0.13535933608086917]",100.0,"[0.12241014422152986,0.018550840995761833]",100.0,"[0.12666211173339803,-0.10216115526140586]",4.0,"[0.042984025410844465,-0.10325502845888063]",4.0,"[0.03985087056908421,0.17251104940038542]",4.0,"[-0.06846131128583545,0.040365010165242]",100.0,"[-0.01738041129536162,0.04399746278211285]",100.0,"[0.043107261011804426,-0.15728842152103933]",100.0,"[-0.12817201882961915,0.12986972422262613]",100.0,"[0.18609277692115037,0.03669222632018191]",100.0,"[-0.027238575517497664,0.13474656130013835]",4.0,"[0.09089603951783874,-0.07176849228702152]",100.0,"[0.0751327239554789,0.11647626962894166]",4.0,"[-0.07661671795146781,-0.16552493586075087]",4.0,"[-0.15072373135438763,0.03224402430411207]",4.0,"[0.03619262982760292,0.0979350352975426]",4.0,"[0.16149451667319129,0.07174768702746007]",4.0,"[0.06538035965409007,0.01707850066464493]",100.0,"[-0.06254732359588822,0.18319219759298838]",100.0,"[0.07434858292998257,-0.024951236183195852]",100.0,"[0.1202823902284359,0.08127433722162226]",4.0,"[0.08582270077454632,-0.1775712638960564]",4.0,"[-0.17563349491504712,-0.06278154106446658]",4.0,"[0.02,0.02]",209.464,0.0,30.0,30.0,63.0,1.0,,,,,,,
,,,,,,,67c1d7dfe0aaba274972150e,683aef14190727d64367fe4f,2025-05-31_07h01.55.757,shape_ratio,2024.1.5,Win32,59.88023952,683ae9196541af24d3a69e58,,,,,,,,,,,209.4645,209.9638,,,210.2073,211.5142,left,1.2939,,,,,,,,,0.45,,,,,,209.9638,210.2073,211.5142,"[0.046350335343926526,-0.006786335414798344]",100.0,"[-0.013198010514984974,-0.0726637994950715]",4.0,"[0.06286975377846181,-0.07987995618483247]",4.0,"[0.15459447972740076,-0.0792815018075155]",4.0,"[0.09055334398670822,-0.17027544644380013]",4.0,"[-0.11415678622100603,0.07604608985946809]",4.0,"[0.09199442308527499,0.06732449136242598]",100.0,"[-0.12785190355285062,-0.10245822348335523]",4.0,"[0.18206821639388385,0.011776842797507363]",100.0,"[0.0492073647594192,-0.11833102455944516]",100.0,"[-0.013080290292302196,0.030667360643537592]",4.0,"[0.12841153941790476,-0.041833571845502786]",4.0,"[0.03875653509080464,0.1069231393396772]",4.0,"[-0.021538529613616103,0.12407935448868308]",4.0,"[0.029267414274005456,0.17847119388980767]",4.0,"[-0.08136956520033388,-0.11119788470910105]",100.0,"[-0.07781237958590552,0.12232612133207982]",100.0,"[-0.04516465601956317,0.16284116149695954]",4.0,"[-0.05049232668301381,-0.14156140049544078]",100.0,"[0.011399692627182293,-0.10510035035789948]",4.0,"[-0.17082550073254615,-0.08436790396968238]",4.0,"[0.08708253432327515,0.1248932848506076]",100.0,"[0.004260885668238763,-0.1987588512596774]",4.0,"[0.11016861379241132,-0.08719204756847783]",4.0,"[-0.06564740166716855,0.031103516037630626]",100.0,"[-0.15198370086158422,0.015611709793457792]",4.0,"[0.011517504131018402,0.07536533112765033]",100.0,"[-0.040911260975924256,-0.027531676825507504]",100.0,"[0.13509064118593284,0.08621170892862758]",100.0,"[-0.09822104017522908,-0.028511952179494367]",100.0,"[0.16898395781906475,0.05460440568571415]",4.0,"[-0.005502286131981835,-0.15263296527121464]",100.0,"[0.02,0.02]",212.6139,0.0,31.0,31.0,123.0,1.0,,,,,,,
,,,,,,,67c1d7dfe0aaba274972150e,683aef14190727d64367fe4f,2025-05-31_07h01.55.757,shape_ratio,2024.1.5,Win32,59.88023952,683ae9196541af24d3a69e58,,,,,,,,,,,212.6145,213.1139,,,213.3644,214.0975,left,0.7174,,,,,,,,,0.55,,,,,,213.114,213.3643,214.0976,"[0.16936246250796294,-0.055841219750663036]",4.0,"[-0.06380784010385303,0.1517656303876784]",100.0,"[-0.04832289598491248,-0.15622133978706915]",4.0,"[0.02916516897195573,-0.07255701700452023]",4.0,"[-0.16021496336092395,-0.038854212313403615]",4.0,"[0.09344158514365783,-0.10065973998997528]",100.0,"[0.1384304854925717,-0.12259686009629561]",100.0,"[-0.038263770311675604,-0.07851315405019374]",4.0,"[0.10332899863764833,-0.016591710818610824]",4.0,"[-0.11078319280593106,-0.16180460117509443]",100.0,"[0.02536311214188769,-0.1481620979745161]",100.0,"[-0.07268656396239898,0.038381919170315915]",100.0,"[0.18464564197334737,0.00858332458515846]",4.0,"[-0.10426961434913415,-0.09043797069494953]",4.0,"[-0.11137429115660247,0.12054075557765365]",4.0,"[-0.019136218360200116,0.1570108686118666]",100.0,"[-0.18970530258715915,-0.008347192075498477]",100.0,"[0.13616700398897727,-0.08156770814267145]",100.0,"[0.10238057140339693,0.1597954950489101]",4.0,"[-0.1392640947085707,0.01313136272372992]",4.0,"[-0.17699648090353204,0.06438530915415518]",100.0,"[0.05207070759082475,-0.18361681777671607]",100.0,"[-0.07145072916178904,0.08130289783228765]",100.0,"[0.06428559230044,0.1343650115233897]",100.0,"[-0.054314123472570815,-0.01250503954297251]",100.0,"[0.005477088260453591,0.0761904849179427]",100.0,"[0.006653062611113576,-0.18543431890367895]",4.0,"[0.15301330827987042,0.12012472335415626]",4.0,"[0.1390616893093615,0.07992747055665368]",4.0,"[0.10069076333887458,-0.15055786734173532]",100.0,"[-0.009967809639645149,-0.04804788537454649]",100.0,"[0.0005493026607390368,-0.1051065979074073]",100.0,"[0.02,0.02]",215.1973,0.0,32.0,32.0,89.0,1.0,,,,,,,
,,,,,,,67c1d7dfe0aaba274972150e,683aef14190727d64367fe4f,2025-05-31_07h01.55.757,shape_ratio,2024.1.5,Win32,59.88023952,683ae9196541af24d3a69e58,,,,,,,,,,,215.1979,215.6973,,,215.9474,216.5811,left,0.6185,,,,,,,,,0.55,,,,,,215.6973,215.9474,216.5812,"[-0.14063721382051317,0.0596286524500761]",4.0,"[-0.1502623898107967,0.12368243011315525]",100.0,"[-0.030694363745217047,0.0028029910850369878]",100.0,"[-0.1548554961965374,-0.1119465752719241]",4.0,"[-0.06994335686155176,0.025233152916542163]",100.0,"[0.06149826989106473,0.0023686464577988594]",4.0,"[0.10265618095487838,0.0521730924077601]",100.0,"[-0.07607431561019737,-0.019775726552468405]",4.0,"[0.13985770032876346,-0.09494223826756772]",100.0,"[-0.09587978962182309,-0.08598124759355479]",100.0,"[0.16986861033968925,-0.01044097998983005]",100.0,"[-0.015381520925676939,0.10996059145186954]",4.0,"[-0.034062438148676155,-0.18510076097557354]",4.0,"[0.012760747617177805,-0.1188217888315614]",4.0,"[0.07096817954316545,-0.17935512700742826]",100.0,"[0.12144895426574202,0.09608393159925767]",4.0,"[-0.05392931326832607,-0.060170480663281276]",100.0,"[0.04879141101910196,-0.0991842354877466]",4.0,"[0.05644138368358276,0.045171350958898696]",100.0,"[0.10354155029399281,-0.15107719409523201]",4.0,"[-0.03701994756560468,0.1446883597997505]",100.0,"[0.09366375182054892,-0.08078131265191779]",100.0,"[0.11365611070898347,0.0061387576418620825]",100.0,"[0.020266059997005457,-0.16004136093185384]",100.0,"[-0.11354531989827561,-0.13397028493347904]",100.0,"[-0.05914485645121434,0.1848728493516201]",100.0,"[-0.09234914809871017,0.11383376860016385]",4.0,"[-0.18898554759133845,-0.04767460918196949]",100.0,"[0.1336538348448115,0.14151822052436955]",100.0,"[-0.06185251215175837,-0.11021501804899556]",4.0,"[0.06409863974879591,0.0913228817512755]",4.0,"[0.17089868797566932,-0.05892104973691806]",4.0,"[0.02,0.02]",217.6801,0.0,33.0,33.0,87.0,1.0,,,,,,,
,,,,,,,67c1d7dfe0aaba274972150e,683aef14190727d64367fe4f,2025-05-31_07h01.55.757,shape_ratio,2024.1.5,Win32,59.88023952,683ae9196541af24d3a69e58,,,,,,,,,,,217.6803,218.1806,,,218.4314,219.3144,right,0.8675,,,,,,,,,0.1,,,,,,218.1807,218.4313,219.3144,"[0.13274876933645696,-0.06705129434739852]",4.0,"[0.01695681683202804,-0.07307634621842735]",4.0,"[0.16119604058106526,-0.016706245366584403]",4.0,"[-0.08819294872397641,0.11637780856398733]",4.0,"[-0.15326627014243077,-0.12552442901629232]",4.0,"[0.10420552516484,0.13795263604369887]",4.0,"[0.01891592361600019,-0.0008972079799662996]",4.0,"[0.015026035328120451,0.1797527202983585]",4.0,"[-0.03214118208565232,0.1775028510476764]",4.0,"[0.12788682320784628,0.09252486855554004]",4.0,"[-0.13536772069694086,0.11794971228321215]",4.0,"[-0.1417126332774767,-0.06490548802094402]",4.0,"[0.16943573151717556,-0.08513078294823714]",4.0,"[-0.16358301424160357,0.04584837969620872]",4.0,"[-0.07330509533623417,-0.17642566867413148]",4.0,"[-0.07089124442758318,0.03817218568986607]",4.0,"[-0.1816835411895702,-0.013979880948908275]",100.0,"[-0.07631655057703103,-0.06979197929005748]",100.0,"[0.12198148318576062,-0.12895192045588647]",4.0,"[-0.013525920970552809,0.1289545877929931]",4.0,"[0.03995307762882202,-0.14188177540012803]",4.0,"[0.07083129296524426,-0.0022278487773998413]",100.0,"[-0.11737498269118404,0.0805427537221786]",4.0,"[-0.1075475421967929,-0.11095897834931506]",4.0,"[0.045967614556470575,-0.185051575275222]",4.0,"[0.08791931421925804,0.06315100743419075]",4.0,"[-0.06660638564568355,-0.1349143048104916]",4.0,"[-0.09574661666909437,0.17165496697607402]",4.0,"[0.05339928543624129,0.16407011412150932]",4.0,"[-0.030565916135183294,-0.045197434339691464]",4.0,"[-0.02586540358722482,0.07022470770995153]",4.0,"[0.17035199609372817,0.09542000046623632]",4.0,"[0.02,0.02]",220.4141,0.0,34.0,34.0,202.0,1.0,,,,,,,
,,,,,,,67c1d7dfe0aaba274972150e,683aef14190727d64367fe4f,2025-05-31_07h01.55.757,shape_ratio,2024.1.5,Win32,59.88023952,683ae9196541af24d3a69e58,,,,,,,,,,,220.4147,220.9141,,,221.1641,221.9801,left,0.7883,,,,,,,,,0.5,,,,,,220.9142,221.1641,221.9801,"[0.13534751443339774,-0.050619723388260984]",4.0,"[-0.0703907537052905,0.160885280008081]",4.0,"[0.1894862127435545,0.01189381388860918]",100.0,"[0.06382933411884298,-0.025518447635993403]",4.0,"[0.027763829167437627,-0.15337435055414936]",4.0,"[-0.15335297713646945,0.009573052118253203]",4.0,"[-0.121682435211757,-0.12959420200126157]",100.0,"[-0.013070590556072993,0.05661126496361421]",100.0,"[0.06703915140576414,-0.13053734632200029]",100.0,"[-0.001590091692072067,-0.0031191414650235737]",4.0,"[0.08979915211749293,0.1569404252992198]",100.0,"[-0.07461798158150365,0.11888106325406862]",4.0,"[-0.11279072762387812,-0.08096363810706597]",4.0,"[0.10385315531985854,0.017864626983005113]",4.0,"[0.03930891376205808,0.17939923731748403]",100.0,"[-0.156852731209479,-0.09711636517954561]",100.0,"[0.18094960781201896,0.06472270859520923]",100.0,"[0.13420659662747106,-0.009656152108593018]",4.0,"[0.0404804348858998,-0.09033075388471698]",4.0,"[-0.05270820192315219,0.02766546531943171]",100.0,"[-0.07578323832956778,-0.06374608743368831]",100.0,"[-0.016237843373736394,-0.10542689576755229]",4.0,"[0.15961701919876659,0.11336528027373005]",4.0,"[-0.14914499075526377,-0.04324501667516588]",100.0,"[-0.03728658507953544,0.1920428600422318]",100.0,"[-0.011902059045514352,0.113602152525881]",100.0,"[-0.06658798265086807,0.07148202287053672]",4.0,"[-0.134858866590619,0.11951017117474236]",100.0,"[0.13945331560882637,-0.12078592478292162]",4.0,"[0.026163518827921506,0.09852971296186964]",100.0,"[-0.18842695398777282,-0.060962206274193374]",4.0,"[-0.12255058602790599,0.05067797914613999]",100.0,"[0.02,0.02]",223.0804,0.0,35.0,35.0,119.0,1.0,,,,,,,
,,,,,,,67c1d7dfe0aaba274972150e,683aef14190727d64367fe4f,2025-05-31_07h01.55.757,shape_ratio,2024.1.5,Win32,59.88023952,683ae9196541af24d3a69e58,,,,,,,,,,,223.081,223.5806,,,223.8305,224.6974,left,0.8394,,,,,,,,,0.55,,,,,,223.5806,223.8304,224.6975,"[0.0032916494727624813,0.0238419050124722]",4.0,"[-0.020956541269647657,-0.05326198031771724]",4.0,"[-0.023432216785220797,-0.11835262477135135]",4.0,"[-0.08945413426285172,0.06839967548583645]",100.0,"[0.05672301281233692,0.17744132860269887]",4.0,"[0.18367039277030814,0.00733160873710339]",100.0,"[-0.12503082864726983,0.09108015276205249]",100.0,"[0.09587723180559553,0.07551210669241615]",4.0,"[0.14388899998713037,0.11862219529317254]",4.0,"[0.06832421628967073,0.1306362163597643]",100.0,"[-0.04819180999674771,0.08379320054468381]",100.0,"[-0.13450971324370262,-0.11281290359764384]",4.0,"[0.04461531460429677,-0.0973664999062655]",100.0,"[0.14834557595691297,-0.02033123227857917]",100.0,"[0.16614317367486817,0.07735539387383415]",100.0,"[-0.030882505232380078,-0.19419602391906066]",4.0,"[0.09966728198015076,-0.12414031837455772]",4.0,"[0.04700856254385865,0.03674909577089698]",100.0,"[-0.1188652246527235,-0.04406434164540087]",4.0,"[-0.15287903072711426,0.010161941547306626]",100.0,"[-0.17292271718611507,0.07442695143453397]",4.0,"[0.009723103885383779,-0.1542799065982425]",4.0,"[-0.011453094852721312,0.19231327372049836]",100.0,"[0.027490584099942476,0.10724700229831417]",100.0,"[0.11475299461230998,0.010453792553759191]",100.0,"[0.1275338338927951,0.049843935167342424]",4.0,"[0.0737234241122303,-0.014341877808813281]",100.0,"[-0.1442306678682685,0.12638013824228436]",100.0,"[-0.04161086047541503,0.1633641185371728]",100.0,"[0.10499073029270412,0.154594481162234]",100.0,"[-0.05601278249817557,-0.01477546445186275]",100.0,"[-0.07037690264525183,-0.14325530706910083]",4.0,"[0.02,0.02]",225.7973,0.0,36.0,36.0,60.0,1.0,,,,,,,
,,,,,,,67c1d7dfe0aaba274972150e,683aef14190727d64367fe4f,2025-05-31_07h01.55.757,shape_ratio,2024.1.5,Win32,59.88023952,683ae9196541af24d3a69e58,,,,,,,,,,,225.7979,226.2968,,,226.5569,228.0473,,,,,,,,,,,0.4,,,,,,226.2968,226.5568,228.0473,"[0.12576461291008287,0.14593189201924395]",4.0,"[-0.0010264690750084325,0.18103920297708387]",4.0,"[0.13945976427414444,0.07134197470379917]",4.0,"[0.10388423679357661,-0.15591397123513928]",4.0,"[-0.10816840804509868,0.13000427224041494]",100.0,"[-0.017181386846696234,0.08254428356684794]",100.0,"[-0.16328788694255011,-0.0031849039481385948]",4.0,"[-0.038423692001214635,-0.11681473391922159]",4.0,"[0.030972740426935846,-0.10659814206070377]",4.0,"[0.07259922174101628,-0.11995489666959626]",4.0,"[0.15920336438619614,-0.07015954290661336]",100.0,"[0.07061170520762083,0.11450828644615887]",100.0,"[0.02029560101258418,0.0017100416216959203]",100.0,"[-0.008461092562709443,0.03470571389976242]",4.0,"[0.0684290895184317,-0.17529602576685044]",4.0,"[0.19696534994054532,-0.007470684593001129]",100.0,"[-0.15870976193399758,0.05081241022454484]",4.0,"[0.09723413241922166,0.043535968361921105]",4.0,"[-0.08969869340201794,-0.14929240423813947]",4.0,"[0.15151264776516726,0.008128044528419063]",4.0,"[-0.0512225320110928,-0.16574768026081663]",100.0,"[-0.048703372453282455,-0.02468954389067836]",100.0,"[-0.1257155834584291,-0.047155849161655765]",100.0,"[-0.11219193195976049,0.08256465106230092]",100.0,"[-0.11523192325239594,-0.09347360307950042]",4.0,"[0.017939998070809822,-0.1884402091419771]",100.0,"[0.12728758693994632,-0.10984092706494275]",100.0,"[-0.0903336656169844,0.029726839791716992]",4.0,"[0.02961933156739212,0.13589759209989996]",4.0,"[-0.17218716757945057,-0.0678169778918334]",4.0,"[0.044049623705414875,0.04236615202415101]",100.0,"[0.007636599062306603,-0.05136219248105372]",4.0,"[0.02,0.02]",229.1472,0.0,37.0,37.0,166.0,1.0,,,,,,,
,,,,,,,67c1d7dfe0aaba274972150e,683aef14190727d64367fe4f,2025-05-31_07h01.55.757,shape_ratio,2024.1.5,Win32,59.88023952,683ae9196541af24d3a69e58,,,,,,,,,,,229.1477,229.647,,,229.8879,230.4308,left,0.5222,,,,,,,,,0.6,,,,,,229.647,229.8879,230.4308,"[-0.0019201025915022802,-0.08186315054846345]",100.0,"[-0.12131135026221261,0.11056902855270337]",4.0,"[0.15668148963746967,-0.048903030047767734]",4.0,"[0.032278308995888606,0.020367396150350693]",100.0,"[-0.12973035193032342,-0.13934834553062464]",4.0,"[0.06552694319412042,-0.16176209575833878]",100.0,"[0.000259970272505983,-0.17549017796646443]",100.0,"[0.1134714185415703,0.11673754296142712]",4.0,"[-0.05300574820707866,-0.14874783334856823]",100.0,"[-0.020105114771389668,0.10941022516298803]",100.0,"[0.13286658861568115,0.004908536795883813]",100.0,"[0.1757372192218869,0.009348158964029253]",100.0,"[-0.08845619226243606,-0.02304974974030068]",100.0,"[0.037555068032035566,0.11429149409550803]",100.0,"[-0.07684745847036982,0.05161513733993291]",100.0,"[-0.14155078131295976,-0.10093448326039903]",100.0,"[0.1787113924265071,0.07941190733569574]",4.0,"[-0.053681395106794136,-0.07846678560948422]",100.0,"[0.04866706917163542,-0.03261316354941511]",4.0,"[0.024086935593902726,-0.13519730806390082]",4.0,"[0.10852884207149162,-0.15364203653152192]",100.0,"[0.07086145033984505,-0.07837098913444936]",100.0,"[-0.11860026852384618,0.01369633385154546]",4.0,"[0.14411069675856444,-0.08872897192156984]",100.0,"[0.08097476227562654,0.05159990560123475]",100.0,"[-0.132428779266651,0.06629156686210042]",4.0,"[0.07628533786198724,0.16934483524399022]",100.0,"[0.10083166709654,-0.04514090207250119]",4.0,"[0.02511941618979579,0.1615271259270115]",4.0,"[0.0795574024944987,0.09367836757597309]",4.0,"[-0.036782007470543,0.06818270793232528]",4.0,"[-0.16654318405354604,-0.016017916760710734]",100.0,"[0.02,0.02]",231.5305,0.0,38.0,38.0,49.0,1.0,,,,,,,
,,,,,,,67c1d7dfe0aaba274972150e,683aef14190727d64367fe4f,2025-05-31_07h01.55.757,shape_ratio,2024.1.5,Win32,59.88023952,683ae9196541af24d3a69e58,,,,,,,,,,,231.5311,232.0304,,,232.2805,232.8306,left,0.5373,,,,,,,,,0.5,,,,,,232.0305,232.2805,232.8307,"[-0.10811614065390095,0.0024820057235593784]",100.0,"[0.07281447604311526,-0.10547090416195146]",4.0,"[0.15599973315674312,0.0708789436907957]",100.0,"[-0.13316333613033007,-0.05074968124506635]",100.0,"[-0.07251791605854685,0.08437900841334449]",100.0,"[0.11481401710584756,0.0828585982396939]",4.0,"[0.0398030258559206,-0.02533072214019862]",4.0,"[0.13053604056179138,-0.14145826842861758]",100.0,"[-0.014175784571830951,-0.10559421808711494]",100.0,"[-0.026349790510185604,-0.1445622657316913]",100.0,"[-0.022611260487692856,0.0985292655138929]",4.0,"[0.08879471122222429,-0.032911064873836805]",100.0,"[-0.07486014534395831,-0.11314124742182215]",100.0,"[-0.046984818351293325,-0.009247273304420265]",100.0,"[-0.11115886356009794,0.13103516140090934]",4.0,"[-0.19205464828669921,-0.014809093766067411]",100.0,"[-0.00676813697911765,-0.013943635312480489]",4.0,"[-0.08230583556710178,-0.1635592928585464]",4.0,"[0.1672899062703047,0.017430971898852454]",100.0,"[-0.07129161035121423,0.177293535666641]",100.0,"[-0.0032873396388553395,0.18373475085587793]",4.0,"[0.011254074462799692,0.030682865186289775]",100.0,"[0.08024651412057468,0.12294779415062244]",4.0,"[0.04683052323330455,-0.1652024885486144]",4.0,"[0.17947663737278627,-0.02850122520583652]",4.0,"[0.16231533806597165,-0.06528215658844454]",100.0,"[0.09961293436115105,0.0403905788053105]",4.0,"[-0.15226894382927875,-0.11353887491896475]",4.0,"[0.011899393605346554,0.07077246725545222]",100.0,"[-0.1330878186243035,0.048544557609424895]",4.0,"[-0.042646982341460936,-0.0655140010606499]",4.0,"[-0.14142720316177407,0.10469272766108874]",4.0,"[0.02,0.02]",233.9304,0.0,39.0,39.0,103.0,1.0,,,,,,,
,,,,,,,67c1d7dfe0aaba274972150e,683aef14190727d64367fe4f,2025-05-31_07h01.55.757,shape_ratio,2024.1.5,Win32,59.88023952,683ae9196541af24d3a69e58,,,,,,,,,,,233.931,234.4305,,,234.6811,235.6141,right,0.9205,,,,,,,,,0.1,,,,,,234.4306,234.681,235.6141,"[0.19747061401456747,0.005737269499261303]",4.0,"[0.08559460713422838,-0.0769105286600856]",4.0,"[-0.18349209353100082,-0.0554826417111793]",4.0,"[-0.14137920151976124,-0.052335233452418674]",4.0,"[-0.06425796671111586,-0.10906947280792692]",4.0,"[0.16221134378664634,0.08213095912275949]",4.0,"[-0.13434081755369176,-0.0019965985480200803]",4.0,"[-0.0171139276483219,-0.1550354660711996]",4.0,"[0.05781895066487994,-0.004112466458137155]",4.0,"[0.021500624010772223,-0.02401066255358919]",4.0,"[-0.04807748145431535,0.013384935855297505]",4.0,"[-0.10707568004933442,-0.1638202670918568]",100.0,"[0.15535598416086543,-0.0008383158670970275]",4.0,"[0.10092307060690174,-0.004359707457592126]",4.0,"[-0.026002691167163392,0.17299949617556987]",4.0,"[-0.0026828666230064406,0.09570001751583421]",4.0,"[-0.1392969709366315,0.0486723329162461]",4.0,"[0.06705228699447775,0.16670886897373507]",4.0,"[-0.06673500262121483,0.0940205919964089]",4.0,"[-0.09956726223420669,0.14896823280688698]",4.0,"[0.1411040057047466,-0.06274997888261322]",4.0,"[0.11805893519775297,-0.14811862630735953]",4.0,"[-0.13921499532318724,0.1364655835034363]",4.0,"[-0.0029695376491136656,0.1399333745132393]",100.0,"[0.09549256780161129,0.05122523195089912]",4.0,"[0.10233079470065477,0.11683112513665804]",4.0,"[-0.09578465240300169,-0.024976677951629805]",4.0,"[-0.03605376372515326,0.05869684913603662]",4.0,"[-0.133983354190524,-0.11651749125528743]",4.0,"[-0.007169722733151396,-0.10350161763583257]",4.0,"[0.005245865936685816,0.024496164074386057]",100.0,"[-0.17842420795004718,0.0711233474796296]",4.0,"[0.02,0.02]",236.7138,0.0,40.0,40.0,204.0,1.0,,,,,,,
,,,,,,,67c1d7dfe0aaba274972150e,683aef14190727d64367fe4f,2025-05-31_07h01.55.757,shape_ratio,2024.1.5,Win32,59.88023952,683ae9196541af24d3a69e58,,,,,,,,,,,236.7143,237.2139,,,237.4642,238.0642,left,0.581,,,,,,,,,0.9,,,,,,237.214,237.4642,238.0642,"[0.13251745976122475,0.09200661397112594]",100.0,"[0.11741655265789953,0.13767836077586912]",100.0,"[-0.11613297232222333,-0.13163756690268022]",100.0,"[0.06478322685076614,0.11012365777537497]",100.0,"[-0.04135135274752041,-0.12666447225071018]",100.0,"[-0.011483529493072573,-0.004670844111993121]",100.0,"[-0.05315156975786706,0.17595040092543288]",100.0,"[0.05497053991376073,-0.19054499569221178]",100.0,"[0.1301186248249185,-0.006401662602412273]",100.0,"[0.057940851212286405,-0.13205646204401775]",100.0,"[-0.006495122123304992,-0.09008862394436441]",100.0,"[-0.1579132521966198,-0.011032370591409593]",4.0,"[-0.1257386572137968,0.11746643012720497]",100.0,"[0.19494257389634362,-0.021604679323406883]",100.0,"[-0.09965159958656207,0.040030824286993075]",100.0,"[0.13479577541045396,0.04654152735186049]",100.0,"[0.10727520904940943,-0.13627862673881022]",100.0,"[0.03314191416943282,0.1415748943379585]",100.0,"[0.03845464977953326,0.04604215101498021]",100.0,"[-0.0420272441645634,0.060221385286224186]",100.0,"[0.08929685875121604,-0.07169532049577043]",100.0,"[-0.13483136627488224,0.06461022160207831]",100.0,"[-0.038791459073910746,0.1126649634712469]",100.0,"[0.19024326921244084,0.055500987905414266]",100.0,"[0.016372184385438387,-0.13333448845380247]",100.0,"[0.04944556067335137,-0.035760040053728466]",100.0,"[-0.15989292614619272,-0.11499976363555224]",4.0,"[0.09160001721399723,0.05586635427475187]",100.0,"[-0.18351981657678668,-0.07580296824736059]",100.0,"[-0.06955323977924553,-0.06952325743436732]",4.0,"[-0.12831918182742713,-0.06775229169770572]",100.0,"[-0.05493975943695947,-0.018686164283048673]",100.0,"[0.02,0.02]",239.1639,0.0,41.0,41.0,27.0,1.0,,,,,,,
,,,,,,,67c1d7dfe0aaba274972150e,683aef14190727d64367fe4f,2025-05-31_07h01.55.757,shape_ratio,2024.1.5,Win32,59.88023952,683ae9196541af24d3a69e58,,,,,,,,,,,239.1648,239.6638,,,239.9049,240.9241,right,1.0009,,,,,,,,,0.6,,,,,,239.6639,239.9049,240.9242,"[-0.09841488907369736,-0.17092645638246268]",100.0,"[-0.07028984334399908,-0.1317121620783222]",100.0,"[0.00703185631130578,-0.15184022144390238]",100.0,"[-0.16245044634009037,0.017122022750646098]",100.0,"[-0.0848260499945772,0.14530290665338755]",4.0,"[-0.059781560355635005,0.18708032539341776]",100.0,"[0.020826462480673137,0.006574786393829888]",4.0,"[0.05814269401258067,-0.1776973248176758]",100.0,"[0.031802779282964,0.16248057096422647]",4.0,"[-0.1681410786200877,-0.10308446454422102]",4.0,"[-0.1583942440650844,0.10709937217679144]",4.0,"[0.05558151228692118,0.027070558603330644]",100.0,"[-0.03588051939181858,0.04377379970704581]",100.0,"[0.1239098770020649,-0.01175833441767131]",100.0,"[-0.016420593773891105,-0.03664483843506333]",4.0,"[-0.1869739602621647,-0.016009963102648763]",100.0,"[0.13178922967932663,-0.11925119651173426]",100.0,"[-0.08006065727469364,0.015839686882267088]",4.0,"[0.04041460607009185,-0.1141942313372564]",100.0,"[0.05632155064785685,0.12072141334300836]",100.0,"[-0.01719160548735406,0.1896597908045902]",100.0,"[-0.11222274057469121,0.08674381472182958]",4.0,"[0.035614762034506905,-0.06094301062505687]",100.0,"[0.0750873846510733,-0.07253655557675308]",100.0,"[-0.04183319960142298,0.14712975299207898]",100.0,"[0.116083765974906,0.08716019462216686]",4.0,"[-0.14422161416751167,-0.034679199382042836]",4.0,"[-0.05759059276247865,-0.18445483883018235]",4.0,"[0.0001520132061743562,-0.19133440984888767]",4.0,"[-0.1254591729578381,-0.1057655145948108]",100.0,"[-0.034020907049585276,0.10472394345793157]",100.0,"[0.11447885976088819,0.04005148120860116]",4.0,"[0.02,0.02]",242.0138,0.0,42.0,42.0,48.0,1.0,,,,,,,
,,,,,,,67c1d7dfe0aaba274972150e,683aef14190727d64367fe4f,2025-05-31_07h01.55.757,shape_ratio,2024.1.5,Win32,59.88023952,683ae9196541af24d3a69e58,,,,,,,,,,,242.0144,242.5138,,,242.7639,243.9974,right,1.2143,,,,,,,,,0.1,,,,,,242.5139,242.7639,243.9975,"[-0.0676285874275427,-0.1758782265974452]",4.0,"[-0.16128413930697974,0.08933936395533286]",4.0,"[0.03296547728946169,0.13591061985619393]",4.0,"[0.15142371836686636,-0.10348067723541086]",100.0,"[-0.005965093922348415,-0.05844032534533801]",4.0,"[-0.1604653352952413,-0.05602662678711905]",4.0,"[0.04372300007479829,-0.032922646918081375]",4.0,"[0.14136107221531935,0.025018799384691977]",4.0,"[0.04202232828791751,0.05180006118049697]",4.0,"[-0.10166913058644689,-0.15030575893854653]",4.0,"[-0.0291582118386717,-0.1170117704730612]",4.0,"[-0.19909439359803688,0.017212708319754876]",4.0,"[-0.08891234103870198,0.09388261817712949]",4.0,"[0.13900635116576868,0.08764695469892726]",4.0,"[0.006095687270168943,0.184830699291025]",4.0,"[-0.10933239838851531,0.045370457664030354]",4.0,"[-0.03528849623271596,0.13530190753651566]",4.0,"[0.1057485082814523,-0.1373266966336331]",4.0,"[0.08473365778342773,0.13266337996432548]",4.0,"[0.19170703096673497,0.025424706507772305]",4.0,"[0.008731784929966395,-0.003695083544801836]",4.0,"[-0.044297723646631204,-0.0738004836435995]",4.0,"[-0.0694668695329309,-0.010038947986017042]",4.0,"[0.06623096289949663,-0.1621540665787448]",4.0,"[-0.08687549892248699,-0.1101957795767863]",4.0,"[0.028046493612782317,-0.18931878739945332]",4.0,"[0.10543975581798071,-0.07029553948457874]",100.0,"[-0.046856571650455224,0.05560191370184083]",100.0,"[-0.10863554845189717,-0.02747391070030526]",4.0,"[-0.1398676869987033,-0.10202336909557455]",4.0,"[0.1342760829927411,0.1429369091044977]",4.0,"[-0.0077338993014104095,0.03952480653605446]",4.0,"[0.02,0.02]",245.0972,0.0,43.0,43.0,207.0,1.0,,,,,,,
,,,,,,,67c1d7dfe0aaba274972150e,683aef14190727d64367fe4f,2025-05-31_07h01.55.757,shape_ratio,2024.1.5,Win32,59.88023952,683ae9196541af24d3a69e58,,,,,,,,,,,245.0979,245.5966,,,245.8469,246.4641,left,0.5848,,,,,,,,,0.9,,,,,,245.5966,245.8469,246.4641,"[0.11838260642559312,-0.1229261954278488]",100.0,"[0.056445523603303634,0.1187659614052355]",100.0,"[-0.0006134409876659518,0.09763428892077786]",100.0,"[-0.1470799712627468,-0.08527761632786425]",100.0,"[-0.057555228939095954,0.11274037867443064]",100.0,"[0.08717578113886257,0.0875390692482786]",100.0,"[0.16449773204764206,0.027540593997867274]",100.0,"[-0.0016846510996447255,-0.08353398871799125]",100.0,"[0.1645625452066068,0.06918803673150589]",100.0,"[-0.07928685438579852,-0.1596757978549922]",100.0,"[0.10123532256884234,-0.02999906499995808]",100.0,"[0.08979375502810445,0.16947340850400086]",100.0,"[0.03360193860250606,-0.16440550862051306]",100.0,"[-0.11889618513245641,0.11880766435391689]",100.0,"[0.06303143377639134,-0.07602786714193956]",100.0,"[0.16489889756755177,-0.08825947724183802]",4.0,"[-0.015156441182052378,-0.1946325085590345]",100.0,"[0.1384038900068211,0.11116969198430711]",100.0,"[-0.03878438928804917,-0.11489143170862519]",100.0,"[-0.19912026156634594,-0.003432347885327417]",100.0,"[-0.16487549121608214,0.022046207669596724]",100.0,"[0.055699484275092116,0.05495971590191575]",4.0,"[-0.09165073084761502,0.004848049573514587]",100.0,"[0.12883333265004077,-0.06282541120456202]",100.0,"[0.0009022453823390775,-0.031175792781229634]",100.0,"[-0.025477174003674538,0.03728029556323568]",100.0,"[-0.04421156480778217,-0.07257891602830402]",100.0,"[0.08954658891174964,-0.15411263603243505]",100.0,"[-0.06219307350607422,0.15751439842043083]",100.0,"[0.028497738691502666,0.0038016708003052895]",100.0,"[-0.16416940982877548,-0.02342395160379155]",4.0,"[-0.16182285157645154,0.0792730195024699]",100.0,"[0.02,0.02]",247.5638,0.0,44.0,44.0,4.0,1.0,,,,,,,
,,,,,,,67c1d7dfe0aaba274972150e,683aef14190727d64367fe4f,2025-05-31_07h01.55.757,shape_ratio,2024.1.5,Win32,59.88023952,683ae9196541af24d3a69e58,,,,,,,,,,,247.5644,248.0638,,,248.3143,248.8975,left,0.5688,,,,,,,,,0.55,,,,,,248.0639,248.3142,248.8975,"[0.04228969254079769,0.033520896439443726]",100.0,"[0.07317667989928021,-0.06434237871109096]",4.0,"[0.15716061253318084,0.006000929772408964]",4.0,"[0.06350867799080114,0.07088499807281314]",4.0,"[-0.18115980476026375,-0.08016308176067521]",100.0,"[-0.001406418049821387,-0.05435895724758865]",100.0,"[-0.012366034845047141,0.04270829640315873]",100.0,"[-0.033325859379875346,0.1919771522752913]",4.0,"[0.04666012502543726,0.11474490470629399]",4.0,"[0.1559039086796264,0.10021115163419106]",4.0,"[0.09829403582463521,-0.1322697276988321]",100.0,"[-0.09720833577772953,0.1378060359498521]",4.0,"[-0.005056407819449498,0.12933212073482248]",100.0,"[0.15202631216833645,-0.04499261376643536]",100.0,"[0.01940398986356602,-0.12255986598801735]",100.0,"[-0.02384793797292332,-0.1461146832721583]",4.0,"[-0.1516808290507557,-0.0492700455380739]",100.0,"[-0.17624024650339706,-0.01019323459768373]",100.0,"[0.09998196834142267,0.1568475182342394]",4.0,"[0.06928456922394154,-0.02107024366163858]",4.0,"[-0.12894058082098675,0.08056809099551798]",100.0,"[0.11588233805228398,-0.06960382464956562]",4.0,"[-0.12404664042743628,-0.018669650259579874]",100.0,"[0.14615226928296426,0.053052965656991524]",100.0,"[-0.052839917402805414,-0.04496590432119943]",4.0,"[0.03777030895399532,0.17944624239408194]",100.0,"[-0.060821181374906594,0.06740715086832755]",4.0,"[-0.11252730042340822,-0.11756468837528355]",100.0,"[0.012627596403382743,0.0906903244940902]",100.0,"[-0.05991960331253945,-0.166800142982743]",4.0,"[0.11235816254519594,0.08348522198164438]",100.0,"[-0.0699754773979828,-0.10851349982243298]",100.0,"[0.02,0.02]",249.9972,0.0,45.0,45.0,72.0,1.0,,,,,,,
,,,,,,,67c1d7dfe0aaba274972150e,683aef14190727d64367fe4f,2025-05-31_07h01.55.757,shape_ratio,2024.1.5,Win32,59.88023952,683ae9196541af24d3a69e58,,,,,,,,,,,249.9977,250.497,,,250.7389,251.0639,right,0.3039,,,,,,,,,0.9,,,,,,250.497,250.7389,251.0639,"[-0.19368195792187348,-0.035892523506109074]",100.0,"[-0.04708282915315966,-0.1663896809419529]",4.0,"[-0.08241946922063205,0.09090623529399186]",100.0,"[-0.13632617724370297,-0.0918095732122196]",100.0,"[-0.03603516308490882,-0.06729128483083968]",100.0,"[-0.06623654697839282,0.18114822479824982]",100.0,"[0.13654082804184958,-0.016271790778213814]",4.0,"[-0.07824662789258686,0.0358359234358336]",100.0,"[0.07269840482544215,-0.17403052901172164]",100.0,"[-0.017801449446640742,0.014069145425521965]",100.0,"[0.0023335081384100284,-0.15236071365296616]",100.0,"[0.039564954662430284,-0.01860078344203209]",100.0,"[-0.160497908078674,-0.010567453948071662]",100.0,"[0.07626424590925607,-0.08132517865829643]",100.0,"[-0.17096999390218678,0.07524793542605156]",100.0,"[0.03347171224745869,0.172616644571542]",100.0,"[0.14316457303698674,0.08516016567053311]",100.0,"[-0.1014117679666892,-0.06699854730416578]",100.0,"[-0.08196248933856745,0.13634264087634151]",100.0,"[0.13443765370799432,-0.1359329842989662]",100.0,"[0.023108031141892995,-0.10922918581920443]",100.0,"[0.14582411495303707,0.02400645598602578]",100.0,"[0.05939832773896172,0.10600409228584429]",100.0,"[-0.1256408845463232,-0.0350815653791845]",100.0,"[0.00032158373004865555,0.12290889384786366]",4.0,"[0.042047907618099255,0.05075561953107356]",100.0,"[-0.05775349213336074,-0.009385589599025192]",100.0,"[-0.12064532806220178,0.11671984025489067]",100.0,"[-0.01580400756137033,0.19004203370303088]",100.0,"[0.009526912818464673,0.07978375754427336]",100.0,"[-0.07708725860298184,-0.11167306455045029]",100.0,"[-0.12326633317347052,0.1572871519520023]",100.0,"[0.02,0.02]",252.1638,0.0,46.0,46.0,25.0,1.0,,,,,,,
,,,,,,,67c1d7dfe0aaba274972150e,683aef14190727d64367fe4f,2025-05-31_07h01.55.757,shape_ratio,2024.1.5,Win32,59.88023952,683ae9196541af24d3a69e58,,,,,,,,,,,252.1644,252.6634,,,252.9022,253.3974,left,0.4868,,,,,,,,,0.55,,,,,,252.6634,252.9021,253.3974,"[0.0812366417502295,0.039797609301808465]",4.0,"[0.07728601550644204,0.17797619226032854]",4.0,"[0.17561403697629205,-0.02767710650320339]",4.0,"[-0.09132770352314552,0.07476580874867568]",100.0,"[-0.02402763481303546,0.07717423128754144]",100.0,"[0.03040397394900125,-0.003965201933054032]",100.0,"[-0.07773235020277111,0.014548625910879466]",100.0,"[0.09888809901882845,-0.08465877329764739]",100.0,"[-0.11247688410443889,-0.11171281602009388]",100.0,"[0.13713480147674287,0.024865542829299064]",4.0,"[0.007238752186888203,-0.1354036055099476]",4.0,"[-0.11447637903527898,0.1250786071763935]",100.0,"[0.020144958189914335,0.18645283601916626]",4.0,"[0.17486352188084436,0.05485660235385022]",4.0,"[0.011275334630520741,-0.061607112162104814]",100.0,"[-0.06404523838567515,-0.17979417330233752]",100.0,"[0.018214008117264455,-0.17560511053346184]",4.0,"[-0.06197816725679768,-0.10561092464093051]",100.0,"[-0.14683953637339994,-0.06061963088135849]",100.0,"[-0.14908974706257885,0.005253972871128084]",100.0,"[0.10652156862141411,-0.024464591824179704]",100.0,"[0.10577164844461469,0.10469192765660826]",4.0,"[0.063006710191683,0.09055114694622601]",100.0,"[-0.06961401609262692,0.13897767749651635]",4.0,"[-0.19100378093377213,0.0036703179837465163]",4.0,"[-0.13966074615330876,0.07049224997280344]",100.0,"[-0.0384268140825829,-0.043613032181641066]",4.0,"[-0.10614146757196981,-0.0673488013810043]",100.0,"[0.10463406429408699,0.14710819078429255]",100.0,"[0.12385480683053064,0.06512393859048247]",4.0,"[-0.05512455103057419,0.048839227795580635]",100.0,"[0.16907094825739888,-0.09242989220346788]",4.0,"[0.02,0.02]",254.4972,0.0,47.0,47.0,85.0,1.0,,,,,,,
,,,,,,,67c1d7dfe0aaba274972150e,683aef14190727d64367fe4f,2025-05-31_07h01.55.757,shape_ratio,2024.1.5,Win32,59.88023952,683ae9196541af24d3a69e58,,,,,,,,,,,254.4977,254.9971,,,255.2476,256.114,left,0.8508,,,,,,,,,0.4,,,,,,254.9972,255.2476,256.1141,"[0.10071818955412863,0.04345014938647709]",4.0,"[0.05972921000368935,-0.06806528428572772]",100.0,"[0.1559768912688508,-0.09542934695354921]",4.0,"[-0.0021492268182043556,-0.08704856630758227]",4.0,"[-0.1346283808754454,0.017174140500386566]",4.0,"[0.024056017575290193,0.1598153877940578]",4.0,"[0.00664437250231798,0.19783347345508967]",4.0,"[-0.15594286363257703,0.12112031002388048]",4.0,"[0.18321586943748158,-0.018503210741792765]",100.0,"[0.0878454806086407,-0.11484867306651418]",4.0,"[0.1438013977995029,-0.0560879509503412]",4.0,"[0.0021587533446021873,-0.17486175495421452]",100.0,"[-0.061638984782983776,0.12666843851606507]",4.0,"[-0.008204826869314862,-0.0451767707357436]",4.0,"[-0.15447127934902793,0.05266958609565194]",100.0,"[0.1566094689346897,0.036970677447761766]",100.0,"[-0.08514293676039136,-0.1298379174951108]",4.0,"[0.0486648450260526,0.10367903818166298]",4.0,"[-0.19806268672098704,-0.005596326582110497]",100.0,"[-0.025054583403919386,0.16794000122962496]",4.0,"[-0.10189865438480122,0.07087394227634448]",4.0,"[-0.09800559633130264,-0.031409267777316965]",100.0,"[0.16360060749488556,0.10823529533858077]",100.0,"[0.0017199301703609764,0.012032874187466484]",100.0,"[-0.049651715050946205,0.00742794707827086]",100.0,"[-0.05263963244941584,-0.15633178297657147]",100.0,"[-0.07106601129839867,0.16632831408699741]",100.0,"[-0.05874025834705122,0.04976112986649627]",4.0,"[0.13371024713860458,-0.002415125342483657]",4.0,"[0.07188200115022834,-0.009098134857724354]",100.0,"[0.021007860554653555,0.07304685367942547]",4.0,"[0.04430542638575632,-0.1511634692709559]",4.0,"[0.02,0.02]",257.2138,0.0,48.0,48.0,152.0,1.0,,,,,,,
,,,,,,,67c1d7dfe0aaba274972150e,683aef14190727d64367fe4f,2025-05-31_07h01.55.757,shape_ratio,2024.1.5,Win32,59.88023952,683ae9196541af24d3a69e58,,,,,,,,,,,257.2144,257.7138,,,257.964,258.6474,left,0.6548,,,,,,,,,0.5,,,,,,257.7139,257.964,258.6474,"[-0.0950564143676143,-0.1249269848549755]",100.0,"[-0.08465227354977849,0.16141258034479564]",4.0,"[-0.011046341362522147,-0.014042493112705405]",4.0,"[-0.02982127533157424,0.02152907054312354]",100.0,"[0.0824945917892842,0.10450307461833278]",4.0,"[-0.002905865356294981,-0.09058106858892821]",100.0,"[0.05024181487543584,0.012671085137497295]",100.0,"[0.130965305732532,0.019390226770941807]",4.0,"[0.14630678246116827,0.11719883681811628]",4.0,"[-0.142923707473358,0.04431878105857808]",4.0,"[0.08081195157187648,-0.09515085766997215]",100.0,"[0.07436258623036177,0.05899377702647982]",100.0,"[0.010837149615727234,0.12196169058726397]",4.0,"[-0.0718048049639295,-0.0377551998769655]",4.0,"[0.14778415580715892,-0.03749144663873403]",4.0,"[0.05842564641817895,0.16897804558189716]",4.0,"[0.14300529989389124,-0.10214438134926089]",100.0,"[-0.030678602974538033,0.1531815598854678]",100.0,"[0.013711993459401125,-0.16139953451035896]",100.0,"[0.1878275106972576,-0.007142118222439801]",100.0,"[0.10330321578162213,-0.03719095884830753]",4.0,"[-0.05862165623532847,0.08894578662276292]",4.0,"[-0.11057576384265547,-0.06456577182438157]",100.0,"[-0.1763585561969904,-0.07385785659331852]",100.0,"[-0.19319371967280669,0.028240354214321587]",4.0,"[-0.021609250287087826,-0.137411125065883]",100.0,"[-0.04910983384117922,-0.18757432302406268]",4.0,"[-0.125102558866736,0.10579791870267283]",100.0,"[-0.168603647377516,-0.02985377193168126]",100.0,"[0.18779056097989807,0.04627580580589042]",4.0,"[0.06443510812482156,-0.05211530320869596]",4.0,"[-0.17022756342751966,0.09505610198203145]",100.0,"[0.02,0.02]",259.747,0.0,49.0,49.0,106.0,1.0,,,,,,,
