right,left,explain.started,explain.stopped,key_resp_3.keys,key_resp_3.rt,key_resp_3.duration,participant,session,date,expName,psychopyVersion,OS,frameRate,study_id,explain_2.started,explain_2.stopped,key_resp_4.keys,key_resp_4.rt,key_resp_4.duration,explain_3.started,explain_3.stopped,key_resp_5.keys,key_resp_5.rt,key_resp_5.duration,fixation.started,fixation.stopped,practice.started,practice.stopped,response.started,response.stopped,key_resp.keys,key_resp.rt,key_resp.duration,feedback.started,feedback.stopped,trials_2.thisRepN,trials_2.thisTrialN,trials_2.thisN,trials_2.thisIndex,trials_2.ran,dot_ratio,explain_4.started,explain_4.stopped,key_resp_6.keys,key_resp_6.rt,key_resp_6.duration,dotDisplay.started,dotDisplay.stopped,ITI.started,polygon_1.pos,polygon_1.edges,polygon_2.pos,polygon_2.edges,polygon_3.pos,polygon_3.edges,polygon_4.pos,polygon_4.edges,polygon_5.pos,polygon_5.edges,polygon_6.pos,polygon_6.edges,polygon_7.pos,polygon_7.edges,polygon_8.pos,polygon_8.edges,polygon_9.pos,polygon_9.edges,polygon_10.pos,polygon_10.edges,polygon_11.pos,polygon_11.edges,polygon_12.pos,polygon_12.edges,polygon_13.pos,polygon_13.edges,polygon_14.pos,polygon_14.edges,polygon_15.pos,polygon_15.edges,polygon_16.pos,polygon_16.edges,polygon_17.pos,polygon_17.edges,polygon_18.pos,polygon_18.edges,polygon_19.pos,polygon_19.edges,polygon_20.pos,polygon_20.edges,polygon_21.pos,polygon_21.edges,polygon_22.pos,polygon_22.edges,polygon_23.pos,polygon_23.edges,polygon_24.pos,polygon_24.edges,polygon_25.pos,polygon_25.edges,polygon_26.pos,polygon_26.edges,polygon_27.pos,polygon_27.edges,polygon_28.pos,polygon_28.edges,polygon_29.pos,polygon_29.edges,polygon_30.pos,polygon_30.edges,polygon_31.pos,polygon_31.edges,polygon_32.pos,polygon_32.edges,dot_size,ITI.stopped,trials.thisRepN,trials.thisTrialN,trials.thisN,trials.thisIndex,trials.ran,break_2.started,break_2.stopped,trials_3.thisRepN,trials_3.thisTrialN,trials_3.thisN,trials_3.thisIndex,trials_3.ran
subject chose diamond,subject chose dot,0.0007,26.1446,space,11.1045,,5f8739ae0483431242e11d41,683c3946c3a07ca8d797577f,2025-06-01_13h46.23.818,shape_ratio,2024.1.5,Linux x86_64,30.03003003,683ae9196541af24d3a69e58,,,,,,,,,,,,,,,,,,,,,,,,,,,,,,,,,,,,,,,,,,,,,,,,,,,,,,,,,,,,,,,,,,,,,,,,,,,,,,,,,,,,,,,,,,,,,,,,,,,,,,,,,,,,,,,,,
,,,,,,,5f8739ae0483431242e11d41,683c3946c3a07ca8d797577f,2025-06-01_13h46.23.818,shape_ratio,2024.1.5,Linux x86_64,30.03003003,683ae9196541af24d3a69e58,26.145,56.4777,space,0.277,,,,,,,,,,,,,,,,,,,,,,,,,,,,,,,,,,,,,,,,,,,,,,,,,,,,,,,,,,,,,,,,,,,,,,,,,,,,,,,,,,,,,,,,,,,,,,,,,,,,,,,,,,,,,
,,,,,,,5f8739ae0483431242e11d41,683c3946c3a07ca8d797577f,2025-06-01_13h46.23.818,shape_ratio,2024.1.5,Linux x86_64,30.03003003,683ae9196541af24d3a69e58,,,,,,56.4781,61.1775,space,1.6591,,,,,,,,,,,,,,,,,,,,,,,,,,,,,,,,,,,,,,,,,,,,,,,,,,,,,,,,,,,,,,,,,,,,,,,,,,,,,,,,,,,,,,,,,,,,,,,,,,,,,,,,
,,,,,,,5f8739ae0483431242e11d41,683c3946c3a07ca8d797577f,2025-06-01_13h46.23.818,shape_ratio,2024.1.5,Linux x86_64,30.03003003,683ae9196541af24d3a69e58,,,,,,,,,,,61.2259,61.7108,61.7117,61.9452,61.9458,63.2771,right,1.2653,,63.2776,64.3768,0.0,0.0,0.0,0.0,1.0,0.2,,,,,,,,,,,,,,,,,,,,,,,,,,,,,,,,,,,,,,,,,,,,,,,,,,,,,,,,,,,,,,,,,,,,,,,,,,,,,,,,,,,,,,
,,,,,,,5f8739ae0483431242e11d41,683c3946c3a07ca8d797577f,2025-06-01_13h46.23.818,shape_ratio,2024.1.5,Linux x86_64,30.03003003,683ae9196541af24d3a69e58,,,,,,,,,,,64.3784,64.8766,64.8767,65.1105,65.1106,65.7436,left,0.5939,,65.7437,66.8435,0.0,1.0,1.0,1.0,1.0,0.8,,,,,,,,,,,,,,,,,,,,,,,,,,,,,,,,,,,,,,,,,,,,,,,,,,,,,,,,,,,,,,,,,,,,,,,,,,,,,,,,,,,,,,
,,,,,,,5f8739ae0483431242e11d41,683c3946c3a07ca8d797577f,2025-06-01_13h46.23.818,shape_ratio,2024.1.5,Linux x86_64,30.03003003,683ae9196541af24d3a69e58,,,,,,,,,,,,,,,,,,,,,,,,,,,,66.8448,70.7774,space,0.8908,,,,,,,,,,,,,,,,,,,,,,,,,,,,,,,,,,,,,,,,,,,,,,,,,,,,,,,,,,,,,,,,,,,,,,,,,,,,,,,,,,
,,,,,,,5f8739ae0483431242e11d41,683c3946c3a07ca8d797577f,2025-06-01_13h46.23.818,shape_ratio,2024.1.5,Linux x86_64,30.03003003,683ae9196541af24d3a69e58,,,,,,,,,,,70.8146,71.3101,,,71.5465,72.4771,left,0.8974,,,,,,,,,0.6,,,,,,71.3111,71.5464,72.4784,"[-0.03948842996691092,0.008927356192455766]",100.0,"[-0.082634541865988,-0.08483019968278334]",4.0,"[-0.1561498676367135,0.10870159019966757]",100.0,"[0.0664618843151248,0.04843589783863132]",4.0,"[-0.06627997781646555,-0.024544367772193553]",100.0,"[0.12119900277357065,0.06346633577910538]",4.0,"[-0.06534048405214558,0.15520924405149103]",100.0,"[-0.0907893564699985,0.11440154449473379]",4.0,"[-0.12360927248791914,0.05824779051517203]",100.0,"[-0.006665227638866306,0.04634339258276521]",100.0,"[-0.08624562563525028,-0.13832906371656462]",100.0,"[0.1713286028952455,0.04677029573024406]",100.0,"[-0.08011395042158843,0.014538547287183047]",100.0,"[0.08664662615117825,0.013585739907520582]",4.0,"[-0.14047760234469286,-0.10424081427932537]",4.0,"[0.10015770833369689,-0.1443548435731265]",4.0,"[0.07130046152755527,-0.08567880584200233]",100.0,"[0.16158444553732818,-0.10005085225897752]",4.0,"[-0.18169121578437097,0.05193860337522243]",100.0,"[0.17169641469484648,0.0954306430798746]",100.0,"[0.05902249848028901,0.16364900623790712]",100.0,"[0.009646690454723947,-0.12916204414517182]",4.0,"[0.03131054163586613,0.014323029438588214]",100.0,"[-0.004741705544098535,-0.06759886165349063]",100.0,"[-0.0027181983219000754,0.1644516977783659]",4.0,"[0.043988189634397025,-0.045274178596496434]",4.0,"[-0.11240052930721635,-0.013158083478412193]",4.0,"[0.12795668581045483,-0.048764455462387106]",100.0,"[-0.17956519996183162,-0.006622093374903432]",4.0,"[0.08373889255523291,0.08661514533807164]",100.0,"[0.19721035037339302,0.006061904836381237]",100.0,"[0.051947493660895516,-0.1367153693733843]",100.0,"[0.02,0.02]",73.5774,0.0,0.0,0.0,31.0,1.0,,,,,,,
,,,,,,,5f8739ae0483431242e11d41,683c3946c3a07ca8d797577f,2025-06-01_13h46.23.818,shape_ratio,2024.1.5,Linux x86_64,30.03003003,683ae9196541af24d3a69e58,,,,,,,,,,,73.5785,74.0765,,,74.3109,75.5433,right,1.1952,,,,,,,,,0.55,,,,,,74.0767,74.3108,75.5435,"[-0.1573776907355595,0.09144973123882097]",100.0,"[-0.14861404616810953,0.039454031675703494]",4.0,"[0.09289190386303964,0.15996607235093036]",100.0,"[0.05259399114618743,0.03032858191034131]",4.0,"[0.04681970369677851,0.16353885844430627]",100.0,"[0.16642869004894295,-0.06629924189715565]",4.0,"[0.006799075617916513,0.12577594433846345]",4.0,"[-0.1154182561142267,-0.09018395370734208]",100.0,"[0.1003370799557382,0.06144484787610272]",100.0,"[-0.09062553480689572,-0.04087919818529134]",100.0,"[0.0025238853977219895,-0.1716358604743107]",100.0,"[0.11204596721082682,-0.07972014720067047]",4.0,"[-0.023561356211368543,0.18573742175890062]",100.0,"[0.12390223722497534,-0.024439060781289112]",100.0,"[-0.1630001475218946,-0.09997893122948388]",100.0,"[0.042959217578209835,-0.02314208088639647]",100.0,"[-0.07930847353728282,-0.14550396811416266]",4.0,"[0.05772061815860772,0.11413027420504851]",100.0,"[0.06319302154740701,-0.09237298376783006]",4.0,"[0.15914819989242168,0.11065551003837804]",100.0,"[-0.1273237070527158,-0.1361849697973456]",4.0,"[-0.016608828536109385,0.06721278845637944]",4.0,"[-0.1532184042123746,-0.020307577798513766]",4.0,"[-0.07636250149847493,-0.10491535275480683]",100.0,"[0.11251150959413435,-0.15989464037450415]",4.0,"[-0.08508381905635144,0.1334962776662303]",4.0,"[-0.07185692968691251,0.01610626131590823]",100.0,"[-0.01979420589634184,-0.0998428894179138]",4.0,"[0.1305216826091792,0.14215403437797983]",100.0,"[-0.10779822750394522,0.05408123667922958]",100.0,"[0.1385441479716476,0.014152241626415735]",100.0,"[-0.0010324854682842296,-0.06139639710130889]",4.0,"[0.02,0.02]",76.6434,0.0,1.0,1.0,68.0,1.0,,,,,,,
,,,,,,,5f8739ae0483431242e11d41,683c3946c3a07ca8d797577f,2025-06-01_13h46.23.818,shape_ratio,2024.1.5,Linux x86_64,30.03003003,683ae9196541af24d3a69e58,,,,,,,,,,,76.6443,77.1431,,,77.3778,77.9435,left,0.5486,,,,,,,,,0.5,,,,,,77.1432,77.3778,77.9438,"[0.020547497794695887,-0.1271945108446554]",4.0,"[0.019586713272872664,0.0974088804551034]",100.0,"[-0.05575132118229139,-0.1782801303847989]",4.0,"[0.11341180736149965,-0.09511598567147118]",4.0,"[0.031071353950729245,-0.021004637792520403]",100.0,"[-0.09535972319314816,0.03765686100377655]",100.0,"[-0.1090826380119589,0.16665263411033118]",100.0,"[0.0839231971845204,0.056080420970727525]",100.0,"[-0.11420104288263548,0.11405984335387559]",100.0,"[0.05096738385853595,-0.08445798408679916]",100.0,"[-0.03851788887599074,0.06407558036735692]",100.0,"[0.04707649429483936,0.19223924817922877]",4.0,"[-0.0893895594035029,-0.1126766170084754]",4.0,"[-0.04974710672968789,0.12454305042733996]",4.0,"[0.1343101521191885,-0.038254725370993885]",4.0,"[0.08986041685036586,-0.018219189073136532]",100.0,"[0.15947236762755274,0.012383429916282005]",4.0,"[-0.002943404376905961,0.1780544421298119]",4.0,"[0.07457141554140617,0.16198423354971628]",4.0,"[0.007791689378762408,-0.06265519090462673]",4.0,"[0.005624600095436719,-0.18117158404395908]",100.0,"[-0.12437719870693002,-0.06681820905216475]",4.0,"[0.05551582197169149,0.12035612641562261]",100.0,"[-0.06636114995038259,0.18463671475881743]",100.0,"[-0.19469467627860915,0.02308959886498829]",4.0,"[0.17870892660603488,-0.034666667389963796]",100.0,"[0.16774801364227837,-0.09923007238620153]",100.0,"[0.10595888949357354,0.09315625197213312]",4.0,"[-0.16511706404394424,-0.10566202865738128]",100.0,"[-0.11738842939892295,-0.009319678307437537]",4.0,"[-0.0828960520559072,-0.0429786589739153]",100.0,"[0.07945112399398396,-0.1528277234206102]",4.0,"[0.02,0.02]",79.0431,0.0,2.0,2.0,95.0,1.0,,,,,,,
,,,,,,,5f8739ae0483431242e11d41,683c3946c3a07ca8d797577f,2025-06-01_13h46.23.818,shape_ratio,2024.1.5,Linux x86_64,30.03003003,683ae9196541af24d3a69e58,,,,,,,,,,,79.0441,79.5425,,,79.7778,80.382,left,0.5629,,,,,,,,,0.5,,,,,,79.5426,79.7777,80.3821,"[-0.17139204678223655,0.0963620969429176]",100.0,"[-0.15563243123191642,-0.049155795815539666]",100.0,"[-0.0574067933306835,-0.12202693581637002]",4.0,"[0.08799584996433095,-0.17359102099705864]",100.0,"[-0.12237790707918175,0.03528990648519296]",100.0,"[-0.11794256155762675,-0.009392517014572463]",4.0,"[0.02256052572579345,0.16779333210981137]",100.0,"[0.05770464626343748,-0.00415540362471427]",4.0,"[0.06688552183023919,0.0644369815078712]",4.0,"[0.060836930913185906,-0.1010455020736289]",4.0,"[0.1469070850175627,0.05022210891525446]",100.0,"[0.10568666526220781,-0.11737810428161939]",100.0,"[-0.19197729795796853,0.03580581297872315]",4.0,"[-0.08730494002046611,0.12289191803510861]",100.0,"[0.08632817237615124,0.0252959926635444]",4.0,"[0.009646378972212835,-0.17527356481340553]",4.0,"[-0.040104701865588954,-0.18600002008684866]",4.0,"[-0.08188744651021995,-0.172850957709822]",4.0,"[-0.07476943400809673,0.080880715436226]",4.0,"[-0.08859260431600713,-0.04639454186077451]",100.0,"[-0.03550673044002498,0.015188702799324124]",100.0,"[0.11701250198892564,0.1401117028155641]",4.0,"[-0.07239797651353132,0.17501228815410638]",100.0,"[-0.05209286162062318,-0.07319811550756815]",4.0,"[-0.006951374309313667,-0.08096559991722763]",100.0,"[0.13835840639270391,-0.08770623544899674]",4.0,"[0.025055692712633137,-0.12726257225050772]",100.0,"[-0.15790471033049422,0.0009470960148933865]",100.0,"[-0.12404090041617423,-0.11550864145401085]",4.0,"[-0.016906838936525066,0.09643945602758844]",100.0,"[0.1892181961260409,0.0012278486535577035]",4.0,"[0.16718886070579694,-0.056918432431112886]",100.0,"[0.02,0.02]",81.4763,0.0,3.0,3.0,93.0,1.0,,,,,,,
,,,,,,,5f8739ae0483431242e11d41,683c3946c3a07ca8d797577f,2025-06-01_13h46.23.818,shape_ratio,2024.1.5,Linux x86_64,30.03003003,683ae9196541af24d3a69e58,,,,,,,,,,,81.4773,81.9758,,,82.2107,82.776,left,0.5325,,,,,,,,,0.6,,,,,,81.9758,82.2106,82.7762,"[0.07989409672048711,0.08556959142860923]",4.0,"[-0.002589971305494424,0.1958272240339386]",100.0,"[-0.11713841063260845,-0.05136886765927484]",100.0,"[0.10278741685038231,-0.1611958019250863]",4.0,"[0.007668863236710347,-0.12311978006599121]",4.0,"[0.15507979989630738,0.04904887579088399]",4.0,"[-0.1723321955043366,-0.05149904622603139]",4.0,"[-0.17831453668947217,0.08796914862222573]",100.0,"[-0.033792693009837685,-0.04730340015782878]",4.0,"[-0.01805929048893683,0.05487662432710864]",4.0,"[-0.06678118359611858,0.1874598677949062]",100.0,"[0.06175386277356473,-0.10725890090518905]",100.0,"[0.08820350707937845,0.012956836574088184]",100.0,"[0.15454749258158773,0.11009729206241385]",100.0,"[0.01867119302412869,0.09630167037462857]",100.0,"[-0.09839191403738885,-0.012850228916677309]",100.0,"[0.13189453706434462,0.1467718244433538]",4.0,"[0.11021857645916827,-0.04351122854189234]",100.0,"[-0.027855555554527314,-0.16686379835525383]",4.0,"[-0.053910155524771304,-0.08860984537924715]",4.0,"[-0.12885642441480386,-0.14014987706839122]",100.0,"[0.007537082616012667,-0.039541793821332646]",4.0,"[0.0301476467519535,0.17176874340652107]",100.0,"[0.14460545334549926,0.008546474068462444]",100.0,"[0.05651564335446466,-0.02610402969086751]",4.0,"[-0.14940936026716173,0.056497011782930956]",100.0,"[-0.10617532411909192,0.11594743917717625]",4.0,"[0.04907350543815644,0.03105056914498537]",100.0,"[0.1373195350387253,-0.10255829053342129]",100.0,"[-0.17812913760480295,-0.00979231903263535]",100.0,"[-0.010328789840454329,-0.08697845200883657]",100.0,"[0.012919195695530088,-0.19265301701042997]",100.0,"[0.02,0.02]",83.8784,0.0,4.0,4.0,55.0,1.0,,,,,,,
,,,,,,,5f8739ae0483431242e11d41,683c3946c3a07ca8d797577f,2025-06-01_13h46.23.818,shape_ratio,2024.1.5,Linux x86_64,30.03003003,683ae9196541af24d3a69e58,,,,,,,,,,,83.8793,84.3765,,,84.6112,85.1773,left,0.5303,,,,,,,,,0.5,,,,,,84.3766,84.611,85.1775,"[0.14031865096867352,0.012858856509079657]",100.0,"[0.08613779104532536,-0.00825309763439907]",100.0,"[-0.07142550398554937,-0.18164275349616235]",4.0,"[0.11528899796903147,0.13018372252291482]",100.0,"[0.1338658266026376,-0.09120775884109107]",100.0,"[0.06340401447483544,-0.13840565321423884]",100.0,"[-0.08921916220908337,0.13848642010708823]",100.0,"[-0.0989845435040727,-0.08060255040663683]",4.0,"[-0.01908343783718514,0.021756574877155266]",100.0,"[0.1562254452746536,-0.03636297583026839]",4.0,"[0.01664655236748896,0.04390822338266735]",100.0,"[0.07617831402376203,0.047017520190871825]",4.0,"[0.12158995327722946,-0.15760903975019405]",4.0,"[-0.06387241902634869,-0.10621151222063442]",100.0,"[-0.16485472834524342,0.018434257197288504]",100.0,"[-0.023554711558279054,0.09486143568588763]",100.0,"[-0.08741713215838491,0.09411922694878928]",4.0,"[-0.020092135647864558,-0.0192909577418466]",4.0,"[-0.0011834545079591708,-0.19781753728764503]",4.0,"[-0.0460102657288186,-0.05358676621620213]",100.0,"[0.01905780382669437,-0.06348912605655763]",100.0,"[0.05467143554081102,0.08835883611501451]",4.0,"[0.019618696401335522,-0.11835188586266648]",4.0,"[-0.09716356822132746,0.006925676685430595]",4.0,"[-0.041024246133299615,-0.1550205932077029]",100.0,"[0.008547152005564084,0.18951600561443704]",100.0,"[-0.17233282845446748,-0.06323297508310192]",4.0,"[-0.059027564095727215,0.1807521291698669]",4.0,"[-0.058096452644990006,0.055760090646673956]",4.0,"[-0.12509747263819693,-0.12191220389891787]",4.0,"[0.06910643908096321,0.1483750596989259]",4.0,"[0.17436602227026218,0.04438453296928839]",100.0,"[0.02,0.02]",86.2765,0.0,5.0,5.0,109.0,1.0,,,,,,,
,,,,,,,5f8739ae0483431242e11d41,683c3946c3a07ca8d797577f,2025-06-01_13h46.23.818,shape_ratio,2024.1.5,Linux x86_64,30.03003003,683ae9196541af24d3a69e58,,,,,,,,,,,86.2774,86.777,,,87.0113,87.5768,left,0.5311,,,,,,,,,0.9,,,,,,86.7771,87.0112,87.577,"[-0.07076842746957977,-0.028411218777698373]",100.0,"[0.010676652071174046,0.15753226788752406]",100.0,"[0.08513946370354086,-0.07377550006866766]",100.0,"[-0.07414268689391122,-0.16814755912210638]",100.0,"[-0.0500824759299172,0.18012518061353286]",100.0,"[-0.12475626456439826,0.021629008910894854]",100.0,"[0.07075624122320438,-0.12998666514444218]",100.0,"[-0.14064936899527203,-0.07712731338607298]",100.0,"[0.07457400697365221,0.0369477383229988]",100.0,"[-0.17678142229762245,0.0921237828294583]",100.0,"[-0.049172217228962894,-0.06426936012292604]",100.0,"[0.03281522703978689,0.11555332917613284]",100.0,"[0.04555283244126267,-0.17192283517036488]",4.0,"[0.17940587894022755,0.031322468753419055]",100.0,"[-0.14464554134898572,-0.03453057873236412]",100.0,"[0.12855713566556773,-0.15022058748392117]",100.0,"[-0.13284999566104277,-0.12250488962825686]",4.0,"[-0.02541961528554056,0.026289697865695703]",100.0,"[0.0133236510003384,-0.09575953096328699]",100.0,"[-0.062368311979164884,0.08647908285067965]",100.0,"[-0.030962562042180265,0.14474950601886089]",100.0,"[0.04789223839144446,-0.03884289680082337]",100.0,"[0.01144483466893099,0.007913832488229793]",100.0,"[-0.05885828733558351,-0.12745909227403293]",100.0,"[-0.10683733088363281,0.15634329137650918]",100.0,"[0.09711818666990635,-0.008165666250234443]",100.0,"[-0.010569577544035005,0.07281772675778017]",100.0,"[-0.12009856957774179,0.07630541123570322]",100.0,"[0.05225771006172818,0.15833252111418383]",100.0,"[-0.02659683762390748,-0.1918297140686258]",4.0,"[0.08125613306869087,0.08568180478813874]",100.0,"[0.013806516781172833,-0.14139102547949486]",100.0,"[0.02,0.02]",88.6764,0.0,6.0,6.0,18.0,1.0,,,,,,,
,,,,,,,5f8739ae0483431242e11d41,683c3946c3a07ca8d797577f,2025-06-01_13h46.23.818,shape_ratio,2024.1.5,Linux x86_64,30.03003003,683ae9196541af24d3a69e58,,,,,,,,,,,88.6774,89.1771,,,89.4109,89.9439,left,0.5114,,,,,,,,,0.9,,,,,,89.1772,89.4108,89.9441,"[0.009902368798283035,-0.0222574224251883]",100.0,"[-0.09477626280533802,-0.03129625750001587]",100.0,"[0.08508744265032865,-0.15240033084966256]",100.0,"[0.07331179312174195,-0.08070283347343242]",4.0,"[0.13530364527536218,0.12510947393201083]",100.0,"[0.022987194478639967,-0.1091365436568158]",100.0,"[-0.0628760982825358,-0.18397039995742964]",100.0,"[0.015249421135156054,0.05639794919101442]",100.0,"[0.026982263083260988,0.13298446741471626]",100.0,"[-0.12231573716374673,0.04495628152554686]",100.0,"[-0.18892280683763413,0.025161349613552514]",100.0,"[0.002119313498512837,0.18294643269660107]",100.0,"[-0.07319639961996145,-0.1446934534704323]",100.0,"[-0.17119460805546108,-0.049834689328130774]",100.0,"[-0.04641608931889627,-0.054444071483912615]",100.0,"[-0.13213521126260455,0.09773799701074398]",100.0,"[0.17587683955575287,0.024981262046329087]",100.0,"[0.08792494281142077,0.14609783745888294]",4.0,"[-0.021239009046798013,-0.14579460833296487]",100.0,"[-0.0994306791596509,0.14126701052762022]",100.0,"[-0.17583460329017706,0.09437709707173113]",100.0,"[-0.0903520683260407,0.09384927518401354]",100.0,"[-0.1526543722390898,0.002745614371608181]",100.0,"[0.16750792631650457,-0.09777352125028232]",100.0,"[-0.15113472258898042,-0.10405835413480578]",100.0,"[0.08649373152528185,0.10149544147191202]",100.0,"[0.057354367476946375,-0.010126912224360317]",100.0,"[0.15392239036169855,0.07564071855399575]",100.0,"[-0.061413185804097964,0.03133922537786825]",100.0,"[0.1140685417323784,-0.029222163245245448]",100.0,"[0.16768074747782083,-0.031596785791618114]",100.0,"[-0.12814461525577361,-0.05979188610901312]",4.0,"[0.02,0.02]",91.0436,0.0,7.0,7.0,28.0,1.0,,,,,,,
,,,,,,,5f8739ae0483431242e11d41,683c3946c3a07ca8d797577f,2025-06-01_13h46.23.818,shape_ratio,2024.1.5,Linux x86_64,30.03003003,683ae9196541af24d3a69e58,,,,,,,,,,,91.0447,91.544,,,91.7773,92.3101,left,0.4976,,,,,,,,,0.55,,,,,,91.544,91.7772,92.3102,"[0.11188632913286266,-0.1472104257099826]",100.0,"[-0.14324922330234935,-0.05157268906734075]",100.0,"[-0.04821468034433547,0.01267529828826448]",100.0,"[-0.15688362669491776,0.07593817950963407]",4.0,"[-0.11893983947523924,0.03945873458514398]",4.0,"[0.07674947838829942,0.10901562540957]",4.0,"[0.11261864159903276,-0.037452214979124425]",100.0,"[0.044102074433390544,-0.13143543110411957]",100.0,"[0.024623548760429135,-0.030074272871284204]",4.0,"[0.059664433743336055,0.17164276344662752]",100.0,"[0.18218348302668286,-0.07468686958278302]",100.0,"[-0.04373119483287469,0.15100415747709037]",100.0,"[0.1226066392093076,0.10950693562815692]",4.0,"[-0.11879471233045306,0.11538534737843684]",4.0,"[0.18449734411191268,-0.022001691433108983]",100.0,"[0.09130226172400152,0.04920437918275248]",4.0,"[0.004002781674966064,-0.08268509614410369]",4.0,"[-0.1379816112827831,-0.1097765543125371]",4.0,"[-0.0913110618734439,-0.034056083237717485]",4.0,"[0.12958568342015842,-0.07453646038817059]",100.0,"[-0.003471600544805437,0.002642177725494485]",100.0,"[-0.07443846945258104,-0.1351071145748576]",100.0,"[-0.07748514405685726,0.06894327367129294]",4.0,"[0.14406321674515762,0.068381980783325]",100.0,"[0.002220255877039867,0.1634278288234487]",100.0,"[-0.05708835242417473,-0.08408896833190638]",4.0,"[0.02835982570615408,-0.19690433393275383]",100.0,"[-0.03661743642538669,0.08888407257642551]",100.0,"[-0.18475865168573946,-0.03649926850383709]",4.0,"[0.002336713877813311,0.10167579538586281]",4.0,"[-0.046797966770655036,-0.16600372923628892]",100.0,"[0.12203086879169552,0.014190310651494821]",100.0,"[0.02,0.02]",93.4107,0.0,8.0,8.0,83.0,1.0,,,,,,,
,,,,,,,5f8739ae0483431242e11d41,683c3946c3a07ca8d797577f,2025-06-01_13h46.23.818,shape_ratio,2024.1.5,Linux x86_64,30.03003003,683ae9196541af24d3a69e58,,,,,,,,,,,93.4116,93.9108,,,94.1447,94.9107,right,0.7277,,,,,,,,,0.4,,,,,,93.9109,94.1446,94.9108,"[-0.036524125243673,0.030529829948981572]",4.0,"[0.11733461107316143,0.11671557027400184]",4.0,"[0.046079030367968316,0.03960386481233855]",100.0,"[-0.016063347778909585,0.13479312237432012]",4.0,"[0.12704496719042,-0.14580249311468918]",4.0,"[0.12624727661664759,-0.08953276038043594]",100.0,"[-0.15760396197150886,0.1143635129596229]",4.0,"[-0.010783591820971461,-0.15876660332706527]",4.0,"[-0.11838995594835787,-0.13707795770105516]",4.0,"[0.02527632776733282,0.07384264980472889]",4.0,"[0.18837734204336748,-0.04859733004457571]",100.0,"[-0.08722689613489171,0.06453262933385744]",100.0,"[-0.11538368987258617,-0.040167118915236076]",100.0,"[-0.033107654811880945,-0.09340747418744615]",100.0,"[0.03795621302093094,-0.0675248592576977]",4.0,"[-0.055635930861028665,0.1719251812626137]",100.0,"[0.1287701846179471,0.016441025206452395]",4.0,"[-0.05679399943359554,-0.05326606571218656]",100.0,"[-0.17734980572032796,0.04328524321741419]",100.0,"[-0.14417138261272291,-0.009516961544814512]",4.0,"[0.007840729420336215,-0.009163331484061578]",4.0,"[-0.10326367548888016,0.14794886066421534]",4.0,"[0.0359375244030914,-0.11402237703498308]",4.0,"[0.10970373161518973,0.055847242694061085]",100.0,"[0.11318632597023924,-0.03729833198306705]",4.0,"[-0.09279033182091197,-0.08271308256880297]",4.0,"[-0.0448234254250706,0.0918741793376411]",100.0,"[0.08610294365046135,-0.14164535629592426]",4.0,"[-0.09925944128985098,0.0040373444364344676]",4.0,"[-0.07559685979924216,-0.16836134766524635]",4.0,"[-0.17183586104713783,-0.08293213606658285]",100.0,"[0.06344391081079905,0.1785923106711603]",100.0,"[0.02,0.02]",96.0104,0.0,9.0,9.0,159.0,1.0,,,,,,,
,,,,,,,5f8739ae0483431242e11d41,683c3946c3a07ca8d797577f,2025-06-01_13h46.23.818,shape_ratio,2024.1.5,Linux x86_64,30.03003003,683ae9196541af24d3a69e58,,,,,,,,,,,96.0112,96.5097,,,96.745,97.4437,right,0.6789,,,,,,,,,0.4,,,,,,96.5099,96.7449,97.4438,"[0.05571391412990154,-0.1409779600269343]",4.0,"[-0.12187256180821732,-0.1347213043271236]",4.0,"[0.09537358553819988,0.13222563742713436]",4.0,"[0.030779422099399836,0.07985021852388786]",100.0,"[-0.18396105731441173,-0.049661311650853565]",4.0,"[0.1214260709458582,-0.08544241220748319]",4.0,"[0.025341952513700205,-0.0791772135277867]",100.0,"[-0.12394708053390427,0.0937641111567525]",4.0,"[-0.13784773094929242,0.14222687278629156]",100.0,"[-0.03298585083876175,-0.1732505598668144]",4.0,"[-0.03266680724618101,-0.009440862941523031]",100.0,"[0.011905180630118787,0.19548167743326997]",100.0,"[-0.17552122378272686,0.042659854020083876]",100.0,"[-0.08248619589002884,-0.04008301951377869]",4.0,"[0.0010780023366616604,0.012654342435471966]",100.0,"[-0.06036943485281286,0.1660563843414458]",4.0,"[0.15052750963137995,0.03030199073129975]",100.0,"[0.09738075529957417,-0.16066298977596985]",4.0,"[0.16611203653215775,-0.07268671591639765]",100.0,"[0.0746052799594928,0.08503283322734632]",100.0,"[-0.13780184298117903,-0.02952424234607719]",100.0,"[0.07276578037192268,-0.07062255090437987]",4.0,"[-0.07462827152894677,-0.15462493717697384]",4.0,"[0.07035612993333666,0.022787003268622298]",4.0,"[-0.07940626034595291,0.0941082157987216]",4.0,"[0.10514754915131101,-0.0278164124135337]",4.0,"[0.042396160828377216,-0.19361705459846115]",4.0,"[0.01571317079547627,-0.03246499507652634]",4.0,"[-0.16726597200332172,0.09135374945956216]",100.0,"[-0.06976336579613704,0.05314862081394637]",4.0,"[-0.029660924928529706,-0.0539542452263592]",100.0,"[-0.023251427679607535,0.045866612437519945]",4.0,"[0.02,0.02]",98.5436,0.0,10.0,10.0,158.0,1.0,,,,,,,
,,,,,,,5f8739ae0483431242e11d41,683c3946c3a07ca8d797577f,2025-06-01_13h46.23.818,shape_ratio,2024.1.5,Linux x86_64,30.03003003,683ae9196541af24d3a69e58,,,,,,,,,,,98.5445,99.0435,,,99.278,99.944,right,0.6336,,,,,,,,,0.4,,,,,,99.0435,99.2778,99.9441,"[-0.08423733907433201,0.07803711060504274]",100.0,"[0.19567268438536484,-0.028282259911834175]",100.0,"[-0.03858184164054637,0.1179708930958937]",100.0,"[0.016593312031734326,-0.012726750813594128]",4.0,"[0.12680337536423722,0.08964693905853145]",4.0,"[0.06126192117208818,-0.041438405347563115]",100.0,"[-0.03791617371237164,0.028832081358346816]",4.0,"[0.1756107159622884,0.04952792806562461]",4.0,"[-0.17410391515800225,-0.06108055147238085]",100.0,"[0.14090441077563723,-0.03854057970613164]",4.0,"[-0.07574588262288681,-0.12077944196359076]",4.0,"[-0.04307467879646391,0.16398870549617112]",100.0,"[-0.18870590839743973,-0.00025514793071729886]",4.0,"[-0.1030701112055979,-0.15478833328016584]",4.0,"[0.053937118216244945,0.12484256145866235]",100.0,"[0.08967540973764024,-0.15961837578377547]",4.0,"[0.03478207197747011,-0.14842601059887486]",4.0,"[0.0002479977526124647,0.07888574854978653]",100.0,"[-0.11745724378879949,-0.03229776288378429]",4.0,"[0.14319860352097147,0.13109695590485673]",4.0,"[-0.12344738906532873,0.14974309373135775]",4.0,"[0.05603905864211808,0.05441381094640645]",4.0,"[-0.03457361615425843,-0.10182446115907208]",100.0,"[-0.009234074916481186,0.18889285866728406]",4.0,"[0.09344520597775312,-0.0760785587079608]",100.0,"[-0.15949790418111598,0.08301441749951474]",100.0,"[0.10921033697704809,-0.11694271784761195]",4.0,"[-0.06233796826947594,-0.02165109468982683]",100.0,"[-0.13918267438434104,0.005063106435708552]",100.0,"[0.04906934122835204,-0.08670391732799074]",4.0,"[0.016116291240645165,0.15695384669920784]",4.0,"[0.1456439916822254,0.0025967922376675446]",4.0,"[0.02,0.02]",101.0438,0.0,11.0,11.0,157.0,1.0,,,,,,,
,,,,,,,5f8739ae0483431242e11d41,683c3946c3a07ca8d797577f,2025-06-01_13h46.23.818,shape_ratio,2024.1.5,Linux x86_64,30.03003003,683ae9196541af24d3a69e58,,,,,,,,,,,101.0448,101.544,,,101.7778,102.9769,left,1.164,,,,,,,,,0.55,,,,,,101.5441,101.7778,102.977,"[-0.06734343781420307,-0.048930362435155306]",100.0,"[0.021308313417406563,-0.1436505716121904]",100.0,"[-0.01184816201456952,0.14052594067911306]",100.0,"[-0.1523917263910041,0.049036106630680226]",4.0,"[0.11274910876184598,-0.07339571157791687]",100.0,"[-0.14458056469301017,-0.08111408891866115]",4.0,"[-0.009091506256749787,0.074430047991165]",100.0,"[-0.07663249201525194,-0.1456475631612398]",100.0,"[0.12369410833516344,-0.018489566156625108]",4.0,"[0.13637385877022237,0.1443109741679779]",100.0,"[0.07810599886192598,0.013163139939367937]",100.0,"[0.15113539503387194,-0.11143090749340549]",100.0,"[-0.08196215608543599,0.11504338856905225]",4.0,"[-0.027435214887762058,-0.019592371876038916]",100.0,"[-0.13023102649912674,-0.14741683037026343]",100.0,"[-0.08107228642907743,0.17606252281565443]",100.0,"[0.03588826737295958,-0.18816102658926948]",4.0,"[0.18165597000022768,-0.00493037154638918]",4.0,"[-0.026653550012666043,-0.18361757644144377]",4.0,"[0.09664537008738827,-0.16711067190186513]",100.0,"[-0.10391465225827216,-0.002018730954803062]",100.0,"[0.13518835105947066,0.08562154444212212]",100.0,"[-0.14166830897379118,0.12195731641464432]",100.0,"[-0.08108713956427355,-0.09975885493408433]",4.0,"[-0.0037916789945656895,-0.10072820860420836]",4.0,"[0.02987172991043539,-0.07181956217156055]",4.0,"[-0.037700068938662665,-0.12673035578634662]",100.0,"[0.053541896751499354,0.1114526716468447]",100.0,"[0.16029560351831942,-0.04804933934677545]",4.0,"[0.04395119488168753,0.06452886806349648]",4.0,"[0.06318264046258361,0.15415890342272975]",4.0,"[0.045810569998384204,-0.03449282039522642]",4.0,"[0.02,0.02]",104.077,0.0,12.0,12.0,73.0,1.0,,,,,,,
,,,,,,,5f8739ae0483431242e11d41,683c3946c3a07ca8d797577f,2025-06-01_13h46.23.818,shape_ratio,2024.1.5,Linux x86_64,30.03003003,683ae9196541af24d3a69e58,,,,,,,,,,,104.078,104.5761,,,104.8104,105.4774,right,0.636,,,,,,,,,0.5,,,,,,104.5761,104.8102,105.4775,"[-0.083026972228819,-0.1303777978437645]",100.0,"[0.1693960078264317,-0.06620447932574443]",4.0,"[0.03853891270684758,0.1295816436095062]",100.0,"[0.031567470335829566,0.19627856115122194]",4.0,"[-0.02379480418722615,0.1257152779937038]",100.0,"[-0.005856156450942103,-0.18007028003403677]",4.0,"[0.1386654440075833,0.02459193998436926]",4.0,"[0.07805148478627785,-0.10719954018274003]",4.0,"[-0.10084427263060139,0.13214892059271552]",4.0,"[-0.13317818040119522,-0.12375012569710137]",100.0,"[-0.010612794020414634,-0.09621522123306614]",100.0,"[0.04578717341769505,0.01913298590569383]",100.0,"[-0.011364624790851596,-0.011226522562173442]",100.0,"[0.11805719237610768,-0.13190134370565937]",4.0,"[-0.07840981383627908,-0.17989787275802244]",4.0,"[0.09518719382666486,0.15567863695766376]",4.0,"[0.10131793218508546,0.08410407249004821]",100.0,"[0.044734606131869366,-0.08453867012347807]",100.0,"[0.010366020300792306,0.057823726574160135]",100.0,"[0.06256454301364492,-0.17771217024287048]",100.0,"[-0.1693801814296914,-0.08610706508076174]",4.0,"[0.05982065336296725,0.07309501555378636]",4.0,"[-0.05484119926802634,-0.02370409960970525]",100.0,"[-0.11851206146068233,-0.04854798299542029]",100.0,"[0.17789872291916703,0.08307791522337211]",100.0,"[-0.04170700930483227,0.08457465631758161]",4.0,"[-0.170175627594997,0.10198451398599277]",100.0,"[-0.0074101063592367155,0.16828035137667055]",4.0,"[0.14233246251255258,-0.03317822789062387]",4.0,"[0.08990052394407716,-0.011237460926502364]",4.0,"[-0.04688403330417927,0.04419904812400225]",4.0,"[-0.10889064048350547,0.0164258857285882]",100.0,"[0.02,0.02]",106.5768,0.0,13.0,13.0,105.0,1.0,,,,,,,
,,,,,,,5f8739ae0483431242e11d41,683c3946c3a07ca8d797577f,2025-06-01_13h46.23.818,shape_ratio,2024.1.5,Linux x86_64,30.03003003,683ae9196541af24d3a69e58,,,,,,,,,,,106.5776,107.0766,,,107.3095,108.143,right,0.7989,,,,,,,,,0.5,,,,,,107.0767,107.3095,108.1432,"[0.165593410053348,-0.007541581023233649]",4.0,"[-0.04178043788357706,-0.09416263487135675]",4.0,"[-0.11602289747703332,0.15074109977260816]",4.0,"[-0.11442833846529409,0.07371156717792285]",100.0,"[0.017272051656755764,-0.18394956142455887]",4.0,"[0.1316127346051123,0.042163174449161074]",100.0,"[-0.17701484571699705,-0.05483031002380714]",100.0,"[-0.009919685053885246,-0.06382713044176189]",100.0,"[0.1300524008726451,-0.10780422095889623]",100.0,"[0.0226860049262565,0.12107495102071457]",4.0,"[-0.17859838234978972,-0.003270901701970762]",4.0,"[-0.07272587021035617,0.032791557922985444]",4.0,"[-0.040700205851903794,0.07665532726455211]",100.0,"[-0.08749222727335389,-0.0883095013078469]",100.0,"[-0.037115860546503635,-0.025620471903316303]",100.0,"[-0.13230331772981377,-0.07953937881695171]",100.0,"[-0.13498253700404803,-0.018479750402865414]",4.0,"[-0.027221857027766486,0.1888421653226535]",100.0,"[0.058278566031106725,-0.18957659908335817]",100.0,"[0.0023025529255937924,0.03458189896088561]",100.0,"[0.13407018770133464,0.13120091911941464]",4.0,"[0.16094453547899842,0.07097520366720995]",4.0,"[-0.05262053787915977,-0.16197467295577228]",4.0,"[0.19101183223334914,-0.0589311711411892]",4.0,"[0.06374000474742166,0.09249174444182522]",4.0,"[0.10376212514793769,0.07262883958357452]",4.0,"[0.027607113544066527,-0.0008518133162468502]",4.0,"[0.08669688102178405,-0.0463645023289055]",100.0,"[-0.17195589277251197,0.08803933155743343]",4.0,"[0.06687605291531938,-0.1027677469656677]",100.0,"[0.024106359479712913,0.18236692798794854]",100.0,"[0.13004178471971098,-0.04795305827171515]",100.0,"[0.02,0.02]",109.2434,0.0,14.0,14.0,117.0,1.0,,,,,,,
,,,,,,,5f8739ae0483431242e11d41,683c3946c3a07ca8d797577f,2025-06-01_13h46.23.818,shape_ratio,2024.1.5,Linux x86_64,30.03003003,683ae9196541af24d3a69e58,,,,,,,,,,,109.2441,109.7435,,,109.9776,110.6099,left,0.5991,,,,,,,,,0.9,,,,,,109.7435,109.9775,110.6099,"[0.06770422063607644,0.13144951196293428]",100.0,"[0.1687472673704519,0.0969778661919222]",100.0,"[-0.043425622682607024,-0.009329929992683934]",100.0,"[-0.04933650082539114,0.04701151298744147]",100.0,"[0.050054792084353136,0.17415400646388826]",4.0,"[-0.08615956704410369,0.1468687349041801]",100.0,"[0.1564107607495356,0.007035116129463439]",100.0,"[0.12601789470930516,0.06363811321733195]",100.0,"[0.11970823416376275,-0.14186467788253732]",100.0,"[0.07822208404587025,-0.07011412884336606]",100.0,"[-0.13715286264708748,-0.012031271754138831]",100.0,"[0.03996150085000009,0.014527112212760518]",4.0,"[0.12555713956742126,-0.07904892758071998]",100.0,"[0.05101471212285131,0.0691175676740924]",100.0,"[-0.08762767866983316,0.07969468236804873]",100.0,"[0.0973585988841222,-0.010067177889471193]",100.0,"[0.13964848689027698,0.12508100283077025]",100.0,"[-0.07615873227597515,-0.0715054659462879]",100.0,"[-0.15474413423719727,0.11241157138646368]",100.0,"[-0.002152735474606957,-0.10230437085240217]",100.0,"[-0.11614792600980008,-0.1570081795942999]",100.0,"[0.17433214863250154,-0.05582701685009788]",100.0,"[-0.12737148479768817,0.06883543497655066]",100.0,"[0.002344283681868923,-0.17645743465856192]",100.0,"[-0.19146836376759435,-0.00030513399898797174]",100.0,"[0.00920440965607237,0.1353478848804385]",100.0,"[0.01108999724717211,-0.06312370249055006]",100.0,"[-0.039193615333387395,0.12168767602470196]",100.0,"[-0.05124252522861282,0.1792714738519063]",100.0,"[-0.1546862982810774,-0.08607976134895687]",100.0,"[0.08702293638048347,0.0514863550781235]",4.0,"[-0.08800532299658918,-0.010650162585357172]",100.0,"[0.02,0.02]",111.7095,0.0,15.0,15.0,6.0,1.0,,,,,,,
,,,,,,,5f8739ae0483431242e11d41,683c3946c3a07ca8d797577f,2025-06-01_13h46.23.818,shape_ratio,2024.1.5,Linux x86_64,30.03003003,683ae9196541af24d3a69e58,,,,,,,,,,,111.7102,112.2104,,,112.4441,113.1092,right,0.6311,,,,,,,,,0.45,,,,,,112.2104,112.444,113.1092,"[-0.14109921136488773,-0.025343509276196965]",100.0,"[-0.07844667140209179,0.10081720693996427]",4.0,"[-0.04344012311770664,-0.16182093881358606]",100.0,"[0.18904686839052046,-0.021971939272521116]",4.0,"[-0.039857489340691436,0.11581633618564482]",100.0,"[-0.19785588143296756,-0.0060615473139484875]",4.0,"[0.12218670382564764,0.03131257779902626]",4.0,"[-0.11205091700526815,-0.14028089564666735]",100.0,"[0.060132787673519324,0.17250920061739192]",4.0,"[0.1405785648321187,0.11728766873707754]",4.0,"[0.04892337734165811,-0.18988264734535135]",100.0,"[-0.02926406997141487,-0.07583672666119946]",100.0,"[-0.06137145609889127,-0.035656954997925226]",100.0,"[0.13074013238311175,-0.13269543349828788]",4.0,"[0.07280626236101118,-0.001337024416994983]",4.0,"[0.08696117482173626,-0.12417529586192451]",4.0,"[0.1670481325315204,0.014334832046230926]",4.0,"[0.14899154922019228,-0.07615932190265289]",4.0,"[0.07047629503074089,0.1234543942269757]",100.0,"[-0.1577384867365084,0.02148315880766727]",4.0,"[-0.1847381082875246,0.07536723307015586]",4.0,"[-0.10558124137186539,0.014249902194112518]",100.0,"[-0.10891335778118903,0.13397041643105304]",4.0,"[0.01918581247007336,-0.05388354477151002]",100.0,"[0.021038867753612373,0.07758454312074549]",100.0,"[0.025140927146426822,-0.12708505896930716]",100.0,"[-0.04829590474718032,0.07145044999293906]",4.0,"[0.008988425236393923,0.13292190099823017]",4.0,"[0.08316234826632758,-0.05720654978135624]",100.0,"[-0.08901633912274128,-0.17796020218011446]",4.0,"[-0.010388985032121706,-0.023854166889014292]",4.0,"[-0.11244775173596103,-0.06411212399087934]",100.0,"[0.02,0.02]",114.2105,0.0,16.0,16.0,138.0,1.0,,,,,,,
,,,,,,,5f8739ae0483431242e11d41,683c3946c3a07ca8d797577f,2025-06-01_13h46.23.818,shape_ratio,2024.1.5,Linux x86_64,30.03003003,683ae9196541af24d3a69e58,,,,,,,,,,,114.2116,114.7101,,,114.9445,115.7441,left,0.7645,,,,,,,,,0.9,,,,,,114.7102,114.9445,115.7442,"[-0.01922772825701837,-0.07561962369398297]",100.0,"[0.06328841098414695,0.020087950069283027]",100.0,"[-0.10609120354431335,0.07207897499237978]",100.0,"[0.10425484752161804,0.15516336554667967]",100.0,"[0.1144018553917565,0.0949981787778953]",100.0,"[0.026403135180015625,-0.14108072397291438]",100.0,"[-0.04110342826795419,0.1250198930588337]",100.0,"[0.059592597412105194,0.18303714744559102]",100.0,"[-0.07599531158028987,-0.0030551210136261085]",100.0,"[0.15181418236780309,0.1264189628041567]",100.0,"[0.11706348035973532,-0.03462615387863634]",100.0,"[0.12166367991535458,0.00917913341605769]",100.0,"[-0.10566424577928203,-0.15185681623542793]",100.0,"[0.15946831351267057,-0.03338125092732697]",4.0,"[-0.01837217647126355,-0.027340754351802783]",4.0,"[0.1060066790671607,-0.1445536926078714]",100.0,"[-0.04174686443684372,0.16539241660290976]",100.0,"[0.04798483318843254,0.13322450222974966]",100.0,"[0.04215633328343418,0.09044765107526674]",100.0,"[0.019611652365800224,0.01692000607069013]",100.0,"[-0.16582610058418842,-0.06051033341034355]",100.0,"[-0.1409394539365252,0.13320306653565134]",100.0,"[-0.18373983393965182,-0.02338165236182269]",100.0,"[-0.029973810193145517,-0.19000262032164345]",100.0,"[-0.06571428339382274,0.08485569185131882]",100.0,"[-0.04542235544887393,0.03143581961993495]",100.0,"[-0.18342664386693303,0.05760732639356655]",100.0,"[0.1524558546280432,0.036760198886397234]",100.0,"[0.024196456697462777,-0.026661583895744034]",4.0,"[-0.08237909733338467,0.14231256702803374]",100.0,"[-0.13565332424965257,-0.01197768649979726]",100.0,"[-0.08135959446030853,-0.04747120670325893]",100.0,"[0.02,0.02]",116.8434,0.0,17.0,17.0,2.0,1.0,,,,,,,
,,,,,,,5f8739ae0483431242e11d41,683c3946c3a07ca8d797577f,2025-06-01_13h46.23.818,shape_ratio,2024.1.5,Linux x86_64,30.03003003,683ae9196541af24d3a69e58,,,,,,,,,,,116.8444,117.3442,,,117.5783,118.2111,right,0.5993,,,,,,,,,0.1,,,,,,117.3443,117.5782,118.2113,"[0.08692159891759248,-0.17464629987946007]",4.0,"[0.06568258580117152,0.05795729006613167]",4.0,"[-0.11662274542116487,0.06413623169035246]",4.0,"[-0.08261715789210106,0.1350060439458151]",4.0,"[0.07376483817803291,-0.07051777321877105]",4.0,"[-0.03057550846690208,-0.11978917540593749]",4.0,"[-0.15063618936090473,0.08751486607491626]",4.0,"[-0.11538627116520503,-0.09640464579040398]",4.0,"[0.038698616585512116,0.16199178948568083]",4.0,"[0.02127856755777576,-0.10062114106009394]",4.0,"[-0.14409142215746487,-0.015311235517489296]",100.0,"[0.11185389759666231,-0.08746271438781011]",4.0,"[0.14540967596176246,0.028031847255753178]",4.0,"[-0.029084920758191617,0.054420732806742624]",4.0,"[0.11647911994785488,0.1560232816876967]",4.0,"[0.05315074950656615,0.10330316504702447]",4.0,"[0.007263319752067894,-0.1868494950123019]",4.0,"[-0.10315876161369139,0.02541153565942508]",4.0,"[-0.06096310112189535,0.18141289136193073]",4.0,"[0.026285402627389615,0.014248396402794376]",100.0,"[0.16394741982954322,-0.061302466890656805]",4.0,"[-0.035604065310233614,-0.06608753737103433]",100.0,"[-0.0493943270801419,0.0918972939715625]",4.0,"[0.13674957786942324,0.09415056838361638]",4.0,"[-0.16125770373022338,0.044273577643640274]",4.0,"[0.008001777756295557,-0.025529371617277245]",4.0,"[-0.09206395309379138,-0.03296655188891212]",4.0,"[-0.030687867495161322,-0.008277029078029111]",4.0,"[-0.06898361947023372,-0.18488154749070843]",4.0,"[-0.10342052558654476,-0.14959141841752388]",4.0,"[-0.13910939447085688,-0.06403376169281134]",4.0,"[0.0769112097676144,-0.005599952134198794]",4.0,"[0.02,0.02]",119.3103,0.0,18.0,18.0,195.0,1.0,,,,,,,
,,,,,,,5f8739ae0483431242e11d41,683c3946c3a07ca8d797577f,2025-06-01_13h46.23.818,shape_ratio,2024.1.5,Linux x86_64,30.03003003,683ae9196541af24d3a69e58,,,,,,,,,,,119.3111,119.8109,,,120.045,121.177,right,1.1076,,,,,,,,,0.55,,,,,,119.811,120.0449,121.1771,"[-0.10001322108189162,0.11305431840829201]",100.0,"[0.0367431657297788,-0.13531011817541938]",100.0,"[0.13324185695510224,-0.14429828753427362]",100.0,"[0.06969487769810812,0.0038008503219178675]",4.0,"[-0.015202124299323893,0.005903547695938689]",100.0,"[0.15397488210591997,-0.02589216008842645]",100.0,"[0.10387219332078484,-0.046540770820635784]",100.0,"[0.05273636968388347,0.07215747684769346]",4.0,"[-0.11657092578277775,-0.07211156524578184]",100.0,"[0.08489477701735385,-0.08891755151345189]",4.0,"[-0.16359620917875198,0.09684995577371693]",4.0,"[-0.18850273579883903,0.06462649926139202]",4.0,"[0.0938368800742149,0.153618761604645]",100.0,"[-0.03085803249169626,0.09502430415387526]",4.0,"[-0.11097225748975666,-0.14133882888352797]",4.0,"[0.01578192295079729,0.047896710455563596]",100.0,"[0.15186785062303113,0.10888270003461517]",100.0,"[-0.17079152027174527,-0.054813334158653096]",4.0,"[-0.12155816261827623,0.04982915427510713]",100.0,"[0.16192842397537308,0.04657570037303476]",100.0,"[0.03610962784643294,-0.08333148048926245]",4.0,"[0.10972619371877394,0.10324183717312238]",100.0,"[0.035367563690563854,0.16377993890000395]",100.0,"[0.11325582103674964,0.015320508348645758]",4.0,"[-0.051128076730754465,-0.10601967292887933]",100.0,"[-0.14503482615096502,0.13241670121072222]",100.0,"[-0.029906346091670765,0.17930732895110416]",4.0,"[-0.03831170789109793,0.13734804305714152]",4.0,"[0.038388457864498286,-0.030454386184185327]",4.0,"[-0.07225486454915091,-0.0471807073110057]",4.0,"[-0.029385449654014587,-0.06376539259618381]",100.0,"[0.025392203085735598,-0.18730861466739349]",100.0,"[0.02,0.02]",122.2767,0.0,19.0,19.0,76.0,1.0,,,,,,,
,,,,,,,5f8739ae0483431242e11d41,683c3946c3a07ca8d797577f,2025-06-01_13h46.23.818,shape_ratio,2024.1.5,Linux x86_64,30.03003003,683ae9196541af24d3a69e58,,,,,,,,,,,122.2775,122.7769,,,123.0108,123.9775,right,0.9334,,,,,,,,,0.1,,,,,,122.777,123.0108,123.9777,"[0.0869871313613782,-0.012905214700116166]",4.0,"[-0.11453914031024566,-0.09930763482529471]",4.0,"[0.03351437774294549,0.006062957862001294]",4.0,"[0.02962884815942823,0.18186314824397237]",4.0,"[-0.014954248528592503,0.18861545017390474]",4.0,"[-0.12156330154609937,-0.1470893976882404]",4.0,"[0.02259551226790058,0.0856240920492489]",4.0,"[-0.18153559909099984,0.0680075739911862]",4.0,"[0.09670503630944274,-0.14515484243811852]",4.0,"[-0.14654147577477075,0.12795816023888026]",4.0,"[-0.044835095734544486,-0.12199830823267317]",100.0,"[-0.09514977718245461,0.11091495215862514]",4.0,"[0.12621121311053288,0.049289737902239006]",100.0,"[-0.1766043983600059,-0.042268265179433065]",4.0,"[0.18067126430561775,0.0402859416815977]",4.0,"[-0.06935315419624258,0.02371249736481156]",4.0,"[-0.055595663118178394,-0.0191067429134637]",4.0,"[0.07719061496848992,0.14418403811481711]",4.0,"[-0.004758220820030617,-0.13443381965772608]",4.0,"[0.05336974466227993,-0.1288246529249698]",4.0,"[-0.13398678883086515,-0.051937559168961464]",4.0,"[0.11482807889377919,0.12465916192549248]",4.0,"[0.16179512084501313,0.0767704507736657]",4.0,"[-0.01434406347589923,0.039099742662866574]",4.0,"[0.16410333251737455,-0.015606691713525234]",4.0,"[-0.0012461861715693948,-0.08432229796500001]",4.0,"[-0.048213222764105355,0.11857067182074833]",4.0,"[-0.14359199921928,0.014489330925392252]",4.0,"[0.08650002927202549,0.0351603980781627]",4.0,"[-0.1774248224273303,-0.09109900167891367]",4.0,"[-0.1360337936418612,0.06697797679348681]",100.0,"[0.10203521848124096,-0.09590643783803371]",4.0,"[0.02,0.02]",125.077,0.0,20.0,20.0,188.0,1.0,,,,,,,
,,,,,,,5f8739ae0483431242e11d41,683c3946c3a07ca8d797577f,2025-06-01_13h46.23.818,shape_ratio,2024.1.5,Linux x86_64,30.03003003,683ae9196541af24d3a69e58,,,,,,,,,,,125.0778,125.5777,,,125.8111,126.6438,right,0.7978,,,,,,,,,0.55,,,,,,125.5778,125.811,126.6439,"[-0.15001340750255004,-0.04587932271050804]",100.0,"[-0.09475677089453863,-0.10322993211648857]",100.0,"[-0.18580853008095266,-0.026549423130530454]",4.0,"[0.18872770451270132,0.038125844998124575]",100.0,"[0.08751946202358613,-0.1116743745577754]",4.0,"[-0.19241302057127546,0.015676874719294798]",100.0,"[-0.12009449567230777,0.13723728946055408]",100.0,"[0.09235460098587236,-0.05765676342702806]",100.0,"[0.13225251431821644,-0.032687678535603705]",4.0,"[0.19353898014178808,-0.0501935840766032]",4.0,"[-0.07482920137470385,0.14026181966181311]",100.0,"[0.08435245804828648,0.02459042698434753]",4.0,"[-0.05008410676035089,-0.18643745077505366]",100.0,"[0.0443180699510565,0.04749179409115403]",4.0,"[0.03618303677050098,0.1496355555316679]",100.0,"[-0.08027662453766869,-0.06189015754244624]",4.0,"[0.14228023893732586,0.12760530432593684]",100.0,"[-0.05359630953699942,-0.1351265550578725]",100.0,"[0.11442062011627523,0.07634711300566982]",4.0,"[-0.15236770197401267,0.0380575913716892]",100.0,"[-0.0322155516326835,0.09671567259340785]",4.0,"[-0.07721645445166025,0.01253486304081222]",100.0,"[0.06485981394627692,0.09378418720512083]",4.0,"[-0.006505039884243159,0.17340431918314603]",100.0,"[0.1625166884232997,-0.08377130016918238]",4.0,"[-0.07196716411628257,0.07261964003084719]",100.0,"[0.01426031838988644,-0.16529844037989794]",4.0,"[0.0101395997246217,-0.03279740653776079]",100.0,"[-0.032027175873254224,-0.054361672150517765]",100.0,"[0.03265255144374575,-0.11727979315201527]",4.0,"[-0.11858635577333938,-0.16089279033536213]",100.0,"[-0.05104177681268206,-0.09509212568164131]",4.0,"[0.02,0.02]",127.7438,0.0,21.0,21.0,78.0,1.0,,,,,,,
,,,,,,,5f8739ae0483431242e11d41,683c3946c3a07ca8d797577f,2025-06-01_13h46.23.818,shape_ratio,2024.1.5,Linux x86_64,30.03003003,683ae9196541af24d3a69e58,,,,,,,,,,,127.7447,128.2441,,,128.4783,129.511,right,1.0144,,,,,,,,,0.45,,,,,,128.2442,128.4782,129.5111,"[-0.000943655300856181,-0.04907880359506162]",4.0,"[-0.08558050505319989,-0.0645111400047693]",100.0,"[-0.008889002950082422,-0.09547536462318724]",100.0,"[-0.14245839638216926,-0.08242089517373269]",4.0,"[-0.041225542317939665,-0.16470176057640415]",4.0,"[0.07771861690720148,0.09834198074600344]",100.0,"[-0.13465070759119702,0.14428217497472828]",100.0,"[0.14916054405804666,-0.0546302383968699]",100.0,"[-0.00927569622182968,0.023799265093999555]",100.0,"[-0.09414244219654437,0.17105567295330476]",4.0,"[-0.07426087528551838,0.04011407746632554]",100.0,"[-0.1254836239390817,0.030007359991481714]",4.0,"[-0.1132776272799498,-0.13947582664208433]",4.0,"[0.12702221056230528,0.07038608530216588]",4.0,"[0.10180040492831376,-0.12999481182947495]",100.0,"[-0.11103824875244518,0.07342997758484004]",4.0,"[-0.050462746627354525,0.09852575445865143]",100.0,"[0.13582469612186554,0.14255067976288618]",4.0,"[-0.005048531490517083,0.19408419788768702]",4.0,"[0.09504715597548127,0.002586488170683892]",100.0,"[0.14781133929528595,-0.10025313307695193]",4.0,"[-0.05413677531557541,-0.013577985731024533]",4.0,"[0.0423943416297486,0.04261468081918309]",4.0,"[-0.002618799136338957,0.1528985887268616]",100.0,"[0.032793254668433025,-0.09529718645936518]",100.0,"[0.07944991895482764,-0.0372993382847613]",4.0,"[0.015373559047350879,-0.14015986176158146]",4.0,"[0.0683978913872639,0.17846429775490308]",100.0,"[-0.12534789530741838,-0.02842259295342793]",100.0,"[0.04177303009265332,0.12861604514253738]",4.0,"[0.0064101190183266914,-0.18963466686855934]",4.0,"[-0.1852662385713619,-0.0690836276755868]",4.0,"[0.02,0.02]",130.6101,0.0,22.0,22.0,141.0,1.0,,,,,,,
,,,,,,,5f8739ae0483431242e11d41,683c3946c3a07ca8d797577f,2025-06-01_13h46.23.818,shape_ratio,2024.1.5,Linux x86_64,30.03003003,683ae9196541af24d3a69e58,,,,,,,,,,,130.6114,131.1106,,,131.3446,132.2775,left,0.9074,,,,,,,,,0.6,,,,,,131.1108,131.3445,132.2776,"[-0.05092522687851787,-0.07481138543303413]",100.0,"[-0.06400575216687203,0.1855867494349028]",100.0,"[0.06871232352896381,0.033405557774004474]",100.0,"[-0.15162082445734887,0.11344898152281638]",4.0,"[0.05347110925026802,-0.1528427370405922]",100.0,"[0.11744078657869321,0.07562122847781558]",100.0,"[0.16252615278352564,0.06739437070166576]",100.0,"[-0.16670973573567247,-0.08726901076867014]",4.0,"[0.10768581762000365,0.00891014250267335]",100.0,"[0.050143366784293215,-0.06764872940640164]",100.0,"[0.02664012078200076,0.1182681823594388]",100.0,"[-0.14368373411713303,0.025491960292439338]",100.0,"[0.004579452295805566,-0.02543518274883103]",4.0,"[0.12010912243234474,-0.07086804857623201]",100.0,"[0.12018716477489264,0.1549688202861026]",100.0,"[-0.07414712092945672,0.0727929024188055]",100.0,"[0.12362570290429396,-0.14983750072223256]",100.0,"[-0.030117552766454662,-0.15290840101601372]",4.0,"[-0.022024754980057376,0.07244047023269938]",4.0,"[0.04020213333701052,0.1765355128548702]",4.0,"[0.06232322107178346,-0.01703009117439566]",4.0,"[-0.05228789377753415,0.00875008673068536]",100.0,"[-0.09032018117098617,-0.015750083011148126]",100.0,"[-0.03448546147305077,0.1486659004887242]",4.0,"[-0.017189754097407705,0.19454699949666138]",4.0,"[0.010227652392616436,-0.13222953785473104]",100.0,"[-0.04978303373814233,-0.19332199369983105]",4.0,"[-0.07280647842538332,-0.10871206111705647]",100.0,"[0.08952461596234249,0.11084192823698726]",100.0,"[0.17943657780658165,-0.027611294563706885]",4.0,"[-0.1781801585374758,-0.017339914141117536]",4.0,"[0.05493707254052005,-0.10895912147972907]",4.0,"[0.02,0.02]",133.3772,0.0,23.0,23.0,38.0,1.0,,,,,,,
,,,,,,,5f8739ae0483431242e11d41,683c3946c3a07ca8d797577f,2025-06-01_13h46.23.818,shape_ratio,2024.1.5,Linux x86_64,30.03003003,683ae9196541af24d3a69e58,,,,,,,,,,,133.378,133.877,,,134.1111,134.8093,right,0.682,,,,,,,,,0.4,,,,,,133.8771,134.1111,134.8093,"[-0.08650132122953837,-0.04495994330730322]",4.0,"[0.14984407845321196,-0.10589441613442029]",100.0,"[-0.028277100810459622,0.13789202904436298]",100.0,"[-0.16606251566716107,0.023525931762851424]",100.0,"[-0.1166848221658825,0.12741751511267482]",4.0,"[-0.04164533007544454,-0.020921335929458596]",100.0,"[0.06884061691872895,-0.09421921896446328]",100.0,"[-0.12470765728261048,-0.13144681100377664]",4.0,"[0.03644765963155323,0.010735553100782532]",4.0,"[0.07759506457118288,0.08914959179336039]",4.0,"[0.041948797193198634,0.182588657445373]",100.0,"[0.11200925024325287,0.15139654050575227]",4.0,"[0.12492979568571061,0.08213032844279045]",4.0,"[0.11295170025700142,0.029428194940867767]",100.0,"[-0.02620687528535668,0.09352695036233838]",4.0,"[0.18928348631950562,0.047707670878458314]",100.0,"[-0.0835766722924435,0.05908267657023369]",100.0,"[-0.01827986434271439,0.04434411673845568]",4.0,"[0.10577748330370337,-0.14110149040393827]",100.0,"[0.11311389030926504,-0.014367036896543065]",100.0,"[-0.09123214848267194,-0.0026576795622242403]",4.0,"[-0.01471088780336991,-0.08231257807029259]",4.0,"[-0.04437625568945253,-0.14896258137082974]",4.0,"[0.08862573574483011,-0.17814589765717906]",4.0,"[-0.14494560096288947,-0.03338873747261644]",4.0,"[-0.06272027957256222,0.1141622809062635]",4.0,"[0.02367041235517154,-0.16870105704877839]",4.0,"[-0.14462006303100958,-0.08186093028879043]",4.0,"[0.036003367629230044,0.13112095355346365]",4.0,"[0.018812684805019898,-0.04821769065893016]",100.0,"[-0.14690457553350134,0.09687658715352211]",100.0,"[0.02022803219258319,-0.11321697446238776]",4.0,"[0.02,0.02]",135.9094,0.0,24.0,24.0,176.0,1.0,,,,,,,
,,,,,,,5f8739ae0483431242e11d41,683c3946c3a07ca8d797577f,2025-06-01_13h46.23.818,shape_ratio,2024.1.5,Linux x86_64,30.03003003,683ae9196541af24d3a69e58,,,,,,,,,,,135.9097,136.4102,,,136.6437,137.177,left,0.4911,,,,,,,,,0.9,,,,,,136.4102,136.6436,137.1771,"[0.0636967495087432,0.1573619724835074]",4.0,"[0.07421641693914523,-0.027314022938215995]",100.0,"[0.14256179365290195,0.051685988820896284]",100.0,"[0.02499876238334524,0.02228227808086006]",100.0,"[-0.03765130165823413,0.06505286908060612]",100.0,"[-0.019711851754468775,0.18233427856663156]",100.0,"[-0.097356680264683,0.15571611097458352]",100.0,"[0.18407864749078667,-0.0062053890846065305]",100.0,"[-0.006440358364197593,-0.11811068010472635]",100.0,"[0.08221789363677949,-0.11812282049104907]",100.0,"[-0.1381967041694343,-0.10468178445708562]",100.0,"[-0.12560932699829755,0.09223297995021469]",100.0,"[0.19277572165669649,0.050470173981449984]",100.0,"[-0.03644546166913703,-0.056557602248777074]",100.0,"[-0.18802819697856243,-0.06502135001343057]",100.0,"[-0.0941690936150383,-0.0765783773359723]",100.0,"[-0.10797353704176454,0.019584768661190403]",4.0,"[-0.15901033429621703,-0.021164205328314107]",100.0,"[-0.046443637412535585,0.11768678594828615]",100.0,"[0.12240721706789379,-0.15045075369024855]",100.0,"[0.09323486550824354,0.10674163019091741]",100.0,"[0.01809333927390814,0.14685785262235387]",100.0,"[0.13786964056320067,-0.017198504020770226]",100.0,"[-0.023906960316328725,0.017582372055270322]",100.0,"[-0.002352070302278638,-0.1783202787476168]",100.0,"[-0.046568826360376396,-0.142470350525871]",100.0,"[0.10575133144187357,0.020000374204755783]",100.0,"[-0.1671138756015894,0.02872188971562887]",100.0,"[0.1068718612489616,-0.05490586604505888]",4.0,"[-0.1385094732347934,0.1408501138014789]",100.0,"[0.03049540634182098,-0.08108851791492709]",100.0,"[0.06222119944475203,0.062149365102309055]",100.0,"[0.02,0.02]",138.2769,0.0,25.0,25.0,0.0,1.0,,,,,,,
,,,,,,,5f8739ae0483431242e11d41,683c3946c3a07ca8d797577f,2025-06-01_13h46.23.818,shape_ratio,2024.1.5,Linux x86_64,30.03003003,683ae9196541af24d3a69e58,,,,,,,,,,,138.2777,138.7769,,,139.0108,139.5435,left,0.4925,,,,,,,,,0.4,,,,,,138.7769,139.0107,139.5435,"[-0.06510387642540619,-0.060783639548294334]",4.0,"[0.11753565791230625,-0.031247014548585368]",100.0,"[-0.14413031106543425,-0.08688936090223653]",4.0,"[0.14589575482153275,-0.092863288827311]",4.0,"[0.16772863812024494,0.020457989019062175]",100.0,"[0.003152686618450002,-0.09270477184343356]",100.0,"[-0.1168645706306166,0.10059449830855753]",4.0,"[0.0478668043502115,-0.03915296709889349]",100.0,"[0.013671599264751257,0.006849724440476903]",100.0,"[-0.12339312053415367,0.007191766466576758]",100.0,"[-0.0064142361398833656,-0.1749385406048758]",4.0,"[0.09762584424402236,0.17123600992328675]",100.0,"[-0.18110807862314826,-0.05820664578670378]",4.0,"[0.06713857290353434,0.0540710387599777]",4.0,"[0.16817822286645456,0.1014236661893939]",100.0,"[-0.054520015460336364,0.017668303526541102]",100.0,"[-0.0684772166480792,0.06531690190788472]",4.0,"[-0.017515381078930484,0.12042485532648678]",4.0,"[0.13866778561837134,0.055276734287226244]",100.0,"[0.027978923649556838,0.1751368713728867]",4.0,"[-0.1370500217733693,0.05825320251424044]",4.0,"[0.04480555390542453,-0.12593674427278267]",4.0,"[0.13652243004960218,-0.13904295208910414]",4.0,"[0.10934366862998873,0.1147244468342984]",100.0,"[-0.12066549096207972,-0.03621986465437643]",4.0,"[-0.052109984029267316,-0.16483324772332325]",4.0,"[-0.18563726818296536,0.04709686376468437]",4.0,"[-0.03748925436427211,0.17486289610086758]",100.0,"[0.0031408127256952927,-0.13600592227558597]",100.0,"[-0.023201320513750675,0.07449036275042006]",4.0,"[-0.09521501787493598,0.16836965744262503]",4.0,"[0.034522608376405986,0.10489780098219051]",4.0,"[0.02,0.02]",140.6441,0.0,26.0,26.0,164.0,1.0,,,,,,,
,,,,,,,5f8739ae0483431242e11d41,683c3946c3a07ca8d797577f,2025-06-01_13h46.23.818,shape_ratio,2024.1.5,Linux x86_64,30.03003003,683ae9196541af24d3a69e58,,,,,,,,,,,140.6449,141.1426,,,141.3776,142.0771,left,0.6591,,,,,,,,,0.55,,,,,,141.1427,141.3776,142.0772,"[-0.03283883298007129,0.18787276109759404]",4.0,"[0.07576404425439875,0.07122176630299357]",100.0,"[0.05123891727228735,-0.018067120605243615]",4.0,"[-0.045460536340882485,0.03165545528240704]",100.0,"[0.0297425558344366,0.1921942899588494]",100.0,"[-0.14279788483075384,-0.002327741673722575]",100.0,"[-0.06159062482378859,-0.02145643557116181]",100.0,"[-0.1299820736373706,-0.10820587122706785]",4.0,"[-0.1475865284867896,0.09316351871281046]",4.0,"[-0.1330594217754398,0.04502091466057257]",100.0,"[0.015030041885055846,0.1467527791332246]",100.0,"[0.036362354147338107,0.025201096848477877]",4.0,"[0.1937164092998149,-0.028968825622294008]",4.0,"[-0.010107790760292848,-0.14972197774634963]",4.0,"[-0.0760317285834644,0.06322827297469699]",4.0,"[-0.02321182385072951,-0.0677096036369099]",4.0,"[0.01543479109827186,0.09445711177298172]",100.0,"[0.09213579384509055,-0.13840465184878353]",4.0,"[0.14770947789064906,0.0673331455537719]",100.0,"[-0.0928718781827487,-0.07210108388948759]",100.0,"[0.09197038805487942,-0.04283800463734973]",4.0,"[0.024687506200075666,-0.12184639925517855]",100.0,"[0.1526999042895731,-0.03800843477017623]",4.0,"[-0.06288135190731722,-0.1454963157095486]",4.0,"[-0.104884048678359,0.15279032332615466]",100.0,"[0.18989730627207485,0.029503405923845934]",100.0,"[0.09894810825354121,0.1374363566312998]",100.0,"[-0.000729120321002627,-0.00825356518072988]",100.0,"[0.060265002492922805,0.16449432384089338]",4.0,"[0.09236155041026044,-0.09055701134532472]",100.0,"[0.11182429161868479,0.001391433270151149]",100.0,"[-0.06508452018342138,-0.10271708222803923]",100.0,"[0.02,0.02]",143.1765,0.0,27.0,27.0,87.0,1.0,,,,,,,
,,,,,,,5f8739ae0483431242e11d41,683c3946c3a07ca8d797577f,2025-06-01_13h46.23.818,shape_ratio,2024.1.5,Linux x86_64,30.03003003,683ae9196541af24d3a69e58,,,,,,,,,,,143.1773,143.6775,,,143.9118,144.5107,right,0.5652,,,,,,,,,0.1,,,,,,143.6776,143.9118,144.5108,"[0.14882891476123816,-0.06853943542625089]",4.0,"[0.01555312745326694,0.1658788483871883]",4.0,"[-0.08192345029026149,0.05134640232652211]",4.0,"[-0.0261496098979188,0.004254297130312843]",4.0,"[0.0680417061833187,0.09522912062785902]",4.0,"[0.11151531431384008,0.14605494703879807]",4.0,"[0.05904672507331963,0.04676136242315682]",4.0,"[0.06875873900954291,-0.12583600200384518]",4.0,"[-0.06855937835040872,-0.10625193670607287]",4.0,"[-0.12374113894701809,0.11545018141577924]",4.0,"[0.10871791663423429,-0.0941134112019953]",4.0,"[-0.04369928879728895,0.1565072031559386]",4.0,"[-0.12597723770289826,-0.05907549022773158]",4.0,"[-0.04403577396465497,0.10687203134414322]",4.0,"[-0.01798629443141148,-0.1697048343968984]",100.0,"[-0.15480611038880446,-0.02145778329902373]",4.0,"[-0.07831592115616651,-0.007836400818131422]",4.0,"[0.1824452758601502,-0.01171506105486152]",100.0,"[0.025219115997742545,0.12271218516138807]",4.0,"[0.17270513262099113,0.09898657439535405]",4.0,"[-0.07970274330264737,0.18008214366001143]",100.0,"[0.07894331553798553,-0.011635532470726346]",4.0,"[0.09070880933447982,-0.17298965526770027]",4.0,"[0.007398037706835544,0.05938008990210377]",4.0,"[0.02018767340770602,-0.058104542187704014]",4.0,"[0.034383544790914655,-0.000043744152586769154]",4.0,"[-0.028739030007598598,-0.03809936301801931]",4.0,"[0.058081269120895514,-0.0748904281752513]",4.0,"[-0.17220040645563223,-0.060804261186552334]",4.0,"[-0.13005168709780077,-0.1048326560537559]",4.0,"[-0.16929455788659464,0.029731943146907722]",4.0,"[-0.10013970032694909,-0.16180770590739418]",4.0,"[0.02,0.02]",145.61,0.0,28.0,28.0,181.0,1.0,,,,,,,
,,,,,,,5f8739ae0483431242e11d41,683c3946c3a07ca8d797577f,2025-06-01_13h46.23.818,shape_ratio,2024.1.5,Linux x86_64,30.03003003,683ae9196541af24d3a69e58,,,,,,,,,,,145.6107,146.1106,,,146.3443,146.8775,left,0.5022,,,,,,,,,0.5,,,,,,146.1107,146.3442,146.8776,"[-0.15973790776477884,0.10409534268548094]",100.0,"[0.04251537460624553,-0.008232820421615251]",4.0,"[-0.09213100157040528,0.08717425845863906]",4.0,"[-0.02675211292738441,0.12939359830977695]",4.0,"[0.14206287802239556,-0.0385858736472064]",4.0,"[0.08456262243899891,-0.15026100849288576]",100.0,"[0.17343105059316377,0.04615142812438278]",100.0,"[-0.020062778350617937,-0.16846242287933838]",4.0,"[0.18107727140828866,0.004610418913700532]",4.0,"[-0.03978779073652453,-0.021145044889164757]",100.0,"[0.03434825173303714,-0.06050183417406523]",100.0,"[-0.1309830731098527,0.0480553181289964]",4.0,"[-0.16025335804938107,-0.014537914080337706]",100.0,"[0.034729523401006136,0.1953257322015864]",4.0,"[0.06308981489466109,0.045176252606847614]",4.0,"[0.13100688091351248,-0.13718951835711954]",4.0,"[-0.17354210929446198,0.050710438068850595]",4.0,"[-0.1277715418586712,-0.10764739210263083]",100.0,"[-0.10260027194644127,-0.14191312427152708]",4.0,"[-0.05175994228923612,-0.10983233670563647]",4.0,"[0.12417288859702405,0.060587556644420566]",4.0,"[-0.06579075974936952,0.12013302074906511]",100.0,"[-0.06368636124431468,0.055299192351381816]",100.0,"[0.027154791983765025,-0.1445182707796003]",100.0,"[-0.11647165251829236,0.12951790040549613]",100.0,"[-0.0007595907192334944,-0.09338016305224672]",100.0,"[0.16552185956082888,0.09078836303171965]",100.0,"[-0.10570293797340025,-0.0037660955010323078]",100.0,"[-0.0784670984666291,0.17928838366579028]",100.0,"[0.1649573427732594,-0.09674428466294288]",100.0,"[0.095596395717562,0.1594411248235273]",4.0,"[0.013866127409619672,0.10997933586160193]",4.0,"[0.02,0.02]",147.9777,0.0,29.0,29.0,99.0,1.0,,,,,,,
,,,,,,,5f8739ae0483431242e11d41,683c3946c3a07ca8d797577f,2025-06-01_13h46.23.818,shape_ratio,2024.1.5,Linux x86_64,30.03003003,683ae9196541af24d3a69e58,,,,,,,,,,,147.9782,148.4808,,,148.7113,149.2113,right,0.4701,,,,,,,,,0.1,,,,,,148.4808,148.7111,149.2113,"[0.1391122187779042,0.08753527240551144]",4.0,"[-0.08670606785343285,-0.14626861159267643]",4.0,"[0.02134391704201704,0.052907026214554204]",4.0,"[0.030501957497290386,-0.061639454688648655]",4.0,"[0.0508877619327666,0.0946539096411511]",4.0,"[-0.0965004482916697,-0.09125833023948066]",4.0,"[0.11228794503002375,-0.15201260491014]",100.0,"[0.06888706525102448,0.04049619667355058]",4.0,"[-0.0035156112198129305,-0.013475546231662265]",4.0,"[-0.13100901198262424,-0.1397376080777719]",4.0,"[-0.02614008672667645,0.0378114480577724]",4.0,"[-0.15683174120990473,-0.0654723786959192]",4.0,"[-0.00915202159075369,-0.10445722023517094]",4.0,"[0.030480561489024144,0.19115331649307934]",4.0,"[-0.08994047306735699,-0.04770712867464093]",4.0,"[0.08538095153508418,-0.08896541752339582]",4.0,"[-0.14385796855266697,0.08221826547525153]",4.0,"[0.051890912560456685,-0.011191909770302686]",4.0,"[-0.09354233761033624,0.056669267206542966]",4.0,"[0.04164021944134073,0.1408622799192475]",4.0,"[0.1278880989203971,-0.1025588770183681]",4.0,"[-0.15895550421965568,0.034953848669483735]",4.0,"[0.0713044657225144,-0.129670537454694]",4.0,"[0.15311868630649417,-0.02810110665343918]",4.0,"[-0.053835115133746864,0.11639809172532946]",4.0,"[0.19444217903437777,0.0002384733009578886]",4.0,"[0.08844400637974995,0.15826526211029177]",4.0,"[0.0029115608104628367,-0.1980362734110972]",100.0,"[-0.18423132109466442,-0.017166027168868895]",4.0,"[-0.08381455373477699,0.16260643285325146]",100.0,"[-0.051234445381107566,-0.07781236961389745]",4.0,"[-0.03600294295987822,-0.1609919220334789]",4.0,"[0.02,0.02]",150.3111,0.0,30.0,30.0,183.0,1.0,,,,,,,
,,,,,,,5f8739ae0483431242e11d41,683c3946c3a07ca8d797577f,2025-06-01_13h46.23.818,shape_ratio,2024.1.5,Linux x86_64,30.03003003,683ae9196541af24d3a69e58,,,,,,,,,,,150.3121,150.8114,,,151.0453,151.812,right,0.7389,,,,,,,,,0.1,,,,,,150.8114,151.0452,151.8122,"[-0.16029535062608816,0.03527710964861352]",4.0,"[0.19221220978269887,0.04518842718467905]",4.0,"[0.01365221270787728,-0.1493427048011995]",4.0,"[-0.07844835465793931,-0.044196001870447275]",4.0,"[-0.09069809654296464,-0.11067927341515091]",4.0,"[0.13464797087076305,-0.029954191265366626]",4.0,"[-0.1243354318846995,-0.06943331722532343]",4.0,"[-0.08588719739957258,0.07170120079114922]",100.0,"[0.11123573507443149,0.05494683690039076]",4.0,"[-0.05239420649231981,-0.18551887808893713]",4.0,"[-0.07412267172551851,0.003496734246871673]",4.0,"[-0.09056041762826984,0.12573357680713354]",4.0,"[0.13659050229102387,0.10964280840534686]",4.0,"[-0.039376924882812414,0.10491193670330945]",4.0,"[0.07395993497425946,-0.003975263119694743]",4.0,"[0.06570821858999054,0.0658644117978968]",4.0,"[-0.036762381963223366,-0.13868844181618717]",4.0,"[-0.013379490050991082,-0.0657022254241666]",4.0,"[0.05547977929263877,-0.12643473022230833]",4.0,"[-0.031564182319805366,0.17588896512917687]",4.0,"[-0.17130767045005435,-0.061137340386302655]",4.0,"[0.18007242378127994,-0.008917829328933174]",4.0,"[0.13878628514814742,-0.1383441163423344]",4.0,"[-0.10554611788778444,-0.16039750297040417]",100.0,"[0.09846479031395,-0.11857852347600183]",4.0,"[-0.12118336201215478,0.019753258230434625]",4.0,"[0.028920005900426024,0.08889647785039892]",4.0,"[0.08144911021274158,0.11846258147998039]",4.0,"[-0.14574493705102629,0.0778115880031793]",4.0,"[0.020663803888827183,-0.0249313388407362]",4.0,"[0.04487082905731521,-0.08013378067831715]",4.0,"[0.07010811863916763,-0.17056144411711244]",100.0,"[0.02,0.02]",152.9111,0.0,31.0,31.0,187.0,1.0,,,,,,,
,,,,,,,5f8739ae0483431242e11d41,683c3946c3a07ca8d797577f,2025-06-01_13h46.23.818,shape_ratio,2024.1.5,Linux x86_64,30.03003003,683ae9196541af24d3a69e58,,,,,,,,,,,152.9121,153.4115,,,153.6461,154.3448,left,0.6707,,,,,,,,,0.6,,,,,,153.4116,153.646,154.3448,"[0.07604069337063954,0.10599799128913644]",4.0,"[0.1242060480350966,0.07267510152631268]",100.0,"[-0.04303743239890266,0.12334781090412053]",4.0,"[0.05850053247752987,-0.10824543025026931]",4.0,"[-0.08585855118788635,-0.1705123534071522]",100.0,"[-0.0795175802151863,0.05330337789223179]",100.0,"[-0.14555162269640246,-0.08469997273498413]",4.0,"[0.12795258235720777,-0.10918073545078162]",4.0,"[-0.046091327262311875,0.014588612337038774]",100.0,"[-0.160991923432476,-0.0416578307754136]",4.0,"[0.025878105881097686,0.04053995451475059]",100.0,"[0.1008718712623308,0.004491685775932639]",100.0,"[-0.03441685486474158,0.06617054334774873]",100.0,"[-0.015377622057890207,-0.16253192640746839]",100.0,"[-0.16990524906777402,0.050455486468668105]",100.0,"[0.11357503206413327,0.14515572627314297]",100.0,"[0.0364370752935062,-0.17969820191588007]",4.0,"[0.15401667988481538,0.011325262983556732]",4.0,"[-0.13845242499591082,0.08624644846576147]",4.0,"[-0.08286449862660211,0.1463282806767376]",100.0,"[-0.09953887565592173,-0.11563070790156593]",100.0,"[-0.13347828962211933,0.014807268838254582]",100.0,"[0.03864010382070983,0.09164232484569326]",4.0,"[-0.019177946154316738,-0.09603334188735307]",4.0,"[-0.03305141567778342,-0.03833918432392107]",100.0,"[0.17318027435570293,0.08765360437133313]",100.0,"[0.09658866564557822,-0.16296107838057702]",100.0,"[-0.07473136758433474,-0.02640645481265337]",4.0,"[0.050551220118964534,0.14473022879535566]",4.0,"[0.1959726386203768,-0.01473548004723134]",100.0,"[-0.13161240589221013,0.13197424586098178]",100.0,"[0.1777379136648256,-0.07547576259313601]",100.0,"[0.02,0.02]",155.4448,0.0,32.0,32.0,56.0,1.0,,,,,,,
,,,,,,,5f8739ae0483431242e11d41,683c3946c3a07ca8d797577f,2025-06-01_13h46.23.818,shape_ratio,2024.1.5,Linux x86_64,30.03003003,683ae9196541af24d3a69e58,,,,,,,,,,,155.4457,155.9443,,,156.1788,156.6447,left,0.4449,,,,,,,,,0.9,,,,,,155.9443,156.1787,156.6447,"[-0.03096282810926187,-0.1658849721499707]",100.0,"[-0.012425308504141138,-0.032115729375045504]",4.0,"[-0.05576917490560147,-0.01119075062900641]",100.0,"[-0.18317338787420714,-0.047064655075477135]",100.0,"[-0.01320494723617972,-0.10924338934475379]",100.0,"[-0.15821783943963644,-0.08543827485345722]",100.0,"[-0.10356660271326637,-0.1378521314749274]",100.0,"[0.08167090070352899,-0.11244555250901687]",100.0,"[0.11636833509155953,0.05695547655957852]",100.0,"[0.05126202975782896,0.13758991489030184]",100.0,"[-0.09536746371578668,0.1531457457767155]",100.0,"[-0.14641184638245633,0.06253322476324762]",100.0,"[0.15131085799640617,-0.051788298613689145]",4.0,"[0.08077964853521447,-0.027102670197730442]",100.0,"[-0.01626706160317143,0.02473283874184739]",100.0,"[0.06587552984820186,0.010616334630138535]",100.0,"[0.022531618571223707,0.16660991832606978]",4.0,"[-0.0764944054713203,0.11141192171004423]",100.0,"[-0.11764472117020305,-0.039208961796082346]",100.0,"[-0.14553569269318284,-0.00543219195210025]",100.0,"[-0.10154073602569419,0.04510165135686627]",100.0,"[-0.038383518919921006,-0.0758262940920347]",100.0,"[0.17344739551935948,-0.011730961035753678]",100.0,"[0.0298170958685506,0.036435703659314304]",100.0,"[-0.05380007629545827,0.16607973237240192]",100.0,"[0.052362252115481255,-0.14683099942526903]",100.0,"[-0.04018295167652188,0.05877383814301478]",100.0,"[0.12774681203352747,-0.13063415866864186]",100.0,"[0.029435993703547634,0.08871541415544376]",100.0,"[-0.1348856997673706,0.10356305710242773]",100.0,"[0.03499867386171432,-0.09120608141944572]",100.0,"[0.0720557798581461,0.09436278607896148]",100.0,"[0.02,0.02]",157.7442,0.0,33.0,33.0,10.0,1.0,,,,,,,
,,,,,,,5f8739ae0483431242e11d41,683c3946c3a07ca8d797577f,2025-06-01_13h46.23.818,shape_ratio,2024.1.5,Linux x86_64,30.03003003,683ae9196541af24d3a69e58,,,,,,,,,,,157.7453,158.2447,,,158.4789,158.9776,right,0.4653,,,,,,,,,0.1,,,,,,158.2447,158.4788,158.9776,"[0.0051660596764128595,-0.07646242824778354]",4.0,"[-0.12748514568211405,0.010364030270171565]",4.0,"[0.04319817922316891,0.1763371861086035]",100.0,"[-0.1504964101170936,-0.036542244238523654]",4.0,"[-0.13044512479334427,-0.13251065260465328]",4.0,"[0.11181991625308478,-0.018002627725187577]",4.0,"[0.09821929651444444,0.0811811868680178]",4.0,"[-0.005209339823134119,0.10701316313817433]",4.0,"[0.17155031417995317,0.011943058482439827]",4.0,"[0.06898255011167305,-0.012394364122226782]",4.0,"[0.08613111556282387,0.024604640530993645]",4.0,"[-0.014589732422605474,-0.022030217217576524]",4.0,"[-0.056057923783273525,0.02402237903369384]",4.0,"[-0.04134208936807236,0.15691433223554388]",4.0,"[0.08895027084274397,-0.16878963677754907]",4.0,"[-0.1575461066731399,0.0496242851302362]",4.0,"[-0.09584891047372075,0.0820012593798014]",4.0,"[-0.11103443074599806,0.12522851079658]",4.0,"[-0.07529104800404866,-0.015834726787459997]",4.0,"[-0.04507648568026193,0.09178640584192674]",4.0,"[0.06690890262793561,-0.10890401967433808]",4.0,"[-0.09009297827040269,-0.17684169760590865]",4.0,"[-0.06260575343357336,-0.10078303452456362]",100.0,"[-0.03531276624608284,-0.1963479191046965]",4.0,"[-0.18243830241886602,-0.007379221608602018]",4.0,"[0.03238765743594458,-0.04270598959621919]",100.0,"[0.0021336882524281,-0.14430868875176736]",4.0,"[0.146445141659677,0.09993815236323371]",4.0,"[-0.14523588891115444,-0.0841614218056847]",4.0,"[-0.08900778088085325,-0.1342512568991783]",4.0,"[-0.015648786210303814,0.042947552776618554]",4.0,"[-0.15855110543937256,0.1200952612247449]",4.0,"[0.02,0.02]",160.0775,0.0,34.0,34.0,191.0,1.0,,,,,,,
,,,,,,,5f8739ae0483431242e11d41,683c3946c3a07ca8d797577f,2025-06-01_13h46.23.818,shape_ratio,2024.1.5,Linux x86_64,30.03003003,683ae9196541af24d3a69e58,,,,,,,,,,,160.0785,160.5779,,,160.8122,161.4782,left,0.6344,,,,,,,,,0.9,,,,,,160.5781,160.8121,161.4783,"[0.1401263441330398,-0.015694283733229095]",100.0,"[0.019466692568658073,-0.011472325241717289]",100.0,"[-0.043392063381509784,0.022080377885880683]",100.0,"[0.025826245436407876,-0.16803245401610817]",100.0,"[-0.034822913692779595,0.1316792322214435]",100.0,"[0.07871639319527868,0.010438480279775736]",100.0,"[0.11678398467958567,-0.06120596011305694]",100.0,"[0.09736458308625658,-0.16145302886421856]",100.0,"[0.13717005346064082,0.03661578386988804]",100.0,"[0.038133377219141756,0.10111637343115798]",100.0,"[-0.07474433952814272,-0.014099926889947738]",100.0,"[-0.16868204384571092,0.10198499964723991]",4.0,"[0.028971528858710988,-0.07224298555442178]",100.0,"[0.0815965349112591,0.14561096558208325]",100.0,"[-0.16658906728246994,0.02913965885304637]",100.0,"[0.05435995579786307,0.05450961389021893]",100.0,"[-0.09657728055097721,0.09365729226748741]",100.0,"[-0.14183664640940222,-0.08192565016224373]",4.0,"[-0.09475945934216141,-0.08617495946127744]",100.0,"[0.006880372261673631,0.14110369830771077]",100.0,"[0.05755247688036583,-0.1317844315884214]",100.0,"[0.15015269155273767,-0.0893855053760108]",100.0,"[-0.07697948879085341,-0.1461048959096347]",100.0,"[-0.05074558131458382,0.06807955230140555]",100.0,"[-0.004952617981390543,0.0947282065305399]",100.0,"[0.18963665016987954,0.017916417376026256]",100.0,"[-0.12662538961347408,0.00752152197880278]",100.0,"[-0.020581828031173987,-0.049505100228352375]",4.0,"[-0.10099940013609265,0.04797429250638033]",100.0,"[0.11417895439550904,0.1192969432489018]",100.0,"[-0.028866821957779294,-0.10536310960538069]",100.0,"[-0.1163105854839434,-0.13873309327911768]",100.0,"[0.02,0.02]",162.578,0.0,35.0,35.0,27.0,1.0,,,,,,,
,,,,,,,5f8739ae0483431242e11d41,683c3946c3a07ca8d797577f,2025-06-01_13h46.23.818,shape_ratio,2024.1.5,Linux x86_64,30.03003003,683ae9196541af24d3a69e58,,,,,,,,,,,162.5789,163.0776,,,163.3117,163.7115,right,0.3637,,,,,,,,,0.1,,,,,,163.0776,163.3117,163.7117,"[0.07350242390200183,-0.06637058443698483]",100.0,"[-0.08697925787381248,0.07276390082563754]",4.0,"[-0.06593000786672806,0.16731773521734036]",4.0,"[0.15972206580908763,0.10771497545951718]",4.0,"[-0.11624479770283579,-0.1033630575113949]",4.0,"[0.09417987789777595,-0.12276168233598149]",100.0,"[-0.06430541363372479,-0.13739006064606205]",4.0,"[0.11954607092640769,-0.08177300302110246]",4.0,"[0.01919771193043919,-0.06316662371990565]",100.0,"[-0.19001186786591107,0.023191531480195444]",4.0,"[-0.12308474246851236,-0.03205470643497695]",4.0,"[0.1414301176992342,0.047791469823700757]",4.0,"[-0.059810787315290215,0.04304559083204109]",4.0,"[0.0026156424494663375,-0.10806067328251998]",4.0,"[-0.08552902448319753,-0.008842090741497492]",4.0,"[-0.07708881240632229,-0.18410122899223735]",4.0,"[0.024597383736037717,0.08031635044483221]",4.0,"[0.040571093291105205,0.003700605370483166]",4.0,"[-0.13906807363124857,0.10174533796764845]",4.0,"[-0.005231199730482453,-0.1818327656637169]",4.0,"[-0.17827744885052457,-0.03943432293205651]",4.0,"[-0.02178205984160744,0.10294497468917561]",4.0,"[-0.10268887055367276,0.028223365980566927]",4.0,"[0.17948088799091594,-0.06603571995324921]",4.0,"[-0.10497552691401592,0.15069008702785208]",4.0,"[-0.045620799602359104,-0.02917535541707823]",4.0,"[0.19402331987453755,0.04738112639549699]",4.0,"[0.051402755119795765,0.1576916329193686]",4.0,"[0.13620912168782576,-0.14637175271385705]",4.0,"[0.07891472015260549,-0.1777167768049814]",4.0,"[-0.13377097429382648,-0.14688431122373663]",4.0,"[0.09986298061911615,-0.017722010944575286]",4.0,"[0.02,0.02]",164.8103,0.0,36.0,36.0,192.0,1.0,,,,,,,
,,,,,,,5f8739ae0483431242e11d41,683c3946c3a07ca8d797577f,2025-06-01_13h46.23.818,shape_ratio,2024.1.5,Linux x86_64,30.03003003,683ae9196541af24d3a69e58,,,,,,,,,,,164.8111,165.3106,,,165.5446,166.0105,left,0.4346,,,,,,,,,0.4,,,,,,165.3107,165.5445,166.0106,"[0.14765818348097928,-0.10117460947795559]",4.0,"[0.06931667126231764,-0.17963108664052094]",100.0,"[0.046674700386900816,-0.014609781816125966]",100.0,"[0.13758271974154015,0.037571551008676075]",4.0,"[-0.12346936645092305,0.10018739099755902]",4.0,"[0.08375046369606882,0.011085403784246014]",4.0,"[0.13561032341317528,-0.012532807268900083]",100.0,"[0.017755957002886118,-0.18767974709158858]",100.0,"[-0.11086900584948252,-0.11098914921108749]",4.0,"[0.10769606916357956,0.1594525460335595]",4.0,"[-0.06774230358085345,-0.04327123540353424]",100.0,"[0.17105825217528337,-0.06721029658349416]",4.0,"[-0.021817942706658742,0.05232766270174749]",100.0,"[0.01882126304893364,0.061142585346150385]",4.0,"[0.1233907529481638,0.11973334444936756]",4.0,"[0.002951747160537136,-0.14330786643965]",4.0,"[-0.08459521524527802,0.15787992784487107]",4.0,"[-0.13231866571770318,0.004079474074504685]",4.0,"[0.05533522104853988,0.16329342811004072]",4.0,"[0.0058909146591211315,-0.08210018718055603]",100.0,"[-0.013157158047342183,-0.01103314525091051]",100.0,"[-0.08554320094029366,0.028543212552609748]",100.0,"[0.059283257584993206,-0.07675885886846472]",100.0,"[0.000894556331463295,0.1012736944960713]",100.0,"[-0.05852400977192161,0.12429475026775559]",4.0,"[0.06907626669444665,-0.12348745849159548]",4.0,"[-0.1535959004119732,-0.04045586182834904]",100.0,"[0.12225544681831836,0.07782433024690884]",4.0,"[0.08120529125629211,0.10066597847003177]",4.0,"[-0.0011516340937925832,0.14125453661828333]",100.0,"[0.1826960690558181,-0.012450832272970787]",4.0,"[-0.03738315913218146,-0.13932472450473724]",4.0,"[0.02,0.02]",167.1107,0.0,37.0,37.0,173.0,1.0,,,,,,,
,,,,,,,5f8739ae0483431242e11d41,683c3946c3a07ca8d797577f,2025-06-01_13h46.23.818,shape_ratio,2024.1.5,Linux x86_64,30.03003003,683ae9196541af24d3a69e58,,,,,,,,,,,167.1115,167.61,,,167.845,168.2778,left,0.3962,,,,,,,,,0.9,,,,,,167.6102,167.845,168.2779,"[-0.12945004128714438,-0.07635851002072182]",100.0,"[0.008493033362353459,0.18680216003064526]",100.0,"[-0.17807320817460387,-0.0803949982700204]",100.0,"[0.0231036075360773,0.06991267468292162]",100.0,"[-0.08559043718523354,0.14229898253081844]",100.0,"[-0.06772658325752737,0.09136500636945126]",100.0,"[0.1251411107020105,0.15370705195631837]",100.0,"[-0.05178225328738342,-0.0280909931531382]",100.0,"[0.02589548044573755,-0.09266062125056311]",100.0,"[0.006157057434434986,0.03165778515836951]",100.0,"[-0.08910222832559622,0.019274637786095204]",100.0,"[-0.0691696469279915,-0.08638120868611045]",100.0,"[0.11085560118850539,-0.047702159664233516]",4.0,"[0.06511092412318006,-0.024239439197202582]",100.0,"[-0.014350001872084938,0.09613474740760265]",100.0,"[-0.03312762004762216,-0.16742858712115813]",100.0,"[-0.1669750214546285,-0.03754061311538117]",100.0,"[0.09107889642091671,0.008165786114195371]",100.0,"[-0.12469343076168654,0.09493398117864721]",100.0,"[-0.1381356622382128,-0.12301966395587038]",100.0,"[-0.03255106428849983,0.1918212144218375]",100.0,"[0.08730157217008298,0.09667504920479755]",100.0,"[0.07417089752976952,0.15443797378140042]",100.0,"[0.1524613362151707,0.08718652292267004]",100.0,"[0.08050763323162181,-0.07717102313556386]",4.0,"[-0.16572259963466304,0.09192537288323613]",100.0,"[0.08702417723685664,-0.16771810179419117]",100.0,"[0.04457877169512776,-0.172959962407998]",100.0,"[-0.02618343714213866,-0.11192476941612126]",100.0,"[0.028463757524891373,0.1502627756911735]",100.0,"[0.1799359903482127,-0.025378576869119852]",100.0,"[0.051969149662498715,0.18914829703741334]",4.0,"[0.02,0.02]",169.3779,0.0,38.0,38.0,3.0,1.0,,,,,,,
,,,,,,,5f8739ae0483431242e11d41,683c3946c3a07ca8d797577f,2025-06-01_13h46.23.818,shape_ratio,2024.1.5,Linux x86_64,30.03003003,683ae9196541af24d3a69e58,,,,,,,,,,,169.3787,169.8778,,,170.1116,170.4769,right,0.3313,,,,,,,,,0.1,,,,,,169.8779,170.1115,170.477,"[0.13784285310364353,0.028876263016563146]",4.0,"[0.09644141979682283,0.052068818622884455]",4.0,"[-0.13110010393655896,0.02057689957860576]",4.0,"[-0.10041448571359347,0.11313890208333727]",4.0,"[-0.0037103312239633204,-0.013734467298859108]",100.0,"[-0.07615933961862677,0.030599232957620487]",4.0,"[-0.025293469238707685,0.10540160700013343]",4.0,"[-0.15131035888658276,-0.024515399027600335]",4.0,"[0.1897652265423223,-0.03786980644456291]",4.0,"[0.019759818664544137,0.17488652334767862]",100.0,"[-0.11299274337983022,-0.09684056250607935]",4.0,"[0.017525110513561887,0.06534029864189]",4.0,"[-0.11770033541781441,0.07384834730193836]",4.0,"[0.0363399386983399,-0.1450169196794047]",4.0,"[0.15146567040275613,-0.013626336703620748]",4.0,"[0.14474863876693764,0.10762683237374959]",4.0,"[0.13096447091293884,-0.08688328309376961]",4.0,"[0.07043788915351276,0.021021391368711388]",4.0,"[0.07781235276903002,0.11266015332084611]",4.0,"[0.009198423096747984,-0.08668402477500892]",4.0,"[-0.003759527061720428,-0.16256711572893354]",4.0,"[-0.04573170149197726,-0.13865644496448457]",4.0,"[0.0938348461900456,-0.049936571523626655]",4.0,"[0.06385969557563931,-0.11271664613081098]",4.0,"[-0.020674472594760646,0.19238531051116922]",100.0,"[0.06106609986867213,0.1791955259950403]",4.0,"[0.11384431922133026,-0.16231315197093427]",4.0,"[0.19175711168409823,0.051543509837925584]",4.0,"[-0.10361579431506181,-0.025116009858810604]",4.0,"[-0.020419693400649353,0.033562711130469186]",4.0,"[-0.15404096308022525,0.0997481290778478]",4.0,"[-0.10232591578519891,-0.13591583619416409]",4.0,"[0.02,0.02]",171.578,0.0,39.0,39.0,182.0,1.0,,,,,,,
,,,,,,,5f8739ae0483431242e11d41,683c3946c3a07ca8d797577f,2025-06-01_13h46.23.818,shape_ratio,2024.1.5,Linux x86_64,30.03003003,683ae9196541af24d3a69e58,,,,,,,,,,,171.5789,172.0774,,,172.3115,173.011,left,0.6611,,,,,,,,,0.55,,,,,,172.0775,172.3115,173.0111,"[-0.013751810645301881,0.15052068432230617]",100.0,"[-0.007279580863812034,-0.178216687235691]",100.0,"[0.012673449962947765,0.041765420926192016]",100.0,"[-0.00041497283989919197,-0.020124904440267193]",100.0,"[-0.16605327945574655,0.03273697582842493]",4.0,"[-0.07601955591819681,-0.0658263927332391]",100.0,"[-0.17206372236478326,-0.028966622808042092]",4.0,"[0.04280587395186127,-0.19146714530644882]",4.0,"[0.07441400897665955,-0.1225727630020529]",100.0,"[-0.13829871795352486,0.12135032508166352]",4.0,"[-0.021337421356024514,-0.13667627080773]",4.0,"[0.12982220036943237,0.12592511700109385]",100.0,"[-0.08227224920891725,0.06837483892672848]",4.0,"[0.1503934061645247,0.07217203442013784]",4.0,"[0.09490710554916965,-0.17424992725783034]",4.0,"[-0.16142384150824313,-0.09681021035696116]",4.0,"[0.00845873497364963,-0.06002208573541122]",4.0,"[-0.09938360812302552,0.15449086049628116]",100.0,"[-0.10449663459634552,-0.13361723749042162]",100.0,"[0.09954928317036611,0.005172133653780621]",100.0,"[-0.03320744851303076,0.10479448965897409]",100.0,"[0.18952044670686463,-0.009745685232986289]",100.0,"[-0.12422060108826215,-0.0753628905508906]",4.0,"[-0.13646602437545935,0.0005450519232256108]",4.0,"[0.04344420305433012,0.0015804134939958962]",100.0,"[-0.06488912980459226,-0.02562715675115559]",100.0,"[0.12428046925931076,-0.08295447729332604]",100.0,"[0.12538160483918248,-0.142483936068865]",4.0,"[0.018064550591024357,-0.10788539654001965]",100.0,"[0.04490464214045156,0.16010108269414033]",100.0,"[-0.07229662604066715,-0.17187459394282212]",4.0,"[0.08909690783925964,-0.039091586640916956]",100.0,"[0.02,0.02]",174.1109,0.0,40.0,40.0,72.0,1.0,,,,,,,
,,,,,,,5f8739ae0483431242e11d41,683c3946c3a07ca8d797577f,2025-06-01_13h46.23.818,shape_ratio,2024.1.5,Linux x86_64,30.03003003,683ae9196541af24d3a69e58,,,,,,,,,,,174.1119,174.6109,,,174.8458,175.2777,left,0.4035,,,,,,,,,0.6,,,,,,174.6111,174.8457,175.2779,"[-0.006043587910903904,-0.06830528422415713]",100.0,"[0.15681473190706727,-0.023824808899537208]",100.0,"[-0.11356666840223582,0.16072943627560904]",100.0,"[0.10315921891587505,0.07293743374734378]",4.0,"[0.0782739798704135,-0.1675301040949889]",100.0,"[-0.0531801767260988,0.05803904402436221]",100.0,"[-0.13934275535485524,-0.10500369461788282]",100.0,"[-0.07713250228284874,-0.019277119551325755]",4.0,"[-0.17857825900753968,-0.017498449399154244]",4.0,"[-0.043632081407088553,-0.16999190976097014]",100.0,"[0.07317736587207149,0.03454276929638301]",100.0,"[-0.11277814048677787,0.05180320343395949]",4.0,"[0.05687401186057036,0.13185996203211045]",4.0,"[-0.11086742742945686,-0.05796053806270962]",100.0,"[-0.08521447346299356,-0.1571501316274126]",100.0,"[0.09138899789009025,-0.08905579174257498]",4.0,"[0.1103836349426135,-0.014944293909264082]",4.0,"[0.03135581367906095,-0.1648280633237554]",4.0,"[0.1310171767873997,-0.0654437407153552]",100.0,"[0.0721284106799826,-0.04863695000477008]",4.0,"[0.012254378037169984,0.1811930451670654]",4.0,"[0.129628776590597,0.10938343754121017]",100.0,"[-0.06746103610379094,0.10015788347155316]",100.0,"[0.008969393850696056,0.13893819760916695]",100.0,"[-0.030244267515397376,0.014717270716130597]",100.0,"[0.05614566445313043,-0.0076424344250818595]",100.0,"[-0.048393598843809615,0.17077136654387404]",100.0,"[-0.0029106083241698193,-0.13954283384878893]",4.0,"[0.14832209420107484,0.03585558425985998]",4.0,"[0.14662426529887673,-0.13564791952518238]",100.0,"[0.09662159071273067,0.14167405238041605]",4.0,"[0.0062805491544359856,0.07099543730857723]",100.0,"[0.02,0.02]",176.3777,0.0,41.0,41.0,50.0,1.0,,,,,,,
,,,,,,,5f8739ae0483431242e11d41,683c3946c3a07ca8d797577f,2025-06-01_13h46.23.818,shape_ratio,2024.1.5,Linux x86_64,30.03003003,683ae9196541af24d3a69e58,,,,,,,,,,,176.379,176.8777,,,177.1127,177.4782,left,0.3511,,,,,,,,,0.55,,,,,,176.8777,177.1126,177.4783,"[0.12975791387685767,0.026078211684545508]",100.0,"[-0.04166482202955833,-0.0648984275122001]",4.0,"[-0.09538326243713036,0.059985662873160026]",4.0,"[0.05890828423517389,-0.1623061820989597]",100.0,"[0.10849444463906999,-0.15864022241128292]",100.0,"[-0.019008793150325727,0.07784957664033565]",100.0,"[0.008010915007491327,0.005163769272656006]",100.0,"[0.04510007354804966,0.08678564189918311]",100.0,"[-0.14266414630570953,-0.12114732336215987]",100.0,"[-0.018100432618702523,0.16485641529425343]",100.0,"[0.08795232808411813,0.0355595523665102]",4.0,"[0.007084976440321377,-0.1734926258186623]",4.0,"[-0.03971138136826653,-0.19544075423487067]",100.0,"[-0.1549161954883101,0.07338154889290396]",4.0,"[0.16501347059014507,0.10552137491034626]",4.0,"[-0.004521313511617701,-0.03455181356845888]",100.0,"[0.04511369610192822,0.14631673735961026]",100.0,"[-0.17395548183834186,0.009719102150258983]",4.0,"[-0.11035216811249557,-0.01804302047805941]",100.0,"[0.09890502003400373,0.13798594334490058]",4.0,"[-0.05829128118367801,0.1410292741265313]",100.0,"[0.007826259629407585,0.11935907790780155]",100.0,"[-0.03635040364349459,-0.005556901960367339]",4.0,"[0.14975058933948424,-0.07514322450457268]",4.0,"[0.10926044142507157,-0.08613774182858289]",100.0,"[-0.1554022264810129,-0.03519229927977613]",4.0,"[0.18337743437224432,0.054442034824217084]",4.0,"[0.18697218183839798,0.013712392169693475]",4.0,"[0.01982735995132182,-0.09154034827845507]",4.0,"[0.044267176883494845,-0.014933721385752175]",100.0,"[-0.09306779342974607,0.16111433073172154]",100.0,"[-0.0911577724593143,-0.17385652165729873]",100.0,"[0.02,0.02]",178.5777,0.0,42.0,42.0,63.0,1.0,,,,,,,
,,,,,,,5f8739ae0483431242e11d41,683c3946c3a07ca8d797577f,2025-06-01_13h46.23.818,shape_ratio,2024.1.5,Linux x86_64,30.03003003,683ae9196541af24d3a69e58,,,,,,,,,,,178.5785,179.0778,,,179.3117,180.0451,right,0.6981,,,,,,,,,0.4,,,,,,179.0779,179.3116,180.0452,"[-0.12055478985430476,0.10396835904932145]",4.0,"[-0.12708486501318453,0.04819007432268566]",4.0,"[0.19122978046959466,-0.0521285662882932]",100.0,"[-0.14831551426318873,-0.02285513381674307]",4.0,"[0.14288008871518246,-0.07419673127084317]",4.0,"[0.055132178932750395,-0.10059409301128971]",4.0,"[-0.0024707106679179233,0.15200343363320423]",4.0,"[0.12519148140597286,-0.12248650263514035]",100.0,"[-0.08218275355054896,-0.02055399432572928]",4.0,"[-0.04606339914959263,-0.07828265188721348]",4.0,"[-0.020858623533605323,-0.15816998005273303]",100.0,"[-0.18010061259167504,0.012572860382704585]",4.0,"[0.10157067969133583,0.11850734191050884]",100.0,"[0.04207392922591863,-0.0019274292927783225]",4.0,"[-0.01896684915613539,0.05871190453759615]",4.0,"[-0.041068133126796885,0.17447080589735134]",100.0,"[0.031964875426914056,-0.16238842554235003]",100.0,"[-0.07114147118682983,0.06981362841212056]",100.0,"[-0.11337922860829325,-0.15569113312070115]",100.0,"[0.12065116099638522,0.062208623528885613]",4.0,"[-0.1554599502414302,-0.09119089859597725]",100.0,"[0.10184466223312434,-0.07123328514774858]",4.0,"[0.11274451743443523,-0.16187558520200038]",4.0,"[-0.007449001108334094,-0.04324024751814244]",100.0,"[0.11348313721276859,-0.01955356939258721]",4.0,"[0.1953818457544837,0.00006460776928177463]",4.0,"[-0.05254093428564531,0.10906312211109523]",4.0,"[0.0443046745942371,0.10615818434504373]",4.0,"[0.030443534762694457,0.19165159455583675]",100.0,"[-0.08307458145127943,0.14451207179756362]",100.0,"[0.009071234121423044,-0.10313093526685733]",100.0,"[-0.0940215592476145,-0.10576848260628373]",4.0,"[0.02,0.02]",181.1449,0.0,43.0,43.0,179.0,1.0,,,,,,,
,,,,,,,5f8739ae0483431242e11d41,683c3946c3a07ca8d797577f,2025-06-01_13h46.23.818,shape_ratio,2024.1.5,Linux x86_64,30.03003003,683ae9196541af24d3a69e58,,,,,,,,,,,181.1459,181.6439,,,181.8792,182.7117,left,0.8007,,,,,,,,,0.45,,,,,,181.644,181.8792,182.7118,"[0.01724890202119107,-0.09374517483747814]",100.0,"[0.01483173166471147,0.13277040340041582]",4.0,"[0.10732120572312562,0.03471646887159868]",4.0,"[-0.07520447977914355,-0.030031425183692857]",4.0,"[-0.11200393086541333,-0.11543830296616898]",4.0,"[-0.128626671046247,0.04790579822724657]",4.0,"[0.19043696166449875,-0.05021606165991374]",4.0,"[-0.04613235581290762,0.0750395125767144]",4.0,"[-0.08478444004141013,0.04317026815778471]",4.0,"[0.11490567244530629,0.11459016477275631]",4.0,"[0.01829580205171085,-0.14493954194570427]",4.0,"[-0.12014191169074194,-0.0399771435800619]",100.0,"[0.19353739810594983,-0.002647749778506826]",100.0,"[0.12752322737749175,-0.13751748913824585]",4.0,"[0.10153702976698646,-0.07988663837441784]",100.0,"[-0.006537459783228642,-0.17658201667256496]",4.0,"[0.060810097884581416,-0.09562435559566933]",4.0,"[0.1597740367317325,0.11546400668605908]",100.0,"[-0.18301218657660215,0.026110680294689062]",100.0,"[0.05651909492669944,0.16206594123821197]",100.0,"[0.10460407429500139,0.15667016746756482]",4.0,"[-0.09769539646379383,0.08433785863601317]",4.0,"[-0.013395559128476418,0.1851988322572076]",100.0,"[-0.04899488961306432,0.13622231164112983]",100.0,"[-0.1074770502995399,-0.16797987217211338]",100.0,"[0.04789344180027803,0.001575423378580035]",100.0,"[-0.031157606341271706,-0.020153624262748207]",4.0,"[0.06555864824810445,0.12169720690015355]",100.0,"[-0.03303198897099101,-0.1443533472966473]",4.0,"[-0.18446339984699756,-0.07451568711243002]",4.0,"[0.0910202874547583,-0.03897126990989227]",100.0,"[0.08203609730844551,-0.133382625444169]",100.0,"[0.02,0.02]",183.8112,0.0,44.0,44.0,132.0,1.0,,,,,,,
,,,,,,,5f8739ae0483431242e11d41,683c3946c3a07ca8d797577f,2025-06-01_13h46.23.818,shape_ratio,2024.1.5,Linux x86_64,30.03003003,683ae9196541af24d3a69e58,,,,,,,,,,,183.8122,184.311,,,184.5452,185.0132,left,0.445,,,,,,,,,0.9,,,,,,184.3112,184.5451,185.0133,"[-0.11078425418992463,0.1285889695183987]",100.0,"[0.014201767055307197,-0.1598869441819059]",4.0,"[0.1728545031062942,-0.09170368431003181]",100.0,"[-0.09636163186561031,-0.13655233210124482]",100.0,"[-0.1213407116570281,-0.02015677809835262]",100.0,"[0.16600214661486953,0.061279575781427335]",100.0,"[-0.0030385790247473873,0.05991541319742134]",100.0,"[-0.1198633732126994,0.07027285118742847]",100.0,"[-0.045614371292622795,0.13204651901007447]",100.0,"[0.08020905318509446,0.1593684307137387]",100.0,"[0.016735542550064826,-0.0799581123712817]",4.0,"[-0.0125893784901874,-0.04366401184817459]",100.0,"[0.016889024156908797,0.16866415270224905]",100.0,"[-0.17049966851065104,-0.00853127427485929]",100.0,"[0.08753220290317543,-0.09793817387407384]",100.0,"[-0.06302541267365086,-0.015475555927614676]",100.0,"[-0.03780538186157798,-0.10616972551150038]",100.0,"[-0.05649438043850742,0.1760515114124409]",100.0,"[0.07088280707845722,-0.16452668119769565]",100.0,"[0.05662040932021116,0.0330688052822315]",100.0,"[0.09428850221192668,0.12153429221712436]",100.0,"[0.09958243949298255,0.008319356781643058]",4.0,"[-0.003105780753779824,0.013455724320379125]",100.0,"[-0.13194760910065173,-0.07758200804750985]",100.0,"[-0.009553357909952893,0.10617407545859475]",100.0,"[0.12824958440909595,-0.13826251806543907]",100.0,"[0.12321003855907652,0.07286314942971503]",100.0,"[-0.08546434839728267,-0.08870135717998201]",100.0,"[-0.16365019969917646,0.044319902853643206]",100.0,"[-0.14444845900723868,-0.1176775686076942]",100.0,"[-0.05930876838832058,-0.1644238355278543]",100.0,"[0.18423009138097426,-0.04437958629143674]",100.0,"[0.02,0.02]",186.1103,0.0,45.0,45.0,17.0,1.0,,,,,,,
,,,,,,,5f8739ae0483431242e11d41,683c3946c3a07ca8d797577f,2025-06-01_13h46.23.818,shape_ratio,2024.1.5,Linux x86_64,30.03003003,683ae9196541af24d3a69e58,,,,,,,,,,,186.1109,186.6117,,,186.8462,187.6789,left,0.8045,,,,,,,,,0.6,,,,,,186.6118,186.8462,187.6791,"[-0.169878006961594,0.052479369575919976]",4.0,"[0.17868279168505918,-0.026520906572922193]",100.0,"[-0.16009727361877268,0.006290126123947164]",4.0,"[-0.0427698114148887,-0.1367696159490251]",100.0,"[-0.11604797795338626,0.15998542803071497]",100.0,"[-0.045598172868262864,0.05364814760791708]",4.0,"[0.03519021711343629,-0.031314112261644815]",100.0,"[0.17365349577873856,0.08626650953021021]",100.0,"[-0.16385675097402838,-0.0429124289011556]",100.0,"[-0.03571996000215776,0.1650130380432883]",100.0,"[-0.03614946721275516,0.115097765136247]",100.0,"[0.017535049545075163,-0.08315824229233776]",100.0,"[-0.13537562922685714,0.10402866029410986]",100.0,"[-0.12210472752203974,0.040611465211687243]",100.0,"[0.07646119465126008,-0.10091273362712415]",100.0,"[0.1326984375926241,-0.021260485207041897]",100.0,"[-0.09923155441611729,0.08526732901183899]",4.0,"[0.16058296223055343,-0.0967610200565782]",100.0,"[-0.12412311464400054,-0.02309602757148467]",4.0,"[-0.0021202832658350035,-0.16953425310013476]",4.0,"[-0.0034067172813588347,0.19026713362286743]",4.0,"[0.09887592535114277,-0.06261260807879475]",100.0,"[0.08935684137257738,-0.15265647098173005]",4.0,"[0.06665700443568076,0.17437142414177653]",4.0,"[0.06379816602220063,0.0943297371134446]",4.0,"[-0.08294386460447967,-0.08354013332242774]",4.0,"[0.07809624348063109,0.031882219722898494]",100.0,"[-0.03573062779572347,-0.08266368735085859]",100.0,"[-0.14640453433964673,-0.11017572179159253]",4.0,"[-0.07801987000598892,0.14203380360303405]",100.0,"[0.009853504631219008,0.04566472344217517]",100.0,"[0.17160911168375065,0.035605678366619785]",4.0,"[0.02,0.02]",188.7787,0.0,46.0,46.0,52.0,1.0,,,,,,,
,,,,,,,5f8739ae0483431242e11d41,683c3946c3a07ca8d797577f,2025-06-01_13h46.23.818,shape_ratio,2024.1.5,Linux x86_64,30.03003003,683ae9196541af24d3a69e58,,,,,,,,,,,188.7798,189.2783,,,189.5127,190.1781,right,0.6316,,,,,,,,,0.45,,,,,,189.2784,189.5126,190.1781,"[0.020554803810091803,-0.005241110175617782]",100.0,"[-0.03264669619935922,0.033530106195912956]",4.0,"[0.13590687834384338,0.038016319917161936]",100.0,"[-0.019306397035888642,-0.18159635956019793]",4.0,"[-0.02395004071110561,-0.07295290274648232]",4.0,"[-0.08592930854760411,0.0077650438678552825]",100.0,"[0.07283484932508341,-0.07508132713955892]",4.0,"[-0.18970477496189622,0.05560987695392489]",4.0,"[-0.08249560970633954,0.11460362955495863]",100.0,"[0.04583461169247769,-0.18580456853709987]",100.0,"[-0.14630054447697352,0.08073259791369028]",4.0,"[-0.08860747400888776,-0.054419809795875775]",100.0,"[0.13106549438587897,0.09891133030860244]",4.0,"[-0.041918862993238576,-0.13812098135932907]",100.0,"[0.08916737522092981,0.07010839446799774]",4.0,"[0.08105671259147473,0.11948402718154952]",4.0,"[0.06410105853472334,-0.027680531672877845]",100.0,"[-0.1327597647420451,-0.1293338639489601]",4.0,"[-0.06171005011358514,0.07947143622320077]",4.0,"[0.18808800551696364,0.008646241407768221]",100.0,"[0.05217685598862121,-0.1312697051529769]",100.0,"[0.09866715469630243,0.0026264433138210026]",100.0,"[0.014830879181581588,-0.09446636559521215]",4.0,"[-0.09656066503446105,-0.10163557368579759]",100.0,"[0.17653993683023048,-0.046983095823125424]",4.0,"[0.045685163740070776,0.18331517829049973]",100.0,"[-0.015992944253655654,0.18260097806750591]",4.0,"[-0.15337125468819127,0.12112290493383408]",4.0,"[-0.17388732502569257,-0.001468105665420861]",100.0,"[0.029524405512337343,0.13836679436235003]",4.0,"[-0.16228205250671388,-0.10020057285215457]",4.0,"[0.003654605572162127,0.05432837854934711]",4.0,"[0.02,0.02]",191.278,0.0,47.0,47.0,143.0,1.0,,,,,,,
,,,,,,,5f8739ae0483431242e11d41,683c3946c3a07ca8d797577f,2025-06-01_13h46.23.818,shape_ratio,2024.1.5,Linux x86_64,30.03003003,683ae9196541af24d3a69e58,,,,,,,,,,,191.279,191.7784,,,192.0126,192.7783,right,0.7302,,,,,,,,,0.55,,,,,,191.7785,192.0125,192.7784,"[-0.0635355137087436,0.10489589524614473]",100.0,"[-0.04582824510173545,-0.10638633605712987]",4.0,"[0.1512905940555999,0.10155948843818359]",4.0,"[0.008684551161235139,-0.005536247171980947]",4.0,"[0.12570146312012612,-0.043546943162405864]",100.0,"[-0.0776879718857302,-0.018331843681552454]",100.0,"[0.17678228880440028,-0.09182449562871783]",100.0,"[-0.030519837953563993,0.0532965950523297]",100.0,"[0.003894193553626688,-0.07630153884886731]",4.0,"[-0.17952657673664452,0.008113032995771461]",4.0,"[-0.12597376017365935,-0.06746210322741532]",4.0,"[-0.11494430299222769,0.07802205049263634]",100.0,"[0.05405847436970915,0.153057411458311]",100.0,"[0.14172989772276604,0.053700236778482825]",100.0,"[0.0983748198865919,-0.08886649931402812]",100.0,"[0.07227828490584047,0.05384172069286799]",4.0,"[0.10930540962073966,0.00029040342332539406]",100.0,"[-0.013896107354708948,0.1724158734174766]",4.0,"[0.04302059813378645,-0.181688599835205]",100.0,"[-0.015094957305484992,-0.19145164415531896]",4.0,"[-0.13814262960644932,-0.012966829879464972]",4.0,"[0.028605865770589586,0.08071697636380062]",100.0,"[0.19718154071481242,0.020186825306388302]",100.0,"[-0.08459062353136991,0.035128111446202336]",100.0,"[-0.058671523045865745,-0.18152759804864135]",4.0,"[-0.14896969785803066,-0.12102725768831127]",100.0,"[-0.07672464497701609,0.1810305760114337]",4.0,"[-0.09989147970033381,0.14478438330595306]",100.0,"[-0.17721625756589726,0.0699239735814048]",4.0,"[0.07926287984010212,0.09605082470058175]",4.0,"[0.04590785239310284,-0.0586680731047477]",100.0,"[-0.17131744647879096,-0.0806399836870276]",100.0,"[0.02,0.02]",193.8785,0.0,48.0,48.0,71.0,1.0,,,,,,,
,,,,,,,5f8739ae0483431242e11d41,683c3946c3a07ca8d797577f,2025-06-01_13h46.23.818,shape_ratio,2024.1.5,Linux x86_64,30.03003003,683ae9196541af24d3a69e58,,,,,,,,,,,193.8795,194.3781,,,194.6121,195.5779,left,0.9286,,,,,,,,,0.6,,,,,,194.3781,194.612,195.578,"[-0.005177289871455217,0.0030378206321590856]",100.0,"[-0.09697805667033117,-0.05946915086150063]",4.0,"[-0.03906527393403636,0.1944804150204348]",100.0,"[0.054239017179263896,-0.1507862312425926]",4.0,"[0.02459129958735799,0.06502769614249115]",4.0,"[0.07683031629970678,-0.010593274501995905]",4.0,"[0.017280270472449913,-0.07763359771943935]",4.0,"[-0.07808412815771985,0.1580600887032199]",100.0,"[-0.03386096827062176,-0.08245520635736352]",100.0,"[-0.0037425617661702103,0.158720734275629]",4.0,"[-0.17663687685177576,-0.08149920876198057]",100.0,"[-0.0538239022576023,0.01755517698521098]",4.0,"[-0.040196426658995706,-0.16193278742242068]",100.0,"[-0.12036470934752372,-0.007618173682832356]",100.0,"[0.1397091822063318,0.1059419169706654]",100.0,"[0.06093611242852914,0.03556961976910107]",100.0,"[-0.0777171902149645,-0.11888218372499813]",100.0,"[-0.048371127372936376,-0.02591018713551637]",100.0,"[0.15835563666178723,-0.06576031538945806]",100.0,"[-0.1064144908765805,0.10114185462298753]",100.0,"[0.09487735342078125,-0.11426410416523082]",4.0,"[0.08916469675956856,0.1779038896664103]",4.0,"[0.04631336797516463,-0.04161233831558165]",100.0,"[0.036435631104862,0.13309086976315607]",100.0,"[0.11343531860515822,0.018847491365482607]",4.0,"[0.08368174956069949,0.13728844016375566]",100.0,"[0.17584109360799052,-0.029238737467182977]",4.0,"[0.10038484119641189,0.07178600172443503]",100.0,"[-0.1272369316560944,0.14071264620239934]",100.0,"[0.1811274277582526,0.01873313687246867]",4.0,"[-0.1884052095491095,0.04034200983261287]",4.0,"[0.001504368992299083,-0.11471933978192352]",100.0,"[0.02,0.02]",196.6776,0.0,49.0,49.0,39.0,1.0,,,,,,,
