right,left,explain.started,explain.stopped,key_resp_3.keys,key_resp_3.rt,key_resp_3.duration,participant,session,date,expName,psychopyVersion,OS,frameRate,study_id,explain_2.started,explain_2.stopped,key_resp_4.keys,key_resp_4.rt,key_resp_4.duration,explain_3.started,explain_3.stopped,key_resp_5.keys,key_resp_5.rt,key_resp_5.duration,fixation.started,fixation.stopped,practice.started,practice.stopped,response.started,response.stopped,key_resp.keys,feedback.started,feedback.stopped,trials_2.thisRepN,trials_2.thisTrialN,trials_2.thisN,trials_2.thisIndex,trials_2.ran,dot_ratio,key_resp.rt,key_resp.duration,explain_4.started,explain_4.stopped,key_resp_6.keys,key_resp_6.rt,key_resp_6.duration,dotDisplay.started,dotDisplay.stopped,ITI.started,polygon_1.pos,polygon_1.edges,polygon_2.pos,polygon_2.edges,polygon_3.pos,polygon_3.edges,polygon_4.pos,polygon_4.edges,polygon_5.pos,polygon_5.edges,polygon_6.pos,polygon_6.edges,polygon_7.pos,polygon_7.edges,polygon_8.pos,polygon_8.edges,polygon_9.pos,polygon_9.edges,polygon_10.pos,polygon_10.edges,polygon_11.pos,polygon_11.edges,polygon_12.pos,polygon_12.edges,polygon_13.pos,polygon_13.edges,polygon_14.pos,polygon_14.edges,polygon_15.pos,polygon_15.edges,polygon_16.pos,polygon_16.edges,polygon_17.pos,polygon_17.edges,polygon_18.pos,polygon_18.edges,polygon_19.pos,polygon_19.edges,polygon_20.pos,polygon_20.edges,polygon_21.pos,polygon_21.edges,polygon_22.pos,polygon_22.edges,polygon_23.pos,polygon_23.edges,polygon_24.pos,polygon_24.edges,polygon_25.pos,polygon_25.edges,polygon_26.pos,polygon_26.edges,polygon_27.pos,polygon_27.edges,polygon_28.pos,polygon_28.edges,polygon_29.pos,polygon_29.edges,polygon_30.pos,polygon_30.edges,polygon_31.pos,polygon_31.edges,polygon_32.pos,polygon_32.edges,dot_size,ITI.stopped,trials.thisRepN,trials.thisTrialN,trials.thisN,trials.thisIndex,trials.ran,break_2.started,break_2.stopped,trials_3.thisRepN,trials_3.thisTrialN,trials_3.thisN,trials_3.thisIndex,trials_3.ran
subject chose dot,subject chose diamond,0.0002,48.7643,space,33.7325,,683257b42d026cccbb0eb561,684396241a0e8d6ce0b93f25,2025-06-06_21h30.52.930,shape_ratio,2024.1.5,Win32,59.88023952,6842b561977af9ba9b0f87ca,,,,,,,,,,,,,,,,,,,,,,,,,,,,,,,,,,,,,,,,,,,,,,,,,,,,,,,,,,,,,,,,,,,,,,,,,,,,,,,,,,,,,,,,,,,,,,,,,,,,,,,,,,,,,,,,,
,,,,,,,683257b42d026cccbb0eb561,684396241a0e8d6ce0b93f25,2025-06-06_21h30.52.930,shape_ratio,2024.1.5,Win32,59.88023952,6842b561977af9ba9b0f87ca,48.7653,87.7619,space,8.9763,,,,,,,,,,,,,,,,,,,,,,,,,,,,,,,,,,,,,,,,,,,,,,,,,,,,,,,,,,,,,,,,,,,,,,,,,,,,,,,,,,,,,,,,,,,,,,,,,,,,,,,,,,,,,
,,,,,,,683257b42d026cccbb0eb561,684396241a0e8d6ce0b93f25,2025-06-06_21h30.52.930,shape_ratio,2024.1.5,Win32,59.88023952,6842b561977af9ba9b0f87ca,,,,,,87.7625,91.773,space,0.9946,,,,,,,,,,,,,,,,,,,,,,,,,,,,,,,,,,,,,,,,,,,,,,,,,,,,,,,,,,,,,,,,,,,,,,,,,,,,,,,,,,,,,,,,,,,,,,,,,,,,,,,,
,,,,,,,683257b42d026cccbb0eb561,684396241a0e8d6ce0b93f25,2025-06-06_21h30.52.930,shape_ratio,2024.1.5,Win32,59.88023952,6842b561977af9ba9b0f87ca,,,,,,,,,,,91.8018,92.274,92.275,92.5257,92.5265,94.0233,,94.0239,95.1229,0.0,0.0,0.0,0.0,1.0,0.2,,,,,,,,,,,,,,,,,,,,,,,,,,,,,,,,,,,,,,,,,,,,,,,,,,,,,,,,,,,,,,,,,,,,,,,,,,,,,,,,,,,,,,,,
,,,,,,,683257b42d026cccbb0eb561,684396241a0e8d6ce0b93f25,2025-06-06_21h30.52.930,shape_ratio,2024.1.5,Win32,59.88023952,6842b561977af9ba9b0f87ca,,,,,,,,,,,95.125,95.6205,95.6208,95.8762,95.8763,96.6216,right,96.6226,97.7209,0.0,1.0,1.0,1.0,1.0,0.8,0.7272,,,,,,,,,,,,,,,,,,,,,,,,,,,,,,,,,,,,,,,,,,,,,,,,,,,,,,,,,,,,,,,,,,,,,,,,,,,,,,,,,,,,,,,
,,,,,,,683257b42d026cccbb0eb561,684396241a0e8d6ce0b93f25,2025-06-06_21h30.52.930,shape_ratio,2024.1.5,Win32,59.88023952,6842b561977af9ba9b0f87ca,,,,,,,,,,,,,,,,,,,,,,,,,,,,97.7227,102.7022,space,1.9556,,,,,,,,,,,,,,,,,,,,,,,,,,,,,,,,,,,,,,,,,,,,,,,,,,,,,,,,,,,,,,,,,,,,,,,,,,,,,,,,,,
,,,,,,,683257b42d026cccbb0eb561,684396241a0e8d6ce0b93f25,2025-06-06_21h30.52.930,shape_ratio,2024.1.5,Win32,59.88023952,6842b561977af9ba9b0f87ca,,,,,,,,,,,102.7325,103.2166,,,103.4678,103.7507,right,,,,,,,,0.6,0.2714,,,,,,,103.2172,103.4678,103.7515,"[0.12485573342724579,0.055674029567008884]",100.0,"[0.0848045310768004,0.04335463518468545]",100.0,"[-0.13854507762862311,-0.08921495972289559]",4.0,"[0.04609347505127425,-0.014366889948043145]",4.0,"[0.03639845111136878,0.1256921705182115]",4.0,"[0.09378548433170736,0.16190017855333275]",100.0,"[-0.139268950952208,0.08126105641639456]",4.0,"[-0.1091754619469689,0.12492860630875936]",4.0,"[-0.0584052421093326,-0.02048746472634775]",4.0,"[-0.0005976013825953157,-0.1964063909947482]",100.0,"[0.016987673818855586,-0.06810529246572318]",100.0,"[-0.14037394275438986,0.008361850423004486]",4.0,"[0.1093610941276709,-0.14311078808362587]",100.0,"[-0.03258914161192706,0.07718930468331875]",4.0,"[0.17303263107695108,0.024357017963690126]",100.0,"[0.06419285317723242,-0.12839609909791497]",4.0,"[0.17405013415983905,0.08650237905235732]",4.0,"[0.12130187319461526,-0.07971847335515189]",100.0,"[0.054442598853888635,-0.17893125612881372]",4.0,"[-0.011689204162029412,0.01496943749447501]",100.0,"[0.00913743803447565,0.07740274771759327]",100.0,"[-0.09321398851307196,-0.14428664917542236]",100.0,"[-0.18236248771251998,0.08211654962827102]",100.0,"[-0.10071017013831056,-0.030949157635332406]",100.0,"[0.13975982357369734,-0.01860459306144658]",100.0,"[0.08764490731089025,0.08523382643534012]",100.0,"[-0.1861727671542867,-0.04612760637356426]",100.0,"[-0.09980326097563302,-0.07606139716318516]",4.0,"[-0.05870604636679302,0.044345339560947945]",4.0,"[-0.02118746838997375,0.12245580042286182]",100.0,"[0.03728276633285398,0.16622556108351588]",100.0,"[-0.06634262250605216,0.11172846283684423]",100.0,"[0.02,0.02]",104.8506,0.0,0.0,0.0,55.0,1.0,,,,,,,
,,,,,,,683257b42d026cccbb0eb561,684396241a0e8d6ce0b93f25,2025-06-06_21h30.52.930,shape_ratio,2024.1.5,Win32,59.88023952,6842b561977af9ba9b0f87ca,,,,,,,,,,,104.8512,105.35,,,105.5993,106.116,left,,,,,,,,0.6,0.5034,,,,,,,105.3501,105.5992,106.1162,"[-0.09218211574530194,0.05645173545372934]",100.0,"[-0.1235936867980362,0.09557933799012591]",100.0,"[0.17334692970543653,-0.010453104032521327]",100.0,"[0.10003210791772568,-0.10912232018011478]",4.0,"[0.051215554575457366,-0.15902754336643934]",4.0,"[-0.03017890188125168,-0.1798369364217003]",100.0,"[-0.11615838125249729,-0.09673346086103186]",4.0,"[-0.044936580678837136,-0.012404437086147073]",4.0,"[0.04961540375580922,-0.1037156127166338]",100.0,"[0.09491124399377544,-0.06543315117677946]",4.0,"[-0.07396046697112456,-0.04923297788669461]",100.0,"[0.022077320895272323,-0.029924494118827274]",100.0,"[0.12631340039585295,0.13077047471496742]",100.0,"[-0.0009787295786799419,0.19847463630451237]",4.0,"[-0.07795696666029572,-0.15090943595482667]",4.0,"[-0.16006776820898608,-0.014179802260924664]",4.0,"[0.00826792355330221,-0.06978159035190368]",100.0,"[0.07871399562544479,0.033592969138272304]",100.0,"[0.07962361254509208,0.13569769226868675]",4.0,"[-0.12031592775550387,-0.02763223014829675]",100.0,"[-0.02684636937140307,-0.13059554790353894]",4.0,"[-0.19980547027685214,-0.0076790688955038705]",100.0,"[0.13658952242514044,-0.04061244818399203]",100.0,"[-0.18004678328138707,0.07941568049896497]",100.0,"[-0.15534163178356225,-0.06466391865215616]",4.0,"[-0.006622900741264895,0.03628271265955016]",100.0,"[0.1740939689623939,0.03820287736741828]",100.0,"[0.03495347359099984,0.09752165612299013]",100.0,"[-0.024218023390695596,0.0841722959100212]",100.0,"[0.1296885672229134,0.05560475195946811]",4.0,"[0.0753040812875114,0.07459324739315702]",100.0,"[-0.08509122815281356,0.16182315438123973]",4.0,"[0.02,0.02]",107.2149,0.0,1.0,1.0,35.0,1.0,,,,,,,
,,,,,,,683257b42d026cccbb0eb561,684396241a0e8d6ce0b93f25,2025-06-06_21h30.52.930,shape_ratio,2024.1.5,Win32,59.88023952,6842b561977af9ba9b0f87ca,,,,,,,,,,,107.2153,107.716,,,107.9665,108.198,right,,,,,,,,0.45,0.2119,,,,,,,107.7161,107.9665,108.1981,"[-0.14632930019892373,0.02821376685701845]",100.0,"[-0.005754349207301878,-0.11590586236015185]",4.0,"[-0.05051821023656382,-0.12219399091433893]",100.0,"[0.10456785205064634,-0.06777316909776054]",4.0,"[0.07800337403467268,-0.17510797324642519]",100.0,"[-0.1671590699693991,-0.006516672641425089]",100.0,"[0.08971799900711487,0.14001282246913746]",4.0,"[0.03554383750115329,0.07192408203942971]",100.0,"[0.16006253671433723,-0.10221277087485334]",4.0,"[0.0757835029615924,-0.022172848338630625]",100.0,"[0.19277864530745312,-0.04098161054586072]",4.0,"[0.15299094687031023,-0.019228912892986463]",100.0,"[-0.14281806583044576,-0.11902660140515792]",100.0,"[0.02439978705772474,-0.006307115473829959]",100.0,"[0.07903331750267474,0.037900753003649874]",4.0,"[-0.15929043904077061,-0.07593945312692711]",4.0,"[-0.1185797152061911,0.07476683018769725]",100.0,"[-0.016848302977295743,-0.17580937524602133]",4.0,"[-0.03786810754819067,-0.044677758454923125]",4.0,"[0.1318891544348197,0.0942722354425617]",4.0,"[-0.06122929473819488,0.18514292387295167]",4.0,"[0.16802670496474367,0.07469118844290518]",100.0,"[0.04492383436147981,-0.12335600387285277]",4.0,"[-0.000464720652841951,0.03948768596313496]",4.0,"[-0.16164165695267158,0.09851251182072703]",4.0,"[0.02314295565558246,0.1834945557582074]",4.0,"[-0.04234785061808523,0.11486717268937746]",100.0,"[-0.12862811269704727,-0.024366683157305835]",4.0,"[-0.0029812262264941407,0.13223657393488453]",4.0,"[-0.08584484350099299,-0.1474320188405981]",100.0,"[0.02507197118355592,-0.18952543874304684]",100.0,"[-0.03826892232454769,0.0015451652172066871]",4.0,"[0.02,0.02]",109.2969,0.0,2.0,2.0,139.0,1.0,,,,,,,
,,,,,,,683257b42d026cccbb0eb561,684396241a0e8d6ce0b93f25,2025-06-06_21h30.52.930,shape_ratio,2024.1.5,Win32,59.88023952,6842b561977af9ba9b0f87ca,,,,,,,,,,,109.2972,109.7979,,,110.0493,110.172,left,,,,,,,,0.55,0.1025,,,,,,,109.7979,110.0489,110.1722,"[0.03770818536778414,-0.10777030214062375]",100.0,"[-0.1560356708114477,-0.0011833418131075918]",4.0,"[-0.022735085823433157,0.1885386440855053]",4.0,"[-0.0978468670354643,0.151071932521118]",4.0,"[0.0810893893277085,-0.13008170004342046]",100.0,"[-0.09994190038140682,-0.16190139586112795]",100.0,"[0.13580260639381891,0.07547028128397336]",100.0,"[0.1423022705741478,-0.12436632711786612]",4.0,"[-0.017770564991705127,-0.10182247448271968]",4.0,"[-0.09423927800475157,-0.01486732086512817]",100.0,"[0.0015867098684878454,0.11627204457704622]",100.0,"[0.09093265028020496,0.12440925750077332]",100.0,"[0.03406403189058133,0.16367474823888936]",100.0,"[-0.05276208347761667,-0.021259136666750274]",100.0,"[0.15407802171901228,-0.07289653031694533]",4.0,"[-0.060172220516107634,0.12356439493410416]",4.0,"[0.12237186482511132,0.009660257647118321]",100.0,"[-0.15834680007527838,-0.10315271665048975]",4.0,"[-0.00628813447377881,-0.18231343523231808]",100.0,"[0.06302450724125176,0.051075384260661875]",100.0,"[-0.11560465481486357,0.1042663623502477]",100.0,"[-0.11381389727471806,-0.05404768915119967]",100.0,"[0.03513258792792068,-0.05113816542241884]",4.0,"[-0.046930814094290646,0.03606140233510058]",100.0,"[0.056950818517198916,0.011056744163218843]",100.0,"[-0.0342312858950702,-0.05964412272153681]",4.0,"[0.062363455860309905,-0.18656104344407062]",4.0,"[-0.08499620440491563,-0.11294921048079172]",100.0,"[-0.09887509449533628,0.06105012036073225]",4.0,"[0.15737606043947744,0.12007282449558211]",4.0,"[-0.15758253770904218,0.0755479367634878]",100.0,"[0.16855265308893702,0.03982096182234947]",4.0,"[0.02,0.02]",111.2637,0.0,3.0,3.0,88.0,1.0,,,,,,,
,,,,,,,683257b42d026cccbb0eb561,684396241a0e8d6ce0b93f25,2025-06-06_21h30.52.930,shape_ratio,2024.1.5,Win32,59.88023952,6842b561977af9ba9b0f87ca,,,,,,,,,,,111.2647,111.7629,,,112.0132,112.0981,right,,,,,,,,0.45,0.0628,,,,,,,111.763,112.0131,112.0984,"[0.11011956191760604,-0.13569324192304946]",4.0,"[-0.012894895528939012,-0.06793509974918664]",100.0,"[0.050608860112876124,0.07007729315187175]",100.0,"[-0.018555047858103368,0.19478527695108871]",100.0,"[-0.15807560363693784,0.07134722308884647]",4.0,"[-0.04160455971706804,-0.15944772766606774]",4.0,"[-0.009601454438594939,0.14266601184908786]",100.0,"[0.1562279083639626,0.029393645302762228]",100.0,"[-0.05027389513851078,0.1473875721105905]",100.0,"[-0.09255626667700721,0.11637570832028718]",4.0,"[0.06249463437946132,-0.10241045209431819]",4.0,"[0.034687613094042426,0.17289166279523854]",4.0,"[0.1036704611487503,-0.09108464697469351]",100.0,"[0.04315048186253405,-0.13777244534698013]",4.0,"[-0.1689816703634831,-0.1033851133851076]",4.0,"[0.17513949465298326,0.08387512409370694]",100.0,"[0.021253798100881346,0.0011779798826705653]",4.0,"[-0.006882390969693645,0.046800498987669366]",4.0,"[-0.06141553322636242,0.08572525324171226]",4.0,"[0.063402973144677,0.023425567608775847]",4.0,"[-0.07544886443124738,-0.04826204171665206]",100.0,"[0.19371177174141593,-0.0026454107036352936]",4.0,"[-0.029488548816596426,-0.11257336279137103]",4.0,"[0.007828712826499877,-0.1757645640850758]",100.0,"[-0.014747992108939291,-0.018955968342938587]",100.0,"[-0.06753769372982119,-0.09625121200682434]",100.0,"[-0.19463651750694055,-0.008005045944540847]",4.0,"[-0.08181577111368654,0.044620737565356776]",100.0,"[0.11519521492747792,-0.0014235741005329849]",4.0,"[-0.14722693413410684,-0.036164317227916694]",100.0,"[-0.11052624574738021,-0.11131671367131375]",4.0,"[0.1768071150536475,-0.07343768045288256]",4.0,"[0.02,0.02]",113.195,0.0,4.0,4.0,140.0,1.0,,,,,,,
,,,,,,,683257b42d026cccbb0eb561,684396241a0e8d6ce0b93f25,2025-06-06_21h30.52.930,shape_ratio,2024.1.5,Win32,59.88023952,6842b561977af9ba9b0f87ca,,,,,,,,,,,113.1958,113.6971,,,113.9456,114.0292,right,,,,,,,,0.6,0.0672,,,,,,,113.6972,113.9455,114.0292,"[-0.012190958913645165,-0.19781877947773538]",100.0,"[-0.06740410092196551,-0.0006680671391350701]",4.0,"[0.1486235369278222,-0.006246679428707631]",100.0,"[-0.03974830864301247,-0.12837243868443715]",4.0,"[-0.033451635505325115,0.09537830761196674]",100.0,"[0.19611697048912036,0.016387249442817338]",100.0,"[-0.1046709764909416,0.06162268558629596]",100.0,"[0.1030097923252705,0.1343471035876382]",100.0,"[0.007382347625481106,-0.0975941653675084]",100.0,"[-0.12744665381772183,-0.12185575325701879]",100.0,"[0.08221143066369206,-0.1045817050126859]",100.0,"[0.07135178651960741,-0.06057306517768156]",100.0,"[0.14719829547459182,-0.09721674815778601]",4.0,"[0.03716677800084517,-0.025778658249192923]",100.0,"[0.013356204710989006,0.14150039201995152]",100.0,"[0.04452938810180462,0.10265850152516691]",4.0,"[-0.06436654709566604,0.1874184171141241]",4.0,"[-0.11336240539517786,-0.04907810253235153]",4.0,"[0.10297961944314103,0.09090579863221217]",4.0,"[-0.025071477241728042,0.0057810587954904525]",4.0,"[0.07986242286124126,-0.16223677389044336]",100.0,"[-0.17452599262488486,0.07824144683324041]",100.0,"[-0.0625902390952846,-0.06701604285060558]",4.0,"[0.10419936207140908,0.005576752590542443]",100.0,"[0.055230945460803045,0.01757450337521341]",100.0,"[0.16502561175490077,0.07682079879882497]",4.0,"[0.055871463235091394,0.1538079321637666]",100.0,"[0.04477884072162277,0.060579442000381734]",4.0,"[-0.08673090652502972,-0.16852022519350632]",100.0,"[-0.08217614027885271,-0.10294837192128851]",4.0,"[-0.04665837743719979,-0.17564089759594242]",100.0,"[0.04055112335051034,-0.12491841113453588]",4.0,"[0.02,0.02]",115.128,0.0,5.0,5.0,57.0,1.0,,,,,,,
,,,,,,,683257b42d026cccbb0eb561,684396241a0e8d6ce0b93f25,2025-06-06_21h30.52.930,shape_ratio,2024.1.5,Win32,59.88023952,6842b561977af9ba9b0f87ca,,,,,,,,,,,115.1285,115.6275,,,115.8778,117.077,right,,,,,,,,0.6,1.1869,,,,,,,115.6275,115.8778,117.077,"[0.13623533043453953,-0.03253016744175307]",4.0,"[-0.11495275653752507,0.030228560742670826]",100.0,"[-0.06371434940842874,0.006575505478711033]",100.0,"[-0.034544698122165915,-0.04054150252408731]",100.0,"[-0.15945980039461496,-0.06725754466461167]",100.0,"[0.1323433725954848,0.03785198375523325]",4.0,"[-0.015517597811010066,-0.1589106863102892]",4.0,"[0.09423079737264287,-0.05750151156765287]",100.0,"[0.047121568796990684,0.15181620316610756]",4.0,"[-0.004810247009088386,0.15681735329249835]",100.0,"[-0.03739754250928364,0.07736413146852554]",100.0,"[0.06914204797457014,0.10250605974871566]",100.0,"[-0.12091969306753372,0.1358653024171867]",100.0,"[0.14910808519486518,-0.1247789882122101]",4.0,"[0.13954501775296532,0.13436882459403462]",4.0,"[-0.08988770730225046,0.08636141702551232]",100.0,"[0.0984616309689333,-0.10711223762810462]",4.0,"[-0.11865194898525365,-0.014700498735934481]",100.0,"[0.04796139208462217,0.002589348415036715]",4.0,"[-0.06237872701977293,0.12292443734792183]",100.0,"[0.024149112035060618,0.09079284453269384]",4.0,"[-0.19534988934530167,-0.01958287392156248]",100.0,"[-0.1147892889691892,-0.11863281383706495]",100.0,"[0.0390026983795323,-0.06403213214197448]",100.0,"[-0.08735987169085496,-0.0403236610418743]",100.0,"[-0.10293022547129618,-0.16483211171899403]",4.0,"[0.08966969479561804,-0.1526021504022404]",4.0,"[0.18376382642469846,-0.055619497004142204]",100.0,"[0.021732867953068093,-0.13662908126821863]",100.0,"[0.17226175534901747,0.020636579256119017]",4.0,"[-0.011148448750956327,0.0038495049502905096]",4.0,"[-0.15554881220187325,0.048658769214070606]",100.0,"[0.02,0.02]",118.1763,0.0,6.0,6.0,49.0,1.0,,,,,,,
,,,,,,,683257b42d026cccbb0eb561,684396241a0e8d6ce0b93f25,2025-06-06_21h30.52.930,shape_ratio,2024.1.5,Win32,59.88023952,6842b561977af9ba9b0f87ca,,,,,,,,,,,118.1771,118.6764,,,118.9262,119.0601,left,,,,,,,,0.1,0.1259,,,,,,,118.6765,118.9262,119.0602,"[-0.08553870192420042,-0.058735053660868765]",4.0,"[0.011148473046013019,0.10980107595123571]",4.0,"[0.08852342682288158,0.13517382260963354]",4.0,"[-0.19299835306296012,0.021727509079043163]",4.0,"[0.08434373947929132,0.04350966041845404]",100.0,"[-0.06717338353018211,0.01618524220196886]",4.0,"[-0.048410198891436745,0.17311218470708398]",100.0,"[0.0022251198657362256,-0.09536447618698117]",4.0,"[0.06439576643174812,-0.06282962485249674]",4.0,"[-0.13179389604022151,-0.144047912857358]",4.0,"[-0.054167224009834515,0.06243082376144034]",4.0,"[0.01940305959685978,0.17836198816821525]",4.0,"[-0.049078167658508046,-0.1805521995728535]",4.0,"[0.14083652553373352,-0.06859680294278231]",4.0,"[0.1564835468901529,0.10652556033312088]",4.0,"[0.014038726285980374,0.05177952763854375]",4.0,"[-0.1054674175234865,-0.10764140063518954]",4.0,"[0.05489739188210861,-0.1767046420104431]",4.0,"[0.09267272337276165,-0.12681874654343991]",4.0,"[-0.10021896994410236,-0.0064703064004208635]",4.0,"[0.016871085241886984,-0.0023489359679792544]",100.0,"[0.10400299990106328,0.09713240884044687]",4.0,"[0.008935508876823282,-0.14164275342201896]",4.0,"[-0.10249870861479693,0.059148405644057246]",4.0,"[0.051297149931937694,-0.11896628255584116]",4.0,"[-0.16577471589114431,0.08625872285790928]",4.0,"[-0.14342230987793514,-0.015906509767875537]",4.0,"[-0.04389904927867947,-0.04674733299136374]",4.0,"[0.16054977962763273,-0.01963509109344849]",4.0,"[0.1611825131327402,-0.11546287317738026]",4.0,"[-0.09010716565808695,0.1557627426502207]",4.0,"[0.09525383744265618,-0.036706565899259976]",4.0,"[0.02,0.02]",120.1596,0.0,7.0,7.0,205.0,1.0,,,,,,,
,,,,,,,683257b42d026cccbb0eb561,684396241a0e8d6ce0b93f25,2025-06-06_21h30.52.930,shape_ratio,2024.1.5,Win32,59.88023952,6842b561977af9ba9b0f87ca,,,,,,,,,,,120.1603,120.6585,,,120.9094,121.0753,right,,,,,,,,0.1,0.1519,,,,,,,120.6586,120.9094,121.0754,"[-0.03932112141494917,0.15551741732996652]",4.0,"[-0.08986246581532975,-0.0049807175314144575]",4.0,"[-0.05017654573319114,-0.04297733274215993]",4.0,"[0.13072782102117228,0.040750450212090325]",4.0,"[0.0491156046127326,0.0768098329043868]",4.0,"[0.014286069493674561,0.16622273584015507]",4.0,"[-0.04240118184873052,-0.1571586970355435]",4.0,"[-0.1654387087859987,-0.06336035253758542]",4.0,"[-0.11038592555426188,0.12059620077359368]",4.0,"[0.023575918746324916,-0.19552104739317702]",4.0,"[0.11462619303992064,0.08790395109369092]",4.0,"[0.017207174710917216,-0.05560100533687274]",4.0,"[-0.14136103735433783,-0.10653764728629764]",100.0,"[0.10538992499764156,0.13343974527470245]",4.0,"[-0.06516205128597756,0.039652495974507845]",4.0,"[0.02973336909466507,-0.13435198497434625]",4.0,"[-0.01090360028202879,-0.10694844043381753]",4.0,"[-0.10040579939400268,-0.10419804421961705]",4.0,"[-0.14983945995061654,0.09504509197378655]",4.0,"[-0.19074365090282627,0.019360756339086384]",100.0,"[0.19254852843104897,0.023814590711833096]",4.0,"[-0.15888766197482115,-0.01969831640944931]",4.0,"[-0.10186470315408555,-0.04816210394870699]",4.0,"[0.1510008089831641,0.12006164004796012]",4.0,"[0.1559444205984057,-0.08892187666650776]",4.0,"[0.059187537145986034,-0.06183890581062364]",4.0,"[0.12927738081364354,-0.14688860452254776]",4.0,"[-0.09789239473197345,-0.16680659602155753]",4.0,"[0.07991520066608894,-0.01798018714513204]",4.0,"[0.020852106417175553,0.04650234855535317]",100.0,"[-0.012709021422377441,-0.01565538537442734]",4.0,"[0.07533128142942,-0.15926081956827134]",4.0,"[0.02,0.02]",122.1745,0.0,8.0,8.0,191.0,1.0,,,,,,,
,,,,,,,683257b42d026cccbb0eb561,684396241a0e8d6ce0b93f25,2025-06-06_21h30.52.930,shape_ratio,2024.1.5,Win32,59.88023952,6842b561977af9ba9b0f87ca,,,,,,,,,,,122.1749,122.6746,,,122.924,123.3902,right,,,,,,,,0.45,0.458,,,,,,,122.6746,122.924,123.3903,"[-0.09352574757942358,-0.053248359737926444]",4.0,"[-0.08619951825544216,0.14889323369986474]",100.0,"[0.06054243644120892,0.1404341221091218]",4.0,"[-0.0027619442268707124,0.16804087832317938]",100.0,"[-0.16272819676950717,0.10659484543800889]",100.0,"[0.09521306553748926,0.06720267946386368]",100.0,"[0.07004862781785993,-0.014629828555405433]",100.0,"[0.048295878754028514,0.033644154863001256]",4.0,"[0.004200507669148675,-0.003647292577496186]",4.0,"[0.1720442966353729,-0.042914242877563825]",4.0,"[0.07315298066260419,-0.08630771856986826]",4.0,"[0.013000114340519606,-0.15404289248724273]",100.0,"[-0.08100261254419805,0.0834441045716439]",100.0,"[-0.09440591717335807,0.024438978491382574]",4.0,"[0.10208638971913692,-0.16073502874699974]",4.0,"[0.06904016730631715,-0.1377281166665919]",4.0,"[0.009877637986381282,0.09818089163751965]",4.0,"[0.14852903686645166,-0.10815117969546365]",4.0,"[-0.16216317515405,-0.03974882062048931]",100.0,"[0.10588112063919625,0.12206191363136161]",4.0,"[-0.19173760855040656,-0.012202513771679864]",4.0,"[0.12687465648140603,0.012549559208985277]",100.0,"[-0.11775957386405157,0.11551414641419391]",4.0,"[-0.026542352398777055,0.0333924257372413]",100.0,"[-0.01751205472949527,-0.042317493297395134]",100.0,"[-0.035460448632221656,-0.19190062630703844]",4.0,"[0.13771378620142763,0.07776845579456551]",100.0,"[0.0363370706045253,-0.04611906193560904]",100.0,"[-0.02324215423758732,-0.09193007602447699]",100.0,"[-0.13542224702831893,-0.08413126592631394]",4.0,"[-0.1530426440805963,-0.0005607416575486526]",4.0,"[-0.14890842309667446,0.04971619489697387]",4.0,"[0.02,0.02]",124.491,0.0,9.0,9.0,142.0,1.0,,,,,,,
,,,,,,,683257b42d026cccbb0eb561,684396241a0e8d6ce0b93f25,2025-06-06_21h30.52.930,shape_ratio,2024.1.5,Win32,59.88023952,6842b561977af9ba9b0f87ca,,,,,,,,,,,124.4918,124.9898,,,125.2281,125.6737,left,,,,,,,,0.9,0.4261,,,,,,,124.9898,125.228,125.674,"[-0.11970920125529229,0.07987370680452444]",100.0,"[-0.10291944325236906,0.0042184370267905735]",4.0,"[-0.1531238006969562,0.12836569129486744]",100.0,"[0.047912779262273324,-0.01906888264117495]",100.0,"[-0.08331188752700369,-0.11253900349746132]",100.0,"[0.028767646926940962,-0.15217668308533533]",100.0,"[-0.005843160897146373,0.13871345757350695]",100.0,"[0.07246789479392902,-0.08518746500378294]",100.0,"[-0.023433642024223454,-0.12890502770002712]",100.0,"[0.16965416482012877,-0.017374748016030235]",100.0,"[0.07698984011786819,0.07435539808939279]",100.0,"[-0.06911808827285443,0.05536131187385733]",100.0,"[-0.04349553140890329,-0.029014690588649143]",100.0,"[0.11703121459917391,0.05900640408081394]",100.0,"[-0.16221515948109222,-0.0868292563422654]",4.0,"[-0.1160794335403424,-0.044249615212147035]",100.0,"[-0.16335216173062628,-0.029757199672151728]",100.0,"[0.13084551148193604,-0.0043311617956013964]",100.0,"[-0.18363395879934405,0.07887962012885763]",100.0,"[-0.14993854684856772,0.037247336776416146]",100.0,"[0.15201770908507956,0.09112003462615946]",100.0,"[-0.11091300422248382,0.12963147045604798]",100.0,"[0.030773621044316583,-0.05950797917688457]",100.0,"[-0.019439092312909474,0.010773441705753464]",100.0,"[0.08911632349664196,-0.13495008404698539]",100.0,"[0.003154339829329288,0.07437609436737753]",100.0,"[0.05065576423248508,-0.1875124889165373]",100.0,"[0.16699338178906967,-0.0643484510256449]",100.0,"[-0.012096303279983872,-0.1774724192434913]",100.0,"[-0.057143531707984606,0.10356979646746627]",100.0,"[0.07360440402594645,0.0167880150610678]",4.0,"[0.035821247214553806,0.14870365017226633]",100.0,"[0.02,0.02]",126.7735,0.0,10.0,10.0,27.0,1.0,,,,,,,
,,,,,,,683257b42d026cccbb0eb561,684396241a0e8d6ce0b93f25,2025-06-06_21h30.52.930,shape_ratio,2024.1.5,Win32,59.88023952,6842b561977af9ba9b0f87ca,,,,,,,,,,,126.7753,127.2726,,,127.5234,127.9723,left,,,,,,,,0.5,0.4342,,,,,,,127.2727,127.5232,127.9724,"[0.19544487176586905,-0.038750871973182874]",100.0,"[-0.08558701963762189,-0.14700533597568563]",4.0,"[0.06968071998055526,-0.045068041571065386]",4.0,"[-0.05666647148140569,0.16956537649403106]",100.0,"[-0.09029176783450422,0.01055972266624923]",4.0,"[0.17574560191564198,0.037964769976366934]",100.0,"[0.030829058401582805,-0.06183607524849875]",4.0,"[-0.08617073158305064,0.08293314080502841]",4.0,"[0.013063702082837893,-0.007960980938288849]",100.0,"[0.09287474101933171,-0.008707136066578525]",4.0,"[-0.00861815586388937,-0.15495762558941742]",100.0,"[0.08745446626558316,0.14165669260995262]",100.0,"[0.05971089481278346,-0.14437054976529295]",4.0,"[-0.14275555505097678,0.1235417471967142]",100.0,"[-0.18129076525036253,0.08243787859925995]",4.0,"[0.13280291029481406,0.03964411330924529]",100.0,"[-0.03916381071095044,-0.10611844606975714]",4.0,"[-0.14567225675585962,0.057969468035271116]",4.0,"[-0.15387989065785412,-0.06869215781034475]",4.0,"[-0.17955115102086971,-0.003521824828875055]",100.0,"[-0.10765067885120776,-0.034803539194563915]",4.0,"[-0.04381082781221707,0.11856342933558023]",100.0,"[0.019954872756230067,0.16311051156799172]",100.0,"[-0.05660382556076894,-0.04114704614599357]",100.0,"[-0.10120355044190986,0.1326648350222881]",4.0,"[0.13117471413887952,-0.03410507114076276]",4.0,"[0.10399097611526999,0.06984857777273906]",100.0,"[-0.12168163119463893,-0.12170959654293566]",100.0,"[0.03472521256302748,0.02961907843970285]",4.0,"[0.1634759568137062,0.0839885009130919]",100.0,"[0.12654466894041735,-0.11497888596355355]",100.0,"[0.021100572841421313,-0.12466603227372454]",4.0,"[0.02,0.02]",129.0706,0.0,11.0,11.0,116.0,1.0,,,,,,,
,,,,,,,683257b42d026cccbb0eb561,684396241a0e8d6ce0b93f25,2025-06-06_21h30.52.930,shape_ratio,2024.1.5,Win32,59.88023952,6842b561977af9ba9b0f87ca,,,,,,,,,,,129.0717,129.5714,,,129.8231,129.9046,right,,,,,,,,0.1,0.0565,,,,,,,129.5715,129.823,129.9048,"[-0.12377633797061885,-0.09220284465279961]",4.0,"[-0.059107819352166364,-0.02764744824884609]",4.0,"[0.11394515643597745,0.04840563738358952]",4.0,"[-0.12258218969916346,0.06650580606073007]",4.0,"[0.06426306339547178,0.12825950547182913]",4.0,"[0.08686097330414289,-0.1691181128416074]",4.0,"[-0.15833662069844964,0.08497157541646534]",100.0,"[0.027951919178775264,-0.017188981843078738]",4.0,"[-0.18751949092599984,-0.05991563838564575]",4.0,"[-0.026652915184741527,-0.06269266454706349]",4.0,"[-0.1110274575229076,0.019655054082904803]",4.0,"[0.0700169954575233,0.06416199690232491]",4.0,"[0.1416577713600236,0.11258453446667821]",4.0,"[0.08411970245570186,-0.041184308122802916]",4.0,"[-0.11294632735525378,0.10958743913622686]",4.0,"[0.0004648548629400987,0.01269205919786411]",4.0,"[0.13136322338241554,-0.009640570591670066]",4.0,"[-0.09512520031623214,-0.1358894780370765]",4.0,"[0.017992287885014904,0.15322223639062213]",100.0,"[0.005095582203646386,-0.11926538605263735]",100.0,"[-0.0587976435986795,-0.16380475460044083]",4.0,"[-0.11058291258804598,-0.03473783470879592]",4.0,"[-0.015236284797191513,0.19272694140408364]",4.0,"[-0.078211338986826,0.1613918301701682]",4.0,"[0.06068704098960206,0.1699936518607562]",4.0,"[-0.19399315877578077,0.02569115654147871]",4.0,"[0.01175680790257228,0.1008807115225703]",4.0,"[0.001332875625614295,0.05718221669215065]",4.0,"[-0.0311857937444633,0.11342961876304043]",4.0,"[-0.07383666841966668,0.08339645148032636]",4.0,"[0.19415800905091038,0.02091181324959222]",4.0,"[-0.17283198898243735,-0.09860702362983621]",4.0,"[0.02,0.02]",131.0048,0.0,12.0,12.0,184.0,1.0,,,,,,,
,,,,,,,683257b42d026cccbb0eb561,684396241a0e8d6ce0b93f25,2025-06-06_21h30.52.930,shape_ratio,2024.1.5,Win32,59.88023952,6842b561977af9ba9b0f87ca,,,,,,,,,,,131.0061,131.5023,,,131.754,131.8533,right,,,,,,,,0.5,0.0775,,,,,,,131.5024,131.7539,131.8533,"[-0.01068423115212666,0.1875950512422129]",4.0,"[-0.06975979177470754,0.04356046211377678]",4.0,"[-0.14167385422112977,0.10422637236999734]",4.0,"[-0.05619079025615961,0.11454343379165736]",100.0,"[-0.17277170090887747,-0.07170331467433275]",4.0,"[0.07234148147053686,-0.07949095076256195]",100.0,"[-0.1425632219546798,-0.10509465427414365]",100.0,"[0.06758249775969545,0.09888101833267281]",100.0,"[-0.13672480913482923,-0.016646104367794342]",4.0,"[-0.08902752602256392,0.0044218834097838]",4.0,"[0.16059832747000433,-0.11329169516389175]",4.0,"[0.11659666502964919,-0.07340278359932512]",100.0,"[-0.039226480552703794,-0.022987866202299555]",100.0,"[-0.18155335745877593,0.060576792607891776]",4.0,"[-0.0398608170094034,-0.10231170900897486]",100.0,"[0.13623346386972737,0.11611527399502784]",100.0,"[-0.09362256482037175,0.1436471971736762]",4.0,"[0.03599264699602492,0.004783664261540286]",4.0,"[0.0033767887880323177,-0.0917789639424014]",100.0,"[0.01835997608103013,0.11347704566741258]",4.0,"[-0.03855943916024117,0.07668162321626809]",100.0,"[0.12202825524535212,0.03627804679745951]",4.0,"[0.11406685347771348,0.16427819708938418]",100.0,"[-0.008236515784595284,-0.19199927031943567]",4.0,"[-0.16351092674534162,0.015703309120317404]",100.0,"[0.19303378367964025,-0.01535435970014459]",100.0,"[0.06095213958042693,-0.12075150637869027]",100.0,"[0.06652012424885206,-0.16953349561611783]",4.0,"[0.05781054005229753,0.04553629218086693]",4.0,"[-0.09462008433373592,-0.03750422023113263]",100.0,"[-0.12321338941005958,-0.15568409679598652]",4.0,"[-0.06669365125667319,-0.15722184720722993]",100.0,"[0.02,0.02]",132.9528,0.0,13.0,13.0,100.0,1.0,,,,,,,
,,,,,,,683257b42d026cccbb0eb561,684396241a0e8d6ce0b93f25,2025-06-06_21h30.52.930,shape_ratio,2024.1.5,Win32,59.88023952,6842b561977af9ba9b0f87ca,,,,,,,,,,,132.9537,133.4525,,,133.7033,133.9033,left,,,,,,,,0.1,0.1859,,,,,,,133.4526,133.7033,133.9034,"[-0.04384518400519236,-0.12456369678967419]",4.0,"[-0.18366808869729737,0.04366117069899469]",4.0,"[0.18968965535150697,-0.03399612377473145]",4.0,"[-0.117795653620074,0.15903849372322107]",4.0,"[-0.0007833413784505073,-0.10460851644172321]",4.0,"[-0.014277593009843874,0.17690440894591314]",4.0,"[0.011079002994327914,-0.1586362707874982]",4.0,"[0.15409256971203072,0.005970022520735966]",100.0,"[0.07370768714781573,-0.007920739539617666]",4.0,"[-0.1110526847334352,-0.1432157398643331]",4.0,"[0.08049712715099244,-0.11662955229386503]",4.0,"[-0.1363784479474423,0.040138725143998015]",4.0,"[-0.1608500906793308,0.0009056886390758282]",4.0,"[-0.07397220523673455,0.0648534554148327]",4.0,"[0.009246312856685346,-0.052582720312959796]",4.0,"[0.03778452357820245,0.024373286641697946]",4.0,"[0.10651826825816256,0.12263160727467634]",4.0,"[-0.005529505578660922,0.09683833699505018]",4.0,"[0.16536553687362437,-0.08343630372444984]",4.0,"[0.14727269268914697,0.1345744584801344]",4.0,"[0.11410046654437983,-0.006440853616870553]",4.0,"[0.08882420542755551,-0.170529805688846]",4.0,"[0.08732351002567756,-0.06505054029835863]",100.0,"[-0.07432750057465651,-0.17733404098713093]",4.0,"[-0.16800244483311974,-0.04928165590685956]",4.0,"[-0.04255563341747767,0.13285073815278015]",4.0,"[0.15908322142879527,0.06053614599300879]",100.0,"[-0.1717783458746541,-0.0938028836979766]",4.0,"[-0.1615022900821454,0.09135211999954795]",4.0,"[-0.09684841836465753,-0.03246528221555472]",4.0,"[0.036380952691590605,0.13939695820540798]",4.0,"[0.06500721247901388,0.18528450304046606]",4.0,"[0.02,0.02]",135.0023,0.0,14.0,14.0,196.0,1.0,,,,,,,
,,,,,,,683257b42d026cccbb0eb561,684396241a0e8d6ce0b93f25,2025-06-06_21h30.52.930,shape_ratio,2024.1.5,Win32,59.88023952,6842b561977af9ba9b0f87ca,,,,,,,,,,,135.0032,135.5016,,,135.7524,136.0019,left,,,,,,,,0.4,0.2193,,,,,,,135.5018,135.7523,136.002,"[-0.0322593280692529,-0.06096690432265107]",4.0,"[0.08629638078687951,0.11535298825253301]",100.0,"[0.16166325084760325,-0.04645312509684767]",4.0,"[0.15153848231986047,-0.09945753924381744]",4.0,"[-0.02233412143402117,0.04057729141165482]",4.0,"[0.048037577976123624,0.031014558213346147]",4.0,"[-0.03456146170106446,0.1787660962436742]",100.0,"[0.19015208879208126,0.059021572550772686]",100.0,"[0.014291368028261925,0.18824116228434945]",4.0,"[0.09416049658902004,-0.06688408164217309]",100.0,"[-0.12289451603927479,0.14796755134937997]",100.0,"[-0.07000942707028862,0.12282736982565488]",4.0,"[-0.10251788365077384,0.030819572568887923]",4.0,"[-0.18893189832958993,-0.02954362141608798]",4.0,"[0.03261803491661919,-0.11118223172291367]",4.0,"[-0.04156656563024887,-0.14392884626030888]",100.0,"[0.14319462385673337,0.11115907200130974]",4.0,"[0.1189454003913766,0.06638783800791216]",4.0,"[-0.0816837187064817,-0.11655223037720934]",4.0,"[-0.12243984854200336,-0.09609729437929307]",100.0,"[-0.16441485108198697,0.05509733670675185]",4.0,"[-0.09774098999124436,-0.1642226376716305]",100.0,"[-0.11664771955623977,0.10142707698640181]",100.0,"[-0.06984028522160092,-0.04548862024650505]",4.0,"[0.10698011439852238,0.027128864867731153]",4.0,"[0.0848542640553634,-0.01030225622664355]",100.0,"[-0.14508927076972566,-0.0542391919580084]",4.0,"[0.011140123916625614,-0.14768895181797861]",100.0,"[0.13427494111601,-0.00406365600019794]",100.0,"[-0.10460817106566232,-0.02473429249356694]",4.0,"[0.037190257769618915,-0.04004712407484611]",4.0,"[0.014439711768911817,-0.197863810100606]",100.0,"[0.02,0.02]",137.1025,0.0,15.0,15.0,174.0,1.0,,,,,,,
,,,,,,,683257b42d026cccbb0eb561,684396241a0e8d6ce0b93f25,2025-06-06_21h30.52.930,shape_ratio,2024.1.5,Win32,59.88023952,6842b561977af9ba9b0f87ca,,,,,,,,,,,137.1041,137.6007,,,137.8513,138.0176,left,,,,,,,,0.1,0.1389,,,,,,,137.6007,137.851,138.0177,"[0.05469255619699965,-0.1668139882565681]",4.0,"[-0.1788232295013339,0.05205903234766106]",4.0,"[0.03426344494167323,-0.025250176328537603]",4.0,"[-0.09990440062698717,0.15741185159588805]",4.0,"[0.04923709900568671,0.08567564448967645]",4.0,"[-0.0879127514591789,-0.058749895823077644]",4.0,"[0.028981791059877627,-0.07814046735308768]",4.0,"[-0.030900253786786867,-0.18435971189135575]",4.0,"[0.15446931355061214,0.11567679873152457]",4.0,"[-0.06392948181943577,0.032108588410046546]",4.0,"[-0.00413939859965396,0.1389882405459148]",4.0,"[0.11200603147319248,0.06821125155445358]",4.0,"[0.09095024173357834,-0.03318611824301461]",4.0,"[-0.17023667155513847,-0.042763457326626945]",4.0,"[0.16169365893132132,-0.0009758232419000816]",4.0,"[0.005816188961507241,-0.12089895810422237]",4.0,"[-0.008523039210642736,-0.05224597328106965]",4.0,"[-0.048189268106627804,0.191010513858323]",100.0,"[-0.11293179244399319,0.105978935197425]",4.0,"[-0.149044226278257,0.013316562959198846]",4.0,"[-0.03307258936413836,-0.10487967872354677]",4.0,"[-0.11974434338440725,-0.09729836967221304]",4.0,"[-0.000048430761949210786,0.04902140511765152]",4.0,"[-0.07251130603377544,-0.01414948089907205]",4.0,"[0.05362633712159997,0.14317443010683975]",4.0,"[0.16981893552575786,0.07134087696841467]",100.0,"[-0.10936880716397046,0.037113829924940174]",4.0,"[0.07254645038767003,-0.12498617411710204]",4.0,"[-0.047561122659153375,-0.06591684397498716]",4.0,"[0.17581167817453017,-0.0477054406560355]",4.0,"[-0.028443115619010882,-0.008798263479500384]",4.0,"[-0.03933860397869018,0.08436270309768325]",100.0,"[0.02,0.02]",139.1155,0.0,16.0,16.0,180.0,1.0,,,,,,,
,,,,,,,683257b42d026cccbb0eb561,684396241a0e8d6ce0b93f25,2025-06-06_21h30.52.930,shape_ratio,2024.1.5,Win32,59.88023952,6842b561977af9ba9b0f87ca,,,,,,,,,,,139.1168,139.6168,,,139.8669,140.1495,right,,,,,,,,0.1,0.2675,,,,,,,139.617,139.8668,140.1496,"[0.10929633479101192,-0.031236718232229066]",4.0,"[-0.136474067848875,0.049993544508902664]",4.0,"[-0.08683456678147942,0.0908613899425505]",4.0,"[-0.1004351594313087,0.00006391492774194942]",4.0,"[-0.052289214850013255,0.05636819121664773]",4.0,"[0.08568068285833247,-0.1346721280519233]",4.0,"[-0.1504894598652684,-0.11613461709556364]",4.0,"[0.0004149648006192977,-0.047856347379065654]",4.0,"[0.007557662184433839,0.04043842604535321]",4.0,"[0.041436930725842085,0.18694219538560614]",4.0,"[-0.11416387422930885,-0.08176521718269009]",4.0,"[0.08740599546102182,-0.0893676520475675]",4.0,"[0.15500032945776,0.058510511154440704]",100.0,"[0.015355442708118557,-0.16054349444062901]",4.0,"[-0.05899550173043494,-0.08494813550857065]",4.0,"[-0.05191834705453158,-0.1533370880951562]",4.0,"[0.12407805784282672,0.017022679240356102]",4.0,"[0.04790644801451666,0.07484722853426358]",4.0,"[0.15443573560504326,-0.10758526536347067]",4.0,"[-0.15670899608445815,0.10431038385544439]",4.0,"[-0.029590172182072175,-0.003986889832998181]",100.0,"[0.12179474279092353,0.1291604333314632]",100.0,"[-0.14576987866858088,-0.0103831765304815]",4.0,"[0.026618862318772505,0.0011605328026610634]",4.0,"[0.17048671803578108,0.09841924634742286]",4.0,"[-0.16605655223354873,-0.06462841202491937]",4.0,"[0.17278712110147854,-0.038380484338570824]",4.0,"[0.07921489177698733,0.035620628856887306]",4.0,"[0.0363797445836948,-0.0812033669370051]",4.0,"[-0.09636054019827774,0.15812230450732923]",4.0,"[-0.0004792450309454688,0.1198517801530104]",4.0,"[-0.17470683133314305,0.06360536408884274]",4.0,"[0.02,0.02]",141.2491,0.0,17.0,17.0,198.0,1.0,,,,,,,
,,,,,,,683257b42d026cccbb0eb561,684396241a0e8d6ce0b93f25,2025-06-06_21h30.52.930,shape_ratio,2024.1.5,Win32,59.88023952,6842b561977af9ba9b0f87ca,,,,,,,,,,,141.2499,141.7473,,,141.999,142.4654,right,,,,,,,,0.55,0.4409,,,,,,,141.7475,141.9989,142.4655,"[0.019372386464582954,0.09541715146325268]",100.0,"[0.017947634590477442,-0.1630976865105725]",100.0,"[-0.03336243207464018,-0.1000137865026835]",100.0,"[0.03608778821534728,-0.08118296893884785]",4.0,"[0.1277237428467219,-0.041725177839224775]",4.0,"[-0.1876967180553307,-0.036352383836715796]",4.0,"[0.12037518944846187,0.07193898458941801]",4.0,"[-0.10299380060696935,0.014799368954490858]",100.0,"[0.07244027629839005,-0.1735589224532897]",4.0,"[0.19664195596672737,-0.03396620724789124]",4.0,"[-0.06469900649289115,0.0009681367375452214]",100.0,"[-0.09127577685740759,-0.147491456895861]",100.0,"[0.06935643016652408,-0.0006713359243450482]",100.0,"[-0.12704741208385686,0.14593789623607153]",4.0,"[0.12752513962105752,0.148047600069909]",100.0,"[-0.0800828114354871,0.05993624726633795]",4.0,"[0.1140969442703209,0.01787242945209263]",100.0,"[-0.055479551649483615,0.13738155037629488]",100.0,"[0.022102020428756843,0.008828924503364935]",100.0,"[-0.08738019416743026,0.10127796814982751]",4.0,"[-0.187834177095774,0.03215446808456059]",100.0,"[0.09333873126393613,-0.07977754224097658]",100.0,"[0.05895527523714168,0.139168847134392]",100.0,"[-0.09132550952278025,-0.07294493796791666]",4.0,"[0.1154737351401301,-0.13276335902554973]",4.0,"[-0.14134957552275304,0.04730235197861533]",100.0,"[-0.14487520647559482,-0.04868998571949439]",4.0,"[-0.07595738702376023,0.17423329858982756]",100.0,"[0.04667949042296433,0.17918565571354741]",100.0,"[-0.05794697208198754,-0.049374108270303564]",100.0,"[0.15487594572117855,-0.08847242656748476]",4.0,"[-0.03735915806540053,0.191464477771004]",4.0,"[0.02,0.02]",143.5642,0.0,18.0,18.0,68.0,1.0,,,,,,,
,,,,,,,683257b42d026cccbb0eb561,684396241a0e8d6ce0b93f25,2025-06-06_21h30.52.930,shape_ratio,2024.1.5,Win32,59.88023952,6842b561977af9ba9b0f87ca,,,,,,,,,,,143.5651,144.0635,,,144.3204,144.3973,left,,,,,,,,0.55,0.07,,,,,,,144.0637,144.3203,144.3974,"[0.07149827776445766,-0.13643607885063977]",100.0,"[0.014720473306015284,-0.13907060145740865]",100.0,"[-0.16806239350935417,0.015787111144610982]",100.0,"[0.10722289580320186,0.06428925312458433]",100.0,"[0.03493942049050705,0.16230628694555166]",4.0,"[0.11886376637406441,-0.12734820871823724]",100.0,"[0.09956531398785116,0.02295792261683221]",100.0,"[0.10240240918143603,-0.08951314080939253]",4.0,"[0.13765332719207019,-0.003334900793128885]",100.0,"[-0.006897637225362569,0.10783173976405844]",100.0,"[-0.09136753351949004,0.1207213872239026]",4.0,"[0.006368222836123641,0.06814699106832549]",100.0,"[-0.0573627581640518,-0.012594868494062158]",4.0,"[-0.1559637990044474,-0.06315497804263612]",100.0,"[0.06229387007317261,-0.06503542223726984]",4.0,"[0.0566768192368143,0.04751363408673699]",100.0,"[0.1517118757850643,0.12285993773136195]",100.0,"[0.1732612989059492,-0.04059305860044235]",4.0,"[-0.07195606293916428,0.043376523035766196]",4.0,"[-0.15746556292659167,0.077783509661454]",100.0,"[0.1714997187440233,0.03478361097048258]",100.0,"[-0.10547808105415302,-0.03962633902909402]",4.0,"[0.076365656838666,0.1389627260018301]",100.0,"[-0.07489307524363217,-0.08987286457415386]",4.0,"[-0.0025852883663968237,-0.057344930200007097]",4.0,"[0.03280596865513481,-0.18869497582784645]",100.0,"[-0.14110836967104864,0.12044395255169842]",4.0,"[-0.03712763330090356,-0.17514028540939192]",4.0,"[-0.1112289275336529,0.07189493312157547]",4.0,"[-0.07350718424475916,0.1759103135052095]",100.0,"[-0.020057809317992017,0.035968876830981183]",100.0,"[-0.12811900240384513,0.0338385794430212]",4.0,"[0.02,0.02]",145.4956,0.0,19.0,19.0,89.0,1.0,,,,,,,
,,,,,,,683257b42d026cccbb0eb561,684396241a0e8d6ce0b93f25,2025-06-06_21h30.52.930,shape_ratio,2024.1.5,Win32,59.88023952,6842b561977af9ba9b0f87ca,,,,,,,,,,,145.4966,145.9972,,,146.2469,146.4456,left,,,,,,,,0.45,0.1922,,,,,,,145.9973,146.2466,146.4456,"[-0.1860647023673591,-0.05561729128907235]",4.0,"[0.13066021992380916,-0.11043110064573505]",100.0,"[0.05636442965926291,0.01837532759639794]",100.0,"[-0.09285035924435188,0.07224984779934521]",4.0,"[0.1744876973904027,0.04110574601665135]",100.0,"[-0.15554156953105763,0.06875402057813033]",100.0,"[-0.01832967962328717,-0.060834172815241824]",4.0,"[0.1601218758659991,-0.06083249407348181]",100.0,"[-0.017493534026125655,0.12286243635736464]",100.0,"[0.06064134511617771,-0.16847492440042902]",4.0,"[-0.13209540304320075,-0.09214588117865413]",4.0,"[0.12100140347779471,-0.036545095256710965]",100.0,"[-0.1457558114254351,0.017612506600057615]",100.0,"[-0.021179150721750806,0.01753702443848631]",4.0,"[-0.048569277284296636,0.0809267909259701]",4.0,"[0.044969158532703904,-0.06853343143057947]",4.0,"[-0.16525383615075787,-0.01809640107293394]",100.0,"[-0.002574339029499943,-0.13293796568623556]",100.0,"[0.16522043164952632,-0.009918402991491467]",4.0,"[-0.03709663420948095,-0.16803767331711156]",4.0,"[-0.10045831478244689,0.0026734869505090388]",4.0,"[-0.09010394805306349,-0.07439153910988697]",4.0,"[0.14169962824140087,0.09709549921995062]",100.0,"[0.06043370499147253,0.0971325639470286]",4.0,"[0.10471991764538904,0.008578178162802081]",4.0,"[0.02902815108648053,0.1558928989496358]",4.0,"[-0.08195894814194,0.1768994290248695]",100.0,"[-0.12903054687531,-0.13683632956396308]",4.0,"[-0.07408940140869151,-0.12839729353003954]",4.0,"[0.014638843511868567,0.08510443796702899]",100.0,"[-0.10728937291500855,0.12283781137688046]",4.0,"[0.06968849032409923,0.16267819325174565]",100.0,"[0.02,0.02]",147.5459,0.0,20.0,20.0,138.0,1.0,,,,,,,
,,,,,,,683257b42d026cccbb0eb561,684396241a0e8d6ce0b93f25,2025-06-06_21h30.52.930,shape_ratio,2024.1.5,Win32,59.88023952,6842b561977af9ba9b0f87ca,,,,,,,,,,,147.5466,148.0442,,,148.296,148.5282,right,,,,,,,,0.55,0.2252,,,,,,,148.0442,148.296,148.5282,"[0.10426862614364286,-0.10632833319077722]",4.0,"[-0.10778988650857035,-0.08821810335382937]",4.0,"[0.006102107341257082,-0.05267602323035783]",4.0,"[-0.10510530536076068,0.04275495318216487]",100.0,"[-0.03129070620895766,-0.09449995414330892]",100.0,"[0.018497375085623977,-0.17562940528871324]",100.0,"[0.0005479880882447284,-0.13447528846449427]",100.0,"[0.11880205331238405,-0.1526742513950847]",100.0,"[-0.10963978333648677,-0.1527810922754072]",100.0,"[0.16004137028213558,-0.01362315030091637]",100.0,"[0.18758787433369595,-0.04647570380582034]",100.0,"[-0.061659049931609054,-0.1645152357908091]",100.0,"[-0.08999642898862399,0.08150558898704886]",100.0,"[0.10469556487397795,-0.04883580387812773]",100.0,"[-0.12643920637452866,0.1466613844812765]",100.0,"[-0.0613219739044419,0.1139435670200964]",4.0,"[-0.01649860787220404,0.06462773787032454]",4.0,"[0.15016086012895113,0.08074827928801592]",4.0,"[-0.1633776694917648,-0.0730519043729843]",4.0,"[0.039596473051412354,-0.12250555394813052]",100.0,"[0.012051393453175564,0.17150493514975054]",100.0,"[0.08759042212617317,0.1732003485348581]",4.0,"[0.09991746280160943,0.11732517011566128]",4.0,"[0.06579629795579463,-0.15892481002475217]",4.0,"[0.18108950435470156,0.023994176223776087]",100.0,"[-0.02745879890119907,-0.19243364903124177]",4.0,"[-0.12348678674134535,0.10379603097070643]",4.0,"[0.034392804860000306,0.06681368508314502]",4.0,"[-0.047525582314765814,0.15805871752421427]",100.0,"[-0.027433188125729594,-0.02630012791934018]",100.0,"[0.06807408618150634,-0.08216814008370006]",4.0,"[-0.16945504140348538,-0.021830175810616893]",100.0,"[0.02,0.02]",149.6274,0.0,21.0,21.0,65.0,1.0,,,,,,,
,,,,,,,683257b42d026cccbb0eb561,684396241a0e8d6ce0b93f25,2025-06-06_21h30.52.930,shape_ratio,2024.1.5,Win32,59.88023952,6842b561977af9ba9b0f87ca,,,,,,,,,,,149.6278,150.1278,,,150.3778,150.91,left,,,,,,,,0.5,0.5241,,,,,,,150.1279,150.3777,150.9101,"[0.07265616849846564,-0.06472840987062826]",4.0,"[0.04739297678029247,-0.025590474539772527]",4.0,"[-0.14941311051085762,-0.11748523332884017]",4.0,"[0.03390554354144976,0.19684584725091403]",4.0,"[0.14305794982510503,0.1316327760721716]",4.0,"[-0.01510173384623996,-0.05138950095446829]",4.0,"[-0.0521185392596379,0.08527676650832447]",100.0,"[-0.08865656882649774,-0.09158087507680147]",100.0,"[0.18727428213241124,0.015272662856082024]",4.0,"[-0.18498696094590705,-0.02432956480304344]",100.0,"[0.16084814939653225,0.09009762476371934]",4.0,"[-0.1706951865277387,-0.06813301143633382]",4.0,"[0.015852235331082223,0.06134838648635837]",100.0,"[-0.0013955533217100986,0.10346277749757989]",4.0,"[-0.07269853087306653,0.04598382375413422]",100.0,"[-0.034876631124342326,0.003310249487814105]",100.0,"[-0.11202233718834394,-0.13466740814026104]",100.0,"[-0.18380738139599087,0.046412929798786175]",4.0,"[-0.09221536730455676,-0.1773845707725004]",4.0,"[0.07543719644878444,-0.12229449621133166]",100.0,"[-0.12679564827463113,0.11034011351985575]",100.0,"[0.047547177107065484,-0.15504397844819484]",100.0,"[-0.07746070699057361,-0.03589343586813916]",4.0,"[-0.03965242590799831,-0.13459414730950423]",4.0,"[0.04975206552189997,0.11885193511375525]",100.0,"[0.13310031990961316,0.005198459570266175]",100.0,"[0.13251063263628304,0.047061632527982664]",4.0,"[0.004333065585545087,0.1579337320542335]",100.0,"[0.09121125280407202,0.1768555084621704]",100.0,"[0.03889071922825177,0.015458467543556955]",4.0,"[-0.11789854505476331,-0.025976834361533925]",100.0,"[0.11469379109386225,-0.054780272747476814]",100.0,"[0.02,0.02]",152.0104,0.0,22.0,22.0,119.0,1.0,,,,,,,
,,,,,,,683257b42d026cccbb0eb561,684396241a0e8d6ce0b93f25,2025-06-06_21h30.52.930,shape_ratio,2024.1.5,Win32,59.88023952,6842b561977af9ba9b0f87ca,,,,,,,,,,,152.0112,152.5098,,,152.76,153.0422,right,,,,,,,,0.9,0.2492,,,,,,,152.5098,152.7599,153.0422,"[0.04315118269691392,0.0003689572463798663]",100.0,"[-0.11388027148003,-0.1314979186498407]",100.0,"[0.09885277736037909,-0.04059354063627608]",100.0,"[0.02705486627907896,-0.13902724382543138]",4.0,"[-0.10952972000449988,0.023392826725784126]",100.0,"[0.028192945677195404,-0.07195412025590338]",100.0,"[0.12635286877733,-0.11809887752151832]",100.0,"[0.0493755874637108,0.1693709317678928]",100.0,"[0.06279733086226047,-0.11216341558983335]",100.0,"[-0.1092969304333001,0.13308160801081312]",100.0,"[-0.14880817340913263,-0.10675178456485021]",100.0,"[0.19378791720973415,-0.01891182176769914]",100.0,"[-0.05539582830748841,0.07363981747236002]",100.0,"[-0.01450334182182355,0.10552123159460698]",100.0,"[-0.035005998826603824,-0.05846335199727376]",100.0,"[0.16932514301229554,0.023137640925967897]",100.0,"[0.10866748361530919,0.03605781713368574]",100.0,"[-0.1852089412076905,-0.05144640773966758]",100.0,"[-0.03759912788581735,-0.16609601916493205]",100.0,"[0.11866035184803393,0.12767088365786514]",100.0,"[-0.12182517935838419,-0.06161836445306925]",100.0,"[-0.16490085056004913,0.05722775015252689]",100.0,"[0.04924881349603738,0.12890630494277303]",100.0,"[0.06646711258295289,0.07100861603086034]",100.0,"[-0.0157267814344262,0.189065965040042]",100.0,"[-0.16067355457326746,0.015576099702953835]",4.0,"[-0.04966387339858216,0.12995580984416213]",100.0,"[-0.007800619610925801,0.14931189606318895]",100.0,"[-0.061320356124163714,0.18887429566167532]",4.0,"[-0.06569448692252433,0.011646905318386865]",100.0,"[0.13680620433081186,-0.005225028992022681]",100.0,"[-0.09068862426059648,-0.08865524747778365]",100.0,"[0.02,0.02]",154.1411,0.0,23.0,23.0,24.0,1.0,,,,,,,
,,,,,,,683257b42d026cccbb0eb561,684396241a0e8d6ce0b93f25,2025-06-06_21h30.52.930,shape_ratio,2024.1.5,Win32,59.88023952,6842b561977af9ba9b0f87ca,,,,,,,,,,,154.1426,154.6423,,,154.8929,155.1585,right,,,,,,,,0.5,0.2568,,,,,,,154.6424,154.8928,155.1586,"[0.05656651836574242,-0.11408363277965096]",100.0,"[-0.10306742575764478,0.12331590425813446]",4.0,"[0.11695057691390034,0.012333350867806922]",4.0,"[0.04622086027667156,0.07960936036525024]",100.0,"[0.08159440910597025,-0.014210296230248455]",4.0,"[0.1701715491990075,0.021257118950590733]",4.0,"[0.009698605987142742,0.05519328938114498]",4.0,"[-0.038083322935381726,0.0802224521306027]",100.0,"[-0.07250227197266414,0.1661339492089061]",100.0,"[-0.17345598835811607,-0.03347952395041859]",100.0,"[0.15866394458452204,-0.02059874664721185]",4.0,"[-0.08983888846071271,-0.044725609648120265]",4.0,"[0.05174651641117424,-0.19074227358579948]",100.0,"[-0.13572124496875998,0.09961511413003053]",100.0,"[-0.02323668870212481,-0.03335668257321265]",4.0,"[-0.17663280250807886,-0.07790508371584182]",4.0,"[0.09871442407237284,-0.16490405003133726]",100.0,"[-0.1054763051785519,-0.14503400506130856]",4.0,"[0.12981438928269756,-0.12668236303242994]",4.0,"[0.013124133788315734,0.17970842372353624]",100.0,"[-0.13427179009383924,-0.05891158334167465]",100.0,"[0.10736882241492335,-0.05086545759050499]",4.0,"[-0.18894285893706697,0.02972360650675814]",100.0,"[-0.04016852038642257,-0.08265871638307319]",100.0,"[-0.08567279120131958,0.02076395171819983]",4.0,"[-0.041597424896862266,-0.1363968780940601]",100.0,"[0.08338470244492584,0.17069447644083638]",100.0,"[0.03864327093409138,-0.15148612484571547]",4.0,"[-0.13744203932796825,0.05359945076006613]",100.0,"[0.1653314869737177,0.09867032516952709]",100.0,"[0.1487660023284659,0.055167697374343155]",4.0,"[0.11245448963078168,0.09953132243073722]",4.0,"[0.02,0.02]",156.2585,0.0,24.0,24.0,118.0,1.0,,,,,,,
,,,,,,,683257b42d026cccbb0eb561,684396241a0e8d6ce0b93f25,2025-06-06_21h30.52.930,shape_ratio,2024.1.5,Win32,59.88023952,6842b561977af9ba9b0f87ca,,,,,,,,,,,156.2593,156.7569,,,157.0078,157.0741,left,,,,,,,,0.5,0.053,,,,,,,156.757,157.0077,157.0742,"[0.04637007379238154,0.047614580603412116]",100.0,"[-0.03541232232516712,-0.08260227709231352]",4.0,"[0.05715404949354695,0.1117231965979832]",4.0,"[-0.006164762346685391,0.1495421048671107]",100.0,"[-0.08710468134206058,0.0378853045256973]",100.0,"[0.04500429303390152,-0.035319239266502815]",100.0,"[0.18662205496319972,0.004086389063685426]",4.0,"[-0.10339829101056584,-0.0736819497794788]",100.0,"[0.14276940154701684,-0.13338331142887777]",4.0,"[0.0897026410353641,-0.1372559546469302]",4.0,"[-0.15303842547107846,-0.1004627104013764]",100.0,"[0.033335703846698185,-0.1262367321406935]",4.0,"[-0.07010317215966488,-0.030155045954320604]",4.0,"[-0.14307782244884126,-0.02345452734288864]",4.0,"[-0.17097761310976664,-0.05498585362488016]",4.0,"[0.016125536942747758,0.0060792102916065295]",100.0,"[-0.032319952998773306,-0.16816306349417096]",4.0,"[-0.08838619533987242,0.09504353455408933]",100.0,"[0.10291435491240035,0.09106743041017953]",100.0,"[0.03480676553890749,0.1770670405447362]",100.0,"[0.015482768249855883,0.0733308629844821]",100.0,"[-0.053111558172006856,0.13059949149398584]",4.0,"[-0.061761898279659416,-0.12483127539619107]",100.0,"[0.07156632787547956,-0.10035627060753709]",4.0,"[-0.04482577684767528,0.05075766984606092]",4.0,"[-0.10438972575484344,0.14174536298370743]",4.0,"[-0.13652824786254159,-0.14170059432656187]",100.0,"[0.0374646606503981,-0.18173062675029023]",100.0,"[-0.15956981261441444,0.06204299455273443]",100.0,"[0.12822997552607038,-0.0699197745412742]",100.0,"[0.14781178326288558,-0.005833541609206943]",4.0,"[-0.036472443656358676,0.177317509541929]",4.0,"[0.02,0.02]",158.1742,0.0,25.0,25.0,91.0,1.0,,,,,,,
,,,,,,,683257b42d026cccbb0eb561,684396241a0e8d6ce0b93f25,2025-06-06_21h30.52.930,shape_ratio,2024.1.5,Win32,59.88023952,6842b561977af9ba9b0f87ca,,,,,,,,,,,158.1755,158.6733,,,158.9239,159.2053,left,,,,,,,,0.1,0.2669,,,,,,,158.6733,158.9238,159.2053,"[-0.04051696662060925,0.09324561628260132]",100.0,"[-0.06901246687334628,-0.144315102985264]",4.0,"[-0.1313681584739943,0.1456648198166643]",4.0,"[-0.11262387916555144,-0.1358388758471329]",4.0,"[-0.002032589386930743,-0.17804211826220476]",4.0,"[0.014527352862337441,0.10740248304509273]",4.0,"[0.10542864767493369,0.009890286806650729]",100.0,"[0.07448685152039623,0.06318153741123937]",4.0,"[0.1517193586423759,0.007522668545141726]",4.0,"[-0.11714767773952528,0.020336672673550726]",4.0,"[-0.19325239430633157,-0.05077513123145133]",4.0,"[-0.10067444924417901,-0.047118072098579815]",4.0,"[0.08110417966500626,-0.05771731371577289]",4.0,"[-0.04247593785111228,0.008864304688477313]",4.0,"[0.08928373399142003,0.13561518731715044]",4.0,"[-0.18459267445464997,0.026669915969667835]",4.0,"[0.07990354801161412,-0.13352679808833942]",4.0,"[-0.021329279661632488,0.18066188196450167]",4.0,"[-0.15128129741783047,0.08059360560314546]",4.0,"[0.1168678045430112,0.06402163764168017]",4.0,"[0.016184349616252296,-0.1332751466968878]",4.0,"[0.1459460196432623,-0.060050285430068885]",4.0,"[-0.10313726797894049,0.060054094922824694]",4.0,"[0.04104957850815124,-0.011647197968532252]",100.0,"[-0.03907466493219662,-0.08046544503549921]",4.0,"[-0.05252859752394033,0.13409975381853356]",4.0,"[-0.013391947557530932,0.05852445471542893]",4.0,"[0.059112377895560016,0.10794182129397459]",4.0,"[0.051963840158985704,0.17329806831115588]",4.0,"[-0.01740669746905943,-0.0312430731800803]",4.0,"[0.047765284355790194,-0.1919279272685601]",4.0,"[0.15234743944056672,-0.1091437691513419]",4.0,"[0.02,0.02]",160.3047,0.0,26.0,26.0,187.0,1.0,,,,,,,
,,,,,,,683257b42d026cccbb0eb561,684396241a0e8d6ce0b93f25,2025-06-06_21h30.52.930,shape_ratio,2024.1.5,Win32,59.88023952,6842b561977af9ba9b0f87ca,,,,,,,,,,,160.3049,160.8055,,,161.055,161.222,left,,,,,,,,0.1,0.1539,,,,,,,160.8055,161.055,161.222,"[-0.023060476767818156,0.14455328199468834]",4.0,"[-0.057815628330218694,-0.1900860950778946]",4.0,"[0.04804704346472649,-0.14797296116972097]",4.0,"[-0.09047617843385088,-0.013376515112165071]",4.0,"[-0.15731495528652303,0.11553150233479825]",4.0,"[-0.11739377013343431,-0.1199925837413691]",4.0,"[-0.04272385139019781,-0.06009436249578998]",4.0,"[0.1274069624020163,0.10429504698894243]",4.0,"[0.0027614959018664223,0.042861217903407585]",4.0,"[-0.060828237225215624,0.12932920841735107]",4.0,"[-0.0911687544942483,-0.07838326965659749]",4.0,"[0.06249732253032687,-0.1021431755674248]",100.0,"[0.19465767646913884,0.02287949337088051]",4.0,"[-0.1840964800824067,0.029483517030398993]",4.0,"[0.10904210470835496,-0.08520367238382487]",100.0,"[-0.12511109495205072,0.14764330764756078]",100.0,"[0.011883224966729167,-0.1082918842067101]",4.0,"[0.13502500738065726,0.01792096318798126]",4.0,"[0.1504639427603887,-0.04749661024496171]",4.0,"[0.05875711087027806,0.0006989578212604621]",4.0,"[0.08504984028709178,0.1672730875946633]",4.0,"[0.06079182340900009,0.09071701667690543]",4.0,"[0.16071788322838693,-0.09031328476070344]",4.0,"[-0.09746594572333189,-0.16013950287455284]",4.0,"[0.08895425747080934,-0.14469221062061785]",4.0,"[0.0006760258523092688,0.17718353592148844]",4.0,"[0.01595022975183759,0.10197113913436567]",4.0,"[0.11936688721334468,0.06259212502154056]",4.0,"[-0.08543111034329523,0.0925859971429714]",4.0,"[-0.18106634530839244,-0.06123639875914526]",4.0,"[0.05017769010449154,0.041706121337812554]",4.0,"[-0.04836774746275255,0.07416700150253325]",4.0,"[0.02,0.02]",162.3217,0.0,27.0,27.0,182.0,1.0,,,,,,,
,,,,,,,683257b42d026cccbb0eb561,684396241a0e8d6ce0b93f25,2025-06-06_21h30.52.930,shape_ratio,2024.1.5,Win32,59.88023952,6842b561977af9ba9b0f87ca,,,,,,,,,,,162.3228,162.82,,,163.0712,163.1542,left,,,,,,,,0.55,0.07,,,,,,,162.8201,163.0711,163.1542,"[0.023388575527807924,0.1355698193680862]",100.0,"[-0.07966414504874493,-0.0018655857201149196]",4.0,"[-0.12596676863808792,0.12208993780256924]",4.0,"[-0.048281225322608375,-0.1344929762971587]",100.0,"[-0.08577966656091462,0.12680156612855573]",4.0,"[0.13400208260960428,0.013473473840870083]",100.0,"[0.079131703307823,-0.1255332406279896]",100.0,"[-0.15707731365430586,0.08504179826224284]",100.0,"[0.01105918780726462,0.01535802443178646]",4.0,"[0.06797703871281724,-0.04510480677818682]",100.0,"[-0.14827953853077747,-0.08298989607638452]",4.0,"[-0.08976964789380922,-0.14498970097613031]",100.0,"[-0.15279874037763583,0.02394085671561016]",4.0,"[-0.1758816128163611,-0.029714271623655517]",4.0,"[0.06452599247652217,-0.1846107852043994]",100.0,"[0.11223313925928839,-0.07478302520249479]",100.0,"[0.15259815307577318,-0.08550184892724146]",4.0,"[0.07758966417031453,0.022695130551583603]",100.0,"[0.13315938764906074,0.060688792727537536]",4.0,"[-0.09826866014996659,-0.06494910742101516]",100.0,"[0.16984895991561264,0.035987764247721134]",100.0,"[-0.08571480478902196,0.037887877019894226]",4.0,"[-0.028952843602575024,-0.0058252569903495845]",4.0,"[-0.023525374939341197,0.15875972223101067]",4.0,"[0.1343379196853403,-0.12582118018555996]",100.0,"[0.08635657209304846,0.12569318603345403]",4.0,"[0.07910550513878117,0.07309772531733696]",100.0,"[0.03341008961793115,-0.1160846660587023]",100.0,"[-0.05500324330624701,0.18812278144857963]",100.0,"[0.03380096359081515,0.07202913197270981]",100.0,"[-0.031114849570152914,-0.18065292600819838]",100.0,"[0.10746233748169662,0.16323749981791735]",4.0,"[0.02,0.02]",164.2537,0.0,28.0,28.0,66.0,1.0,,,,,,,
,,,,,,,683257b42d026cccbb0eb561,684396241a0e8d6ce0b93f25,2025-06-06_21h30.52.930,shape_ratio,2024.1.5,Win32,59.88023952,6842b561977af9ba9b0f87ca,,,,,,,,,,,164.2544,164.7537,,,165.0034,165.7525,left,,,,,,,,0.5,0.7401,,,,,,,164.7538,165.0033,165.7526,"[-0.17689608588785224,-0.06868572506989526]",100.0,"[0.15750378202488144,-0.09962536710071401]",4.0,"[0.13167844879535215,0.1448348705530715]",4.0,"[0.05917054887006763,0.1539495153484732]",100.0,"[-0.09813237825543622,-0.05462014789496697]",100.0,"[0.03711281957355046,0.03403724590330785]",4.0,"[-0.06438224423733961,-0.02456895907203542]",4.0,"[0.050988651305251674,-0.0561998016932147]",4.0,"[-0.08646527477018714,0.062219697383166336]",100.0,"[0.15712423030658618,-0.05041359803448039]",100.0,"[0.12236216526081947,-0.14279364851222703]",4.0,"[-0.05819315046616591,0.16096789617460633]",4.0,"[-0.06152951600968034,-0.11273297892304583]",4.0,"[-0.07973049038091388,-0.1568533235036853]",4.0,"[-0.017474386252629773,0.18543475323581501]",100.0,"[-0.04065913428971944,0.055270687083650745]",4.0,"[-0.046042678616152216,0.012674470015367438]",100.0,"[0.11367091682603436,-0.05744536223566992]",4.0,"[-0.17927524458875152,0.06510845459933327]",100.0,"[0.006320629671726896,0.1017087026212192]",4.0,"[0.11950002195222213,0.10391798263332276]",100.0,"[0.13192765800131578,0.04496782512476607]",100.0,"[-0.0004791773016357369,-0.09775305613104658]",100.0,"[-0.017176629927299677,-0.1913409923544994]",100.0,"[0.006569405459971738,-0.024068613548386526]",100.0,"[-0.11131664735535728,0.10203752452029223]",100.0,"[0.07252009334336634,0.07438070484975726]",100.0,"[0.006424957504437396,-0.15378099773257714]",4.0,"[-0.1321885586960764,-0.01885427733302992]",4.0,"[0.08194072218781334,-0.11042585139243173]",4.0,"[0.10199376046041803,-0.0147937947548782]",100.0,"[0.1783849356819391,0.06829835023789037]",4.0,"[0.02,0.02]",166.8526,0.0,29.0,29.0,95.0,1.0,,,,,,,
,,,,,,,683257b42d026cccbb0eb561,684396241a0e8d6ce0b93f25,2025-06-06_21h30.52.930,shape_ratio,2024.1.5,Win32,59.88023952,6842b561977af9ba9b0f87ca,,,,,,,,,,,166.8533,167.3525,,,167.602,167.9696,left,,,,,,,,0.5,0.3625,,,,,,,167.3525,167.6018,167.9696,"[-0.16150543204034287,0.02993776250895587]",100.0,"[-0.040846661593873825,-0.16037719741833042]",100.0,"[0.17526816800997733,0.07768354415053261]",4.0,"[0.11083286240830921,0.05974596164108151]",4.0,"[-0.10738361288853411,-0.1381422501177917]",4.0,"[-0.14790482500121094,0.08723978496686345]",100.0,"[0.013355540806581849,0.036892023380434534]",100.0,"[0.012403153324687546,0.10046071409610288]",100.0,"[-0.00920499545604486,-0.1167307504933068]",100.0,"[0.01812370161252086,-0.0471521010436951]",4.0,"[-0.18473397041734085,0.07094048424491599]",4.0,"[0.06023568021708833,-0.04884190351793582]",4.0,"[-0.057291391284452854,0.16918822104548453]",100.0,"[-0.07075513043264384,0.08014221569641558]",100.0,"[0.016218298610827787,-0.1908210859339369]",4.0,"[-0.06690186011762932,-0.07194288280515214]",4.0,"[0.09462534770181875,0.15593480544603958]",4.0,"[0.04268389882084085,-0.14476140399036586]",100.0,"[0.04889542649713964,0.15704701738823232]",4.0,"[-0.16681519235482106,-0.07266880889547445]",4.0,"[0.08679218161455607,-0.09128197574898075]",100.0,"[-0.018482070075304363,0.13932831374441973]",100.0,"[0.18479393149700502,0.02527138083865909]",100.0,"[-0.14947154383476396,-0.13078261534620714]",4.0,"[-0.03841328376919995,0.056457723260178914]",100.0,"[-0.09242945962415772,0.02091264093071779]",4.0,"[0.10129296492235011,-0.16664392060132963]",100.0,"[-0.18233423608043836,-0.007708787468607504]",100.0,"[0.016007806009890876,0.18219785706728236]",100.0,"[-0.03661175142543641,0.00986926134133265]",4.0,"[0.14107218958455564,0.013015685406688047]",4.0,"[0.1765628466299371,-0.08985860287984133]",4.0,"[0.02,0.02]",169.0674,0.0,30.0,30.0,90.0,1.0,,,,,,,
,,,,,,,683257b42d026cccbb0eb561,684396241a0e8d6ce0b93f25,2025-06-06_21h30.52.930,shape_ratio,2024.1.5,Win32,59.88023952,6842b561977af9ba9b0f87ca,,,,,,,,,,,169.0679,169.5675,,,169.8178,170.5007,left,,,,,,,,0.1,0.651,,,,,,,169.5675,169.8178,170.5008,"[0.02794604893509304,0.11888369832474488]",4.0,"[0.09274033220105722,0.08948086578591792]",4.0,"[-0.061662719940724496,0.1655789649516115]",4.0,"[-0.03478448811304886,-0.18605653545894427]",100.0,"[0.09655385267698599,-0.08174324757371956]",4.0,"[-0.11301229807814289,-0.1488290390436905]",4.0,"[-0.03851804994242327,0.12355079138153761]",4.0,"[0.020752882915689164,0.042264546904019616]",100.0,"[-0.09631227919877067,0.0803111939498656]",4.0,"[0.1312560268762902,0.053547423489675325]",4.0,"[0.04979750226188381,-0.007154847848482624]",4.0,"[-0.11167989293996922,0.03362377123096181]",4.0,"[-0.15784731049409712,-0.040956181796454966]",4.0,"[0.0004949561096514737,0.163157084541981]",4.0,"[0.01084609500915574,-0.1133056537241494]",4.0,"[-0.19418455599480383,0.032431423306736824]",100.0,"[-0.052308609278480404,-0.059932630996667347]",4.0,"[-0.07181336502610716,0.025079407666735408]",4.0,"[0.01497255774211275,-0.06092673496421525]",4.0,"[0.1633891626024563,-0.05421582556462093]",4.0,"[0.10064869999990918,-0.15149728079118935]",4.0,"[-0.0006193017091661419,-0.015793402423551376]",4.0,"[0.05910944969585986,0.1553514258804823]",4.0,"[-0.10657416538424815,0.1383006098149321]",4.0,"[-0.1950752367690848,-0.022138720724027144]",4.0,"[-0.09719305729517667,-0.04976963006861114]",4.0,"[-0.06240540717314296,-0.13494896634477577]",4.0,"[0.18061297876896307,0.021400984154379344]",4.0,"[0.16460988757616712,0.07630498040850127]",4.0,"[0.10478183903554444,0.16267505757012965]",4.0,"[0.06456680022339681,-0.05752468048592175]",4.0,"[0.1434703105896727,0.12829875395823287]",4.0,"[0.02,0.02]",171.6005,0.0,31.0,31.0,197.0,1.0,,,,,,,
,,,,,,,683257b42d026cccbb0eb561,684396241a0e8d6ce0b93f25,2025-06-06_21h30.52.930,shape_ratio,2024.1.5,Win32,59.88023952,6842b561977af9ba9b0f87ca,,,,,,,,,,,171.6015,172.1001,,,172.3499,172.4671,right,,,,,,,,0.6,0.0978,,,,,,,172.1002,172.3498,172.4672,"[0.05949296580809309,-0.018044662343361464]",100.0,"[0.0014329169522016285,-0.1781219824425336]",4.0,"[0.10751227285606053,0.060541233324856225]",100.0,"[0.050915315189188536,0.17832173524541667]",100.0,"[-0.055313253328518525,-0.10519335476634856]",4.0,"[0.018536066916779385,0.08110826277019986]",4.0,"[-0.08421295851134258,0.12356448120261875]",4.0,"[0.005598805597511867,-0.0499963718825614]",100.0,"[-0.10466993524471567,0.009727900191993764]",4.0,"[0.10059512876129259,-0.12905512280680634]",100.0,"[-0.14809849923573573,0.0630043525578774]",100.0,"[-0.044514670860748104,0.16953368873709634]",100.0,"[-0.17062313458567094,-0.018281293825737618]",100.0,"[-0.04705994138894939,-0.16808028964922161]",100.0,"[0.05507647706274938,-0.10927623611039718]",4.0,"[-0.1276372239609326,0.15280699732270844]",4.0,"[0.014496448472290337,0.16150584766294457]",100.0,"[0.04615391644329002,0.02519034950135663]",4.0,"[0.14859716689497157,0.09093673498781135]",100.0,"[0.1820475784158059,-0.030737249452689734]",4.0,"[-0.12246352371789794,-0.03647251469281347]",100.0,"[-0.04694713182677316,-0.021089092390628988]",100.0,"[-0.15142125658397967,-0.07501444897293534]",100.0,"[0.0703415810693894,0.1107511965988795]",4.0,"[0.04975247139661189,-0.06761066769579924]",100.0,"[-0.12585344844990837,-0.15057074300333279]",4.0,"[0.0037825984200560757,-0.00427446645056981]",4.0,"[-0.05538379144128058,0.02865706701009904]",100.0,"[-0.01132977956537043,-0.10496238731662462]",100.0,"[-0.05896670902575097,0.07354403078971922]",4.0,"[0.13644828159864986,0.024026828336277374]",100.0,"[0.028955042950190104,-0.14352294214193304]",100.0,"[0.02,0.02]",173.5657,0.0,32.0,32.0,48.0,1.0,,,,,,,
,,,,,,,683257b42d026cccbb0eb561,684396241a0e8d6ce0b93f25,2025-06-06_21h30.52.930,shape_ratio,2024.1.5,Win32,59.88023952,6842b561977af9ba9b0f87ca,,,,,,,,,,,173.5664,174.0646,,,174.3154,174.3315,left,,,,,,,,0.9,0.0008,,,,,,,174.0646,174.3154,174.3315,"[-0.05108757947470527,-0.09000623445763302]",4.0,"[-0.10982237838496121,-0.09069455573840096]",100.0,"[-0.08883718079076913,0.045438992609786635]",100.0,"[0.009360713192230743,0.01762058859169708]",100.0,"[0.04122341523605633,0.17609155401032406]",100.0,"[0.027544854372327864,-0.039938302285345714]",100.0,"[0.03187861447775438,0.09261555417796687]",100.0,"[0.19502279578617623,0.005623064569494642]",100.0,"[-0.042078760701458696,-0.15655705585622914]",100.0,"[0.08470747218064455,-0.05451542314616401]",100.0,"[0.1263475740197964,-0.11096440507318361]",100.0,"[-0.08269637339807918,-0.14021290584390106]",100.0,"[0.12367371240681513,0.14045125445413864]",100.0,"[0.04694683009888036,-0.1669516308411851]",100.0,"[-0.11094808956852265,0.13501923448909062]",100.0,"[-0.003398558850982237,-0.19333500028274458]",100.0,"[0.02225410187573783,0.13400737659016632]",100.0,"[-0.13075326413360772,-0.03374429132740818]",100.0,"[0.10646520478783159,-0.1482214545111902]",4.0,"[-0.1499616738846664,-0.12612251517434678]",100.0,"[0.1269601622420083,0.055989034974132317]",100.0,"[0.017089245189566622,-0.0902536225147591]",4.0,"[-0.17176028137640506,-0.0062187192062711436]",100.0,"[-0.13450583954918796,0.018471637351681683]",100.0,"[-0.04510680237147607,0.060114859049694595]",100.0,"[-0.07868218996732894,-0.051652623735901404]",100.0,"[0.16548411952138756,-0.0698202210788998]",100.0,"[0.05961525512759737,0.0302565589598395]",100.0,"[0.1702982431731223,0.06316804451657916]",100.0,"[-0.06443086524697397,0.008771182099435192]",100.0,"[0.0685338108490135,-0.1044387639047833]",100.0,"[0.09902209019390193,0.02230229949175248]",100.0,"[0.02,0.02]",175.4311,0.0,33.0,33.0,18.0,1.0,,,,,,,
,,,,,,,683257b42d026cccbb0eb561,684396241a0e8d6ce0b93f25,2025-06-06_21h30.52.930,shape_ratio,2024.1.5,Win32,59.88023952,6842b561977af9ba9b0f87ca,,,,,,,,,,,175.4317,175.9308,,,176.1807,176.2485,right,,,,,,,,0.6,0.0551,,,,,,,175.9309,176.1807,176.2485,"[-0.0157213445262466,-0.09944387032117301]",100.0,"[0.17442595304349284,0.05055275970030609]",4.0,"[-0.05764095678824832,-0.16211977061923877]",100.0,"[-0.15936121835323142,-0.03737950733766105]",100.0,"[-0.08473792540725542,0.08124507383454997]",4.0,"[-0.07424151236712005,0.018492188074901165]",100.0,"[0.09109758888312593,0.17364091768425133]",100.0,"[-0.025159260162654587,-0.03585963054454391]",4.0,"[-0.12975088562089496,0.03683174053950051]",4.0,"[-0.01496877341529975,-0.1749059487552532]",4.0,"[0.0813900199167742,-0.153628675629191]",100.0,"[-0.0206724841514758,0.05339637280992849]",100.0,"[-0.15497269268857214,0.08924991334145452]",4.0,"[-0.015601576804089787,0.010626469245561529]",100.0,"[0.03307455518566995,0.12990961265812434]",100.0,"[0.07899530104745914,0.11917775740774084]",100.0,"[0.020897274175910162,0.06121107012925476]",100.0,"[0.13104690588821535,-0.028799909848753063]",100.0,"[-0.1926389233493573,0.023658605669905484]",4.0,"[-0.16801919716088543,-0.08995112643522311]",100.0,"[0.06569344838989279,0.015914875112404844]",4.0,"[0.148251578280693,-0.11118112940796983]",100.0,"[0.15687031409230917,0.0911902811861478]",100.0,"[0.03026993773154298,-0.19661644477809395]",100.0,"[-0.11874601885100972,-0.09536524006995173]",4.0,"[-0.07118177912627563,-0.0296155774887983]",4.0,"[-0.09029470360634366,0.12986665811719375]",100.0,"[-0.02930565605806595,0.10777654110206582]",4.0,"[0.08982144335354436,-0.10391760789379806]",4.0,"[-0.07139418836219238,0.18171790232674598]",100.0,"[-0.05553991011533279,-0.08477637906274409]",100.0,"[-0.18801918462351583,0.06364661773519557]",4.0,"[0.02,0.02]",177.3462,0.0,34.0,34.0,59.0,1.0,,,,,,,
,,,,,,,683257b42d026cccbb0eb561,684396241a0e8d6ce0b93f25,2025-06-06_21h30.52.930,shape_ratio,2024.1.5,Win32,59.88023952,6842b561977af9ba9b0f87ca,,,,,,,,,,,177.3465,177.8462,,,178.0973,178.1462,left,,,,,,,,0.6,0.0356,,,,,,,177.8462,178.0972,178.1463,"[0.020256429897784825,0.011741124756965872]",4.0,"[0.10193718104959205,0.15512935126747157]",100.0,"[-0.052087341863215,0.08649555387529699]",100.0,"[-0.1538587081025123,-0.059162128762602295]",100.0,"[0.05487830308261021,0.11328819921067931]",100.0,"[0.0035970245269256406,0.15437611376593727]",4.0,"[0.14420682261303644,-0.07237418533149155]",4.0,"[0.164033513189563,0.09412545250014961]",100.0,"[0.015241634351349865,-0.1567830288381065]",4.0,"[-0.0545157177772052,0.16922533131423745]",100.0,"[-0.14907645611111048,-0.010221422679834863]",4.0,"[-0.09315412084107666,-0.08679038267385923]",4.0,"[0.02621514494986504,-0.0966581648151874]",100.0,"[-0.03303537864887621,-0.002472223744869248]",4.0,"[0.0629935879259441,0.1895320280993287]",4.0,"[-0.19535432570242958,-0.02073568795415019]",100.0,"[-0.049086938531468734,-0.1333874904646868]",4.0,"[-0.01898435859945994,0.055648365132212434]",100.0,"[0.19283806750932156,0.038075928541694795]",100.0,"[-0.07895353572064448,0.025513472367920294]",100.0,"[0.07195694426737824,0.07490003532110755]",100.0,"[-0.16019539188249457,-0.10379967974638743]",100.0,"[-0.13215614761251349,0.08205098381529022]",100.0,"[-0.030006715563361576,-0.047390924603067985]",100.0,"[0.14703283598544756,-0.0316861844810718]",100.0,"[-0.09103508700852961,-0.019449176256312584]",100.0,"[-0.012100850278077882,0.09574668172607267]",100.0,"[-0.10789129306684717,-0.15360187797074526]",100.0,"[0.057797799842500684,-0.14754940482908097]",4.0,"[0.0753330931092643,0.01938246733313465]",4.0,"[-0.1825507981887161,0.04461485322826601]",4.0,"[0.054829364202861657,-0.030900357795326516]",4.0,"[0.02,0.02]",179.2461,0.0,35.0,35.0,33.0,1.0,,,,,,,
,,,,,,,683257b42d026cccbb0eb561,684396241a0e8d6ce0b93f25,2025-06-06_21h30.52.930,shape_ratio,2024.1.5,Win32,59.88023952,6842b561977af9ba9b0f87ca,,,,,,,,,,,179.2465,179.7465,,,179.9957,180.1282,left,,,,,,,,0.1,0.1213,,,,,,,179.7466,179.9957,180.1282,"[-0.17666015754044415,0.08375530215658859]",4.0,"[0.15225831097257947,0.1282868681601685]",100.0,"[0.013403240902078617,-0.08812323140382075]",4.0,"[0.07665165630477898,-0.027224047282206853]",4.0,"[0.16510101906728383,0.010575292479201423]",4.0,"[0.02524816646919337,-0.04700516080387075]",4.0,"[0.04580390637746221,0.0845051348770453]",4.0,"[-0.1428770099762547,0.03528020880417255]",4.0,"[-0.14310427119974425,-0.090222533277602]",4.0,"[0.13023484046034506,0.06410514741516504]",4.0,"[0.031693408116740436,-0.0036971004333983953]",4.0,"[0.11989953938893652,-0.16006853424483358]",4.0,"[-0.11728259877591224,-0.021800136957755862]",100.0,"[-0.022911578300783844,0.06819263302508086]",4.0,"[0.1341633137364042,-0.027525598766907973]",4.0,"[0.03593444343545064,0.12414448689596085]",4.0,"[0.19160465448972205,0.05431633050086993]",4.0,"[0.04378432758938412,-0.19172203752142788]",4.0,"[-0.002273782389296932,0.13952695450080949]",4.0,"[-0.06338983679464023,-0.09333256349690991]",100.0,"[-0.10572725164003313,-0.14995787080537543]",4.0,"[-0.07953644516531153,-0.005118493395420668]",4.0,"[-0.07868864239111242,0.13764963890886261]",4.0,"[-0.039795345330483324,-0.18358203522095248]",4.0,"[-0.01649508051200024,-0.04589007193291619]",4.0,"[0.1402543675401027,-0.1220392025665487]",4.0,"[-0.022201103058320477,-0.14382720807030894]",4.0,"[0.07487818670676763,0.0335716971517002]",4.0,"[0.07876180097206133,-0.15410686038651736]",4.0,"[0.028145661089361357,-0.134730034919087]",4.0,"[-0.12707599236782566,0.13071376180004052]",4.0,"[0.1496036187552866,-0.07274915501117957]",4.0,"[0.02,0.02]",181.2285,0.0,36.0,36.0,204.0,1.0,,,,,,,
,,,,,,,683257b42d026cccbb0eb561,684396241a0e8d6ce0b93f25,2025-06-06_21h30.52.930,shape_ratio,2024.1.5,Win32,59.88023952,6842b561977af9ba9b0f87ca,,,,,,,,,,,181.2296,181.7279,,,181.9785,182.2949,left,,,,,,,,0.9,0.2848,,,,,,,181.7279,181.9784,182.295,"[-0.08215909830095747,0.14007995624613934]",100.0,"[0.1288685256559414,0.11172066278447959]",4.0,"[-0.18127404441307254,0.07530697305007643]",100.0,"[-0.010510664556518855,-0.1693811698196917]",100.0,"[-0.08948858383221031,-0.06412293454695871]",100.0,"[0.08057411379630323,0.105496132686262]",100.0,"[0.1194309328382352,0.013072958913363695]",100.0,"[0.050861425103616714,0.015485410954135338]",4.0,"[0.0482260019428822,-0.03693135190130183]",100.0,"[0.0015909053092032558,0.11914804647946213]",100.0,"[-0.0016541291877157954,-0.026011377097231822]",100.0,"[0.15411941837562604,-0.10898395935118024]",100.0,"[0.006170297346282524,-0.09577822447227857]",4.0,"[0.15527469478630038,0.05190939279606366]",100.0,"[-0.10919712998175278,-0.12987914237191794]",100.0,"[0.08655970711297001,0.04289525666450038]",100.0,"[-0.04097496929683508,-0.037143880804242926]",100.0,"[0.04975257546303242,-0.18233866848191416]",100.0,"[0.017000922949083168,0.05506400967596826]",100.0,"[0.1960341721468798,0.0015273479887537775]",100.0,"[-0.070274355846038,0.08028206633052644]",100.0,"[0.08924375639158053,-0.15440918594838599]",100.0,"[-0.1751596843086745,-0.07242485868774275]",100.0,"[0.14989824980821187,-0.015462746482358729]",100.0,"[0.06416491886044333,-0.11766244748670078]",100.0,"[0.01845357458916114,0.16438820747107147]",100.0,"[-0.1225200400324204,-0.024268905718200267]",100.0,"[-0.06302373091661068,0.1788409810295392]",100.0,"[-0.06197932042283675,-0.17271875131399045]",100.0,"[-0.1378928879480087,0.023848950513006638]",100.0,"[-0.13276954039258285,0.1331487389427159]",100.0,"[-0.02758566812846356,0.14866062299398825]",100.0,"[0.02,0.02]",183.3945,0.0,37.0,37.0,13.0,1.0,,,,,,,
,,,,,,,683257b42d026cccbb0eb561,684396241a0e8d6ce0b93f25,2025-06-06_21h30.52.930,shape_ratio,2024.1.5,Win32,59.88023952,6842b561977af9ba9b0f87ca,,,,,,,,,,,183.3952,183.8933,,,184.1449,184.4781,right,,,,,,,,0.9,0.3073,,,,,,,183.8934,184.1447,184.4783,"[-0.0957059846883436,0.16780270865525712]",100.0,"[-0.011705121671416326,-0.19936741942719438]",100.0,"[0.12786286090416438,0.14023050646204635]",100.0,"[-0.1564989405406104,-0.04831403484857161]",100.0,"[-0.14353098105712936,0.1224221305643243]",100.0,"[0.09778826382139134,-0.10885969785179259]",100.0,"[-0.14720273336336592,-0.08982795263678724]",100.0,"[-0.020182311051700083,0.05027973332200991]",100.0,"[0.0154034290596071,0.08539633461690144]",100.0,"[-0.09638849072268911,-0.017893435334653283]",100.0,"[0.07018288189783772,-0.1772853816487529]",4.0,"[-0.023033835720015786,0.133093486266704]",4.0,"[-0.05403207805967194,-0.17703344452267655]",100.0,"[0.026061030372565765,0.045346985902830865]",100.0,"[-0.13597384748842153,0.010784411965590416]",100.0,"[0.028265318856224294,-0.04954915506907241]",100.0,"[0.09363930624698223,0.02665646232798199]",100.0,"[-0.09230185287431437,0.05738410798456918]",100.0,"[0.10610139454620146,-0.042019852220388274]",100.0,"[-0.0772505959111636,-0.06532122880595027]",100.0,"[0.14782426185463565,-0.09558025487844952]",100.0,"[0.03338759550332897,0.18122701592208404]",100.0,"[0.09829942564436915,0.16722150564786523]",100.0,"[0.03829177387365585,-0.003323368550743677]",100.0,"[0.036718746715627505,0.13331386601652334]",100.0,"[-0.0457005273593213,-0.09081437378476351]",100.0,"[0.07438591118204133,0.10789683441081094]",100.0,"[-0.12906587249864418,0.07950215130595366]",4.0,"[0.06373881596558846,-0.07557032559429865]",100.0,"[-0.11248979604850545,-0.12525073834898426]",100.0,"[0.17933701397755547,-0.0022520711700953423]",100.0,"[-0.05616330926749548,-0.13267162335895819]",100.0,"[0.02,0.02]",185.5767,0.0,38.0,38.0,12.0,1.0,,,,,,,
,,,,,,,683257b42d026cccbb0eb561,684396241a0e8d6ce0b93f25,2025-06-06_21h30.52.930,shape_ratio,2024.1.5,Win32,59.88023952,6842b561977af9ba9b0f87ca,,,,,,,,,,,185.5774,186.0765,,,186.3262,186.5945,left,,,,,,,,0.4,0.257,,,,,,,186.0766,186.3261,186.5947,"[-0.17407948738080117,0.08975034521226663]",100.0,"[0.08647648041994206,-0.09125820133051639]",100.0,"[-0.15869565829238197,-0.06552912690481268]",4.0,"[0.06989226428069466,-0.012271481430405793]",4.0,"[0.11284264466490504,0.12229090982060903]",4.0,"[-0.03520829825537335,-0.12884497527803856]",4.0,"[-0.0968015620557137,0.06834344971560198]",100.0,"[-0.04604807734719261,0.19353058378652166]",4.0,"[-0.12883108526202253,0.1404834649242922]",100.0,"[-0.05294565747761039,-0.04846411711900598]",100.0,"[0.056653354249652406,0.12382087262799621]",4.0,"[0.11944015610058013,-0.14626194034385376]",4.0,"[0.018230938840852227,-0.007735122111316239]",100.0,"[0.00447968997810607,-0.1065495959822582]",4.0,"[0.15203069296528923,0.06712062135378152]",4.0,"[0.08523362983722552,0.17032255514079506]",4.0,"[-0.025815279636347437,0.011409597965557336]",100.0,"[-0.1069443087854612,-0.05664189185403778]",4.0,"[0.16224528013960998,-0.07915177827432708]",4.0,"[0.02971019983495725,-0.053838605462239814]",4.0,"[0.14829769147843286,0.0020256545872292643]",100.0,"[-0.11865411703862994,-0.14455104067606006]",4.0,"[0.01593075379376273,0.13287329979129134]",4.0,"[-0.04271207669963879,0.13688054662553972]",100.0,"[0.18404894585003398,-0.04514414165945216]",4.0,"[-0.1735877392702424,-0.012249697589837516]",100.0,"[-0.057720679821980043,0.05558859034968442]",100.0,"[0.049516821901311375,-0.183861277190912]",4.0,"[0.11314012353543668,0.08013816048493107]",4.0,"[-0.1525162828931694,0.043000425556133315]",100.0,"[0.10603431899868787,0.011055137910216459]",100.0,"[-0.0551702071426913,-0.18474545887612884]",4.0,"[0.02,0.02]",187.6913,0.0,39.0,39.0,170.0,1.0,,,,,,,
,,,,,,,683257b42d026cccbb0eb561,684396241a0e8d6ce0b93f25,2025-06-06_21h30.52.930,shape_ratio,2024.1.5,Win32,59.88023952,6842b561977af9ba9b0f87ca,,,,,,,,,,,187.6928,188.1927,,,188.4427,188.7082,right,,,,,,,,0.45,0.2412,,,,,,,188.1928,188.4427,188.7083,"[0.1268800094774983,-0.043058739049712594]",4.0,"[-0.102926667866928,-0.10059376818882147]",100.0,"[-0.009381039566559023,0.03102837054669812]",4.0,"[0.002145596109771197,0.11554506277657434]",4.0,"[-0.05206220848391518,0.13405098867079585]",100.0,"[0.027036705257610923,0.16778263323568468]",100.0,"[0.13770331748722348,0.03549238368760492]",100.0,"[-0.03569889180961886,0.08235781771162558]",4.0,"[0.15818405004768984,-0.06822113940350696]",4.0,"[0.093437825109196,-0.09598565234836542]",4.0,"[0.06920762930775094,-0.16139744162356226]",100.0,"[-0.0457062439293313,-0.09579273490074738]",100.0,"[0.08159355979037693,0.18179361151131443]",4.0,"[0.05686673959107918,-0.11811141440640067]",4.0,"[-0.15036980386331267,0.002360580498595757]",100.0,"[0.1584753033689115,0.08310610113876274]",100.0,"[0.1862021752745263,0.02467904720928122]",4.0,"[-0.16955403996165178,-0.049113169403198945]",4.0,"[-0.04885377549872859,0.04158860136260848]",4.0,"[-0.10149224362149596,-0.005268752966356001]",4.0,"[-0.19721019632110753,0.01522353785420338]",100.0,"[0.07172360076748181,-0.02222365469952887]",4.0,"[0.16625819496150704,-0.01751267254935867]",4.0,"[-0.051700937327946,0.18076993153688622]",100.0,"[-0.11910062814960617,0.036303777951231526]",4.0,"[0.006861619465284679,-0.09967949510632364]",100.0,"[-0.08347900872862939,-0.17753001529385803]",100.0,"[0.0019927986313573996,-0.15435240706151246]",100.0,"[0.0669541014836217,0.13877805873133212]",4.0,"[-0.1045777049806868,0.17044498323798615]",4.0,"[-0.10562270677032788,0.08906521799370362]",100.0,"[0.012745308363316221,0.07336150713505239]",4.0,"[0.02,0.02]",189.8077,0.0,40.0,40.0,123.0,1.0,,,,,,,
,,,,,,,683257b42d026cccbb0eb561,684396241a0e8d6ce0b93f25,2025-06-06_21h30.52.930,shape_ratio,2024.1.5,Win32,59.88023952,6842b561977af9ba9b0f87ca,,,,,,,,,,,189.8085,190.3066,,,190.5581,190.6903,left,,,,,,,,0.1,0.1175,,,,,,,190.3068,190.558,190.6905,"[-0.1954909954085337,0.037180695760617395]",4.0,"[-0.05123557241249837,-0.08005325294117305]",4.0,"[-0.029744433424036067,0.17837583910285137]",4.0,"[0.004144904384380903,-0.1920203687479418]",4.0,"[-0.1657733829856016,0.0027054498155410674]",4.0,"[0.07805973739378062,-0.14137457974468925]",4.0,"[0.015982506459933418,0.1881103604933584]",4.0,"[0.09455239672611945,0.0450262074657034]",4.0,"[0.08069845903349589,-0.06592574762556995]",100.0,"[-0.061002872309801656,-0.013938521856967166]",4.0,"[-0.11945166520520353,-0.14086435859429675]",4.0,"[0.06552124676282364,-0.18389191956447293]",4.0,"[0.023813024748418975,-0.01388679040434307]",4.0,"[-0.1061293995642139,0.08306736287357148]",4.0,"[-0.13477225997690195,0.14008907054989272]",4.0,"[0.11027516015373647,0.15448955357212193]",4.0,"[-0.15227902061057763,0.07123691238971616]",4.0,"[0.05468417395149345,0.12288625641779097]",4.0,"[-0.03965683344637513,0.03378222564787376]",4.0,"[-0.024524610509684304,-0.03349067655959631]",4.0,"[-0.07816221938268948,0.12112873702814184]",4.0,"[0.09027683203875786,-0.015370613177070306]",4.0,"[-0.13826694358514613,-0.04565275700528788]",4.0,"[-0.1236257758744569,0.03963477610384134]",4.0,"[0.12559291944446802,0.09274145554038754]",100.0,"[0.17029306344801937,0.04714260664526889]",4.0,"[0.038819430395092495,0.0667803092932653]",4.0,"[-0.003027544131336619,-0.11823161019883831]",4.0,"[-0.00573866837526562,0.09191539380718937]",4.0,"[0.03900572598153224,-0.152636553875655]",100.0,"[-0.06895370374195522,-0.13944673636260435]",4.0,"[-0.09744156599305273,-0.03465885414471341]",4.0,"[0.02,0.02]",191.7903,0.0,41.0,41.0,208.0,1.0,,,,,,,
,,,,,,,683257b42d026cccbb0eb561,684396241a0e8d6ce0b93f25,2025-06-06_21h30.52.930,shape_ratio,2024.1.5,Win32,59.88023952,6842b561977af9ba9b0f87ca,,,,,,,,,,,191.7911,192.2902,,,192.5401,192.8888,left,,,,,,,,0.45,0.3307,,,,,,,192.2905,192.5401,192.8888,"[0.05435185812581704,-0.018148536230659845]",4.0,"[0.11090311187291275,-0.05287711165664223]",4.0,"[0.04041339327586393,-0.09275822378775334]",100.0,"[0.01863749965153287,-0.19177995062675968]",4.0,"[-0.025833436615288495,-0.034984065012074815]",4.0,"[-0.11869176203111992,-0.154022812865405]",100.0,"[-0.037939848169511264,-0.18684016728583785]",4.0,"[0.028906810090974712,0.19509180480345611]",100.0,"[-0.0014132060785745837,-0.1527886260958708]",4.0,"[0.018604313734666807,-0.05794351575227472]",100.0,"[0.12748662846309755,-0.14234373316883545]",4.0,"[-0.08204578835395143,0.139539407838531]",100.0,"[-0.10668871108147522,0.07924518023770456]",4.0,"[-0.15924211385575818,-0.05088063763716883]",100.0,"[0.12106420399755807,0.12624883420552985]",100.0,"[0.15514230777194743,-0.09985638392641313]",100.0,"[0.10851735965016708,0.03496314625705803]",100.0,"[-0.12514898139485534,0.00762677821553661]",4.0,"[-0.06719984587741959,-0.026927661868360042]",4.0,"[-0.09014497806980522,-0.06124081041471455]",4.0,"[-0.1553038178837732,-0.10693344769714347]",100.0,"[-0.007436612368750124,0.0012074600573291634]",100.0,"[-0.03270889164399734,-0.10891633162611829]",4.0,"[0.06500953977941515,-0.1368063384841479]",4.0,"[-0.031528861555613644,0.1806246419074873]",4.0,"[0.07264888641879919,0.05810604489925199]",100.0,"[0.03429910190418229,0.023142769522596324]",4.0,"[0.038475038489394174,0.1456069367494522]",100.0,"[0.18652569392345922,0.009461311499069147]",4.0,"[-0.020428924713036645,0.05987168688897819]",4.0,"[-0.13766994501044422,0.10571831376333819]",4.0,"[0.14974007812740966,0.03168713243472586]",100.0,"[0.02,0.02]",193.9877,0.0,42.0,42.0,120.0,1.0,,,,,,,
,,,,,,,683257b42d026cccbb0eb561,684396241a0e8d6ce0b93f25,2025-06-06_21h30.52.930,shape_ratio,2024.1.5,Win32,59.88023952,6842b561977af9ba9b0f87ca,,,,,,,,,,,193.988,194.4886,,,194.7392,195.8714,right,,,,,,,,0.5,1.1093,,,,,,,194.4887,194.7391,195.8715,"[-0.0027327658476578747,-0.031469324109288085]",4.0,"[-0.07846347876367842,-0.14246493555256784]",100.0,"[0.06582731807031932,-0.055412275065359944]",100.0,"[0.07932085666744432,-0.1780662352274494]",4.0,"[0.1186306775145339,0.14837426672741458]",4.0,"[0.19205705107309753,0.05258864204953793]",4.0,"[0.09462423888864296,0.008679617082386652]",100.0,"[-0.06660881955039712,0.14640183041869917]",4.0,"[0.09615916114994676,0.05240504303229093]",4.0,"[-0.07384671479762321,-0.04242562416153808]",100.0,"[0.15985158847134653,0.006527677894809506]",4.0,"[-0.12516752383540913,-0.013131851595254119]",4.0,"[0.008913439111314276,-0.19001296901857936]",4.0,"[0.041938001776343575,-0.10339307124557204]",100.0,"[0.02133351850029611,0.09072794998997008]",100.0,"[0.1413824846680936,0.08274107296251701]",4.0,"[-0.1564620833830856,-0.07448755545992837]",100.0,"[-0.012278355655318575,0.1239478066929277]",100.0,"[-0.04001888074654109,-0.12727860133980393]",100.0,"[0.17451660281058165,-0.0677880581018096]",4.0,"[-0.11933332686128685,0.040933256257398604]",4.0,"[-0.18725609124035678,0.007566086643650437]",100.0,"[0.11251781376462722,-0.0674062769218586]",100.0,"[-0.11648213255494272,-0.10617868573354326]",4.0,"[-0.18610796842329508,-0.03364497568060068]",100.0,"[-0.06449700033796983,0.010603679230912811]",4.0,"[0.08827962691848865,0.10640070961426445]",100.0,"[-0.1687761094094455,0.06002914846752726]",100.0,"[0.04050470573074342,-0.01754255510653083]",4.0,"[0.0030096668027499345,0.021711450309688504]",4.0,"[-0.05953575270744025,-0.08053141168012487]",100.0,"[-0.10332634043283624,0.08358071382040629]",100.0,"[0.02,0.02]",196.9708,0.0,43.0,43.0,109.0,1.0,,,,,,,
,,,,,,,683257b42d026cccbb0eb561,684396241a0e8d6ce0b93f25,2025-06-06_21h30.52.930,shape_ratio,2024.1.5,Win32,59.88023952,6842b561977af9ba9b0f87ca,,,,,,,,,,,196.9715,197.4709,,,197.7201,197.9705,left,,,,,,,,0.4,0.2362,,,,,,,197.4709,197.7198,197.9706,"[-0.14346153751923676,0.08538696261804585]",4.0,"[-0.09662941208435018,-0.13599886021330246]",100.0,"[-0.03811418024923642,0.1795372965083226]",100.0,"[-0.08713030338010357,0.016495950115565372]",100.0,"[-0.017739200230433586,0.09870559331601549]",100.0,"[0.0769911623742085,0.04072635639310215]",4.0,"[0.08976100579759998,-0.16191794395540338]",100.0,"[-0.08775403602214522,-0.09552812283851612]",4.0,"[0.17409086226666504,0.08767512061499388]",4.0,"[0.0032792466264222253,0.15057455773864306]",4.0,"[0.006431833520798298,-0.15652910253511243]",4.0,"[-0.05284405981529378,0.12662537636213478]",4.0,"[0.06598134286810929,-0.045032043134856675]",100.0,"[0.1419385434565473,-0.017626414228862623]",4.0,"[0.036467027524988434,-0.015284361394900355]",4.0,"[-0.1685945570596071,-0.08092428317871539]",100.0,"[-0.05876044329155168,-0.18667551270623617]",4.0,"[0.05631422820968585,0.17129801765587144]",4.0,"[0.07558357229323255,-0.11232688236248345]",4.0,"[0.03053057446650694,-0.0855596861703967]",100.0,"[0.14924903953016067,-0.11199201200410476]",4.0,"[0.11033411479438575,-0.07539700135958892]",100.0,"[-0.09144941935070816,0.0821876565285445]",100.0,"[0.042433316658775706,0.09827191104907715]",100.0,"[0.16302591338977118,0.03703392423241838]",4.0,"[-0.006899952628644945,0.019355257388172058]",100.0,"[-0.04939220837616224,-0.14505887304533716]",4.0,"[0.10553935592863932,0.10852472125893889]",4.0,"[-0.005860872501313863,-0.04543018223344758]",100.0,"[-0.08420210236147266,-0.029431535959221877]",4.0,"[-0.14403818267712376,-0.021656946554882376]",4.0,"[0.09612313029239936,-0.008781707482774336]",4.0,"[0.02,0.02]",199.0684,0.0,44.0,44.0,154.0,1.0,,,,,,,
,,,,,,,683257b42d026cccbb0eb561,684396241a0e8d6ce0b93f25,2025-06-06_21h30.52.930,shape_ratio,2024.1.5,Win32,59.88023952,6842b561977af9ba9b0f87ca,,,,,,,,,,,199.0686,199.5703,,,199.8208,199.9863,left,,,,,,,,0.6,0.1523,,,,,,,199.5705,199.8206,199.9865,"[-0.186700636470851,-0.023214429268503024]",100.0,"[-0.00219606637092863,-0.021709799011173838]",100.0,"[-0.10503029346450608,0.03793556068913759]",100.0,"[-0.03603266436784192,-0.14930287045978632]",4.0,"[-0.05817405946055353,-0.0875886134724212]",100.0,"[0.10060330026264071,0.07631649476391518]",4.0,"[0.09580210285420862,-0.09763092789877875]",4.0,"[-0.08204157909313314,-0.0027011296494087404]",100.0,"[0.0728504268869998,0.008799427456510482]",100.0,"[-0.0745601891890326,0.15095316146413215]",100.0,"[0.05049330501662879,-0.04639939102518779]",4.0,"[0.022834702576630006,0.10453768141731146]",100.0,"[-0.13570398957469618,0.09376426442382832]",4.0,"[0.15172529523411257,-0.07788470163009271]",100.0,"[0.1908095625130141,0.04548021730080125]",4.0,"[0.16072252375507418,0.11900784762955467]",100.0,"[-0.0500591238842241,0.11496356986655425]",100.0,"[0.13706382035755574,-0.1302357106134348]",4.0,"[0.003895892258014876,0.19353587546427284]",4.0,"[-0.16731310501671096,-0.0965090842406423]",100.0,"[0.011375878812335599,-0.17179850768772015]",4.0,"[0.03599523273708931,-0.12831693215844184]",4.0,"[-0.033077543730413404,0.035425451931936906]",100.0,"[-0.13501699584671054,-0.07173656592711024]",4.0,"[0.031278435041001036,0.01596668079993778]",4.0,"[-0.10367452333708292,-0.15880307562707946]",4.0,"[-0.008506778384162663,-0.06256150359823485]",100.0,"[0.03222481828505609,-0.08698385734699726]",100.0,"[0.15757748538135624,-0.02285987745372614]",100.0,"[0.11598093925338579,0.15523992144884324]",100.0,"[0.14029848306623244,0.04229145702350476]",100.0,"[-0.026532199081870954,0.148934292624339]",100.0,"[0.02,0.02]",201.0853,0.0,45.0,45.0,34.0,1.0,,,,,,,
,,,,,,,683257b42d026cccbb0eb561,684396241a0e8d6ce0b93f25,2025-06-06_21h30.52.930,shape_ratio,2024.1.5,Win32,59.88023952,6842b561977af9ba9b0f87ca,,,,,,,,,,,201.0861,201.5845,,,201.8358,201.9012,left,,,,,,,,0.5,0.0548,,,,,,,201.5845,201.8357,201.9013,"[-0.0858772477626,0.12974653641359643]",100.0,"[0.10763616544652774,0.05029101990622398]",4.0,"[0.07627117277049975,0.09914898377321159]",100.0,"[-0.14684531903976816,0.07426015237171706]",100.0,"[0.11669972874004132,-0.15380139315608748]",4.0,"[-0.03500759184686079,-0.07322963888520198]",100.0,"[0.11864772867583769,-0.0988910760608271]",100.0,"[0.012645273310015746,-0.15933536365395654]",4.0,"[-0.026540737774344354,-0.015845397859433247]",100.0,"[-0.10999917638782475,0.0005561567713475207]",4.0,"[-0.015222587861630872,-0.13030464953040602]",100.0,"[0.017577956083372686,0.027704744371058618]",100.0,"[-0.12003728134441195,-0.1432554169003371]",4.0,"[-0.008068735857636969,0.17326295685311527]",100.0,"[0.1096108805576554,-0.03446782123948675]",100.0,"[0.13843726785853197,0.0928650361420159]",4.0,"[-0.029100354837479275,0.07073324571208711]",4.0,"[-0.1921006965383935,0.020229221219454804]",4.0,"[0.1960139080272068,-0.01289562762687137]",100.0,"[0.14894510064767533,0.02242533272066123]",100.0,"[0.03130259046691037,0.0833265465828045]",4.0,"[-0.07389225109583314,-0.15504448546067018]",100.0,"[-0.16060001505940402,-0.024965917382084726]",4.0,"[0.028624355231818496,0.14346917507119974]",4.0,"[0.18323153972273207,-0.06064333396470775]",4.0,"[-0.11426189782824732,-0.08535831755827743]",100.0,"[-0.06810073607295984,0.18432728243758897]",100.0,"[0.038992113361705105,-0.10489927590038012]",4.0,"[-0.0384721833677788,0.1264124279318834]",4.0,"[0.05913504945596896,0.011431474740073985]",4.0,"[-0.04859982721497289,-0.18893281957329036]",4.0,"[0.1492461031761974,-0.01794844307629468]",100.0,"[0.02,0.02]",203.0012,0.0,46.0,46.0,117.0,1.0,,,,,,,
,,,,,,,683257b42d026cccbb0eb561,684396241a0e8d6ce0b93f25,2025-06-06_21h30.52.930,shape_ratio,2024.1.5,Win32,59.88023952,6842b561977af9ba9b0f87ca,,,,,,,,,,,203.0019,203.5009,,,203.7515,203.8343,right,,,,,,,,0.5,0.0529,,,,,,,203.501,203.7514,203.8345,"[0.04190597951372148,-0.19524682148510278]",4.0,"[-0.025661460119238394,-0.0639768258131926]",100.0,"[0.15388972310306695,0.05529939068698113]",100.0,"[-0.16324399353366714,0.034108205374412386]",100.0,"[-0.06497617751973511,0.10825329130216599]",100.0,"[0.1875479886366401,0.009753986311850133]",100.0,"[0.1019421501214383,-0.045678441292048136]",4.0,"[-0.15416215678176337,-0.12188760802400572]",4.0,"[-0.08322370872121791,0.05997703779309077]",100.0,"[-0.11018511367399303,0.006183357528405001]",100.0,"[-0.016173033944963895,0.13328626939848953]",4.0,"[-0.12270159205942306,-0.04397301985102963]",100.0,"[0.11393297715407838,0.043101038089976514]",100.0,"[0.08788423463896074,0.1275538408655436]",4.0,"[-0.16271090512989414,0.07486950466145242]",4.0,"[0.11135466465328032,-0.16607114055569278]",100.0,"[0.13270433317926708,0.14056215075003722]",4.0,"[-0.13818036119673158,0.14424824065491876]",4.0,"[0.009777460880152314,0.06397164075039591]",100.0,"[-0.041822073783752675,-0.1665698288447007]",4.0,"[0.1456722014220217,-0.08732087495750698]",100.0,"[0.148445663019622,-0.0007974704363509412]",4.0,"[-0.1118156069098203,-0.14196369527523314]",4.0,"[-0.0742413717356389,-0.017642087005356365]",100.0,"[0.0781490736825412,-0.1134662221265669]",100.0,"[0.13982927736275294,0.097608165743389]",4.0,"[0.05035797667844236,-0.034118214740687595]",4.0,"[-0.08442520058353388,0.15197987924043507]",4.0,"[0.011933896198477208,-0.12695311629258801]",4.0,"[0.18808521900107814,-0.05428889502702532]",4.0,"[-0.12226512222394864,0.08774251256585588]",100.0,"[0.009239254601315389,0.01352704470655624]",100.0,"[0.02,0.02]",204.9338,0.0,47.0,47.0,108.0,1.0,,,,,,,
,,,,,,,683257b42d026cccbb0eb561,684396241a0e8d6ce0b93f25,2025-06-06_21h30.52.930,shape_ratio,2024.1.5,Win32,59.88023952,6842b561977af9ba9b0f87ca,,,,,,,,,,,204.9356,205.4343,,,205.6835,205.8335,right,,,,,,,,0.9,0.1208,,,,,,,205.4347,205.6834,205.8337,"[-0.024340319193315366,0.10638337978926536]",100.0,"[-0.13128728319317953,-0.13195232704474413]",100.0,"[-0.08882518780050434,0.049376769169736275]",100.0,"[0.1222686961460899,-0.15007035321542578]",100.0,"[0.04900658047489015,-0.19270922967575663]",100.0,"[-0.07214025600738574,-0.01745081501348859]",100.0,"[-0.13552254971707964,-0.07959170205910847]",100.0,"[0.12862801831656467,0.025267257103000665]",100.0,"[0.05621760532212618,0.05316279171888419]",100.0,"[0.07743540393002574,0.16948646420282115]",100.0,"[-0.030943216743525515,-0.19098393718155843]",4.0,"[-0.029058296249318404,-0.09478682655907848]",100.0,"[0.1273706180493345,0.10517217497272702]",100.0,"[0.02090012734830996,-0.10163351421745877]",100.0,"[0.18020635621269396,-0.005301241880133874]",100.0,"[0.011466582711499026,0.1875618107161371]",100.0,"[-0.15592029854629189,0.06380708527292558]",100.0,"[0.07502591124055846,0.10099420758416357]",4.0,"[0.08089439243552504,-0.020347432869483238]",100.0,"[-0.03096309969033876,-0.04260980567329728]",100.0,"[-0.07133670159643303,0.13660526633621514]",100.0,"[-0.1808194119298606,-0.040441466781098306]",100.0,"[0.07729183058356684,-0.11416003811989356]",100.0,"[0.17080828546372645,-0.07187344936196163]",4.0,"[-0.14205652754726467,0.11835275791348347]",100.0,"[0.045626335757448004,0.004241846918050713]",100.0,"[-0.07699474931870437,-0.14544813219252625]",100.0,"[0.03913671035939069,0.12429311024184442]",100.0,"[-0.12384640216738622,-0.019988861537597685]",100.0,"[0.03181528239357801,-0.06196010255479032]",100.0,"[-0.09608706030392572,-0.0608354224211625]",100.0,"[-0.19420722499728849,0.04507619447528936]",100.0,"[0.02,0.02]",206.9329,0.0,48.0,48.0,4.0,1.0,,,,,,,
,,,,,,,683257b42d026cccbb0eb561,684396241a0e8d6ce0b93f25,2025-06-06_21h30.52.930,shape_ratio,2024.1.5,Win32,59.88023952,6842b561977af9ba9b0f87ca,,,,,,,,,,,206.9337,207.4329,,,207.6822,207.7321,right,,,,,,,,0.55,0.0187,,,,,,,207.4329,207.6821,207.7323,"[-0.09926508876617976,-0.12209649624548287]",4.0,"[0.03265408245957017,-0.13645103615956297]",100.0,"[0.12293666298574478,0.07264609859290294]",100.0,"[-0.08667152795420767,0.11701430031001445]",100.0,"[0.07927168381604982,-0.08970185691818429]",4.0,"[0.18999652693431313,-0.05818495624384266]",4.0,"[-0.04458740867142071,-0.1708814891819782]",100.0,"[0.11397448046842296,0.011347141422966462]",4.0,"[-0.05431569817373026,0.047553546102918905]",4.0,"[-0.041254474560966356,-0.03245813612469564]",4.0,"[0.03603388997597657,-0.09520209735461248]",4.0,"[0.027726762919618158,0.07613314831777486]",100.0,"[-0.0924093776282618,-0.03326716111487678]",4.0,"[-0.16326730967549707,0.09167786998604094]",100.0,"[0.007781591672521015,-0.048734373686948794]",100.0,"[0.17694189069491095,-0.0001611045679815746]",100.0,"[-0.10823474559932235,0.049260011727553975]",100.0,"[-0.027869571800216802,0.009879141131865951]",100.0,"[-0.04070086554017767,0.17028674833272184]",100.0,"[0.01531707386646952,0.13477188952155725]",4.0,"[0.1809027283797309,0.08497458633772291]",100.0,"[-0.13326371213757612,-0.0696178852166113]",4.0,"[-0.18362831478896532,-0.07555454889582303]",4.0,"[-0.02744841145091501,0.08584558976887276]",100.0,"[0.1659735819793658,-0.10828852876852765]",100.0,"[0.002128778991250475,-0.18907748452310308]",4.0,"[0.12084214282773308,-0.10698598550730166]",100.0,"[-0.14654544733883676,0.02803950180127408]",100.0,"[-0.16714668941009944,-0.013040268651706932]",4.0,"[0.06508455800176292,-0.18321941535918054]",100.0,"[0.056370739287875685,0.10978802911336925]",100.0,"[0.09597528388261237,-0.024547449301169182]",4.0,"[0.02,0.02]",208.8328,0.0,49.0,49.0,70.0,1.0,,,,,,,
