right,left,explain.started,explain.stopped,key_resp_3.keys,key_resp_3.rt,key_resp_3.duration,participant,session,date,expName,psychopyVersion,OS,frameRate,study_id,explain_2.started,explain_2.stopped,key_resp_4.keys,key_resp_4.rt,key_resp_4.duration,explain_3.started,explain_3.stopped,key_resp_5.keys,key_resp_5.rt,key_resp_5.duration,fixation.started,fixation.stopped,practice.started,practice.stopped,response.started,response.stopped,key_resp.keys,feedback.started,feedback.stopped,trials_2.thisRepN,trials_2.thisTrialN,trials_2.thisN,trials_2.thisIndex,trials_2.ran,dot_ratio,key_resp.rt,key_resp.duration,explain_4.started,explain_4.stopped,key_resp_6.keys,key_resp_6.rt,key_resp_6.duration,dotDisplay.started,dotDisplay.stopped,ITI.started,polygon_1.pos,polygon_1.edges,polygon_2.pos,polygon_2.edges,polygon_3.pos,polygon_3.edges,polygon_4.pos,polygon_4.edges,polygon_5.pos,polygon_5.edges,polygon_6.pos,polygon_6.edges,polygon_7.pos,polygon_7.edges,polygon_8.pos,polygon_8.edges,polygon_9.pos,polygon_9.edges,polygon_10.pos,polygon_10.edges,polygon_11.pos,polygon_11.edges,polygon_12.pos,polygon_12.edges,polygon_13.pos,polygon_13.edges,polygon_14.pos,polygon_14.edges,polygon_15.pos,polygon_15.edges,polygon_16.pos,polygon_16.edges,polygon_17.pos,polygon_17.edges,polygon_18.pos,polygon_18.edges,polygon_19.pos,polygon_19.edges,polygon_20.pos,polygon_20.edges,polygon_21.pos,polygon_21.edges,polygon_22.pos,polygon_22.edges,polygon_23.pos,polygon_23.edges,polygon_24.pos,polygon_24.edges,polygon_25.pos,polygon_25.edges,polygon_26.pos,polygon_26.edges,polygon_27.pos,polygon_27.edges,polygon_28.pos,polygon_28.edges,polygon_29.pos,polygon_29.edges,polygon_30.pos,polygon_30.edges,polygon_31.pos,polygon_31.edges,polygon_32.pos,polygon_32.edges,dot_size,ITI.stopped,trials.thisRepN,trials.thisTrialN,trials.thisN,trials.thisIndex,trials.ran,break_2.started,break_2.stopped,trials_3.thisRepN,trials_3.thisTrialN,trials_3.thisN,trials_3.thisIndex,trials_3.ran
subject chose diamond,subject chose dot,0.0004,79.9378,space,19.6168,,659b99fcfe88c311aee00bed,6846a84de1d84b2efe80b788,2025-06-09_03h24.43.469,shape_ratio,2024.1.5,Win32,18.34862385,684250e4f00cb30b92d1fa88,,,,,,,,,,,,,,,,,,,,,,,,,,,,,,,,,,,,,,,,,,,,,,,,,,,,,,,,,,,,,,,,,,,,,,,,,,,,,,,,,,,,,,,,,,,,,,,,,,,,,,,,,,,,,,,,,
,,,,,,,659b99fcfe88c311aee00bed,6846a84de1d84b2efe80b788,2025-06-09_03h24.43.469,shape_ratio,2024.1.5,Win32,18.34862385,684250e4f00cb30b92d1fa88,79.9378,116.8358,space,6.8484,,,,,,,,,,,,,,,,,,,,,,,,,,,,,,,,,,,,,,,,,,,,,,,,,,,,,,,,,,,,,,,,,,,,,,,,,,,,,,,,,,,,,,,,,,,,,,,,,,,,,,,,,,,,,
,,,,,,,659b99fcfe88c311aee00bed,6846a84de1d84b2efe80b788,2025-06-09_03h24.43.469,shape_ratio,2024.1.5,Win32,18.34862385,684250e4f00cb30b92d1fa88,,,,,,116.8358,121.0731,space,1.2035,,,,,,,,,,,,,,,,,,,,,,,,,,,,,,,,,,,,,,,,,,,,,,,,,,,,,,,,,,,,,,,,,,,,,,,,,,,,,,,,,,,,,,,,,,,,,,,,,,,,,,,,
,,,,,,,659b99fcfe88c311aee00bed,6846a84de1d84b2efe80b788,2025-06-09_03h24.43.469,shape_ratio,2024.1.5,Win32,18.34862385,684250e4f00cb30b92d1fa88,,,,,,,,,,,121.0819,121.5672,121.5674,121.8232,121.8232,123.2853,,123.2854,124.3847,0.0,0.0,0.0,1.0,1.0,0.8,,,,,,,,,,,,,,,,,,,,,,,,,,,,,,,,,,,,,,,,,,,,,,,,,,,,,,,,,,,,,,,,,,,,,,,,,,,,,,,,,,,,,,,,
,,,,,,,659b99fcfe88c311aee00bed,6846a84de1d84b2efe80b788,2025-06-09_03h24.43.469,shape_ratio,2024.1.5,Win32,18.34862385,684250e4f00cb30b92d1fa88,,,,,,,,,,,124.3851,124.8592,124.8593,125.1033,125.1034,125.611,right,125.611,126.6903,0.0,1.0,1.0,0.0,1.0,0.2,0.4466,,,,,,,,,,,,,,,,,,,,,,,,,,,,,,,,,,,,,,,,,,,,,,,,,,,,,,,,,,,,,,,,,,,,,,,,,,,,,,,,,,,,,,,
,,,,,,,659b99fcfe88c311aee00bed,6846a84de1d84b2efe80b788,2025-06-09_03h24.43.469,shape_ratio,2024.1.5,Win32,18.34862385,684250e4f00cb30b92d1fa88,,,,,,,,,,,,,,,,,,,,,,,,,,,,126.6905,133.9465,space,4.2506,,,,,,,,,,,,,,,,,,,,,,,,,,,,,,,,,,,,,,,,,,,,,,,,,,,,,,,,,,,,,,,,,,,,,,,,,,,,,,,,,,
,,,,,,,659b99fcfe88c311aee00bed,6846a84de1d84b2efe80b788,2025-06-09_03h24.43.469,shape_ratio,2024.1.5,Win32,18.34862385,684250e4f00cb30b92d1fa88,,,,,,,,,,,133.9522,134.4387,,,134.649,135.2645,right,,,,,,,,0.55,0.5493,,,,,,,134.4391,134.6489,135.2648,"[0.18048283067763707,0.06646957878089493]",100.0,"[0.11372951854146608,-0.08200618192269722]",4.0,"[0.07176211771385846,0.10097725465426716]",4.0,"[-0.04007597243417374,-0.18156208220535688]",4.0,"[0.0650385880296185,0.02389041947281155]",4.0,"[-0.054653362519879005,-0.07655246756135924]",100.0,"[-0.024111988226256802,-0.11985387926589156]",100.0,"[0.18664008403725466,-0.04538182280975109]",100.0,"[0.018996709406138068,-0.04502654377614965]",100.0,"[-0.09903295395957669,0.015384507733106558]",4.0,"[-0.03154041314058901,0.16219739147812962]",100.0,"[-0.06403094724191839,0.08294176170678381]",4.0,"[0.12385522606962668,0.06472739704462963]",4.0,"[-0.021908551202348508,0.11184831237346235]",100.0,"[-0.03504648128973045,0.02392370585437803]",100.0,"[-0.14446475413657173,-0.09140525739859913]",100.0,"[0.015035801516615268,0.08968572119870782]",4.0,"[-0.11042467972217518,0.16454114443935441]",4.0,"[0.13862838111770556,0.1329792485107359]",100.0,"[0.13230270698574179,-0.1307079567209191]",100.0,"[0.1503315400014047,-0.011343253149835262]",4.0,"[-0.1625307463630787,0.06907571888160025]",100.0,"[0.03232577655623407,-0.17463405118847017]",100.0,"[0.08585277839850015,-0.11733512849849626]",100.0,"[-0.1083049162782803,-0.07203378324967975]",100.0,"[0.15575865624126786,0.034860241749582965]",4.0,"[0.049629712232100984,0.17915061155760517]",100.0,"[0.023433356127100232,0.1395181893919467]",100.0,"[-0.17652979210249192,-0.04241074053863673]",100.0,"[0.022159424688653374,-0.11111364136528049]",4.0,"[0.07550093593515429,-0.17490869245725893]",4.0,"[-0.0863849306241207,-0.17409743778298198]",4.0,"[0.02,0.02]",136.3595,0.0,0.0,0.0,68.0,1.0,,,,,,,
,,,,,,,659b99fcfe88c311aee00bed,6846a84de1d84b2efe80b788,2025-06-09_03h24.43.469,shape_ratio,2024.1.5,Win32,18.34862385,684250e4f00cb30b92d1fa88,,,,,,,,,,,136.3598,136.8098,,,137.0739,137.523,left,,,,,,,,0.9,0.3921,,,,,,,136.8099,137.0739,137.5231,"[-0.05722783980690168,-0.16272501659657154]",100.0,"[-0.07179078422486454,-0.12537423126677633]",100.0,"[-0.10068341290917918,-0.07339238940383531]",100.0,"[-0.08830257568602219,0.069131852630619]",4.0,"[-0.0024040212962169174,-0.04162896129455151]",100.0,"[0.019274159018071158,0.13371494416624638]",100.0,"[0.0651940490941231,-0.1640487165897368]",100.0,"[0.12849609683386973,0.021411224278339223]",100.0,"[0.10026401653281408,-0.012777098124587537]",100.0,"[0.10793976265088977,0.13091824378137146]",4.0,"[0.16178013043721481,-0.021009230324280308]",100.0,"[-0.03263793865236482,-0.09764787795691707]",100.0,"[0.045609292806229294,0.10127820685012089]",100.0,"[-0.15527956891366734,0.034593438280409644]",100.0,"[0.0021628605064039973,-0.13028545579535367]",100.0,"[-0.08953060153563022,0.13241770761418295]",100.0,"[-0.07022857998294692,0.019895281719261526]",100.0,"[0.18792337483096963,0.009389058721404593]",100.0,"[0.023515724039489847,0.057656555715593444]",100.0,"[-0.04772171696611048,-0.01743637480000106]",100.0,"[-0.14744281218355892,0.08645894178196445]",100.0,"[-0.051341352297539146,0.16616200958188235]",100.0,"[0.13838921115229194,0.10460525651911146]",100.0,"[0.058001664330745294,-0.07629472825193608]",100.0,"[-0.17038801232672868,-0.05379990030834021]",100.0,"[0.07125217391827184,0.18508024349915164]",100.0,"[0.042625775797430744,-0.12070165325030767]",100.0,"[-0.016148753031722758,-0.19030961136163163]",100.0,"[0.060256000048736776,0.012499501744900816]",4.0,"[0.17700323605793786,0.0819963399474425]",100.0,"[0.13488538569282926,-0.08113381790776343]",100.0,"[0.02468786639164646,0.19465834202216936]",100.0,"[0.02,0.02]",138.5799,0.0,1.0,1.0,27.0,1.0,,,,,,,
,,,,,,,659b99fcfe88c311aee00bed,6846a84de1d84b2efe80b788,2025-06-09_03h24.43.469,shape_ratio,2024.1.5,Win32,18.34862385,684250e4f00cb30b92d1fa88,,,,,,,,,,,138.5802,139.0748,,,139.3237,139.7158,right,,,,,,,,0.55,0.328,,,,,,,139.0748,139.3237,139.7159,"[0.14714794699780456,0.011042498308318344]",4.0,"[-0.04530337092859736,-0.023444831411051373]",100.0,"[-0.16901820787847577,-0.06971403968543853]",4.0,"[0.15765831998053742,0.06863457102795974]",4.0,"[-0.11649501460876165,0.039533325373111154]",4.0,"[-0.11155192991627139,0.11484540517921181]",4.0,"[0.06776548393851509,-0.016351075772445562]",4.0,"[0.017952704618083654,-0.10597560460622334]",100.0,"[0.05575963958154168,-0.175606093406259]",100.0,"[0.11310139466789869,-0.130895817124615]",100.0,"[-0.17280712748037508,0.06529024458348652]",4.0,"[-0.06782114099972783,0.09649616010545174]",100.0,"[-0.006963125489574717,-0.13994231636173654]",100.0,"[-0.009030937721173157,0.19235328109132754]",100.0,"[0.08294981876844619,-0.10384445825272602]",100.0,"[0.04978433410554192,-0.07609838493037603]",4.0,"[-0.007676459031382341,-0.054197803890912354]",4.0,"[0.14064134414137408,-0.05943881626596263]",100.0,"[-0.04489090526616202,0.15072737150247792]",100.0,"[-0.10733851462317995,-0.04052563382157577]",4.0,"[-0.044450228123737154,-0.16418757201655257]",4.0,"[0.16986472993622795,-0.09265703277677642]",100.0,"[-0.08880394871349824,0.1580831598447182]",100.0,"[-0.01570233070579399,0.06972938680871642]",100.0,"[0.008399997845460225,0.12508142070401587]",100.0,"[0.058289607823442814,0.06047004800990398]",4.0,"[0.1475456382777995,0.13362327893398263]",100.0,"[-0.11816552926528927,-0.11023798398771474]",4.0,"[-0.04810809982284287,-0.08181110730944187]",4.0,"[-0.1187137273230155,-0.0010731123398575594]",100.0,"[-0.04023612433912207,0.02831677954791842]",100.0,"[0.08312618709150633,0.09939456205292559]",100.0,"[0.02,0.02]",140.7839,0.0,2.0,2.0,77.0,1.0,,,,,,,
,,,,,,,659b99fcfe88c311aee00bed,6846a84de1d84b2efe80b788,2025-06-09_03h24.43.469,shape_ratio,2024.1.5,Win32,18.34862385,684250e4f00cb30b92d1fa88,,,,,,,,,,,140.7842,141.2579,,,141.5151,141.9718,right,,,,,,,,0.45,0.3919,,,,,,,141.2579,141.5151,141.9719,"[0.18239642081812626,0.013471416780857148]",4.0,"[-0.08281502887241704,0.07600315860365137]",100.0,"[0.031619411263943784,-0.13571390174524445]",4.0,"[0.028921908823767696,-0.18600937477375631]",100.0,"[-0.09451485700797338,-0.08534983553169843]",4.0,"[-0.14370562031358142,0.11560917340127176]",100.0,"[0.10443765982182368,0.043416858077654115]",4.0,"[-0.04290258950237686,-0.16391348351748491]",4.0,"[-0.1552150091441339,-0.09237975001692773]",4.0,"[0.03769253182021395,0.06952251897558608]",4.0,"[-0.04248267975858634,-0.09750857730087707]",100.0,"[-0.041179252916874735,0.11431867760086625]",100.0,"[0.13765252502404057,0.07147261006920146]",100.0,"[-0.1667264982181017,0.056172669426725164]",4.0,"[-0.0848602494027061,0.026465447839270094]",100.0,"[0.1713902138541491,0.09769621916350384]",4.0,"[-0.192824397173406,-0.05071059635750275]",4.0,"[0.004404658566325309,0.020166904883775302]",100.0,"[0.10352671521530471,-0.043933241854072394]",4.0,"[0.13800874990871195,-0.003941512129220805]",100.0,"[-0.08239982047173544,0.12021200340800123]",100.0,"[0.06683001731955499,0.013175089835104663]",4.0,"[-0.149275647672234,-0.007833180869868247]",100.0,"[-0.008270267114375073,-0.044319876079994415]",4.0,"[-0.04533508519568674,0.18186773051185667]",4.0,"[-0.06104051689824593,-0.05993321108645878]",100.0,"[0.12084496565666678,-0.11634710994541152]",4.0,"[0.16937881947072195,-0.08533499813333982]",4.0,"[0.07138249612065106,0.12488142532977811]",100.0,"[0.07379161588454168,-0.17480441321274837]",4.0,"[0.05423618876614476,-0.09136118975259573]",100.0,"[0.1202007546355318,0.128553634383191]",4.0,"[0.02,0.02]",143.042,0.0,3.0,3.0,137.0,1.0,,,,,,,
,,,,,,,659b99fcfe88c311aee00bed,6846a84de1d84b2efe80b788,2025-06-09_03h24.43.469,shape_ratio,2024.1.5,Win32,18.34862385,684250e4f00cb30b92d1fa88,,,,,,,,,,,143.0422,143.5147,,,143.7627,144.0854,left,,,,,,,,0.5,0.2611,,,,,,,143.5148,143.7627,144.0854,"[-0.1621064730488005,-0.029997084132087206]",4.0,"[0.05668917389171274,-0.018734148364950992]",100.0,"[0.15938215402860625,0.01325160511096399]",4.0,"[0.0444221391392499,0.08775222566733275]",100.0,"[0.15545654775953666,0.06681647853380678]",4.0,"[0.11322346605284997,-0.06108172556206322]",4.0,"[-0.042629648945158125,0.11781764346561695]",100.0,"[-0.07841659388890375,-0.07181223252663933]",4.0,"[0.0190328239885918,-0.0560770876912883]",100.0,"[-0.0022734511341654814,-0.15922682429322846]",100.0,"[-0.06957514307676566,-0.007369498357806101]",100.0,"[-0.033935027255237574,0.18838710007189127]",100.0,"[0.08552776676216756,0.055782985319526954]",4.0,"[0.12184801325570481,0.11359032398503814]",4.0,"[0.11250253681172252,-0.014737730039270012]",4.0,"[-0.09266916807742034,0.08691442133905117]",100.0,"[-0.18790781347527533,-0.06279981624895511]",100.0,"[0.04520294929138881,0.16548280567333645]",100.0,"[0.029932293749082194,-0.10142624406539558]",4.0,"[-0.1378862100326398,0.02212814180918548]",100.0,"[-0.15703436305733898,0.08696119780451185]",100.0,"[0.14239560584836541,-0.09315848499122971]",4.0,"[0.0781983965130323,-0.14897276102558363]",100.0,"[-0.020471717812040244,-0.048342293211198345]",100.0,"[-0.09380309242518373,0.028051433384622966]",4.0,"[0.18978394607424662,-0.04753458893007564]",4.0,"[-0.15481316706278966,-0.08814630372004902]",4.0,"[-0.11005501781768799,0.15608766802850696]",100.0,"[-0.097420080646527,-0.1162233339967469]",4.0,"[-0.024045603978602108,0.041819190189374765]",4.0,"[-0.05916864078386124,-0.12822319887121744]",100.0,"[-0.11027884045463494,-0.014592251800709582]",4.0,"[0.02,0.02]",145.1531,0.0,4.0,4.0,95.0,1.0,,,,,,,
,,,,,,,659b99fcfe88c311aee00bed,6846a84de1d84b2efe80b788,2025-06-09_03h24.43.469,shape_ratio,2024.1.5,Win32,18.34862385,684250e4f00cb30b92d1fa88,,,,,,,,,,,145.1534,145.6293,,,145.8801,146.2617,left,,,,,,,,0.6,0.3206,,,,,,,145.6294,145.88,146.2618,"[0.06169055131352692,0.09095433316892491]",100.0,"[-0.06437522650176025,0.16770575578034913]",100.0,"[-0.15905328522415343,0.1136532552124511]",4.0,"[0.10695728987184032,0.03004719085305806]",100.0,"[-0.06352348021758654,-0.005525037896294125]",100.0,"[0.12716155665381865,-0.05346392938526327]",4.0,"[-0.02892458905487884,0.039588676585986055]",100.0,"[0.019886396666730265,-0.13104889018314464]",100.0,"[-0.14381556905670917,-0.11590492047163796]",100.0,"[0.018581595843264135,-0.04599659641456764]",100.0,"[-0.15909002896534516,0.0721198268025973]",4.0,"[0.015168819949156658,-0.0031693644366682103]",4.0,"[-0.0316924865361404,-0.17404486935679483]",100.0,"[0.1456399850902341,0.11740524251293556]",100.0,"[-0.0963231705926246,0.1291838392304815]",4.0,"[-0.16082331858783683,-0.05006856335012612]",100.0,"[-0.08849085379624537,-0.0722587302054409]",4.0,"[0.029001772501519463,-0.18290451355393172]",100.0,"[-0.018136457501335163,0.13242757960522802]",100.0,"[-0.0046728205013097995,0.08370689996703476]",100.0,"[-0.16646367705187998,0.008601517891348042]",4.0,"[0.12462417609680694,0.08214748303839153]",4.0,"[-0.016288559595818174,-0.09422400193411534]",4.0,"[0.17113437186127772,0.05093067564278329]",4.0,"[0.03547630064905797,0.16322189937825957]",4.0,"[-0.09587930700035616,-0.15223287214810627]",100.0,"[-0.1107108117799797,0.0788142868782732]",100.0,"[0.1917308114039489,-0.011023872434246719]",100.0,"[-0.04429928666539666,-0.059932002135922056]",100.0,"[0.061325440036967716,-0.06875301122218694]",4.0,"[-0.06670754013453682,0.08565212629981611]",4.0,"[0.07891888509889046,-0.10586221946771197]",100.0,"[0.02,0.02]",147.378,0.0,5.0,5.0,45.0,1.0,,,,,,,
,,,,,,,659b99fcfe88c311aee00bed,6846a84de1d84b2efe80b788,2025-06-09_03h24.43.469,shape_ratio,2024.1.5,Win32,18.34862385,684250e4f00cb30b92d1fa88,,,,,,,,,,,147.3782,147.8562,,,148.1029,148.5631,left,,,,,,,,0.4,0.3987,,,,,,,147.8562,148.1028,148.5631,"[-0.004583086450754246,0.02583334529343039]",4.0,"[0.05198993357565095,0.12096719951855746]",100.0,"[0.0954738078092841,0.1077594951285225]",4.0,"[-0.06587063223721928,0.10308167126370926]",100.0,"[0.1455453434320587,-0.12021799914274231]",100.0,"[0.11443687844059375,-0.09026479137003132]",4.0,"[0.025449570444194693,-0.06944941393906105]",100.0,"[0.026080490065611504,0.07357357766816673]",4.0,"[-0.01622730609607988,0.10159507790346553]",100.0,"[-0.1279604413800309,-0.07395132539414417]",100.0,"[0.08819734490450422,0.04783325937083948]",100.0,"[-0.07257725681954362,-0.07351878149146013]",4.0,"[-0.06602710750952313,-0.027756785841278074]",4.0,"[-0.0028346238810638465,0.19898942767513833]",4.0,"[-0.006087581700340057,-0.1819506244996958]",100.0,"[0.062096298165646574,-0.10137121837615795]",100.0,"[0.16437103394696118,0.06012896972762613]",100.0,"[0.04894575130731412,-0.16298678491498422]",4.0,"[-0.126054393314671,-0.01035141402776815]",4.0,"[-0.00833989954736158,-0.10456533984768443]",4.0,"[-0.0892099476987334,0.04091040683742595]",4.0,"[-0.06433705893949011,0.14511134716297697]",4.0,"[-0.109506078222433,0.08912520878598801]",100.0,"[0.17589107161112297,-0.015458094099692872]",4.0,"[0.13296425753982807,-0.0047718313359659]",4.0,"[0.08667638732480719,0.14910547655542683]",4.0,"[0.07920739291698334,-0.01791029969429323]",4.0,"[-0.14076715141992627,-0.12863445155115039]",4.0,"[-0.1787065782889458,0.06283079392162069]",100.0,"[0.16562159647058083,-0.07919300767790123]",100.0,"[-0.11535038879849163,0.14879540150854786]",4.0,"[-0.17477050564901603,0.007658827170714819]",4.0,"[0.02,0.02]",149.6657,0.0,6.0,6.0,151.0,1.0,,,,,,,
,,,,,,,659b99fcfe88c311aee00bed,6846a84de1d84b2efe80b788,2025-06-09_03h24.43.469,shape_ratio,2024.1.5,Win32,18.34862385,684250e4f00cb30b92d1fa88,,,,,,,,,,,149.666,150.1428,,,150.3927,150.9021,left,,,,,,,,0.9,0.4521,,,,,,,150.1428,150.3927,150.9022,"[-0.09544709677426925,-0.019815636208806185]",4.0,"[0.06634928125420914,0.036420388923173064]",100.0,"[-0.011050239778640928,0.026643637897842756]",100.0,"[0.0059158372940793956,0.10817255216004532]",100.0,"[-0.10255755313759941,0.06555505710604881]",100.0,"[0.10450631674070894,-0.06454350652671]",4.0,"[0.01493621858743175,0.060192466745069964]",100.0,"[0.13276805121719287,-0.015046352330200572]",100.0,"[0.15377579301116834,-0.05931606219109295]",100.0,"[-0.095774129928976,-0.13756545298025447]",100.0,"[-0.03770815338227859,-0.11742037709464313]",100.0,"[-0.19210985421819798,-0.027834159353450974]",100.0,"[-0.013689955574209219,0.15560712412674135]",100.0,"[0.05305173708837537,-0.017156140163374627]",100.0,"[0.15172652007303522,-0.12296815702186953]",100.0,"[-0.10424559187508618,0.12893305142089617]",100.0,"[-0.04265628306945198,0.10322417284575901]",100.0,"[0.046324941037814656,0.18915531972966598]",100.0,"[0.08934586286274501,0.12016039430714684]",100.0,"[-0.03571301644054203,-0.17843719738122274]",100.0,"[0.16213145797080214,0.10914356882134976]",100.0,"[0.05185576141393563,-0.11704723556997759]",4.0,"[-0.14451547355787162,0.011639865698287285]",100.0,"[-0.15630835693586972,0.07838688795436162]",100.0,"[0.19223352913346914,-0.021691673029951147]",100.0,"[-0.029059188665653293,-0.07677204889745975]",100.0,"[0.14339811832498198,0.04395435656786841]",100.0,"[-0.027316910550017982,-0.03492447414536597]",100.0,"[0.07759521996850104,0.15907900902449154]",100.0,"[0.18419568574791165,0.023651862362093608]",100.0,"[-0.05361327347388547,0.17362456279908858]",100.0,"[0.03199946657690721,0.15163531931645843]",100.0,"[0.02,0.02]",151.9763,0.0,7.0,7.0,29.0,1.0,,,,,,,
,,,,,,,659b99fcfe88c311aee00bed,6846a84de1d84b2efe80b788,2025-06-09_03h24.43.469,shape_ratio,2024.1.5,Win32,18.34862385,684250e4f00cb30b92d1fa88,,,,,,,,,,,151.9766,152.4613,,,152.7159,153.151,left,,,,,,,,0.55,0.38,,,,,,,152.4613,152.7158,153.1511,"[-0.0626474405836378,0.009015720701441455]",100.0,"[0.18478080700370877,-0.05537798074158895]",4.0,"[0.0853156793373614,0.02921835935649397]",4.0,"[0.1356313925279994,-0.0591593461766779]",4.0,"[0.14317613751301358,0.00959215435887855]",100.0,"[-0.07298301787895944,0.048859818456478125]",100.0,"[-0.022018036031868814,0.19426936994255545]",100.0,"[-0.055213963622042034,-0.042482864928071656]",4.0,"[-0.1703685406033873,-0.007428547775214462]",100.0,"[0.0836373648911277,0.17077594361624798]",4.0,"[-0.0015726858428561899,-0.11019357538909445]",100.0,"[0.19811923205593074,0.025423881509754477]",100.0,"[0.007424385141596088,0.008539245916139918]",4.0,"[-0.061844207441025784,-0.08281943969291548]",100.0,"[-0.11568885284546516,0.11066178499701683]",100.0,"[0.020249675636081026,-0.16521063560036015]",4.0,"[-0.07016844243877719,0.1348013033492826]",100.0,"[-0.04836698996649529,-0.19222243922417623]",4.0,"[-0.11335379763240867,-0.08181373746021056]",100.0,"[0.10071002999506017,-0.1478297698117307]",100.0,"[0.08065927290393032,-0.029777079505156148]",4.0,"[-0.10560660876809273,-0.13074802385343337]",100.0,"[0.0842625762736885,0.10683316881188272]",4.0,"[-0.02434830528252048,0.15323033239806985]",4.0,"[-0.02090510428577316,0.10840046547789413]",4.0,"[-0.1693505106626635,-0.059178528493770206]",100.0,"[-0.13255089786754948,-0.025796587612124222]",100.0,"[-0.04229982681811134,-0.14048898250239256]",100.0,"[0.03564840120804483,0.06504149640273146]",100.0,"[0.01848603162700656,0.18487467088073772]",4.0,"[-0.17762052976961917,0.08837675230687832]",4.0,"[0.12940796747734745,0.08781387142107215]",100.0,"[0.02,0.02]",154.2303,0.0,8.0,8.0,89.0,1.0,,,,,,,
,,,,,,,659b99fcfe88c311aee00bed,6846a84de1d84b2efe80b788,2025-06-09_03h24.43.469,shape_ratio,2024.1.5,Win32,18.34862385,684250e4f00cb30b92d1fa88,,,,,,,,,,,154.2306,154.7015,,,154.9486,155.3411,right,,,,,,,,0.4,0.3299,,,,,,,154.7015,154.9485,155.3411,"[-0.1029088206635008,-0.034335816390643106]",100.0,"[0.028703062445602324,-0.01591176260323852]",4.0,"[-0.011620023234463626,0.14411218254231428]",100.0,"[-0.14914200146633466,0.08947399828567945]",4.0,"[-0.1889329772476241,0.03584055674631805]",4.0,"[-0.09589840358227031,-0.10256685081381267]",100.0,"[-0.15649550087737338,-0.06858621578733962]",100.0,"[-0.011500523625009576,-0.16786783085640578]",100.0,"[-0.06491816374015258,0.07057538118114423]",4.0,"[0.055430156223559485,-0.11757982052025459]",4.0,"[0.14516432332881868,0.03435326602947248]",4.0,"[0.0817092549687443,-0.15927041575331893]",100.0,"[0.15266615724263038,-0.08757092455497897]",100.0,"[-0.05182410468295706,0.11110876600733804]",100.0,"[0.04636235209007687,0.13444514803994784]",4.0,"[0.1866566508025343,0.05989122541157048]",4.0,"[0.043646103142198356,0.033435204961104595]",4.0,"[-0.017498453393391143,0.1886567487701959]",4.0,"[0.1084950955396407,-0.023377133137832944]",100.0,"[-0.039005758895518855,-0.017958618942428506]",4.0,"[-0.07113386971453571,-0.1438328118265883]",4.0,"[0.13402414216462477,0.10141141759454883]",100.0,"[0.16057801477823275,-0.03839492121700624]",4.0,"[-0.043297825970704015,0.023145378388536905]",4.0,"[0.09268026464000179,0.12024616913559721]",4.0,"[-0.10125465857261937,0.13838362147042657]",4.0,"[0.057725389690170666,0.07423595191312252]",100.0,"[0.07249729811250553,0.18317958835087503]",4.0,"[0.00944270379142972,-0.06540299557222512]",4.0,"[-0.030985662022467914,-0.07353541752133344]",4.0,"[-0.0042765539398875565,0.06473678645480356]",100.0,"[-0.12268009984892933,0.039398874745542864]",100.0,"[0.02,0.02]",156.4165,0.0,9.0,9.0,162.0,1.0,,,,,,,
,,,,,,,659b99fcfe88c311aee00bed,6846a84de1d84b2efe80b788,2025-06-09_03h24.43.469,shape_ratio,2024.1.5,Win32,18.34862385,684250e4f00cb30b92d1fa88,,,,,,,,,,,156.4167,156.9063,,,157.1601,157.4233,left,,,,,,,,0.9,0.1998,,,,,,,156.9064,157.1601,157.4233,"[-0.010528079563864421,-0.15905873107761448]",100.0,"[0.15748580543354063,-0.09761116493258556]",100.0,"[-0.056584422087294445,-0.0019902341965615843]",100.0,"[0.16261476237037908,0.0451259306917167]",100.0,"[0.10325965737059521,0.00028248101563553384]",4.0,"[-0.14160965971440456,0.01747447588910612]",100.0,"[-0.13410704135927728,-0.040459238093627274]",100.0,"[0.07590949168681227,-0.16469943754677407]",100.0,"[0.19253102108115064,-0.024646763507538753]",100.0,"[-0.10772887617564654,-0.12106977910518275]",100.0,"[-0.023765253998213852,0.06813679889668783]",4.0,"[-0.1485212771311431,-0.12806487097294078]",100.0,"[0.04158119562063093,0.05740746274725998]",100.0,"[-0.0894848303683935,0.12408602936942272]",100.0,"[-0.04616271653882813,0.18900911078764734]",100.0,"[0.005379046861042686,-0.0067266762065816684]",100.0,"[0.1068373684290736,0.14725269550243808]",100.0,"[-0.06643915308265681,0.04569045661736536]",100.0,"[-0.1652310626989359,0.10449187464405278]",100.0,"[0.04887579214889333,0.11997719735886979]",100.0,"[-0.19207129485072474,-0.01472888648158759]",100.0,"[0.11805151387306355,0.1071184930251685]",100.0,"[0.11441037917789508,0.049706146440323666]",100.0,"[-0.07644398051615105,-0.07986255241909825]",100.0,"[0.014414567641042595,0.09545404963413105]",100.0,"[-0.1767840841054436,0.05682100236593694]",100.0,"[-0.13715844410241668,0.1395521820573606]",100.0,"[-0.10693637363955184,0.04779668941946754]",100.0,"[-0.023804502364589076,-0.06680702123789117]",100.0,"[0.03690463546568002,-0.1869505772592913]",100.0,"[0.08957481556055504,-0.09106245141603551]",100.0,"[-0.12457862990590761,0.09200015303798584]",4.0,"[0.02,0.02]",158.5141,0.0,10.0,10.0,23.0,1.0,,,,,,,
,,,,,,,659b99fcfe88c311aee00bed,6846a84de1d84b2efe80b788,2025-06-09_03h24.43.469,shape_ratio,2024.1.5,Win32,18.34862385,684250e4f00cb30b92d1fa88,,,,,,,,,,,158.5144,158.9855,,,159.2312,159.616,left,,,,,,,,0.6,0.3237,,,,,,,158.9855,159.2311,159.616,"[0.019478003696035858,-0.15278588683195454]",100.0,"[-0.11469859014872903,0.07484212623846141]",100.0,"[0.12150926419191162,0.0999978831788295]",4.0,"[0.08034991463677689,0.08376028096897084]",100.0,"[-0.08972358514565724,-0.1347792286966465]",100.0,"[0.06620568014460415,-0.08411974325637554]",100.0,"[0.06080626625135358,-0.17447993634196984]",4.0,"[-0.15178807186975043,0.000258313830132478]",100.0,"[-0.17095498326002556,-0.0529627963035379]",100.0,"[-0.06646756483884797,-0.04740081054001907]",100.0,"[-0.017016280918582427,-0.053910001297342525]",4.0,"[0.1294203675257633,-0.0008066262700062801]",4.0,"[0.011906865417814197,0.13830571173958725]",100.0,"[-0.12098445621386648,0.11752243590808205]",4.0,"[0.12835290173465064,0.04309105782619929]",4.0,"[-0.09840714810817652,-0.08697606450259027]",100.0,"[-0.08296178852228765,0.13339107310349776]",4.0,"[0.05888614458297369,-0.02130943546700348]",100.0,"[0.1039872121882356,-0.05111478172242876]",100.0,"[-0.004112624244525462,-0.1942699528566963]",100.0,"[0.03371815148111805,0.05174908037739934]",4.0,"[-0.13772104463288187,-0.10014987816046876]",100.0,"[0.15229731852232772,-0.06788450602794165]",100.0,"[-0.0852760262528644,0.020947535058785608]",4.0,"[0.11440617498158226,-0.13393603437918275]",100.0,"[0.000171643053603262,0.021850231580524803]",100.0,"[-0.053477719147828465,0.18718004701301083]",4.0,"[0.16612586477330016,0.08101797820907]",4.0,"[0.1939316847644221,0.026859155481449248]",4.0,"[-0.010314441996153645,-0.10546192849944297]",100.0,"[0.013980431008230399,0.09214949647618674]",100.0,"[-0.1677875778199198,0.10649667852207788]",4.0,"[0.02,0.02]",160.6886,0.0,11.0,11.0,56.0,1.0,,,,,,,
,,,,,,,659b99fcfe88c311aee00bed,6846a84de1d84b2efe80b788,2025-06-09_03h24.43.469,shape_ratio,2024.1.5,Win32,18.34862385,684250e4f00cb30b92d1fa88,,,,,,,,,,,160.689,161.1679,,,161.4217,161.8683,right,,,,,,,,0.55,0.3905,,,,,,,161.1679,161.4217,161.8683,"[0.05587950650663681,0.07950667750531389]",4.0,"[0.1916179360862123,0.05719268098703711]",100.0,"[-0.12695289889394887,-0.00886405083185106]",4.0,"[-0.008356335660356533,-0.1854777981104512]",100.0,"[-0.16113139629573342,-0.057897410307221085]",100.0,"[-0.0840052292836129,0.029625382559737408]",4.0,"[0.07517759299949536,-0.14498715160432038]",4.0,"[-0.010484685187491771,-0.058136182661600894]",100.0,"[-0.11241273294291987,0.137680214098019]",4.0,"[-0.17878968782628546,0.035805640887218174]",100.0,"[-0.058522148949508974,0.13382433818274644]",100.0,"[0.11381327726724025,0.03893605190893242]",4.0,"[-0.09882891400968893,-0.09680245579669514]",4.0,"[0.18140971369359932,-0.06034927724789599]",4.0,"[0.06319950851993804,-0.01719728235453199]",100.0,"[-0.010768651482322268,0.08022514125636675]",100.0,"[-0.05244037876382775,-0.16920525975983036]",4.0,"[0.13846835098980612,0.11172862220234582]",4.0,"[0.03143775219485909,-0.174345653026805]",100.0,"[-0.13379566800280146,-0.13650322303323772]",100.0,"[0.16756996557521298,-0.10825864185443225]",4.0,"[-0.16021663824668303,0.07148508368744735]",100.0,"[-0.06381221319754168,-0.12360864346335049]",4.0,"[0.0019201727837487128,0.15587021794290978]",4.0,"[0.19007724807056378,-0.002312959543520525]",100.0,"[-0.023852299564162835,0.1879940276694999]",100.0,"[0.09305897617928491,-0.06367131199176546]",4.0,"[0.0475169201255646,0.13480235828684475]",100.0,"[0.05800504766026087,0.18168925956833173]",100.0,"[0.11754798077838562,0.15485784038408648]",100.0,"[0.11592344773722109,-0.13539740221160895]",100.0,"[0.03836132137874898,0.017262742272438462]",100.0,"[0.02,0.02]",162.9803,0.0,12.0,12.0,87.0,1.0,,,,,,,
,,,,,,,659b99fcfe88c311aee00bed,6846a84de1d84b2efe80b788,2025-06-09_03h24.43.469,shape_ratio,2024.1.5,Win32,18.34862385,684250e4f00cb30b92d1fa88,,,,,,,,,,,162.9811,163.4447,,,163.6865,164.3947,right,,,,,,,,0.45,0.6508,,,,,,,163.4447,163.6864,164.3947,"[0.1280328566326256,-0.11746653669109322]",4.0,"[-0.019093963638029104,0.1054139524293078]",4.0,"[0.08770710770558554,-0.09836899321194688]",4.0,"[-0.09369640070968185,-0.09913638513548394]",100.0,"[-0.14290699945158022,-0.01245077610109368]",100.0,"[-0.16759293032445566,0.056517437953953926]",4.0,"[-0.02309803656059459,0.19736735427351293]",100.0,"[0.030972149347224455,-0.1691859607808784]",4.0,"[0.17480920368550706,-0.05910347607027833]",4.0,"[0.08084083876703889,0.07240651942322204]",100.0,"[-0.06494231953578418,-0.004066118309340962]",100.0,"[-0.05928107089399421,0.12839377231442026]",4.0,"[-0.004254511856242186,0.15443232418867262]",4.0,"[-0.1721418489177626,-0.05631751785281107]",100.0,"[0.025268146360761565,0.062161806998067407]",4.0,"[-0.18348654256137836,0.004370552796674824]",4.0,"[0.12266631451077967,-0.028605145495309053]",4.0,"[-0.005522166835663657,-0.15226203340762207]",100.0,"[0.10804152571772951,0.037540046534203425]",100.0,"[-0.10814463689359592,0.018895634370734764]",4.0,"[0.04936420896278677,-0.12055750248182266]",4.0,"[0.09168909773236186,0.1257063643477291]",100.0,"[0.013113076877750792,-0.005671490455435689]",4.0,"[-0.020147913085989212,0.043943090822121375]",100.0,"[0.027803483388225202,0.10773598317047091]",4.0,"[-0.09742578044590833,-0.16287840365702042]",100.0,"[0.14977018824698599,0.10024184664004544]",4.0,"[0.1926555448823477,0.0016178592008168002]",4.0,"[-0.07001596631226409,-0.04968863152476155]",100.0,"[0.17057309668540768,0.0397967413884635]",4.0,"[0.02406911324634559,0.18871696074361397]",100.0,"[-0.030238905482604814,-0.05901484343337873]",100.0,"[0.02,0.02]",165.4547,0.0,13.0,13.0,144.0,1.0,,,,,,,
,,,,,,,659b99fcfe88c311aee00bed,6846a84de1d84b2efe80b788,2025-06-09_03h24.43.469,shape_ratio,2024.1.5,Win32,18.34862385,684250e4f00cb30b92d1fa88,,,,,,,,,,,165.455,165.9304,,,166.1716,166.4224,left,,,,,,,,0.9,0.1928,,,,,,,165.9304,166.1715,166.4224,"[0.18794637985462817,-0.06730391616840435]",100.0,"[-0.00595172351843727,-0.1461529091458358]",100.0,"[0.08379425986339581,-0.09729882618217349]",100.0,"[-0.13832152850054566,0.0033711531880010076]",4.0,"[-0.0837886585381683,0.07180937315354081]",100.0,"[-0.024444278652463694,0.11342986503893793]",100.0,"[0.15226431274213847,0.11385945059050155]",100.0,"[-0.11102320726495235,-0.13525437684487082]",100.0,"[0.041393987609216906,0.024424252028127195]",100.0,"[0.05953741610567037,0.15278452838504603]",100.0,"[0.08184675736639209,-0.018190593741659204]",100.0,"[-0.10855056594743741,0.12844830114747466]",4.0,"[0.037133509992174074,0.07147153217677345]",100.0,"[-0.047181360711845526,-0.011162127083006472]",100.0,"[-0.0066372239419430785,0.07724267063274341]",100.0,"[-0.17930046582262132,-0.030279976508341182]",100.0,"[0.12837264835887027,-0.03328658720639256]",100.0,"[-0.15582860363365802,-0.08672124359205263]",100.0,"[-0.0940467496517996,-0.09717850480664467]",100.0,"[-0.014641694543564614,0.1907647251632701]",100.0,"[0.19144061426029454,0.053879099424950005]",100.0,"[-0.06462822070659006,0.13374508233599533]",100.0,"[-0.01264622816386728,-0.06495869930189418]",100.0,"[0.1234098774464225,0.03809862837883238]",100.0,"[-0.06681272318601185,-0.17421284987743485]",4.0,"[-0.15928850132120953,0.05322909210446605]",100.0,"[0.07710708713688597,-0.15599470938594998]",100.0,"[-0.16567585760264947,0.10294592651099077]",100.0,"[-0.044287731224269336,0.04217933309665183]",100.0,"[0.03247018435026591,-0.042904345684421655]",100.0,"[0.07871125894903006,0.07812666168975047]",100.0,"[0.015276619199693331,0.12586620732553236]",100.0,"[0.02,0.02]",167.5163,0.0,14.0,14.0,9.0,1.0,,,,,,,
,,,,,,,659b99fcfe88c311aee00bed,6846a84de1d84b2efe80b788,2025-06-09_03h24.43.469,shape_ratio,2024.1.5,Win32,18.34862385,684250e4f00cb30b92d1fa88,,,,,,,,,,,167.5165,167.986,,,168.2285,168.4213,right,,,,,,,,0.1,0.1348,,,,,,,167.986,168.2285,168.4213,"[-0.07733149232921009,0.12029259348051599]",4.0,"[0.03912312972024245,-0.16169432326027303]",100.0,"[0.01922460099456274,0.12168949286293919]",4.0,"[-0.028265495869744223,0.053705068345929925]",4.0,"[-0.12107358066807611,-0.1227387810298428]",4.0,"[-0.022669077167561072,-0.16389565498171543]",4.0,"[-0.043147054850404945,-0.12479877164620348]",4.0,"[-0.09130419096539026,-0.06834825141049156]",4.0,"[0.08286953883597911,0.08371199172699254]",4.0,"[0.19393063592654378,-0.025735283843331323]",4.0,"[0.11014155807923269,-0.034862812851187745]",4.0,"[0.18653880810710743,0.046048379432152765]",4.0,"[-0.010509025891883326,0.16733869275745428]",4.0,"[0.03082621377766584,0.03835013157390632]",4.0,"[0.009782252906537149,-0.05977965994769757]",4.0,"[-0.14062653282425777,0.03784664410693622]",4.0,"[0.14648289300469913,-0.11271374235802578]",100.0,"[0.14281351272077097,0.13373385163259058]",4.0,"[-0.0991069813829883,0.0395709814256559]",4.0,"[0.06811454789197104,-0.0986714686934084]",4.0,"[0.10305772168529263,-0.16632427563929142]",4.0,"[-0.05100955438449055,-0.028359664658904837]",4.0,"[0.09986103821840411,0.13333293834493443]",4.0,"[0.0600789713172689,0.15190807579101748]",4.0,"[0.1281003295197654,0.09434622534344597]",4.0,"[-0.006057170635069564,0.013895277610339993]",4.0,"[-0.08344824907037353,-0.15400345368223045]",4.0,"[-0.18253580851520992,-0.016633068319903053]",4.0,"[0.04509810575587854,-0.015558999010960434]",4.0,"[0.027285511706164015,-0.10829659648184126]",4.0,"[-0.05818582320619983,0.024537082539068368]",4.0,"[-0.12828897628373512,0.14485618933243108]",100.0,"[0.02,0.02]",169.4974,0.0,15.0,15.0,189.0,1.0,,,,,,,
,,,,,,,659b99fcfe88c311aee00bed,6846a84de1d84b2efe80b788,2025-06-09_03h24.43.469,shape_ratio,2024.1.5,Win32,18.34862385,684250e4f00cb30b92d1fa88,,,,,,,,,,,169.4977,169.9723,,,170.2194,170.4118,left,,,,,,,,0.45,0.1343,,,,,,,169.9724,170.2194,170.4119,"[-0.06117415797364028,0.047107069889290025]",4.0,"[0.013718013501634473,0.07537330480992405]",4.0,"[-0.01573841799394544,-0.006046853829630786]",100.0,"[-0.07179008244687071,-0.13875290832106243]",100.0,"[-0.015048917235987693,-0.08040549996937385]",4.0,"[0.0883388515487343,0.15081870901644]",4.0,"[0.10204127793454043,-0.017629513416554405]",4.0,"[-0.11963931466123111,-0.015367848953528962]",100.0,"[0.053957555435779,-0.023714613516263555]",4.0,"[0.1620775322806767,-0.08205798640095445]",4.0,"[0.023188063776997243,0.13832952751267424]",4.0,"[-0.0282498298026627,-0.1872451611265317]",4.0,"[0.13568884542164047,-0.04391072303611]",100.0,"[0.01675186244721483,-0.11184760858328385]",4.0,"[-0.07958455537183559,0.004956129500937132]",4.0,"[-0.1421375201269221,-0.057105513744376155]",100.0,"[0.08210790790866916,0.07594569449649428]",100.0,"[0.06171741794412896,-0.14388133916889195]",100.0,"[0.16836619736183048,0.011602306880341204]",100.0,"[-0.033139701299582366,-0.1204569060173979]",4.0,"[-0.15872960432493244,0.07990848621618189]",4.0,"[0.1773521389213282,0.07325515155153722]",4.0,"[-0.08401308048376586,-0.17787587646841266]",100.0,"[-0.16102859009695508,0.0012404969333628445]",100.0,"[-0.11647111944019886,-0.11836662003220347]",4.0,"[-0.08568576198926882,-0.07326203839758565]",4.0,"[0.10099611462380757,-0.12954588203392112]",100.0,"[-0.06027855080376165,0.09082816771199963]",100.0,"[-0.1597939832424423,-0.11484863166009295]",100.0,"[0.023729897111968323,0.1887264946026653]",4.0,"[-0.0963893161037061,0.14944579667970634]",100.0,"[0.13576543104125324,0.06533041853837974]",4.0,"[0.02,0.02]",171.4825,0.0,16.0,16.0,149.0,1.0,,,,,,,
,,,,,,,659b99fcfe88c311aee00bed,6846a84de1d84b2efe80b788,2025-06-09_03h24.43.469,shape_ratio,2024.1.5,Win32,18.34862385,684250e4f00cb30b92d1fa88,,,,,,,,,,,171.4829,171.9787,,,172.2242,172.6821,right,,,,,,,,0.55,0.3986,,,,,,,171.9787,172.2241,172.6821,"[-0.07418176543315423,0.0803556778075543]",100.0,"[-0.14759560699132235,-0.0594848272780208]",100.0,"[-0.12033971368339444,0.044649513888442426]",4.0,"[-0.15331059300484365,-0.12083677394023458]",4.0,"[0.0678074925547018,0.09857968914828351]",100.0,"[-0.1846418499210537,0.012838836360819578]",4.0,"[0.08632156174507352,0.1764526289112463]",100.0,"[0.03189715653878622,-0.12552698533491757]",100.0,"[-0.017316509412246755,0.11504831489359012]",100.0,"[0.17981961694049492,-0.022246686520319296]",100.0,"[-0.18629718980501445,0.05806205267615672]",100.0,"[0.012369125067937171,0.04562925582331305]",100.0,"[-0.05820211967473997,-0.0020678290483256995]",4.0,"[0.1755477769438255,-0.07865429039606091]",4.0,"[0.008272039869334894,-0.08356325757485561]",4.0,"[-0.12422842895676772,0.11798037482947418]",100.0,"[0.06830790302256931,-0.14804548503725362]",100.0,"[0.09420501667284889,0.06147004671028986]",4.0,"[-0.03408853345296557,-0.12134649031900503]",100.0,"[-0.01747467505477055,-0.18497802300102842]",100.0,"[0.05337722761283278,-0.0575855539967549]",4.0,"[0.16625228730597585,0.05000909040180497]",100.0,"[0.07306234820893019,0.004477787689705542]",100.0,"[-0.10761806996513726,-0.046623909247990473]",4.0,"[-0.00352782556060185,0.15969100685206167]",100.0,"[0.11470909518905041,-0.060847665786896994]",4.0,"[-0.08186653379314741,-0.0837173068735556]",4.0,"[0.08288219746495841,-0.10498648079045542]",4.0,"[0.10987290511199453,0.10452603500697102]",100.0,"[-0.06791562645207026,0.03816039214156811]",4.0,"[0.14661651577853502,0.12522015941467954]",4.0,"[-0.0777642784870518,0.17334031031026056]",100.0,"[0.02,0.02]",173.798,0.0,17.0,17.0,73.0,1.0,,,,,,,
,,,,,,,659b99fcfe88c311aee00bed,6846a84de1d84b2efe80b788,2025-06-09_03h24.43.469,shape_ratio,2024.1.5,Win32,18.34862385,684250e4f00cb30b92d1fa88,,,,,,,,,,,173.7982,174.2788,,,174.523,174.7163,left,,,,,,,,0.9,0.1344,,,,,,,174.2788,174.523,174.7163,"[-0.11171845086689346,-0.1039660692033716]",100.0,"[0.06940010269321181,0.1499795702024559]",100.0,"[0.06576746578991938,-0.06517195108572525]",100.0,"[-0.08885138284300846,0.023689433995989977]",100.0,"[0.01628487525565754,0.026644089517926663]",100.0,"[0.1578566022150793,0.0273341529627594]",100.0,"[-0.10186200271323242,-0.05246389762489789]",100.0,"[-0.034513791375133045,-0.09155581646804324]",100.0,"[-0.08826055476347967,0.11876494293982287]",100.0,"[-0.023331226785326203,0.08328604894920308]",100.0,"[-0.04013786029961139,-0.17942216630431493]",100.0,"[0.00682253085811505,0.129821854232805]",100.0,"[-0.15051163614718086,-0.0022476781190291653]",100.0,"[0.07377348518186314,-0.15428406487604795]",4.0,"[0.06834280491597285,0.06344332504898656]",4.0,"[-0.04851532087612643,0.14733808156174158]",100.0,"[0.11654176017406509,-0.04343984016711025]",100.0,"[0.009842486499035644,-0.14300178132462482]",100.0,"[0.06620253963315377,-0.004349030376490025]",100.0,"[0.14886662368354234,0.10269531487735135]",100.0,"[0.11800580516167758,-0.11592904604620562]",100.0,"[-0.04185255197479229,0.0007446469931543712]",100.0,"[0.028338180777724684,-0.08563423540654187]",100.0,"[0.0067902982060128675,-0.037003272848560996]",100.0,"[-0.082898739209979,0.18128023711811686]",4.0,"[0.11760461815373928,0.009570881060253939]",100.0,"[0.09587772516295873,0.11355626588993618]",100.0,"[0.1596036706286005,-0.11040876568034529]",100.0,"[-0.1236304451456011,-0.15200131307240414]",100.0,"[0.024964259188270964,0.17322388875126835]",100.0,"[-0.014680514808919643,0.19660087824146577]",100.0,"[-0.15757483495685984,-0.11160820413288082]",100.0,"[0.02,0.02]",175.7988,0.0,18.0,18.0,26.0,1.0,,,,,,,
,,,,,,,659b99fcfe88c311aee00bed,6846a84de1d84b2efe80b788,2025-06-09_03h24.43.469,shape_ratio,2024.1.5,Win32,18.34862385,684250e4f00cb30b92d1fa88,,,,,,,,,,,175.7991,176.2764,,,176.5193,176.9749,left,,,,,,,,0.55,0.3932,,,,,,,176.2764,176.5192,176.9749,"[0.1687757680436439,0.0684109028261247]",4.0,"[0.11075476006416153,-0.14588265150371882]",100.0,"[0.026554641309775983,-0.05121540304224133]",4.0,"[-0.14750296907600896,-0.10391051963990307]",100.0,"[-0.14800623113820005,-0.012209026469595815]",4.0,"[0.10936238530724775,-0.012300217326669265]",100.0,"[-0.09737702629742975,-0.12888360424591044]",100.0,"[0.15625249825841034,0.010213344394967796]",100.0,"[-0.06542061795244335,0.15152255553100538]",4.0,"[-0.05753160813237186,-0.050920475877839]",4.0,"[-0.11536472273675379,0.13169635716842637]",100.0,"[0.04701064830777088,0.1611292667008521]",4.0,"[0.0889015193789684,0.05187611530027832]",4.0,"[-0.1521197450457944,0.05262160677408988]",4.0,"[-0.11672018846682865,-0.07019193787532248]",100.0,"[0.02125539213203534,0.10056685602263148]",100.0,"[0.050366160379523045,-0.1496114604194035]",100.0,"[0.1814077925276215,-0.07793375225778303]",4.0,"[0.103392891173992,0.1691952599432965]",100.0,"[0.046072050490739966,0.017177410380707737]",100.0,"[-0.016135246079586787,-0.08714332510800067]",100.0,"[0.19937168929893026,0.004616095903835308]",4.0,"[-0.0293877511628726,-0.18116102146762422]",4.0,"[0.06576788409966963,-0.06390683599391789]",4.0,"[0.10851893111926753,0.09940379787045198]",100.0,"[-0.06385937173512325,-0.09281347726422931]",100.0,"[0.01151991074062184,-0.12761745252210596]",100.0,"[0.11812119084622337,-0.09867702767685826]",4.0,"[0.07938079403563182,0.13160506317057885]",4.0,"[-0.0024551198827407104,0.018879456841913868]",100.0,"[0.03216557655739619,-0.19633748299088574]",100.0,"[-0.013502246278432661,-0.038428213543351006]",100.0,"[0.02,0.02]",178.0773,0.0,19.0,19.0,74.0,1.0,,,,,,,
,,,,,,,659b99fcfe88c311aee00bed,6846a84de1d84b2efe80b788,2025-06-09_03h24.43.469,shape_ratio,2024.1.5,Win32,18.34862385,684250e4f00cb30b92d1fa88,,,,,,,,,,,178.0775,178.5967,,,178.8507,179.2957,right,,,,,,,,0.45,0.3878,,,,,,,178.5968,178.8507,179.2957,"[-0.014346615341855962,-0.18700781154109583]",4.0,"[0.018528337408131167,-0.15415614720685905]",100.0,"[-0.10085952185735123,0.07204848688758407]",4.0,"[-0.07527521707478288,-0.09850893792405885]",100.0,"[-0.06135533703978806,0.0805460556298742]",100.0,"[0.14203730403562068,0.08214012074387728]",4.0,"[0.022493351314490255,0.08244961119075364]",100.0,"[0.19251623253265515,0.043827659926849394]",4.0,"[-0.08995402443534842,-0.14967047985168677]",4.0,"[0.15421216078969713,0.023517813910794248]",4.0,"[-0.006602486592454779,-0.07457056827315735]",100.0,"[-0.1663630412064701,-0.0069020883733137035]",4.0,"[-0.14587535164343138,0.11549897489625036]",4.0,"[-0.01832434614793036,0.13751693293657669]",4.0,"[0.060975118364418636,0.1125723677312766]",100.0,"[0.14023987875179394,-0.13517039611403253]",4.0,"[-0.12435617661229258,-0.01855870335058748]",4.0,"[0.1279879908283958,-0.01561160298064874]",100.0,"[-0.1615978064717824,0.054876048209313445]",4.0,"[0.06734610584467433,-0.04062981766081557]",100.0,"[0.10795455575418517,-0.15952891178056824]",100.0,"[0.05851449435804428,0.01726743724822152]",100.0,"[-0.07313977586562868,0.01589825637415667]",100.0,"[0.07061037968484188,-0.11819373216954591]",100.0,"[0.14600547436973657,-0.08443902494665262]",100.0,"[0.026261289009354156,0.13630418441120498]",4.0,"[0.010311572565052787,0.19003178912281718]",100.0,"[-0.0017402873619834533,0.014714449617021534]",4.0,"[-0.07616785109832101,-0.03124338371378081]",4.0,"[0.057789447456061106,0.059854126770826924]",4.0,"[-0.14765333492771593,-0.134111962781721]",4.0,"[0.10298855403375284,0.1636408913332697]",4.0,"[0.02,0.02]",180.3592,0.0,20.0,20.0,146.0,1.0,,,,,,,
,,,,,,,659b99fcfe88c311aee00bed,6846a84de1d84b2efe80b788,2025-06-09_03h24.43.469,shape_ratio,2024.1.5,Win32,18.34862385,684250e4f00cb30b92d1fa88,,,,,,,,,,,180.3596,180.8296,,,181.0788,181.2653,left,,,,,,,,0.9,0.1313,,,,,,,180.8296,181.0788,181.2653,"[0.0844028427354174,0.13096238051562342]",100.0,"[-0.013817861306407078,0.0986683620423188]",100.0,"[-0.039801438963785504,0.026371542702934143]",100.0,"[-0.18080008436960684,-0.02515777675600242]",100.0,"[-0.019755531985198443,-0.04052308595682408]",100.0,"[-0.02856730089923384,0.18120078190287114]",100.0,"[-0.12697008495801523,-0.0022659383760823557]",100.0,"[-0.17880921706650976,0.07883957658772356]",100.0,"[0.19234480356820388,-0.015523219054135017]",100.0,"[-0.11705157752701315,0.09334802541286154]",100.0,"[-0.05670895477816407,0.07330781654220828]",100.0,"[0.04263411444612024,-0.02683650122085416]",100.0,"[-0.07615812048571749,0.16948173324860127]",4.0,"[0.12064747633839897,-0.02012128947305449]",100.0,"[0.16935915820790634,-0.06700219056157146]",100.0,"[0.018529819358363116,0.02532260076248852]",100.0,"[0.015093583550777626,-0.12126448800449925]",100.0,"[0.15480335032111905,0.10545229594710358]",100.0,"[0.07975814177304877,0.06814054025242067]",100.0,"[-0.03352342671757248,-0.1428914789714655]",100.0,"[0.084086235721435,-0.09209834901627947]",100.0,"[-0.10640136635125978,0.0497821607069258]",100.0,"[-0.03615176182113617,-0.08358567121730816]",100.0,"[0.016236351112403128,-0.1729328053410822]",100.0,"[-0.11540781739311906,0.14442503587064176]",100.0,"[-0.15928353550429017,-0.07966361015769072]",100.0,"[0.15337418249819446,0.04638823865618906]",100.0,"[0.09893573894167736,0.17229494739641119]",100.0,"[-0.05549691476282839,0.12560432495949508]",100.0,"[0.10398092118829999,-0.13647830649222686]",4.0,"[-0.12877911459354113,-0.13424265794111465]",4.0,"[0.06221990699938547,-0.1770490795256827]",100.0,"[0.02,0.02]",182.3391,0.0,21.0,21.0,16.0,1.0,,,,,,,
,,,,,,,659b99fcfe88c311aee00bed,6846a84de1d84b2efe80b788,2025-06-09_03h24.43.469,shape_ratio,2024.1.5,Win32,18.34862385,684250e4f00cb30b92d1fa88,,,,,,,,,,,182.3393,182.827,,,183.075,183.4589,left,,,,,,,,0.5,0.3262,,,,,,,182.827,183.075,183.4589,"[0.013715100930058361,-0.12876166475970963]",4.0,"[0.15977111377304393,-0.06411923983429785]",4.0,"[0.0991518144538071,-0.05147038480093555]",100.0,"[-0.023044763453212585,0.1654122980859958]",4.0,"[0.09848514032412471,-0.1382965920000109]",4.0,"[0.14068455216919837,0.08052435908934895]",4.0,"[-0.140687243335129,0.02638618465022944]",100.0,"[-0.13866988636398178,-0.01996362133489755]",4.0,"[0.08213650974087125,0.15172792139171898]",4.0,"[-0.05417316488697608,-0.13311926391822063]",4.0,"[0.054255635828689766,0.000939673989154835]",100.0,"[-0.08520759958630734,0.10140745345933364]",4.0,"[-0.07599998536172495,-0.16900927424265133]",4.0,"[0.08440821170234097,-0.09220611395082959]",100.0,"[0.12157916422463903,0.019744299298764114]",100.0,"[0.04946126892224009,-0.03883228064033006]",100.0,"[-0.03481178596207682,0.06996071188038828]",4.0,"[0.04353634900347486,0.16800154464395]",100.0,"[-0.13070571684968973,0.12520143936260156]",100.0,"[-0.07243190324773996,-0.0077153671264993]",100.0,"[0.011837269311242002,0.09173309275999719]",4.0,"[0.01172028870624894,0.019950005198789988]",4.0,"[-0.0923770608899433,0.052943643665388326]",100.0,"[0.18661092914317123,0.038383411281738555]",4.0,"[-0.14029713092697832,-0.10347989045240098]",4.0,"[-0.02997421687127098,0.020345564906535694]",100.0,"[-0.1744770447339845,-0.08189788843816534]",100.0,"[-0.18452460189734748,0.0457343378424116]",100.0,"[0.047866370758948826,0.07083554297822112]",100.0,"[-0.07179998889981826,0.16574752826666986]",4.0,"[0.14013885013758803,0.12426059697929666]",100.0,"[0.15873246953151962,-0.11132078125670634]",100.0,"[0.02,0.02]",184.5188,0.0,22.0,22.0,115.0,1.0,,,,,,,
,,,,,,,659b99fcfe88c311aee00bed,6846a84de1d84b2efe80b788,2025-06-09_03h24.43.469,shape_ratio,2024.1.5,Win32,18.34862385,684250e4f00cb30b92d1fa88,,,,,,,,,,,184.5191,184.9886,,,185.2421,185.4942,left,,,,,,,,0.4,0.1951,,,,,,,184.9886,185.2421,185.4942,"[0.03600805356909898,-0.016100224067388487]",4.0,"[0.034381813439534635,0.04386324318234881]",100.0,"[-0.09264984398702258,-0.05135546686167225]",4.0,"[0.1951097511635258,-0.021021935097854712]",4.0,"[0.02179527460755589,-0.07193587618495717]",4.0,"[-0.133516473985249,-0.014461817882727932]",100.0,"[-0.11648900521557978,0.0501097745585768]",100.0,"[0.1336510095680173,-0.11663375486401703]",4.0,"[0.052871712265747765,-0.10034653321475513]",100.0,"[0.11164480230647954,-0.160673827473652]",100.0,"[-0.014075973122641028,0.07497613365355799]",4.0,"[0.11994774740097694,0.10876373112690564]",4.0,"[0.018118931245968094,0.1053612812643648]",4.0,"[-0.019150975217949208,0.14504523946766018]",100.0,"[0.13960938002643422,-0.04723797128450804]",100.0,"[0.05143554055147795,0.14027531406083305]",4.0,"[0.1589893813212757,0.03455749930390768]",100.0,"[-0.0031937332676324867,0.02613189554396222]",100.0,"[0.08575742922965278,-0.023594269499926327]",100.0,"[-0.19684313502114553,-0.008512717948659347]",4.0,"[0.1846395394682596,0.07483365249192239]",4.0,"[-0.061157943082177355,-0.16877833424178904]",4.0,"[-0.05492218712137056,-0.07786987038217814]",100.0,"[-0.18934332273040563,0.03165863572880041]",4.0,"[-0.012616815600788108,-0.16410165863829848]",4.0,"[-0.06697906784689357,0.05366239838140901]",4.0,"[-0.09244805133535175,0.14026298346831642]",4.0,"[-0.08861589695889728,-0.10154649909843917]",4.0,"[-0.06486854519694843,0.188282926800965]",100.0,"[-0.14714644302599253,-0.09813014196898404]",4.0,"[0.006471598128680941,0.18052597597694373]",100.0,"[0.05386661727227286,-0.18101732879607454]",4.0,"[0.02,0.02]",186.5545,0.0,23.0,23.0,156.0,1.0,,,,,,,
,,,,,,,659b99fcfe88c311aee00bed,6846a84de1d84b2efe80b788,2025-06-09_03h24.43.469,shape_ratio,2024.1.5,Win32,18.34862385,684250e4f00cb30b92d1fa88,,,,,,,,,,,186.5549,187.0269,,,187.2738,187.7286,left,,,,,,,,0.6,0.3982,,,,,,,187.0269,187.2737,187.7286,"[0.07127014847845196,-0.17305720112842657]",100.0,"[-0.0879744202583404,0.009837532086618028]",4.0,"[-0.030334818793450086,-0.03423649584204616]",100.0,"[0.08501584685069337,0.07961103885267462]",100.0,"[0.12261701709260876,-0.03046172426860813]",100.0,"[0.019094436173481156,0.030177200072301406]",100.0,"[0.05462612412767974,0.004223122466889877]",4.0,"[0.11903502695646517,-0.1332809334287795]",100.0,"[0.09986117411012363,-0.06762757145188965]",100.0,"[0.0733197013065673,-0.03676714812181308]",4.0,"[-0.15184631793485573,0.03566867168691539]",4.0,"[-0.1781584262068922,-0.014081744940183234]",4.0,"[-0.16746715922207125,-0.06424580544427266]",4.0,"[-0.12428445668725495,0.15376104622507916]",4.0,"[-0.046298253913250334,0.11385902724407848]",4.0,"[0.0541605461323186,-0.09981115500616017]",100.0,"[-0.006482806952598857,0.13313481094881763]",100.0,"[0.18398631928052073,-0.06708212986522664]",4.0,"[-0.05275325836115351,0.16008689016634386]",100.0,"[0.14181620659320554,0.02740724630467876]",4.0,"[0.030007750505450147,-0.046378247687761144]",100.0,"[-0.010387477894907272,-0.15922046520551772]",100.0,"[-0.034834795854568966,0.06805021552977775]",4.0,"[-0.08197859408740746,-0.1468320399037546]",100.0,"[-0.16187505061235852,0.09938865123087752]",4.0,"[-0.07932889312401137,-0.08499370177779461]",100.0,"[-0.10389989272932847,0.060437465988262815]",100.0,"[-0.13317072618168385,-0.04208089891536754]",100.0,"[0.04005338014872789,0.08892237546987393]",100.0,"[-0.030078513215294887,-0.19757197857414208]",4.0,"[-0.07356322966516629,-0.04428112693470015]",100.0,"[0.07696897298940075,-0.1332415235098178]",100.0,"[0.02,0.02]",188.793,0.0,24.0,24.0,50.0,1.0,,,,,,,
,,,,,,,659b99fcfe88c311aee00bed,6846a84de1d84b2efe80b788,2025-06-09_03h24.43.469,shape_ratio,2024.1.5,Win32,18.34862385,684250e4f00cb30b92d1fa88,,,,,,,,,,,188.7934,189.2708,,,189.5297,189.72,right,,,,,,,,0.5,0.1326,,,,,,,189.2708,189.5296,189.7201,"[0.14205275883219767,-0.08200368576121511]",100.0,"[-0.13832232045448703,-0.12244645562323343]",100.0,"[-0.10520650294564934,0.01252544645983371]",4.0,"[-0.13472483322791104,-0.044078527128737326]",4.0,"[0.1482384531087936,0.021302688215370316]",100.0,"[0.0717456198379022,-0.09306491210640482]",4.0,"[0.0723104971653941,0.1768998937618667]",100.0,"[0.07534272613095762,0.09519224655333486]",100.0,"[-0.011153244535820457,0.19201848847241204]",4.0,"[0.09723922268148279,0.13243026438922104]",4.0,"[-0.032193830275589745,-0.1714118261542188]",4.0,"[0.0013445682601388202,-0.06992230676958647]",100.0,"[-0.07277310254653488,0.08859309826865222]",4.0,"[-0.013566032685151452,0.14031458282310397]",4.0,"[-0.15739805022441014,0.09762972643051661]",4.0,"[0.04427997047878656,-0.008425508783497796]",4.0,"[-0.11054445063634945,-0.08704201746443255]",100.0,"[-0.04021666244597075,-0.026029994669055426]",100.0,"[0.07002643230010809,-0.13626673427388264]",4.0,"[0.004188285734358179,0.08884394143922175]",100.0,"[-0.10384699798814574,0.16655865546547982]",100.0,"[0.03165138354788344,0.1679583212291735]",100.0,"[0.015063846301842949,-0.1378669421836354]",100.0,"[0.05241724034041708,0.03630495480628045]",4.0,"[-0.10500343079805592,-0.14506195763778684]",4.0,"[-0.020960247272673822,0.028356727792639345]",100.0,"[-0.06427136074461061,0.1343691525468522]",100.0,"[0.11367699061666484,-0.1116069656952805]",4.0,"[0.17338996610617494,-0.010175867473015512]",4.0,"[-0.18835010850568354,-0.005349326762818765]",100.0,"[0.10289969001988879,-0.014084699493194743]",4.0,"[-0.1225105875315752,0.11935218206776543]",100.0,"[0.02,0.02]",190.7974,0.0,25.0,25.0,98.0,1.0,,,,,,,
,,,,,,,659b99fcfe88c311aee00bed,6846a84de1d84b2efe80b788,2025-06-09_03h24.43.469,shape_ratio,2024.1.5,Win32,18.34862385,684250e4f00cb30b92d1fa88,,,,,,,,,,,190.7977,191.2741,,,191.5269,191.9768,left,,,,,,,,0.5,0.3933,,,,,,,191.2741,191.5269,191.9768,"[0.1774946269169462,-0.08823718073240915]",100.0,"[-0.13496527768743688,0.08772570284329112]",4.0,"[-0.1391482709016165,-0.09359364986708889]",100.0,"[-0.055630985083240846,-0.09200958719246774]",100.0,"[-0.137213807097474,0.045690000383403796]",4.0,"[0.00456862072641021,-0.1243279192837585]",100.0,"[0.044255340730954974,0.07121187017515374]",100.0,"[-0.04803572344808632,-0.18881120194196913]",4.0,"[0.17736156685370377,0.07719747910340215]",100.0,"[0.11636033531000255,0.032675383824163226]",100.0,"[0.08849772175500989,-0.16387206246788383]",100.0,"[0.08987948631806326,-0.03769449101508374]",4.0,"[0.06544007081800697,0.14938529437241108]",4.0,"[0.12356552343057484,-0.09697480620734247]",100.0,"[-0.1088386270785187,-0.12354528257305099]",100.0,"[0.07523777194001016,-0.07705198317198247]",4.0,"[0.007195352439595888,0.00032374437403145077]",4.0,"[-0.08812421307715415,0.08618854113931924]",4.0,"[-0.0411799852747555,-0.0141840222514114]",100.0,"[-0.10648864952602055,-0.06327347882902584]",4.0,"[0.003960644275042266,-0.07073478549697507]",4.0,"[-0.037984219735311485,0.19595100492912498]",4.0,"[0.12667429739154684,0.1253336488332197]",100.0,"[0.14074261226619095,-0.02527945931030915]",100.0,"[-0.13494541887876088,0.1429904579760443]",4.0,"[0.03219881724205493,0.11431159199935569]",100.0,"[-0.09467495928207299,0.015600202895955703]",4.0,"[-0.09269608324113614,0.17569508942429937]",4.0,"[-0.049792309820302874,0.07474285725970342]",4.0,"[0.010230013248725932,0.1480601362108715]",4.0,"[0.05313890267551359,0.02447456507366322]",100.0,"[-0.1728505716991034,-0.018307497536314575]",100.0,"[0.02,0.02]",193.0647,0.0,26.0,26.0,117.0,1.0,,,,,,,
,,,,,,,659b99fcfe88c311aee00bed,6846a84de1d84b2efe80b788,2025-06-09_03h24.43.469,shape_ratio,2024.1.5,Win32,18.34862385,684250e4f00cb30b92d1fa88,,,,,,,,,,,193.065,193.5375,,,193.789,194.1775,left,,,,,,,,0.6,0.328,,,,,,,193.5376,193.789,194.1776,"[0.1570577947680038,-0.08663919785479916]",4.0,"[0.12223277268934729,-0.14516047668432336]",4.0,"[-0.17585563318720396,-0.06892475410261407]",100.0,"[0.17965531501483972,0.08213088091543091]",100.0,"[-0.005072728853881133,0.10190113019711206]",4.0,"[-0.11381038582439293,0.01553662549281127]",4.0,"[-0.0598003100958868,0.10244880075818213]",100.0,"[0.060164599434858655,-0.014700981235770042]",4.0,"[-0.06998104589330724,-0.10438175212632964]",4.0,"[0.08089434304133232,0.15633707023765514]",4.0,"[0.06827118917118005,-0.12381488555535891]",100.0,"[0.0008582410705557312,-0.14068228312616057]",100.0,"[0.16310684491570582,-0.043223775337065756]",4.0,"[0.09707005558210752,0.08299031856116165]",100.0,"[-0.007680684379324074,-0.007339661618941357]",100.0,"[-0.00451098336550803,0.05885876954945648]",100.0,"[0.07547329359693045,-0.08437829249438482]",100.0,"[-0.11498862528658782,-0.07914580053638556]",100.0,"[-0.04769272723259555,-0.06653607940538539]",100.0,"[-0.07620109948884737,0.06209586056186846]",100.0,"[0.1236133200148384,-0.006412657158421287]",100.0,"[0.06462675543481412,0.02604566471059232]",100.0,"[-0.14000506112745636,0.07305550950831012]",4.0,"[-0.01132120800882922,0.17739827515848947]",100.0,"[-0.15804641604352604,0.013954832064609134]",100.0,"[0.07431196093789844,-0.16737289737211614]",4.0,"[0.1525780129689576,0.11691472128039848]",4.0,"[0.1087200109839262,0.03343945157644401]",100.0,"[-0.12040563360400167,-0.027946646324591526]",100.0,"[-0.06228174487469957,-0.1667625969123203]",4.0,"[0.036349100608890884,0.06962226519492219]",100.0,"[-0.19019303942423496,-0.017026066037917405]",4.0,"[0.02,0.02]",195.246,0.0,27.0,27.0,36.0,1.0,,,,,,,
,,,,,,,659b99fcfe88c311aee00bed,6846a84de1d84b2efe80b788,2025-06-09_03h24.43.469,shape_ratio,2024.1.5,Win32,18.34862385,684250e4f00cb30b92d1fa88,,,,,,,,,,,195.2462,195.7223,,,195.9697,196.4209,right,,,,,,,,0.1,0.3966,,,,,,,195.7223,195.9697,196.4209,"[0.06236672611813063,0.08478595891931742]",4.0,"[0.14980238095870269,0.12349963003306562]",4.0,"[0.07495000828111452,0.0006901453618096921]",4.0,"[-0.12158521571065684,-0.09632991727528115]",4.0,"[-0.08366682672767584,0.04368296880772801]",4.0,"[-0.1565264427244597,-0.05692324582340667]",4.0,"[0.025581911402821497,-0.05292907333306463]",4.0,"[0.010460123690452888,0.02783280111111932]",4.0,"[0.07418511137242313,-0.13276755164384046]",4.0,"[0.04014333261212372,0.14753366834008352]",4.0,"[-0.08887507192643701,-0.02542606563018401]",4.0,"[-0.08418692763647845,-0.17285802694795135]",4.0,"[-0.07653730848915999,0.13842140961361865]",4.0,"[0.1720142997317166,-0.09399166428540934]",4.0,"[0.10206820865295037,0.07257060147178097]",4.0,"[0.11435116787635205,-0.0285586070536424]",4.0,"[-0.16738454150589013,0.010734501721335905]",4.0,"[0.16138980040206072,-0.02245746156964578]",100.0,"[-0.0052844299682689245,0.17714900633610645]",100.0,"[0.17098117234419297,0.07031270180877079]",4.0,"[-0.01731715775819059,-0.017817933349605342]",4.0,"[0.1313430410302441,-0.1313998295295553]",4.0,"[-0.12129971118955535,0.0627904479181511]",4.0,"[-0.11495536665186239,0.016112132014941213]",4.0,"[-0.025278989290227896,-0.07159360170454619]",4.0,"[-0.025060688902197963,0.05206936028540446]",4.0,"[0.06571275634699668,-0.057155111186454714]",4.0,"[0.11126643869870556,-0.08237887249421098]",4.0,"[0.01732495102356109,-0.17402606761537012]",4.0,"[0.03285693691352161,-0.1334732257357011]",4.0,"[0.12131331376378675,0.03615115951417698]",4.0,"[0.010520108040402527,-0.09355185249739945]",100.0,"[0.02,0.02]",197.5223,0.0,28.0,28.0,185.0,1.0,,,,,,,
,,,,,,,659b99fcfe88c311aee00bed,6846a84de1d84b2efe80b788,2025-06-09_03h24.43.469,shape_ratio,2024.1.5,Win32,18.34862385,684250e4f00cb30b92d1fa88,,,,,,,,,,,197.5226,198.0218,,,198.2655,198.574,right,,,,,,,,0.1,0.2512,,,,,,,198.0218,198.2655,198.574,"[0.09283869257515666,-0.16905853715914873]",4.0,"[0.022581378119242095,0.12886449249484688]",4.0,"[-0.09392744845894042,0.08125379920898211]",100.0,"[0.10594955403497588,0.16515689051175148]",4.0,"[0.10810680048240445,-0.08781222768313661]",4.0,"[-0.014850231660182046,-0.11948014518565434]",4.0,"[0.05831306053287753,0.1740694632301253]",4.0,"[-0.02448265250669154,0.13423883011699408]",4.0,"[0.05828657923203767,-0.13871950636900116]",4.0,"[0.1099997536991485,0.052432156645493284]",4.0,"[0.17475047342133088,0.064050062438327]",4.0,"[0.004598225746836825,-0.037101452734398646]",4.0,"[0.06598016147343888,0.13081254223328806]",100.0,"[0.08694960190460185,-0.02157194914408342]",4.0,"[-0.09396440564249099,-0.06726965655498561]",4.0,"[0.03259655595958754,-0.19013230857174598]",4.0,"[-0.12173268004509807,-0.1017727928612142]",4.0,"[-0.03793317794063206,-0.1922831890275649]",4.0,"[-0.03431510380763666,0.08008646105867283]",4.0,"[0.044358246717640964,0.024611713893661333]",4.0,"[-0.14580711002910063,0.037247413954149176]",4.0,"[-0.17701892088188742,-0.021519080764011135]",100.0,"[-0.0426517629382471,-0.06539211561087445]",4.0,"[-0.10884508359015725,0.02185372402134051]",4.0,"[-0.07863418655117757,-0.13804685567626435]",4.0,"[0.17728111458907037,0.009632384647799553]",4.0,"[-0.07214047446351476,0.13581202675604434]",4.0,"[0.13037436297086907,-0.02452829770378184]",4.0,"[0.14745651169762353,-0.11166272607695517]",4.0,"[-0.060006769552480105,-0.006834412592717981]",4.0,"[0.010228922260188865,0.19679903051726322]",4.0,"[0.10009621031550495,0.09829128713683248]",4.0,"[0.02,0.02]",199.6337,0.0,29.0,29.0,203.0,1.0,,,,,,,
,,,,,,,659b99fcfe88c311aee00bed,6846a84de1d84b2efe80b788,2025-06-09_03h24.43.469,shape_ratio,2024.1.5,Win32,18.34862385,684250e4f00cb30b92d1fa88,,,,,,,,,,,199.634,200.1083,,,200.3544,200.6762,right,,,,,,,,0.1,0.2636,,,,,,,200.1084,200.3544,200.6763,"[-0.02200559814048394,-0.05609230541492638]",4.0,"[-0.007538605543085198,-0.17608845151435673]",4.0,"[0.049667509862414624,-0.01054838524977919]",100.0,"[0.1555540034256862,0.06306622818750829]",4.0,"[-0.10971047183031543,-0.061327592725704774]",4.0,"[-0.0598692396604909,0.18200076251002748]",4.0,"[0.06598704754513667,0.0689422596164686]",4.0,"[-0.17014208274000797,0.05357748662070971]",4.0,"[-0.036645151096866835,0.10321250011533743]",4.0,"[-0.09027397410016275,-0.021344110456694185]",4.0,"[0.015176747551423063,0.08290532803730066]",4.0,"[-0.15043933027987602,-0.09111202689069162]",4.0,"[-0.0040675059120712205,0.16206857763195642]",4.0,"[-0.07278617865605556,0.05868364087850713]",4.0,"[0.03883587344435504,-0.10238426280279675]",4.0,"[-0.15153600947224974,-0.004802524238114316]",4.0,"[0.11651368651635338,-0.027710282146758188]",4.0,"[-0.013690647412937755,-0.0046784697478563135]",4.0,"[-0.08499891801806957,-0.09870470445984951]",4.0,"[-0.10358756226753091,0.15643851177614782]",4.0,"[-0.0969607412321728,0.0930680294678545]",4.0,"[0.14541886145590194,-0.07236566450775923]",4.0,"[0.10865769294899674,0.10685301822913623]",4.0,"[0.10460654212830336,-0.13198861465601594]",4.0,"[0.04683096348671763,0.1518754884760299]",4.0,"[0.17915284907554715,-0.010243884357146444]",4.0,"[0.13487951254876349,0.14694970694039275]",4.0,"[-0.009504640198134367,-0.11872471822148839]",4.0,"[0.09684546941929112,-0.0903130073997994]",100.0,"[-0.07325214803971362,-0.1528652530553529]",4.0,"[-0.19215267833423846,-0.05093825292086894]",4.0,"[-0.13126635154104524,0.06640061671661164]",100.0,"[0.02,0.02]",201.7925,0.0,30.0,30.0,186.0,1.0,,,,,,,
,,,,,,,659b99fcfe88c311aee00bed,6846a84de1d84b2efe80b788,2025-06-09_03h24.43.469,shape_ratio,2024.1.5,Win32,18.34862385,684250e4f00cb30b92d1fa88,,,,,,,,,,,201.7928,202.2663,,,202.5077,202.6999,left,,,,,,,,0.45,0.1322,,,,,,,202.2663,202.5076,202.6999,"[0.08196533212738243,-0.09708449501233504]",100.0,"[0.11238315036923423,-0.02026535445998196]",100.0,"[0.18304993167532085,-0.02070969384087753]",100.0,"[-0.07148695067756067,-0.18239585956484813]",100.0,"[-0.06135011268619453,-0.10761037407660662]",100.0,"[-0.022593475337739737,0.07897992896063072]",100.0,"[0.1330435933373292,0.1278265353135287]",100.0,"[-0.11824865057876079,0.14204453142990348]",100.0,"[0.06652331276169458,0.16996624847320332]",4.0,"[-0.14050145001798414,-0.03159081223586821]",4.0,"[0.0008790799220226927,-0.1016148089742233]",4.0,"[-0.14482302599126448,0.04328004010625072]",4.0,"[0.12916422396755114,-0.1442322007841689]",4.0,"[-0.16387467146991858,0.10264128994403157]",4.0,"[0.09223473010536731,0.13693430409322108]",4.0,"[-0.09477891618683625,-0.039296108016448374]",100.0,"[-0.07882330821968812,0.0025712793029005108]",4.0,"[-0.07562589724744885,0.07796773957555476]",4.0,"[0.0026495701314212046,0.029811740701980036]",4.0,"[0.16174467982008553,0.045377364116110666]",4.0,"[-0.06151511203647766,0.1424215723344102]",4.0,"[-0.005188869244637152,0.19011492078267753]",100.0,"[0.045126716654330205,0.08111450876833937]",4.0,"[-0.12112028665749754,0.008372623663074006]",100.0,"[0.06357513089991251,0.01856204407767949]",100.0,"[0.02893492325101968,-0.13483198695222526]",100.0,"[0.008539720747146323,-0.03270957663059969]",4.0,"[0.06157617721739749,-0.024521578804499282]",4.0,"[0.04528023733148787,-0.17404356748974947]",4.0,"[0.11202780819153316,0.054001764513854376]",4.0,"[0.16453668872678417,-0.10701601496159555]",4.0,"[-0.13990732507703948,-0.09171191860276488]",100.0,"[0.02,0.02]",203.7547,0.0,31.0,31.0,129.0,1.0,,,,,,,
,,,,,,,659b99fcfe88c311aee00bed,6846a84de1d84b2efe80b788,2025-06-09_03h24.43.469,shape_ratio,2024.1.5,Win32,18.34862385,684250e4f00cb30b92d1fa88,,,,,,,,,,,203.7549,204.2305,,,204.4789,204.8565,left,,,,,,,,0.9,0.3223,,,,,,,204.2305,204.4789,204.8566,"[0.10901036648529075,0.07108195462946496]",100.0,"[0.1905362270307282,0.047080474463581615]",100.0,"[0.0384609614016534,0.058735164700969886]",100.0,"[-0.08211742163635491,-0.099346024063304]",4.0,"[0.027047099459107517,-0.17827774820771983]",100.0,"[0.05769755090264691,0.022828347789514567]",100.0,"[-0.10499729528585608,0.0952313593943579]",100.0,"[-0.015114412726369878,-0.02281579078292533]",100.0,"[-0.17261422724376727,0.05921837628552105]",100.0,"[0.037192223730451335,0.19132386429881598]",100.0,"[-0.10133160610261775,-0.006840493102124001]",100.0,"[0.10385687208983126,-0.06604007336978986]",100.0,"[-0.12845428549995824,-0.1528600008382046]",100.0,"[-0.122520988266705,-0.077073881723924]",100.0,"[-0.12062070842383685,0.15218607131634693]",100.0,"[0.04475911784318855,-0.038137534232367175]",100.0,"[0.05613084190211084,0.09932594171861944]",100.0,"[-0.11920739231950797,0.04274191852012574]",4.0,"[-0.013999723119308818,0.037569018124997515]",4.0,"[0.027837963872360105,-0.11973914483930874]",100.0,"[0.13144847737585183,-0.03049537291301399]",100.0,"[-0.028640130051866164,0.16540130715322057]",100.0,"[0.10087371935316114,-0.11623310052027055]",100.0,"[0.14805452696153334,0.02256338392045307]",100.0,"[-0.03498942911923703,0.07359811547373096]",100.0,"[-0.04998380797122205,0.0033159474768932745]",100.0,"[0.11394119197168268,0.11569978372441349]",100.0,"[0.1914856691529151,-0.011732751313610092]",100.0,"[-0.011184756354027955,-0.08112355071183533]",100.0,"[-0.0679668272376576,0.15563400895642418]",100.0,"[-0.026317069812293495,-0.1330351487654621]",100.0,"[0.07892130149839979,0.15506485446125373]",100.0,"[0.02,0.02]",205.9301,0.0,32.0,32.0,11.0,1.0,,,,,,,
,,,,,,,659b99fcfe88c311aee00bed,6846a84de1d84b2efe80b788,2025-06-09_03h24.43.469,shape_ratio,2024.1.5,Win32,18.34862385,684250e4f00cb30b92d1fa88,,,,,,,,,,,205.9303,206.4065,,,206.6528,206.9709,right,,,,,,,,0.5,0.2556,,,,,,,206.4065,206.6528,206.971,"[0.034227577254965516,0.10741985266467005]",100.0,"[0.035907668417807424,-0.15693311145477504]",4.0,"[0.13266595390443603,0.08117061246752204]",100.0,"[-0.02644705030124371,0.03393824968112771]",4.0,"[-0.05210198132039593,-0.028817104006458413]",4.0,"[-0.16273553784469028,-0.09885446849979987]",4.0,"[0.19501259580878602,-0.001062707069917695]",100.0,"[0.08655364434579851,-0.11722356885685364]",4.0,"[-0.058626389228974105,0.13425542567479812]",4.0,"[-0.13440378327296715,0.08894252306900724]",4.0,"[-0.19596050640240048,-0.031356130537180976]",4.0,"[-0.029342598000326223,0.19563432004049056]",4.0,"[0.11452643057893765,0.15113421118386228]",4.0,"[-0.14658320480279466,-0.0285962166258672]",100.0,"[-0.13075800738625232,0.02912179389269738]",4.0,"[-0.0874969633282214,0.03367121040670295]",100.0,"[0.04696307157971126,-0.03628223473157755]",4.0,"[-0.09229438117326218,-0.07758300746292857]",100.0,"[-0.11594631388182448,0.12949031112382361]",100.0,"[0.11277354119939768,0.043076190854936254]",100.0,"[-0.007427588242340171,-0.18566538881038655]",100.0,"[0.018858242776107034,0.18220645039150146]",100.0,"[0.04560319603114732,0.14722237482637696]",100.0,"[0.0331045919012477,-0.1129449373284556]",4.0,"[-0.13016885506962736,-0.1380206787450949]",4.0,"[0.1577982341495896,-0.05718674865156545]",100.0,"[-0.009451196648805628,-0.0835633448023351]",100.0,"[-0.08911005988687046,-0.17898348693239713]",100.0,"[0.07741460825657753,-0.0010338675004606024]",100.0,"[0.09067839149203982,-0.0699779600813197]",100.0,"[0.13738078619153082,-0.001942662936897028]",4.0,"[-0.03482012397825628,-0.13180975992834196]",4.0,"[0.02,0.02]",208.0492,0.0,33.0,33.0,104.0,1.0,,,,,,,
,,,,,,,659b99fcfe88c311aee00bed,6846a84de1d84b2efe80b788,2025-06-09_03h24.43.469,shape_ratio,2024.1.5,Win32,18.34862385,684250e4f00cb30b92d1fa88,,,,,,,,,,,208.0495,208.5327,,,208.7791,209.0953,left,,,,,,,,0.9,0.2587,,,,,,,208.5327,208.7791,209.0953,"[0.03237810650003798,-0.03445562137006953]",100.0,"[-0.13295505659031884,0.05506080161116984]",100.0,"[0.13376875567945665,-0.060000564393486035]",100.0,"[-0.12753568174453528,-0.05260355075357297]",100.0,"[-0.10523280577682907,-0.0018366561316434822]",100.0,"[-0.02027721635106944,0.09365021369162707]",100.0,"[-0.09072901410012872,0.08812247584805215]",4.0,"[0.10313451782041397,0.13454793465819906]",100.0,"[-0.10244958573868596,-0.13790904283093885]",4.0,"[-0.065807745428172,-0.07153625448818327]",100.0,"[0.028956490996705546,0.19641015681489904]",100.0,"[0.07694642170179247,-0.017933409979563317]",100.0,"[0.1388221721618497,0.10209200919273692]",100.0,"[0.05555358548355462,0.056626956961239774]",100.0,"[-0.1987676547094461,0.02034901622456808]",100.0,"[-0.1388809927067099,0.11728454235964415]",100.0,"[-0.004104654142969682,-0.17102316302910006]",100.0,"[0.03352143279795737,-0.11392362814838751]",100.0,"[0.03471901754062769,0.1288330525215063]",100.0,"[0.18842993009250034,0.03689595102366798]",100.0,"[-0.011220199275435333,-0.10615957775534988]",100.0,"[0.031034870465022905,0.023575543596182136]",100.0,"[-0.05207895395271258,0.06614573815080965]",100.0,"[0.14793273969501075,0.01977168693375501]",100.0,"[0.14306852007424367,-0.11198487043793974]",4.0,"[0.07794715324590515,-0.11528650811199555]",100.0,"[0.1096504270221219,-0.16414705527066495]",100.0,"[-0.05644549737702578,-0.1906932726264939]",100.0,"[0.0695915152609214,0.16541485824254362]",100.0,"[0.09598561194101499,0.049323679771076226]",100.0,"[-0.18487988953947893,-0.06231255609926061]",100.0,"[-0.151447288181087,-0.09495948642819961]",100.0,"[0.02,0.02]",210.1729,0.0,34.0,34.0,25.0,1.0,,,,,,,
,,,,,,,659b99fcfe88c311aee00bed,6846a84de1d84b2efe80b788,2025-06-09_03h24.43.469,shape_ratio,2024.1.5,Win32,18.34862385,684250e4f00cb30b92d1fa88,,,,,,,,,,,210.1732,210.6739,,,210.927,211.1805,left,,,,,,,,0.4,0.1952,,,,,,,210.6739,210.927,211.1805,"[0.13985418029472266,-0.05756089397004312]",100.0,"[-0.11067825490996917,0.041827151091564166]",4.0,"[-0.01591207148352182,-0.15752593204894635]",4.0,"[0.07571113321515596,0.14116634654864482]",4.0,"[0.16716895126166356,0.06748541079181619]",100.0,"[0.01872262976522473,0.17118032808819578]",100.0,"[-0.14229624200556235,0.07440254433575323]",4.0,"[-0.12935550118464567,-0.048391978897953665]",100.0,"[0.11137591463334813,-0.027754796298895552]",4.0,"[-0.052339594178995384,-0.08665036010486182]",4.0,"[-0.1503188777398165,0.02809422098095951]",100.0,"[0.022739849060900288,0.12328833057242783]",4.0,"[0.13428432028793294,-0.1442463426915553]",100.0,"[-0.07317607048470151,-0.032596640709918065]",100.0,"[0.08167616059773866,-0.11899633746671455]",4.0,"[0.15697844020386587,0.009823990186629345]",4.0,"[-0.07992933631377672,-0.12285370457876045]",4.0,"[-0.18029040517311143,-0.061152975738610275]",4.0,"[0.1723016617114949,-0.09880347278836298]",4.0,"[0.019306768743704093,-0.12891582771125978]",4.0,"[-0.0318121222009204,0.11608532895582264]",100.0,"[0.061343612759511376,-0.1605925369085839]",4.0,"[0.1943999547540386,-0.012992279343659182]",4.0,"[0.09252785985070326,0.09965220400403746]",100.0,"[0.15384272887876688,0.11778067656578901]",4.0,"[-0.05795014576904605,0.04227376356519965]",100.0,"[0.07736519336007447,0.036593842309651056]",4.0,"[-0.10769070574594973,-0.16175457407796914]",4.0,"[-0.18735748018779835,-0.019165357391012567]",100.0,"[-0.0805317466246464,0.13828017999562162]",4.0,"[-0.1556272622766016,-0.10189744966254123]",100.0,"[0.0050710334530767055,0.08011602812365827]",100.0,"[0.02,0.02]",212.265,0.0,35.0,35.0,161.0,1.0,,,,,,,
,,,,,,,659b99fcfe88c311aee00bed,6846a84de1d84b2efe80b788,2025-06-09_03h24.43.469,shape_ratio,2024.1.5,Win32,18.34862385,684250e4f00cb30b92d1fa88,,,,,,,,,,,212.2653,212.7434,,,212.9929,213.311,left,,,,,,,,0.6,0.2625,,,,,,,212.7435,212.9929,213.311,"[0.11158551223359041,0.08176271902212583]",100.0,"[0.022578567075159848,-0.004669823384899774]",4.0,"[0.03269441839009154,0.1493444033306413]",4.0,"[0.06397852562376134,-0.09823151409115773]",100.0,"[-0.0669162341884654,-0.02236355764472874]",100.0,"[0.04444953755911996,-0.18743005469312643]",4.0,"[0.10008196285552788,0.13506296507070545]",4.0,"[-0.012781277200018433,-0.025123415382729886]",100.0,"[0.1077529992458721,-0.13715395455807405]",100.0,"[-0.03324109235181582,0.037043124417588065]",100.0,"[0.12595529578681755,-0.0020494106188639147]",4.0,"[-0.175487011809619,-0.01254812499527114]",100.0,"[-0.159931426453587,0.08796610402955617]",100.0,"[-0.03177759237706922,-0.10149670933177973]",4.0,"[0.05915907106993599,0.06367795734310133]",4.0,"[-0.1785115174982063,-0.052733131125962035]",4.0,"[-0.1276248475911312,0.0595280591579722]",100.0,"[-0.06681607137948757,-0.07562567352108758]",4.0,"[0.08323893659564531,0.027199043549519564]",100.0,"[-0.07012101996780991,-0.14976985856143551]",4.0,"[-0.10000304856220137,0.15612131223955386]",100.0,"[-0.059922252599686615,0.08648519263172977]",4.0,"[-0.16758670640500253,0.03714851044502461]",4.0,"[0.12985579820457568,-0.051425238097992404]",100.0,"[0.17809768705917026,0.035376587837831035]",100.0,"[-0.08793905416937872,-0.11044020448848964]",100.0,"[0.02612510616190829,-0.08429396801391889]",100.0,"[-0.10884673057021242,-0.05681959855230055]",100.0,"[0.0695385839593326,-0.03969482398674327]",100.0,"[-0.036690283259531185,-0.18666398669644882]",100.0,"[0.16623327228843215,-0.0942349687407695]",100.0,"[-0.0027168980238653113,0.19529343956658918]",4.0,"[0.02,0.02]",214.3923,0.0,36.0,36.0,53.0,1.0,,,,,,,
,,,,,,,659b99fcfe88c311aee00bed,6846a84de1d84b2efe80b788,2025-06-09_03h24.43.469,shape_ratio,2024.1.5,Win32,18.34862385,684250e4f00cb30b92d1fa88,,,,,,,,,,,214.3926,214.8633,,,215.1043,215.2985,right,,,,,,,,0.1,0.1351,,,,,,,214.8633,215.1043,215.2985,"[0.10555924989481971,-0.08625806544532072]",100.0,"[-0.049412672535269736,-0.06987499323873285]",4.0,"[0.025478232172562596,0.12775711281443433]",4.0,"[-0.033421923592417205,-0.14115915786899216]",4.0,"[-0.12221078942181446,-0.1436419127454451]",4.0,"[-0.035280137507898414,0.1358583984281738]",4.0,"[0.07223676699603229,0.13075220533814375]",4.0,"[0.0058750979145036734,0.004429034271558836]",4.0,"[-0.13090759105320426,0.07843383877478714]",4.0,"[-0.14217158001498728,0.001818967906331757]",4.0,"[-0.10835166955392958,0.16458201523146107]",4.0,"[0.03902635157135783,0.06915036620067377]",4.0,"[-0.18050620702089992,-0.012620271214794804]",100.0,"[0.1408061450583144,0.12606819482318443]",4.0,"[-0.04109829934760745,0.007945717897075743]",4.0,"[0.10217147845680247,-0.171461020115006]",4.0,"[0.05211746927618508,-0.013154431930102531]",4.0,"[-0.1224489697775472,-0.1024443164758825]",4.0,"[0.04100618634070116,0.18417971621518914]",100.0,"[-0.013728937334816723,-0.19002731093072814]",4.0,"[-0.18092391594264082,0.06558802018090977]",4.0,"[0.1908603841911756,-0.04355289174709562]",4.0,"[0.13264360878546128,0.0672522214300217]",4.0,"[-0.0825771518545562,0.03214082615531631]",4.0,"[-0.02756108151688998,0.07625604163449258]",4.0,"[0.18340520209773076,0.012117937318993964]",4.0,"[-0.09234919158298943,-0.07247537871523674]",4.0,"[-0.1407064627580144,-0.05293647767936057]",4.0,"[-0.08992905664370682,0.08628817920525188]",4.0,"[0.12966464186171084,0.004798320379487241]",4.0,"[-0.0548960809616438,-0.1805579454165283]",4.0,"[-0.03682823545254765,0.18614094630178324]",4.0,"[0.02,0.02]",216.3793,0.0,37.0,37.0,180.0,1.0,,,,,,,
,,,,,,,659b99fcfe88c311aee00bed,6846a84de1d84b2efe80b788,2025-06-09_03h24.43.469,shape_ratio,2024.1.5,Win32,18.34862385,684250e4f00cb30b92d1fa88,,,,,,,,,,,216.3796,216.8483,,,217.1047,217.304,left,,,,,,,,0.45,0.1347,,,,,,,216.8483,217.1047,217.304,"[0.18024706650821004,0.008519431995033029]",4.0,"[-0.16522854541282217,0.10734214842602977]",100.0,"[-0.006394475488455769,-0.15165889706613409]",4.0,"[0.06951437048455925,0.1575994246214356]",100.0,"[0.011850725777720577,-0.09630231704453195]",100.0,"[-0.10620458413728251,0.009647076783505027]",4.0,"[0.04981373941259475,-0.01929459202969957]",4.0,"[-0.11519885491487934,0.13453780720632744]",4.0,"[0.14176771926905193,-0.00437334908024446]",4.0,"[0.09615318010944572,0.047689706194148716]",100.0,"[-0.09757562930514219,0.0764291789678058]",100.0,"[-0.05912572160714637,-0.14796956335790515]",4.0,"[-0.13407009221127422,-0.09393008733173366]",4.0,"[-0.12931536164187338,0.04440031261567965]",4.0,"[-0.1896197003584669,-0.05632020685888043]",100.0,"[-0.03654422864294951,-0.0025721021672962616]",100.0,"[-0.0547072353857112,0.0891747562652265]",4.0,"[-0.017489124058916193,-0.06384229036338518]",100.0,"[-0.10723492036079527,-0.1413263703521021]",100.0,"[0.17058569922520792,-0.05102850790608835]",4.0,"[0.08388743112023535,-0.059146458374463765]",4.0,"[0.08794964497704894,0.10592949341666076]",4.0,"[-0.034108406222832816,0.14763378163086696]",100.0,"[0.04184758863636573,-0.19310255519482664]",100.0,"[0.015485075671032411,0.18053325907662035]",100.0,"[0.15171025748351466,-0.12857658214338707]",4.0,"[0.08402111732962696,-0.15155930397061268]",4.0,"[-0.18722628876303513,0.006887962541226847]",100.0,"[0.13653293282979656,0.1405865684379853]",100.0,"[0.033755701101823916,0.041420871702134245]",4.0,"[-0.14612385109837417,-0.001033671020805582]",4.0,"[-0.011101545720001832,0.11340765174394547]",4.0,"[0.02,0.02]",218.3795,0.0,38.0,38.0,138.0,1.0,,,,,,,
,,,,,,,659b99fcfe88c311aee00bed,6846a84de1d84b2efe80b788,2025-06-09_03h24.43.469,shape_ratio,2024.1.5,Win32,18.34862385,684250e4f00cb30b92d1fa88,,,,,,,,,,,218.3798,218.8633,,,219.1085,219.485,left,,,,,,,,0.45,0.3225,,,,,,,218.8633,219.1085,219.485,"[-0.11631937863950848,0.05702247875694522]",100.0,"[0.09531559266139235,-0.05491589000063408]",4.0,"[-0.1196252866300996,0.09970002130848932]",100.0,"[-0.044671385036873075,-0.11520464128149505]",4.0,"[-0.06241249192893677,-0.023017568343546988]",4.0,"[0.06718071893314574,0.103417946498344]",4.0,"[-0.082608200616311,0.03280987534565733]",100.0,"[0.043643091998060504,0.18302067748477086]",100.0,"[0.1976394833273041,0.013139599746447376]",4.0,"[0.021924612430515033,0.062208601648797324]",4.0,"[0.06871368584485778,-0.08489778178236465]",4.0,"[-0.003518706170503932,-0.05643742096190867]",100.0,"[-0.05833636634863458,-0.1609442350625685]",100.0,"[-0.10679080513513978,-0.07818745802222364]",4.0,"[-0.0045761003011917725,-0.1384944327399425]",100.0,"[-0.04088060413197235,0.13465278839271075]",4.0,"[0.14748352424165057,0.10182526641527713]",100.0,"[-0.04859365501401857,-0.0736609548496579]",4.0,"[-0.09526819113268066,-0.1420029678650673]",4.0,"[0.16535608919000086,-0.05309417908787005]",4.0,"[0.023915537989309784,0.10882403999569101]",4.0,"[-0.16939981349879302,-0.017511420125717266]",100.0,"[0.13989906372830974,-0.12507361742110484]",4.0,"[0.0005764817970460016,0.0002648868070283106]",4.0,"[0.11314310556555697,0.06418372186651564]",100.0,"[-0.17445647432853936,0.06422961654547378]",100.0,"[-0.12638567371136705,0.1465660393546044]",4.0,"[0.0015860604838595803,0.175751673707445]",100.0,"[-0.043936933192600884,0.014870773724236978]",100.0,"[0.13917502915886007,0.14226332243673415]",4.0,"[0.015045665227022303,-0.09685894165362063]",4.0,"[0.07839954964042962,-0.15503755934059285]",100.0,"[0.02,0.02]",220.5667,0.0,39.0,39.0,128.0,1.0,,,,,,,
,,,,,,,659b99fcfe88c311aee00bed,6846a84de1d84b2efe80b788,2025-06-09_03h24.43.469,shape_ratio,2024.1.5,Win32,18.34862385,684250e4f00cb30b92d1fa88,,,,,,,,,,,220.5669,221.0494,,,221.3009,221.5582,left,,,,,,,,0.45,0.196,,,,,,,221.0494,221.3008,221.5582,"[0.07571669556755176,-0.05785715731450695]",100.0,"[-0.09734797011561591,-0.14220261703354017]",4.0,"[-0.09420915857118758,-0.09118054913430353]",100.0,"[0.10634212255606504,-0.021202603760814065]",4.0,"[0.08467596306858767,0.10273165724791233]",4.0,"[0.106919796316351,0.029135370380697505]",100.0,"[0.020272840328004756,0.1081228680108563]",100.0,"[-0.0624285051509168,0.08533780332288571]",4.0,"[-0.1453593439927763,0.11528522926804875]",4.0,"[-0.025527239554851092,-0.1562040840143016]",100.0,"[0.1645443622005833,-0.10079359787453278]",4.0,"[-0.11838527763967853,-0.010907885507494927]",100.0,"[0.03424557955697282,0.1691506872492827]",4.0,"[-0.02737246045690702,0.1686718477808864]",4.0,"[0.08853034900261586,-0.1786496036127558]",4.0,"[-0.05426549843985382,-0.10500067519263424]",4.0,"[-0.046340082344848016,0.015277333470870883]",100.0,"[0.009694778886387971,-0.030315511545666425]",100.0,"[-0.12926034289258273,0.07833724289877712]",4.0,"[0.12795034357786592,-0.11962881252391454]",100.0,"[-0.14184020593990726,-0.07897149689712314]",100.0,"[-0.09339581958720722,0.15741731650350577]",4.0,"[0.13400878696839336,0.06418731629850243]",4.0,"[0.16976966245159492,-0.02543527658185264]",100.0,"[0.1430147823840106,0.12636216642884512]",100.0,"[-0.1762168059892846,0.06330845583576226]",4.0,"[0.07770937854831578,0.05752364609977776]",100.0,"[-0.011723840088601353,0.08247710348010502]",100.0,"[0.019261006047726303,0.04970173877342241]",4.0,"[0.03125843710483068,0.0077976972838793]",4.0,"[-0.13520950900120704,-0.12551311203146642]",4.0,"[-0.02610607643933064,-0.061465494716628495]",4.0,"[0.02,0.02]",222.613,0.0,40.0,40.0,124.0,1.0,,,,,,,
,,,,,,,659b99fcfe88c311aee00bed,6846a84de1d84b2efe80b788,2025-06-09_03h24.43.469,shape_ratio,2024.1.5,Win32,18.34862385,684250e4f00cb30b92d1fa88,,,,,,,,,,,222.6133,223.1,,,223.354,223.7348,right,,,,,,,,0.4,0.3159,,,,,,,223.1,223.354,223.7348,"[-0.08889709406309801,0.1467839030273768]",100.0,"[-0.10835666421622528,0.009161622569867295]",4.0,"[-0.055796957002620856,0.03104293115924835]",100.0,"[-0.014645319844033177,-0.04727150865594345]",100.0,"[-0.1099715165655859,-0.060108310659763645]",4.0,"[-0.09544195503070281,-0.10008257336703802]",4.0,"[0.15782481559545652,0.040316908981385124]",4.0,"[-0.09997286964161702,0.10486251343530245]",4.0,"[-0.07446370984707214,-0.13475243053600847]",4.0,"[0.13752126414603347,-0.11926166535343985]",100.0,"[0.19022616295970332,0.016793765965272194]",100.0,"[0.0849580911260487,-0.028424032163769406]",4.0,"[0.018485716962127436,-0.10419840149981617]",4.0,"[-0.02156057859984179,0.13281557051456272]",100.0,"[0.07276422751334505,-0.11307019374382828]",100.0,"[-0.11650449144189662,-0.1599223558463953]",4.0,"[-0.08245338415395588,0.06877390246325409]",4.0,"[0.06518300306268676,0.06454472999095538]",4.0,"[-0.008335107364033895,-0.15214629048042372]",100.0,"[0.05936307691046227,0.1719890011891671]",4.0,"[0.18276879895799858,-0.03716545113321223]",4.0,"[0.12359337913259869,-0.15684128515842868]",4.0,"[-0.1454102775199487,-0.1138720203258164]",4.0,"[-0.15468718085885866,0.08672540966093908]",100.0,"[0.09847669782096691,0.15050652681146143]",100.0,"[-0.06292376268276723,-0.18196074005326554]",4.0,"[0.1422568734752723,0.08313976408621646]",4.0,"[-0.1860929184609489,0.004310492539200041]",4.0,"[0.1345952250531161,-0.05439114580850913]",100.0,"[-0.06027056258846304,-0.07997899364897801]",100.0,"[0.006699422882821464,0.07035341726019648]",100.0,"[0.12024323706531655,0.002014179035622509]",4.0,"[0.02,0.02]",224.7996,0.0,41.0,41.0,166.0,1.0,,,,,,,
,,,,,,,659b99fcfe88c311aee00bed,6846a84de1d84b2efe80b788,2025-06-09_03h24.43.469,shape_ratio,2024.1.5,Win32,18.34862385,684250e4f00cb30b92d1fa88,,,,,,,,,,,224.7999,225.2752,,,225.5306,225.7218,left,,,,,,,,0.9,0.1344,,,,,,,225.2753,225.5305,225.7218,"[-0.14814718109048539,-0.019279679483434717]",100.0,"[0.17824668230066723,0.08859876765189353]",100.0,"[0.004484656510841882,0.18706383184616]",100.0,"[0.1294101286977303,-0.09526373249441814]",100.0,"[-0.10641297338779922,-0.06809549904247882]",4.0,"[-0.11352236294239518,-0.13556936796720073]",100.0,"[0.1922387665036688,-0.04173834507560749]",100.0,"[0.06752564966208856,0.1148475956395597]",100.0,"[-0.06189500617855194,-0.06731099055669201]",100.0,"[0.1037901456997,0.08163300236511194]",100.0,"[0.09417149217266936,-0.07110428531989871]",100.0,"[0.05154964718245672,-0.1168369957233719]",100.0,"[-0.14430753807655086,0.13200541457427897]",100.0,"[0.08935122857512304,-0.010168023124444606]",100.0,"[0.02695133545566006,0.10571334727989065]",100.0,"[0.16111098553782244,0.028048846850556492]",100.0,"[0.06782628539009332,0.18251126916664884]",100.0,"[-0.08084815259002621,0.002351355046661532]",100.0,"[-0.10377247975868174,0.16403544846880694]",100.0,"[0.04895471271563657,0.030765985628878]",100.0,"[0.1297128937865255,0.11783125451473263]",100.0,"[0.041428585178986246,-0.16675479402206178]",100.0,"[0.04120590822470946,0.15147102718495772]",100.0,"[-0.10468787885864106,0.04702928467790703]",100.0,"[-0.057384353323218076,0.1618561375826998]",4.0,"[-0.0051473543281282,-0.011977327225053843]",4.0,"[-0.04049101281646071,0.007352413509370837]",100.0,"[-0.0551930004090365,-0.16136620803623014]",100.0,"[0.08975127435692397,-0.15496501155967118]",100.0,"[-0.017300783601947648,-0.05330317270098711]",100.0,"[-0.025371885965109687,-0.10938863628438214]",100.0,"[-0.14823574292760244,0.08297553681894683]",100.0,"[0.02,0.02]",226.8363,0.0,42.0,42.0,19.0,1.0,,,,,,,
,,,,,,,659b99fcfe88c311aee00bed,6846a84de1d84b2efe80b788,2025-06-09_03h24.43.469,shape_ratio,2024.1.5,Win32,18.34862385,684250e4f00cb30b92d1fa88,,,,,,,,,,,226.8366,227.315,,,227.5691,228.006,right,,,,,,,,0.4,0.3787,,,,,,,227.315,227.5691,228.0061,"[-0.0394916219467121,-0.018709206613042102]",4.0,"[0.09296009513578937,-0.024022555694815456]",4.0,"[0.011913601288812602,-0.03620604123875618]",4.0,"[-0.046027851578220924,-0.06462877938084027]",100.0,"[0.19648789361563915,-0.024262761387167348]",4.0,"[0.03831792215713093,0.19596372415939642]",4.0,"[-0.17273682518621641,0.04477065944834124]",4.0,"[-0.13966510759265544,-0.09993218208377153]",4.0,"[-0.11496969904807491,0.12721949292022958]",4.0,"[-0.06662535755077892,-0.1373640017296293]",100.0,"[-0.05943255507345513,0.024006670182352127]",4.0,"[-0.11171981900249588,0.03394317920235249]",4.0,"[0.0075474961295177515,0.016071321485027632]",100.0,"[-0.030126738620386367,0.1734490622791107]",4.0,"[-0.025609169124728673,-0.14995018861880477]",100.0,"[-0.015565961341357617,0.11935161933788364]",4.0,"[0.022292170372350144,-0.15886600502558587]",100.0,"[0.1616374899791836,-0.11614478935419137]",100.0,"[0.15644115693042293,0.023794923560377688]",100.0,"[0.18043027311072177,0.06440107469784896]",4.0,"[0.04394225513901544,0.088102776704999]",4.0,"[-0.09172030640041089,-0.023149420517686474]",4.0,"[0.11848395722871898,-0.13937022517747621]",100.0,"[0.11277218588060145,0.09735222996502235]",4.0,"[0.13149976680246264,-0.04650771280961098]",100.0,"[0.04812645843146271,-0.002199521669234051]",100.0,"[0.014321540269492934,0.0561076235214274]",100.0,"[-0.013061758778792459,-0.11162262472420377]",4.0,"[-0.18146773876315192,-0.0746045401246227]",100.0,"[0.059579448682734897,0.1594318157630578]",4.0,"[0.09878485047534756,-0.07326369591829374]",4.0,"[-0.04764001193786464,0.08310962085218715]",100.0,"[0.02,0.02]",229.0822,0.0,43.0,43.0,153.0,1.0,,,,,,,
,,,,,,,659b99fcfe88c311aee00bed,6846a84de1d84b2efe80b788,2025-06-09_03h24.43.469,shape_ratio,2024.1.5,Win32,18.34862385,684250e4f00cb30b92d1fa88,,,,,,,,,,,229.0825,229.5461,,,229.7898,230.182,right,,,,,,,,0.6,0.3286,,,,,,,229.5461,229.7898,230.182,"[0.08860842666282476,0.10756965936983265]",4.0,"[-0.04345549364018712,0.05997193129099103]",100.0,"[0.08297953094359799,-0.10900951886435144]",4.0,"[0.077075629655063,-0.06672150971596573]",100.0,"[0.004536598942675804,-0.10425969421337267]",4.0,"[0.06305133024276677,0.17903918327659454]",4.0,"[0.017504439137899473,-0.023267608518205293]",100.0,"[-0.16302117020288118,0.05486112206372349]",100.0,"[0.017712510463609568,-0.06445028550299171]",100.0,"[0.06893513141536774,-0.17174059303899322]",4.0,"[-0.11780379676386114,0.10733014635237283]",100.0,"[-0.1596709474694947,-0.07926889449301412]",4.0,"[0.12938278021572563,-0.14214122033275664]",100.0,"[-0.015231078586236187,0.12298443805930569]",100.0,"[-0.0481485819554744,-0.19382496236302504]",100.0,"[0.11171629058523663,0.06084186194082312]",4.0,"[0.15177708788989488,-0.09966179638132608]",100.0,"[0.15989840004491282,0.05514844458976663]",4.0,"[0.1403623346976206,-0.03920155919521062]",100.0,"[-0.09269296389075506,0.170592041116174]",4.0,"[-0.07962857019942794,-0.1516300895534526]",4.0,"[0.048336222545391876,0.11549991908867961]",100.0,"[0.09984079741202982,-0.027069935827462838]",100.0,"[-0.13344384311445362,0.14713808660218772]",4.0,"[-0.08800949625705984,0.0728802878149241]",100.0,"[-0.059185848254985136,-0.10022394551977841]",100.0,"[-0.07214970753180132,0.13442254388849806]",100.0,"[-0.02170541525943302,0.1809087104640589]",100.0,"[0.08345148821538109,0.022619963136155705]",100.0,"[-0.16362210217672118,-0.0013334072179997409]",100.0,"[-0.04576029073095439,-0.01988525135052306]",4.0,"[-0.07401733017443417,-0.048440326919585976]",4.0,"[0.02,0.02]",231.2953,0.0,44.0,44.0,55.0,1.0,,,,,,,
,,,,,,,659b99fcfe88c311aee00bed,6846a84de1d84b2efe80b788,2025-06-09_03h24.43.469,shape_ratio,2024.1.5,Win32,18.34862385,684250e4f00cb30b92d1fa88,,,,,,,,,,,231.2955,231.7703,,,232.0146,232.1395,left,,,,,,,,0.9,0.0655,,,,,,,231.7703,232.0146,232.1395,"[-0.19113721075794554,0.03957889499769502]",100.0,"[0.00813251064358317,-0.11797106964137002]",100.0,"[0.19091150913402086,0.05855119911698541]",100.0,"[-0.018399675124193823,-0.04271617243797992]",100.0,"[0.042486576047333205,0.11385887803843232]",100.0,"[0.08003961968682113,-0.09116212687601097]",100.0,"[0.03448757429746682,-0.04961950647488589]",100.0,"[-0.04008775568099266,-0.10803779337413702]",100.0,"[0.1632681846838896,-0.00914769868945145]",100.0,"[0.022034321055816097,0.04090020595800458]",100.0,"[0.16165742042839615,0.11717224081292972]",4.0,"[-0.1009432900848063,-0.12432573106176666]",100.0,"[0.11223646596081181,-0.14208166104040026]",100.0,"[0.05240334196470812,0.18396381910216658]",100.0,"[0.019343119341619364,-0.18843816621399498]",100.0,"[0.11511773526480679,0.1164442676705917]",100.0,"[-0.021894461803392516,-0.15045110030591274]",100.0,"[0.07390138765031706,0.039720547365710415]",100.0,"[-0.029692629315312642,0.10728071037322522]",100.0,"[0.0835102862590458,-0.17324084013859406]",100.0,"[0.06086926624863178,-0.13282378098929365]",4.0,"[-0.07489979273773456,-0.005090390050629987]",100.0,"[-0.13925785298202817,-0.0866259943090202]",100.0,"[-0.1021751209546772,-0.06733220169820266]",100.0,"[-0.1345363479034546,0.03309148513704086]",4.0,"[0.15125867280250274,-0.09109804294570774]",100.0,"[-0.08067982882948625,0.05193465543754459]",100.0,"[0.11118095200581395,0.15926143488999267]",100.0,"[-0.019548753265373985,0.19089260930158994]",100.0,"[0.09923619345975017,0.0793122695897802]",100.0,"[-0.1805702805866947,0.08048337049388178]",100.0,"[-0.026353594948444425,0.0008675737181455224]",100.0,"[0.02,0.02]",233.1979,0.0,45.0,45.0,18.0,1.0,,,,,,,
,,,,,,,659b99fcfe88c311aee00bed,6846a84de1d84b2efe80b788,2025-06-09_03h24.43.469,shape_ratio,2024.1.5,Win32,18.34862385,684250e4f00cb30b92d1fa88,,,,,,,,,,,233.1982,233.6593,,,233.9041,234.2159,left,,,,,,,,0.55,0.251,,,,,,,233.6593,233.904,234.216,"[-0.15605361492553924,-0.0713552445573806]",100.0,"[0.1683062406007705,0.0916321210322052]",100.0,"[0.025235028701611303,0.13547751089985352]",4.0,"[-0.12140234083372214,-0.006993748908302689]",100.0,"[0.052194694523241145,0.10308237526951666]",100.0,"[0.06610783382087286,-0.12739449695099878]",100.0,"[0.11813523025108714,0.13619819810411574]",100.0,"[-0.16903607743477372,-0.02488202666042782]",4.0,"[-0.1337135838470295,0.10243225572946404]",100.0,"[-0.0635268421525696,-0.1092092410844378]",100.0,"[-0.1179148101846507,0.05732505441186064]",4.0,"[-0.052491091400229346,0.12043349732417646]",4.0,"[0.14274714720221085,-0.033512926197836]",100.0,"[0.18584327802303258,0.03320681654216966]",100.0,"[0.18202421485943238,-0.051894603360691786]",4.0,"[-0.09019981765961586,0.02327189548009928]",100.0,"[-0.06047970083072057,-0.15737160663458785]",100.0,"[0.07749084975927105,-0.04823643913019587]",4.0,"[0.05164713820706198,0.16654157123309243]",4.0,"[0.013162799091026843,-0.07250902425998061]",4.0,"[0.1161938073798163,0.03371796161633638]",100.0,"[0.07118815688292009,0.009630055215777845]",100.0,"[-0.12816445944145397,-0.13813852117343356]",100.0,"[0.11779829011805704,-0.07011724738484992]",4.0,"[-0.02053128555389674,0.0940212303513076]",100.0,"[-0.06506684618507898,0.06342742221949652]",4.0,"[0.04843568047688655,-0.18958585049344073]",4.0,"[-0.03551331907530933,0.026512514876139173]",100.0,"[0.02241308272500559,0.027864882031444282]",4.0,"[0.00008699149912688022,-0.15909374190595424]",4.0,"[-0.019913606284925518,0.15316319925272667]",100.0,"[-0.03244933273440734,-0.07611386032003324]",4.0,"[0.02,0.02]",235.2742,0.0,46.0,46.0,85.0,1.0,,,,,,,
,,,,,,,659b99fcfe88c311aee00bed,6846a84de1d84b2efe80b788,2025-06-09_03h24.43.469,shape_ratio,2024.1.5,Win32,18.34862385,684250e4f00cb30b92d1fa88,,,,,,,,,,,235.2745,235.7456,,,235.9943,236.4333,right,,,,,,,,0.55,0.3832,,,,,,,235.7457,235.9942,236.4334,"[-0.12885986310848546,-0.10709765697013385]",4.0,"[-0.01003029385735458,-0.08416618317570326]",4.0,"[0.08052988202308545,0.17709138151757142]",100.0,"[0.040001957409235164,0.04290803988817013]",4.0,"[-0.1620104166717746,0.11259253730302796]",100.0,"[0.13675196730002373,-0.011453470705507745]",100.0,"[0.10843918732424077,-0.10348784412013545]",100.0,"[0.00405797365175322,0.08779098509848263]",4.0,"[0.16310270995720033,0.0606611768738186]",100.0,"[-0.09691342769470114,0.0942165468606948]",100.0,"[-0.18378963645929086,-0.033771293730537534]",4.0,"[-0.05842811955165159,0.18538116371920066]",4.0,"[-0.14949082700169852,0.03448446422549948]",4.0,"[-0.08990588764131063,0.040076727234353064]",100.0,"[0.02695505638175626,-0.11750380210877122]",100.0,"[0.06441012059683461,-0.18649412045178304]",4.0,"[0.12266693293112062,0.06195330034176666]",4.0,"[0.15500508156783174,-0.10892889289664706]",100.0,"[-0.07533781371793849,-0.152607944220299]",100.0,"[-0.029314933054803885,0.058259250198463015]",4.0,"[0.18572700827261093,-0.019332124582631706]",100.0,"[0.02166549615548013,0.1378421055643013]",4.0,"[-0.11781592313425919,0.15042595149512322]",100.0,"[0.00808575965700258,0.0014723470004302291]",100.0,"[0.08501407357286514,-0.03407589038251368]",100.0,"[-0.06337260756196027,0.12928025299015866]",100.0,"[0.08525672882279409,-0.1456876858909061]",100.0,"[0.04489138786276022,-0.04592397105325842]",4.0,"[-0.09123010559390284,-0.08276076116233547]",100.0,"[-0.1551152979921556,-0.062447685765568604]",100.0,"[-0.05237055784491177,-0.049753704406153565]",4.0,"[-0.15025475062886745,-0.009255228630805808]",4.0,"[0.02,0.02]",237.4931,0.0,47.0,47.0,70.0,1.0,,,,,,,
,,,,,,,659b99fcfe88c311aee00bed,6846a84de1d84b2efe80b788,2025-06-09_03h24.43.469,shape_ratio,2024.1.5,Win32,18.34862385,684250e4f00cb30b92d1fa88,,,,,,,,,,,237.4934,237.9578,,,238.1988,238.6535,left,,,,,,,,0.55,0.398,,,,,,,237.9578,238.1988,238.6535,"[0.0015133841181274104,-0.05474296029456696]",100.0,"[-0.11052933245652342,0.09021483739416915]",100.0,"[-0.15309466819882184,0.07739731376008128]",100.0,"[-0.1277920744869365,0.15304792843787837]",4.0,"[-0.0781268209656672,0.1692710435725336]",100.0,"[0.014706283930975412,-0.18868795204976407]",100.0,"[-0.0823637836061945,-0.14645071388785944]",100.0,"[-0.09016867092622396,-0.06908215482450585]",100.0,"[0.13932204859632663,0.06587004715400913]",4.0,"[0.03137014385852079,0.001306789738599996]",4.0,"[0.12468347175073674,-0.12433029650503]",4.0,"[0.07895522202786413,-0.16195821158354232]",4.0,"[0.054390659530442816,-0.09463122562784063]",100.0,"[-0.03971230555928081,-0.02327875118349199]",100.0,"[0.13148556854646692,-0.0543640317426912]",100.0,"[-0.15181844005465636,0.02313341121109987]",4.0,"[-0.03896448194333569,-0.06623321604439757]",100.0,"[-0.032429905723829575,0.16660303644875407]",4.0,"[0.18452596126506832,-0.025797795464331086]",100.0,"[-0.08807393242457201,-0.01572084280221467]",4.0,"[0.18301798044955284,0.06465838551771264]",100.0,"[-0.16175218590660534,-0.08676737163766234]",4.0,"[0.1082715823797101,0.11577936246712035]",4.0,"[-0.09416881525255438,0.12804136299216545]",4.0,"[0.028660440594937206,0.10575708080725184]",4.0,"[0.11068203098757455,0.16159745036592382]",100.0,"[-0.03467733658086899,0.030594121229152883]",100.0,"[0.18583239837192628,-0.07104878414350375]",100.0,"[-0.06724299523598706,-0.1845672826918906]",100.0,"[0.10012136073619692,-0.0009098922138197694]",4.0,"[0.02881288051276131,0.18421286978483176]",100.0,"[0.018325935335105008,-0.14033481195825667]",4.0,"[0.02,0.02]",239.7563,0.0,48.0,48.0,75.0,1.0,,,,,,,
,,,,,,,659b99fcfe88c311aee00bed,6846a84de1d84b2efe80b788,2025-06-09_03h24.43.469,shape_ratio,2024.1.5,Win32,18.34862385,684250e4f00cb30b92d1fa88,,,,,,,,,,,239.7566,240.2279,,,240.4742,240.6643,left,,,,,,,,0.5,0.1349,,,,,,,240.2279,240.4742,240.6643,"[-0.07099587064779449,-0.03475498350489879]",100.0,"[0.16993770123144844,0.06815389724414116]",4.0,"[0.02271454029287198,0.012124965404615462]",100.0,"[0.19318651163287112,-0.013179710160242337]",100.0,"[0.0574311835341211,0.10010149267812218]",4.0,"[-0.08737768239706031,0.03600803350411774]",4.0,"[-0.1467098844776064,-0.08055554528645799]",4.0,"[0.1069364067606294,-0.0028423347347057027]",4.0,"[0.15302279644590855,-0.12116223033366504]",4.0,"[-0.13156819803934294,-0.1326955782297186]",100.0,"[0.03892728099629965,-0.1290746088646747]",4.0,"[-0.17289000960359466,0.09665424849733457]",100.0,"[0.03216709623681377,0.1687207856172896]",4.0,"[-0.012565310089434087,0.12155773607832132]",100.0,"[0.14596671740693287,0.01905889758254783]",100.0,"[-0.09045167390478767,0.15676996834207477]",4.0,"[-0.07785553821051944,0.11408412137317449]",4.0,"[-0.11662819080210521,0.08372472263067773]",100.0,"[0.0769223305534865,-0.17302191773359352]",100.0,"[0.13944361211880962,-0.04502531062706126]",100.0,"[-0.0921843170100705,-0.11883055305824329]",4.0,"[0.0026892964744300914,-0.05991405568866074]",4.0,"[-0.16156793270452566,0.04337709857155359]",100.0,"[-0.0871840333966327,-0.174151219621851]",4.0,"[0.03157940368305283,0.06604834384092809]",100.0,"[0.06376514865134555,-0.05899243699595024]",4.0,"[-0.00779559198643896,-0.13451766478049476]",100.0,"[-0.12387364527640239,-0.005009552927042031]",100.0,"[-0.02128313983391526,0.06591298890055403]",100.0,"[0.10176031096722356,0.07253302409968734]",4.0,"[-0.04406862138946689,-0.17495904459958436]",100.0,"[0.11672578057613175,-0.10299624151198855]",4.0,"[0.02,0.02]",241.7644,0.0,49.0,49.0,114.0,1.0,,,,,,,
