right,left,explain.started,explain.stopped,key_resp_3.keys,key_resp_3.rt,key_resp_3.duration,participant,session,date,expName,psychopyVersion,OS,frameRate,study_id,explain_2.started,explain_2.stopped,key_resp_4.keys,key_resp_4.rt,key_resp_4.duration,explain_3.started,explain_3.stopped,key_resp_5.keys,key_resp_5.rt,key_resp_5.duration,fixation.started,fixation.stopped,practice.started,practice.stopped,response.started,response.stopped,key_resp.keys,key_resp.rt,key_resp.duration,feedback.started,feedback.stopped,trials_2.thisRepN,trials_2.thisTrialN,trials_2.thisN,trials_2.thisIndex,trials_2.ran,dot_ratio,explain_4.started,explain_4.stopped,key_resp_6.keys,key_resp_6.rt,key_resp_6.duration,dotDisplay.started,dotDisplay.stopped,ITI.started,polygon_1.pos,polygon_1.edges,polygon_2.pos,polygon_2.edges,polygon_3.pos,polygon_3.edges,polygon_4.pos,polygon_4.edges,polygon_5.pos,polygon_5.edges,polygon_6.pos,polygon_6.edges,polygon_7.pos,polygon_7.edges,polygon_8.pos,polygon_8.edges,polygon_9.pos,polygon_9.edges,polygon_10.pos,polygon_10.edges,polygon_11.pos,polygon_11.edges,polygon_12.pos,polygon_12.edges,polygon_13.pos,polygon_13.edges,polygon_14.pos,polygon_14.edges,polygon_15.pos,polygon_15.edges,polygon_16.pos,polygon_16.edges,polygon_17.pos,polygon_17.edges,polygon_18.pos,polygon_18.edges,polygon_19.pos,polygon_19.edges,polygon_20.pos,polygon_20.edges,polygon_21.pos,polygon_21.edges,polygon_22.pos,polygon_22.edges,polygon_23.pos,polygon_23.edges,polygon_24.pos,polygon_24.edges,polygon_25.pos,polygon_25.edges,polygon_26.pos,polygon_26.edges,polygon_27.pos,polygon_27.edges,polygon_28.pos,polygon_28.edges,polygon_29.pos,polygon_29.edges,polygon_30.pos,polygon_30.edges,polygon_31.pos,polygon_31.edges,polygon_32.pos,polygon_32.edges,dot_size,ITI.stopped,trials.thisRepN,trials.thisTrialN,trials.thisN,trials.thisIndex,trials.ran,break_2.started,break_2.stopped,trials_3.thisRepN,trials_3.thisTrialN,trials_3.thisN,trials_3.thisIndex,trials_3.ran
subject chose diamond,subject chose dot,0.0007,98.1368,space,83.1019,,611ce3570a53282a7597ee62,6846a881d0cc0a480e53af7c,2025-06-09_11h27.52.327,shape_ratio,2024.1.5,Linux x86_64,59.88023952,684250e4f00cb30b92d1fa88,,,,,,,,,,,,,,,,,,,,,,,,,,,,,,,,,,,,,,,,,,,,,,,,,,,,,,,,,,,,,,,,,,,,,,,,,,,,,,,,,,,,,,,,,,,,,,,,,,,,,,,,,,,,,,,,,
,,,,,,,611ce3570a53282a7597ee62,6846a881d0cc0a480e53af7c,2025-06-09_11h27.52.327,shape_ratio,2024.1.5,Linux x86_64,59.88023952,684250e4f00cb30b92d1fa88,98.1371,140.2462,space,12.0975,,,,,,,,,,,,,,,,,,,,,,,,,,,,,,,,,,,,,,,,,,,,,,,,,,,,,,,,,,,,,,,,,,,,,,,,,,,,,,,,,,,,,,,,,,,,,,,,,,,,,,,,,,,,,
,,,,,,,611ce3570a53282a7597ee62,6846a881d0cc0a480e53af7c,2025-06-09_11h27.52.327,shape_ratio,2024.1.5,Linux x86_64,59.88023952,684250e4f00cb30b92d1fa88,,,,,,140.2465,144.8306,space,1.5578,,,,,,,,,,,,,,,,,,,,,,,,,,,,,,,,,,,,,,,,,,,,,,,,,,,,,,,,,,,,,,,,,,,,,,,,,,,,,,,,,,,,,,,,,,,,,,,,,,,,,,,,
,,,,,,,611ce3570a53282a7597ee62,6846a881d0cc0a480e53af7c,2025-06-09_11h27.52.327,shape_ratio,2024.1.5,Linux x86_64,59.88023952,684250e4f00cb30b92d1fa88,,,,,,,,,,,144.8662,145.3357,145.3362,145.5813,145.5816,146.5487,left,0.9403,,146.549,147.6479,0.0,0.0,0.0,0.0,1.0,0.2,,,,,,,,,,,,,,,,,,,,,,,,,,,,,,,,,,,,,,,,,,,,,,,,,,,,,,,,,,,,,,,,,,,,,,,,,,,,,,,,,,,,,,
,,,,,,,611ce3570a53282a7597ee62,6846a881d0cc0a480e53af7c,2025-06-09_11h27.52.327,shape_ratio,2024.1.5,Linux x86_64,59.88023952,684250e4f00cb30b92d1fa88,,,,,,,,,,,147.6488,148.148,148.1481,148.3986,148.3987,149.6155,left,1.1965,0.0003,149.6155,150.7155,0.0,1.0,1.0,1.0,1.0,0.8,,,,,,,,,,,,,,,,,,,,,,,,,,,,,,,,,,,,,,,,,,,,,,,,,,,,,,,,,,,,,,,,,,,,,,,,,,,,,,,,,,,,,,
,,,,,,,611ce3570a53282a7597ee62,6846a881d0cc0a480e53af7c,2025-06-09_11h27.52.327,shape_ratio,2024.1.5,Linux x86_64,59.88023952,684250e4f00cb30b92d1fa88,,,,,,,,,,,,,,,,,,,,,,,,,,,,150.716,158.6687,space,4.9492,,,,,,,,,,,,,,,,,,,,,,,,,,,,,,,,,,,,,,,,,,,,,,,,,,,,,,,,,,,,,,,,,,,,,,,,,,,,,,,,,,
,,,,,,,611ce3570a53282a7597ee62,6846a881d0cc0a480e53af7c,2025-06-09_11h27.52.327,shape_ratio,2024.1.5,Linux x86_64,59.88023952,684250e4f00cb30b92d1fa88,,,,,,,,,,,158.7099,159.1853,,,159.4359,160.1858,left,0.733,,,,,,,,,0.6,,,,,,159.1857,159.4358,160.1861,"[-0.015158158273940407,0.16721458136868234]",4.0,"[-0.04757136244481419,-0.08952306082190621]",4.0,"[0.1572216283570564,0.04341782266269113]",100.0,"[-0.12909153156568792,0.08840899058108304]",100.0,"[0.10222540529025564,-0.01959521766957116]",100.0,"[0.08415896435715382,-0.08208111582304091]",4.0,"[0.12950655118242743,-0.13630093064150925]",4.0,"[-0.14534783526806544,-0.04750021543431626]",4.0,"[-0.0962000849701379,0.15820801230699003]",100.0,"[0.041369106320185,0.187279752579957]",100.0,"[0.016084536001578532,-0.09683741131854871]",100.0,"[0.05270127604934953,0.029922661464130713]",4.0,"[-0.0769634767778138,-0.058220977252537]",100.0,"[0.1742636486436912,-0.08705171572717141]",100.0,"[0.11289966838889065,0.0796532405038954]",100.0,"[0.03111170725963532,0.09364576382954079]",100.0,"[-0.09164835097041503,-0.17132258880559456]",100.0,"[-0.09037162643364846,0.013298233417686238]",100.0,"[-0.0025656050011487195,-0.189972983354792]",4.0,"[0.1859389522714256,-0.012361585133224634]",100.0,"[-0.021544263849876975,0.03505456350036081]",100.0,"[-0.1305125440184596,-0.10406653892792231]",4.0,"[-0.0417131897614908,0.12273015728949734]",4.0,"[0.028275779606322132,-0.01819861804334047]",100.0,"[-0.02831716819161184,-0.13615810498209702]",100.0,"[0.10650321511480514,0.13391166381029115]",4.0,"[-0.06813059002295019,0.06941177395523104]",4.0,"[0.06103641905105927,0.12623543055677047]",100.0,"[-0.1835307410786783,0.056854848620854305]",4.0,"[-0.04071938175467801,-0.029953908173459137]",100.0,"[-0.18779511623899803,-0.06848852135423628]",100.0,"[-0.12753526409282498,-0.1454612657630732]",4.0,"[0.02,0.02]",161.2863,0.0,0.0,0.0,30.0,1.0,,,,,,,
,,,,,,,611ce3570a53282a7597ee62,6846a881d0cc0a480e53af7c,2025-06-09_11h27.52.327,shape_ratio,2024.1.5,Linux x86_64,59.88023952,684250e4f00cb30b92d1fa88,,,,,,,,,,,161.2867,161.7866,,,162.037,162.9035,left,0.8459,,,,,,,,,0.9,,,,,,161.7866,162.0369,162.9035,"[-0.1568513866142508,0.06118391153544064]",4.0,"[0.040170138069877244,0.13634406378768332]",100.0,"[0.12236604505993989,0.14403782879656193]",100.0,"[-0.1422638187351599,-0.10468787126487615]",4.0,"[-0.013642161323347092,0.190143664397588]",100.0,"[-0.17935671489560084,-0.0789866880688246]",100.0,"[0.07900201129075231,-0.0849504694291196]",100.0,"[0.07546818628097467,0.019644226925017286]",100.0,"[-0.0417842562708839,0.14195654943905336]",100.0,"[0.009600856721913532,0.05743441360161706]",100.0,"[-0.045191111512643094,-0.06674745652439833]",100.0,"[0.08222084111668139,-0.031150588092968286]",100.0,"[-0.08989449189352283,0.023248748961111662]",100.0,"[0.0719305517772247,0.0872862721403457]",100.0,"[-0.02256118698513473,-0.10883244034102897]",100.0,"[0.13583208379859465,-0.05473712499770316]",100.0,"[-0.15350631289916938,-0.027106907550361662]",100.0,"[0.054606507123548594,-0.11948945266653926]",100.0,"[-0.0407796759827354,-0.1563466752241514]",100.0,"[-0.03934862049354376,0.055818517439962176]",100.0,"[-0.10082298784148762,0.1090138030341902]",100.0,"[-0.02467253338374397,-0.01961919657608796]",100.0,"[0.11692959009574408,0.09860328490897247]",100.0,"[-0.10975931756304007,-0.07640440399384385]",100.0,"[0.08013055039784496,-0.17856396210206457]",100.0,"[-0.09540661230452374,-0.1735237070861075]",100.0,"[0.05998212769947718,0.18929622087055287]",4.0,"[0.18119309076426837,0.04289998764917272]",100.0,"[0.17357415969243334,0.09384394751467126]",100.0,"[-0.0008939621570862324,0.13349371631053591]",100.0,"[0.09789961052159799,0.05453840090680432]",100.0,"[0.1882387103829756,-0.00039982837791171014]",100.0,"[0.02,0.02]",164.0034,0.0,1.0,1.0,28.0,1.0,,,,,,,
,,,,,,,611ce3570a53282a7597ee62,6846a881d0cc0a480e53af7c,2025-06-09_11h27.52.327,shape_ratio,2024.1.5,Linux x86_64,59.88023952,684250e4f00cb30b92d1fa88,,,,,,,,,,,164.0039,164.5037,,,164.7545,165.4539,right,0.682,,,,,,,,,0.1,,,,,,164.5037,164.7544,165.4539,"[0.1620294146268242,0.08309918101708984]",4.0,"[-0.1458280228064053,0.0694321623674914]",100.0,"[0.0164846957365876,0.05572774984142123]",4.0,"[-0.1738899170334682,-0.07908627356472751]",4.0,"[-0.07942356139604341,0.04312833275673334]",4.0,"[0.10361068067920073,0.11726533016279089]",4.0,"[-0.07229853412008401,0.15415462555293558]",4.0,"[0.14166164428238548,0.015439770979893058]",4.0,"[-0.0057970658351798625,-0.10934669274915429]",4.0,"[-0.00908293298287413,-0.03652449584044553]",4.0,"[-0.1303406441656514,0.13130107482477724]",4.0,"[-0.061639560544913825,0.08541763939191294]",4.0,"[-0.10415887331922635,-0.09323638901860878]",4.0,"[0.06822093943249583,-0.06549116800577982]",4.0,"[0.12622556220861314,-0.10845775536227646]",4.0,"[-0.13367866121287936,-0.039579694693556794]",100.0,"[0.0445720175339614,0.12056833415470722]",4.0,"[0.0058511209736717106,0.16687333884404681]",100.0,"[0.1650166538139952,-0.039541934351680706]",4.0,"[-0.0991233229160893,-0.16808483371741698]",4.0,"[-0.13289731305881647,0.00333827921127456]",4.0,"[0.029472314961526584,-0.16689643432861123]",4.0,"[-0.17134746142616444,-0.023926076271721265]",4.0,"[-0.006911380285907827,0.11613303443453188]",4.0,"[-0.08011369586079967,-0.0030220235155312587]",4.0,"[0.16711739922675156,-0.09171254493561834]",4.0,"[0.1944678274336622,0.04378669423189702]",4.0,"[-0.05000076251428656,-0.187846718708074]",4.0,"[-0.14240881791570315,-0.1337659057449484]",4.0,"[0.07264700755447277,-0.11564172009731247]",4.0,"[0.10148261450970845,-0.14552565787832883]",4.0,"[-0.05465681614946744,-0.04749643035001744]",4.0,"[0.02,0.02]",166.5542,0.0,2.0,2.0,201.0,1.0,,,,,,,
,,,,,,,611ce3570a53282a7597ee62,6846a881d0cc0a480e53af7c,2025-06-09_11h27.52.327,shape_ratio,2024.1.5,Linux x86_64,59.88023952,684250e4f00cb30b92d1fa88,,,,,,,,,,,166.5547,167.0541,,,167.3056,168.1215,left,0.7969,,,,,,,,,0.9,,,,,,167.0542,167.3055,168.1215,"[-0.01920902932347651,0.14016225539446442]",100.0,"[0.0789716045043567,-0.03236800684187647]",4.0,"[0.033955564459011614,0.16880062729111792]",100.0,"[-0.06754342715814786,0.17250013905492703]",100.0,"[-0.0008585799327559757,0.09756817474953432]",100.0,"[-0.14487802103023595,0.12809913767331768]",100.0,"[0.04051508029893442,0.009597417054175697]",100.0,"[0.16643746081288643,0.04071727751087583]",100.0,"[-0.15021896175999308,-0.05640912531528267]",100.0,"[0.10295144124275413,0.09462245841548048]",100.0,"[-0.1773226017575249,0.05284600562201948]",100.0,"[0.09545231426917157,0.033275295146919126]",100.0,"[0.006993119245852762,-0.03889762675744942]",100.0,"[0.17761352858734475,0.0876990896420606]",4.0,"[-0.035524530206011776,-0.023375357782415333]",100.0,"[-0.07573595204969984,-0.060211303915765076]",100.0,"[-0.10424192756922696,-0.14754966637374187]",100.0,"[0.015438500518828497,-0.14856165334822216]",4.0,"[0.08923309887139952,-0.13970674560386248]",100.0,"[-0.10398203416829609,0.07499130907197617]",100.0,"[-0.0022038218836491616,0.1878442069138752]",100.0,"[-0.022063307567592914,0.03401274118582297]",100.0,"[0.15793838973052354,-0.09202044271140074]",100.0,"[-0.07643044040881873,-0.013928399276579856]",100.0,"[0.12407316881602955,-0.02816857373427105]",100.0,"[0.012625431799874475,0.056507130376308216]",100.0,"[0.0778780912875917,0.14151139433322593]",100.0,"[-0.0013165275299085648,-0.08846884897447631]",100.0,"[-0.049715892815209634,-0.12838982233905222]",100.0,"[-0.162479379493719,-0.009656727802861191]",100.0,"[-0.0884044856359731,-0.10137705876252236]",100.0,"[-0.15571059171156246,-0.10394725587742794]",100.0,"[0.02,0.02]",169.2216,0.0,3.0,3.0,10.0,1.0,,,,,,,
,,,,,,,611ce3570a53282a7597ee62,6846a881d0cc0a480e53af7c,2025-06-09_11h27.52.327,shape_ratio,2024.1.5,Linux x86_64,59.88023952,684250e4f00cb30b92d1fa88,,,,,,,,,,,169.2223,169.7223,,,169.9726,170.906,right,0.9172,,,,,,,,,0.55,,,,,,169.7223,169.9726,170.9061,"[-0.06580690208195228,-0.12439785421644511]",100.0,"[-0.09450271055126072,-0.06831084078034527]",4.0,"[0.053239146135077034,0.17154723163556782]",100.0,"[-0.10235288434990801,0.14030195843133214]",100.0,"[0.0019000987345292107,0.18920133352083543]",4.0,"[0.16862771032327076,0.10463055840084153]",100.0,"[-0.16183243163198102,0.048142879914687436]",4.0,"[0.15346944106448573,0.025085459705035482]",100.0,"[0.08767689585756336,-0.032354298373886405]",100.0,"[-0.013604581483822275,-0.13734631500200187]",100.0,"[-0.023533103045620337,0.029773712309771074]",4.0,"[0.028168700300834074,-0.10848462292872768]",4.0,"[-0.011993539869612792,-0.07515633145963736]",100.0,"[-0.1976682424590213,-0.0065686877852900215]",4.0,"[0.1046028481982887,0.11258190031181782]",4.0,"[-0.13040456296507394,0.10399330637991272]",4.0,"[-0.06679256188370951,-0.1680820820161083]",100.0,"[0.025082567945679268,-0.03790334637829229]",100.0,"[-0.0175359511251255,0.08400709536624719]",4.0,"[-0.02130462984824225,-0.030757901380003654]",100.0,"[-0.11025972618282256,-0.12058850380179346]",4.0,"[-0.009985430431646706,-0.1997109052453496]",4.0,"[0.12449357356264737,-0.10932076566521046]",4.0,"[-0.1084310386306728,0.029707627923743367]",100.0,"[-0.024653770815979956,0.12650122107710773]",100.0,"[-0.0962292087798278,0.0737446303227235]",100.0,"[0.17199553207790802,-0.07572495593077276]",100.0,"[-0.1794598050413182,0.08577450708103493]",100.0,"[0.08510034452521868,0.04439634362280703]",100.0,"[-0.15918229741064566,-0.03775396357718581]",100.0,"[0.09253276819922199,-0.08408444340309268]",4.0,"[0.13718482157326467,-0.01585569390674116]",4.0,"[0.02,0.02]",172.0063,0.0,4.0,4.0,81.0,1.0,,,,,,,
,,,,,,,611ce3570a53282a7597ee62,6846a881d0cc0a480e53af7c,2025-06-09_11h27.52.327,shape_ratio,2024.1.5,Linux x86_64,59.88023952,684250e4f00cb30b92d1fa88,,,,,,,,,,,172.0066,172.5062,,,172.7571,173.891,right,1.1228,,,,,,,,,0.5,,,,,,172.5063,172.757,173.891,"[0.018834929442353977,-0.1973022368124245]",4.0,"[-0.17897343011537245,-0.026217643910682185]",4.0,"[0.029727218644716794,-0.15315174583481075]",4.0,"[0.1336475619101117,0.11679119428972416]",4.0,"[0.11144926898767202,-0.1470704090613542]",4.0,"[-0.02747487629060846,-0.16287001824481648]",4.0,"[0.04229960069019196,0.08569014454328619]",100.0,"[0.002662506452369828,-0.11248053520930801]",100.0,"[-0.11189585280963264,0.023065477965549846]",100.0,"[0.10975190266180226,0.02362624298798843]",100.0,"[0.1731122587258185,0.01690695659313463]",4.0,"[-0.003301268738560089,0.16055965844493575]",4.0,"[-0.11124804129542264,-0.017785482448517232]",100.0,"[-0.07314341660073542,-0.09633297152549909]",4.0,"[0.08103875033373287,0.10981620776306922]",4.0,"[0.014073930340242784,-0.02388139943639432]",100.0,"[0.15962179718553238,0.0682775942227291]",100.0,"[0.1932299821650322,-0.050486795518997755]",100.0,"[0.06552341984215626,-0.06334754880630654]",100.0,"[-0.06153201205164661,0.1694674709069423]",100.0,"[0.0819961366975424,0.062252421422199264]",4.0,"[-0.10142203317380027,0.09836118541682652]",100.0,"[-0.03463611940704611,-0.07548625876614386]",4.0,"[0.13048185822198805,-0.08761933309198691]",100.0,"[-0.054732253835514943,0.010119259752494007]",100.0,"[-0.039556646876438485,0.11597002941948394]",100.0,"[0.09812831723514058,-0.025546100041820653]",4.0,"[-0.05569600703532129,-0.03063727685440836]",4.0,"[0.1497821275157688,-0.12773413164987488]",4.0,"[-0.06843001515091647,-0.145434606017167]",100.0,"[0.04923513305209436,0.03452622102744975]",4.0,"[-0.12722154448587536,-0.14396169047087176]",100.0,"[0.02,0.02]",174.9908,0.0,5.0,5.0,110.0,1.0,,,,,,,
,,,,,,,611ce3570a53282a7597ee62,6846a881d0cc0a480e53af7c,2025-06-09_11h27.52.327,shape_ratio,2024.1.5,Linux x86_64,59.88023952,684250e4f00cb30b92d1fa88,,,,,,,,,,,174.9911,175.4905,,,175.7416,176.4749,left,0.7151,,,,,,,,,0.5,,,,,,175.4905,175.7416,176.475,"[-0.18470950591696855,-0.04686232477449382]",4.0,"[0.17682150844283492,0.06385271608190767]",4.0,"[0.0933411386462208,-0.10291267540839256]",4.0,"[-0.0855653359089455,0.1753064179936651]",100.0,"[-0.029642139669682432,0.18795231829840262]",4.0,"[-0.0655211139281293,-0.12735191925095132]",4.0,"[0.08588272175947607,0.1746713646157016]",100.0,"[0.030256305102457488,0.08205236009875072]",100.0,"[0.13409622060906784,-0.014345184608538114]",100.0,"[0.03814480015185163,-0.09442735195782023]",4.0,"[-0.000751491049316207,0.020058946526002937]",4.0,"[-0.028786516517618075,-0.18389910404465018]",4.0,"[0.0959583960380378,-0.03422156342192663]",100.0,"[-0.17099823704040248,0.03259808366998592]",100.0,"[0.05287335433513196,-0.1888599637645026]",100.0,"[0.03215896707681364,-0.03673114406392978]",4.0,"[-0.12673706778057112,-0.0825000368889799]",100.0,"[-0.061680026247436036,-0.04580785433495917]",100.0,"[0.03917737832904192,0.14941874130927604]",100.0,"[0.10830186840847451,0.0684730633260374]",4.0,"[-0.11125425716090712,-0.013847445522895295]",100.0,"[0.05473414066694824,0.012958100376149603]",4.0,"[-0.11013119156363216,0.07249104035536849]",4.0,"[-0.07609575294418319,0.04783689485501035]",100.0,"[0.11316733848021367,0.1354196864578673]",100.0,"[0.10510107793892612,0.01709517705731607]",4.0,"[0.13081982487379634,-0.08512082518094875]",100.0,"[-0.09403134989478314,-0.1758466922676725]",4.0,"[-0.15031282893590733,0.10999728214834197]",4.0,"[-0.10064374645173922,0.11954938409818049]",4.0,"[-0.0033833570218549745,-0.10207974404541607]",100.0,"[-0.004520400729080184,0.12721778555964408]",100.0,"[0.02,0.02]",177.5754,0.0,6.0,6.0,90.0,1.0,,,,,,,
,,,,,,,611ce3570a53282a7597ee62,6846a881d0cc0a480e53af7c,2025-06-09_11h27.52.327,shape_ratio,2024.1.5,Linux x86_64,59.88023952,684250e4f00cb30b92d1fa88,,,,,,,,,,,177.5759,178.0748,,,178.313,179.1922,left,0.8568,,,,,,,,,0.9,,,,,,178.0748,178.3129,179.1923,"[0.13418044981821853,-0.10986450511918326]",100.0,"[0.13985535582153374,0.0006350834775624083]",100.0,"[-0.06373003381777824,-0.153210984164938]",100.0,"[-0.073985629639991,0.10634088560829684]",100.0,"[0.023821352963193477,-0.04182218905054251]",100.0,"[-0.19437282742606882,0.024254429779774087]",100.0,"[0.14924231117002507,0.08925296620136487]",100.0,"[0.010042611529150295,-0.17904129560328516]",100.0,"[-0.037254074454307874,0.053195479140412276]",100.0,"[0.1626688409092396,-0.07420798178610373]",100.0,"[0.09884166186176309,-0.16129906499704094]",100.0,"[0.06990637407817667,0.00934002403173771]",100.0,"[0.03619517617330452,0.17212454865393353]",100.0,"[-0.08915302599617021,0.16901654624270995]",100.0,"[-0.01998839676703389,0.131184902947512]",100.0,"[0.05876396467520491,-0.180719768819012]",100.0,"[-0.021740664660256752,-0.12870849048909516]",100.0,"[0.07807658366917544,-0.03718151903557218]",100.0,"[0.07903241677317586,0.05112955525878244]",4.0,"[0.04776710870759105,0.12197615086041758]",100.0,"[-0.15408536194157627,-0.043971693009558166]",100.0,"[-0.03761383730419094,-0.018943917868617245]",100.0,"[-0.07900799440963531,-0.016345133521702086]",100.0,"[0.10884231733505922,0.152763989851625]",100.0,"[-0.08143586192312936,0.03254562752941092]",100.0,"[0.05417789065995935,-0.07879438067800539]",100.0,"[-0.1375759312100765,0.04007732213055648]",4.0,"[0.09726538298954751,-0.0772574652871489]",4.0,"[0.01891634415674032,0.05602583951467456]",100.0,"[0.1890975806331854,-0.005865335179095121]",100.0,"[-0.045513539783005895,-0.18973373860174156]",100.0,"[-0.03339041262445811,0.1784696559797219]",100.0,"[0.02,0.02]",180.2921,0.0,7.0,7.0,9.0,1.0,,,,,,,
,,,,,,,611ce3570a53282a7597ee62,6846a881d0cc0a480e53af7c,2025-06-09_11h27.52.327,shape_ratio,2024.1.5,Linux x86_64,59.88023952,684250e4f00cb30b92d1fa88,,,,,,,,,,,180.2927,180.7922,,,181.0433,181.7427,right,0.6849,,,,,,,,,0.1,,,,,,180.7923,181.0433,181.7429,"[0.1460692162276551,0.10755808410229574]",4.0,"[0.07812556622713131,-0.17482314816860842]",4.0,"[-0.04831465916071796,-0.01575381143706543]",4.0,"[-0.011560602967167,-0.07260607392473616]",4.0,"[-0.01723126807814817,-0.18893737261795446]",4.0,"[-0.08847811049603856,-0.14219790353414496]",4.0,"[-0.05058817457997021,0.16286918316695898]",4.0,"[-0.13059820977517178,-0.14432979472063612]",4.0,"[-0.06827493472106771,0.12163287692605054]",4.0,"[0.047674656354014674,0.12818403769848036]",4.0,"[-0.1858624026265924,-0.0012988732696062025]",4.0,"[-0.030839190430903853,0.10149635518032057]",100.0,"[0.0483373301166486,-0.013091591851264413]",4.0,"[0.17525559572539115,0.054408673326796046]",4.0,"[0.16778860007327004,-0.049401532509760725]",4.0,"[-0.16829010002254963,0.09342229668321299]",4.0,"[-0.061998139608199845,0.04297794772728129]",100.0,"[0.04306950559510644,0.1790522878289881]",4.0,"[0.01487033595028806,0.1003300614010968]",4.0,"[-0.1096044212074974,-0.09238752609656306]",4.0,"[-0.01128720865107498,0.19566307891764156]",100.0,"[0.12231535145667648,-0.11582497005896401]",4.0,"[0.1009353548491374,-0.059667285884211996]",4.0,"[-0.13447868977491179,-0.020653038454344855]",4.0,"[-0.09267835034068451,-0.03400650755592166]",4.0,"[-0.17863612080460142,-0.043926358867555595]",4.0,"[0.01227752474627311,0.028934317829420866]",4.0,"[-0.11781158439062589,0.10701940869755407]",4.0,"[0.0774726124331552,0.03421630878909989]",4.0,"[0.029618549275643384,-0.13560051937189374]",4.0,"[0.16960223530877874,0.002448688081315598]",4.0,"[-0.11472464294061835,0.05153545033202775]",4.0,"[0.02,0.02]",182.8493,0.0,8.0,8.0,204.0,1.0,,,,,,,
,,,,,,,611ce3570a53282a7597ee62,6846a881d0cc0a480e53af7c,2025-06-09_11h27.52.327,shape_ratio,2024.1.5,Linux x86_64,59.88023952,684250e4f00cb30b92d1fa88,,,,,,,,,,,182.8498,183.3438,,,183.5943,184.4272,right,0.8158,,,,,,,,,0.55,,,,,,183.3438,183.5943,184.4273,"[0.06407334376155333,0.12164073524753782]",100.0,"[0.016872970017774647,-0.1634340242255791]",4.0,"[-0.061259845433972816,-0.16780830723397783]",100.0,"[-0.11729405683785002,0.13365703409705115]",100.0,"[0.0905451990853332,-0.03845453612480151]",4.0,"[0.16312890181611064,-0.007122612192168235]",4.0,"[-0.01683615191327341,0.08716476439109877]",4.0,"[-0.11277072977929435,-0.020161480470547343]",100.0,"[0.004875778748003792,-0.003535075101557561]",100.0,"[0.054067672286843414,-0.1419047510294402]",100.0,"[0.025996050866770194,0.1924805215191478]",100.0,"[0.10874349807603143,0.13759587398342873]",4.0,"[0.14095198599338046,-0.08794073096289427]",4.0,"[-0.029169807915576402,-0.09769691832213212]",100.0,"[-0.07783465560920451,0.020991119266568062]",100.0,"[0.1396099147069684,0.05098375973345627]",100.0,"[0.09701970259847036,0.021442446295989348]",4.0,"[-0.07238246701513176,-0.1205055208788656]",100.0,"[0.002967124420596563,0.14621066674571392]",4.0,"[-0.12993706441375782,0.02070772286747233]",100.0,"[0.02614835868422231,-0.039502835965507896]",4.0,"[0.09201322587648922,-0.10109243392356168]",4.0,"[-0.0817523260581849,0.0630209359448977]",4.0,"[-0.19169908664432678,0.03886455858149]",100.0,"[-0.050821976224057236,0.1415202109429537]",100.0,"[-0.14728890181151316,-0.08356421621045869]",4.0,"[0.14146512388348026,-0.13602540327639753]",100.0,"[0.1558795210842287,0.1113158718946985]",4.0,"[-0.02535358939302782,-0.1869543967823116]",100.0,"[-0.11048760237490074,-0.061906531784845974]",100.0,"[0.021243701523206964,0.05627520563212655]",4.0,"[0.05242189854291463,-0.07867656341292316]",100.0,"[0.02,0.02]",185.5291,0.0,9.0,9.0,82.0,1.0,,,,,,,
,,,,,,,611ce3570a53282a7597ee62,6846a881d0cc0a480e53af7c,2025-06-09_11h27.52.327,shape_ratio,2024.1.5,Linux x86_64,59.88023952,684250e4f00cb30b92d1fa88,,,,,,,,,,,185.5298,186.0276,,,186.2786,187.0114,left,0.7135,,,,,,,,,0.9,,,,,,186.0277,186.2786,187.0115,"[0.02564571617697149,-0.11054385091862269]",100.0,"[-0.06298876554451757,0.12092145186195681]",100.0,"[-0.1801442949941291,0.04258580907953684]",100.0,"[0.1919807072591381,-0.015727613882052904]",100.0,"[0.05396786766012255,0.06535105131840217]",100.0,"[-0.12965197449729715,-0.09660095718643368]",100.0,"[0.03140181785595193,0.020885252427147317]",100.0,"[0.023132556639569663,-0.17882544708437598]",100.0,"[0.09862469774630507,-0.12347211199302277]",100.0,"[-0.19136725734594542,-0.017620264699493224]",100.0,"[-0.06177182530993949,-0.0350450426657059]",100.0,"[0.13419627575013957,-0.04089355646553952]",4.0,"[0.04970771582106115,-0.06836991991546135]",100.0,"[-0.05542039067640633,0.05866318591404879]",100.0,"[0.04567668924863415,0.18695435553245138]",100.0,"[0.10626183721857398,0.11346651294638489]",4.0,"[-0.12736032183856497,0.15225017342782962]",100.0,"[0.1033061977348877,0.15757307341611335]",100.0,"[-0.055793893834392955,0.0066334905912398354]",100.0,"[-0.01735893156269669,0.17221986067443742]",100.0,"[0.005193450450719176,-0.047109325233042794]",100.0,"[0.12426496322626666,0.03977260462331643]",100.0,"[-0.07041026456484384,-0.10735473391453994]",100.0,"[-0.11811298220086516,0.036747781356608535]",4.0,"[-0.12258552829820285,-0.029375785913331016]",100.0,"[-0.1697645908488776,0.10340589823101522]",100.0,"[-0.09933732506091499,-0.06280371939607944]",100.0,"[-0.007042874237807607,-0.14764038809157934]",100.0,"[0.05731858844301846,-0.023897462188865966]",100.0,"[0.14871164773638243,0.11313655888601505]",100.0,"[0.175916442721751,-0.07069269817118078]",100.0,"[-0.16885604316768704,-0.05847207917189657]",100.0,"[0.02,0.02]",188.1114,0.0,10.0,10.0,14.0,1.0,,,,,,,
,,,,,,,611ce3570a53282a7597ee62,6846a881d0cc0a480e53af7c,2025-06-09_11h27.52.327,shape_ratio,2024.1.5,Linux x86_64,59.88023952,684250e4f00cb30b92d1fa88,,,,,,,,,,,188.1119,188.6121,,,188.8626,189.679,left,0.7874,,,,,,,,,0.45,,,,,,188.6121,188.8624,189.679,"[-0.058679494876002665,0.06475411576967494]",100.0,"[-0.06406767545116557,0.15404162564728627]",4.0,"[-0.10687251826587878,-0.1151813969586722]",100.0,"[0.11822829950417285,-0.006130543736815422]",4.0,"[-0.004409916388065761,0.14026986008120107]",100.0,"[0.007731886366062198,0.18125090396599533]",4.0,"[0.060270166801485885,0.02928824267516917]",4.0,"[-0.05943786587259512,-0.09457010359596711]",4.0,"[0.1454359774739741,0.1126166963837407]",4.0,"[0.01575038244042907,-0.18327066898855424]",4.0,"[-0.026310828901563263,-0.13921836998838605]",100.0,"[0.00869823388115801,-0.040215485161264296]",4.0,"[0.08393067600761335,0.13302780354426993]",4.0,"[-0.15205936881828164,-0.05214771335801419]",100.0,"[0.08972512966134201,-0.08169069510832389]",100.0,"[0.13807618716708944,-0.11329628176313924]",100.0,"[-0.0924200463690461,-0.15529122316083166]",4.0,"[0.09368965316170354,-0.16168235793235214]",100.0,"[0.17963471384612056,0.04798399238167142]",100.0,"[0.141781238803979,-0.040503149832193434]",4.0,"[-0.011311988548070072,0.08200459204857899]",100.0,"[-0.12568769933629326,0.012254517215517803]",4.0,"[-0.17874526864600795,-0.01781415501877768]",4.0,"[0.19269602041080028,-0.019258227685468046]",100.0,"[-0.1827539234875017,0.07536649857511576]",4.0,"[0.03374840546740862,-0.12196817553160656]",4.0,"[0.12701300557462042,0.06852327963512987]",4.0,"[-0.10235984529452831,0.08362054045021144]",100.0,"[0.1462268421938545,0.024648534560619797]",4.0,"[-0.11244522513806247,-0.0683234117104295]",4.0,"[-0.15709072633058999,0.1102755943641905]",100.0,"[0.03902809522187833,0.07482145062186016]",100.0,"[0.02,0.02]",190.7799,0.0,11.0,11.0,145.0,1.0,,,,,,,
,,,,,,,611ce3570a53282a7597ee62,6846a881d0cc0a480e53af7c,2025-06-09_11h27.52.327,shape_ratio,2024.1.5,Linux x86_64,59.88023952,684250e4f00cb30b92d1fa88,,,,,,,,,,,190.7803,191.2744,,,191.5149,192.3131,left,0.7817,,,,,,,,,0.9,,,,,,191.2744,191.5148,192.3131,"[-0.05350669632020497,0.19197119438742533]",100.0,"[-0.023480547918614557,-0.04820298486905093]",100.0,"[0.192596489902436,0.0531277281620706]",100.0,"[0.07703900115061138,-0.04178200954087042]",100.0,"[-0.11468828239206127,0.0634397564323848]",100.0,"[-0.14984155735433802,-0.10497590150821536]",100.0,"[0.10736377682479131,-0.1140940957571383]",100.0,"[0.05056419675629103,0.1301760088429503]",100.0,"[0.10471956356206691,0.17008310781192607]",100.0,"[0.06097094660090957,0.09018123804793989]",100.0,"[-0.04744188195690448,0.08859078293013983]",100.0,"[0.14406442945455922,0.034894853581147835]",4.0,"[-0.10175443467631323,0.1269594976147082]",4.0,"[0.11599052157068242,-0.00876870883912353]",100.0,"[-0.011963925769053469,0.025479298939308025]",100.0,"[-0.03557797452466455,0.15329318890613444]",100.0,"[0.05634434621866341,-0.09667701805418259]",100.0,"[-0.16474271491806908,0.025672607782319033]",100.0,"[0.1200375758717293,0.13237041873947714]",100.0,"[0.039870905267349696,0.05365035546359592]",100.0,"[0.03037688514864444,-0.047040531900042565]",4.0,"[-0.13176544143934102,-0.014256096406394355]",100.0,"[-0.18497701500508212,-0.059288061148258846]",100.0,"[0.015694915723599143,-0.1617147488727467]",100.0,"[-0.006964258439045431,0.0997384755353886]",100.0,"[-0.005375062997265357,-0.19663374373717638]",100.0,"[-0.002553295379206356,-0.09240645471232486]",100.0,"[0.1970042083080989,-0.008093406753937353]",100.0,"[-0.10108720761038044,-0.06419834983347811]",100.0,"[0.16864378946792552,0.09361485746898193]",100.0,"[-0.10688307293785694,-0.14395270938439034]",100.0,"[-0.05047387020199148,-0.09972137841591158]",100.0,"[0.02,0.02]",193.4134,0.0,12.0,12.0,19.0,1.0,,,,,,,
,,,,,,,611ce3570a53282a7597ee62,6846a881d0cc0a480e53af7c,2025-06-09_11h27.52.327,shape_ratio,2024.1.5,Linux x86_64,59.88023952,684250e4f00cb30b92d1fa88,,,,,,,,,,,193.4139,193.914,,,194.1647,194.7476,right,0.5683,,,,,,,,,0.1,,,,,,193.914,194.1647,194.7476,"[0.15933516599673253,-0.03645574120949283]",4.0,"[0.053022685181031676,0.10841103117760836]",4.0,"[0.151217435458255,0.10325846055729965]",4.0,"[0.03988618427864728,-0.1378799006478919]",4.0,"[-0.1416316165691966,0.09297607997435549]",4.0,"[-0.09738112414367647,-0.1499945537255032]",4.0,"[-0.19467491573704004,-0.019061016214148314]",4.0,"[-0.07737823417526149,0.07697821981137375]",4.0,"[-0.021272726310947992,0.04227996724999689]",4.0,"[0.1376173832374518,0.012746960110477526]",100.0,"[-0.07319333242416223,-0.008883088957852149]",4.0,"[-0.12012539833003734,-0.0698722707264648]",4.0,"[-0.13244820263091284,-0.004316909413730022]",4.0,"[0.06770532352176843,-0.0767781572682641]",4.0,"[-0.16665114748521026,0.03842125880645077]",4.0,"[0.11611704167049425,0.12353444864084813]",4.0,"[-0.013419395599667953,0.14324477852780018]",4.0,"[0.07662822012394044,0.1595313514623297]",4.0,"[-0.07883735356209855,0.18180055898527378]",4.0,"[0.08782206848017493,0.04237486484327659]",4.0,"[-0.022157400336392782,-0.16758509390606663]",4.0,"[-0.03147395783757861,-0.056508808640032736]",4.0,"[0.03529368148061868,0.02635001138679835]",4.0,"[-0.0754074661148229,-0.08272451890471125]",4.0,"[0.09676794483323045,-0.000013514462267238056]",4.0,"[0.12863809021281103,0.060685669142857654]",4.0,"[0.03772026766125058,0.1455647722380759]",100.0,"[-0.17111176612447113,-0.05573464675536788]",4.0,"[0.17969867109281823,0.05230736367222342]",100.0,"[0.0017759626183225345,-0.004314504447181388]",4.0,"[-0.11445371050086284,0.14221402414898432]",4.0,"[0.03375861745429339,-0.040857160614560524]",4.0,"[0.02,0.02]",195.8476,0.0,13.0,13.0,205.0,1.0,,,,,,,
,,,,,,,611ce3570a53282a7597ee62,6846a881d0cc0a480e53af7c,2025-06-09_11h27.52.327,shape_ratio,2024.1.5,Linux x86_64,59.88023952,684250e4f00cb30b92d1fa88,,,,,,,,,,,195.848,196.3482,,,196.5991,197.3148,right,0.6968,,,,,,,,,0.1,,,,,,196.3482,196.5991,197.3149,"[-0.15034421462594807,-0.1311565184816911]",4.0,"[-0.12177117250407421,0.014737395235777221]",4.0,"[-0.0071660391599592055,-0.17575108987657817]",4.0,"[-0.03081966097472795,0.005704816536785588]",4.0,"[0.14438312181413457,0.087134246197846]",4.0,"[0.0470206219902033,0.017011286516498022]",4.0,"[-0.15791993216849165,-0.048235983448880214]",4.0,"[0.019652413113477905,-0.03489503310511864]",4.0,"[-0.053448633426035695,-0.12092863478259717]",4.0,"[0.04051118118666217,0.17747419848020887]",100.0,"[-0.1390172392976278,0.08626368234163763]",4.0,"[0.12139263410772991,0.15522443382820927]",4.0,"[0.1478583971585847,0.03656613264372077]",100.0,"[-0.03035857364881034,0.18213577336928333]",4.0,"[0.012890220144604086,-0.13942123726567865]",4.0,"[0.15117956554316633,-0.04876917753124511]",4.0,"[0.06934691768582021,-0.135274242738453]",4.0,"[0.0014469077058087746,-0.07909241004854702]",4.0,"[-0.05057270029077854,-0.040385244105803575]",4.0,"[0.12539039386112785,-0.016794044685678487]",4.0,"[0.19550036816606198,0.023799587596998857]",4.0,"[0.09961038596838845,0.0601391826323558]",4.0,"[-0.10220480922761266,0.10273543318675142]",4.0,"[0.03986099507422538,0.09845896103906666]",4.0,"[0.11111567712040876,-0.1306229967785055]",100.0,"[0.058593066486240124,-0.19103284161955375]",4.0,"[-0.08214865459850285,0.007318596219612558]",4.0,"[0.19133578760693107,-0.01618259143908884]",4.0,"[-0.027322467963626782,0.060309793599045834]",4.0,"[0.07918219033148317,-0.09104191468822766]",4.0,"[-0.1021195950012829,-0.09357307632424652]",4.0,"[-0.022609518077617102,0.12401719126647515]",4.0,"[0.02,0.02]",198.415,0.0,14.0,14.0,199.0,1.0,,,,,,,
,,,,,,,611ce3570a53282a7597ee62,6846a881d0cc0a480e53af7c,2025-06-09_11h27.52.327,shape_ratio,2024.1.5,Linux x86_64,59.88023952,684250e4f00cb30b92d1fa88,,,,,,,,,,,198.4156,198.9156,,,199.1663,200.1832,left,1.0056,,,,,,,,,0.55,,,,,,198.9156,199.1663,200.1832,"[-0.05359488295914876,0.06394066333706909]",4.0,"[0.07766013795421002,-0.05400511836329397]",100.0,"[0.12759707244966795,-0.015040781231770666]",4.0,"[0.07515017695696558,0.06811129430425332]",100.0,"[0.13511304307542338,-0.1454440642318304]",100.0,"[0.11850374160107628,0.14655010765479232]",100.0,"[0.16432073752802895,0.09887554593068253]",100.0,"[-0.03405686184587296,-0.03849159174085283]",4.0,"[-0.05579776994915185,0.12331021346726964]",4.0,"[0.030647774588409598,0.13765533122399023]",4.0,"[0.04071093142617891,-0.15849797937750024]",100.0,"[-0.06618206938339469,-0.08408227723054079]",100.0,"[-0.06372537188129411,0.16541426382517724]",100.0,"[0.07733562178187443,-0.17814365933108842]",100.0,"[-0.11962461587989406,-0.06372418645043133]",100.0,"[-0.016699669307348074,0.08523412983067014]",100.0,"[0.026182910356122496,0.037113394384690426]",4.0,"[0.16153774172284183,-0.06053785053509769]",4.0,"[0.09180012800835485,-0.1325046052843178]",4.0,"[-0.15296739536987156,0.09195396296103932]",100.0,"[-0.1486078142108146,0.03583217777585234]",100.0,"[0.12064338252144359,0.10502220417143317]",4.0,"[0.15124350421836738,0.03659057329612688]",100.0,"[-0.19621331571673398,-0.02860198099455471]",100.0,"[-0.00206437952349478,0.16618893285364147]",4.0,"[-0.16596709161133819,-0.11073151769178133]",4.0,"[0.0732587912023498,0.022464586505655488]",100.0,"[0.02247547569936046,-0.10436490099258079]",4.0,"[-0.11481977955192439,-0.16155209996623396]",4.0,"[-0.06703624479540946,0.025834992406060672]",100.0,"[0.10998916927562429,-0.09599266654741839]",100.0,"[-0.05807064857388963,-0.14243324500790447]",4.0,"[0.02,0.02]",201.2829,0.0,15.0,15.0,65.0,1.0,,,,,,,
,,,,,,,611ce3570a53282a7597ee62,6846a881d0cc0a480e53af7c,2025-06-09_11h27.52.327,shape_ratio,2024.1.5,Linux x86_64,59.88023952,684250e4f00cb30b92d1fa88,,,,,,,,,,,201.2833,201.785,,,202.0335,202.884,left,0.8326,,,,,,,,,0.9,,,,,,201.7851,202.0334,202.884,"[-0.08597908191732924,-0.13327403520842596]",100.0,"[-0.11943927198296862,0.021073608419635348]",100.0,"[-0.1733018323872503,0.03640955875179761]",100.0,"[-0.09134500654222101,0.09620704509721895]",100.0,"[0.13277119008695157,-0.02927841050578027]",100.0,"[-0.11601368400455461,-0.08273497357022891]",100.0,"[-0.012859122988632133,-0.05863000475099605]",100.0,"[-0.06058309774122987,-0.0046656099712579615]",100.0,"[0.1436548033200653,0.044876304891838255]",100.0,"[-0.0008019310341879668,0.12989403604711067]",100.0,"[-0.04127943401591934,0.17948452950218102]",100.0,"[0.010783295946522505,-0.12118302991939252]",100.0,"[0.0044247761731115555,-0.008686659132344328]",100.0,"[0.12781660140795892,-0.15050992774159955]",100.0,"[-0.062172250403381715,-0.18754680433805157]",100.0,"[0.10152974412307066,0.09549012039208275]",100.0,"[0.17797933014443115,-0.06396647534977343]",100.0,"[0.0699069650958852,-0.17634315263842434]",100.0,"[0.06612463933396416,0.06796215785701755]",100.0,"[0.12101059115495243,0.1380431491849582]",100.0,"[-0.1278185865601338,0.11619253559331402]",100.0,"[0.11999050726293241,0.011424613025722194]",100.0,"[0.07466660939628388,-0.12673322549695268]",4.0,"[0.19282248370628413,-0.024976654325289057]",100.0,"[-0.04048068700960816,0.07876825200105461]",100.0,"[-0.15280363734512895,-0.0987697697205084]",4.0,"[0.05146086737596971,0.18358290730928717]",100.0,"[0.050577860573115294,-0.08858499550297595]",100.0,"[-0.04607284842159093,0.13954011184136775]",100.0,"[-0.054709557515213475,-0.10536494921431662]",4.0,"[0.10981632613834641,-0.09589276199125318]",100.0,"[-0.1974578647832852,-0.029249754467955066]",100.0,"[0.02,0.02]",203.984,0.0,16.0,16.0,17.0,1.0,,,,,,,
,,,,,,,611ce3570a53282a7597ee62,6846a881d0cc0a480e53af7c,2025-06-09_11h27.52.327,shape_ratio,2024.1.5,Linux x86_64,59.88023952,684250e4f00cb30b92d1fa88,,,,,,,,,,,203.9844,204.4842,,,204.7348,205.3527,right,0.6016,,,,,,,,,0.1,,,,,,204.4842,204.7348,205.3528,"[-0.19057249713170843,0.03717362697343941]",4.0,"[0.05334139773464133,0.1224915932175815]",4.0,"[-0.07110419397127317,0.003934855022576602]",4.0,"[0.025454088353525167,0.014072777656383723]",4.0,"[-0.1476239754459022,0.07211196094269094]",4.0,"[0.02087727095023806,0.16709219661957786]",4.0,"[0.029216490624270845,0.0595812371969021]",4.0,"[-0.049189980531068114,-0.16424804790673983]",4.0,"[0.054677162148555704,-0.036550921048718335]",4.0,"[-0.002367096029049123,-0.14992955385820766]",100.0,"[-0.05911190280784433,0.12460818599402003]",4.0,"[-0.07481840889189165,0.17047618607571613]",4.0,"[0.10862150287906432,-0.06788044148786813]",4.0,"[-0.1124578944390994,-0.022166788931290884]",4.0,"[0.01594782004238583,-0.19052790688425408]",4.0,"[0.1597140134000033,-0.028235907494983132]",4.0,"[-0.10500162033032075,-0.15959062064130028]",4.0,"[0.07987569482592013,-0.13437417203467983]",4.0,"[0.16620137096393722,0.014980749496530917]",4.0,"[-0.1438552755705914,0.12377322391853775]",4.0,"[-0.08708796170919085,-0.06663924879224083]",4.0,"[0.10422214468531392,0.011112639251676718]",4.0,"[-0.03133144732120935,-0.0485424456994023]",100.0,"[-0.10662980379362252,0.09880437784869184]",4.0,"[0.07344849546929545,0.08574209110677407]",100.0,"[-0.022295803810678673,-0.09441963806332512]",4.0,"[0.149927762213566,0.10207948608837007]",4.0,"[-0.08472447101165319,0.06008418861753412]",4.0,"[0.10067729428383702,0.051217796385772056]",4.0,"[0.1499012788417656,0.058854058517063934]",4.0,"[-0.02653367603686079,0.1910199302993605]",4.0,"[-0.010569661124818372,0.07834536956541543]",4.0,"[0.02,0.02]",206.4515,0.0,17.0,17.0,180.0,1.0,,,,,,,
,,,,,,,611ce3570a53282a7597ee62,6846a881d0cc0a480e53af7c,2025-06-09_11h27.52.327,shape_ratio,2024.1.5,Linux x86_64,59.88023952,684250e4f00cb30b92d1fa88,,,,,,,,,,,206.4521,206.9513,,,207.2025,208.7022,,,,,,,,,,,0.5,,,,,,206.9514,207.2025,208.7022,"[-0.12331007987423345,0.1158083103138605]",100.0,"[-0.09012247266109633,-0.043200086299458665]",4.0,"[0.09067144265513163,0.09787095737019708]",100.0,"[-0.11408367019945032,-0.003525856138296446]",100.0,"[-0.052992986229315524,0.048579536035325846]",4.0,"[0.04316735983650343,-0.0004345184018592428]",100.0,"[0.02534841130675625,0.08483641759597856]",100.0,"[0.018613947496618592,-0.06038489106603157]",4.0,"[0.13272664706602388,-0.1443411090086925]",100.0,"[0.1567842057193497,-0.003591542937818925]",4.0,"[-0.0945386100359831,-0.15301596743602056]",100.0,"[0.01577760583271459,0.18968034790311256]",4.0,"[-0.002375746568976103,-0.002929840586624056]",4.0,"[-0.02212066113718404,0.07417190538489941]",100.0,"[-0.13547122540318454,0.06848466537649606]",4.0,"[0.02144238464035991,-0.15293124056463453]",100.0,"[0.08312011875187256,-0.09825204276333141]",100.0,"[-0.04169784388285662,0.17210135432032603]",4.0,"[-0.05229908119305074,-0.07183444048644817]",100.0,"[0.030142474626992863,-0.10982595064443607]",4.0,"[0.14041940516369955,0.07556230339517754]",4.0,"[0.12861922455483266,0.14426521603423037]",4.0,"[0.06781792185616725,0.052587502825912506]",100.0,"[0.08668552208292643,0.16835231073763884]",4.0,"[-0.1784167037630864,0.05715285724827163]",4.0,"[0.11607841314703751,-0.03132722550743635]",100.0,"[-0.14920775641993947,-0.0892307372001044]",4.0,"[-0.07341059287228607,0.14331811565559474]",100.0,"[-0.09723403057943607,0.03551320905851176]",4.0,"[-0.1956241536431531,0.012684550295990665]",100.0,"[-0.1933450450837432,-0.027625554787193602]",4.0,"[-0.0008893337843985022,0.12996981024461846]",100.0,"[0.02,0.02]",209.8031,0.0,18.0,18.0,102.0,1.0,,,,,,,
,,,,,,,611ce3570a53282a7597ee62,6846a881d0cc0a480e53af7c,2025-06-09_11h27.52.327,shape_ratio,2024.1.5,Linux x86_64,59.88023952,684250e4f00cb30b92d1fa88,,,,,,,,,,,209.8037,210.303,,,210.5535,211.2695,right,0.7011,,,,,,,,,0.6,,,,,,210.303,210.5535,211.2696,"[-0.018588040903380735,0.02663962737103794]",100.0,"[0.0294459822207943,-0.10446800318259221]",100.0,"[-0.06645800527092886,0.05900125255578894]",4.0,"[-0.15777916180159507,0.040305151549925006]",100.0,"[0.09170875873128326,-0.06392650165309352]",100.0,"[0.06859287837342218,0.005649856967391586]",100.0,"[-0.09663080690560848,-0.16506946303917502]",4.0,"[-0.16339301129639722,-0.11326786634427537]",100.0,"[-0.11310619317934807,-0.06483099704737522]",100.0,"[0.14128403573524811,-0.0458348057459822]",100.0,"[0.18711522399860978,-0.014765416728718853]",100.0,"[-0.0035464760890711474,-0.08114624810153022]",100.0,"[0.06568181571864817,0.13082652653658947]",4.0,"[0.15811230552442956,0.0683895272273584]",4.0,"[0.01866782277496836,0.010951776852703253]",100.0,"[-0.1160848594075056,0.08495898967724626]",4.0,"[-0.06307162903896343,-0.04037092829209291]",100.0,"[0.09080072097557028,-0.138745601714774]",100.0,"[-0.061645259091986336,0.1035002680041983]",100.0,"[-0.16950504309999212,-0.0033098475077172358]",100.0,"[0.034325278697827366,0.17261381431508652]",4.0,"[-0.009728608338358534,-0.12942549965952105]",4.0,"[0.00007647733852618788,0.11839084557620112]",100.0,"[0.14193229261015153,0.11523523501177764]",4.0,"[0.10233786900577428,-0.01941358415630884]",100.0,"[-0.07416225400463747,-0.07880357151141258]",4.0,"[-0.10944763545771267,0.035137985815276974]",4.0,"[0.04782808155959974,-0.18397677048942754]",100.0,"[0.1283081051506008,0.02966165315942654]",100.0,"[-0.10767222134353589,-0.011507857097508616]",4.0,"[0.018744252673248755,0.053216899748596225]",4.0,"[-0.0838352691142308,0.13883654155063427]",4.0,"[0.02,0.02]",212.3704,0.0,19.0,19.0,46.0,1.0,,,,,,,
,,,,,,,611ce3570a53282a7597ee62,6846a881d0cc0a480e53af7c,2025-06-09_11h27.52.327,shape_ratio,2024.1.5,Linux x86_64,59.88023952,684250e4f00cb30b92d1fa88,,,,,,,,,,,212.3707,212.8703,,,213.1208,214.1037,left,0.9663,,,,,,,,,0.45,,,,,,212.8704,213.1208,214.1038,"[-0.05818257371124389,-0.09032097309769506]",100.0,"[0.10580194347491005,0.16801422806572006]",100.0,"[0.17138228263519742,0.09569801845849858]",4.0,"[-0.08508422471820544,0.10892772321916654]",4.0,"[0.17507379446878424,-0.0154590514108659]",100.0,"[-0.007926415361174763,-0.11943251105448556]",100.0,"[0.02106145071292167,0.07720405512142053]",4.0,"[0.18473793711311076,0.05625455624210017]",4.0,"[0.11885502405230669,-0.1539867973385725]",100.0,"[0.1629231154910264,-0.09387975771007312]",4.0,"[-0.1528660583738692,0.05435068942040866]",100.0,"[0.08793455195868645,-0.12482854517727575]",100.0,"[0.004231804237461683,-0.023921665126471845]",4.0,"[0.02866779482008009,0.011575439183601918]",100.0,"[-0.0349155326974079,0.08442812361164816]",100.0,"[0.0482973828195817,0.1291906843988418]",4.0,"[-0.11471240932035259,0.15622994744583774]",4.0,"[0.003030968971637514,-0.18429488707642483]",4.0,"[-0.11653293105225267,-0.0506277651360426]",100.0,"[-0.05152013667879429,0.15994384246766477]",4.0,"[0.1320057654700986,0.019891176188072977]",4.0,"[0.13735958126002054,0.1375108721268622]",4.0,"[-0.19069569938978037,-0.010414818109675296]",4.0,"[-0.15160624211097992,-0.0005895323867969916]",4.0,"[-0.05951357189456845,-0.1631901618034645]",4.0,"[-0.13211738677788484,0.11058132682776041]",100.0,"[0.058186049838585586,-0.189159329863777]",100.0,"[0.045427193263645284,-0.07152644659777015]",100.0,"[0.06149336084271648,0.08514728095371192]",4.0,"[0.007276316484066565,0.17918209952928027]",4.0,"[-0.0107705636342187,-0.07479113485883436]",100.0,"[0.05554758642287965,0.1789291270337642]",4.0,"[0.02,0.02]",215.2047,0.0,20.0,20.0,139.0,1.0,,,,,,,
,,,,,,,611ce3570a53282a7597ee62,6846a881d0cc0a480e53af7c,2025-06-09_11h27.52.327,shape_ratio,2024.1.5,Linux x86_64,59.88023952,684250e4f00cb30b92d1fa88,,,,,,,,,,,215.2051,215.705,,,215.9557,216.8886,right,0.9161,,,,,,,,,0.45,,,,,,215.705,215.9556,216.8886,"[-0.008883082773193534,0.157907167756523]",4.0,"[-0.0070008411773716545,-0.061561963424490856]",100.0,"[-0.1570475472009871,-0.11836877928987434]",4.0,"[0.043806759175356744,-0.12307701671959828]",100.0,"[-0.13511583922616943,0.05259696290171368]",100.0,"[0.1370468578125409,-0.10523024632455114]",4.0,"[0.15584603437301742,-0.007696534470431951]",100.0,"[0.14395987216728257,0.0911994038661941]",100.0,"[-0.1579840215047632,0.011451935972917727]",4.0,"[-0.10103998998720305,0.07931290908648542]",4.0,"[0.0709578463847599,0.08584168986570813]",4.0,"[0.13245189485659223,0.03624829893854599]",4.0,"[-0.0781978797493524,-0.008596680992532952]",100.0,"[-0.1230821960982947,0.12120459373779459]",100.0,"[-0.16334837413542036,-0.03055037149531624]",100.0,"[0.03659096108550551,0.009777797557032763]",4.0,"[-0.03282945922684818,0.01339924663016366]",4.0,"[0.06233563843706303,0.1561989860081117]",100.0,"[0.06092010206265936,-0.1836238130786164]",4.0,"[0.08790690340693183,-0.08464234667550818]",100.0,"[0.026423731666978537,-0.03021573601866812]",100.0,"[-0.02402422089636637,-0.1170091957012947]",4.0,"[0.18547964397683944,-0.07241414435298828]",4.0,"[-0.009161613296026322,-0.1976896502316043]",4.0,"[-0.06190136661627463,-0.13114202543744516]",4.0,"[-0.08593769597325461,-0.04790036582733853]",100.0,"[-0.006515865970627907,0.04998818715020135]",4.0,"[-0.12291472683587223,-0.014762160023862169]",4.0,"[0.0342494853821058,0.058478252826639814]",100.0,"[0.12625269991471338,-0.06535769366314814]",4.0,"[-0.10150278446133351,-0.1472225827596013]",4.0,"[0.1133381825912518,0.11987332337180676]",100.0,"[0.02,0.02]",217.9889,0.0,21.0,21.0,131.0,1.0,,,,,,,
,,,,,,,611ce3570a53282a7597ee62,6846a881d0cc0a480e53af7c,2025-06-09_11h27.52.327,shape_ratio,2024.1.5,Linux x86_64,59.88023952,684250e4f00cb30b92d1fa88,,,,,,,,,,,217.9891,218.4889,,,218.7397,219.6224,right,0.8696,,,,,,,,,0.4,,,,,,218.489,218.7396,219.6225,"[-0.12016945584005799,-0.017532187903767704]",4.0,"[-0.025938890139073908,0.05070814138976722]",100.0,"[-0.033689614006771264,-0.11341367031751382]",4.0,"[-0.17577190911443633,-0.000506604872833905]",100.0,"[-0.15173482889488046,-0.06827264284545541]",100.0,"[-0.08156099802077325,-0.034503445218393165]",100.0,"[0.011713407989590858,-0.051375817708895585]",4.0,"[-0.14620610559924244,0.11930854073078559]",4.0,"[0.18310138425502892,0.02474789310225894]",4.0,"[0.1713053860603259,-0.04927391530930128]",100.0,"[0.03672909146927034,-0.011741092207027926]",100.0,"[0.1184141196145669,0.02934333093292469]",4.0,"[0.056808177573994346,-0.1859135236099931]",4.0,"[0.13986595615043038,0.07440557207103879]",4.0,"[-0.11555269120563753,-0.10095411744720312]",4.0,"[0.031344919372046386,-0.12094804518160909]",4.0,"[-0.003215225555095574,-0.16749447791276956]",4.0,"[0.04311678582811514,0.14785960974013174]",100.0,"[0.09608038653134703,-0.04949183345756123]",4.0,"[0.15181218967578164,-0.12179759578109407]",100.0,"[-0.11393268240276785,-0.15183453944228978]",100.0,"[-0.13445031909040026,0.07320509045636357]",4.0,"[-0.007484521112693261,0.0898433506835634]",100.0,"[-0.10173768447174247,0.018678045512796972]",4.0,"[0.18377872809392237,0.07318346051724348]",4.0,"[0.04646514344200633,-0.08105928939626593]",100.0,"[-0.09797424230984673,0.10359572680310018]",4.0,"[0.08351620249722765,-0.1312329027062207]",4.0,"[-0.1697453526117576,0.044752826780651796]",4.0,"[-0.11339498162466974,0.15437192041738265]",4.0,"[0.10386320069380527,0.13417554391295256]",100.0,"[0.06755125648233427,0.0602179481912672]",100.0,"[0.02,0.02]",220.7235,0.0,22.0,22.0,170.0,1.0,,,,,,,
,,,,,,,611ce3570a53282a7597ee62,6846a881d0cc0a480e53af7c,2025-06-09_11h27.52.327,shape_ratio,2024.1.5,Linux x86_64,59.88023952,684250e4f00cb30b92d1fa88,,,,,,,,,,,220.7239,221.2234,,,221.4688,222.9645,,,,,,,,,,,0.55,,,,,,221.2234,221.4687,222.9647,"[-0.015600203416441763,-0.11554760602916732]",100.0,"[-0.0482849461003275,0.05009515194992693]",100.0,"[0.01293162048023619,0.19735259881859693]",4.0,"[0.021674936515546517,0.0627476194031791]",100.0,"[0.09434907354293308,0.14248078310181447]",4.0,"[-0.09298983676424141,-0.1028268507111889]",4.0,"[-0.15602559477674768,0.042583139308603725]",4.0,"[0.04217548026283182,-0.13943188912581697]",100.0,"[0.0645204321768804,-0.061147470059594554]",100.0,"[-0.018323724253004253,0.13984677295707748]",4.0,"[-0.06340031365287403,-0.15650108577210267]",100.0,"[-0.06577027791347609,0.1180883391099516]",100.0,"[-0.18149787004595133,-0.0656303665528787]",4.0,"[0.14366686610248747,-0.08276607044060705]",100.0,"[-0.015172843274796894,-0.003394624255288421]",4.0,"[-0.11373145214423715,0.1380355568159094]",4.0,"[0.10114815680336695,0.04770459012356966]",100.0,"[0.02191600785025252,0.13473936205353196]",100.0,"[0.06692952856056492,0.07903828883763253]",4.0,"[0.1704499836500744,0.007547969646915442]",100.0,"[0.01384288644378907,-0.19187543136615645]",4.0,"[0.09902816528838525,-0.11480357606300033]",100.0,"[0.03370681995469035,0.02060783017588356]",100.0,"[-0.12468676187409004,-0.052286215132271316]",100.0,"[-0.15422641035965837,-0.009622904646084098]",100.0,"[-0.005479304599751175,-0.06822133678412903]",100.0,"[-0.05332866050587794,-0.07608449006617779]",100.0,"[0.07183314666739744,-0.17659798312514444]",4.0,"[-0.19233285110733642,-0.023381327536830226]",100.0,"[-0.1920740939412214,0.017802693663299684]",4.0,"[-0.10339386397591138,0.07264048947343693]",4.0,"[-0.013192598000619272,-0.16161108802247914]",4.0,"[0.02,0.02]",224.0597,0.0,23.0,23.0,60.0,1.0,,,,,,,
,,,,,,,611ce3570a53282a7597ee62,6846a881d0cc0a480e53af7c,2025-06-09_11h27.52.327,shape_ratio,2024.1.5,Linux x86_64,59.88023952,684250e4f00cb30b92d1fa88,,,,,,,,,,,224.0607,224.5588,,,224.8081,225.6419,left,0.8192,,,,,,,,,0.55,,,,,,224.5589,224.808,225.642,"[0.0788256203947809,-0.12492164424378056]",4.0,"[0.043744207230307766,0.11296133802135681]",4.0,"[0.12329674558425827,-0.06304840871647387]",4.0,"[-0.01528835522304351,-0.021192198276436744]",100.0,"[0.02241023992159746,0.028198443596515136]",100.0,"[0.17899577839167877,-0.00299177835521779]",100.0,"[-0.07199982126724215,0.12166160297848358]",100.0,"[0.17276207296611276,0.09305967102780122]",4.0,"[0.07547493151022096,0.07990842145348409]",4.0,"[-0.09256128662115005,0.04397860939693782]",100.0,"[0.012515432477144003,-0.0819516444727146]",100.0,"[-0.007927517235473915,0.05618457426718114]",100.0,"[-0.16680331728063455,-0.06900893944616078]",4.0,"[0.11747357947689172,0.08470361572223388]",4.0,"[0.1679838509483826,-0.10137766484060994]",4.0,"[-0.09204495517315896,-0.06916461096100464]",4.0,"[-0.019597221988312926,0.17146944576498252]",100.0,"[0.05244021286937051,-0.008111395107209178]",100.0,"[-0.12132835974150032,0.07205651721980838]",100.0,"[-0.008961532846104283,-0.17965687127365876]",100.0,"[-0.03175315610512204,-0.13832584476538504]",100.0,"[0.18074456309655787,-0.05692441477844385]",100.0,"[0.09740068923410725,-0.02921064618121954]",4.0,"[-0.10773359509385738,-0.1301330040816731]",4.0,"[-0.11042092031557793,-0.00711404299471707]",100.0,"[-0.0805727310732282,-0.17232520740720453]",4.0,"[0.162276103115389,0.03499078974078992]",100.0,"[0.0712541980707328,0.1740172260580327]",4.0,"[0.06885524666423883,0.03678062644805681]",100.0,"[0.06410247623435335,-0.1701818257588712]",100.0,"[-0.15428027040838677,0.03363094257370276]",100.0,"[-0.06000665702941248,0.07910883820204248]",4.0,"[0.02,0.02]",226.7416,0.0,24.0,24.0,62.0,1.0,,,,,,,
,,,,,,,611ce3570a53282a7597ee62,6846a881d0cc0a480e53af7c,2025-06-09_11h27.52.327,shape_ratio,2024.1.5,Linux x86_64,59.88023952,684250e4f00cb30b92d1fa88,,,,,,,,,,,226.7422,227.2419,,,227.4929,228.0591,left,0.5495,,,,,,,,,0.9,,,,,,227.2419,227.4928,228.0591,"[0.08238573477979075,0.10137915412778628]",100.0,"[-0.06661221748987861,-0.0042154630601770665]",100.0,"[0.12970822883736144,-0.008336410439427832]",100.0,"[-0.1538335667564574,-0.12480942935552097]",100.0,"[0.043875639848703143,-0.08170602999794857]",4.0,"[-0.011200330631866042,-0.069047154733132]",100.0,"[0.14104182784075403,-0.04712758013982482]",100.0,"[0.08942329231456048,0.16448014262183444]",4.0,"[0.06445218316499762,-0.13510069537732852]",100.0,"[-0.0616103898137878,0.12965566235852158]",100.0,"[-0.17900544309631042,0.07091541267940615]",100.0,"[0.01896070812651288,0.014189628735368658]",100.0,"[-0.06402527883656776,-0.10711896456924641]",100.0,"[-0.16346253659415075,-0.01192927307140617]",100.0,"[-0.12243156562359475,0.038518039289906825]",100.0,"[-0.0630342518695352,-0.06674748607295895]",100.0,"[-0.14801534061550628,0.11007993463353846]",100.0,"[-0.07995610214965441,-0.16958611152970995]",100.0,"[0.04339603003960532,-0.17317160505331536]",100.0,"[0.17971412570002268,-0.07305132608594112]",100.0,"[-0.012907301845289773,-0.1637067826388649]",100.0,"[-0.002979346544943206,0.05167775849250085]",100.0,"[-0.16045911779444422,-0.0849167086632686]",100.0,"[-0.11687433273587863,-0.0695728116434251]",100.0,"[-0.022884804000873993,0.15440715055198198]",100.0,"[-0.09775644028649909,0.07583140966560305]",4.0,"[0.1638379787736379,0.05456617089997866]",100.0,"[0.17301913357505047,-0.012611758064466053]",100.0,"[0.09521710048872303,-0.08918909233509208]",100.0,"[0.08476386136501883,0.014088880256982265]",100.0,"[0.16396001102711216,0.11232562184426358]",100.0,"[-0.09257179999083966,0.1684366077936305]",100.0,"[0.02,0.02]",229.1595,0.0,25.0,25.0,26.0,1.0,,,,,,,
,,,,,,,611ce3570a53282a7597ee62,6846a881d0cc0a480e53af7c,2025-06-09_11h27.52.327,shape_ratio,2024.1.5,Linux x86_64,59.88023952,684250e4f00cb30b92d1fa88,,,,,,,,,,,229.1599,229.6598,,,229.9101,230.5445,right,0.6196,,,,,,,,,0.4,,,,,,229.6598,229.91,230.5445,"[-0.12794376796611873,-0.022670718112359017]",100.0,"[-0.11338796556450155,-0.13130788600464002]",100.0,"[-0.004970675842996028,-0.0957160980236366]",4.0,"[0.1704397565578392,0.027851243545638792]",4.0,"[0.005134269925809645,0.17339821072369324]",4.0,"[0.09826985150527578,0.034612079374529495]",4.0,"[-0.1847105643261613,0.062289842006102394]",4.0,"[-0.06470439229425408,-0.04630075540671844]",100.0,"[0.11636458107604274,-0.012619132500408511]",100.0,"[0.10971512549605025,-0.09329872886307478]",100.0,"[-0.03459883033339734,0.15186049769029797]",4.0,"[-0.03397706937909146,0.02327926903518716]",4.0,"[-0.13798777733071146,-0.09477034749319052]",4.0,"[-0.1915420996823438,-0.030494777075035694]",4.0,"[-0.09196651764475566,0.037867378335957276]",4.0,"[0.07293715269123825,-0.12899457129481032]",4.0,"[-0.11369483910673481,0.09523090493590362]",100.0,"[0.02341843438146632,-0.12753994686517617]",100.0,"[0.027189565878718652,0.12783675129890867]",100.0,"[-0.046275898065206655,0.09284273918103915]",100.0,"[0.028894045374334192,0.030578342181854887]",4.0,"[0.09698434966976006,0.10253833066263555]",100.0,"[0.025721757853632503,-0.17485905644956057]",4.0,"[-0.0034717391711479454,0.05989319954700338]",100.0,"[0.10876329575798425,-0.16239621020456954]",100.0,"[0.05241047506543939,0.07434998856671807]",4.0,"[0.035906090252002365,-0.076670622709615]",4.0,"[0.15121238275335563,0.08334004455805472]",4.0,"[0.06279645288804521,-0.016690354133179056]",4.0,"[0.1952795510401195,-0.018997939492707373]",4.0,"[0.149217074600035,-0.08661189455497445]",4.0,"[0.07048155191983982,-0.17818936165890853]",100.0,"[0.02,0.02]",231.6437,0.0,26.0,26.0,171.0,1.0,,,,,,,
,,,,,,,611ce3570a53282a7597ee62,6846a881d0cc0a480e53af7c,2025-06-09_11h27.52.327,shape_ratio,2024.1.5,Linux x86_64,59.88023952,684250e4f00cb30b92d1fa88,,,,,,,,,,,231.6444,232.1439,,,232.3946,233.2277,right,0.8179,,,,,,,,,0.5,,,,,,232.1439,232.3945,233.2277,"[-0.021937802231569305,-0.13017672843418027]",4.0,"[-0.11646288997376572,-0.07834431429622905]",100.0,"[0.12358449044386252,0.04043138624959412]",100.0,"[-0.15748864911162813,0.058276835238528876]",100.0,"[-0.020673136786115615,0.01114950217128652]",100.0,"[0.17811324894453864,-0.029972962727366152]",4.0,"[-0.058301854188612875,0.13307758018183322]",4.0,"[-0.13912494045049134,0.11134203005941631]",4.0,"[-0.1616313116443954,-0.06998604261976316]",4.0,"[0.1359536924717295,-0.00029923717793314537]",4.0,"[0.0657104014845302,0.056107464844495025]",4.0,"[-0.1652609434245531,-0.02187502001603245]",4.0,"[0.1081128283073415,0.09876743373833982]",100.0,"[-0.060243196277451005,0.08352377193984586]",4.0,"[0.05301769827148119,-0.15363428329078005]",100.0,"[0.12577798117963415,-0.15281880289158375]",100.0,"[-0.02381791550487399,0.06626543410110507]",100.0,"[0.04473940142257377,0.1586048999842562]",4.0,"[-0.0018133440181244127,-0.053602385218747176]",4.0,"[0.03236570280103866,0.08734360304379045]",100.0,"[-0.05977663144087885,0.02502022720539922]",4.0,"[-0.1229380906386832,-0.14798395502615289]",100.0,"[0.0163694576610123,-0.17781900023640052]",4.0,"[0.08311948840476827,-0.03959617329233729]",4.0,"[-0.07612320012380333,-0.11834026264374917]",100.0,"[0.015655888950584507,0.04704894617105902]",100.0,"[-0.043674709182291084,-0.07137501517349397]",4.0,"[0.16914248414991198,-0.08973712560391481]",100.0,"[0.004199494906920915,0.14855059778037163]",4.0,"[0.05127018208218039,-0.0019930568492375145]",100.0,"[0.07128429420095313,-0.09806569126869216]",100.0,"[-0.10703944540045213,-0.026791288215902532]",100.0,"[0.02,0.02]",234.3279,0.0,27.0,27.0,113.0,1.0,,,,,,,
,,,,,,,611ce3570a53282a7597ee62,6846a881d0cc0a480e53af7c,2025-06-09_11h27.52.327,shape_ratio,2024.1.5,Linux x86_64,59.88023952,684250e4f00cb30b92d1fa88,,,,,,,,,,,234.3283,234.828,,,235.0797,235.9624,left,0.8675,,,,,,,,,0.6,,,,,,234.8281,235.0796,235.9625,"[-0.11539116099277551,0.11417028143806385]",4.0,"[-0.11291962316588558,-0.02845229433251841]",100.0,"[0.055934617991710185,-0.0655730227312337]",100.0,"[0.04637160989574979,0.03994169297204043]",100.0,"[0.05741640732144156,0.08895423714062886]",100.0,"[-0.17178871406539867,-0.0313206012440345]",100.0,"[0.05745316527814948,-0.14460726091099904]",100.0,"[0.06478518036313057,0.12910584758788696]",4.0,"[-0.08727784655822532,0.038989329122515945]",4.0,"[-0.1732222693806836,0.06666783720171435]",100.0,"[-0.10886173754463044,0.16295036288671155]",4.0,"[-0.0136373365075163,0.0895093554685313]",100.0,"[-0.0002499399304662522,-0.10701028949796797]",4.0,"[-0.007227658626111526,-0.19445108637844608]",100.0,"[-0.021594427534749255,0.009811916624267948]",100.0,"[0.114294390061853,-0.1630730547650122]",100.0,"[-0.03817740392492261,0.17872732205527672]",4.0,"[-0.04649463153829326,-0.03274101177202567]",4.0,"[0.11106614697698365,-0.00874346923907894]",100.0,"[-0.10748031283795369,-0.11916382410741877]",100.0,"[0.010718463377868307,-0.03559518927508467]",100.0,"[-0.07674962455247142,-0.15136997247175285]",4.0,"[0.0007971147969216407,0.14412531266881734]",4.0,"[0.17614322365579466,-0.04297058551486144]",100.0,"[-0.19412279695349013,0.02385493145499134]",4.0,"[-0.005626798091790513,-0.15026085318378363]",100.0,"[0.11125180141442652,-0.051925243403126445]",4.0,"[-0.08613017840290463,-0.058525361610341727]",4.0,"[-0.15127271440882897,0.018086395144895493]",100.0,"[0.10503229023289586,0.11228648592362724]",100.0,"[0.1675827267243678,0.10464426643549841]",4.0,"[-0.045972897450382265,0.11371914862598093]",100.0,"[0.02,0.02]",237.0619,0.0,28.0,28.0,39.0,1.0,,,,,,,
,,,,,,,611ce3570a53282a7597ee62,6846a881d0cc0a480e53af7c,2025-06-09_11h27.52.327,shape_ratio,2024.1.5,Linux x86_64,59.88023952,684250e4f00cb30b92d1fa88,,,,,,,,,,,237.0624,237.5658,,,237.8139,238.5128,left,0.6887,,,,,,,,,0.9,,,,,,237.5658,237.8139,238.5128,"[0.034650860916794306,0.007560487353804224]",4.0,"[0.07967474526056184,-0.03210637355449839]",100.0,"[-0.04338223768209885,-0.10801396314354421]",100.0,"[-0.11556456372289967,0.13307494652980476]",100.0,"[0.18287629408676231,0.02667114080260163]",100.0,"[0.08867426923100928,-0.17692671624529693]",100.0,"[0.1481383950930402,-0.13175534822718188]",100.0,"[0.01681301529532584,-0.03045735099984635]",100.0,"[0.0231005713458975,-0.12263774418694168]",4.0,"[0.049637547644967896,0.14255743570437124]",100.0,"[-0.046830386002074655,0.035177839118458676]",100.0,"[0.03474845620687844,-0.16558771349671866]",100.0,"[-0.16505583158443116,0.07793862754219585]",100.0,"[0.07141997552866887,-0.09616058953242228]",100.0,"[-0.07166082816221207,0.10116791148894491]",100.0,"[-0.11117289992144831,-0.04420865470978181]",100.0,"[0.05384790056894199,0.1850593897599691]",100.0,"[-0.10620000195889166,0.06467414990213652]",100.0,"[-0.1792824527708598,-0.07740610224706644]",100.0,"[-0.10797968042633047,-0.15144787405056823]",100.0,"[-0.09846974347407655,0.00257943099672278]",100.0,"[0.12393584616075241,0.02175065317897568]",100.0,"[-0.01581749657741792,0.0807547800450197]",100.0,"[0.10363217042620611,0.09731823724870615]",100.0,"[-0.07360142677903737,0.1573202857162505]",100.0,"[-0.13675253906982882,-0.10031146942317375]",100.0,"[-0.009150316218340726,0.0032022254142114208]",100.0,"[0.024685968489632035,0.08570223741860228]",100.0,"[0.10345651297943466,0.170559509637852]",4.0,"[-0.15221565624261,-0.01564338701278373]",100.0,"[-0.006753814243945207,0.15827818409026234]",100.0,"[0.019418231089307878,-0.08194158310638494]",100.0,"[0.02,0.02]",239.6133,0.0,29.0,29.0,11.0,1.0,,,,,,,
,,,,,,,611ce3570a53282a7597ee62,6846a881d0cc0a480e53af7c,2025-06-09_11h27.52.327,shape_ratio,2024.1.5,Linux x86_64,59.88023952,684250e4f00cb30b92d1fa88,,,,,,,,,,,239.6139,240.1132,,,240.3644,241.4154,left,1.0353,,,,,,,,,0.6,,,,,,240.1133,240.3644,241.4155,"[-0.02386212984164109,0.05858600453095156]",100.0,"[-0.0027199222212193857,0.13501842140186632]",100.0,"[-0.15927943507170123,-0.11144569029827255]",100.0,"[-0.02948155052614465,-0.18783426512005652]",100.0,"[-0.0006839986433796657,-0.10346842109804422]",4.0,"[0.12779687319450567,0.10993836639182393]",100.0,"[0.07264288082817667,0.043302751111706776]",100.0,"[0.1722118646425675,-0.0894850108656925]",100.0,"[-0.166929523966653,0.07151345373456652]",4.0,"[-0.19801604580615167,-0.017835006060728673]",4.0,"[0.03467971189858485,0.02500425997383365]",4.0,"[0.12666118044971506,-0.10032091777523465]",4.0,"[0.161826077450768,-0.02221250394907389]",100.0,"[-0.09027083524655172,0.027645794613085892]",4.0,"[-0.13608708934806477,-0.03261642724696216]",4.0,"[-0.08425268304272178,-0.08061864489702959]",100.0,"[-0.021343366372033327,0.19421330557766223]",100.0,"[0.0890228010017484,-0.11790729218210896]",4.0,"[0.08070428721545637,0.10917177951572696]",100.0,"[0.010279914395670237,-0.023173305646382026]",4.0,"[-0.1293488123227643,0.10094681483016603]",4.0,"[-0.11228492302165036,0.14345439957979086]",100.0,"[-0.15238526242267125,0.030802173135088814]",100.0,"[0.09357565545915009,-0.04995780824409725]",100.0,"[0.12190609821347319,0.06358314292316018]",100.0,"[-0.07874384576289853,0.17366374399920115]",4.0,"[0.046391477895104456,-0.06846055198465499]",100.0,"[-0.08171626816616581,-0.13213430582466745]",100.0,"[0.027768387255071265,-0.1851584819586241]",100.0,"[0.062122445224752035,-0.1520733957705139]",4.0,"[0.0772143925330788,0.17196048883168852]",100.0,"[0.018987308978309508,0.07401826444088248]",4.0,"[0.02,0.02]",242.5137,0.0,30.0,30.0,55.0,1.0,,,,,,,
,,,,,,,611ce3570a53282a7597ee62,6846a881d0cc0a480e53af7c,2025-06-09_11h27.52.327,shape_ratio,2024.1.5,Linux x86_64,59.88023952,684250e4f00cb30b92d1fa88,,,,,,,,,,,242.5142,243.0142,,,243.2647,243.9147,right,0.6293,,,,,,,,,0.45,,,,,,243.0142,243.2646,243.9148,"[-0.02706202950156247,-0.17876389999683256]",100.0,"[0.05155514567064679,-0.052628534670469615]",4.0,"[-0.11001441151684069,-0.006330286203510847]",100.0,"[0.016919047347004352,0.04400922588455936]",4.0,"[0.005034559600432643,-0.09539284913377083]",4.0,"[-0.048590896040369556,-0.1179379699331804]",100.0,"[0.18161715675355417,0.06894773276396592]",4.0,"[-0.1128667130272086,-0.04746750443506735]",100.0,"[0.11368025111793095,-0.058419340381061724]",4.0,"[-0.06380574441150078,0.03719875830018843]",4.0,"[-0.12354182458183025,0.05793410112704032]",4.0,"[-0.026535118031627457,0.12187404901126224]",4.0,"[0.018505451670821498,0.1961587561373738]",100.0,"[-0.06836787014026525,-0.16058391429333022]",4.0,"[-0.15141461673680226,-0.11560094727624881]",100.0,"[-0.1737504385383776,-0.049063271438671646]",100.0,"[0.03680307330702134,-0.00338997106857197]",4.0,"[0.18062423570588065,-0.028204273101601993]",4.0,"[0.17690345043514172,-0.06881317494386019]",4.0,"[-0.10252880637707235,0.11980996362444404]",100.0,"[-0.024279040284445177,0.17209995987217674]",100.0,"[0.05973331809247727,0.16050063891435545]",4.0,"[0.10665755529188009,0.041068205454737126]",100.0,"[0.0992087731153628,-0.11311146553955004]",4.0,"[-0.06778298859245256,-0.06796926478243888]",100.0,"[0.09980472604285191,-0.007372488026899491]",100.0,"[0.046165178818130724,0.08249824958127618]",4.0,"[-0.19500848156253547,-0.006015980193851328]",4.0,"[-0.029284429345968248,0.07330102349973734]",100.0,"[0.1145027528877729,0.0947513839070048]",4.0,"[-0.10396940195738565,0.16981720374359702]",100.0,"[-0.0672660342453315,0.14038056415529776]",4.0,"[0.02,0.02]",245.0146,0.0,31.0,31.0,123.0,1.0,,,,,,,
,,,,,,,611ce3570a53282a7597ee62,6846a881d0cc0a480e53af7c,2025-06-09_11h27.52.327,shape_ratio,2024.1.5,Linux x86_64,59.88023952,684250e4f00cb30b92d1fa88,,,,,,,,,,,245.0151,245.515,,,245.7654,246.4654,right,0.6799,,,,,,,,,0.4,,,,,,245.5151,245.7653,246.4655,"[-0.18288092631606248,0.048762733076030226]",4.0,"[-0.06865344847314374,0.08496996412223659]",4.0,"[0.056641852527017256,-0.15050820305094556]",4.0,"[-0.07867112619447002,-0.06102618363778829]",4.0,"[-0.10362050632692103,-0.01519502486158755]",100.0,"[-0.11327078695754976,0.1239116126189167]",4.0,"[-0.0694244983291759,0.13982003882128693]",4.0,"[-0.007654616492333167,-0.11483103399386732]",100.0,"[0.07837523307156563,0.07782921825713299]",4.0,"[0.009622144145025996,0.15068865085207958]",4.0,"[0.020555105556176224,0.05222826384713396]",4.0,"[-0.1374868526247151,-0.08106329740120426]",100.0,"[0.04892949187500749,-0.06896861461813553]",4.0,"[0.03422777066578057,0.09827030791570375]",4.0,"[0.13376157737637737,-0.08248132240012011]",4.0,"[0.062012868359658566,0.13799158123041114]",4.0,"[-0.1100443254547837,0.06801319917152522]",100.0,"[-0.042293610875706704,-0.18666775624867055]",4.0,"[-0.035786983548659626,-0.007779605111642479]",100.0,"[-0.030934412924769013,0.15078054901563184]",4.0,"[-0.17023247034482195,-0.004105117559461594]",100.0,"[0.17691573405240743,-0.023231492636434113]",100.0,"[0.10198501101514895,-0.1436014439373526]",100.0,"[0.027753329874521157,-0.008763960830526848]",100.0,"[-0.04396199553672305,-0.09221279901629563]",4.0,"[0.1735832443157991,0.027460478235410608]",4.0,"[-0.03912776550772746,0.05230230742118562]",100.0,"[0.0964697297410745,-0.05878961777504478]",100.0,"[-0.07311309754355737,-0.12962695871486843]",4.0,"[0.10091878254987538,0.0073366392539742815]",100.0,"[0.1304173920014162,0.09841718485230744]",100.0,"[0.06822034744848272,0.18626857483545892]",4.0,"[0.02,0.02]",247.5657,0.0,32.0,32.0,164.0,1.0,,,,,,,
,,,,,,,611ce3570a53282a7597ee62,6846a881d0cc0a480e53af7c,2025-06-09_11h27.52.327,shape_ratio,2024.1.5,Linux x86_64,59.88023952,684250e4f00cb30b92d1fa88,,,,,,,,,,,247.566,248.0658,,,248.3165,249.183,left,0.8487,,,,,,,,,0.55,,,,,,248.0659,248.3165,249.183,"[0.15681805799310192,0.051542719850325346]",100.0,"[0.05675460418542452,-0.1571830290497739]",100.0,"[0.0860262603385671,0.1721300703404094]",100.0,"[-0.10220953355022253,0.17145064043956584]",4.0,"[-0.16268155382036883,-0.005955371492324857]",4.0,"[0.18702695640820044,-0.03613587977704295]",4.0,"[-0.031277109204202305,-0.04879097911253985]",4.0,"[0.06189969825405639,-0.10839926301290924]",100.0,"[-0.05552587697714581,0.02606369410446939]",4.0,"[-0.06364926187174426,-0.14726537600560713]",100.0,"[-0.027394134736824474,-0.16874343443673973]",100.0,"[-0.10096347652527574,-0.09903838094134747]",100.0,"[0.014411642937705344,-0.19430721553539929]",100.0,"[0.10926050146436772,0.004235053297489837]",100.0,"[0.1411841121081513,0.09335134675292156]",100.0,"[-0.1560796287976761,0.09444573324905338]",100.0,"[-0.14748944747783352,-0.08511138491370505]",100.0,"[0.15993343247279795,-0.1154609352703245]",4.0,"[0.020644951645901428,0.00608841919364316]",4.0,"[0.06781043290591357,0.027594608296091692]",100.0,"[0.0633140546522275,-0.013245807786297156]",100.0,"[-0.03405570493781746,0.180361956572854]",4.0,"[0.19520727926301623,0.007183130783452003]",4.0,"[0.003122534434970786,0.07873330072150755]",100.0,"[-0.1116705774506053,0.023529693886894926]",4.0,"[0.012544975198967882,-0.03693268037213202]",4.0,"[-0.1910627111303136,-0.03695993225079053]",100.0,"[0.042713100159970624,0.06268417058984255]",4.0,"[0.030486550368468597,0.13534796768703047]",4.0,"[-0.04317260951835426,-0.09334059729807377]",100.0,"[-0.006933005456625045,0.03599414830373479]",4.0,"[-0.05106690913792557,0.10552219701006917]",100.0,"[0.02,0.02]",250.2834,0.0,33.0,33.0,76.0,1.0,,,,,,,
,,,,,,,611ce3570a53282a7597ee62,6846a881d0cc0a480e53af7c,2025-06-09_11h27.52.327,shape_ratio,2024.1.5,Linux x86_64,59.88023952,684250e4f00cb30b92d1fa88,,,,,,,,,,,250.2837,250.7832,,,251.0337,251.5847,right,0.5302,,,,,,,,,0.4,,,,,,250.7833,251.0337,251.5847,"[0.010475221335573902,0.14370181779182936]",100.0,"[-0.14916913289466427,0.0475691707709321]",4.0,"[-0.055695018854050364,0.04102190222391862]",100.0,"[0.021467383859217114,-0.108013071716358]",4.0,"[-0.1801879488865482,0.003283282790938344]",4.0,"[-0.12374225457507639,0.08025610707755687]",100.0,"[-0.14121453508327977,-0.13385841947423066]",4.0,"[-0.13482964179031243,0.12208291635832831]",100.0,"[0.1137125225296478,-0.1349661976364646]",100.0,"[0.11123141800802548,0.10373707876172103]",100.0,"[0.17045833071440059,-0.10128985362852444]",4.0,"[0.08091859427820078,-0.0763855298787747]",4.0,"[0.172368746058363,0.03504782764446778]",4.0,"[-0.08704932752722595,-0.0035802388535947087]",4.0,"[0.06498654604990137,-0.17827402376611642]",4.0,"[0.04602200379373079,0.03984238854051959]",4.0,"[-0.07334429715921441,-0.17671048426736477]",4.0,"[0.03951263192771937,-0.04628860425222884]",4.0,"[0.0771406866225377,-0.02077631642389909]",4.0,"[0.131880318792841,-0.07051466981818806]",4.0,"[-0.07856154230782972,0.09211014310896899]",100.0,"[0.13708596674896936,0.058946715352232004]",100.0,"[0.06651060555155594,0.11637473624861343]",4.0,"[-0.038772341813773814,-0.057304263256890114]",100.0,"[-0.1462950779779998,-0.05355156249008456]",4.0,"[0.19565595275275527,-0.013279226285199588]",100.0,"[-0.018002714500839123,-0.12926725452219504]",4.0,"[0.009938358036138418,0.09477132986912751]",4.0,"[0.02039634472489434,-0.19123326947198008]",100.0,"[0.06049387925850962,0.15754933533824178]",100.0,"[-0.029409263096494647,0.1134452346675715]",100.0,"[0.14952169157347422,0.11781913038039922]",4.0,"[0.02,0.02]",252.6843,0.0,34.0,34.0,152.0,1.0,,,,,,,
,,,,,,,611ce3570a53282a7597ee62,6846a881d0cc0a480e53af7c,2025-06-09_11h27.52.327,shape_ratio,2024.1.5,Linux x86_64,59.88023952,684250e4f00cb30b92d1fa88,,,,,,,,,,,252.6846,253.1844,,,253.4348,254.2351,right,0.789,,,,,,,,,0.1,,,,,,253.1844,253.4347,254.2351,"[-0.13249889927308103,-0.006125680903046676]",100.0,"[-0.10767431349060932,0.13130329043471073]",4.0,"[-0.04952816265304999,0.04468504218173759]",4.0,"[-0.05729415737217336,0.10466444389302602]",4.0,"[0.010846240103871734,-0.05244695363104434]",4.0,"[-0.14959505393526001,-0.11680459009691667]",4.0,"[0.014063206262280234,0.14620862394152198]",4.0,"[0.07747626118776134,0.17113476900464394]",4.0,"[-0.0826032225860136,-0.00038920350791619263]",4.0,"[0.19604884221682972,-0.008472912237908097]",100.0,"[0.09452217280844262,0.08859777570277294]",4.0,"[0.1185834465771212,0.021865704023406686]",4.0,"[-0.12015355249463186,0.08144638060457134]",4.0,"[0.011518018755969254,-0.005121165223651983]",4.0,"[0.13580050421078682,-0.11152354920487388]",4.0,"[0.13623318863776987,0.09514235308781073]",4.0,"[-0.1744982013293477,-0.051904771877063216]",4.0,"[-0.04723133290141978,-0.07321924713403055]",4.0,"[-0.1700880339428275,0.01758973225449285]",4.0,"[-0.007497263946188073,-0.1393402164857551]",4.0,"[0.05504590025214001,0.053406948464804906]",4.0,"[0.059157414129413555,0.005508251123992397]",4.0,"[0.10350122482713495,-0.04617377399293799]",4.0,"[-0.13139728624552413,-0.04841976101204488]",4.0,"[0.03755153190859421,-0.12148909476660334]",4.0,"[0.031374583529038026,0.10616042229396339]",4.0,"[-0.11511446380779959,-0.1521332817548048]",4.0,"[-0.01028726643121135,0.03322405732156727]",4.0,"[0.18188610601056415,0.054292747003319694]",4.0,"[-0.18236243253871368,0.06542740810571983]",100.0,"[0.14756242804591166,-0.045275590978971145]",4.0,"[0.019570523064634714,-0.19475853327429254]",4.0,"[0.02,0.02]",255.3351,0.0,35.0,35.0,182.0,1.0,,,,,,,
,,,,,,,611ce3570a53282a7597ee62,6846a881d0cc0a480e53af7c,2025-06-09_11h27.52.327,shape_ratio,2024.1.5,Linux x86_64,59.88023952,684250e4f00cb30b92d1fa88,,,,,,,,,,,255.3354,255.8354,,,256.0854,256.9188,left,0.8147,,,,,,,,,0.45,,,,,,255.8354,256.0853,256.9189,"[0.15557127505718513,0.04187352483867267]",100.0,"[-0.06409815233716398,0.1853655198931266]",100.0,"[-0.05017209864563111,0.015292526515260415]",100.0,"[-0.08905981465014884,-0.07825454786430658]",100.0,"[0.008782270801803346,-0.10724660738758514]",4.0,"[0.08242235965363409,-0.10809298263192253]",100.0,"[0.02432469331628751,0.06610632683806499]",4.0,"[-0.04402804754863117,-0.13560786593107976]",100.0,"[0.08391550034111683,-0.16510683116717334]",4.0,"[0.021075516339660212,0.18130155837134956]",4.0,"[0.07574866279609219,0.12234574091533346]",4.0,"[-0.03897980110137935,0.12561257500303474]",4.0,"[-0.17735276841647518,-0.06267868876294587]",100.0,"[-0.09285139473316771,0.12143385721498927]",4.0,"[-0.08299950432362081,-0.1816188404577626]",4.0,"[-0.007979428794505824,0.037042837047473194]",100.0,"[0.03693476276355647,-0.17599381757626917]",100.0,"[-0.1545836347174909,-0.020271837427637544]",100.0,"[-0.18095054569226002,0.05591923503734955]",4.0,"[0.022747492734037447,0.10635908882079555]",4.0,"[0.13682198601575873,-0.0621673649223829]",100.0,"[-0.10026600108156364,0.0322488318338669]",4.0,"[0.01855469349239185,-0.022539894359127274]",100.0,"[0.033921351352887,0.022400174571117194]",4.0,"[0.14149927579590407,-0.1139265411241151]",4.0,"[0.08689837133567875,-0.006973546404172805]",4.0,"[0.06618536199565281,-0.05021441553544841]",4.0,"[0.16500184476298013,-0.006259395652929514]",4.0,"[0.06611615565172835,0.05890726387977056]",100.0,"[-0.14203231360927077,0.06702706890746844]",100.0,"[-0.04470532731931357,0.0737576312094399]",4.0,"[-0.12863366651276845,-0.10374300031243594]",4.0,"[0.02,0.02]",258.0196,0.0,36.0,36.0,143.0,1.0,,,,,,,
,,,,,,,611ce3570a53282a7597ee62,6846a881d0cc0a480e53af7c,2025-06-09_11h27.52.327,shape_ratio,2024.1.5,Linux x86_64,59.88023952,684250e4f00cb30b92d1fa88,,,,,,,,,,,258.02,258.5196,,,258.77,259.8867,right,1.0968,,,,,,,,,0.4,,,,,,258.5196,258.77,259.8868,"[0.09680012780886071,0.017435072812768723]",4.0,"[-0.06631711981966189,0.1552635285398951]",100.0,"[0.12700663335440782,-0.020210569098096397]",100.0,"[0.02697832254100224,0.002931795830051845]",100.0,"[-0.09064784752929465,-0.037747436268579605]",100.0,"[-0.02728977940125614,0.07893863039549168]",4.0,"[0.04854033286004036,0.12429426629316899]",4.0,"[-0.1079212459085355,0.05685704062921533]",100.0,"[0.0651656483249713,-0.06281899065576663]",4.0,"[0.12967487747961792,0.08524146468029897]",4.0,"[0.071650628404969,-0.1682912147050444]",4.0,"[-0.16937480519666925,-0.06366767963200239]",100.0,"[-0.005261864865774777,-0.11815781949320409]",100.0,"[-0.13626078027088562,0.014702322092046772]",100.0,"[0.002339769355852388,-0.17390495637290906]",4.0,"[-0.1381532192795032,0.1185033765928987]",4.0,"[-0.011551917268174061,0.13412031180733075]",4.0,"[-0.07442677814300606,-0.1534537329990848]",100.0,"[-0.11579386668338623,-0.14140637329540395]",4.0,"[0.03267712433206576,0.061861002881870596]",4.0,"[0.05408703018708242,-0.12761394194297598]",4.0,"[0.14241934383852065,0.1331740362372255]",4.0,"[0.18512462286379686,0.014357819694849313]",100.0,"[-0.008235795972548915,0.19059937634565874]",100.0,"[0.06459992073754744,-0.013654515893393268]",4.0,"[0.09331946192610198,0.12574921216944296]",100.0,"[-0.014620653868693536,0.03002199026254927]",100.0,"[-0.15651469622052508,-0.02171570201136821]",4.0,"[0.1675206685059463,-0.10890013297340764]",4.0,"[-0.14914643074226183,0.07276224320220732]",4.0,"[-0.09501993493145272,0.008912627935767418]",4.0,"[0.12608561571973978,-0.06904890082716827]",4.0,"[0.02,0.02]",260.9872,0.0,37.0,37.0,161.0,1.0,,,,,,,
,,,,,,,611ce3570a53282a7597ee62,6846a881d0cc0a480e53af7c,2025-06-09_11h27.52.327,shape_ratio,2024.1.5,Linux x86_64,59.88023952,684250e4f00cb30b92d1fa88,,,,,,,,,,,260.9878,261.4901,,,261.7377,262.5045,left,0.75,,,,,,,,,0.5,,,,,,261.4902,261.7376,262.5046,"[0.13385186924675224,-0.0666892528038773]",4.0,"[-0.16221675502763663,0.06208664827574836]",100.0,"[0.1725806161764966,-0.05416658543182777]",100.0,"[-0.01477987748601399,-0.090559071200705]",4.0,"[-0.07047916030200356,-0.13790745177895888]",100.0,"[0.03632652153636063,-0.044810736158716905]",100.0,"[0.028586242928756687,0.02395775886966868]",100.0,"[-0.18459906464654566,-0.07300573504215424]",4.0,"[-0.04986869441088914,-0.05579318401655625]",4.0,"[0.08048038036080232,-0.08695284970335829]",100.0,"[-0.035455351303972454,-0.1915676544224551]",100.0,"[0.025475670742328028,0.10679316657997971]",100.0,"[-0.0015415197447853687,0.17348569446430617]",4.0,"[-0.10831432851743172,0.04346927436919389]",100.0,"[-0.0746743696701662,0.18246967433964872]",100.0,"[-0.11546957956510438,0.12689974741341617]",4.0,"[0.038271972501300607,-0.18515286304169803]",100.0,"[-0.10964696351743108,-0.03186243933427041]",100.0,"[0.0634801821001111,0.08100490974936037]",4.0,"[-0.19852035722523523,0.017254744759549242]",4.0,"[0.040212105552724524,0.16621859712873038]",4.0,"[0.08445824914469205,-0.0370108996951964]",4.0,"[0.032306119743107965,-0.0928274629029462]",100.0,"[0.09793763019228699,0.10296411404163358]",100.0,"[0.10385478337650578,0.05193836417850139]",4.0,"[-0.05134876720046555,0.03904660456761518]",100.0,"[0.18759190227214667,0.010839920873549033]",4.0,"[-0.03784000509242308,-0.0007199663239372229]",4.0,"[0.15817323527132962,-0.12042052892976951]",4.0,"[0.16815491119768758,0.04848125415399506]",4.0,"[-0.0729164933907513,0.10993217210259477]",100.0,"[-0.0012746182022833044,-0.15548343368041107]",4.0,"[0.02,0.02]",263.6045,0.0,38.0,38.0,118.0,1.0,,,,,,,
,,,,,,,611ce3570a53282a7597ee62,6846a881d0cc0a480e53af7c,2025-06-09_11h27.52.327,shape_ratio,2024.1.5,Linux x86_64,59.88023952,684250e4f00cb30b92d1fa88,,,,,,,,,,,263.605,264.1044,,,264.3554,264.8384,right,0.4622,,,,,,,,,0.5,,,,,,264.1045,264.3554,264.8385,"[-0.14827002957005084,-0.0532818368989149]",4.0,"[0.06945984527432224,0.07599167600612898]",4.0,"[-0.030405458007877455,0.13374227740931438]",100.0,"[-0.1254519381822579,0.09688521690987782]",4.0,"[0.16084887033525283,0.019416093904028053]",100.0,"[-0.05529036706721908,-0.00039151057659874696]",100.0,"[0.022091517540793262,-0.13291798641076477]",4.0,"[-0.06499860479057987,-0.0705646715390319]",4.0,"[-0.008304690916935385,0.18740057360485943]",100.0,"[0.06147740920796918,-0.06033029689147685]",100.0,"[-0.02235066202056383,-0.07210254831311676]",100.0,"[-0.011160015778973539,0.0024525256916437936]",4.0,"[0.10196629658907391,0.040727043913482454]",4.0,"[0.05140045552720338,-0.16446965125423757]",4.0,"[0.1363074307404204,0.06757266778388026]",100.0,"[0.1290601919897532,-0.09383799817874602]",4.0,"[0.06253993048933196,0.13123863538624203]",4.0,"[-0.08041589287120053,0.15733461261054843]",100.0,"[0.013429242116485171,0.1367421668495225]",4.0,"[0.11237684366433975,0.1305638717950177]",100.0,"[-0.027151749747287273,-0.11708829152775112]",4.0,"[0.016893796664105686,0.03540570958365]",4.0,"[0.14952159120837297,-0.05594390057686632]",100.0,"[0.19730487167354563,-0.004518703238705551]",100.0,"[-0.03971190108477904,0.04380665432476885]",100.0,"[0.17636791192159607,0.09121697847410258]",4.0,"[-0.11467961634321479,0.04424874414564198]",100.0,"[0.03613462166095197,-0.02735905833143062]",4.0,"[-0.15085313850179957,-0.127291580061526]",100.0,"[0.01832801348255108,0.07620652961800255]",4.0,"[-0.1930519094694459,0.03434503222325553]",100.0,"[-0.07466981722550034,0.08387654221135785]",100.0,"[0.02,0.02]",265.9395,0.0,39.0,39.0,105.0,1.0,,,,,,,
,,,,,,,611ce3570a53282a7597ee62,6846a881d0cc0a480e53af7c,2025-06-09_11h27.52.327,shape_ratio,2024.1.5,Linux x86_64,59.88023952,684250e4f00cb30b92d1fa88,,,,,,,,,,,265.9398,266.4384,,,266.6897,267.256,left,0.5462,,,,,,,,,0.4,,,,,,266.4385,266.6897,267.256,"[-0.10620400670164815,-0.14430739314818197]",100.0,"[0.11048107513457622,0.11203193725034816]",4.0,"[-0.07314791714229647,-0.012841840831240901]",100.0,"[0.010704657227811118,0.15026737875583754]",4.0,"[0.08020308739540205,0.05782891782945067]",4.0,"[0.11320791640659517,-0.025752904778950245]",4.0,"[0.1943337186114294,0.03267175960851919]",100.0,"[0.10382202227056928,-0.13164632235946622]",4.0,"[0.030881373100159835,0.09981895616912861]",100.0,"[0.12639871748741208,0.0390961558664712]",4.0,"[-0.15295705051757272,-0.07974015373998043]",4.0,"[0.0314142514587197,-0.026713814819698267]",4.0,"[0.0026032959212074804,0.03838882011764495]",4.0,"[0.03989499719966248,-0.09300821402747926]",100.0,"[-0.14122412751734661,0.005806103869166808]",100.0,"[-0.12111544254697001,0.06522055272193783]",4.0,"[-0.05232414367618437,0.1316272422466269]",4.0,"[0.08361752874502834,-0.06768572405218451]",4.0,"[-0.03922039837164843,0.17078988891286367]",100.0,"[-0.09593862132060474,0.16144607161391267]",100.0,"[0.15494676963498344,-0.10709579296777999]",4.0,"[-0.054981634044794225,-0.10126903631204677]",100.0,"[-0.022641083234890527,-0.19374235433286754]",4.0,"[-0.013105374733227176,-0.08797250186997688]",4.0,"[-0.09197519592389523,0.024342871612856552]",100.0,"[0.07250432367238853,-0.1774227293094214]",4.0,"[0.1893473383792306,-0.036514755438495944]",100.0,"[-0.18259115730149222,0.012316243510337523]",4.0,"[-0.11102460145573793,0.10850971118369744]",100.0,"[0.05556518566207774,0.18621733940768187]",4.0,"[-0.05029969583225581,0.07643591139651643]",100.0,"[0.05681749794035313,0.1383693854445281]",4.0,"[0.02,0.02]",268.3564,0.0,40.0,40.0,165.0,1.0,,,,,,,
,,,,,,,611ce3570a53282a7597ee62,6846a881d0cc0a480e53af7c,2025-06-09_11h27.52.327,shape_ratio,2024.1.5,Linux x86_64,59.88023952,684250e4f00cb30b92d1fa88,,,,,,,,,,,268.3567,268.856,,,269.1068,269.9402,left,0.8143,,,,,,,,,0.6,,,,,,268.856,269.1067,269.9402,"[-0.0015652435819455413,0.05868034016455932]",100.0,"[0.0159845683537916,0.12967467916752706]",100.0,"[-0.0012332860255393964,-0.032605807324632974]",100.0,"[0.15305729488257944,-0.10447456698254053]",100.0,"[-0.1786210251148327,0.022513504110202764]",4.0,"[0.006379188245501717,-0.11238207959472232]",4.0,"[0.1166714829627118,-0.14151977186818615]",4.0,"[-0.11771190004497672,-0.061734467352784324]",100.0,"[-0.13787847961526647,0.11315718734305891]",100.0,"[0.19768636992248156,0.011566412846118007]",100.0,"[0.082218270117508,-0.16906569166584706]",100.0,"[0.12661984029492504,-0.014144801514142425]",100.0,"[-0.17807022104001602,-0.021638329125506423]",100.0,"[0.06989905805455514,-0.06730990272642438]",4.0,"[-0.10586449508623795,0.023493306388324763]",100.0,"[0.07189548212000703,0.02638830653502263]",4.0,"[-0.15568550217506472,0.07141195211991773]",4.0,"[0.11892604838256085,0.05291039241742167]",100.0,"[-0.0005040939462444512,-0.15991237969176744]",100.0,"[0.07579145843016567,0.14823264501672742]",100.0,"[0.12614207383555714,0.1279038959423061]",4.0,"[-0.07547191951263124,-0.17099684922084785]",4.0,"[-0.08804444171284972,0.09609715432839637]",100.0,"[0.03367789308882374,-0.0005486553646880085]",4.0,"[0.08502316076787296,0.10550039212575478]",4.0,"[0.16147365910973938,0.04223587886128064]",4.0,"[-0.03762862056315813,-0.059151822957950205]",4.0,"[-0.13119413813534195,-0.10613330853014621]",100.0,"[0.183874959542191,-0.0599575453945538]",100.0,"[-0.07015836938211677,0.1744260827496113]",4.0,"[-0.17171334210875874,-0.09976184738821085]",100.0,"[-0.06392873290918345,0.06008413166983745]",100.0,"[0.02,0.02]",271.04,0.0,41.0,41.0,40.0,1.0,,,,,,,
,,,,,,,611ce3570a53282a7597ee62,6846a881d0cc0a480e53af7c,2025-06-09_11h27.52.327,shape_ratio,2024.1.5,Linux x86_64,59.88023952,684250e4f00cb30b92d1fa88,,,,,,,,,,,271.0406,271.5409,,,271.7913,272.5242,right,0.7137,,,,,,,,,0.45,,,,,,271.5409,271.7911,272.5243,"[0.057089945425043594,0.11754067960955669]",4.0,"[0.07025186695490185,-0.09821384964591065]",4.0,"[-0.07273566477045434,-0.12865039999603564]",100.0,"[0.07824396532133342,-0.02015481770308758]",4.0,"[0.09852772656128028,-0.1547572753552932]",100.0,"[-0.15039726530626996,0.11880092633885564]",100.0,"[0.006416674042625147,0.15439371140108596]",4.0,"[-0.024864353526579893,0.001405272540456402]",100.0,"[-0.06327777943323253,0.053765128711709284]",100.0,"[0.1555102758717263,-0.012025334785519327]",4.0,"[-0.07515830902561932,-0.01603006344956904]",4.0,"[-0.15476465602222947,0.009296604433440629]",100.0,"[0.051622751818711565,0.17182273037293355]",100.0,"[-0.006823691578134635,-0.11371001537638188]",4.0,"[0.059571631181824715,-0.17809788160820575]",4.0,"[-0.03002345706747413,0.18804511384787945]",4.0,"[-0.07186898416799035,0.1213342288278426]",100.0,"[-0.0786220643629287,-0.07511279079223554]",4.0,"[0.01557551613339198,0.035785562667592745]",100.0,"[0.024317007264446074,-0.05953060066505119]",4.0,"[-0.12644710351780616,0.054107938667351606]",100.0,"[-0.008140536264918,-0.035081955753786996]",4.0,"[0.18748037546937327,-0.06943707334448392]",4.0,"[0.12248552351745362,0.0411331344239518]",100.0,"[-0.030252202658150623,0.0809158148520745]",100.0,"[0.007200681454222682,-0.19194131429669714]",4.0,"[0.12164628599744562,-0.11565656594415753]",4.0,"[0.16725487166547734,0.039995532488871416]",100.0,"[-0.030274969890390406,-0.16174272946442844]",4.0,"[0.12463398580942318,0.10087137600733476]",4.0,"[0.0591709432499753,0.027241626744442866]",100.0,"[0.050314525700774514,-0.13322528758270144]",4.0,"[0.02,0.02]",273.6245,0.0,42.0,42.0,133.0,1.0,,,,,,,
,,,,,,,611ce3570a53282a7597ee62,6846a881d0cc0a480e53af7c,2025-06-09_11h27.52.327,shape_ratio,2024.1.5,Linux x86_64,59.88023952,684250e4f00cb30b92d1fa88,,,,,,,,,,,273.6249,274.1251,,,274.3755,274.9088,left,0.5143,,,,,,,,,0.45,,,,,,274.1251,274.3755,274.9088,"[0.08057420265001525,-0.04277352064471112]",100.0,"[-0.024470554885081656,-0.12469134544285572]",100.0,"[0.11294748689851075,0.021053413366848708]",4.0,"[0.05360634742228654,-0.12624308716672109]",4.0,"[0.04338707894341178,-0.17067268357883678]",4.0,"[-0.08583918758941524,0.05820648009917365]",100.0,"[-0.1765798429893911,0.07356764852188515]",4.0,"[0.07377921820364691,0.05484344082570353]",100.0,"[-0.04859409433109731,0.12945929614020799]",4.0,"[-0.17959789480339639,-0.02373955334405964]",100.0,"[-0.09360024023923173,0.1668496660564271]",4.0,"[-0.0795366230684424,-0.013284135254846645]",4.0,"[0.09921318022133614,-0.17276835671144056]",4.0,"[-0.007342394774004324,-0.051447576000740035]",4.0,"[0.03766826116599926,0.12442077564930319]",4.0,"[-0.06066088212712315,-0.09936902688213876]",100.0,"[0.01962895661834875,0.049974077785029825]",4.0,"[0.15837029466319133,0.052402289710528564]",4.0,"[-0.1213712201909313,0.019093438200326864]",4.0,"[0.16460568427438935,-0.0990660939363562]",100.0,"[-0.16761598005360395,-0.09214683425533647]",4.0,"[0.11632403947872638,-0.11605201682275917]",4.0,"[-0.10306725140852147,-0.07263793398702954]",100.0,"[-0.028033814615342663,-0.17797084795724327]",100.0,"[-0.0009517012288670789,0.13958418203652817]",4.0,"[-0.1280446649720616,-0.029342999659471614]",100.0,"[0.18910826160904234,0.0069411500416780405]",100.0,"[0.040481861441626216,0.1704549737046284]",4.0,"[0.17639147962491566,-0.04635679794209791]",100.0,"[-0.019692202922059282,0.18541541863379507]",100.0,"[0.02769774421184791,-0.03009048461468882]",4.0,"[0.0839810363770108,0.16889136430370427]",100.0,"[0.02,0.02]",276.0089,0.0,43.0,43.0,135.0,1.0,,,,,,,
,,,,,,,611ce3570a53282a7597ee62,6846a881d0cc0a480e53af7c,2025-06-09_11h27.52.327,shape_ratio,2024.1.5,Linux x86_64,59.88023952,684250e4f00cb30b92d1fa88,,,,,,,,,,,276.0093,276.5094,,,276.7594,277.5594,left,0.7792,,,,,,,,,0.6,,,,,,276.5094,276.7594,277.5596,"[-0.001945257467912779,-0.06476056850735193]",4.0,"[-0.01924241616079354,0.055960709360341636]",100.0,"[-0.09885738623741079,0.02259365535231122]",100.0,"[-0.09502090856096154,0.11001918187177306]",4.0,"[-0.1861028083747125,-0.021210125457193238]",100.0,"[-0.15012929818765935,-0.08427956745254617]",100.0,"[0.06278854963020322,-0.16439137247960928]",4.0,"[0.05090569089566864,-0.08270468165142304]",4.0,"[0.12671193201849,0.12159433946868571]",100.0,"[0.16993254352597392,0.07139552324380614]",100.0,"[0.003085388939942016,0.10350602348471556]",4.0,"[0.1678781066198589,0.006825183853214839]",4.0,"[0.055534573353838546,0.07125708116656448]",100.0,"[0.12232985230787967,-0.14388181852520665]",100.0,"[-0.035297326449807244,-0.1836580265876378]",4.0,"[-0.059439324119318765,-0.10981184216529208]",100.0,"[0.07978533402402016,0.11425949813211077]",100.0,"[-0.05137648612569709,0.11488145768305626]",100.0,"[0.05060931080569841,0.022441517088510762]",100.0,"[-0.014847933177213083,0.14011360332243825]",100.0,"[-0.12719993888299086,-0.029909238677186405]",100.0,"[0.01674502205596144,-0.16094878830696432]",100.0,"[-0.1624592595855988,0.05340799984591333]",100.0,"[0.18888250719868874,-0.030622661192680287]",4.0,"[0.11178365028758282,0.02315741153879542]",4.0,"[0.10047401179546528,0.07455502349545047]",100.0,"[0.06645887624880799,0.16799360669628063]",4.0,"[-0.07809808056408005,-0.03638905200603387]",4.0,"[-0.11223215228430487,-0.11449777597937974]",4.0,"[0.038622961880638434,-0.12143926698167355]",4.0,"[-0.1424989197835857,0.1265298292422561]",100.0,"[0.07692834456158407,-0.02760368866787955]",100.0,"[0.02,0.02]",278.6596,0.0,44.0,44.0,36.0,1.0,,,,,,,
,,,,,,,611ce3570a53282a7597ee62,6846a881d0cc0a480e53af7c,2025-06-09_11h27.52.327,shape_ratio,2024.1.5,Linux x86_64,59.88023952,684250e4f00cb30b92d1fa88,,,,,,,,,,,278.6602,279.1595,,,279.4103,280.1606,left,0.7385,,,,,,,,,0.55,,,,,,279.1596,279.4102,280.1607,"[-0.06029949592431108,0.14083470031986792]",100.0,"[0.10029217501740109,-0.04482394927559068]",100.0,"[-0.03881598331216345,-0.035966472123812175]",100.0,"[-0.12021431028229733,0.13579064278762215]",4.0,"[-0.13006212469759,-0.07901531306308443]",100.0,"[0.03878053374037139,0.12848784533387983]",100.0,"[-0.012576643703723637,0.1506334245197758]",4.0,"[0.15668897929802397,-0.05791204297966723]",100.0,"[-0.11827554445441282,-0.12177481282719034]",4.0,"[-0.031602627537137794,-0.1390094539007419]",100.0,"[0.08660012613151093,0.0031163765840936863]",4.0,"[0.030374477754579216,-0.17234441083185692]",4.0,"[-0.18251606008214005,-0.07214152435023395]",4.0,"[0.04060220686094747,0.08161482180647865]",100.0,"[-0.13945867325076872,0.030720153855887795]",100.0,"[-0.1589111730388557,0.10036064740149582]",4.0,"[-0.033283017430193726,0.08500640819388101]",4.0,"[-0.08798163909136024,-0.08476261983202896]",100.0,"[0.173885934384443,0.04469057308773229]",100.0,"[0.1418441745660313,0.1408525562594288]",4.0,"[0.005832016092873195,-0.12385383632409436]",4.0,"[-0.09678004760943426,-0.032881677284846575]",4.0,"[-0.1903106101021448,0.039648631122641984]",100.0,"[0.014273572962914755,-0.04112140672286212]",100.0,"[0.08933151936339849,0.1390105619100002]",4.0,"[0.13083908859785645,0.019457572302940342]",4.0,"[0.10297881243760039,0.05206599541362531]",100.0,"[0.10842955477794745,-0.16399787430963805]",4.0,"[0.03610632737804436,0.0404843096620867]",100.0,"[-0.03383794016693566,0.04438365012291152]",100.0,"[-0.04645456825256322,-0.17624698910060949]",100.0,"[-0.08545623929348961,0.06588295977670429]",100.0,"[0.02,0.02]",281.2606,0.0,45.0,45.0,80.0,1.0,,,,,,,
,,,,,,,611ce3570a53282a7597ee62,6846a881d0cc0a480e53af7c,2025-06-09_11h27.52.327,shape_ratio,2024.1.5,Linux x86_64,59.88023952,684250e4f00cb30b92d1fa88,,,,,,,,,,,281.2611,281.7614,,,282.0117,282.595,right,0.5752,,,,,,,,,0.5,,,,,,281.7615,282.0116,282.595,"[-0.08012082832731739,0.1605667155159279]",4.0,"[-0.07246316211273335,-0.16110296162262025]",100.0,"[-0.1058095192123706,-0.1298623244138286]",4.0,"[-0.03937834779913197,0.02773672413145144]",100.0,"[0.11609600867322283,0.1025191126578974]",4.0,"[-0.12722625427080891,-0.0886731355290782]",4.0,"[-0.1085981199524084,0.010963899997195055]",100.0,"[-0.04484043837669021,-0.11999226100184024]",4.0,"[0.06845923151003323,0.016789647337939948]",100.0,"[0.03304526878020667,-0.1191125377326378]",4.0,"[-0.01773469533558861,-0.07855560681924885]",100.0,"[0.1356820770097949,0.04729153028742175]",100.0,"[-0.16749793290284745,0.0703482133306959]",4.0,"[0.15573861447111148,0.08727747778385597]",4.0,"[0.12310095655290731,-0.008404397775593746]",100.0,"[0.010144350976333967,0.08164659317804815]",100.0,"[0.01844062124501222,0.006124011665191846]",100.0,"[-0.03558165582324642,-0.03440607136984763]",4.0,"[0.007385850576349471,0.16378180491482774]",4.0,"[0.164658883683434,-0.09972030326959232]",100.0,"[0.11069789065074993,-0.1618220551608712]",100.0,"[0.05122086011543116,0.17535289499875908]",4.0,"[0.03312447312771494,-0.060799899632982254]",4.0,"[0.06023656140873594,-0.1795047454644121]",4.0,"[0.1239911437489053,-0.11420354707465524]",100.0,"[-0.1299372860829887,-0.038423158972087236]",100.0,"[-0.065454974989218,-0.0794882475052638]",100.0,"[-0.05156559580163129,0.12922491562361318]",4.0,"[0.021074048768501673,-0.160385533801655]",4.0,"[-0.06698126131708033,0.057022296770426764]",4.0,"[0.18836589681325744,-0.02152402450887199]",100.0,"[0.05609383127215218,0.12788506567526675]",100.0,"[0.02,0.02]",283.6948,0.0,46.0,46.0,107.0,1.0,,,,,,,
,,,,,,,611ce3570a53282a7597ee62,6846a881d0cc0a480e53af7c,2025-06-09_11h27.52.327,shape_ratio,2024.1.5,Linux x86_64,59.88023952,684250e4f00cb30b92d1fa88,,,,,,,,,,,283.6951,284.195,,,284.4454,285.4957,right,1.0338,,,,,,,,,0.55,,,,,,284.1951,284.4454,285.4957,"[0.15857401662852766,0.04346759723651323]",100.0,"[-0.06553644712871293,-0.11604806278515803]",4.0,"[-0.13791450688827958,0.030757711877598574]",100.0,"[-0.06690834521608331,0.1809935929676922]",100.0,"[0.07909766472324714,0.06910210408428022]",100.0,"[0.07895793690217091,0.022636485753754904]",100.0,"[0.05008560594860963,0.17342771370874477]",100.0,"[0.15294288417977753,-0.022524533375129184]",4.0,"[0.022955092362984198,-0.17800167071950468]",4.0,"[-0.024581849143059904,0.1370963227056695]",4.0,"[-0.14149217766381855,-0.03117353520271551]",100.0,"[0.020939510800613306,-0.002177831716895803]",4.0,"[-0.16157871531785614,0.0862046018018988]",100.0,"[-0.1225073338540308,0.06973696420723367]",100.0,"[0.1280647097669748,0.1150032412766673]",100.0,"[0.06950926390390191,-0.08917151415012026]",4.0,"[-0.025482225589051482,-0.16407001242107142]",4.0,"[-0.1792508040868146,-0.05717500830793101]",100.0,"[-0.07018273673583962,0.11141947190137264]",100.0,"[-0.08068505793591664,0.05100642023700844]",4.0,"[0.15281393842328692,-0.11017157932139558]",100.0,"[0.07957415119120848,-0.13789065021466035]",100.0,"[-0.03215579540322484,0.04874122540962878]",100.0,"[-0.11892648732111613,-0.1531764010126916]",4.0,"[0.031495646184886796,0.0929757873405354]",4.0,"[0.01734184648033625,-0.09216361412112485]",4.0,"[0.06764303841294855,-0.03394272244297667]",100.0,"[0.12407989990580956,-0.15307315331846036]",4.0,"[-0.045344512289402415,-0.062258236007725454]",4.0,"[-0.18226503967999907,-0.012133165377068975]",100.0,"[0.060743769274820295,0.13091889148185967]",100.0,"[-0.11131718821419061,0.11407911238758396]",4.0,"[0.02,0.02]",286.5956,0.0,47.0,47.0,63.0,1.0,,,,,,,
,,,,,,,611ce3570a53282a7597ee62,6846a881d0cc0a480e53af7c,2025-06-09_11h27.52.327,shape_ratio,2024.1.5,Linux x86_64,59.88023952,684250e4f00cb30b92d1fa88,,,,,,,,,,,286.5962,287.0963,,,287.3465,288.1465,left,0.7797,,,,,,,,,0.6,,,,,,287.0963,287.3465,288.1466,"[0.08757781616671614,-0.1500801892507078]",100.0,"[-0.1053839462247774,-0.017568940945181414]",4.0,"[-0.11103795967649806,-0.06285083736797019]",4.0,"[-0.17934229341588592,-0.08063742735864798]",4.0,"[-0.15880339227485332,0.04095683628357612]",100.0,"[-0.08497437577589925,0.09962210277746285]",100.0,"[0.07310017478766087,0.00761451993119985]",100.0,"[-0.040338164366783065,-0.12636130007785462]",100.0,"[-0.005231919671750689,0.1304308762654345]",4.0,"[0.12537897814103754,-0.07955912708268441]",100.0,"[-0.07543297653526627,0.15254831960275375]",100.0,"[0.060349594563603004,0.06330824424251617]",100.0,"[0.12389936502523326,0.02230001167942058]",100.0,"[0.07694165895182392,-0.09513384738801385]",4.0,"[0.12529533605708293,-0.12601688465339386]",100.0,"[-0.0360791459700826,-0.003017274794461342]",100.0,"[-0.16102756861910458,-0.1164082870654126]",100.0,"[0.1438310311080649,0.08734875590447683]",4.0,"[0.021351235511664783,0.04983104405616998]",100.0,"[0.06457138318358638,-0.03435510549098723]",4.0,"[0.18167556671099838,-0.03074612130672953]",4.0,"[0.04384122913076473,-0.1221847605787341]",100.0,"[0.04796537717355107,0.14600724776716184]",100.0,"[0.11562435844623184,0.12048369536037558]",4.0,"[0.16495675985969724,0.052262065660248685]",100.0,"[-0.09271712426268391,0.03125779963499829]",4.0,"[-0.08879028703138031,-0.1599245361666522]",100.0,"[-0.0924706542339613,-0.11057030730207744]",4.0,"[0.01628078945021854,-0.17576207050918205]",4.0,"[-0.044427088261376,0.07151705259455333]",100.0,"[-0.13074822904612432,0.13190769723979648]",4.0,"[0.013868745494487647,-0.034133163335753273]",100.0,"[0.02,0.02]",289.2466,0.0,48.0,48.0,44.0,1.0,,,,,,,
,,,,,,,611ce3570a53282a7597ee62,6846a881d0cc0a480e53af7c,2025-06-09_11h27.52.327,shape_ratio,2024.1.5,Linux x86_64,59.88023952,684250e4f00cb30b92d1fa88,,,,,,,,,,,289.2471,289.747,,,289.9975,290.964,right,0.9468,,,,,,,,,0.6,,,,,,289.7471,289.9974,290.9641,"[0.12185653750000686,0.14724015207360305]",4.0,"[0.174986148074859,-0.009290742961796748]",100.0,"[0.07884037848046391,0.09857235138906076]",100.0,"[-0.00502528400609404,-0.08448835842458331]",100.0,"[-0.1535515772668872,-0.11174160931895721]",100.0,"[0.044947443683608444,0.05306146108582477]",4.0,"[-0.06457419982254847,0.044409062511942474]",4.0,"[-0.153148525589072,-0.04879939791736685]",4.0,"[-0.13439110018822348,-0.0020354669644679596]",4.0,"[-0.07010251737194707,-0.048039394232531764]",100.0,"[0.1632379696036232,0.0870098972071079]",100.0,"[0.07000516902198971,0.1548378292247644]",100.0,"[-0.023542077717043842,-0.010647719579144692]",4.0,"[-0.01615789841893907,0.12259586083407137]",100.0,"[0.05501034626044831,-0.18032402549317422]",100.0,"[-0.1133369732860126,0.11871078740941436]",4.0,"[-0.009687648541268636,0.18415386472266124]",100.0,"[0.1050145165982525,0.013278632810133298]",4.0,"[0.1358794001949743,0.05574340361221085]",4.0,"[-0.00293169726214167,-0.15013606915027322]",100.0,"[0.07571156988048325,-0.1158435338950134]",4.0,"[-0.048701344281679264,0.15421081046121354]",4.0,"[0.04966825047949093,-0.04085704287798368]",100.0,"[0.03902179655930366,0.003693054869922634]",100.0,"[-0.11096305851289867,0.06345402084849854]",100.0,"[-0.17328700719578685,0.024740704002439683]",100.0,"[-0.08808751537912765,0.008408207811006893]",4.0,"[-0.007991610277408934,0.06595743122443105]",4.0,"[-0.015003287964383777,-0.19777723880373585]",100.0,"[-0.10544031188564593,-0.07179140825180398]",100.0,"[0.1326313095374394,-0.08333613657931216]",100.0,"[-0.05499924971479182,-0.09571195643852812]",100.0,"[0.02,0.02]",292.0647,0.0,49.0,49.0,58.0,1.0,,,,,,,
