right,left,explain.started,explain.stopped,key_resp_3.keys,key_resp_3.rt,key_resp_3.duration,participant,session,date,expName,psychopyVersion,OS,frameRate,study_id,explain_2.started,explain_2.stopped,key_resp_4.keys,key_resp_4.rt,key_resp_4.duration,explain_3.started,explain_3.stopped,key_resp_5.keys,key_resp_5.rt,key_resp_5.duration,fixation.started,fixation.stopped,practice.started,practice.stopped,response.started,response.stopped,key_resp.keys,feedback.started,feedback.stopped,trials_2.thisRepN,trials_2.thisTrialN,trials_2.thisN,trials_2.thisIndex,trials_2.ran,dot_ratio,key_resp.rt,key_resp.duration,explain_4.started,explain_4.stopped,key_resp_6.keys,key_resp_6.rt,key_resp_6.duration,dotDisplay.started,dotDisplay.stopped,ITI.started,polygon_1.pos,polygon_1.edges,polygon_2.pos,polygon_2.edges,polygon_3.pos,polygon_3.edges,polygon_4.pos,polygon_4.edges,polygon_5.pos,polygon_5.edges,polygon_6.pos,polygon_6.edges,polygon_7.pos,polygon_7.edges,polygon_8.pos,polygon_8.edges,polygon_9.pos,polygon_9.edges,polygon_10.pos,polygon_10.edges,polygon_11.pos,polygon_11.edges,polygon_12.pos,polygon_12.edges,polygon_13.pos,polygon_13.edges,polygon_14.pos,polygon_14.edges,polygon_15.pos,polygon_15.edges,polygon_16.pos,polygon_16.edges,polygon_17.pos,polygon_17.edges,polygon_18.pos,polygon_18.edges,polygon_19.pos,polygon_19.edges,polygon_20.pos,polygon_20.edges,polygon_21.pos,polygon_21.edges,polygon_22.pos,polygon_22.edges,polygon_23.pos,polygon_23.edges,polygon_24.pos,polygon_24.edges,polygon_25.pos,polygon_25.edges,polygon_26.pos,polygon_26.edges,polygon_27.pos,polygon_27.edges,polygon_28.pos,polygon_28.edges,polygon_29.pos,polygon_29.edges,polygon_30.pos,polygon_30.edges,polygon_31.pos,polygon_31.edges,polygon_32.pos,polygon_32.edges,dot_size,ITI.stopped,trials.thisRepN,trials.thisTrialN,trials.thisN,trials.thisIndex,trials.ran,break_2.started,break_2.stopped,trials_3.thisRepN,trials_3.thisTrialN,trials_3.thisN,trials_3.thisIndex,trials_3.ran
subject chose diamond,subject chose dot,0.0004,18.3703,space,3.3505,,683795ff8d15104c4c64949e,6846a8475a52c3792082698b,2025-06-09_05h24.55.342,shape_ratio,2024.1.5,Win32,59.88023952,684250e4f00cb30b92d1fa88,,,,,,,,,,,,,,,,,,,,,,,,,,,,,,,,,,,,,,,,,,,,,,,,,,,,,,,,,,,,,,,,,,,,,,,,,,,,,,,,,,,,,,,,,,,,,,,,,,,,,,,,,,,,,,,,,
,,,,,,,683795ff8d15104c4c64949e,6846a8475a52c3792082698b,2025-06-09_05h24.55.342,shape_ratio,2024.1.5,Win32,59.88023952,684250e4f00cb30b92d1fa88,18.3708,52.7855,space,4.3933,,,,,,,,,,,,,,,,,,,,,,,,,,,,,,,,,,,,,,,,,,,,,,,,,,,,,,,,,,,,,,,,,,,,,,,,,,,,,,,,,,,,,,,,,,,,,,,,,,,,,,,,,,,,,
,,,,,,,683795ff8d15104c4c64949e,6846a8475a52c3792082698b,2025-06-09_05h24.55.342,shape_ratio,2024.1.5,Win32,59.88023952,684250e4f00cb30b92d1fa88,,,,,,52.786,56.0532,space,0.2403,,,,,,,,,,,,,,,,,,,,,,,,,,,,,,,,,,,,,,,,,,,,,,,,,,,,,,,,,,,,,,,,,,,,,,,,,,,,,,,,,,,,,,,,,,,,,,,,,,,,,,,,
,,,,,,,683795ff8d15104c4c64949e,6846a8475a52c3792082698b,2025-06-09_05h24.55.342,shape_ratio,2024.1.5,Win32,59.88023952,684250e4f00cb30b92d1fa88,,,,,,,,,,,56.0826,56.5704,56.5718,56.8202,56.8205,58.3073,,58.3076,59.4049,0.0,0.0,0.0,0.0,1.0,0.2,,,,,,,,,,,,,,,,,,,,,,,,,,,,,,,,,,,,,,,,,,,,,,,,,,,,,,,,,,,,,,,,,,,,,,,,,,,,,,,,,,,,,,,,
,,,,,,,683795ff8d15104c4c64949e,6846a8475a52c3792082698b,2025-06-09_05h24.55.342,shape_ratio,2024.1.5,Win32,59.88023952,684250e4f00cb30b92d1fa88,,,,,,,,,,,59.4056,59.9051,59.9053,60.155,60.1551,60.6883,left,60.6886,61.7881,0.0,1.0,1.0,1.0,1.0,0.8,0.5246,,,,,,,,,,,,,,,,,,,,,,,,,,,,,,,,,,,,,,,,,,,,,,,,,,,,,,,,,,,,,,,,,,,,,,,,,,,,,,,,,,,,,,,
,,,,,,,683795ff8d15104c4c64949e,6846a8475a52c3792082698b,2025-06-09_05h24.55.342,shape_ratio,2024.1.5,Win32,59.88023952,684250e4f00cb30b92d1fa88,,,,,,,,,,,,,,,,,,,,,,,,,,,,61.7886,68.0914,space,3.2882,,,,,,,,,,,,,,,,,,,,,,,,,,,,,,,,,,,,,,,,,,,,,,,,,,,,,,,,,,,,,,,,,,,,,,,,,,,,,,,,,,
,,,,,,,683795ff8d15104c4c64949e,6846a8475a52c3792082698b,2025-06-09_05h24.55.342,shape_ratio,2024.1.5,Win32,59.88023952,684250e4f00cb30b92d1fa88,,,,,,,,,,,68.1153,68.6078,,,68.8589,69.9421,left,,,,,,,,0.9,1.0708,,,,,,,68.6085,68.8588,69.9427,"[0.10166837567516501,-0.06613993938095362]",100.0,"[-0.04932667029162331,0.03561450586241819]",100.0,"[0.031809863852067154,0.09960880591250265]",100.0,"[-0.0178698502736586,-0.09257353120313594]",4.0,"[-0.067542980838165,0.11364466415878414]",100.0,"[-0.03408960829619657,0.14536760789890862]",100.0,"[-0.06371001446270824,-0.0727236242283087]",100.0,"[0.06917978041711038,-0.13653222545789198]",100.0,"[-0.09178754360955892,-0.03604168821075543]",100.0,"[0.16846435957462094,0.05595855103558978]",100.0,"[-0.17864500072417386,-0.0334561099042517]",100.0,"[0.05467500029699251,-0.05710992140263607]",100.0,"[-0.014897552537464248,0.0027258737154970385]",100.0,"[-0.13555273171592036,0.08238824653486898]",100.0,"[0.02118442549003793,0.15066210772912478]",100.0,"[0.13794012286264093,-0.13573248295809734]",100.0,"[0.06813893329076873,0.016357711965947878]",100.0,"[0.13810898561592472,0.014427893432499611]",100.0,"[-0.11467559261596268,-0.0977282929167009]",100.0,"[-0.1755635679328002,0.02440451580579931]",100.0,"[0.17296170140866746,-0.05294287741061293]",100.0,"[0.10319501379552497,0.06608439449670635]",100.0,"[0.0694521345692422,0.18352337978754857]",100.0,"[-0.10003754999343283,0.051707250743739136]",100.0,"[-0.06644876570784604,0.18110473686249123]",100.0,"[-0.17344566901190317,-0.08910631128834488]",4.0,"[-0.10326818965786065,0.14109539464333798]",100.0,"[0.12551510333874435,0.15246925067295336]",4.0,"[0.14439900890180468,0.1102862710493026]",100.0,"[-0.06603830454448409,-0.11328044050814882]",100.0,"[-0.14543423095911526,-0.055783792988988945]",100.0,"[-0.010364998164352929,-0.16913208294142362]",100.0,"[0.02,0.02]",71.0425,0.0,0.0,0.0,7.0,1.0,,,,,,,
,,,,,,,683795ff8d15104c4c64949e,6846a8475a52c3792082698b,2025-06-09_05h24.55.342,shape_ratio,2024.1.5,Win32,59.88023952,684250e4f00cb30b92d1fa88,,,,,,,,,,,71.0431,71.5426,,,71.7932,72.1597,right,,,,,,,,0.45,0.3578,,,,,,,71.5426,71.7932,72.1598,"[-0.07300874549053699,0.08352942298903616]",4.0,"[-0.04477035063486658,0.1835891412879028]",4.0,"[0.043053791011917995,0.08117230285034795]",4.0,"[-0.0067609483362396005,0.02919692855718042]",100.0,"[0.10717938775546705,0.02784883194685886]",100.0,"[0.06807800395646967,-0.13123711439294117]",4.0,"[-0.09220372610587296,0.045391285131642777]",100.0,"[-0.01985069109431675,0.13998203461584585]",100.0,"[-0.04408236551964246,-0.09748939233972372]",100.0,"[0.11933039996245214,-0.04657439025210717]",4.0,"[0.1160839791520921,0.08898461778929342]",4.0,"[-0.12046530187259923,-0.0062431739343239735]",4.0,"[-0.15064880776771303,-0.12447936225811808]",4.0,"[0.08576158880236631,-0.007681541738155079]",100.0,"[0.13411354592358224,-0.09438705072563702]",100.0,"[-0.15556885276601573,0.03029750195920746]",4.0,"[-0.07694329369916782,-0.14334600310355758]",100.0,"[0.14574937693764192,0.12995821129570642]",4.0,"[0.030681589805261925,0.17860619797843555]",100.0,"[0.029630095913229373,0.002111954579803481]",4.0,"[-0.11024745686022877,-0.049216661135667104]",4.0,"[0.04586917032989407,-0.03672504907015635]",4.0,"[0.06567778017434497,0.13681676122196204]",4.0,"[0.025401537596557253,-0.12010323140151741]",4.0,"[0.18938279634953104,0.03610401960854524]",100.0,"[-0.009035877004089659,-0.184240543637638]",4.0,"[0.059118790990148495,-0.18618162115885067]",4.0,"[0.16637607648270342,0.07558916574110101]",100.0,"[-0.04784134316247081,-0.051178860576538185]",100.0,"[-0.05417319417470489,0.028970946175079657]",100.0,"[-0.14247477420565938,0.09126752960637517]",100.0,"[-0.030591258183330673,0.06815769202628114]",4.0,"[0.02,0.02]",73.2604,0.0,1.0,1.0,140.0,1.0,,,,,,,
,,,,,,,683795ff8d15104c4c64949e,6846a8475a52c3792082698b,2025-06-09_05h24.55.342,shape_ratio,2024.1.5,Win32,59.88023952,684250e4f00cb30b92d1fa88,,,,,,,,,,,73.2615,73.7604,,,74.0116,74.3109,left,,,,,,,,0.1,0.2817,,,,,,,73.7604,74.0115,74.3109,"[0.17323225433039405,-0.09756840795748663]",4.0,"[-0.14565398681382752,0.03186550839382204]",4.0,"[-0.0011050276216878123,-0.09083403382446024]",4.0,"[0.08855093696179185,-0.1742922274120712]",4.0,"[0.06882085127835498,-0.06842937265920167]",4.0,"[-0.07281836460104316,0.046580279804983374]",4.0,"[0.10637454502467066,0.1477967099854047]",4.0,"[0.04346498669512908,0.08175504621372395]",4.0,"[-0.06378604750466255,0.12061198453730802]",4.0,"[-0.1567514436391839,-0.0685183447889483]",4.0,"[0.1570568094757484,0.049452788744351266]",4.0,"[-0.07252724637905902,-0.0951777629952527]",4.0,"[0.0013086471856096553,-0.04559045199675506]",4.0,"[0.07062155556336107,0.02733803466931948]",4.0,"[-0.13567405956271839,-0.011605543915542714]",100.0,"[0.045313102216346074,0.17752732095344395]",100.0,"[0.12439849575715495,-0.13263541992250355]",4.0,"[0.1457656977568252,-0.030540571586508233]",4.0,"[-0.19436704815900438,0.006633256391515125]",4.0,"[0.0025936650543506986,0.06302053995218636]",4.0,"[0.18773510122675857,-0.03514812235229462]",4.0,"[0.03761779182209507,-0.17948321011761786]",4.0,"[0.038357447411863664,-0.09902286172908702]",4.0,"[-0.034284587004750525,-0.18241392530925726]",4.0,"[-0.05243354106296145,-0.046953605604355554]",4.0,"[-0.07801665832490605,-0.004085809429843842]",4.0,"[-0.04296998202756604,-0.1241683829171339]",4.0,"[0.08477159101737017,-0.10978525122164787]",4.0,"[0.013099058609408226,0.11891139106447313]",4.0,"[0.102545396255376,0.06341320172038115]",4.0,"[-0.027722491531259028,0.024772512817013773]",4.0,"[0.1582429222670954,0.11288091521129505]",100.0,"[0.02,0.02]",75.411,0.0,2.0,2.0,197.0,1.0,,,,,,,
,,,,,,,683795ff8d15104c4c64949e,6846a8475a52c3792082698b,2025-06-09_05h24.55.342,shape_ratio,2024.1.5,Win32,59.88023952,684250e4f00cb30b92d1fa88,,,,,,,,,,,75.4117,75.911,,,76.1618,76.396,right,,,,,,,,0.4,0.2204,,,,,,,75.9111,76.1617,76.3961,"[0.05477755068513236,0.15834182338547448]",4.0,"[0.17506218480420985,-0.035131834813407585]",4.0,"[0.01359967091882344,0.05587811505154853]",4.0,"[-0.1594617675384491,-0.021261699191144717]",4.0,"[0.11436412206762815,-0.025955616365968884]",100.0,"[-0.17319470078997415,-0.06523926815434715]",4.0,"[-0.15383212166318205,0.10231713365774012]",4.0,"[-0.047684609982977036,-0.15921463207800696]",100.0,"[-0.11618654388186599,-0.15215412267203746]",100.0,"[0.11592298616338491,0.1558527127776014]",100.0,"[-0.06680628432512886,0.16380475062632854]",100.0,"[-0.012467492695164938,0.10046967795945487]",4.0,"[0.09743455464883347,-0.08702055172092456]",4.0,"[-0.022362485467672576,0.16918379053972604]",4.0,"[0.17817962816137894,0.05700361759793198]",100.0,"[0.10289878663836417,0.10185507503555608]",4.0,"[0.05355779616795034,0.025570639378960595]",4.0,"[0.012783822265878432,-0.0019080053282264364]",100.0,"[-0.0607574612683898,-0.06303039942927458]",100.0,"[0.06434484430217566,0.09087234493704761]",4.0,"[0.11984552861134368,-0.13745384116520415]",4.0,"[-0.026365635221188975,-0.027784204423657286]",4.0,"[0.040215541288610976,-0.04253949826039955]",100.0,"[-0.12585240732747333,-0.06573468192847105]",4.0,"[-0.017503159047492806,-0.07353008980009759]",100.0,"[-0.1273949584805744,0.14905636942531586]",4.0,"[0.00042531651680238655,-0.1567783155989833]",4.0,"[0.11619672656707296,0.058226691371906905]",4.0,"[0.14540605889829034,0.1097882286443602]",4.0,"[0.007747538696138309,-0.11350598568666509]",100.0,"[-0.1324275318621588,0.05926667943801991]",100.0,"[-0.08216248742760436,0.06905334870339525]",100.0,"[0.02,0.02]",77.4955,0.0,3.0,3.0,178.0,1.0,,,,,,,
,,,,,,,683795ff8d15104c4c64949e,6846a8475a52c3792082698b,2025-06-09_05h24.55.342,shape_ratio,2024.1.5,Win32,59.88023952,684250e4f00cb30b92d1fa88,,,,,,,,,,,77.4961,77.9959,,,78.2462,78.3638,left,,,,,,,,0.4,0.1118,,,,,,,77.996,78.2462,78.364,"[-0.16587847303903674,-0.07138424494801687]",4.0,"[0.18160850921616079,-0.002197936907447952]",100.0,"[0.0907088854632603,-0.10532730914551804]",4.0,"[0.07913166451605307,0.020427630120806783]",100.0,"[-0.009293395895746183,0.10645767330433689]",4.0,"[-0.1588375688080315,0.04662651772417261]",4.0,"[0.15312270758500757,0.03454180739134726]",4.0,"[0.048763853348254865,-0.1874418144281121]",100.0,"[0.04424348561322812,0.1129706915929112]",4.0,"[0.13864478933360935,-0.04940494229706732]",4.0,"[0.011497795547638318,-0.003019668638832778]",100.0,"[0.14112622348843476,0.08586523474612577]",4.0,"[0.16055015396494624,-0.10755033898854145]",4.0,"[0.039137454268751676,0.04425901485138701]",100.0,"[-0.052027512217646,0.11430125301688779]",100.0,"[0.040867266001231216,-0.11081299704692837]",100.0,"[0.13676561971938447,0.1420666380442849]",100.0,"[-0.06803781628267053,0.035138072946104576]",100.0,"[-0.11020047739358062,-0.14494284540907423]",100.0,"[-0.13191995757436017,-0.036373248815092456]",4.0,"[0.0052491870659167805,0.15377309668063815]",4.0,"[0.07662763408778292,-0.06379016847407074]",100.0,"[0.17799568846821084,-0.0687225529308062]",4.0,"[0.01662870867804422,-0.052242951850637175]",4.0,"[-0.027664688717523516,-0.1596894379866332]",4.0,"[-0.045167343782176045,-0.08712358472240755]",4.0,"[-0.17889599190968808,0.011062796834838105]",4.0,"[0.06856763065525806,0.15923191083898303]",4.0,"[0.06928669842379793,-0.1395956303692458]",4.0,"[-0.04185866408967753,0.17367742608690878]",4.0,"[0.08218270529420078,0.08207462839889135]",100.0,"[0.0971086019587855,-0.016764753054152166]",100.0,"[0.02,0.02]",79.4628,0.0,4.0,4.0,175.0,1.0,,,,,,,
,,,,,,,683795ff8d15104c4c64949e,6846a8475a52c3792082698b,2025-06-09_05h24.55.342,shape_ratio,2024.1.5,Win32,59.88023952,684250e4f00cb30b92d1fa88,,,,,,,,,,,79.4633,79.9631,,,80.2138,80.2968,right,,,,,,,,0.45,0.0704,,,,,,,79.9632,80.2137,80.2969,"[0.00034812473401648215,-0.15041240978005946]",4.0,"[-0.04007278436318087,0.16691493514468733]",4.0,"[-0.09464064139423328,0.1248290725634092]",100.0,"[0.048116891342053277,0.04325763187749191]",100.0,"[0.05656861844408432,0.17126062901163333]",4.0,"[-0.09886502097914251,-0.035135082446555145]",100.0,"[-0.10295270126204134,0.07276069018587403]",100.0,"[0.10736138412438626,0.005977408603829065]",100.0,"[0.04687221282055806,0.10947198729225625]",4.0,"[0.19251342601450686,-0.04270563832236569]",4.0,"[-0.024217827686203335,0.12045641733326247]",4.0,"[0.026048852077803407,-0.022507431831199996]",100.0,"[-0.15791755174625333,-0.06297160682295683]",4.0,"[0.015657929503264712,0.1798924859959593]",4.0,"[-0.07627405208885991,-0.18126410973725723]",100.0,"[-0.11731105313400679,-0.08609731314642728]",100.0,"[0.02608426496612551,-0.10553054572271427]",4.0,"[0.11268832353671825,-0.04775799266845203]",4.0,"[-0.18111110910582473,0.03297551619825058]",100.0,"[-0.06469600972357345,0.03353603065350055]",100.0,"[-0.0801002786233282,-0.07068971048157825]",4.0,"[-0.04006170864832349,-0.045302308121851556]",4.0,"[-0.1167272416974359,-0.15608852450169527]",4.0,"[0.0936058290294814,0.07223971291110079]",100.0,"[0.15682493798159097,-0.013576917732178943]",4.0,"[0.11935772883550066,-0.08949018324986653]",4.0,"[-0.05988523276030622,-0.13683591032826067]",4.0,"[-0.029851112693699486,0.06946247010412195]",100.0,"[0.17595279781639384,0.047696217293236476]",100.0,"[-0.159023500622143,0.07771958541449915]",4.0,"[0.08250319034561016,-0.1316678277781711]",4.0,"[-0.15067994411829744,-0.11140121965030204]",100.0,"[0.02,0.02]",81.3974,0.0,5.0,5.0,136.0,1.0,,,,,,,
,,,,,,,683795ff8d15104c4c64949e,6846a8475a52c3792082698b,2025-06-09_05h24.55.342,shape_ratio,2024.1.5,Win32,59.88023952,684250e4f00cb30b92d1fa88,,,,,,,,,,,81.3979,81.897,,,82.1476,82.2475,left,,,,,,,,0.45,0.0928,,,,,,,81.8971,82.1476,82.2476,"[-0.15027172100441158,-0.011642454327785313]",4.0,"[-0.11890710386710732,-0.10649808279607188]",4.0,"[-0.05232195382977766,-0.105447698141189]",100.0,"[0.11855446662808386,-0.026141308047165135]",4.0,"[0.00690276120275206,0.10305983809771847]",100.0,"[0.017410867458937686,0.17949558724495296]",4.0,"[0.06617282219448818,-0.030820565955081865]",100.0,"[0.16145477407825462,0.021940162274043922]",100.0,"[0.07565049241270823,-0.1511321808164001]",4.0,"[0.17066763955844613,-0.06038754615811862]",4.0,"[-0.014182324456372776,0.03995700631521643]",4.0,"[-0.021742311927599456,0.13331279857732284]",4.0,"[0.037257583105081135,-0.12905152093603592]",4.0,"[-0.047804444631917326,-0.06249247819470872]",100.0,"[-0.09038127856552033,-0.008446086076192268]",100.0,"[0.048162819640456093,0.10977119104280525]",4.0,"[0.07482353166013186,0.04893513490717354]",4.0,"[-0.07871269813606872,0.1704643119350016]",4.0,"[-0.11265678653862038,-0.1600799982575954]",100.0,"[-0.11991397611450941,-0.05034918440272672]",100.0,"[0.018112570759391242,0.00829064548333951]",4.0,"[-0.006092448176962913,-0.17605961629564265]",100.0,"[0.1051023195566817,0.08400119624209382]",4.0,"[0.1274352844134389,0.1496680376655508]",100.0,"[-0.06641198037663533,0.0751847812240084]",100.0,"[0.1545525556069294,-0.10946307802746205]",4.0,"[0.09287248780940331,0.12752508518801717]",100.0,"[0.14900162827729665,0.11163861250512648]",4.0,"[0.07412296699814593,0.1799014396784945]",4.0,"[0.032026427891731456,0.0586685984312078]",100.0,"[0.018824551334823945,-0.08171199100132313]",100.0,"[0.15860208641787385,-0.021152413212181274]",4.0,"[0.02,0.02]",83.3478,0.0,6.0,6.0,121.0,1.0,,,,,,,
,,,,,,,683795ff8d15104c4c64949e,6846a8475a52c3792082698b,2025-06-09_05h24.55.342,shape_ratio,2024.1.5,Win32,59.88023952,684250e4f00cb30b92d1fa88,,,,,,,,,,,83.3483,83.848,,,84.0987,84.415,right,,,,,,,,0.1,0.3013,,,,,,,83.848,84.0987,84.4151,"[-0.047661526457145324,0.14439434293037498]",4.0,"[0.07731772083358826,0.1731545482385623]",4.0,"[0.10831115114116101,0.11294269897554861]",4.0,"[-0.044804504460716335,-0.04080057971795635]",100.0,"[0.018676556926492165,-0.03955813316281421]",4.0,"[-0.003763763154467583,0.016315324834139833]",4.0,"[-0.18711656751921948,0.023081214788236257]",4.0,"[-0.16504615092024397,-0.03993898512877881]",4.0,"[0.016706083705338944,0.19339344272825035]",4.0,"[0.12573281244779944,0.15159693234613808]",4.0,"[-0.1300177809985296,0.09921650978692559]",4.0,"[0.008192292198039339,-0.11332537319108518]",4.0,"[-0.138713131725952,0.1435977204710362]",4.0,"[0.023083924648771556,-0.1847357949776403]",4.0,"[-0.1457183196190928,0.0390834239623572]",4.0,"[0.058293391232399905,0.10457436787499694]",4.0,"[-0.033165522340619855,-0.1223887732574132]",4.0,"[-0.10176396002360412,-0.017477863691370228]",4.0,"[-0.12647715157929232,-0.07630120382815832]",4.0,"[-0.04832146573160765,0.0669680244645027]",4.0,"[0.15531979119432998,-0.015919262356606814]",4.0,"[-0.043920782239963374,0.0009844099618975478]",4.0,"[-0.071135457505896,0.18530072198383687]",100.0,"[0.0648741805797472,-0.057058198821495064]",100.0,"[0.05969771109693247,-0.10798931579479591]",4.0,"[-0.0664813778652014,-0.16155085490595197]",4.0,"[0.13840107655934103,0.022975110352449476]",4.0,"[-0.09259583493727043,0.029296430141820918]",4.0,"[0.02855361949268492,0.07550761536628356]",4.0,"[0.08784393672786311,-0.1561913875226973]",4.0,"[0.11164598169811203,0.05753560202959023]",4.0,"[0.1120676492681308,-0.07319123527853452]",4.0,"[0.02,0.02]",85.5154,0.0,7.0,7.0,193.0,1.0,,,,,,,
,,,,,,,683795ff8d15104c4c64949e,6846a8475a52c3792082698b,2025-06-09_05h24.55.342,shape_ratio,2024.1.5,Win32,59.88023952,684250e4f00cb30b92d1fa88,,,,,,,,,,,85.5157,86.0155,,,86.2662,86.4495,right,,,,,,,,0.4,0.1655,,,,,,,86.0156,86.2662,86.4496,"[-0.1661886482340168,0.033477888167113494]",4.0,"[0.11320938645819967,0.07617992269902674]",4.0,"[0.18950714914530864,-0.04928217130897435]",4.0,"[0.09086761915360297,-0.12316749247157985]",100.0,"[0.15286684887506682,0.08626044578305475]",100.0,"[0.03288351132509972,-0.15464495373047896]",100.0,"[0.004473295136749203,-0.10180076476986846]",4.0,"[0.08376639357155188,0.14343741492434744]",100.0,"[-0.13910399888017147,0.06701124862401128]",4.0,"[0.14838149048261634,0.021186785073819516]",100.0,"[0.09745187840970898,-0.03773356581369576]",100.0,"[-0.00015078831590687434,0.09298208247069085]",4.0,"[-0.03592949368337247,0.04898339794283011]",4.0,"[-0.14135498029627874,0.10830985293718566]",4.0,"[-0.17877170254092833,-0.06782371686172689]",100.0,"[0.02874290136947734,0.12966505039830573]",100.0,"[-0.17877069900130205,-0.019697686268260392]",100.0,"[-0.11501291848748839,-0.15526537633910673]",4.0,"[0.14381273536293954,0.13867884370026617]",100.0,"[0.03054253085609728,-0.009391246897014325]",4.0,"[0.11199024343395517,0.0016377197575546075]",4.0,"[-0.05140440428054362,0.13130529809558236]",4.0,"[0.04655007538365126,-0.09322146593093841]",4.0,"[-0.022291083492587193,-0.02011074020795123]",4.0,"[-0.07952583468299838,0.10240210973954794]",100.0,"[-0.035535952976860276,0.18104426744031582]",4.0,"[0.11110966143679918,-0.08650698152935304]",100.0,"[-0.12555011887667458,-0.05262071297370182]",4.0,"[0.15542547852862285,-0.124978435280281]",100.0,"[-0.059290942169631954,-0.09970551368703973]",4.0,"[-0.08009282477299925,-0.010718418853327217]",4.0,"[0.0691210478175449,-0.1807585957199721]",4.0,"[0.02,0.02]",87.5497,0.0,8.0,8.0,165.0,1.0,,,,,,,
,,,,,,,683795ff8d15104c4c64949e,6846a8475a52c3792082698b,2025-06-09_05h24.55.342,shape_ratio,2024.1.5,Win32,59.88023952,684250e4f00cb30b92d1fa88,,,,,,,,,,,87.5503,88.0499,,,88.3004,88.5678,right,,,,,,,,0.5,0.2532,,,,,,,88.05,88.3003,88.5679,"[-0.024937454462451103,-0.09158815659716868]",100.0,"[-0.016951337379292247,0.05233042145661933]",4.0,"[-0.005383354814023407,0.1562965227854968]",100.0,"[-0.14143903763078985,0.04127397693640173]",100.0,"[0.1298705506240727,0.14834797588208112]",100.0,"[0.07499963215981129,0.0192244651374424]",4.0,"[0.02598497065383975,-0.06991339904875629]",100.0,"[-0.09950815782043182,-0.1380305709670635]",4.0,"[0.15267361112200914,-0.00330836411122044]",100.0,"[0.02123751734642427,-0.13268830367994952]",100.0,"[0.03912956197241828,-0.0035000250529199296]",4.0,"[-0.08416358416171642,0.06442686385191944]",4.0,"[0.06145284005644512,0.15103061631536804]",4.0,"[0.12301983559374971,0.025134329754162063]",4.0,"[0.14588478937457616,-0.07510750493026147]",100.0,"[0.007528546523839292,0.11614311633128846]",100.0,"[0.10651609645231393,-0.13650371149380885]",100.0,"[-0.12355813973805176,-0.012483021307684323]",100.0,"[-0.09809428126822003,0.11591900657632667]",4.0,"[-0.0395274673254773,0.00375170930470238]",4.0,"[0.1338032087024666,0.06484062914330711]",4.0,"[-0.191777190564882,0.03832496313642042]",4.0,"[0.09603507609870464,0.09274859836890943]",4.0,"[-0.04755437899143317,0.11419528119565446]",100.0,"[0.02765248315544026,0.06608970704929894]",100.0,"[-0.1717486150967481,-0.0658133360425292]",4.0,"[0.042501287795846845,-0.18996772346177102]",100.0,"[-0.16471386335197785,0.0911866870654309]",4.0,"[-0.11536421636865805,-0.0602640085817227]",100.0,"[0.19088114401356066,0.026609096647364293]",4.0,"[-0.08613933012419683,0.020018575604044034]",4.0,"[0.08896914273419472,-0.03252668909041042]",100.0,"[0.02,0.02]",89.6673,0.0,9.0,9.0,103.0,1.0,,,,,,,
,,,,,,,683795ff8d15104c4c64949e,6846a8475a52c3792082698b,2025-06-09_05h24.55.342,shape_ratio,2024.1.5,Win32,59.88023952,684250e4f00cb30b92d1fa88,,,,,,,,,,,89.6678,90.1685,,,90.4184,90.8682,left,,,,,,,,0.1,0.4393,,,,,,,90.1686,90.4184,90.8682,"[0.14037952036160553,-0.13890239590798173]",100.0,"[0.12180370900760479,0.09763666068179505]",4.0,"[0.1651254049077145,-0.09122790022924263]",4.0,"[0.11895086411073152,-0.08572629554566068]",4.0,"[0.09185714918154722,-0.17068605888799462]",100.0,"[-0.1343792793334188,0.008046469346767584]",4.0,"[-0.1999431798999173,0.0012700886115355767]",4.0,"[-0.08112721839425943,0.02596433041050543]",4.0,"[0.03887291946994282,-0.09104262798790377]",4.0,"[-0.058798567765521996,-0.06088069543731274]",4.0,"[0.15959808085573626,0.11295413049253232]",4.0,"[-0.08410562514439443,0.14052196681002943]",4.0,"[0.06580455877486485,0.17058519904790231]",4.0,"[0.017633165932707837,-0.12986339518396006]",4.0,"[0.11975853380388064,-0.034238654508008254]",4.0,"[0.010362129243152435,-0.1984243736114844]",4.0,"[-0.015139911242020004,0.10509999013409539]",4.0,"[0.023929955507395382,0.042358229182763815]",100.0,"[-0.16561874012779548,0.09912618434138717]",4.0,"[-0.07927994295632859,0.0818506224416779]",4.0,"[-0.014932831822433974,0.1933783198738695]",4.0,"[-0.07669199793945287,-0.022681656697103317]",4.0,"[-0.17587711380882234,-0.04016369124369057]",4.0,"[0.10876269912067733,0.047161588411782265]",4.0,"[-0.14234371701465853,-0.088575873712418]",4.0,"[0.02081424670221608,0.1379804427982416]",4.0,"[-0.17777716656178022,0.04228189753246565]",4.0,"[0.1889493979219387,-0.04789431610328887]",4.0,"[-0.036445833733004036,0.15108647134184103]",4.0,"[0.011198163371758841,-0.023506924802665974]",4.0,"[0.06814235452688781,0.12522821268278744]",4.0,"[-0.10481171416813606,-0.06657745291748714]",4.0,"[0.02,0.02]",91.9682,0.0,10.0,10.0,195.0,1.0,,,,,,,
,,,,,,,683795ff8d15104c4c64949e,6846a8475a52c3792082698b,2025-06-09_05h24.55.342,shape_ratio,2024.1.5,Win32,59.88023952,684250e4f00cb30b92d1fa88,,,,,,,,,,,91.9687,92.4686,,,92.7222,93.0867,right,,,,,,,,0.55,0.3352,,,,,,,92.4686,92.7221,93.0867,"[0.10127975734431767,-0.02477409204883806]",4.0,"[-0.0719781320440773,-0.13532742532733175]",4.0,"[0.03152640211675631,-0.06024972271690081]",4.0,"[0.026425585033616195,-0.12945749657968525]",4.0,"[-0.1440168141315298,0.014268701847824796]",100.0,"[0.1798589783207807,-0.007397526094597348]",100.0,"[0.0007478533628810854,-0.02696201799003682]",100.0,"[-0.03360330356423926,-0.08749169609639665]",4.0,"[0.07904674250115358,-0.09735456560112461]",100.0,"[-0.07325101773868203,0.1555379615209504]",4.0,"[0.004959239464216391,0.16062762849968468]",100.0,"[0.12770099350036604,0.07442835924207265]",100.0,"[-0.042391382706976476,0.008667293328679394]",100.0,"[-0.18437899189157472,0.06872287009118312]",100.0,"[0.09679982382232531,-0.13960234433159938]",4.0,"[-0.045633264522655384,0.1119085142438001]",4.0,"[-0.13410211665712268,0.06132516844008094]",4.0,"[0.12362093951289563,-0.060228309986592725]",4.0,"[0.0480340828330234,0.18823037063141482]",100.0,"[0.001657680234798068,-0.16213334750273733]",4.0,"[0.06613154614920089,0.03842604633750707]",100.0,"[-0.09223233776162115,-0.04803851424996166]",100.0,"[0.056001824568397834,-0.019819991484902287]",100.0,"[-0.050459047707364466,0.05959600383848928]",100.0,"[-0.143075134403229,-0.03876308613411477]",100.0,"[0.12666195359317195,0.1351150076155268]",4.0,"[0.16590826835689182,-0.09467880753829842]",100.0,"[-0.13268155590521288,0.11003477653030795]",4.0,"[-0.01054433320601217,0.043178941080278616]",100.0,"[-0.0941859199082988,0.007918315075417473]",4.0,"[-0.1314616815852321,-0.08154093105279203]",100.0,"[0.009680119993754515,0.11200674400378087]",100.0,"[0.02,0.02]",94.1864,0.0,11.0,11.0,76.0,1.0,,,,,,,
,,,,,,,683795ff8d15104c4c64949e,6846a8475a52c3792082698b,2025-06-09_05h24.55.342,shape_ratio,2024.1.5,Win32,59.88023952,684250e4f00cb30b92d1fa88,,,,,,,,,,,94.1871,94.6874,,,94.9375,95.2369,left,,,,,,,,0.55,0.2861,,,,,,,94.6875,94.9374,95.2369,"[0.09571921526266035,0.013627866612042096]",4.0,"[0.09741384330692707,0.1011797905567444]",4.0,"[0.04786726180450857,0.19162710111708903]",100.0,"[-0.05772987422488833,-0.18300016822689782]",4.0,"[0.1422781976578974,-0.010741992845170346]",4.0,"[0.19254811440638886,-0.014470340480015319]",100.0,"[-0.13568024224497832,-0.12913154953302303]",100.0,"[0.10174466197834735,0.05453786383015893]",100.0,"[0.14932218767534186,0.11271525124521407]",100.0,"[0.06699568199331586,0.15514522004636971]",100.0,"[0.152784170616659,-0.09204975304434834]",100.0,"[-0.10440087860934745,0.019877842678014887]",100.0,"[0.1087181863870336,-0.13534705172842446]",100.0,"[-0.17977107127557115,-0.03714872947589336]",100.0,"[0.002470869835290332,0.03373410736823165]",4.0,"[-0.15493603078456522,-0.0874940638931292]",4.0,"[-0.09550516454072483,-0.12076980796255833]",100.0,"[0.051681313131869425,0.09638426940648087]",4.0,"[-0.012131172649641734,0.1631754711067064]",4.0,"[-0.007740102876397755,-0.1285105907193477]",100.0,"[-0.060564578518875214,0.11858579840327126]",100.0,"[-0.11847891488509332,0.10315160193489932]",100.0,"[-0.09037396650368053,-0.06845544539704568]",4.0,"[-0.038231129008153744,0.04760559925558378]",100.0,"[-0.14262334624697476,0.032690131678993976]",4.0,"[0.0018567716258503213,-0.0390648160381587]",4.0,"[-0.04932195251831571,-0.06800218645613273]",4.0,"[-0.06972723270001475,0.1708311952263126]",100.0,"[-0.1258120373100929,0.15124634842226614]",4.0,"[0.08985093018312441,-0.04099902735215711]",100.0,"[-0.19250571874543818,0.028680737422791917]",100.0,"[0.03381742724503973,-0.11435842436193903]",4.0,"[0.02,0.02]",96.3372,0.0,12.0,12.0,85.0,1.0,,,,,,,
,,,,,,,683795ff8d15104c4c64949e,6846a8475a52c3792082698b,2025-06-09_05h24.55.342,shape_ratio,2024.1.5,Win32,59.88023952,684250e4f00cb30b92d1fa88,,,,,,,,,,,96.3378,96.8376,,,97.088,97.2711,right,,,,,,,,0.9,0.1676,,,,,,,96.8376,97.0879,97.2712,"[0.09112283061250978,0.05197962291330726]",100.0,"[0.047678018729693385,0.039332445541262036]",100.0,"[0.02639076281065104,0.16658577499143057]",100.0,"[0.12073823035460675,0.11191024086360998]",100.0,"[0.09273993590090575,-0.1500356764073037]",100.0,"[-0.18676836531358637,0.060942223601232054]",100.0,"[0.14354179259601677,0.03640060026651569]",100.0,"[0.19535842779001714,-0.009967302480216388]",100.0,"[-0.04818547161764452,0.1784170167036307]",100.0,"[0.13935045799326576,-0.14321258778621007]",100.0,"[-0.02337662203104513,-0.09929414813943765]",100.0,"[-0.19423770686347896,-0.0051544635140361875]",100.0,"[0.07122776972136653,0.1326311160334858]",4.0,"[-0.13837677358504438,-0.0280165917058322]",100.0,"[-0.054995012191811285,0.052097637051661747]",100.0,"[0.028043613308933495,-0.18142829674845554]",100.0,"[-0.08386652297701258,-0.0022266364468644323]",100.0,"[0.03149611310417766,-0.09489107969721297]",100.0,"[0.08577950467761665,-0.10925498289499976]",100.0,"[-0.12292033260988064,0.07422903339765292]",100.0,"[-0.07497586282839636,0.10579527260285819]",100.0,"[-0.09723407444834412,-0.055293451728821746]",100.0,"[0.12152864682081158,-0.06273464847806094]",100.0,"[-0.010042965117428587,0.10766630802355179]",100.0,"[-0.0719108603226461,-0.17509619598307327]",100.0,"[-0.11151855188028093,0.1626266360322388]",100.0,"[-0.024833988777637865,-0.1402441284131899]",100.0,"[0.1454270421573519,-0.015983254569916748]",4.0,"[0.03018584286925258,-0.022942729566097945]",100.0,"[0.017429753603741212,0.07306434320064821]",100.0,"[-0.015125687363085715,-0.008770505710436296]",4.0,"[0.16715259741116817,-0.07546072077197792]",100.0,"[0.02,0.02]",98.3717,0.0,13.0,13.0,22.0,1.0,,,,,,,
,,,,,,,683795ff8d15104c4c64949e,6846a8475a52c3792082698b,2025-06-09_05h24.55.342,shape_ratio,2024.1.5,Win32,59.88023952,684250e4f00cb30b92d1fa88,,,,,,,,,,,98.3723,98.8718,,,99.1229,99.2225,left,,,,,,,,0.9,0.0905,,,,,,,98.8719,99.1227,99.2229,"[-0.0558439058716371,0.02084589111723753]",100.0,"[-0.09231345911775121,-0.004866489095255188]",100.0,"[-0.06890258064651338,-0.15136864207226897]",100.0,"[-0.09008299645273542,0.10601238868971948]",100.0,"[-0.002242286136431754,0.10402274732684955]",100.0,"[0.09997970115618844,-0.032854585208731996]",100.0,"[-0.09226364442340619,-0.06550716379019399]",100.0,"[-0.13966088932320328,0.08167881601997128]",100.0,"[-0.025016052763645776,0.17692106350669884]",100.0,"[-0.026722297004103064,-0.16394090126998803]",100.0,"[-0.16114243323645716,-0.08938867071974535]",4.0,"[0.13553964607931962,0.07598797777547572]",100.0,"[0.08782328689118382,-0.15709408929579585]",100.0,"[0.06716315720392992,-0.0013980480169015336]",4.0,"[0.09856754587151596,0.1702204787022686]",100.0,"[0.19988876248875004,0.006349466551851752]",100.0,"[0.038140719740270466,0.14763938642439764]",100.0,"[-0.13501789274637124,-0.14050801123148166]",100.0,"[0.029588194753658526,-0.06371461586200483]",100.0,"[-0.15664897449046827,-0.03671331588640764]",100.0,"[0.09445263820512143,0.06468380031115484]",100.0,"[-0.03437458272344489,-0.04960301407199673]",100.0,"[0.11802795171815392,0.014097404082696522]",100.0,"[0.039543137095659715,0.10198413398521174]",100.0,"[0.041795952800592936,0.05937978451565646]",100.0,"[0.1331332908704765,-0.11577423504647615]",100.0,"[0.18152647881158548,-0.07142060831802717]",100.0,"[0.002035643411106324,-0.009820053977002233]",100.0,"[-0.1295985880088637,0.1349479850764792]",100.0,"[0.14244588488015683,0.11715795785623706]",100.0,"[0.027236059955433517,0.19202809537062746]",100.0,"[-0.010852419143437646,-0.10761548197240683]",4.0,"[0.02,0.02]",100.3225,0.0,14.0,14.0,10.0,1.0,,,,,,,
,,,,,,,683795ff8d15104c4c64949e,6846a8475a52c3792082698b,2025-06-09_05h24.55.342,shape_ratio,2024.1.5,Win32,59.88023952,684250e4f00cb30b92d1fa88,,,,,,,,,,,100.3234,100.8234,,,101.0733,101.1399,right,,,,,,,,0.5,0.0556,,,,,,,100.8235,101.0733,101.1399,"[-0.11578500457628978,0.08571060999517173]",100.0,"[0.11238845818445829,0.03611455198816704]",100.0,"[0.06072795049532939,0.033507264666734024]",4.0,"[0.10754303385913165,0.10121095104808145]",4.0,"[-0.15459299998982173,0.06505355824352652]",100.0,"[0.1840118969583255,-0.05020320648866197]",4.0,"[-0.13736685340490604,-0.022037606814952666]",4.0,"[-0.0908159932618293,0.1730037394932308]",100.0,"[0.11679146894063949,-0.020149021358646324]",4.0,"[0.06807304426751674,0.08701416874161098]",100.0,"[-0.02185730971424006,0.04865250230528651]",100.0,"[-0.031456319129022726,-0.14705135445424802]",100.0,"[-0.1762404511444183,0.02218868698541537]",100.0,"[-0.009579988086589447,0.007527087735819482]",4.0,"[0.011154610861356978,-0.1422056934759711]",4.0,"[0.14905963452126925,0.12464321567984263]",100.0,"[-0.08872610233491639,-0.08427009816205586]",4.0,"[-0.09422008795273286,-0.12501660630551187]",100.0,"[-0.0011986296553228974,0.1409702043840517]",100.0,"[0.12496022945000536,-0.09691981634139388]",4.0,"[-0.056251217548679074,0.008335578193276901]",100.0,"[0.022709723837245847,0.05029087075005369]",4.0,"[-0.1188940513079519,0.14188409706182523]",100.0,"[0.09939557793062505,-0.06065820952336661]",4.0,"[0.07713993116304854,-0.15248456297089463]",4.0,"[0.09082360486144828,0.15227943775290906]",4.0,"[0.19985023892993897,0.007415753637972201]",4.0,"[-0.07722641963863873,-0.026256838226510662]",100.0,"[-0.18872835623432102,-0.024846929762151245]",100.0,"[-0.12824842605141296,-0.07561073110017943]",4.0,"[0.02691618768862336,-0.046893272963573596]",100.0,"[-0.031113587160376203,-0.1006572484516185]",4.0,"[0.02,0.02]",102.2398,0.0,15.0,15.0,116.0,1.0,,,,,,,
,,,,,,,683795ff8d15104c4c64949e,6846a8475a52c3792082698b,2025-06-09_05h24.55.342,shape_ratio,2024.1.5,Win32,59.88023952,684250e4f00cb30b92d1fa88,,,,,,,,,,,102.2402,102.74,,,102.9909,103.0416,left,,,,,,,,0.9,0.0455,,,,,,,102.7401,102.9906,103.0417,"[-0.1186085389566746,-0.046821658142168016]",100.0,"[0.13884524779778135,0.13618208466328827]",100.0,"[0.15932060834043993,-0.04398574240093025]",100.0,"[-0.04569254493611425,0.19049003037286963]",100.0,"[0.007198011977750453,-0.1445503113983101]",100.0,"[0.07316950597552682,-0.014426223568828275]",100.0,"[-0.07193501796080783,-0.1801710449761097]",4.0,"[-0.00616901055428998,0.12494751926712275]",100.0,"[-0.08665128836518847,0.10971724557956093]",100.0,"[0.02143351152898453,0.19482924253262854]",100.0,"[-0.09131474151830463,-0.1349137078426465]",100.0,"[0.1506440640907706,0.057561159167909624]",100.0,"[-0.145109373473019,0.03443596994748065]",100.0,"[0.07226956370520461,0.17197585633765058]",100.0,"[0.04352132649757566,-0.18652194987067108]",100.0,"[-0.08104034675692304,0.04820978615422098]",4.0,"[0.09564454027775612,-0.13656498826680064]",100.0,"[0.00044344619631776213,-0.04254737165950425]",100.0,"[0.030362060498303842,0.035210202734086905]",100.0,"[-0.1263440622255468,0.12911726587470782]",100.0,"[0.1044845538448179,0.038871394513943516]",100.0,"[0.14009966679155159,-0.13059020109776034]",100.0,"[0.1070898581577472,-0.08143007817066449]",100.0,"[-0.002805460107693617,0.0000710167371103418]",100.0,"[0.1873953482148707,0.00312116486006345]",100.0,"[0.06726678098879554,0.06196369253729876]",4.0,"[-0.1708328822877914,-0.04842450210923622]",100.0,"[-0.1476941504346623,-0.10065689123936544]",100.0,"[-0.03861173642633418,0.022537568314434937]",100.0,"[0.0252706899306823,0.08295358765427409]",100.0,"[-0.10339698635785073,0.1687887793567169]",100.0,"[-0.05998927265757316,0.14306370893843723]",100.0,"[0.02,0.02]",104.1414,0.0,16.0,16.0,13.0,1.0,,,,,,,
,,,,,,,683795ff8d15104c4c64949e,6846a8475a52c3792082698b,2025-06-09_05h24.55.342,shape_ratio,2024.1.5,Win32,59.88023952,684250e4f00cb30b92d1fa88,,,,,,,,,,,104.1423,104.6417,,,104.8919,104.9581,right,,,,,,,,0.55,0.0602,,,,,,,104.6419,104.8919,104.9581,"[0.10620595982757608,0.15969956078363026]",4.0,"[-0.09136597692257162,0.17719564308785032]",4.0,"[-0.15113145476439116,-0.12733522870648825]",4.0,"[0.1853137055611807,-0.0073142838131005404]",100.0,"[0.022493767744712404,0.05419436612147323]",100.0,"[-0.05379222836957541,0.040678689409794855]",4.0,"[0.007647374194597174,-0.046058761755034434]",4.0,"[-0.036818503721235,0.16349718453225057]",100.0,"[-0.17238021703358652,-0.03869978178841429]",4.0,"[0.16392300911736565,-0.07865185782126903]",100.0,"[0.024621144243900047,-0.10401974452996636]",4.0,"[0.08077901427634882,-0.006989668990863377]",100.0,"[0.16654785677447387,0.032300233360437525]",100.0,"[-0.07373439482155786,-0.12498406489280992]",4.0,"[0.11680163261888045,-0.15168291325513017]",100.0,"[-0.020060379986266377,0.010491093570182046]",100.0,"[-0.061525605676104746,0.1305003047267869]",100.0,"[0.02891721569800731,0.1705253243670969]",4.0,"[0.0901297846008794,0.05006459721644463]",4.0,"[0.006865323760943807,-0.17331359502421406]",4.0,"[-0.0769363879692832,-0.012705507829409528]",100.0,"[-0.014747224014143589,0.10140553141850735]",4.0,"[-0.1457778016831393,0.016265682393497797]",4.0,"[-0.02701135426857072,-0.1384085301095029]",100.0,"[-0.08006084930647342,-0.06810085347409389]",100.0,"[0.12912121814239588,-0.0996028648851073]",100.0,"[0.04903671751487503,-0.16131790099607937]",100.0,"[0.04543029695632902,-0.0658306614362683]",100.0,"[-0.03203736926532154,-0.07133386080753976]",100.0,"[-0.06770368098776972,-0.17887404244401864]",100.0,"[-0.12393104887227593,0.15009274134583553]",100.0,"[-0.07721191379176041,0.08649588143517935]",4.0,"[0.02,0.02]",106.0582,0.0,17.0,17.0,79.0,1.0,,,,,,,
,,,,,,,683795ff8d15104c4c64949e,6846a8475a52c3792082698b,2025-06-09_05h24.55.342,shape_ratio,2024.1.5,Win32,59.88023952,684250e4f00cb30b92d1fa88,,,,,,,,,,,106.0588,106.5589,,,106.8107,106.8814,left,,,,,,,,0.5,0.0514,,,,,,,106.559,106.8107,106.8816,"[0.1585667102422701,0.0872484804059635]",4.0,"[-0.0061745506719863745,0.09750609950802475]",4.0,"[-0.0660871924722882,0.16643213771262322]",4.0,"[0.12129171889531506,-0.0902786456538067]",100.0,"[-0.08434291674583096,0.035663354636740675]",4.0,"[-0.007163735016644029,-0.18621468435493335]",100.0,"[0.04292480738763589,-0.08507755559001257]",100.0,"[0.10558679574311271,-0.16189768785833258]",100.0,"[-0.1281849010983379,0.12149030542240136]",4.0,"[-0.18481241493916226,-0.012570145337374914]",4.0,"[-0.14123325650383103,0.04763574223807502]",100.0,"[-0.0435285621878321,-0.07815084195967334]",4.0,"[-0.1407495967364336,-0.007030447575266686]",100.0,"[-0.18087835146630038,0.06666255092939677]",100.0,"[-0.026761413339863056,0.011574569306590008]",4.0,"[-0.0892002809028212,-0.15665868776721936]",100.0,"[0.10370643649675393,0.14033262691417253]",4.0,"[0.09929642946722604,0.01712948508452395]",100.0,"[0.0560100148625393,-0.13019206654022072]",100.0,"[-0.0019925502823543856,-0.1332730907007447]",100.0,"[0.047452742360189745,0.03331745737202142]",100.0,"[-0.05368906855306975,-0.031115789118187184]",100.0,"[0.08216570528651128,0.0626210956189121]",4.0,"[0.1647774987504629,-0.11191558443040173]",4.0,"[0.054864081121887336,0.15953641135128893]",4.0,"[0.04694934451898236,0.10121048251908957]",4.0,"[0.0721153435243399,-0.1863071265634661]",4.0,"[-0.1389869201481835,-0.0845463108256384]",100.0,"[-0.06251093276592874,0.09719720711040128]",100.0,"[-0.0066665838857755165,0.1916257259967311]",100.0,"[0.16519264373098014,0.0019461094799671438]",4.0,"[-0.09333967584873554,-0.11434641483524809]",4.0,"[0.02,0.02]",107.9768,0.0,18.0,18.0,96.0,1.0,,,,,,,
,,,,,,,683795ff8d15104c4c64949e,6846a8475a52c3792082698b,2025-06-09_05h24.55.342,shape_ratio,2024.1.5,Win32,59.88023952,684250e4f00cb30b92d1fa88,,,,,,,,,,,107.9777,108.477,,,108.7327,108.7777,right,,,,,,,,0.6,0.0202,,,,,,,108.477,108.7326,108.7778,"[0.09530854248488169,0.0944017871575668]",100.0,"[0.08114390740220187,-0.08373299877217144]",100.0,"[0.015635311697382356,-0.05213481153623554]",4.0,"[0.14892616243143142,-0.03562092359013896]",100.0,"[-0.03105206941967586,0.12655210381484905]",4.0,"[-0.07660758002034732,0.07547635803523596]",100.0,"[0.14253684089614807,0.11860074069223768]",100.0,"[0.007687181638493668,0.10090948080013565]",4.0,"[-0.0058731546695894405,0.01846136992518718]",4.0,"[-0.11180029102113351,-0.020676949417305794]",4.0,"[-0.10206093298185696,0.16129094823111698]",4.0,"[-0.1432465825727645,0.10415126480075315]",100.0,"[-0.12822876076190895,-0.11993517692163008]",100.0,"[0.15484455060823218,0.06676317985612487]",100.0,"[-0.05056850965756651,-0.13909634235946244]",100.0,"[0.055644319850661234,-0.012612412382262331]",100.0,"[0.10765204533008679,0.0015110835968500712]",100.0,"[0.18715713335515272,0.01312180257093241]",100.0,"[-0.06459040641043093,-0.02637534213049633]",100.0,"[-0.12956422277026644,0.018796630724544353]",100.0,"[-0.04760932627027003,-0.06927648302003084]",4.0,"[0.0718174785804178,0.15443096400323664]",4.0,"[-0.16919883284237788,-0.040817669817486225]",4.0,"[-0.09207743505336428,-0.16567832030052018]",4.0,"[-0.05034880250170425,0.02971252640200035]",100.0,"[0.018666542351823853,0.1550625927844661]",4.0,"[-0.016943143478566472,0.18347954044733472]",100.0,"[0.03884544176730212,0.030813531404592986]",4.0,"[0.11898512997277001,-0.12467753702896886]",100.0,"[0.07335890977398744,-0.14495785369512215]",100.0,"[-0.006831505356546299,0.0585180569948142]",100.0,"[0.0427777833079908,-0.18946699713362805]",4.0,"[0.02,0.02]",109.8772,0.0,19.0,19.0,36.0,1.0,,,,,,,
,,,,,,,683795ff8d15104c4c64949e,6846a8475a52c3792082698b,2025-06-09_05h24.55.342,shape_ratio,2024.1.5,Win32,59.88023952,684250e4f00cb30b92d1fa88,,,,,,,,,,,109.8778,110.3783,,,110.6284,110.6444,left,,,,,,,,0.4,0.0007,,,,,,,110.3783,110.6283,110.6445,"[0.025006608053910417,-0.12446794683071334]",4.0,"[-0.012485947956560429,0.1473766407385755]",4.0,"[-0.037735112065576046,-0.056360189160013056]",4.0,"[0.13562384888573997,-0.05140327774816373]",4.0,"[-0.136854267496574,0.014668295529169432]",100.0,"[0.04230650757801813,0.1592530013103019]",4.0,"[0.041774264058627664,-0.18271273968058593]",4.0,"[0.10798608170126661,-0.09271735669584635]",4.0,"[-0.00417527612170995,-0.19330066879278973]",4.0,"[0.16914121903520174,-0.09147319706133485]",4.0,"[-0.030996540115446197,-0.12016870551143351]",4.0,"[-0.10382568548316426,-0.049288468875479934]",4.0,"[0.03596276789455187,0.06285751100356211]",100.0,"[0.07566601261185628,0.020279093784925414]",100.0,"[-0.07897206994035091,-0.16990055397866777]",100.0,"[0.09212829348188838,-0.1759223104828314]",4.0,"[0.04999650321074035,-0.0700567542598374]",100.0,"[-0.177357304895018,0.08842625893904554]",100.0,"[-0.0559442763732262,-0.003311140872302599]",100.0,"[-0.07191460484317919,0.12138665161628709]",4.0,"[-0.08219801731183612,-0.09160563625704557]",4.0,"[-0.13486742159872414,-0.12256530997662615]",100.0,"[-0.0767032945203022,0.06949146359038219]",4.0,"[0.024674188407527137,-0.03830226542826926]",100.0,"[0.05571898768051079,0.11486135424773294]",100.0,"[-0.16781396735565215,-0.0766464363717508]",4.0,"[0.14472833974333743,0.07644313946142553]",100.0,"[0.16370947026391755,0.03741668471666775]",100.0,"[0.11930959978485935,-0.14493622618823548]",4.0,"[0.029635919896214745,0.010545254920802835]",4.0,"[0.1009880217347085,0.10160360070471121]",4.0,"[0.01047674317149383,-0.0815027840819723]",100.0,"[0.02,0.02]",111.7438,0.0,20.0,20.0,159.0,1.0,,,,,,,
,,,,,,,683795ff8d15104c4c64949e,6846a8475a52c3792082698b,2025-06-09_05h24.55.342,shape_ratio,2024.1.5,Win32,59.88023952,684250e4f00cb30b92d1fa88,,,,,,,,,,,111.7444,112.2446,,,112.495,112.545,right,,,,,,,,0.55,0.0374,,,,,,,112.2446,112.4949,112.5451,"[-0.0696611070437301,0.09084570480321724]",100.0,"[0.10073426078196106,-0.006461600523729989]",4.0,"[-0.12278654245476518,-0.14066135925412113]",4.0,"[0.026354050136941882,0.10325275856415721]",4.0,"[0.009276087126623919,0.035758683410102375]",100.0,"[0.05301460605920552,-0.09638070057073392]",100.0,"[0.16856260170076018,0.017652412176319656]",100.0,"[-0.1728902758196364,0.0470324350326945]",4.0,"[-0.03164281258560877,-0.02513957765404164]",100.0,"[-0.0252463564482366,-0.15055781679872474]",4.0,"[0.006741493790933638,0.1927848134526732]",4.0,"[-0.14419696468390986,0.002427246947500936]",4.0,"[0.08577258593930466,-0.1452625512165018]",100.0,"[-0.11520377093607574,0.15278985106140336]",100.0,"[-0.06442825223609601,-0.09219327650764335]",100.0,"[0.01993666220124379,-0.0031725718983958593]",4.0,"[-0.17268358841056766,-0.03812981625944178]",100.0,"[0.17989718332352309,-0.06423412410461417]",4.0,"[0.014322719467030075,0.1456449040309677]",4.0,"[0.11719113211340923,0.11058096881415506]",100.0,"[0.05205437241049516,0.04326723087721162]",100.0,"[0.15336606443331194,-0.1102499055116142]",100.0,"[-0.06892358085278465,0.1831578523197332]",100.0,"[-0.02781752841216507,0.08828387403214003]",100.0,"[-0.09376742224528528,-0.039461831314175605]",100.0,"[0.04347119467567456,0.17489620913149623]",4.0,"[0.18530278120660335,0.05668924535241675]",4.0,"[0.08279579831502926,0.1392335303536636]",4.0,"[0.006560587208487086,-0.12492565789338704]",4.0,"[0.1054482417536355,-0.0707466079710524]",100.0,"[-0.1283663398898984,-0.0929946963161774]",100.0,"[0.10809779152664924,0.04700978580901595]",100.0,"[0.02,0.02]",113.6451,0.0,21.0,21.0,66.0,1.0,,,,,,,
,,,,,,,683795ff8d15104c4c64949e,6846a8475a52c3792082698b,2025-06-09_05h24.55.342,shape_ratio,2024.1.5,Win32,59.88023952,684250e4f00cb30b92d1fa88,,,,,,,,,,,113.6456,114.1457,,,114.3966,114.4466,left,,,,,,,,0.9,0.0384,,,,,,,114.1459,114.3966,114.4468,"[0.11678703157049243,-0.10293411166193059]",100.0,"[-0.11636449007890695,-0.11650401598773213]",100.0,"[-0.04959905988730359,0.18205390157075813]",100.0,"[-0.024421043883719445,0.05110764250786694]",100.0,"[-0.12898165568436365,0.0850319247318423]",100.0,"[0.011903534634331562,0.1475910841882767]",100.0,"[-0.04948831878431492,-0.052546068361223455]",100.0,"[-0.10447723680574852,0.139712777815344]",100.0,"[0.01632352703240041,-0.15974944832231794]",100.0,"[0.04194174694167815,-0.07691713040291048]",100.0,"[0.0009279521894652855,-0.09799441595966384]",100.0,"[0.05847826079673668,-0.12939622548974014]",100.0,"[-0.09197894540708926,-0.029398450375766504]",100.0,"[0.11357409508643822,0.07960708714986313]",100.0,"[0.010898243903325638,0.024190792468796317]",100.0,"[0.08585568054672871,-0.07613494093445443]",100.0,"[-0.13016858770959744,-0.04314621265944966]",4.0,"[-0.19261936841546112,0.05369190863595996]",100.0,"[0.13482760280005204,0.03852867433862362]",100.0,"[0.07168410291031374,0.12078384883452091]",100.0,"[0.09321837178562266,0.029987611167759876]",100.0,"[0.04804026184013443,0.18486166550435643]",100.0,"[0.17449081987115703,0.06251512742729817]",100.0,"[0.05690860502857461,0.0743125409826332]",4.0,"[0.08102703174272186,-0.03085777339863314]",100.0,"[-0.06105238278603325,-0.16692702752371874]",100.0,"[-0.19373433505219723,-0.009233482284245446]",100.0,"[-0.09385092765712341,0.03410216614825283]",100.0,"[0.1300967555409445,-0.02387623197402832]",100.0,"[-0.053618376724056165,-0.10593093558800389]",100.0,"[-0.1273425577011188,-0.0031510216469294145]",4.0,"[0.1205093644208979,0.1356176614323251]",100.0,"[0.02,0.02]",115.5461,0.0,22.0,22.0,11.0,1.0,,,,,,,
,,,,,,,683795ff8d15104c4c64949e,6846a8475a52c3792082698b,2025-06-09_05h24.55.342,shape_ratio,2024.1.5,Win32,59.88023952,684250e4f00cb30b92d1fa88,,,,,,,,,,,115.5468,116.0458,,,116.2964,116.3643,right,,,,,,,,0.9,0.057,,,,,,,116.0458,116.2963,116.3644,"[-0.012745639410206957,-0.03670137300268904]",100.0,"[-0.16383863170402554,-0.11135270227123426]",100.0,"[0.04504606475934098,-0.008409949331459695]",100.0,"[-0.053088708364047214,0.17792169507132966]",4.0,"[0.014467644904205733,-0.07209471070711386]",100.0,"[-0.0978530777310954,0.0815132092542984]",100.0,"[0.10383691762156311,0.16893503282576558]",100.0,"[0.08314904509649139,0.12393540076073332]",100.0,"[0.012607312344439795,-0.13312620105044673]",100.0,"[-0.09706322758336852,-0.11309217588789454]",100.0,"[-0.006779428597653637,0.06055279575550403]",100.0,"[-0.09642101228214738,0.03188969430087836]",100.0,"[0.008738317170382532,0.11544719991386225]",100.0,"[0.056851729777751325,-0.18066233410381102]",100.0,"[-0.1887266612685708,0.049710427443729416]",100.0,"[-0.037303180346348594,0.10730825429935056]",100.0,"[0.01525184222097166,-0.18063909412364862]",100.0,"[0.13955005721247354,-0.06076655351910459]",100.0,"[-0.040353631719801865,-0.12285980169781764]",4.0,"[0.06764244479934399,-0.11115985756946467]",4.0,"[0.1356530468967814,0.07139094930805939]",100.0,"[0.1683828027040965,0.005600704240760768]",100.0,"[-0.14567681523783857,0.024473068619063464]",100.0,"[0.1366854620580599,0.14282600765186024]",100.0,"[-0.094591143784614,-0.011754390620775459]",100.0,"[0.043725425917085975,0.08079059822461865]",100.0,"[0.08119194166464194,-0.052704172582499716]",100.0,"[-0.09266300623794028,0.1594106235923747]",100.0,"[0.10784883171604347,-0.014794543358354428]",100.0,"[0.08167240848163802,0.03732340552245289]",100.0,"[-0.1594493629054204,-0.027621495342357714]",100.0,"[-0.12840759005624625,-0.05367579878422516]",100.0,"[0.02,0.02]",117.4635,0.0,23.0,23.0,9.0,1.0,,,,,,,
,,,,,,,683795ff8d15104c4c64949e,6846a8475a52c3792082698b,2025-06-09_05h24.55.342,shape_ratio,2024.1.5,Win32,59.88023952,684250e4f00cb30b92d1fa88,,,,,,,,,,,117.4641,117.9634,,,118.2144,118.3309,left,,,,,,,,0.55,0.0993,,,,,,,117.9635,118.2142,118.331,"[0.1302148378075945,-0.048590454024974826]",100.0,"[-0.10477637877627644,-0.0478211908628666]",4.0,"[-0.07703662965317219,0.17099131745289284]",4.0,"[-0.1330901489029829,0.03580410439641773]",100.0,"[-0.020647914315602,0.14949290705766852]",100.0,"[0.016414973475270104,-0.11110998716823015]",100.0,"[-0.14760663269291752,-0.007672848024024522]",100.0,"[0.13405717374896597,0.12983642941352258]",4.0,"[0.06910647705654088,-0.011677561337171143]",4.0,"[0.01939549302174881,0.1404290535126551]",100.0,"[-0.1284988958688527,-0.14647379485057432]",100.0,"[0.07137447442369381,0.1740761524366231]",100.0,"[0.04119245718790125,0.08742820722371511]",4.0,"[-0.03719864451845397,-0.059892782179021255]",100.0,"[0.06046797271790271,-0.09548158092526302]",100.0,"[-0.02225447690553645,0.023844087489674537]",100.0,"[-0.07094118814787716,0.006388022148811131]",4.0,"[0.06299569380089193,-0.16777217355154425]",4.0,"[0.15225971890931578,0.0027566477088836684]",4.0,"[-0.05123567435828682,-0.12841782449050734]",100.0,"[-0.01717473254511349,-0.15823978083131154]",100.0,"[0.05948257314541743,0.13079236052943916]",4.0,"[0.19346344879091326,-0.003938787104990745]",4.0,"[0.09845698116796703,0.09447386787753247]",100.0,"[-0.160460006653756,-0.07124171211658635]",100.0,"[0.004375730444359232,-0.006684607153427983]",4.0,"[0.1382152895460694,0.05088767372607568]",100.0,"[-0.08820771306196154,-0.10221051075859579]",4.0,"[-0.10740138904247051,0.11016566458068094]",4.0,"[-0.08668425504902685,-0.16738915349154182]",100.0,"[0.18318249721423652,-0.044128331708231355]",4.0,"[-0.1665799209147957,0.10965906313591449]",100.0,"[0.02,0.02]",119.4313,0.0,24.0,24.0,68.0,1.0,,,,,,,
,,,,,,,683795ff8d15104c4c64949e,6846a8475a52c3792082698b,2025-06-09_05h24.55.342,shape_ratio,2024.1.5,Win32,59.88023952,684250e4f00cb30b92d1fa88,,,,,,,,,,,119.4324,119.9317,,,120.1816,120.2483,right,,,,,,,,0.5,0.057,,,,,,,119.9317,120.1816,120.2484,"[0.07116536696489384,-0.056749547347751096]",100.0,"[-0.028990918196077818,0.13104558379582143]",100.0,"[-0.10986025522385001,-0.13718749055548593]",4.0,"[-0.008740523455547497,-0.11510425828495388]",100.0,"[0.1493693244861853,-0.03573736808664409]",4.0,"[-0.11824345583012996,-0.009737846169027717]",100.0,"[0.04340449986347353,-0.11612360188546705]",4.0,"[0.09671234625069407,0.1622574218815891]",100.0,"[-0.03107065187599297,0.03761158945920136]",100.0,"[0.008939596647853786,-0.009389686184629513]",4.0,"[0.08747611547379622,-0.15932299936459401]",4.0,"[-0.03229886453994424,-0.07763738969606734]",100.0,"[0.10910641705890282,-0.03157250737906503]",4.0,"[-0.07540256856462811,0.07663749815027864]",4.0,"[-0.1141404863425681,0.10493411310231723]",4.0,"[-0.17427503407398123,0.021950808195302336]",4.0,"[0.051452935174699635,0.04466304224433005]",100.0,"[-0.058577839791467363,0.17247196137153858]",4.0,"[0.04521623746562093,0.11488927163514286]",100.0,"[-0.07433044675657162,-0.08803849814373294]",4.0,"[0.11444549309886942,0.1049283963007431]",100.0,"[-0.1590673201656037,-0.05755184931100159]",100.0,"[0.11992120885798815,0.013911285814448166]",4.0,"[-0.06082256245444406,-0.0464337757315321]",100.0,"[-0.1102983672149225,0.03116586899879137]",4.0,"[-0.1847392940037863,-0.017948327526249645]",100.0,"[-0.04905162912955546,-0.15775937130698972]",4.0,"[0.1980806804874521,-0.023046508621301347]",4.0,"[0.18477021763531956,-0.06783371101406988]",100.0,"[0.1849078312831507,0.04585985416739354]",100.0,"[0.12574065589304567,-0.13259478971066554]",100.0,"[-0.1612011566834778,-0.11383985792377636]",4.0,"[0.02,0.02]",121.3485,0.0,25.0,25.0,112.0,1.0,,,,,,,
,,,,,,,683795ff8d15104c4c64949e,6846a8475a52c3792082698b,2025-06-09_05h24.55.342,shape_ratio,2024.1.5,Win32,59.88023952,684250e4f00cb30b92d1fa88,,,,,,,,,,,121.3493,121.8485,,,122.1028,122.7364,left,,,,,,,,0.5,0.6165,,,,,,,121.8486,122.1028,122.7366,"[0.08076144227750312,0.04952026822826559]",4.0,"[-0.008980553310277122,-0.05828182853392346]",4.0,"[0.022689373415863995,-0.10927079567889905]",100.0,"[0.10961039770842679,0.007778629549276432]",100.0,"[-0.08836075788014247,-0.056441456308761934]",100.0,"[-0.05370252053211316,0.11315461651535189]",100.0,"[0.06536058008390283,0.012324569293593338]",100.0,"[0.16201767098122274,-0.06332563095726383]",100.0,"[-0.040597964285678634,-0.15297673244570936]",4.0,"[-0.16178783918615275,-0.039588760903224635]",100.0,"[0.01816239508124853,-0.15980203778215132]",100.0,"[-0.0039770833811852745,0.0658748426412837]",4.0,"[0.10725050107300822,-0.13315734683844985]",100.0,"[0.07836509013577939,-0.1786941165166746]",4.0,"[-0.17496205820650598,-0.07831448031876785]",100.0,"[-0.04500720603639663,0.1938735270946795]",100.0,"[0.18068251885707606,0.06945183656140626]",100.0,"[-0.19478237791140926,-0.013586341520289308]",100.0,"[0.16110949913396438,0.0014091013248093377]",4.0,"[-0.0500838574283183,-0.11118846780697349]",4.0,"[-0.1629392861838494,0.11492259131928144]",100.0,"[-0.09918366832461452,-0.15325583394976175]",4.0,"[0.13016669170241715,0.10113778016648832]",4.0,"[-0.1301440788263347,-0.09974627437002768]",4.0,"[0.03915765754756214,0.09859235682028777]",100.0,"[-0.1340734233574552,0.058828145259907566]",4.0,"[0.11416946411363578,-0.05426313278762128]",4.0,"[-0.06820885075554256,0.15178155400203014]",4.0,"[0.05799709549928765,0.18866159141680566]",100.0,"[-0.01308109754910843,-0.19864764450689965]",4.0,"[-0.12654176056414532,0.15149697640323778]",4.0,"[-0.08430780130641981,0.060730421553938596]",4.0,"[0.02,0.02]",123.8336,0.0,26.0,26.0,114.0,1.0,,,,,,,
,,,,,,,683795ff8d15104c4c64949e,6846a8475a52c3792082698b,2025-06-09_05h24.55.342,shape_ratio,2024.1.5,Win32,59.88023952,684250e4f00cb30b92d1fa88,,,,,,,,,,,123.8347,124.3334,,,124.5855,124.7871,left,,,,,,,,0.55,0.1836,,,,,,,124.3335,124.5855,124.7872,"[0.14175099619402332,-0.04994745355095838]",100.0,"[-0.08023786796440746,-0.05731588705715875]",4.0,"[0.16566040747149025,0.10474820709499676]",100.0,"[0.015138549738742279,-0.12990151509135806]",4.0,"[-0.13731519587122581,0.09244958352891305]",4.0,"[0.09894492920840309,0.15747497609154618]",100.0,"[0.009672346457851767,-0.06898448711622678]",100.0,"[0.17360010304583587,-0.09508835820811225]",4.0,"[0.017604857498362336,0.19814149515890497]",100.0,"[0.0722385994995077,0.020211410929522108]",100.0,"[-0.1192300615986264,-0.1480619854134738]",4.0,"[-0.10018930616273126,0.07145657185584593]",4.0,"[0.11880132410318509,0.004041897709227723]",100.0,"[-0.008491433211409619,0.13678679147003828]",4.0,"[0.08947164891169085,-0.06545183331173901]",4.0,"[-0.14820691535154157,0.051787005741765674]",100.0,"[-0.07068125625440759,0.17748409333717868]",100.0,"[-0.04620841941541961,0.0003382486534454614]",4.0,"[0.0249808174620128,0.054118433386719955]",100.0,"[-0.052449013819720475,0.0982184045064216]",100.0,"[0.07008052488746085,-0.1431518589635389]",4.0,"[-0.04040243530100931,-0.10412999488428232]",4.0,"[-0.12073086895742773,0.15150912009029777]",100.0,"[-0.050435553290921524,-0.19353134298792932]",100.0,"[0.01883046885957701,-0.024675764851251947]",100.0,"[-0.140469913416778,-0.08734319710550578]",4.0,"[0.004364922065667893,-0.19472798505662714]",100.0,"[-0.1335038891810797,0.005273505443561588]",100.0,"[0.11133074326724655,-0.1254906884842537]",4.0,"[0.1729647576708469,-0.01399121988659333]",100.0,"[0.1344589106949051,0.05315043846842214]",4.0,"[-0.19899350460895968,0.01702330304862096]",100.0,"[0.02,0.02]",125.8838,0.0,27.0,27.0,82.0,1.0,,,,,,,
,,,,,,,683795ff8d15104c4c64949e,6846a8475a52c3792082698b,2025-06-09_05h24.55.342,shape_ratio,2024.1.5,Win32,59.88023952,684250e4f00cb30b92d1fa88,,,,,,,,,,,125.8845,126.3841,,,126.6372,126.735,right,,,,,,,,0.9,0.0687,,,,,,,126.3842,126.6372,126.735,"[0.0445800478078816,0.14562438395527322]",100.0,"[0.08268364773168645,0.08669755195083852]",100.0,"[-0.023755090151088037,-0.06527271014329772]",4.0,"[-0.04639762373805439,0.05262999444256829]",100.0,"[0.017631742213307204,0.05826250683884443]",100.0,"[0.16915085628534446,-0.014137197099416288]",100.0,"[-0.016504593631034223,-0.18723347977853202]",100.0,"[-0.12185232201150205,-0.03457840609056507]",4.0,"[-0.043857905720428816,0.1742366363191509]",100.0,"[0.1271285648145868,0.038155965289775155]",100.0,"[-0.06970143146297854,-0.05714201695704573]",100.0,"[0.14455851521881322,0.08533178701907569]",100.0,"[-0.04543384013818635,-0.11895007422329269]",100.0,"[-0.15763470188247813,-0.12045030692690024]",100.0,"[-0.02715812035349591,0.0970423294072522]",100.0,"[-0.12891029342819463,0.06357239892967297]",100.0,"[0.06021350802787404,-0.1157854647076901]",100.0,"[-0.00024017567318261135,0.16690968688884295]",100.0,"[0.013013478413173896,-0.13844966846102794]",100.0,"[0.044062463838586835,0.015087118136436808]",100.0,"[-0.1663082663832713,-0.05425333557315785]",100.0,"[0.03902097059076499,0.18850748196844483]",100.0,"[0.14351989381189717,-0.06809446665799881]",100.0,"[-0.1825990674611972,0.030002443712961194]",4.0,"[-0.1271490671906839,0.14613191222844923]",100.0,"[0.1177900494813744,0.1396715703157391]",100.0,"[-0.08689124301763779,0.01750870175869333]",100.0,"[0.18057703650318185,0.030293650946271837]",100.0,"[0.004981058428230528,-0.014644170123133337]",100.0,"[-0.05992243857789947,-0.1783754174132772]",100.0,"[0.09155581566738331,-0.08435011256287868]",100.0,"[0.12253704319320076,-0.15300043943028385]",100.0,"[0.02,0.02]",127.8348,0.0,28.0,28.0,12.0,1.0,,,,,,,
,,,,,,,683795ff8d15104c4c64949e,6846a8475a52c3792082698b,2025-06-09_05h24.55.342,shape_ratio,2024.1.5,Win32,59.88023952,684250e4f00cb30b92d1fa88,,,,,,,,,,,127.8357,128.336,,,128.5856,128.6352,left,,,,,,,,0.5,0.0436,,,,,,,128.336,128.5855,128.6353,"[0.03331858008087664,0.06212811544406474]",100.0,"[-0.09488230608476599,0.03351882828339472]",4.0,"[0.17741906807346702,0.05758102355662332]",4.0,"[0.15538949599800048,-0.07740955906673293]",100.0,"[-0.1702353756578065,-0.05225384975476805]",4.0,"[-0.050410924841283095,-0.19295477058048927]",100.0,"[-0.10502202831747945,0.10587672597522173]",4.0,"[0.0774894193707888,0.1828312812756122]",100.0,"[0.1627059891641258,-0.020656814950475885]",100.0,"[0.10021402296363101,0.009416793896651973]",100.0,"[0.02603912519945165,0.015876848069154296]",100.0,"[0.08684193732315323,0.0851151250618047]",4.0,"[0.017891841186678237,0.19629466330287051]",100.0,"[0.044579237888303674,-0.13467450987675797]",100.0,"[-0.14706082175232155,0.03965266095270964]",4.0,"[-0.03382814748250985,-0.05396834328878903]",100.0,"[0.0017685316181918498,-0.16132016156263632]",4.0,"[0.01646434806093173,-0.10328233374038587]",4.0,"[0.11721467827243315,0.054797260960236994]",4.0,"[-0.019862297989946775,0.09334227144633835]",4.0,"[-0.06421023517402785,-0.1155673781800698]",4.0,"[-0.08201140802431815,0.14024147556897448]",100.0,"[-0.11339810985828061,-0.15825105318273058]",4.0,"[-0.021676003112371032,-0.008558494591545696]",4.0,"[-0.022573177272336695,-0.11368133608102447]",100.0,"[0.12123914583350233,-0.11314221097569034]",4.0,"[-0.07368485841837674,-0.06331945921925515]",100.0,"[-0.1375727861058761,-0.11031235535875338]",100.0,"[0.08210774753952083,-0.09574613275089454]",4.0,"[0.16132636745396092,0.1158806020116181]",100.0,"[-0.028097009245105088,0.15341635563981953]",4.0,"[-0.10019163171106946,-0.09494242661125622]",100.0,"[0.02,0.02]",129.7362,0.0,29.0,29.0,100.0,1.0,,,,,,,
,,,,,,,683795ff8d15104c4c64949e,6846a8475a52c3792082698b,2025-06-09_05h24.55.342,shape_ratio,2024.1.5,Win32,59.88023952,684250e4f00cb30b92d1fa88,,,,,,,,,,,129.7375,130.2355,,,130.4872,130.5369,right,,,,,,,,0.45,0.038,,,,,,,130.2356,130.4871,130.537,"[-0.037326674334404064,-0.07476562961270003]",4.0,"[0.018229183807043883,0.09209654136223346]",4.0,"[-0.03244317364944751,0.11150869845321194]",100.0,"[0.14862512598804886,-0.03898036502771193]",100.0,"[0.06307892100815234,-0.06727735956685009]",100.0,"[-0.14474180929192884,-0.10174524285421345]",4.0,"[0.11673604355132199,0.14728336530729585]",100.0,"[0.16505765533024563,0.09931012500980373]",100.0,"[-0.09347256650402658,0.1282031077197759]",4.0,"[-0.10675129673261327,0.0702855320092232]",4.0,"[-0.03868265341017135,0.06649162125066993]",4.0,"[-0.15532601563220336,0.053025429128816984]",4.0,"[0.06082869850671009,-0.15180708570671894]",100.0,"[0.10705394678464315,-0.02312426501814473]",4.0,"[-0.19871025111423976,-0.015174291029668517]",4.0,"[0.11152217058350371,-0.06950015415109673]",4.0,"[-0.10370197168987705,-0.1704733450438254]",100.0,"[0.19462566371932785,-0.027457664632941664]",100.0,"[0.14168355258938778,0.040335256717138696]",4.0,"[-0.085094083910946,-0.08259763204172373]",100.0,"[-0.1690574364903641,-0.049242882992013175]",100.0,"[-0.14219251102235678,0.13859467142107468]",4.0,"[0.08854651897937252,-0.11781001500686084]",100.0,"[-0.06655296140500652,-0.15506544566695601]",100.0,"[-0.00006022733641279321,0.16925600853195683]",4.0,"[0.019243589872067236,0.00260376036160426]",4.0,"[-0.09725988509813636,0.0049300659824007415]",4.0,"[0.010955553072679603,-0.1287215141787575]",100.0,"[0.039670281940061974,0.14437088875235743]",100.0,"[0.07107915958001285,0.027701595935473514]",4.0,"[-0.044048473008839364,0.1693304710818954]",4.0,"[0.0247660763722878,-0.18673034670862534]",4.0,"[0.02,0.02]",131.6366,0.0,30.0,30.0,146.0,1.0,,,,,,,
,,,,,,,683795ff8d15104c4c64949e,6846a8475a52c3792082698b,2025-06-09_05h24.55.342,shape_ratio,2024.1.5,Win32,59.88023952,684250e4f00cb30b92d1fa88,,,,,,,,,,,131.6375,132.1372,,,132.3877,132.4538,left,,,,,,,,0.5,0.0506,,,,,,,132.1372,132.3875,132.4538,"[-0.12471173353307724,0.09078045063701007]",100.0,"[0.05280567243629368,-0.09287670711946946]",100.0,"[-0.12243188599956625,0.14338998108058873]",100.0,"[0.0016728977468664628,0.06323024419701008]",4.0,"[-0.09071673645408382,0.06819137675450203]",100.0,"[0.12470157337942492,-0.06937850055839286]",100.0,"[0.008494173223998206,-0.11361739320275464]",100.0,"[-0.13841449927962612,0.04004156251117622]",100.0,"[-0.011065697679045949,0.19535323629123608]",4.0,"[-0.11087800380997218,-0.07313723561004161]",100.0,"[0.1179840633001323,-0.029690790779558947]",4.0,"[-0.06316076985559557,0.13178718878917153]",4.0,"[0.06127202727887151,0.0910005749373084]",4.0,"[-0.07244250382961885,-0.05770544861526611]",4.0,"[0.011678004110237719,-0.006445789100428783]",4.0,"[0.04817335343370571,-0.1860992604805117]",4.0,"[-0.18508649564450344,0.012133193571452526]",100.0,"[-0.03720441939311068,0.013532818202686658]",100.0,"[-0.11105199908027816,-0.02438948814255786]",4.0,"[0.09824698716327677,0.16988213988246983]",4.0,"[0.16574086516276273,-0.0960909220054417]",4.0,"[-0.0777768540361583,-0.12668083194259808]",100.0,"[0.11364707111691089,-0.14230037689197528]",4.0,"[0.06026568618871201,-0.1397744019215523]",100.0,"[0.051273088712961726,-0.03837889799309021]",4.0,"[-0.1414927885632606,-0.10511095331795416]",4.0,"[0.11552640490380793,0.031646646463394316]",100.0,"[0.1618622993940179,-0.03156991071848328]",100.0,"[-0.0532507045974673,-0.18024202963385708]",4.0,"[-0.10014685991219849,-0.16444465618854592]",100.0,"[-0.07847190103604683,0.00379033218956983]",4.0,"[0.04209384406961267,0.17358618928323752]",100.0,"[0.02,0.02]",133.5547,0.0,31.0,31.0,106.0,1.0,,,,,,,
,,,,,,,683795ff8d15104c4c64949e,6846a8475a52c3792082698b,2025-06-09_05h24.55.342,shape_ratio,2024.1.5,Win32,59.88023952,684250e4f00cb30b92d1fa88,,,,,,,,,,,133.5559,134.054,,,134.3045,134.5886,right,,,,,,,,0.6,0.272,,,,,,,134.054,134.3045,134.5889,"[-0.1885761256260819,-0.03947704943140265]",4.0,"[-0.1694699566243044,0.07847143960133655]",100.0,"[0.09085751388927123,-0.023724152406040103]",4.0,"[0.15858011017869447,0.06861850014720464]",100.0,"[-0.12006995766684103,0.04615261566491693]",100.0,"[0.07072400792379036,-0.10375865369434005]",4.0,"[0.000037732903464555336,0.13749964399879808]",100.0,"[-0.03911914914426608,0.025316003628957917]",100.0,"[0.14154226919039067,-0.12341230102525151]",100.0,"[0.0067413242111192895,-0.07284303762856674]",100.0,"[-0.01213716885505205,-0.12313156211070465]",4.0,"[-0.1489621256012495,0.13016809292730874]",4.0,"[0.08582639428366858,0.1614871297106133]",4.0,"[-0.0905608792038762,-0.1103199453346612]",100.0,"[-0.055456186191881834,0.06227285378794069]",100.0,"[0.05927742481002588,0.12077602276622733]",100.0,"[-0.11628612861138674,0.00001201482217391058]",4.0,"[-0.039031641611035346,0.11981277094473489]",4.0,"[-0.15593711838678861,-0.1134662513528837]",100.0,"[-0.07320528028672565,-0.01829625805265309]",4.0,"[-0.023329837100250272,-0.16515962710550805]",100.0,"[-0.11679077629857687,-0.06364679063667747]",100.0,"[0.15598164040522317,-0.014577601579794094]",100.0,"[0.131004121359742,-0.04855632928079833]",4.0,"[0.03168078318329352,-0.020745488156956045]",100.0,"[-0.047628391238676605,-0.06514610582043816]",100.0,"[0.10857005201827401,0.016418974847523526]",100.0,"[0.19743576496474954,-0.008388385021078628]",4.0,"[0.07831718785937246,-0.16398856163817274]",100.0,"[0.009394743694706359,0.04291483161687406]",4.0,"[0.07629306360919072,0.06912093531284771]",4.0,"[-0.07615899964268345,0.16057371780276308]",100.0,"[0.02,0.02]",135.6883,0.0,32.0,32.0,39.0,1.0,,,,,,,
,,,,,,,683795ff8d15104c4c64949e,6846a8475a52c3792082698b,2025-06-09_05h24.55.342,shape_ratio,2024.1.5,Win32,59.88023952,684250e4f00cb30b92d1fa88,,,,,,,,,,,135.6892,136.1891,,,136.4389,136.5221,left,,,,,,,,0.5,0.066,,,,,,,136.1892,136.4388,136.5222,"[-0.02291278332089829,0.0792087049120666]",4.0,"[0.008732815216387364,0.16136556147065753]",4.0,"[-0.17766790918410416,-0.0012548543670703619]",4.0,"[-0.12157265122194692,-0.033586971838710435]",100.0,"[-0.08408720020476419,0.009143375033676314]",100.0,"[-0.06424094946935599,-0.17297126015345785]",4.0,"[0.07160460377423837,0.16266523641496994]",100.0,"[0.16138522514245884,-0.0596722811096416]",100.0,"[0.0018602789260202778,0.014047157386392272]",100.0,"[-0.09822540782211102,-0.10449117000291934]",4.0,"[0.028695892694030417,0.06964048405125112]",4.0,"[0.09857728020179007,0.036064261570109404]",100.0,"[-0.11410566418629785,-0.15247851873950075]",100.0,"[0.031271926777646904,-0.16549128005136696]",100.0,"[0.07894004606886867,0.0998401423896603]",4.0,"[0.06843935431702901,-0.10545933933770726]",4.0,"[-0.043925865569590994,0.1621787695300335]",100.0,"[-0.11980286083651616,0.047879046796923556]",4.0,"[0.1516831433012786,-0.10026820574523183]",100.0,"[-0.08131743427155498,0.07803120846166753]",100.0,"[0.1849853108309007,0.012543405225092867]",4.0,"[0.10569162945585209,-0.08194697188799546]",100.0,"[0.11434160676362916,-0.13622312369516543]",4.0,"[-0.1698666969801231,0.054510770044290294]",100.0,"[0.1508647327887984,-0.020211667835685516]",4.0,"[-0.004742989760457994,-0.12042489591254094]",4.0,"[0.12122870300687386,0.08623086406918509]",100.0,"[-0.04076514224826447,-0.02191968349646508]",100.0,"[-0.1634048597323363,-0.07389339973866471]",4.0,"[0.16178879498618132,0.05229160558045502]",100.0,"[-0.010818593588324269,-0.18132194672753618]",4.0,"[0.026467307066905175,-0.0908381217369474]",4.0,"[0.02,0.02]",137.6227,0.0,33.0,33.0,95.0,1.0,,,,,,,
,,,,,,,683795ff8d15104c4c64949e,6846a8475a52c3792082698b,2025-06-09_05h24.55.342,shape_ratio,2024.1.5,Win32,59.88023952,684250e4f00cb30b92d1fa88,,,,,,,,,,,137.6235,138.123,,,138.3772,138.6425,left,,,,,,,,0.9,0.2489,,,,,,,138.1231,138.3771,138.6425,"[-0.08415758159828532,0.05661257602025009]",100.0,"[-0.01935992741141648,0.11789412625345483]",100.0,"[-0.07243869269005752,-0.021901707468414057]",100.0,"[0.18857450898997216,0.019343745399072087]",100.0,"[-0.0743707756337368,0.1777433371912245]",100.0,"[-0.07368155895696102,-0.07245044066827629]",100.0,"[0.062189643979269876,0.08056854274344136]",4.0,"[0.1153949012631735,0.04953477557344575]",100.0,"[0.13522341165220633,0.09362789085646296]",100.0,"[0.1669248086423228,-0.06925077170837647]",100.0,"[0.11998211985399704,-0.03737921921211221]",100.0,"[0.06940188193551275,-0.1631213222441471]",100.0,"[-0.14278294636150368,0.05328444445207521]",100.0,"[-0.015403541857853831,0.06903125576210341]",100.0,"[0.07303276017904418,0.15353342556850086]",4.0,"[-0.0653110904995894,0.10666498424973098]",100.0,"[0.010662068532232533,-0.1575384109233287]",100.0,"[-0.10362949636100463,0.13042795453606304]",100.0,"[-0.036259008999544276,-0.15285083738504257]",100.0,"[0.07051314133795027,-0.10182666615489816]",100.0,"[-0.11222987774686105,-0.11470069117802512]",100.0,"[-0.1525265970844813,-0.11194812179922314]",100.0,"[-0.1453671177276102,-0.0007673662136357476]",100.0,"[0.020431443389953827,0.19751745672169332]",100.0,"[0.0009526318535962375,-0.0708197572359313]",100.0,"[-0.19159416284988232,0.04049681008350459]",100.0,"[0.16388345138734453,0.060558347336059956]",100.0,"[0.03951100885810213,-0.05271227552540098]",100.0,"[-0.09929630238511754,-0.16011137736295022]",100.0,"[-0.029817669315162696,0.01737929165504279]",4.0,"[0.10552880789107683,-0.1440120660864651]",100.0,"[-0.15736868666258008,-0.053728450965342935]",100.0,"[0.02,0.02]",139.7412,0.0,34.0,34.0,25.0,1.0,,,,,,,
,,,,,,,683795ff8d15104c4c64949e,6846a8475a52c3792082698b,2025-06-09_05h24.55.342,shape_ratio,2024.1.5,Win32,59.88023952,684250e4f00cb30b92d1fa88,,,,,,,,,,,139.742,140.2412,,,140.4939,140.6581,left,,,,,,,,0.6,0.1364,,,,,,,140.2412,140.4939,140.6581,"[0.14246128543516312,0.08949258459438371]",100.0,"[0.16762930381552257,0.05131260422927344]",4.0,"[-0.11066003520283628,-0.10276518492388038]",100.0,"[-0.18954960405489915,-0.05561446497036857]",4.0,"[-0.00384901372225983,-0.1817334547076068]",100.0,"[-0.08641731526321793,-0.04575792944060069]",100.0,"[0.011762470331661846,-0.08433639793796315]",100.0,"[-0.013970380925901088,0.10435732657675865]",100.0,"[0.12888187401370402,-0.14385376780701492]",100.0,"[-0.14732254344882154,-0.08629522986475209]",4.0,"[0.043008532385142836,0.020917862563091603]",4.0,"[-0.039523607321530374,-0.01695408099153681]",4.0,"[0.08485457707743334,-0.06331935405834178]",4.0,"[0.14878656619429992,-0.06459814801327385]",100.0,"[-0.04481033349244526,-0.18083200082465795]",100.0,"[-0.1365609427266482,0.13763628489646634]",100.0,"[-0.03660215041352259,0.18036415882390716]",100.0,"[0.0755109368678086,0.18420152417406987]",100.0,"[0.09567541709179123,-0.0069866936743978375]",4.0,"[0.052744652184972825,0.11812534349682255]",100.0,"[-0.06326091958419654,0.07296478946814296]",4.0,"[-0.10703440095229431,-0.1458857210491479]",4.0,"[-0.0950222189336199,0.02142670579497676]",100.0,"[0.08745875075085341,-0.14864168938494576]",4.0,"[0.041795913949546584,-0.1521482522564295]",100.0,"[0.1744650365957524,-0.001005572985737212]",100.0,"[0.025855077561956583,0.17601265819840664]",4.0,"[-0.19012268299145924,0.03930609190484415]",100.0,"[-0.037925057973428926,0.030491517298688306]",4.0,"[0.08484107164541398,0.05106980454521609]",100.0,"[0.16055196314825843,-0.10494103657902552]",100.0,"[-0.1296166483734748,-0.004321533049970111]",4.0,"[0.02,0.02]",141.7584,0.0,35.0,35.0,42.0,1.0,,,,,,,
,,,,,,,683795ff8d15104c4c64949e,6846a8475a52c3792082698b,2025-06-09_05h24.55.342,shape_ratio,2024.1.5,Win32,59.88023952,684250e4f00cb30b92d1fa88,,,,,,,,,,,141.7593,142.262,,,142.5129,142.6807,left,,,,,,,,0.45,0.1515,,,,,,,142.2621,142.5128,142.6808,"[-0.00404464228097562,0.006853994797258167]",4.0,"[0.1579822266397596,-0.00021072253920636724]",4.0,"[0.139549907964796,-0.06459148307595264]",100.0,"[-0.08976192729840445,-0.006824498538978466]",4.0,"[-0.1321408099914782,-0.10339337418638818]",100.0,"[0.07075216714942648,-0.15452500476175773]",4.0,"[-0.036433190027307126,-0.03310951559314697]",4.0,"[0.02399639077250118,-0.12457790322854138]",4.0,"[-0.13092250258315877,0.12059419490855548]",4.0,"[0.07174808097205303,0.03672196918479158]",4.0,"[-0.06913217444118751,0.08313660407689487]",4.0,"[-0.03237306457576534,0.09972343877310792]",100.0,"[-0.17946117719607602,-0.037998280522058794]",100.0,"[0.004546352946183454,0.17084150602405768]",4.0,"[0.0363360467472777,0.07504703128976134]",4.0,"[0.08503117314966645,-0.09635923094465143]",100.0,"[-0.07657600607318969,-0.12812229198084746]",4.0,"[-0.15207710082914627,-0.06786392429572835]",100.0,"[0.04843896526590809,0.134870759929059]",100.0,"[0.10288577977382915,0.1339238094330356]",100.0,"[0.16917438941380536,-0.10424076754151941]",4.0,"[-0.0108825606076378,-0.1520093060352518]",100.0,"[-0.09322056010384257,0.03426387774675695]",4.0,"[0.042234008671685676,-0.04660976436720295]",100.0,"[-0.13615417073454059,-0.02337252976162954]",100.0,"[-0.08218643939856193,0.1425873177598194]",4.0,"[-0.1446245440620589,0.01598580004787229]",100.0,"[0.15340991569664503,0.07510827384971386]",4.0,"[0.1144261021987056,0.047727948335673454]",4.0,"[-0.0427311711453053,0.15175729140656258]",100.0,"[0.14781588176338506,0.11795682622811149]",4.0,"[-0.04681369910132028,-0.18421830050431776]",100.0,"[0.02,0.02]",143.7765,0.0,36.0,36.0,127.0,1.0,,,,,,,
,,,,,,,683795ff8d15104c4c64949e,6846a8475a52c3792082698b,2025-06-09_05h24.55.342,shape_ratio,2024.1.5,Win32,59.88023952,684250e4f00cb30b92d1fa88,,,,,,,,,,,143.7774,144.2766,,,144.527,144.6262,left,,,,,,,,0.4,0.0914,,,,,,,144.2767,144.5268,144.6264,"[-0.1726520175805334,0.046952809481125304]",4.0,"[0.10665650756402831,0.1456959570115978]",100.0,"[0.030861853458300358,0.09461095823154347]",4.0,"[0.016758599239445292,-0.02121045470745717]",4.0,"[-0.06127799039205682,-0.12481788187209635]",100.0,"[0.11044529527570608,0.07331995889282787]",100.0,"[-0.016324871966584397,-0.07536876468031949]",4.0,"[0.09921806488202636,-0.15182835262780273]",4.0,"[-0.05084004116464138,-0.013668064297708896]",100.0,"[0.13572233984598372,-0.09493144767318451]",100.0,"[0.18520470767657124,0.023960620013492393]",4.0,"[0.17540324243113872,-0.05622044054871514]",4.0,"[0.06999834525345904,0.16179378550503526]",100.0,"[-0.07318798220193966,0.02851488823425215]",4.0,"[0.1360893198795463,0.03914023409682124]",100.0,"[-0.10646783785757348,-0.008964177807246773]",4.0,"[-0.05861925581651146,-0.1658830335831741]",100.0,"[-0.16824916821559047,-0.04666700483109854]",100.0,"[-0.10652497504191698,-0.06694872635215773]",100.0,"[0.055792314007876403,-0.09921332120056044]",4.0,"[0.007905331351006326,0.054705310116138266]",4.0,"[0.06785829187695647,0.023128968019792386]",4.0,"[-0.11614071455486703,0.10213347970016223]",100.0,"[0.0036109086631096127,-0.16123736705375674]",4.0,"[0.10721991786577048,0.000241749763571139]",4.0,"[-0.040318917795559,0.11207094593980117]",4.0,"[-0.08550039721272734,0.14614483522609067]",100.0,"[0.15660322055587186,0.09039154364198253]",100.0,"[0.03788110935845941,0.18871066473153864]",4.0,"[-0.14391396837528564,-0.12912135212377168]",4.0,"[0.1557681229605391,-0.012953525034807362]",4.0,"[0.07640727901270025,0.10916432384591157]",4.0,"[0.02,0.02]",145.727,0.0,37.0,37.0,153.0,1.0,,,,,,,
,,,,,,,683795ff8d15104c4c64949e,6846a8475a52c3792082698b,2025-06-09_05h24.55.342,shape_ratio,2024.1.5,Win32,59.88023952,684250e4f00cb30b92d1fa88,,,,,,,,,,,145.7283,146.2261,,,146.4764,146.543,left,,,,,,,,0.6,0.0519,,,,,,,146.2262,146.4764,146.5431,"[-0.18757184642436428,-0.058170201321733256]",4.0,"[0.0595845748859079,0.05700406698011361]",100.0,"[-0.044837910707223344,0.10206612997384538]",100.0,"[0.058247694782494225,-0.020591066011628793]",4.0,"[-0.07923963487573625,-0.018000412893402953]",4.0,"[0.006225138460342321,0.1366345805882169]",100.0,"[0.1516674169393747,0.006300147174647055]",100.0,"[0.07521520579780334,-0.08735149626600859]",4.0,"[-0.08538073012131574,0.04956383156452705]",4.0,"[-0.10971452835879968,0.1637622893589263]",100.0,"[-0.14091273565491774,-0.01817074856918682]",100.0,"[0.01446386232301309,-0.16433776493295588]",100.0,"[-0.08949251330976356,-0.1148105000681144]",100.0,"[-0.006371043612880739,-0.02747974535294982]",100.0,"[-0.09552838269407092,0.10736320106874142]",4.0,"[-0.15539403091983062,0.029071466036593805]",100.0,"[0.11642903910272126,-0.09602552149617358]",100.0,"[-0.037291246585255504,0.193398292812621]",100.0,"[-0.14978842682101717,-0.11715824002850782]",100.0,"[0.12734809380644735,0.049466531075718065]",4.0,"[-0.06512687695652432,-0.1719290773252227]",100.0,"[0.019870233623763438,0.06556974258999702]",100.0,"[0.14268662810870714,-0.032812682314534644]",100.0,"[-0.07224107676557832,-0.06702546260670884]",100.0,"[-0.02006689741764323,-0.06817162595739402]",100.0,"[0.07472297627595863,0.16619054571404357]",4.0,"[-0.01336680181315932,0.019569404497160096]",4.0,"[0.14644381348849872,0.12380610502934251]",4.0,"[0.16802626543492288,0.060238110724933285]",4.0,"[-0.19046236286019075,0.05161538044768466]",100.0,"[0.06307722273697319,-0.16525251563661056]",4.0,"[0.16208971569465944,-0.08943926678555916]",4.0,"[0.02,0.02]",147.6444,0.0,38.0,38.0,31.0,1.0,,,,,,,
,,,,,,,683795ff8d15104c4c64949e,6846a8475a52c3792082698b,2025-06-09_05h24.55.342,shape_ratio,2024.1.5,Win32,59.88023952,684250e4f00cb30b92d1fa88,,,,,,,,,,,147.6452,148.1445,,,148.3942,148.528,left,,,,,,,,0.9,0.1237,,,,,,,148.1446,148.3942,148.5281,"[-0.08880688139021059,-0.16778931543735243]",100.0,"[0.03321618175605613,0.10454479363977207]",100.0,"[-0.04235089126764233,0.03017457024612287]",100.0,"[-0.006458871424925045,-0.022435741181705354]",100.0,"[0.16988778253623804,-0.006397639248504492]",100.0,"[-0.11629766893907194,-0.038277701296480386]",100.0,"[0.09388582131448,0.11608469101501417]",100.0,"[0.12734714957452226,0.004520873175374435]",100.0,"[-0.16461306682319726,-0.08091870567665718]",100.0,"[0.06023742627150274,-0.12723833005325094]",100.0,"[-0.09557803959531158,-0.09629660419363163]",100.0,"[0.09936887826190952,-0.14516688343749717]",4.0,"[0.10603142679335296,-0.05683626650699959]",100.0,"[-0.1662306468682161,0.10828153521660244]",100.0,"[-0.01085347931302806,0.09142241902363678]",100.0,"[-0.08465848368866292,0.11522305165819242]",100.0,"[-0.10434117175888503,0.16617466610060688]",100.0,"[-0.1661838845434119,-0.03988996902288143]",100.0,"[-0.14994217062193438,-0.11894113230189245]",100.0,"[0.1297903631376243,0.1502628146103652]",4.0,"[0.14449155102635747,-0.12837009371449642]",4.0,"[0.08888103679553357,0.15801221267953103]",100.0,"[0.16303979444140843,0.04223885053729182]",100.0,"[0.007609223890143081,-0.16300386680317908]",100.0,"[-0.05438754900228519,-0.03441407308515864]",100.0,"[-0.05691812266719044,0.17530838240881486]",100.0,"[0.00946634430994496,0.18944486333335658]",100.0,"[0.07792605109436294,0.007132866072619344]",100.0,"[-0.02500262327346986,0.13085215669254655]",100.0,"[0.006685479478623459,-0.09376829242960169]",100.0,"[-0.1592984138603465,0.020836245894450368]",100.0,"[0.062146795501451836,-0.07221777690083603]",100.0,"[0.02,0.02]",149.6272,0.0,39.0,39.0,28.0,1.0,,,,,,,
,,,,,,,683795ff8d15104c4c64949e,6846a8475a52c3792082698b,2025-06-09_05h24.55.342,shape_ratio,2024.1.5,Win32,59.88023952,684250e4f00cb30b92d1fa88,,,,,,,,,,,149.6276,150.1276,,,150.3783,150.5302,right,,,,,,,,0.4,0.14,,,,,,,150.1277,150.3783,150.5303,"[0.04566047610066789,-0.01587381034880317]",100.0,"[0.03876392332806687,0.02537448088021874]",4.0,"[-0.005708401413729077,-0.12690899816278786]",4.0,"[0.15028480398928531,0.11445045671113485]",4.0,"[-0.009830203274503665,-0.18100408494759493]",4.0,"[0.1201777266589517,-0.13522135727240722]",100.0,"[-0.05339354376652855,0.07278844940105411]",4.0,"[0.007352111454157454,0.09717985527802647]",100.0,"[-0.15370369257221533,0.03526456961416124]",4.0,"[0.1602016212196916,-0.030393933011065417]",100.0,"[-0.021663922695676414,-0.028214663593873087]",100.0,"[-0.11491114683348219,0.05727935491506859]",100.0,"[-0.11579518960187155,-0.10988072685079617]",100.0,"[0.02819464222307533,-0.15691599964086209]",100.0,"[0.107393960054372,0.12186784838416083]",4.0,"[-0.07859268266047716,0.002125883647998447]",100.0,"[-0.1908375244699143,-0.030732602981288725]",4.0,"[0.1788582129550505,0.08277427861397847]",4.0,"[0.0024732666323420264,-0.07018065731481779]",4.0,"[0.05374756788013053,-0.06531482432494971]",4.0,"[0.12299207648469891,-0.015373543745005184]",100.0,"[-0.13596708573786376,-0.041740052866033314]",100.0,"[0.15175608061576532,0.019463478249252892]",100.0,"[0.08603577888179759,0.08630807422388556]",4.0,"[0.005614834477294347,0.15728463484805633]",4.0,"[0.0036994665951683285,0.048020056951000874]",4.0,"[-0.16146356433284098,0.09846146774733938]",4.0,"[-0.09492493279859286,-0.14943363755079775]",4.0,"[0.18346295900805934,-0.06834062430314057]",4.0,"[-0.0483702688069764,-0.10535009949856391]",100.0,"[0.11253336912234409,-0.05516903698651041]",4.0,"[-0.08525674922705123,-0.080785345311979]",4.0,"[0.02,0.02]",151.6286,0.0,40.0,40.0,172.0,1.0,,,,,,,
,,,,,,,683795ff8d15104c4c64949e,6846a8475a52c3792082698b,2025-06-09_05h24.55.342,shape_ratio,2024.1.5,Win32,59.88023952,684250e4f00cb30b92d1fa88,,,,,,,,,,,151.6293,152.1289,,,152.3844,152.4965,left,,,,,,,,0.4,0.0877,,,,,,,152.129,152.3844,152.4965,"[-0.046925950331692216,-0.09770853645384507]",4.0,"[0.15299553762486012,-0.03916226984937366]",100.0,"[-0.15073122369796407,-0.03500613568266168]",100.0,"[-0.16997431558581097,0.06288026410911021]",4.0,"[0.054315625591783795,-0.13168651180755425]",4.0,"[0.11120320208300194,-0.011335054609767971]",100.0,"[-0.0008077536860491396,0.12108886926753128]",100.0,"[-0.18869479767963132,-0.057566715292220176]",4.0,"[-0.14506470583867906,-0.11001574555273766]",4.0,"[0.020224030201609698,-0.009509158597332904]",100.0,"[-0.17715422798539684,0.02038442963793903]",4.0,"[-0.004075843533005735,-0.09097550135419825]",4.0,"[0.025324147664911756,0.051861889073445334]",4.0,"[0.19216667197381337,0.02549712730312912]",4.0,"[-0.15243520298932403,0.10320033754470659]",4.0,"[-0.050142381889299786,0.1069261136849543]",100.0,"[-0.11732420988281819,-0.15521722223989545]",4.0,"[0.14021174698087527,-0.08448269863267566]",100.0,"[0.08413987813870197,-0.09498245644075962]",100.0,"[-0.0861843928490059,-0.0005385997871491405]",100.0,"[0.11137246916389339,-0.14542249805704707]",100.0,"[-0.1072252203677525,0.1456239578374151]",4.0,"[-0.11374396057303011,0.0655769883169154]",4.0,"[-0.12098035395781541,-0.06344362069881739]",100.0,"[-0.015464868821457381,-0.0361703463258296]",4.0,"[0.05665197938758158,-0.1887274378306337]",100.0,"[-0.01278992893260145,0.07480421886717503]",4.0,"[0.07796589308205859,0.16216931048128383]",4.0,"[0.14612981230160094,0.044193765716609205]",4.0,"[0.06141454610609517,-0.06079588125673436]",100.0,"[-0.01864113627875955,0.18943711401273175]",4.0,"[0.07186676904364592,0.03287126797213095]",4.0,"[0.02,0.02]",153.5971,0.0,41.0,41.0,164.0,1.0,,,,,,,
,,,,,,,683795ff8d15104c4c64949e,6846a8475a52c3792082698b,2025-06-09_05h24.55.342,shape_ratio,2024.1.5,Win32,59.88023952,684250e4f00cb30b92d1fa88,,,,,,,,,,,153.598,154.0972,,,154.3496,154.4983,left,,,,,,,,0.5,0.1229,,,,,,,154.0974,154.3496,154.4983,"[0.19498050923679688,0.009550563618460297]",100.0,"[-0.023521487008431857,-0.09295207101161021]",100.0,"[-0.08144866887496886,-0.12553917946037346]",100.0,"[-0.17021423190179372,-0.05354549288599237]",100.0,"[-0.05935932681495623,0.1803851164051947]",4.0,"[-0.1877354061980417,0.052264190340717616]",4.0,"[0.12806763806026408,-0.06371690275577159]",100.0,"[-0.030291408766834824,0.026416253638556483]",4.0,"[0.1484880300403131,-0.008881995487812207]",4.0,"[0.055202715959241505,-0.15618923360265552]",100.0,"[-0.05865035188922184,0.07232632494326256]",4.0,"[-0.08126166313067663,0.1345346337355054]",4.0,"[0.01816588569204057,-0.1790636946980589]",100.0,"[-0.1446411190793136,-0.12743275876144344]",100.0,"[-0.12900803178205358,-0.061730983561159664]",100.0,"[0.11029485067593771,0.133357519011925]",4.0,"[0.07189198528240599,0.0028668361760697753]",4.0,"[-0.06287110514765065,-0.18636545693201353]",100.0,"[0.04087059205520418,0.18112229708043648]",100.0,"[0.17867889257223,-0.08276189566708753]",4.0,"[-0.15710859500124852,0.0008505323148015945]",4.0,"[-0.011276386152109637,-0.14794176959175143]",100.0,"[0.07243599184166874,-0.11508915018104345]",4.0,"[0.15305144630775439,0.052783379743923775]",100.0,"[-0.1412017786327067,0.05166367964234735]",100.0,"[-0.0478077699370279,-0.014258523674767244]",4.0,"[0.04349592987186915,-0.07905514281337267]",4.0,"[0.07384274446563203,0.0547730546320245]",100.0,"[-0.10020089864974444,0.05130251435534227]",4.0,"[0.07168859631992931,-0.044703296112641525]",100.0,"[0.0167366506743037,0.03454211654453492]",4.0,"[0.10758794682792598,-0.015545000495312192]",4.0,"[0.02,0.02]",155.5998,0.0,42.0,42.0,110.0,1.0,,,,,,,
,,,,,,,683795ff8d15104c4c64949e,6846a8475a52c3792082698b,2025-06-09_05h24.55.342,shape_ratio,2024.1.5,Win32,59.88023952,684250e4f00cb30b92d1fa88,,,,,,,,,,,155.6007,156.0977,,,156.3527,156.516,left,,,,,,,,0.9,0.1403,,,,,,,156.0979,156.3525,156.5161,"[-0.048570673472103996,-0.15018474096419512]",100.0,"[-0.16873713241215343,-0.0940345636505794]",100.0,"[-0.05429836326905997,0.17153052491292206]",100.0,"[0.037730934886022936,-0.06304481158092896]",100.0,"[-0.03196769342263695,-0.03777099786614577]",100.0,"[-0.1308799463867568,-0.1300652809496449]",100.0,"[-0.09956321658648011,0.03972131661471514]",100.0,"[-0.19030608453549006,0.027531533498123366]",100.0,"[0.0043190112073695905,-0.019741493060604798]",100.0,"[-0.06923552926184974,0.07220643795612605]",100.0,"[0.12294642927811178,0.006917571902303237]",100.0,"[-0.11624921293394798,0.09613219954354328]",100.0,"[0.09587565623633044,-0.13874795865665598]",100.0,"[0.1546964987030531,0.0977615470700864]",4.0,"[0.09558260395972758,-0.02888721172709756]",100.0,"[0.011393772791439414,-0.14042429344084756]",100.0,"[0.02479005873473811,0.054831389423667054]",100.0,"[-0.024089456535906578,0.09934360968060732]",4.0,"[-0.13001731077223674,-0.04896404848360384]",100.0,"[0.1939104375882706,-0.013920163793645648]",100.0,"[0.04137118600002738,0.1894702471596554]",4.0,"[-0.09711014460747598,0.140887878353888]",100.0,"[0.15564002248918937,-0.06886873606294]",100.0,"[0.0410884030893259,-0.10341338931136529]",100.0,"[0.06108871324702869,-0.18306068162174483]",100.0,"[-0.18542404155949058,-0.0211743226183324]",100.0,"[0.08201435184596878,0.01032704649626642]",100.0,"[-0.021070945482246185,-0.10701079432582894]",100.0,"[-0.1558487846212779,0.07242228513657652]",100.0,"[0.09820670171422818,0.08866893048269661]",100.0,"[-0.08749259233418362,-0.04899246094236878]",100.0,"[0.0915991392454231,0.15182841460227928]",100.0,"[0.02,0.02]",157.6154,0.0,43.0,43.0,27.0,1.0,,,,,,,
,,,,,,,683795ff8d15104c4c64949e,6846a8475a52c3792082698b,2025-06-09_05h24.55.342,shape_ratio,2024.1.5,Win32,59.88023952,684250e4f00cb30b92d1fa88,,,,,,,,,,,157.6161,158.1158,,,158.3691,158.4499,left,,,,,,,,0.45,0.0619,,,,,,,158.116,158.3691,158.4499,"[0.09918536062077422,-0.08372545195218514]",4.0,"[-0.09952700237584661,-0.10826291082668443]",4.0,"[0.17189816391734558,0.08643076819611402]",4.0,"[-0.1591278733317786,-0.07768037581189323]",4.0,"[0.011227083464400472,-0.12897727418394844]",4.0,"[-0.055900647753908746,0.001264631429456279]",100.0,"[-0.11504046479649925,-0.030493352232081137]",4.0,"[-0.024809591274110067,-0.09135389210183804]",4.0,"[0.12290229127980942,-0.017252326651681284]",4.0,"[-0.015642115698743967,0.04211064708655706]",100.0,"[0.07029371171615109,0.0812634987916274]",4.0,"[-0.041122169023663196,0.14347904406121711]",4.0,"[-0.15753976425229563,0.053025482667344956]",100.0,"[0.12787368823697637,0.12467545099680494]",4.0,"[0.05075124103648154,-0.19119007766382123]",100.0,"[-0.18241754942782287,-0.005466003524748793]",4.0,"[-0.10981776378319931,0.10761879973618362]",4.0,"[0.025845718474441805,0.051501362180128095]",100.0,"[0.13062622473700958,-0.14849593865381447]",100.0,"[0.032640419805938146,0.18040704363800522]",100.0,"[-0.03261850438639186,-0.17140892174606637]",4.0,"[0.1693308375609167,0.021850278975220523]",100.0,"[0.16024770103031283,-0.08735002186302629]",100.0,"[-0.03273645538991626,0.10063400903762111]",100.0,"[-0.0808787960211237,0.17201272246050361]",100.0,"[0.01656887728170954,-0.07532827698904124]",4.0,"[0.08273463602737792,-0.13853555869784284]",4.0,"[0.06145551064536541,0.1453067211216978]",4.0,"[0.00894809159797005,0.12595758286475922]",100.0,"[-0.011994834154961637,-0.0016888925284535997]",100.0,"[-0.19230593926567496,-0.051703115678698605]",100.0,"[0.041846547314298224,-0.0439971031612834]",4.0,"[0.02,0.02]",159.5498,0.0,44.0,44.0,124.0,1.0,,,,,,,
,,,,,,,683795ff8d15104c4c64949e,6846a8475a52c3792082698b,2025-06-09_05h24.55.342,shape_ratio,2024.1.5,Win32,59.88023952,684250e4f00cb30b92d1fa88,,,,,,,,,,,159.5512,160.0498,,,160.3049,160.3895,right,,,,,,,,0.5,0.0686,,,,,,,160.0499,160.3047,160.3895,"[0.06850507297386145,-0.049660503653581274]",100.0,"[-0.1209102968645437,-0.1278480822195072]",100.0,"[-0.07737706174566304,0.06276944355033537]",100.0,"[-0.04598957255308612,-0.16459226803559496]",100.0,"[-0.17207452357477143,0.0376304177130552]",4.0,"[0.11028294401671648,-0.061591559505332315]",4.0,"[-0.08057206290553735,-0.05000121827336135]",4.0,"[-0.03887308929484204,-0.0010729563904870224]",4.0,"[0.12121661720968602,0.08846808603074657]",100.0,"[0.048649711518566854,0.101332773386904]",4.0,"[0.1818778629812062,0.06969344317320007]",100.0,"[-0.008423076232236884,-0.18204491585884786]",4.0,"[-0.07690659493705954,0.1288523308328577]",4.0,"[0.02984723922807293,-0.15581408913974298]",4.0,"[0.11103999851430545,-0.15671417397869417]",4.0,"[0.05278717082612309,0.030823566955077885]",4.0,"[0.0009025516541777659,-0.09517585886544544]",4.0,"[0.041698584729077434,0.16472805130631596]",4.0,"[0.15963144598236434,-0.11511393926266318]",100.0,"[0.1322724939495556,-0.020198041456232746]",100.0,"[0.026984009112430794,-0.05454807683732684]",100.0,"[0.11946618152642775,0.15306782378012432]",100.0,"[-0.11604828502177729,-0.00361528620596312]",100.0,"[0.0018000909460218143,0.005160693802850621]",100.0,"[0.07846283226108901,0.13121415134520664]",4.0,"[-0.18345977899003854,-0.04703143153571182]",4.0,"[-0.02514490705702083,-0.06186029890762889]",100.0,"[-0.17052697811715065,-0.08926618684696325]",100.0,"[-0.13247969679216007,0.10593915348471988]",100.0,"[-0.016785336019293124,0.1542021637582004]",4.0,"[-0.13427691226678323,0.14686562296118819]",4.0,"[-0.12808101972285163,-0.0475798312809894]",100.0,"[0.02,0.02]",161.484,0.0,45.0,45.0,90.0,1.0,,,,,,,
,,,,,,,683795ff8d15104c4c64949e,6846a8475a52c3792082698b,2025-06-09_05h24.55.342,shape_ratio,2024.1.5,Win32,59.88023952,684250e4f00cb30b92d1fa88,,,,,,,,,,,161.4849,161.9844,,,162.2369,162.2847,left,,,,,,,,0.1,0.0211,,,,,,,161.9845,162.2368,162.2848,"[0.10113146249188275,-0.1169496579215516]",4.0,"[-0.13069952231558524,-0.10899938919508474]",4.0,"[-0.04903769423801958,0.13992458073859976]",4.0,"[-0.04435756646379987,0.08943416446595785]",4.0,"[-0.06513843760208338,-0.16791452889753908]",4.0,"[0.17238627768904016,0.04297973959110797]",4.0,"[-0.17035918955163115,0.06415887300029766]",4.0,"[0.1386057152126058,0.08876727993991734]",4.0,"[0.015696031461655338,0.049930433586375875]",4.0,"[-0.06243975436373819,-0.07814241542005332]",4.0,"[0.15783205102652437,-0.05519125493401055]",4.0,"[0.13079598020352032,-0.011309136112734057]",100.0,"[0.01550071469540801,0.009510044198639489]",4.0,"[-0.0014693687884115667,-0.15498994131822746]",4.0,"[-0.01343939922628996,0.16203326579753408]",4.0,"[0.09806371002469208,0.12235881537022954]",4.0,"[0.01149790266915603,0.19849012446780728]",4.0,"[0.12543244140534054,0.03326769231803525]",4.0,"[-0.08983752393269294,0.06559483488528808]",100.0,"[0.08185384697298322,-0.08048239844526409]",4.0,"[-0.08123817937547041,0.0031096021215451563]",4.0,"[0.15966439984657796,-0.11602274776705118]",4.0,"[0.0631931920913139,0.049170907415802996]",4.0,"[-0.04588692798759144,0.04468401259401326]",4.0,"[-0.1472224291247966,0.09906353443592447]",4.0,"[-0.18745025064784823,-0.023638635059855344]",4.0,"[-0.12555637440097603,-0.03598854296658112]",4.0,"[0.03795464187705912,0.1332425569227936]",4.0,"[0.019866000337865397,-0.06797073772428745]",4.0,"[-0.11751857494043269,0.14588330365138763]",100.0,"[-0.04590985488718281,-0.12208942910860063]",4.0,"[0.0963925817784994,0.17012683116183847]",4.0,"[0.02,0.02]",163.3879,0.0,46.0,46.0,198.0,1.0,,,,,,,
,,,,,,,683795ff8d15104c4c64949e,6846a8475a52c3792082698b,2025-06-09_05h24.55.342,shape_ratio,2024.1.5,Win32,59.88023952,684250e4f00cb30b92d1fa88,,,,,,,,,,,163.3889,163.8849,,,164.1385,164.5713,right,,,,,,,,0.45,0.4166,,,,,,,163.885,164.1384,164.5714,"[-0.08969743152914633,0.11962996890245704]",4.0,"[0.1519657166033458,-0.1169662971811512]",100.0,"[0.033743083158471264,-0.1294531609122679]",4.0,"[0.05225056898295305,0.11764925204910025]",4.0,"[-0.009751725061201066,-0.0033527539815029683]",4.0,"[0.08690336758009497,-0.13747174489089953]",4.0,"[0.054122758511907766,-0.17965434622882276]",4.0,"[-0.19716750050304363,-0.026227527735398846]",100.0,"[-0.15618358671106922,0.03923804908530532]",100.0,"[0.16171671468617058,0.025906855583751182]",100.0,"[-0.03954629089242455,0.09020106403304194]",4.0,"[-0.05365714458127792,-0.1408399425751869]",4.0,"[-0.057655658425505706,0.18333022382363304]",4.0,"[-0.06473809845646314,0.035202038698644425]",4.0,"[-0.08337159056245518,-0.028851165167185007]",100.0,"[-0.16113459090184995,-0.055309009379587715]",100.0,"[0.1779840952582193,-0.0808235340206641]",100.0,"[0.07470671309321322,0.08441874003485542]",100.0,"[0.015875553413656384,0.04032838139453706]",100.0,"[0.018077053920014033,0.09205479087634248]",100.0,"[0.1480015701467094,-0.045279043985911066]",4.0,"[0.1264027596247582,0.005517095251378649]",4.0,"[0.15364225652495617,0.08984825111320359]",4.0,"[0.07493099143900502,-0.0010925041610889397]",4.0,"[0.008888538845805307,-0.04992806802217718]",4.0,"[-0.1118178074295321,-0.06934370477627462]",100.0,"[-0.01564329942524305,-0.09530705570132882]",4.0,"[0.11017561253093944,0.12789553580938298]",4.0,"[0.026861986490503448,0.186919717261409]",4.0,"[-0.1009283308676313,0.06816341770156774]",100.0,"[0.08108949528661874,0.038924342785774835]",100.0,"[-0.031635721392951524,-0.18400550129524434]",100.0,"[0.02,0.02]",165.6688,0.0,47.0,47.0,125.0,1.0,,,,,,,
,,,,,,,683795ff8d15104c4c64949e,6846a8475a52c3792082698b,2025-06-09_05h24.55.342,shape_ratio,2024.1.5,Win32,59.88023952,684250e4f00cb30b92d1fa88,,,,,,,,,,,165.6696,166.169,,,166.4214,167.0734,left,,,,,,,,0.4,0.634,,,,,,,166.1692,166.4213,167.0735,"[-0.09817630176921383,-0.027537370836240454]",100.0,"[-0.15267652689730452,0.016827861263309228]",100.0,"[0.10610204941186871,0.07645746151451208]",4.0,"[0.002048871209212904,-0.0489750778991122]",100.0,"[0.005595359736758537,-0.1956325315061635]",4.0,"[-0.11068973380088414,0.04471180824086917]",100.0,"[-0.17362633773141972,-0.0912319090445714]",4.0,"[-0.0322982079043652,-0.02020339206858424]",100.0,"[0.14740652092439885,0.051051090479371904]",100.0,"[0.1061292597922506,0.14106951474891982]",4.0,"[0.15786909627561188,-0.012300114698854591]",100.0,"[-0.10694325361750279,-0.1647541744897303]",4.0,"[-0.12390992918364616,-0.09809751887681326]",4.0,"[0.1490436664523098,-0.07221318742213258]",100.0,"[-0.00453216064286889,0.19977983145274364]",4.0,"[0.09110402233482294,0.003920480645840112]",100.0,"[-0.06397244758111445,-0.0992720672986331]",4.0,"[-0.07250715455797693,0.11071827498503078]",100.0,"[0.05174864981952074,-0.07042674585604458]",100.0,"[0.03321555264391488,0.08125116614376712]",4.0,"[-0.1377780379811765,0.09682784213828566]",4.0,"[0.008027369112834071,-0.1207330517035788]",4.0,"[0.1851960948517762,-0.04872086702511569]",100.0,"[0.1062783401925863,-0.06582097706839245]",100.0,"[0.08904007832676997,-0.13278267399853283]",4.0,"[-0.10123968350768535,0.15826219320982066]",4.0,"[-0.06237520641025229,0.05402320921720105]",4.0,"[-0.01827572243123575,0.04726315554898268]",4.0,"[0.03564337539350472,-0.01826806436591773]",4.0,"[-0.05134157705113651,0.19081632357533726]",4.0,"[-0.14446012319062043,-0.029913525156435042]",4.0,"[0.046300636705273374,0.18377653011573145]",4.0,"[0.02,0.02]",168.1697,0.0,48.0,48.0,162.0,1.0,,,,,,,
,,,,,,,683795ff8d15104c4c64949e,6846a8475a52c3792082698b,2025-06-09_05h24.55.342,shape_ratio,2024.1.5,Win32,59.88023952,684250e4f00cb30b92d1fa88,,,,,,,,,,,168.1701,168.6697,,,168.9233,168.9736,right,,,,,,,,0.4,0.034,,,,,,,168.6699,168.9233,168.9736,"[-0.11925054280067447,0.07166127648054368]",4.0,"[-0.09211790971805053,-0.1018824352424907]",4.0,"[0.11339423425790739,-0.14613095443350185]",4.0,"[0.07923151086368978,0.16015690722058634]",4.0,"[0.04185728648600563,-0.18445142282259855]",100.0,"[-0.08178116210061422,0.15405842870791853]",4.0,"[-0.0017459443551382863,0.15490183390210555]",4.0,"[-0.16013238988209214,0.0905748340412935]",4.0,"[-0.03390215375080445,-0.022829921735713972]",4.0,"[-0.13927387984518685,0.12822029360231357]",100.0,"[-0.16863191081519913,-0.09975463959552161]",100.0,"[0.08075473886495518,-0.03804671406127404]",4.0,"[-0.04285850102059226,0.06860621997367708]",4.0,"[-0.09325673901596133,0.0015426434153853477]",4.0,"[0.029577608966633355,-0.10270387193353998]",100.0,"[0.13803500097906976,0.13255198296308482]",100.0,"[-0.03125357557731776,-0.1678514134959016]",100.0,"[0.1310881884113525,0.04138692564261183]",100.0,"[-0.03599368449220018,0.11140525081335031]",4.0,"[0.09649716896077473,-0.08263809838736608]",4.0,"[0.16095427329268366,-0.023872694544805884]",4.0,"[0.08084946443161171,0.06965938130235466]",4.0,"[0.010710595088580417,0.08319116372981233]",4.0,"[0.09604613020278124,0.01319816486218112]",4.0,"[0.03608126027097064,0.04158332786132631]",100.0,"[0.14297122099019413,-0.06442828075519469]",4.0,"[0.12935385821738601,0.09321422273681797]",100.0,"[0.029915754926272776,0.1915889579341745]",4.0,"[-0.03417239525148454,-0.06790262287411726]",100.0,"[0.06333748497577295,0.12059016424313465]",100.0,"[-0.016116803857259,0.019534125892596774]",100.0,"[0.009966843601902559,-0.013245593012044485]",100.0,"[0.02,0.02]",170.0714,0.0,49.0,49.0,160.0,1.0,,,,,,,
