right,left,explain.started,explain.stopped,key_resp_3.keys,key_resp_3.rt,key_resp_3.duration,participant,session,date,expName,psychopyVersion,OS,frameRate,study_id,explain_2.started,explain_2.stopped,key_resp_4.keys,key_resp_4.rt,key_resp_4.duration,explain_3.started,explain_3.stopped,key_resp_5.keys,key_resp_5.rt,key_resp_5.duration,fixation.started,fixation.stopped,practice.started,practice.stopped,response.started,response.stopped,key_resp.keys,feedback.started,feedback.stopped,trials_2.thisRepN,trials_2.thisTrialN,trials_2.thisN,trials_2.thisIndex,trials_2.ran,dot_ratio,explain_4.started,explain_4.stopped,key_resp_6.keys,key_resp_6.rt,key_resp_6.duration,dotDisplay.started,dotDisplay.stopped,key_resp.rt,key_resp.duration,ITI.started,polygon_1.pos,polygon_1.edges,polygon_2.pos,polygon_2.edges,polygon_3.pos,polygon_3.edges,polygon_4.pos,polygon_4.edges,polygon_5.pos,polygon_5.edges,polygon_6.pos,polygon_6.edges,polygon_7.pos,polygon_7.edges,polygon_8.pos,polygon_8.edges,polygon_9.pos,polygon_9.edges,polygon_10.pos,polygon_10.edges,polygon_11.pos,polygon_11.edges,polygon_12.pos,polygon_12.edges,polygon_13.pos,polygon_13.edges,polygon_14.pos,polygon_14.edges,polygon_15.pos,polygon_15.edges,polygon_16.pos,polygon_16.edges,polygon_17.pos,polygon_17.edges,polygon_18.pos,polygon_18.edges,polygon_19.pos,polygon_19.edges,polygon_20.pos,polygon_20.edges,polygon_21.pos,polygon_21.edges,polygon_22.pos,polygon_22.edges,polygon_23.pos,polygon_23.edges,polygon_24.pos,polygon_24.edges,polygon_25.pos,polygon_25.edges,polygon_26.pos,polygon_26.edges,polygon_27.pos,polygon_27.edges,polygon_28.pos,polygon_28.edges,polygon_29.pos,polygon_29.edges,polygon_30.pos,polygon_30.edges,polygon_31.pos,polygon_31.edges,polygon_32.pos,polygon_32.edges,dot_size,ITI.stopped,trials.thisRepN,trials.thisTrialN,trials.thisN,trials.thisIndex,trials.ran,break_2.started,break_2.stopped,trials_3.thisRepN,trials_3.thisTrialN,trials_3.thisN,trials_3.thisIndex,trials_3.ran
subject chose diamond,subject chose dot,0.0003,165.1155,space,150.0941,,683b46a5c71571449dd863cb,6846a84e5bfc320ef02303a3,2025-06-09_05h28.10.435,shape_ratio,2024.1.5,Win32,60.24096386,684250e4f00cb30b92d1fa88,,,,,,,,,,,,,,,,,,,,,,,,,,,,,,,,,,,,,,,,,,,,,,,,,,,,,,,,,,,,,,,,,,,,,,,,,,,,,,,,,,,,,,,,,,,,,,,,,,,,,,,,,,,,,,,,,
,,,,,,,683b46a5c71571449dd863cb,6846a84e5bfc320ef02303a3,2025-06-09_05h28.10.435,shape_ratio,2024.1.5,Win32,60.24096386,684250e4f00cb30b92d1fa88,165.1157,224.9867,space,29.852,,,,,,,,,,,,,,,,,,,,,,,,,,,,,,,,,,,,,,,,,,,,,,,,,,,,,,,,,,,,,,,,,,,,,,,,,,,,,,,,,,,,,,,,,,,,,,,,,,,,,,,,,,,,,
,,,,,,,683b46a5c71571449dd863cb,6846a84e5bfc320ef02303a3,2025-06-09_05h28.10.435,shape_ratio,2024.1.5,Win32,60.24096386,684250e4f00cb30b92d1fa88,,,,,,224.9869,230.7813,space,2.7697,,,,,,,,,,,,,,,,,,,,,,,,,,,,,,,,,,,,,,,,,,,,,,,,,,,,,,,,,,,,,,,,,,,,,,,,,,,,,,,,,,,,,,,,,,,,,,,,,,,,,,,,
,,,,,,,683b46a5c71571449dd863cb,6846a84e5bfc320ef02303a3,2025-06-09_05h28.10.435,shape_ratio,2024.1.5,Win32,60.24096386,684250e4f00cb30b92d1fa88,,,,,,,,,,,230.8033,231.2972,231.2976,231.5475,231.5478,233.0456,,233.0459,234.1446,0.0,0.0,0.0,1.0,1.0,0.8,,,,,,,,,,,,,,,,,,,,,,,,,,,,,,,,,,,,,,,,,,,,,,,,,,,,,,,,,,,,,,,,,,,,,,,,,,,,,,,,,,,,,,,,
,,,,,,,683b46a5c71571449dd863cb,6846a84e5bfc320ef02303a3,2025-06-09_05h28.10.435,shape_ratio,2024.1.5,Win32,60.24096386,684250e4f00cb30b92d1fa88,,,,,,,,,,,234.1452,234.6442,234.6442,234.8941,234.8941,236.3922,,236.3923,237.4912,0.0,1.0,1.0,0.0,1.0,0.2,,,,,,,,,,,,,,,,,,,,,,,,,,,,,,,,,,,,,,,,,,,,,,,,,,,,,,,,,,,,,,,,,,,,,,,,,,,,,,,,,,,,,,,,
,,,,,,,683b46a5c71571449dd863cb,6846a84e5bfc320ef02303a3,2025-06-09_05h28.10.435,shape_ratio,2024.1.5,Win32,60.24096386,684250e4f00cb30b92d1fa88,,,,,,,,,,,,,,,,,,,,,,,,,,237.4917,285.5656,space,45.0559,,,,,,,,,,,,,,,,,,,,,,,,,,,,,,,,,,,,,,,,,,,,,,,,,,,,,,,,,,,,,,,,,,,,,,,,,,,,,,,,,,,,
,,,,,,,683b46a5c71571449dd863cb,6846a84e5bfc320ef02303a3,2025-06-09_05h28.10.435,shape_ratio,2024.1.5,Win32,60.24096386,684250e4f00cb30b92d1fa88,,,,,,,,,,,285.6159,286.0799,,,286.32,286.3679,left,,,,,,,,0.9,,,,,,286.0818,286.3197,0.0317,,286.3692,"[0.023744570115201858,-0.05073137489318082]",100.0,"[0.12727891920389064,0.06614151640443912]",100.0,"[-0.047959661135050353,0.09778140966371446]",100.0,"[-0.14276309274076415,0.041116588743768105]",4.0,"[0.03335940664492915,0.1065339982399247]",4.0,"[0.06464862170042246,0.005053534710780656]",100.0,"[-0.13161136762882716,0.11732617346709494]",100.0,"[-0.02877464808647975,0.18639100757317903]",100.0,"[-0.09914385777555912,-0.16307526094528044]",100.0,"[0.06962491324515116,-0.16748586624142617]",100.0,"[-0.04737043754176316,-0.1382951350651147]",100.0,"[0.1319560380803524,-0.11980867461462415]",100.0,"[-0.09776122423543565,0.04030877387779345]",100.0,"[-0.04628884519120495,-0.01662806233956973]",100.0,"[-0.021888327658988214,-0.18520326418502836]",100.0,"[0.09873110311946308,0.17111841327490632]",100.0,"[0.009779276901933268,-0.10214434363545044]",100.0,"[-0.004581387997156388,0.11945718946882312]",100.0,"[0.18275463031240494,0.05135969399090893]",4.0,"[0.032978008426170935,-0.14987473601746482]",100.0,"[-0.069552517596755,-0.0759791915931827]",100.0,"[-0.09162298593307408,0.09909182176039442]",100.0,"[0.02202737772140059,-0.0015097363382371894]",100.0,"[0.13610632524101562,0.13410561896265652]",100.0,"[-0.18910051795281074,0.010727529990592405]",100.0,"[-0.1748886900199996,-0.08631391965218385]",100.0,"[0.1158610414004724,-0.012801573149833819]",100.0,"[0.06740119498487546,0.13470284561938858]",100.0,"[0.0016142051094486705,0.053747898640650736]",100.0,"[0.08674250918911508,-0.12197806226450376]",100.0,"[-0.16590886884341946,-0.04169259615043057]",100.0,"[-0.1435815089256506,-0.12429009766791217]",100.0,"[0.02,0.02]",287.4623,0.0,0.0,0.0,26.0,1.0,,,,,,,
,,,,,,,683b46a5c71571449dd863cb,6846a84e5bfc320ef02303a3,2025-06-09_05h28.10.435,shape_ratio,2024.1.5,Win32,60.24096386,684250e4f00cb30b92d1fa88,,,,,,,,,,,287.4643,287.9617,,,288.2138,288.3117,right,,,,,,,,0.6,,,,,,287.962,288.2137,0.0825,,288.3119,"[-0.016586610439224412,-0.18083569381415124]",100.0,"[0.15762468463349907,0.08632967129324069]",4.0,"[-0.16541632759261632,0.09361448534427154]",4.0,"[0.051833565594085806,0.14573924041044709]",4.0,"[0.1196661588833377,-0.10105168294364075]",100.0,"[0.16991424128962546,-0.07021625950542792]",100.0,"[-0.11909324047668178,-0.05460258047079198]",4.0,"[-0.07273376292244539,-0.10064620116967268]",100.0,"[0.07285271362113542,-0.15582293780480083]",4.0,"[-0.003563896749543139,-0.07968512432583293]",100.0,"[0.0030028771576369254,-0.0025178739963262003]",100.0,"[0.05443651825812415,0.03871782322854218]",100.0,"[-0.07360883052836902,-0.16568502206666058]",4.0,"[0.016385601254166948,-0.1183288145197965]",100.0,"[-0.0777111130353097,0.12659967772713093]",100.0,"[-0.031674243883863085,0.09906212705644893]",4.0,"[0.09110535754357932,0.10916350104607792]",4.0,"[-0.17996425642833386,-0.0015521340907193265]",100.0,"[-0.08683368409844289,0.06346032737654642]",4.0,"[0.1888722251214044,0.05738207475392192]",4.0,"[-0.06348108305524724,0.1759897184092636]",100.0,"[0.10417428487556699,0.0031979952687649946]",4.0,"[-0.1933182221186957,-0.04852964951208197]",100.0,"[0.10258006234811057,0.04930790440934926]",100.0,"[0.14268171393922774,0.1294524703615928]",100.0,"[0.08737074260048158,-0.07612674087947989]",4.0,"[0.03064879552210748,0.08692251385386596]",100.0,"[-0.11327400727830657,-0.12689473614256472]",100.0,"[-0.1676987025580453,0.04616465138848356]",100.0,"[0.19766665467465425,0.008363077217098433]",100.0,"[-0.07188625052808154,0.013551014944672509]",4.0,"[-0.0383849521799742,0.1404637465630033]",100.0,"[0.02,0.02]",289.4099,0.0,1.0,1.0,38.0,1.0,,,,,,,
,,,,,,,683b46a5c71571449dd863cb,6846a84e5bfc320ef02303a3,2025-06-09_05h28.10.435,shape_ratio,2024.1.5,Win32,60.24096386,684250e4f00cb30b92d1fa88,,,,,,,,,,,289.4115,289.9097,,,290.1611,290.4105,left,,,,,,,,0.55,,,,,,289.9098,290.161,0.2353,,290.4108,"[-0.11357858296045739,0.10812295808705005]",100.0,"[0.1840509819700433,0.055144667810151475]",4.0,"[0.1533039814221909,0.12574472329481498]",100.0,"[-0.01648409279633645,0.0628680665041694]",4.0,"[-0.059048047220026524,0.04240515893900579]",100.0,"[0.022853819729402734,0.04228248648484228]",100.0,"[-0.06373943799147412,0.11084841254370405]",100.0,"[0.036244481368453874,-0.0213163970399352]",100.0,"[-0.1246735894979719,-0.1090488754116057]",4.0,"[-0.1267093469204654,0.005135809571214371]",4.0,"[-0.17505764094802573,0.012028638944592373]",4.0,"[0.16040933569180132,-0.05876686256995416]",100.0,"[0.017872400032772462,0.16191337185440854]",100.0,"[-0.12016602756919553,-0.03549525003533968]",4.0,"[-0.040064801509254754,0.14370157901396094]",100.0,"[0.12844199866669662,0.05897690879493147]",4.0,"[-0.08659226458820153,-0.15518737902969207]",100.0,"[-0.08119490931937104,-0.055038075959136144]",100.0,"[0.062395806723459034,0.14517442454131355]",4.0,"[0.114792595400994,-0.03802618219060449]",100.0,"[0.08307695783649896,-0.08159126461938156]",100.0,"[-0.0047844547438219654,-0.18529995886687062]",100.0,"[-0.01925688887426566,-0.0667212599113594]",4.0,"[0.0702397659442512,0.011803760575554486]",4.0,"[-0.11421282291704034,0.06358368434700387]",100.0,"[0.1268894783663337,-0.12721980310994882]",100.0,"[-0.1872047707844976,0.05961144214300811]",4.0,"[-0.16478823111622473,-0.05858891728343248]",100.0,"[-0.1533692364142367,0.08646320447091814]",4.0,"[0.07814124020993872,-0.14865223479773274]",4.0,"[0.013834842862179815,-0.12543881870187093]",4.0,"[0.11427620104402976,0.1498523895488624]",100.0,"[0.02,0.02]",291.509,0.0,2.0,2.0,88.0,1.0,,,,,,,
,,,,,,,683b46a5c71571449dd863cb,6846a84e5bfc320ef02303a3,2025-06-09_05h28.10.435,shape_ratio,2024.1.5,Win32,60.24096386,684250e4f00cb30b92d1fa88,,,,,,,,,,,291.5108,292.0089,,,292.2596,293.7572,,,,,,,,,0.1,,,,,,292.009,292.2594,,,293.7573,"[0.07818046017377783,-0.15356388701769752]",4.0,"[0.07397551086163769,0.1363692955620196]",4.0,"[-0.02137575817587352,0.1075582914687028]",4.0,"[-0.09390952628809754,-0.09623517568293012]",4.0,"[-0.1470878899071811,-0.09446562005813616]",4.0,"[-0.14129073118903882,0.09041119163396669]",4.0,"[0.057860332078697715,0.03671208966454406]",4.0,"[-0.17751178375800536,0.053104396017669885]",4.0,"[0.030677382629737935,-0.0828934776641871]",4.0,"[-0.04157701447781461,-0.0507683600319371]",4.0,"[-0.08198287120837196,-0.14839046467492525]",4.0,"[-0.09093613339581924,0.17758541667024347]",4.0,"[0.16486704200735353,0.04329300889197003]",4.0,"[0.11739502982820212,-0.1381889396222444]",4.0,"[-0.05258100408421877,-0.19084255933491595]",4.0,"[-0.1400256871424576,0.031828401485101146]",100.0,"[0.1431579609924994,0.09358897838670574]",4.0,"[0.09454940022483325,0.009264194847093399]",4.0,"[-0.18057722874832136,-0.0020141989547454195]",4.0,"[0.15101181310528386,-0.08064241754975451]",4.0,"[0.037840831649972505,-0.12958766772081207]",100.0,"[-0.08917353805509061,0.11430570734785289]",4.0,"[0.10062030964937084,0.09630372729736139]",4.0,"[0.032716132254275235,0.0863570839824011]",4.0,"[0.08525056933635089,-0.10873125899018136]",4.0,"[0.17328672994716424,-0.002052229160042049]",4.0,"[-0.019640663296973653,-0.09980685335500353]",4.0,"[-0.160858963204044,-0.03910298942851724]",4.0,"[-0.0004648556993166838,0.19042609652812753]",4.0,"[-0.1195051136613722,-0.030476964348912346]",4.0,"[0.1235869048175256,0.04160791384944281]",4.0,"[0.01471779329599168,-0.035998749032304184]",100.0,"[0.02,0.02]",294.8563,0.0,3.0,3.0,201.0,1.0,,,,,,,
,,,,,,,683b46a5c71571449dd863cb,6846a84e5bfc320ef02303a3,2025-06-09_05h28.10.435,shape_ratio,2024.1.5,Win32,60.24096386,684250e4f00cb30b92d1fa88,,,,,,,,,,,294.858,295.3554,,,295.6058,295.8546,right,,,,,,,,0.4,,,,,,295.3556,295.6056,0.2346,,295.8549,"[0.09969027598691377,0.06783413859423915]",100.0,"[0.03546965458946364,-0.10369146648656928]",4.0,"[0.01854033302238188,-0.0320414610450126]",4.0,"[-0.11509826373833439,0.06922782740177537]",4.0,"[-0.05359487059268829,-0.08740019640881415]",100.0,"[-0.025517176906801595,0.17548700488156208]",4.0,"[0.04875796031193644,-0.06114927338129507]",100.0,"[0.16936176367654843,0.03375177345641609]",4.0,"[-0.031125395756050705,0.08051985721081126]",4.0,"[-0.14957028579677234,0.04610975983530594]",4.0,"[0.16215297040276908,0.08543194307422841]",4.0,"[0.014922188958362767,0.08063687393912734]",100.0,"[0.12773996499911008,-0.11044914596432409]",100.0,"[0.12437563877059812,-0.03798973113560698]",100.0,"[-0.01781353697551404,-0.15420713245894394]",4.0,"[-0.07987865817633967,0.12527926454773272]",4.0,"[0.17968443132971906,-0.027857916237211507]",100.0,"[-0.13911582824066596,-0.11738827284870174]",100.0,"[-0.08257707830320693,-0.056643920823435105]",4.0,"[0.12120561826102107,0.104080353140597]",4.0,"[-0.12917813423362456,0.13566753491728709]",100.0,"[0.09129588724356845,-0.1372408187056149]",100.0,"[-0.007038135039808328,-0.0717804319430164]",4.0,"[0.08445733115815214,-0.18053211653127083]",4.0,"[-0.06717805841264302,-0.18570173927670003]",4.0,"[0.08134333739500042,0.12559508977925452]",4.0,"[-0.025347915815687502,0.12415759185269679]",4.0,"[0.05439429816460222,0.05537580201790148]",100.0,"[-0.06427000012874218,-0.010632088949285846]",100.0,"[0.0313631141696561,0.18273794233304225]",100.0,"[0.1025166532108118,-0.0013174222542524418]",4.0,"[-0.0019722420327178856,0.01324241820017259]",4.0,"[0.02,0.02]",296.9531,0.0,4.0,4.0,164.0,1.0,,,,,,,
,,,,,,,683b46a5c71571449dd863cb,6846a84e5bfc320ef02303a3,2025-06-09_05h28.10.435,shape_ratio,2024.1.5,Win32,60.24096386,684250e4f00cb30b92d1fa88,,,,,,,,,,,296.9541,297.4525,,,297.7037,297.7362,right,,,,,,,,0.4,,,,,,297.4528,297.7036,0.0189,,297.7364,"[0.07919516840346237,-0.058339061384450434]",100.0,"[-0.09960309899031593,0.14050341283085818]",4.0,"[0.028102182310307408,0.13418865450863007]",100.0,"[-0.19761098296122495,-0.000408858939642752]",4.0,"[0.14245075434305246,-0.13471425950915034]",100.0,"[-0.006773508556237778,-0.179456474976143]",4.0,"[-0.09050316790684954,-0.062109339328735164]",100.0,"[0.021877302407640676,-0.00950675217818255]",100.0,"[-0.01825056822377934,0.1916476277156921]",100.0,"[-0.040499343575629385,-0.13870826717173518]",100.0,"[-0.05126139065515545,0.005198382232966541]",4.0,"[-0.08791942573348066,-0.01572361867015505]",4.0,"[0.1567117975135197,0.009011635009562884]",4.0,"[0.06204730556096101,0.10070780290979077]",100.0,"[-0.10085293623775755,0.04996908261117132]",4.0,"[0.060847679854548906,-0.1638808110896734]",4.0,"[0.10014035396998404,-0.09954830780807365]",4.0,"[0.13701496459136053,0.05333389374686371]",4.0,"[-0.10027121268876325,-0.11119449356015194]",4.0,"[0.1317851608354877,0.10970493739561504]",100.0,"[0.09217417319641767,0.020738088067085696]",4.0,"[-0.15979624865051384,0.01322714010399539]",4.0,"[-0.16341091218020654,0.07530654043077116]",4.0,"[-0.15023251409547264,-0.12989813417951263]",100.0,"[-0.01825525718689341,0.0736538158327763]",100.0,"[0.06965830618954912,0.14964543405936423]",100.0,"[-0.008768345517062506,-0.097592093663114]",4.0,"[0.14327096234936,-0.06031144739679194]",4.0,"[-0.026330179603483553,0.14291925706647404]",4.0,"[0.04300089804750579,0.19339355083696202]",100.0,"[-0.11390868999096743,-0.15134787998320162]",4.0,"[-0.07799153318606962,0.08917888388835987]",4.0,"[0.02,0.02]",298.8345,0.0,5.0,5.0,175.0,1.0,,,,,,,
,,,,,,,683b46a5c71571449dd863cb,6846a84e5bfc320ef02303a3,2025-06-09_05h28.10.435,shape_ratio,2024.1.5,Win32,60.24096386,684250e4f00cb30b92d1fa88,,,,,,,,,,,298.8357,299.3344,,,299.586,299.7869,left,,,,,,,,0.55,,,,,,299.3346,299.5859,0.1923,,299.787,"[0.025561560879176652,0.08830609665486626]",4.0,"[0.07503853625831651,0.1688937004377359]",100.0,"[0.04290342779972273,-0.020668126665182286]",100.0,"[-0.1001843888901777,0.007085156012204926]",100.0,"[0.12924136933356883,-0.06846818184788522]",100.0,"[0.1444886647139227,-0.01324188835630454]",100.0,"[0.0040090601758372,0.12364593377853587]",100.0,"[-0.09804885656053727,0.07754707941988367]",4.0,"[-0.1373968027697388,-0.14085820322219178]",100.0,"[-0.13991890396494938,0.09507696239960857]",4.0,"[0.15998271683430557,0.028587117547635505]",100.0,"[-0.16081514431216662,-0.09602503436546131]",4.0,"[0.06318473266220272,0.040925518381245404]",100.0,"[-0.16504137579771663,-0.023233832174970256]",4.0,"[0.07314317981508109,-0.13516011226534938]",100.0,"[-0.10301551882420797,-0.07506142890834479]",4.0,"[0.03831849001386205,-0.16476929404881102]",4.0,"[-0.0520101020643271,0.18440872567282887]",100.0,"[0.0015285688038458164,-0.007600149691889547]",100.0,"[0.016817769689334672,-0.09698046611378215]",100.0,"[0.13971562984634295,0.12249839150532726]",100.0,"[0.0703104255881056,0.08305520909660113]",4.0,"[-0.050397000011575904,-0.11246872129814224]",4.0,"[-0.13228371425741756,0.03327492442478644]",100.0,"[-0.09729746665506357,-0.1555762076701887]",100.0,"[-0.011558316988774364,-0.17913285255339176]",4.0,"[-0.02268893911869005,0.07868549857942457]",4.0,"[0.0616241815075425,0.12959935313025836]",4.0,"[-0.05899658378409539,0.0013593957334627766]",4.0,"[0.19436574734827297,0.00107197831528596]",4.0,"[0.18010993877491527,0.07143888665878]",100.0,"[-0.06524300977136445,0.12591210232936978]",100.0,"[0.02,0.02]",300.8828,0.0,6.0,6.0,62.0,1.0,,,,,,,
,,,,,,,683b46a5c71571449dd863cb,6846a84e5bfc320ef02303a3,2025-06-09_05h28.10.435,shape_ratio,2024.1.5,Win32,60.24096386,684250e4f00cb30b92d1fa88,,,,,,,,,,,300.8846,301.3821,,,301.6338,301.7321,right,,,,,,,,0.1,,,,,,301.3822,301.6338,0.0861,,301.7324,"[-0.024508667994181804,-0.17084545739836562]",100.0,"[0.03550554229914601,0.043054334868108925]",4.0,"[0.09795920002550847,0.1591543256394135]",4.0,"[0.0637201788827291,-0.17279840470494245]",4.0,"[-0.1336686658387989,-0.07169535365662215]",4.0,"[0.05928974524192292,-0.03210817618613683]",4.0,"[0.00244681743401985,-0.08440724386015343]",4.0,"[0.11699554363999837,-0.09062612306924756]",100.0,"[-0.07028098644537355,0.04257582828900038]",4.0,"[0.09377784287683287,0.02306762356114306]",4.0,"[-0.18538337927802198,0.017619609920156522]",4.0,"[-0.15974748243508463,0.054664667028456036]",4.0,"[-0.09880950655573463,-0.11805855804623973]",4.0,"[-0.0906787618269106,0.07832047372916713]",100.0,"[0.0863349258500283,0.0825346730779527]",4.0,"[0.07045618780488833,-0.11924275715129955]",4.0,"[-0.057440753203979546,-0.03365508071633773]",4.0,"[-0.029290303962444857,0.05422481856946386]",4.0,"[0.19118272374238404,-0.04061567849028206]",4.0,"[-0.13322060687671067,-0.024576771858619555]",4.0,"[0.05027958955210675,0.14849072108600508]",4.0,"[-0.0741071081984626,-0.18035852427017166]",4.0,"[-0.11842757821155174,0.1189277952639907]",4.0,"[0.004764159460303567,0.18866155022423092]",4.0,"[0.1858366360017602,0.06205586160212506]",4.0,"[0.015916898762441022,-0.1859002183437856]",4.0,"[-0.02118619779710614,0.1508791879113849]",4.0,"[-0.06398737398092694,0.1449143188223142]",4.0,"[-0.17368234033374907,-0.07227029508683386]",4.0,"[-0.1010716471222077,0.008403892331192235]",4.0,"[0.03765401644022121,0.10803879513019538]",4.0,"[-0.0026390154686213065,0.09052216034012163]",4.0,"[0.02,0.02]",302.831,0.0,7.0,7.0,205.0,1.0,,,,,,,
,,,,,,,683b46a5c71571449dd863cb,6846a84e5bfc320ef02303a3,2025-06-09_05h28.10.435,shape_ratio,2024.1.5,Win32,60.24096386,684250e4f00cb30b92d1fa88,,,,,,,,,,,302.8325,303.3303,,,303.5819,303.664,left,,,,,,,,0.55,,,,,,303.3304,303.5818,0.0681,,303.6641,"[0.05129401659804971,0.07023056683131207]",4.0,"[0.12520863622069203,-0.08571996298352529]",4.0,"[-0.15917647170723415,0.03981319352105039]",100.0,"[0.14035828361208508,0.008461027235522962]",100.0,"[0.10069913839053053,0.1695988957827089]",100.0,"[0.13232416917835058,-0.03244939475680412]",4.0,"[0.006041121855988318,0.1994411995330356]",100.0,"[0.003736810316477887,-0.17759175881311798]",4.0,"[0.057758492532243536,0.1479760057969672]",4.0,"[0.08254597346728584,-0.11789250698501728]",100.0,"[0.1682690481707987,0.07894222546936715]",100.0,"[0.024408191840278575,-0.10119722017062545]",100.0,"[-0.01150682614224172,0.002600093532362483]",100.0,"[0.01566074468035565,-0.041446183319864396]",100.0,"[-0.019781673842352174,0.07645819475518616]",100.0,"[0.06220866212200159,-0.01311994585429883]",100.0,"[-0.059330055251347116,-0.12484912243689775]",4.0,"[-0.014174233740860716,0.14312709817771904]",100.0,"[-0.07185675077449866,0.16321378121164948]",100.0,"[-0.03395650741746974,-0.04927290667104509]",4.0,"[0.12831494293313922,0.12459579883515248]",100.0,"[-0.1209958910862193,0.12351993780130566]",4.0,"[0.12060509875005787,0.051082166358909]",4.0,"[-0.16464002806915068,-0.0008039438831670116]",100.0,"[-0.10223306686157331,-0.0976303663695531]",100.0,"[0.03580685155211232,-0.14440921700211543]",4.0,"[-0.08907629604381528,-0.15326793233652927]",4.0,"[-0.14330053438768953,0.0881816585172032]",100.0,"[-0.07383327572398785,0.011153845780402334]",4.0,"[0.10384816998463162,-0.1646984622610381]",4.0,"[-0.1773817708952071,-0.07118979526772502]",4.0,"[-0.05757877441031169,-0.08337187344798812]",100.0,"[0.02,0.02]",304.7661,0.0,8.0,8.0,85.0,1.0,,,,,,,
,,,,,,,683b46a5c71571449dd863cb,6846a84e5bfc320ef02303a3,2025-06-09_05h28.10.435,shape_ratio,2024.1.5,Win32,60.24096386,684250e4f00cb30b92d1fa88,,,,,,,,,,,304.7673,305.2622,,,305.5139,305.6119,right,,,,,,,,0.5,,,,,,305.2623,305.5139,0.0859,,305.6121,"[-0.07312994565090357,-0.014638780691202518]",4.0,"[-0.0007064613982643876,-0.0294866908713353]",100.0,"[-0.007019461752260997,0.17131210762968277]",4.0,"[-0.1930355146518317,-0.0005367327794307343]",4.0,"[-0.02621170638077714,0.04869204274843784]",4.0,"[-0.013932224113975098,-0.1025869691666694]",4.0,"[0.02890125954616228,-0.08386567821124588]",100.0,"[-0.041202333704705864,0.11744320887557329]",4.0,"[0.19215842041495976,-0.025639248722058434]",100.0,"[-0.08142419152230906,0.16760798889388198]",4.0,"[0.17139868591554858,0.021918652483268655]",4.0,"[0.06334524865802862,-0.011513093656634677]",4.0,"[-0.13828820615096035,-0.08250944194153244]",100.0,"[-0.17087020421378563,0.0708421665889168]",4.0,"[0.07821811757165738,0.08515545542965194]",100.0,"[0.13582171009338556,-0.06834654482769302]",4.0,"[0.005213650851143141,0.09352411133043341]",4.0,"[-0.023736472049407577,-0.1890774450707479]",4.0,"[0.17279730964231815,0.08865289861054909]",4.0,"[0.09626759348823145,0.14546957756317871]",100.0,"[-0.16271528346571643,0.11002881571889596]",100.0,"[0.08114769831074703,-0.08255673292923113]",100.0,"[-0.11155593781749423,0.12511813145058553]",100.0,"[0.04473409381353297,-0.18066952160923833]",100.0,"[-0.09869245155943357,-0.06727124053252924]",100.0,"[-0.06244931843357087,-0.15795258498112652]",4.0,"[-0.0700381802985039,-0.10431517719403179]",100.0,"[0.07970658482495643,-0.14962336380752217]",4.0,"[0.12739134249547368,-0.13917744269524404]",100.0,"[-0.12452870624055934,-0.013299391363828614]",100.0,"[-0.08513941949233304,0.06392146605962404]",100.0,"[0.10278554391876715,-0.03861918621023397]",100.0,"[0.02,0.02]",306.7105,0.0,9.0,9.0,115.0,1.0,,,,,,,
,,,,,,,683b46a5c71571449dd863cb,6846a84e5bfc320ef02303a3,2025-06-09_05h28.10.435,shape_ratio,2024.1.5,Win32,60.24096386,684250e4f00cb30b92d1fa88,,,,,,,,,,,306.7122,307.2107,,,307.462,307.5769,left,,,,,,,,0.9,,,,,,307.211,307.4619,0.1032,,307.5771,"[-0.17411475679390953,-0.03987187714568784]",100.0,"[-0.10659087327911065,0.1561010401930062]",100.0,"[0.17595936518273886,0.046150338527393045]",4.0,"[0.0534192543541064,-0.13510527012771265]",100.0,"[0.012311795538201248,-0.17694102277430016]",100.0,"[-0.053152409136798355,-0.14188437720308392]",100.0,"[-0.11982764573617655,-0.011911513051490838]",100.0,"[0.11922118868484488,0.08579052218315729]",100.0,"[-0.14212050317348668,-0.11775144834414729]",100.0,"[0.07543874735514616,-0.009700765853682755]",100.0,"[0.16157210255312077,0.09519843600366996]",100.0,"[0.06548596610918554,0.03196133340132416]",100.0,"[-0.05951401024199366,-0.05439037513095897]",100.0,"[0.13246128309759536,-0.051950605090804076]",100.0,"[0.03310214407583438,-0.08264827430483229]",4.0,"[0.01743955271382635,0.08809994746529767]",100.0,"[0.010758800722580515,0.15287822355549666]",100.0,"[-0.04049716187940426,0.07089427957978713]",100.0,"[0.0023466837034224154,-0.12106447416638672]",100.0,"[-0.011290608493531645,-0.07560663725497895]",100.0,"[0.18722668176071466,-0.059847687150179366]",4.0,"[-0.10123773230045893,-0.15215498142060727]",100.0,"[0.11367191283758687,-0.16313758917257462]",100.0,"[-0.150921263519629,0.039150709956071165]",100.0,"[0.14439100957871018,-0.0038509355207632665]",100.0,"[-0.09458228281575373,0.09009262455789656]",100.0,"[0.07332215823961595,0.08452578655748012]",100.0,"[0.14642824444925967,0.13601230175908524]",100.0,"[-0.15989163318918515,0.1145042354209557]",100.0,"[0.0244533886654211,0.023818931548147005]",100.0,"[0.101492544183598,-0.09604172933121806]",100.0,"[0.07497721780583799,0.15690652529069507]",100.0,"[0.02,0.02]",308.6756,0.0,10.0,10.0,17.0,1.0,,,,,,,
,,,,,,,683b46a5c71571449dd863cb,6846a84e5bfc320ef02303a3,2025-06-09_05h28.10.435,shape_ratio,2024.1.5,Win32,60.24096386,684250e4f00cb30b92d1fa88,,,,,,,,,,,308.6769,309.175,,,309.427,309.4585,right,,,,,,,,0.45,,,,,,309.1751,309.4269,0.0187,,309.4589,"[-0.03328197174821096,0.196846716413823]",4.0,"[-0.1217422483373481,-0.1416823872743596]",4.0,"[0.08775566854201244,-0.10995617224575593]",100.0,"[-0.15819038958390036,0.0029677300774051253]",100.0,"[0.010416814619715782,-0.022037627514798642]",100.0,"[-0.018383819037324178,-0.162668415309962]",4.0,"[0.028241154764089876,-0.1628563962857947]",100.0,"[-0.12516075921400077,0.025980891534005023]",100.0,"[-0.056736786511592745,0.12206771473745529]",4.0,"[-0.13199981693167023,0.08147982449701646]",4.0,"[0.1510209155871037,0.09809824788175033]",4.0,"[0.025877321573945244,0.15267544846670167]",4.0,"[0.04328372930810908,-0.049475891027007425]",4.0,"[0.1890053661405807,0.06446456543969056]",4.0,"[0.13529149750015587,-0.0814687971823878]",100.0,"[0.13549436423025304,-0.13919330945442296]",4.0,"[0.10151724995833347,0.0861077449277486]",4.0,"[0.05743909469958943,0.07467575572606559]",100.0,"[-0.12911295306193923,-0.09814228493741815]",4.0,"[-0.028224780248871092,-0.0010564763545296814]",100.0,"[0.13758182445401973,-0.027190618556450254]",4.0,"[0.017141666975074014,0.10455161509587393]",4.0,"[-0.1040947398015232,0.15184395313400387]",100.0,"[0.03262691930133396,0.01631984105937045]",100.0,"[0.15466054180367822,0.013241301992731958]",100.0,"[-0.04471169826037156,-0.19333832119384375]",100.0,"[0.07215827408227256,0.12469973527889795]",4.0,"[0.09988054321852433,0.16845287777417375]",4.0,"[-0.08784501778268625,0.0013527390744658859]",100.0,"[-0.1966120888201773,0.03577882164952627]",4.0,"[0.06171829719950193,0.18069389566021812]",100.0,"[-0.001440039698816772,0.03941922170918403]",4.0,"[0.02,0.02]",310.5571,0.0,11.0,11.0,133.0,1.0,,,,,,,
,,,,,,,683b46a5c71571449dd863cb,6846a84e5bfc320ef02303a3,2025-06-09_05h28.10.435,shape_ratio,2024.1.5,Win32,60.24096386,684250e4f00cb30b92d1fa88,,,,,,,,,,,310.5591,311.0565,,,311.3085,311.4233,left,,,,,,,,0.5,,,,,,311.0566,311.3084,0.1052,,311.4235,"[0.059336382391612964,0.07845434812596914]",4.0,"[-0.09732926944474694,-0.07646840381920304]",100.0,"[-0.15331983436536892,0.10272863975537246]",100.0,"[-0.17986400909366088,-0.07833677637836899]",100.0,"[-0.13990711251491106,0.042934700248722556]",4.0,"[0.03977269805587332,-0.13751541077116075]",4.0,"[-0.009344884405379015,-0.07472871836253031]",4.0,"[-0.11148975027053332,0.16134981740115817]",4.0,"[-0.07118079834137474,-0.14907540395206575]",100.0,"[-0.1344123656584906,-0.13001124008267934]",100.0,"[0.16478155760540852,-0.09805786246230581]",100.0,"[0.04333440727849371,-0.0773440008727708]",100.0,"[-0.1164985725235399,0.08601598900750572]",4.0,"[0.09702638934298463,-0.14556525063227474]",4.0,"[-0.03103285032494846,0.17747345717647572]",100.0,"[0.08089467404727813,-0.012521764841256762]",4.0,"[-0.15167975737386602,-0.046192104432552054]",4.0,"[0.062146285654173954,0.13415763171298695]",100.0,"[-0.06619535853817476,0.1349442387728262]",4.0,"[0.004477191638564537,-0.16345504371950526]",4.0,"[-0.037894908134911656,0.007431607039928253]",100.0,"[0.13685045022981765,-0.03246932235601875]",100.0,"[0.15930388449628197,0.04467439528866177]",4.0,"[-0.05157640946290718,0.05953112550918201]",100.0,"[-0.053091520021142966,-0.042217424020441145]",4.0,"[0.010690656554194005,0.05244196525208812]",4.0,"[0.10180468229145917,0.06959038747247924]",4.0,"[-0.01514469847993181,0.12270733049799948]",100.0,"[0.08261537609394853,0.1727662378981862]",100.0,"[0.04562810597401637,0.007015831565383546]",100.0,"[0.1526362686333252,0.0912032431985352]",4.0,"[0.042438613963866854,-0.18986150176492858]",100.0,"[0.02,0.02]",312.5217,0.0,12.0,12.0,93.0,1.0,,,,,,,
,,,,,,,683b46a5c71571449dd863cb,6846a84e5bfc320ef02303a3,2025-06-09_05h28.10.435,shape_ratio,2024.1.5,Win32,60.24096386,684250e4f00cb30b92d1fa88,,,,,,,,,,,312.5229,313.0214,,,313.2729,313.4221,right,,,,,,,,0.4,,,,,,313.0215,313.2728,0.1355,,313.4222,"[0.16067081521358614,0.037564331328762766]",100.0,"[0.14314127531240564,0.0819160521153421]",4.0,"[-0.007226056665247572,-0.15888702843506328]",100.0,"[-0.07028317798942173,0.06331202973157424]",4.0,"[-0.0032705621240485326,-0.0990047735849574]",4.0,"[-0.021605946759104294,0.031214421387435284]",4.0,"[0.027944644950248766,0.11908101153861367]",4.0,"[-0.15159569599450892,0.11132140120967209]",100.0,"[-0.18026884372851512,0.03604658878538267]",100.0,"[0.074272662554019,0.07545179411211334]",4.0,"[-0.1265008258002016,0.012883584769750166]",4.0,"[-0.05105071465867218,-0.031144799026513206]",100.0,"[-0.09856634331650535,-0.10628632100777576]",4.0,"[0.05853670373470042,-0.05867220226028619]",100.0,"[-0.16859476114871821,-0.014129932737805873]",4.0,"[0.12757242905978167,0.13100511364655112]",4.0,"[-0.05680773374589134,-0.07390133758490255]",4.0,"[0.042723544905156605,0.1570800822664775]",4.0,"[0.02794864790423499,-0.0202458880358636]",100.0,"[-0.03950086238233749,0.1794976971501742]",4.0,"[-0.007332189060265282,-0.04780176774710493]",4.0,"[-0.08809610904644855,-0.1501536479685059]",4.0,"[0.04336874621483754,0.031321654510558836]",4.0,"[-0.022022016701224133,0.07174504443168794]",100.0,"[-0.1478674765064894,-0.09375558803090647]",4.0,"[-0.03769117643320551,0.10878361458145458]",100.0,"[-0.10683010194909473,0.11305129409361434]",100.0,"[0.08368039370826874,0.16429046409596956]",100.0,"[0.13100144611262238,-0.12576172756167586]",100.0,"[-0.1292925652061809,0.14656130252906202]",4.0,"[0.10503287220837682,-0.058774292473368385]",4.0,"[-0.12658904204885402,-0.1391451982616406]",100.0,"[0.02,0.02]",314.5207,0.0,13.0,13.0,156.0,1.0,,,,,,,
,,,,,,,683b46a5c71571449dd863cb,6846a84e5bfc320ef02303a3,2025-06-09_05h28.10.435,shape_ratio,2024.1.5,Win32,60.24096386,684250e4f00cb30b92d1fa88,,,,,,,,,,,314.5222,315.0202,,,315.272,315.4446,left,,,,,,,,0.5,,,,,,315.0202,315.2719,0.1522,,315.4448,"[-0.13529000880967507,0.05105665815725167]",4.0,"[-0.0009893653033884004,-0.040125592293989806]",4.0,"[0.013966699913171227,0.13236741648096353]",4.0,"[-0.05978908679873839,0.02322084821694468]",100.0,"[0.19757494961102304,0.026183919246806686]",4.0,"[0.08343006522462218,-0.006747933896608801]",4.0,"[0.13457490089238852,0.10170761176966034]",100.0,"[0.11801437574646559,-0.03706114641756004]",100.0,"[-0.13648174674077038,-0.0754735610599014]",4.0,"[0.010055250216552913,0.06254245047988231]",4.0,"[0.12891190855225648,-0.11667721080852975]",100.0,"[-0.05132996329281075,0.07897102980584698]",100.0,"[0.05360516121928074,0.1851243143926823]",4.0,"[-0.11818497211446434,0.0028236807177357175]",4.0,"[0.06488414734385078,-0.05036577924993793]",100.0,"[-0.12241559975167557,-0.1450940275872383]",100.0,"[-0.05115723459255688,-0.08348360462602529]",100.0,"[0.07397561893543099,0.09522668606817897]",100.0,"[0.16321441774029136,-0.0119120640870545]",100.0,"[-0.0866372194008009,-0.023969955797367062]",100.0,"[0.028756331354509255,0.024386274508890086]",4.0,"[-0.0684732957649469,0.15294631482907928]",100.0,"[0.06906490896622894,-0.1593532467052128]",4.0,"[-0.096719525603157,-0.10657385335963315]",4.0,"[0.08305610156063624,-0.09218575583355858]",4.0,"[0.16717606125655393,-0.09019696966996883]",100.0,"[0.07197771796483443,0.14686486861350523]",4.0,"[0.021318786081286872,-0.09479843402549756]",4.0,"[-0.013446518539015712,0.19443761320143116]",4.0,"[-0.17674004914327696,0.017704195686615257]",100.0,"[-0.006151639209970184,-0.1895649189449897]",100.0,"[0.1385641821780848,0.032930382953087575]",100.0,"[0.02,0.02]",316.535,0.0,14.0,14.0,109.0,1.0,,,,,,,
,,,,,,,683b46a5c71571449dd863cb,6846a84e5bfc320ef02303a3,2025-06-09_05h28.10.435,shape_ratio,2024.1.5,Win32,60.24096386,684250e4f00cb30b92d1fa88,,,,,,,,,,,316.5379,317.0346,,,317.286,318.5835,right,,,,,,,,0.5,,,,,,317.0347,317.2859,1.2843,,318.5836,"[0.029326259376365113,-0.024255861394157606]",4.0,"[0.11914443793210451,-0.07548171302339644]",4.0,"[-0.10856366011874306,-0.12662932859841164]",4.0,"[0.003335529503853499,0.011637460056310965]",100.0,"[-0.08477417219758997,-0.0568033160036003]",4.0,"[-0.151861644071799,0.09948204610836432]",100.0,"[0.12669614528287534,0.06974294105963047]",100.0,"[0.11552423637832505,0.14765466778988157]",100.0,"[-0.04154168093229528,0.16455155793119752]",4.0,"[-0.11263152392650251,0.03138147849550517]",100.0,"[0.07243631260730746,-0.06972196907541714]",4.0,"[0.015212815732464118,0.14880612649738287]",4.0,"[0.080675936430118,-0.12469628694942865]",100.0,"[-0.030419368802817294,-0.0941992772053195]",100.0,"[0.06343071044498966,0.08942191109409929]",4.0,"[-0.08482214004559298,0.1320701285222334]",100.0,"[0.0568339183140048,0.15823478117615114]",100.0,"[-0.04553203928654323,0.11996219465610494]",4.0,"[0.012630947775452156,-0.1531103978010407]",100.0,"[0.1835012805210529,0.025508474505216386]",100.0,"[0.002312385640794039,0.07533517091939863]",4.0,"[0.10144125271417077,-0.17014579999104137]",4.0,"[-0.05818127302142847,-0.1466982403389354]",100.0,"[0.13882301701609315,0.006732360366750339]",4.0,"[0.0946284380355147,0.003750927798976872]",4.0,"[-0.0020198744824335814,0.18814234196913102]",4.0,"[-0.06132700496218878,0.038069020424943964]",100.0,"[-0.1465183128540597,-0.0798781144226803]",4.0,"[-0.16726665566448753,-0.03369824308795491]",4.0,"[0.06079313540993875,-0.18659676258114705]",100.0,"[-0.06476415897714792,-0.007712870341754057]",100.0,"[-0.10577587346706596,0.08474689781604931]",100.0,"[0.02,0.02]",319.6823,0.0,15.0,15.0,119.0,1.0,,,,,,,
,,,,,,,683b46a5c71571449dd863cb,6846a84e5bfc320ef02303a3,2025-06-09_05h28.10.435,shape_ratio,2024.1.5,Win32,60.24096386,684250e4f00cb30b92d1fa88,,,,,,,,,,,319.6838,320.1816,,,320.432,320.5979,left,,,,,,,,0.5,,,,,,320.1818,320.4319,0.1567,,320.5981,"[0.11130248981851772,0.03190136531818144]",4.0,"[-0.1379359298120928,-0.08772437894573017]",4.0,"[-0.10458962512769711,0.03224934319280689]",100.0,"[-0.029355177553043486,0.07132647524762913]",4.0,"[-0.022232007845395044,-0.03588984071711719]",4.0,"[-0.028371094059055375,0.12034786785572174]",4.0,"[0.022999717787424184,0.01551360359801985]",100.0,"[0.07928515513707206,-0.1334991886699735]",4.0,"[-0.1038472169792595,-0.05629161153402873]",100.0,"[0.05823175009472003,-0.17907725612332942]",4.0,"[0.0916657952279736,-0.09500131638835647]",100.0,"[0.07878076371603195,-0.027315429291439285]",4.0,"[-0.11110680376969653,0.08802573534344395]",100.0,"[-0.02864735065453417,-0.19098472903326397]",4.0,"[0.15465939521467797,0.03645177359433767]",100.0,"[-0.06682412127497242,0.016405263082164716]",100.0,"[0.023345794951472907,0.13336643403831053]",4.0,"[0.14507897807711212,-0.060711930187737045]",100.0,"[-0.19848824896852613,0.004811989768570221]",4.0,"[0.02692463420764641,-0.1178921384043689]",4.0,"[-0.1311736222931964,0.13224968855805486]",4.0,"[-0.11584321018130014,-0.1295397538003613]",4.0,"[0.0900695560068478,0.0841011431159218]",4.0,"[0.12054248825056453,-0.008305723097430566]",100.0,"[0.02404012484740949,-0.03716786468698637]",100.0,"[-0.15903706098190382,-0.004889752227861967]",100.0,"[0.032205930238384625,0.08487704321836226]",100.0,"[-0.04417339450273615,0.1719791011187804]",100.0,"[-0.16059923462493922,0.04442494424114309]",100.0,"[-0.06884889897203379,-0.16487170951993374]",100.0,"[0.19374091318672998,0.013361119064543027]",4.0,"[0.13452316273001425,-0.13198280829813908]",100.0,"[0.02,0.02]",321.6964,0.0,16.0,16.0,102.0,1.0,,,,,,,
,,,,,,,683b46a5c71571449dd863cb,6846a84e5bfc320ef02303a3,2025-06-09_05h28.10.435,shape_ratio,2024.1.5,Win32,60.24096386,684250e4f00cb30b92d1fa88,,,,,,,,,,,321.6978,322.1962,,,322.4473,322.6461,right,,,,,,,,0.5,,,,,,322.1963,322.4473,0.1876,,322.6463,"[0.018892748626946322,-0.1448370405844463]",4.0,"[0.005139524188608882,0.10009154628239976]",4.0,"[-0.1184324179380409,-0.03160503036835475]",100.0,"[0.0010833814219351305,-0.06565543044063694]",100.0,"[0.1645809291300081,-0.10429489164369138]",100.0,"[0.026884736340439787,-0.10256597296819524]",4.0,"[-0.05427737363657373,0.11970128802208002]",100.0,"[-0.01430467184313284,-0.10654338888184695]",4.0,"[0.06156271166455999,-0.17120209270510064]",100.0,"[-0.177348532804692,-0.08260530089811373]",4.0,"[0.06281976259974156,0.1516641957355533]",100.0,"[0.18273419822808837,-0.03771802653491579]",100.0,"[-0.015977670249394373,0.05052250021925347]",100.0,"[-0.015115177969232977,-0.003016276756243963]",4.0,"[-0.03645547765170387,-0.14834432569065362]",4.0,"[-0.15682846021003335,0.0433222099459452]",100.0,"[0.13840925410840016,0.03095371550503077]",4.0,"[0.08558468516562366,0.02357960437671114]",100.0,"[0.08146921919213249,0.07620259540685229]",4.0,"[-0.07826972416732456,-0.025154472299029094]",4.0,"[-0.05309389649148295,-0.1899554781665863]",4.0,"[-0.1022899185557044,-0.13220157197569504]",4.0,"[0.04861631713212314,-0.03777585601462453]",100.0,"[-0.09764225957483101,0.16379657476916526]",100.0,"[0.12331973368327086,0.09583587504544414]",100.0,"[-0.16318530180923665,-0.013493022187433227]",100.0,"[0.12461339506768787,-0.0364414386418968]",100.0,"[0.10704625257516305,-0.12443791675766963]",4.0,"[-0.053158982808254845,-0.058647891470155644]",4.0,"[0.032493859783015326,0.040298158685455186]",100.0,"[-0.0907480052813725,0.06933640812179676]",4.0,"[0.1687271363251172,0.07846936663621189]",4.0,"[0.02,0.02]",323.7447,0.0,17.0,17.0,94.0,1.0,,,,,,,
,,,,,,,683b46a5c71571449dd863cb,6846a84e5bfc320ef02303a3,2025-06-09_05h28.10.435,shape_ratio,2024.1.5,Win32,60.24096386,684250e4f00cb30b92d1fa88,,,,,,,,,,,323.7465,324.2443,,,324.4958,324.6136,left,,,,,,,,0.6,,,,,,324.2444,324.4958,0.1094,,324.6137,"[-0.1173224757239403,-0.11575644596086411]",100.0,"[-0.08826223981547082,-0.06197092420750862]",100.0,"[0.061046545821669136,0.16602920303872234]",100.0,"[-0.11918389449199977,0.14941994157965027]",100.0,"[0.142419517754282,-0.01404076240209205]",4.0,"[0.1458352938866568,0.05760015869171815]",100.0,"[0.14133642653638023,-0.1314268228771818]",4.0,"[-0.15641150135458076,0.023196397959395116]",100.0,"[0.16258870552776292,-0.09087724567917368]",4.0,"[-0.15743454970060158,0.07125168336729784]",100.0,"[-0.004208284935328054,-0.049573997723586664]",100.0,"[-0.14818485355604175,0.11396151224724538]",4.0,"[-0.09327318133251136,-0.006289678299736938]",100.0,"[0.007342943999179172,0.0566985171157403]",4.0,"[-0.07213316656999226,-0.1280020670177476]",100.0,"[-0.0116459643091038,-0.14087646068898405]",100.0,"[-0.1799178592112274,-0.04056854035217779]",100.0,"[0.1904501635745029,-0.002454505905844176]",4.0,"[0.06679343214977412,-0.1797728366875114]",4.0,"[-0.03911848052459135,0.1928034362688098]",100.0,"[0.09132831217721986,0.09976466057228296]",100.0,"[0.0077963258971643625,-0.19108772636076207]",100.0,"[-0.01741749850375371,0.00668975345102273]",4.0,"[0.1733602748908807,-0.04892729040303339]",4.0,"[0.019172234369610196,0.10371624968348056]",100.0,"[-0.053509739194208775,0.09721075875386503]",4.0,"[-0.05675114398726583,0.028253378980596225]",4.0,"[0.10297433804375151,-0.004003413225733925]",100.0,"[0.08723217654931414,-0.0698895876904868]",100.0,"[0.08936336062843679,-0.12412896119712852]",100.0,"[0.051685136543500876,0.03142500478124879]",4.0,"[0.03241371959507949,-0.06880163726655421]",4.0,"[0.02,0.02]",325.7093,0.0,18.0,18.0,58.0,1.0,,,,,,,
,,,,,,,683b46a5c71571449dd863cb,6846a84e5bfc320ef02303a3,2025-06-09_05h28.10.435,shape_ratio,2024.1.5,Win32,60.24096386,684250e4f00cb30b92d1fa88,,,,,,,,,,,325.7112,326.2091,,,326.4659,326.5809,right,,,,,,,,0.9,,,,,,326.2092,326.4659,0.0992,,326.5811,"[-0.14582439573254594,0.12603486436474862]",100.0,"[0.00913395767864196,-0.024957064753052934]",100.0,"[-0.0020866552139876694,0.13350798047166104]",100.0,"[0.10178731860678954,-0.11895381439564488]",100.0,"[-0.02636023484521044,0.19254270866251794]",100.0,"[-0.10931657297137651,-0.11672849043401465]",100.0,"[-0.03308965646061626,-0.08938864784666253]",100.0,"[0.013443145858254908,0.0702005578994043]",100.0,"[-0.17575180883878674,0.06944909348484732]",100.0,"[0.03229019879821125,0.025693210139762886]",100.0,"[-0.07729533169216121,0.16531916816361125]",100.0,"[0.05895203139672966,-0.08752744057301291]",100.0,"[-0.1904091860003137,-0.034615927628249714]",100.0,"[-0.06277109009194998,-0.15560433287179695]",100.0,"[-0.047110556083966616,0.041777890244464405]",100.0,"[0.019804845209675282,0.18381482705469943]",100.0,"[0.043321900689064156,0.12221898726651821]",100.0,"[0.13202851951100608,0.1230051375734862]",100.0,"[-0.1798381865279963,0.026861354231486393]",100.0,"[0.10143689721950673,0.03269888364139768]",100.0,"[-0.056132666023023026,-0.053299320675568015]",100.0,"[-0.01162410697092118,-0.1515844435576333]",100.0,"[-0.11784851171663192,0.08359639899357216]",4.0,"[0.14550516100759067,0.01025208018130401]",100.0,"[-0.09552194323362113,0.04293115235089281]",100.0,"[0.1681744616928689,-0.04048774824452229]",100.0,"[0.13430794228446147,-0.08010825960995369]",100.0,"[-0.1438586715818652,0.008562846344882106]",100.0,"[0.04761812306189475,-0.14007900211658117]",4.0,"[0.1774061016886265,0.07442981768693518]",4.0,"[0.016389061440856757,-0.19435501452798332]",100.0,"[-0.15650144969130236,-0.10465856253195817]",100.0,"[0.02,0.02]",327.6744,0.0,19.0,19.0,16.0,1.0,,,,,,,
,,,,,,,683b46a5c71571449dd863cb,6846a84e5bfc320ef02303a3,2025-06-09_05h28.10.435,shape_ratio,2024.1.5,Win32,60.24096386,684250e4f00cb30b92d1fa88,,,,,,,,,,,327.6767,328.1797,,,328.4252,328.4951,left,,,,,,,,0.45,,,,,,328.1798,328.4252,0.061,,328.4953,"[0.0855860546561139,0.012168533501229805]",100.0,"[-0.08434893035227023,-0.07394477232402243]",4.0,"[-0.044426063542595796,-0.13998189073013695]",4.0,"[-0.018355105167587597,-0.06322004096379902]",100.0,"[-0.0918614468998341,-0.1290564756385757]",100.0,"[-0.02802868801635108,0.1755903634227574]",4.0,"[0.06934253041178368,-0.03436354876028686]",100.0,"[0.07666607749734022,0.14810654659970185]",100.0,"[0.12705439327283413,-0.09660038958592633]",100.0,"[0.1471081009151078,0.05874709719917953]",4.0,"[-0.022924769206695544,0.053878064636777696]",4.0,"[-0.13673678643213003,0.07752367175568568]",100.0,"[-0.028488807443363403,0.128813243317272]",4.0,"[-0.04605561765176361,-0.03084962087729855]",100.0,"[-0.06297035066458699,0.08257180017899254]",4.0,"[0.04554599607528758,0.05341496761542018]",4.0,"[-0.08221592099829539,0.030915571803572482]",4.0,"[-0.09983035868413194,0.12946254178726405]",100.0,"[-0.16291021576774287,-0.012406209256416403]",100.0,"[0.03343632145670029,-0.1339462451599576]",100.0,"[-0.15443162644249508,-0.060211116206116605]",100.0,"[0.1624218461188874,-0.04019750384137423]",4.0,"[-0.12790290065394191,0.03299516426115411]",4.0,"[-0.1017592153382526,-0.006805132225769555]",4.0,"[-0.03852784990803962,-0.18726789403764094]",4.0,"[-0.003753326085168374,0.09392912950043852]",4.0,"[0.07718382402259491,0.0783504708557705]",4.0,"[0.10671349413475441,-0.052628011459348686]",4.0,"[0.10635482080470521,-0.14461678368580747]",100.0,"[-0.08577587669020847,-0.17059419035140425]",4.0,"[0.16005124604140886,0.10958059528440517]",4.0,"[0.11090272675283958,0.12532995777835604]",100.0,"[0.02,0.02]",329.589,0.0,20.0,20.0,129.0,1.0,,,,,,,
,,,,,,,683b46a5c71571449dd863cb,6846a84e5bfc320ef02303a3,2025-06-09_05h28.10.435,shape_ratio,2024.1.5,Win32,60.24096386,684250e4f00cb30b92d1fa88,,,,,,,,,,,329.5904,330.0893,,,330.3404,330.3889,left,,,,,,,,0.6,,,,,,330.0893,330.3403,0.0341,,330.389,"[0.06119598228623993,0.05548589319461161]",100.0,"[0.02519520699302096,-0.035699827336409]",4.0,"[-0.13086890483591662,-0.05001237627628597]",100.0,"[-0.06856767244057725,0.10201594553997469]",100.0,"[-0.12063898158242645,0.08179220323537385]",100.0,"[0.1671338573861961,0.07349202872206945]",100.0,"[0.08323176390235355,0.11776745818134672]",100.0,"[-0.041567677647766074,0.1569210155314513]",100.0,"[0.03396681422444311,-0.19158827635841205]",100.0,"[0.113589206962438,-0.11774283669144567]",100.0,"[-0.05520373506261141,-0.18502562047262458]",4.0,"[0.09566293067248047,0.005561037012936415]",4.0,"[0.007382151866472002,0.005006313842200739]",100.0,"[-0.1529034376480219,-0.12396495575690944]",100.0,"[0.024489907349825892,0.07197985842253576]",4.0,"[0.15608114991519875,0.02511927287828621]",4.0,"[0.1775303986063931,-0.0786164321660115]",4.0,"[-0.07665392026205925,0.01760044652231289]",100.0,"[0.03333244843097214,0.13004729600058304]",4.0,"[-0.022761005443506312,-0.07552259264728034]",4.0,"[0.04676564155652163,-0.0984682501175868]",4.0,"[-0.11908882859798596,0.15893859058673626]",100.0,"[0.1033652976743437,-0.05869267002368186]",100.0,"[0.16692881645992644,-0.02643373432927401]",100.0,"[0.12558808051163697,0.10288566844358843]",100.0,"[-0.0030661058552510197,-0.13595099084215365]",4.0,"[0.07365510669191198,-0.14042234275219706]",4.0,"[-0.10797115774704553,-0.13391216385852142]",100.0,"[0.114569587869178,0.1442557309271597]",4.0,"[-0.04972451531318559,-0.11414588785090962]",100.0,"[0.053237267559054835,0.17224682957354878]",4.0,"[-0.13094215553838806,0.03418382188815539]",100.0,"[0.02,0.02]",331.4876,0.0,21.0,21.0,52.0,1.0,,,,,,,
,,,,,,,683b46a5c71571449dd863cb,6846a84e5bfc320ef02303a3,2025-06-09_05h28.10.435,shape_ratio,2024.1.5,Win32,60.24096386,684250e4f00cb30b92d1fa88,,,,,,,,,,,331.4889,331.9871,,,332.2384,332.3704,right,,,,,,,,0.1,,,,,,331.9872,332.2382,0.1208,,332.3708,"[0.14613765771575704,0.07390019266250605]",4.0,"[-0.12847900219626768,-0.05524416664296538]",100.0,"[0.06723514300691284,0.10146831246587912]",4.0,"[-0.14261949710357133,0.1271551902595843]",4.0,"[0.07683865589409052,0.17502684108518377]",4.0,"[-0.1314372342616481,0.041768920917571645]",4.0,"[-0.17966013900262426,-0.034213836568891806]",4.0,"[-0.1034954637516234,-0.11734358641786341]",4.0,"[-0.043736062115803116,0.05481595243231944]",4.0,"[-0.0020980456695984147,-0.020955305744132173]",4.0,"[-0.1477118978069591,0.08498393100927452]",4.0,"[0.11368191985212857,0.1221626751037692]",4.0,"[0.02675247679297146,0.043687306340577735]",4.0,"[0.16566488062038992,-0.10091371380762028]",4.0,"[-0.02406219946619602,-0.07856534683264188]",4.0,"[0.07919506398627942,-0.0937816377894953]",100.0,"[-0.07226704529474225,-0.08921528238393188]",100.0,"[0.1961471038899784,-0.026927213412999546]",4.0,"[-0.059130113327771544,0.13678461744746434]",4.0,"[0.1373544465290422,0.03312328839300748]",4.0,"[-0.04963364173905022,-0.024099580969326666]",4.0,"[-0.09509303490598522,-0.013579910528078196]",4.0,"[0.04419598145087588,-0.13484069918032224]",4.0,"[-0.006002207107233567,0.19296458353466311]",4.0,"[0.10808213559801541,-0.05787168599893929]",4.0,"[-0.0980786110357669,0.10024741569806261]",4.0,"[-0.009856462709993812,-0.19881772648119736]",4.0,"[0.02846064919214158,0.15848223139851567]",4.0,"[0.08934959844644767,0.05898108385633063]",4.0,"[-0.10677921830347772,0.16063037886785864]",4.0,"[-0.17437250451758873,0.0352604464414931]",4.0,"[0.03605047087369081,-0.07023602195094732]",4.0,"[0.02,0.02]",333.469,0.0,22.0,22.0,194.0,1.0,,,,,,,
,,,,,,,683b46a5c71571449dd863cb,6846a84e5bfc320ef02303a3,2025-06-09_05h28.10.435,shape_ratio,2024.1.5,Win32,60.24096386,684250e4f00cb30b92d1fa88,,,,,,,,,,,333.4708,333.9683,,,334.2201,334.3211,left,,,,,,,,0.45,,,,,,333.9684,334.22,0.0916,,334.3213,"[-0.15505818135840657,0.08453026473270774]",100.0,"[-0.021789789176758036,0.03566813102057247]",4.0,"[0.038289609086946993,0.14242426024124644]",100.0,"[-0.014073626308407293,-0.16417246340230815]",4.0,"[-0.017577103262449944,-0.0361106127644413]",4.0,"[-0.048387895426150754,-0.14156453951298023]",4.0,"[-0.15038610865699278,-0.05484233182473568]",100.0,"[-0.10420851374895673,-0.07136064278146217]",4.0,"[0.046157021216664894,-0.025911210878517926]",100.0,"[0.029218393387279957,0.1849758563484493]",100.0,"[0.15274017829172018,-0.025649568015268888]",4.0,"[0.17799411017843517,-0.08606820478901087]",100.0,"[0.01046227227026993,0.0037846333970551383]",4.0,"[-0.09155568552718725,-0.12662189638152666]",100.0,"[0.0502609376260048,0.09340612052792122]",4.0,"[-0.1764843697231149,-0.08880101182785978]",4.0,"[-0.14897807683164907,0.04089575038757714]",100.0,"[-0.015629301311277318,-0.08072742503696209]",100.0,"[0.10743192362881737,0.14741342477427757]",4.0,"[0.029615130965649647,0.052421551046296734]",4.0,"[-0.08648852219867381,0.11581875964162877]",4.0,"[-0.0696701915311292,0.06380625935606157]",100.0,"[0.08884455583518015,-0.13954271339530838]",4.0,"[0.08924326822087189,-0.0459654273998226]",100.0,"[-0.05277885662501054,0.18741923933757992]",4.0,"[0.0331347664586789,-0.1672829873120497]",100.0,"[0.10052039464503887,0.0971532723846935]",100.0,"[-0.08947389437237323,-0.015368865198355206]",100.0,"[0.06869852114410394,-0.08429514007053816]",4.0,"[0.11712551933287095,0.04253152898350966]",4.0,"[-0.006563631820049909,0.08682143588493545]",4.0,"[0.13999078595546074,0.11155372344677844]",4.0,"[0.02,0.02]",335.4174,0.0,23.0,23.0,124.0,1.0,,,,,,,
,,,,,,,683b46a5c71571449dd863cb,6846a84e5bfc320ef02303a3,2025-06-09_05h28.10.435,shape_ratio,2024.1.5,Win32,60.24096386,684250e4f00cb30b92d1fa88,,,,,,,,,,,335.4188,335.9166,,,336.1682,336.3496,right,,,,,,,,0.6,,,,,,335.9168,336.168,0.1676,,336.3498,"[0.03006405217014455,0.009812676696453332]",4.0,"[0.06002999012190408,0.18276381231051148]",100.0,"[-0.04669481005253004,0.15385920156837457]",4.0,"[-0.013894654272164414,-0.17146534619449386]",100.0,"[-0.07755875765556895,-0.06168307021188616]",100.0,"[0.028407375632636685,0.09149751880807476]",100.0,"[0.03050400023332039,-0.11719194713611017]",4.0,"[0.15167760740926564,0.07413350834050873]",100.0,"[-0.04268682247429628,0.004636371708172978]",100.0,"[-0.08565012431273866,0.026656251696044856]",100.0,"[-0.1392432967629404,0.04709637038777503]",4.0,"[-0.17778079333498642,0.008312086632129425]",100.0,"[-0.0927146434839996,0.06750042614837386]",4.0,"[0.10236891913805765,0.029536814307197443]",4.0,"[0.14542625311558643,0.13708859265870244]",100.0,"[0.1437383598577905,0.006036026716315575]",4.0,"[-0.09941677125873684,-0.14419780222527462]",4.0,"[0.07070888446621997,0.08067805244449182]",100.0,"[0.07455044962297143,-0.1193984377008536]",100.0,"[0.09784355414689813,0.1573598146554765]",4.0,"[-0.013974810540599875,0.0648973021907964]",100.0,"[0.05382185675324537,-0.0836183277468473]",100.0,"[0.05772823875351938,-0.17633367157111912]",100.0,"[0.09533686072361768,-0.045221182811592424]",4.0,"[-0.17964187029246378,0.057005124852396075]",100.0,"[-0.14050729730586337,0.09635952762799503]",100.0,"[0.12914709084268186,-0.12256330408277132]",100.0,"[-0.12652325598992026,-0.0029314986735783687]",4.0,"[-0.05316981750438293,0.0871972120199893]",100.0,"[-0.03001576426094833,-0.10044150763171196]",100.0,"[-0.1062964943913622,-0.10434232090467849]",4.0,"[0.040820407707731605,0.14722275716423042]",4.0,"[0.02,0.02]",337.4484,0.0,24.0,24.0,51.0,1.0,,,,,,,
,,,,,,,683b46a5c71571449dd863cb,6846a84e5bfc320ef02303a3,2025-06-09_05h28.10.435,shape_ratio,2024.1.5,Win32,60.24096386,684250e4f00cb30b92d1fa88,,,,,,,,,,,337.4503,337.948,,,338.1998,338.3315,left,,,,,,,,0.9,,,,,,337.9481,338.1996,0.119,,338.3318,"[0.061861135007055534,-0.05948240845970493]",100.0,"[0.13256747127905935,0.10659593130714858]",100.0,"[0.022922435245088822,0.1318412239795367]",100.0,"[-0.08325041209825453,0.09023877349915825]",100.0,"[-0.05427717838417754,-0.09716713084913058]",100.0,"[0.00010870477039078462,0.04910694029933524]",100.0,"[-0.14404615075023602,0.013836630595450292]",100.0,"[-0.1808233164448021,0.05945233464467267]",100.0,"[-0.1078645191740617,-0.030199704020111302]",100.0,"[-0.1272616020545344,-0.06652274665062323]",100.0,"[0.16373377866454286,-0.11428782552149125]",100.0,"[-0.04074374030801277,-0.19221505959299096]",100.0,"[0.12286752626089051,-0.15125505553364949]",100.0,"[0.053089287261143515,-0.1283122637667145]",4.0,"[-0.07238601479354699,-0.1402780970549092]",100.0,"[0.04343571793203573,0.01880138070359376]",100.0,"[0.11598791160962081,0.020952637591888996]",100.0,"[0.09789418093896773,0.1657244283059107]",4.0,"[-0.030338994198690298,0.08036784817890243]",100.0,"[-0.1407533951753941,0.0951076115899569]",100.0,"[0.17274862682021563,0.07137324251948772]",100.0,"[-0.05874106212848237,-0.030134185555409365]",4.0,"[-0.05116220334375884,0.16064727478483543]",100.0,"[0.0316990717743004,0.19601274065312527]",100.0,"[0.07710094809115549,0.06428538846225473]",100.0,"[-0.09538355199179847,0.05110227864251899]",100.0,"[0.13473528249397304,-0.04591337390149002]",100.0,"[-0.18240406431172265,-0.019779227696248167]",100.0,"[0.1594922786675899,0.00008624543684579767]",100.0,"[-0.012171766120668297,0.18539051945782584]",100.0,"[-0.005279591301226623,-0.11250727293391133]",100.0,"[-0.02767504406646769,0.12036577496125966]",100.0,"[0.02,0.02]",339.4299,0.0,25.0,25.0,23.0,1.0,,,,,,,
,,,,,,,683b46a5c71571449dd863cb,6846a84e5bfc320ef02303a3,2025-06-09_05h28.10.435,shape_ratio,2024.1.5,Win32,60.24096386,684250e4f00cb30b92d1fa88,,,,,,,,,,,339.4316,339.9295,,,340.1808,340.3629,right,,,,,,,,0.55,,,,,,339.9296,340.1806,0.1709,,340.3632,"[0.1416490520704715,0.06391857557503482]",100.0,"[0.02149108746358618,0.06455846663384916]",4.0,"[-0.13482052040699377,0.11226103807094145]",4.0,"[0.059104789634421874,-0.08949277707201723]",100.0,"[0.04319414360103418,0.15715534004242526]",4.0,"[-0.14211675971558962,-0.0529991359926363]",100.0,"[0.02175603700522232,0.10893610163837972]",4.0,"[-0.10481849541574345,0.029847512813010117]",100.0,"[-0.04590306810623764,-0.03102035209874707]",100.0,"[0.038001775587863294,-0.1767488330910353]",100.0,"[0.1853560593429723,0.006902291748205096]",100.0,"[0.10173811915603874,-0.1299714051445066]",100.0,"[-0.041339124435655135,0.11095722727878708]",100.0,"[-0.09514760936736767,-0.015766998868375272]",4.0,"[0.12063350680789367,0.1350073113690778]",100.0,"[0.006259686516338814,-0.1306282400871428]",100.0,"[-0.09243416092041226,-0.15032217426069228]",100.0,"[-0.04601895997463129,0.17624670811883644]",4.0,"[-0.10394982002009104,0.07655608275672883]",4.0,"[-0.10189280638551071,-0.08042894447011524]",100.0,"[0.08624933899673551,-0.040150297588623464]",4.0,"[0.06990894153804494,0.0699906203623199]",4.0,"[-0.056662052105592595,0.06687844632974298]",4.0,"[-0.024128558731516644,0.033992173906537776]",4.0,"[-0.05861550317547672,-0.08278043226433006]",100.0,"[0.16015534505241585,0.10732052729046206]",4.0,"[0.16198513369196793,-0.10510133563510984]",100.0,"[-0.1236230223571545,-0.12198931744833799]",100.0,"[0.07455033884456568,0.12384012672012078]",100.0,"[0.030204408831501644,-0.014652370671398898]",4.0,"[0.15179496812919718,-0.052792258740210665]",100.0,"[-0.11089269194256442,0.15126369037921175]",4.0,"[0.02,0.02]",341.4615,0.0,26.0,26.0,72.0,1.0,,,,,,,
,,,,,,,683b46a5c71571449dd863cb,6846a84e5bfc320ef02303a3,2025-06-09_05h28.10.435,shape_ratio,2024.1.5,Win32,60.24096386,684250e4f00cb30b92d1fa88,,,,,,,,,,,341.4634,341.9611,,,342.2123,342.2955,left,,,,,,,,0.5,,,,,,341.9613,342.2122,0.0703,,342.2957,"[0.19704268611209505,-0.006988659929906623]",4.0,"[-0.13257143083212244,0.0603828905421055]",100.0,"[-0.1323717367628406,-0.048226855883324454]",4.0,"[-0.05633920710388858,-0.04580169148558477]",4.0,"[0.12171688759149023,-0.1579928120771838]",100.0,"[0.009495878329798806,-0.07790174581044397]",100.0,"[-0.06390407363998053,0.05810047953696218]",100.0,"[0.05021149352724341,0.037055278830848644]",4.0,"[0.04197806377757717,-0.11924424205095689]",4.0,"[-0.035436120889765686,0.15641103103811388]",4.0,"[-0.19073618400270986,-0.015389745265361977]",4.0,"[0.1295226020487059,0.13303823897462777]",100.0,"[-0.07347866711898676,-0.16615587197291137]",4.0,"[0.08748956872020136,0.11898066101744004]",4.0,"[0.1394933352131162,-0.041859967069225366]",100.0,"[-0.019101274183528163,-0.14719151244847023]",100.0,"[-0.11827809779202199,0.02276206911444258]",100.0,"[-0.1320034546845295,0.10544296866984385]",100.0,"[0.07979733646559031,0.006765255963109329]",100.0,"[-0.07782241168008279,0.13276344298856693]",100.0,"[-0.02740258433089726,-0.0007219014262731537]",4.0,"[0.04442721794050127,0.09889600328602569]",4.0,"[0.07662093626919053,-0.09185378847567484]",100.0,"[-0.088453686487275,-0.1251652975347142]",4.0,"[0.026554189143663705,0.0007469410717240549]",4.0,"[0.008389814447240273,0.03700730004307444]",100.0,"[-0.1669069514926065,-0.08484369083019062]",100.0,"[0.04751325282875113,-0.18945562536004656]",4.0,"[0.07719356009320048,-0.15312494999724166]",100.0,"[0.16227089931750385,0.09855629971640989]",4.0,"[0.16276065912415624,0.03838723919140206]",100.0,"[0.14593388545249172,-0.09452829560029082]",4.0,"[0.02,0.02]",343.3932,0.0,27.0,27.0,113.0,1.0,,,,,,,
,,,,,,,683b46a5c71571449dd863cb,6846a84e5bfc320ef02303a3,2025-06-09_05h28.10.435,shape_ratio,2024.1.5,Win32,60.24096386,684250e4f00cb30b92d1fa88,,,,,,,,,,,343.3945,343.8947,,,344.1501,344.4626,left,,,,,,,,0.6,,,,,,343.8948,344.15,0.2962,,344.4627,"[0.12423083210860066,-0.08255239706474193]",4.0,"[-0.10883262451229435,-0.15299367797263946]",100.0,"[-0.059143606539115275,-0.1894843454001324]",4.0,"[0.07403434681839065,0.13440192736153117]",4.0,"[0.11878010208870149,0.02587977155099694]",100.0,"[-0.03592318785151824,0.10654327892113992]",4.0,"[-0.0860357878795212,0.15842151051448905]",100.0,"[-0.0497109931866083,-0.11348667582456176]",4.0,"[0.05638473919450136,0.04009482606880431]",100.0,"[-0.13273198397981206,0.08095283297860323]",4.0,"[-0.10198392674956316,0.050334729393623545]",100.0,"[-0.12007311877471202,0.01207937944644075]",100.0,"[-0.18621347989997838,-0.02169900394136685]",100.0,"[0.08715166584511608,0.09283464487478484]",100.0,"[0.1803850762666402,0.00898350590286731]",100.0,"[0.07938911999124672,-0.07546953783882229]",4.0,"[0.14503560156209824,0.0656274167276336]",4.0,"[-0.16443150062033707,0.032852183820284465]",100.0,"[-0.09034087298732793,0.11823537192890855]",100.0,"[0.07238184625469418,-0.12635823981243094]",100.0,"[0.03670426310687278,-0.0241171830944821]",100.0,"[-0.05493350449718146,-0.033746602188071566]",4.0,"[0.1153568551521529,0.1611011953095114]",100.0,"[0.02067906860147268,0.18433939490157275]",100.0,"[-0.007974957988744303,-0.1306365146488383]",4.0,"[-0.0994707505830114,-0.11282305699815066]",100.0,"[-0.006747358987936957,0.07817576281917413]",4.0,"[0.029131495118192283,-0.19715306407739155]",4.0,"[-0.15461334397119614,-0.07802962853587578]",100.0,"[0.1302276816929626,-0.03574357295803632]",4.0,"[-0.02916859932585239,0.1617506786527962]",100.0,"[-0.005142524749227557,-0.04755893720058403]",100.0,"[0.02,0.02]",345.5579,0.0,28.0,28.0,35.0,1.0,,,,,,,
,,,,,,,683b46a5c71571449dd863cb,6846a84e5bfc320ef02303a3,2025-06-09_05h28.10.435,shape_ratio,2024.1.5,Win32,60.24096386,684250e4f00cb30b92d1fa88,,,,,,,,,,,345.5607,346.0632,,,346.3132,346.4963,left,,,,,,,,0.6,,,,,,346.0632,346.3131,0.1663,,346.4964,"[0.04650158202017066,0.13691718925233343]",4.0,"[-0.03923985341354686,0.14713321117797362]",100.0,"[0.0791954529588804,-0.061504357114695304]",100.0,"[-0.17083591199321477,0.0628974531782237]",100.0,"[0.005851697709775671,-0.05628320136904344]",100.0,"[-0.04767378016447204,0.18779942648589643]",4.0,"[0.06778028535989013,0.057611347093417344]",100.0,"[0.014289480690237319,0.025822320540391817]",4.0,"[0.15122390626445795,0.11762366882105055]",100.0,"[-0.19822180076051682,-0.0017388441987044078]",4.0,"[0.04851083534987904,-0.17033654394493178]",4.0,"[0.12533260804460042,0.038777647138607436]",4.0,"[0.18814008696740397,-0.019012786133929184]",100.0,"[0.10049285483821331,-0.1658125504998897]",100.0,"[-0.14686794242565548,-0.02091307934768606]",4.0,"[0.08493765261934966,0.011049148445822216]",4.0,"[-0.08201722100926873,0.02507613315659162]",4.0,"[0.053813842118142725,-0.1255476194315773]",100.0,"[-0.12856917472440302,-0.0966211908821929]",100.0,"[0.1414275870489161,-0.09672847664984187]",4.0,"[-0.11132866411494244,0.145371084715776]",100.0,"[-0.010884572766678128,-0.15487482716107998]",100.0,"[0.174665215076887,0.06704962469373076]",100.0,"[0.0654933210152402,0.09901590340028563]",100.0,"[-0.07428423919026288,-0.09397483922321898]",100.0,"[-0.03513434026336154,0.021607747983290144]",4.0,"[0.17872592735056753,-0.06671523767501907]",100.0,"[-0.07412366135235994,0.08042098367194954]",100.0,"[-0.005035650079089687,0.06254256273167613]",100.0,"[-0.09423037394384969,-0.1384213660099598]",4.0,"[-0.18982225425149094,-0.05261326601154531]",4.0,"[0.1196125514164684,0.1558070085353189]",100.0,"[0.02,0.02]",347.5887,0.0,29.0,29.0,37.0,1.0,,,,,,,
,,,,,,,683b46a5c71571449dd863cb,6846a84e5bfc320ef02303a3,2025-06-09_05h28.10.435,shape_ratio,2024.1.5,Win32,60.24096386,684250e4f00cb30b92d1fa88,,,,,,,,,,,347.5897,348.0921,,,348.3458,348.5927,right,,,,,,,,0.9,,,,,,348.0922,348.3457,0.2316,,348.5928,"[0.08018248006119144,0.0484986004964633]",100.0,"[0.12905636019356578,0.09317043842960361]",100.0,"[0.031865006114585426,-0.050241143958134345]",100.0,"[0.023790820967067562,-0.19747937119205144]",100.0,"[-0.1195334917636585,-0.005160091928756657]",100.0,"[-0.030689684528591898,-0.14443149148083143]",100.0,"[-0.050727759731787364,-0.07900431771637616]",100.0,"[0.18157013848100598,0.03406784910061566]",100.0,"[0.010783959835948835,0.1832106138926848]",100.0,"[-0.18053126781768128,-0.038154120313117997]",4.0,"[-0.10205565002240925,-0.06691062669641291]",100.0,"[0.0566527469519115,0.10418110830914551]",100.0,"[-0.11332740744182566,0.15748957390975146]",100.0,"[0.10943714142142426,-0.05262813047777051]",100.0,"[-0.11204195733090075,0.06331238967219348]",100.0,"[-0.05917571875627679,-0.0111495159020931]",100.0,"[0.002717660078266597,0.12311089789271737]",100.0,"[-0.005712096594767915,-0.006556717772010359]",100.0,"[-0.08446268620919835,0.10886863474760693]",100.0,"[0.12358776098332065,-0.13627709946857178]",100.0,"[0.0818337210090391,-0.10304567394622106]",4.0,"[0.11753966026749423,0.14066498113659995]",100.0,"[0.14005782726591626,0.015849319925463685]",100.0,"[0.05661392403778167,-0.15912715101392047]",100.0,"[0.08577502905275818,-0.0010031220934108415]",100.0,"[-0.12343434329460766,-0.13058885629940373]",100.0,"[0.1849119327649599,-0.01629893131376061]",100.0,"[-0.024360911718076615,0.08696721640135546]",100.0,"[-0.022223406671128213,-0.19490217520052372]",100.0,"[-0.05532975495455142,0.04987898195867072]",100.0,"[-0.15525727163280248,-0.07762223914415751]",100.0,"[0.1537527764163177,-0.04492433330771234]",4.0,"[0.02,0.02]",349.6911,0.0,30.0,30.0,9.0,1.0,,,,,,,
,,,,,,,683b46a5c71571449dd863cb,6846a84e5bfc320ef02303a3,2025-06-09_05h28.10.435,shape_ratio,2024.1.5,Win32,60.24096386,684250e4f00cb30b92d1fa88,,,,,,,,,,,349.6927,350.1869,,,350.4378,350.77,left,,,,,,,,0.55,,,,,,350.1869,350.4377,0.3213,,350.7701,"[-0.03426429164588251,0.053757869109962206]",4.0,"[-0.09872533980287766,0.14698882719393452]",100.0,"[0.009290109786816774,0.07258776613143181]",4.0,"[0.09368764130981252,0.021316638635033486]",100.0,"[0.05260000402940555,-0.07675710757562025]",4.0,"[-0.13970649838192814,-0.013590556010441323]",4.0,"[0.08510136293315156,0.0968402521826664]",100.0,"[-0.08273407054309036,0.03357311728332158]",100.0,"[-0.07604860384812916,-0.10431832293237021]",100.0,"[-0.14474863265701535,-0.09746148141923067]",4.0,"[0.1327690070294645,-0.14838103269741856]",4.0,"[-0.0642739661827566,-0.016759544881327092]",100.0,"[0.05028307117228003,0.010421952174373547]",100.0,"[-0.11045847114672616,-0.1324714861983324]",4.0,"[0.027505377275859225,0.18998323582491458]",100.0,"[0.06824008670255513,-0.03789328119006918]",100.0,"[0.0203404819336492,0.12054553579970673]",4.0,"[0.1846585362943454,0.06224088548337959]",4.0,"[0.1139023017971133,-0.014350048570457095]",4.0,"[-0.19729942713186194,-0.0046772337998272915]",100.0,"[-0.1278047827811351,-0.057831977241155255]",100.0,"[-0.18673303342144337,0.04615378964046282]",4.0,"[0.13509329424761368,0.09082013519347816]",100.0,"[-0.018523926416242228,-0.07698477612123623]",100.0,"[0.1959416229159135,-0.015693484134818827]",100.0,"[0.037729465753129666,-0.1287736133781915]",4.0,"[0.07817118160905322,-0.15826896179765151]",100.0,"[-0.12554896340589175,0.06867681931267414]",100.0,"[-0.005425900070320811,0.0015103986184316991]",100.0,"[-0.14570094488415375,0.12440966676182018]",4.0,"[0.1540881396359118,0.006183330369507294]",100.0,"[0.12881006652856014,-0.08188582668539592]",4.0,"[0.02,0.02]",351.8688,0.0,31.0,31.0,89.0,1.0,,,,,,,
,,,,,,,683b46a5c71571449dd863cb,6846a84e5bfc320ef02303a3,2025-06-09_05h28.10.435,shape_ratio,2024.1.5,Win32,60.24096386,684250e4f00cb30b92d1fa88,,,,,,,,,,,351.8709,352.3683,,,352.6193,352.8064,left,,,,,,,,0.55,,,,,,352.3685,352.619,0.1793,,352.8065,"[0.04510749060006252,-0.060963271856660346]",100.0,"[0.08079733196931849,0.15931396162666098]",4.0,"[-0.08033785806858129,-0.08277514660373912]",4.0,"[-0.15891580712511283,0.049730807323799885]",100.0,"[-0.1356971475269319,-0.12391627696892961]",100.0,"[0.09072536689478002,-0.09723385379789395]",100.0,"[-0.11852091798882669,0.03794160627971732]",4.0,"[0.08972727738069573,-0.03956199542242626]",100.0,"[-0.045963260885676795,0.14776444784561707]",100.0,"[0.13849862741592014,-0.10614339733018026]",4.0,"[0.10318208858044621,0.11459878281470981]",100.0,"[-0.02305185072265261,0.18113790727774176]",100.0,"[-0.1762181638073546,-0.08788720497375059]",100.0,"[-0.08907235845953257,0.12553510004350496]",100.0,"[-0.11933251392245339,-0.04969482629282458]",4.0,"[0.12663695321092372,0.027428468087282273]",4.0,"[-0.12788382891573277,0.08640550840627194]",4.0,"[0.03483702497160656,-0.0015297534479552905]",100.0,"[0.00440383677372948,-0.1476763236535048]",100.0,"[0.18678189576763457,-0.021534853220669115]",100.0,"[-0.0735185269746917,0.043232816880232804]",100.0,"[-0.02032534676074093,0.046800721467751126]",100.0,"[0.04499310210444824,-0.1517116446722287]",100.0,"[0.07382195430301805,0.04315281193403293]",100.0,"[0.02306395869276716,0.14938943615509762]",4.0,"[0.09255075636456409,-0.1671473053199186]",4.0,"[-0.1841857332166733,0.017489821332608235]",4.0,"[-0.01969002169910012,-0.03466925682460701]",4.0,"[-0.04706000870652055,0.09501433218753742]",100.0,"[-0.025326574722186784,-0.09070551826911523]",4.0,"[0.15841587096380239,0.0779474912564863]",4.0,"[-0.0529770805704586,0.007362080902667574]",4.0,"[0.02,0.02]",353.8999,0.0,32.0,32.0,74.0,1.0,,,,,,,
,,,,,,,683b46a5c71571449dd863cb,6846a84e5bfc320ef02303a3,2025-06-09_05h28.10.435,shape_ratio,2024.1.5,Win32,60.24096386,684250e4f00cb30b92d1fa88,,,,,,,,,,,353.9013,354.3994,,,354.6398,354.7566,right,,,,,,,,0.45,,,,,,354.3995,354.6396,0.1013,,354.7567,"[-0.13509433371092947,-0.0468022799418999]",100.0,"[-0.13849830873567587,-0.11435245826192968]",100.0,"[0.11673204911235033,0.1600892235579335]",4.0,"[0.07662058592132509,-0.1774285459787493]",4.0,"[0.00948172604362787,0.12011042474955132]",100.0,"[-0.053774033977607626,0.09848950947908199]",100.0,"[0.029724733555569215,-0.003969735935607081]",100.0,"[0.11380922195742951,-0.013828100505223425]",4.0,"[-0.17060751257940993,0.0517053251700959]",4.0,"[0.1296732876484908,0.1050541640167739]",100.0,"[0.12552372225244035,-0.12240763956156248]",4.0,"[-0.16871991081782775,-0.08602853968407267]",4.0,"[0.07821724739857053,-0.08614096613808311]",100.0,"[0.19133662566890858,-0.003074949067219052]",100.0,"[-0.17440900292578992,-0.025865355519533874]",4.0,"[-0.031862336902309336,-0.19501999671438316]",4.0,"[0.18630701611377565,0.03981641007762728]",4.0,"[0.009540068486613458,-0.06632560575795449]",4.0,"[0.08050345568036969,0.14099094118622849]",4.0,"[-0.1407738894226551,0.0006519361574647928]",100.0,"[0.035894469758566326,0.05213593694344272]",4.0,"[0.16546260112917247,-0.06717932206604123]",4.0,"[-0.08332488197674502,0.028916960421643646]",100.0,"[0.042686791563557445,0.1583583583653341]",4.0,"[-0.02708362611434186,0.044930729670087564]",4.0,"[0.09395726593688526,0.05955401582110606]",100.0,"[0.01715732393855032,0.18953474196350034]",100.0,"[0.023838012781124376,-0.18485848775662486]",4.0,"[-0.0761034097116933,-0.06428681713287278]",4.0,"[0.041241668335360866,-0.1431749999755238]",100.0,"[-0.09315630837267339,0.16371018631354264]",100.0,"[0.15045766610032713,0.020863305422377434]",4.0,"[0.02,0.02]",355.8483,0.0,33.0,33.0,131.0,1.0,,,,,,,
,,,,,,,683b46a5c71571449dd863cb,6846a84e5bfc320ef02303a3,2025-06-09_05h28.10.435,shape_ratio,2024.1.5,Win32,60.24096386,684250e4f00cb30b92d1fa88,,,,,,,,,,,355.8509,356.3474,,,356.5985,356.7144,left,,,,,,,,0.45,,,,,,356.3474,356.5984,0.105,,356.7147,"[-0.09399351734627376,-0.09687081992972534]",100.0,"[0.15253837335356404,0.11927711198880168]",4.0,"[0.004342679277614064,-0.1046651721438522]",100.0,"[-0.12057119598529008,-0.15788548272499578]",100.0,"[-0.027247365106574314,-0.16497951017596998]",100.0,"[0.13616906137784945,0.0037489489811314116]",4.0,"[0.10530505011853014,-0.06212377214290385]",4.0,"[0.04353166564205017,0.1705286863427212]",100.0,"[0.029186646573966985,0.06025649520820504]",4.0,"[-0.1175847224086915,-0.046900238705629614]",4.0,"[0.08589649724859084,0.04661546265755225]",4.0,"[-0.0030429833462403077,0.15899497143371302]",100.0,"[0.016810843328434726,-0.177200982145387]",100.0,"[-0.16867749473080812,-0.09524010515140637]",4.0,"[0.016544752288815193,0.00858944830737309]",4.0,"[0.06647671273705265,-0.09009882349752203]",100.0,"[-0.16966314326123833,0.01930540346831711]",100.0,"[-0.10942844600479915,0.023657125704425668]",4.0,"[0.06020143631582125,-0.04981155237193371]",100.0,"[-0.15702449027829185,0.09089516956867733]",4.0,"[-0.05921522791323222,-0.19033183536022388]",4.0,"[-0.05940856396687588,-0.12800368852989]",4.0,"[-0.06988242139421537,-0.041353137708073105]",100.0,"[-0.17099902965581917,-0.02346407973408921]",4.0,"[0.05944755961613092,-0.14480377979943407]",4.0,"[0.1709570130413233,-0.0248692438326301]",100.0,"[-0.03275481280232684,0.04309587954066851]",4.0,"[0.07738808199267583,0.11167729522273223]",4.0,"[-0.020083023592173448,-0.039071541350472735]",100.0,"[0.19197680382723809,0.039023201317559264]",4.0,"[-0.07322200251272301,0.14134403381772848]",4.0,"[0.10996109550010277,0.08210583161061792]",100.0,"[0.02,0.02]",357.813,0.0,34.0,34.0,148.0,1.0,,,,,,,
,,,,,,,683b46a5c71571449dd863cb,6846a84e5bfc320ef02303a3,2025-06-09_05h28.10.435,shape_ratio,2024.1.5,Win32,60.24096386,684250e4f00cb30b92d1fa88,,,,,,,,,,,357.8142,358.3123,,,358.5636,358.6318,right,,,,,,,,0.1,,,,,,358.3124,358.5635,0.0594,,358.632,"[-0.06586935183084357,0.08740973460479942]",4.0,"[-0.0058616732919976895,-0.1361161511827393]",4.0,"[-0.19717126233920837,0.014086185842364598]",4.0,"[0.11512674585677682,0.036369739030691385]",100.0,"[0.06410094498963896,0.08877003612129188]",100.0,"[-0.09817846856084324,0.17234625704349066]",4.0,"[0.12226757537947938,-0.034420412635074574]",4.0,"[-0.02004852677368051,-0.19377662395406167]",4.0,"[0.07593370774808733,0.1836673536774812]",4.0,"[-0.07588256161404011,-0.1492477334594697]",4.0,"[0.031698239758872954,-0.029413171975859093]",4.0,"[-0.14204224335948662,0.09810337231045915]",4.0,"[-0.00819072611997872,-0.09355854853764252]",4.0,"[0.1467102638246586,0.10577720517633536]",4.0,"[0.1206156695368774,-0.10263164008352854]",4.0,"[-0.1577751473937333,-0.038140628549100004]",4.0,"[-0.035507331006550256,-0.020139150694764955]",4.0,"[-0.04881038409943295,-0.0993393600512467]",4.0,"[-0.02653152250735009,0.18458933186732693]",4.0,"[0.04129943330084284,-0.10128349356653454]",4.0,"[0.03360898012676984,0.024252253345882768]",4.0,"[0.14750677520566807,0.00629565140750847]",4.0,"[-0.1181137582172841,0.0020503726423807865]",4.0,"[0.03558375300888454,0.17364692705073886]",4.0,"[-0.11372399954656215,-0.06237227522798362]",4.0,"[0.08240211582716837,0.12643130866336325]",100.0,"[-0.001539078357667454,0.06951227605075999]",4.0,"[-0.10338232681586493,-0.11722624977580277]",4.0,"[-0.12208032495332549,0.05198552806742275]",4.0,"[0.08930272095275785,0.0008867830602287353]",4.0,"[-0.016891413281139314,0.01607664185004724]",4.0,"[-0.03848530536933083,0.053729682644189716]",4.0,"[0.02,0.02]",359.728,0.0,35.0,35.0,196.0,1.0,,,,,,,
,,,,,,,683b46a5c71571449dd863cb,6846a84e5bfc320ef02303a3,2025-06-09_05h28.10.435,shape_ratio,2024.1.5,Win32,60.24096386,684250e4f00cb30b92d1fa88,,,,,,,,,,,359.7294,360.2276,,,360.468,360.6517,left,,,,,,,,0.1,,,,,,360.2277,360.468,0.1684,,360.6519,"[-0.0655012627773929,0.0069701855292298946]",100.0,"[-0.02752018669959943,0.1201423202165797]",4.0,"[0.1236534162361576,-0.14039912887919634]",4.0,"[0.11483657794767092,-0.0803269913610155]",4.0,"[-0.023059535754399944,-0.16003468169887952]",4.0,"[0.03295381455647873,-0.1390352987412533]",4.0,"[0.12433004979518827,0.09371274524141984]",4.0,"[-0.13693388913501167,-0.009806878461667267]",4.0,"[0.02815224713972444,0.0739110812393616]",4.0,"[-0.024647744629092545,-0.1050922167805871]",4.0,"[-0.18447205328543942,-0.03921848598602594]",4.0,"[0.18593999928884977,-0.014949212705306119]",4.0,"[0.006055893816162367,-0.054210396496369606]",4.0,"[-0.11670549849903994,0.08011299819678512]",4.0,"[-0.06065799376352756,-0.06252213545437127]",4.0,"[0.17070136790464072,-0.07006036059038101]",4.0,"[-0.04141147558188339,0.18687576658640323]",4.0,"[0.06220529054587627,0.1104613989509194]",4.0,"[-0.16654944001606894,-0.10372786425104366]",4.0,"[0.050334721794275505,-0.033376045026833175]",4.0,"[0.07453563923407233,-0.15185601179559435]",4.0,"[-0.06675821601866817,-0.1433925089955966]",4.0,"[0.055497360972520386,0.15323873235960128]",4.0,"[0.17452673315846634,0.08387881290820061]",4.0,"[-0.028081396330122597,0.0634997047074096]",4.0,"[-0.10692972158292016,-0.037703330288117044]",4.0,"[-0.17022849817364563,0.055592590295203956]",4.0,"[0.04393220386068934,0.02895600254645286]",4.0,"[0.011987880505001682,0.16580200373110396]",100.0,"[0.12962574495054544,0.018818808521233275]",4.0,"[0.06754768031892108,-0.07958705642137075]",4.0,"[0.12865266615722196,0.1449772154950798]",100.0,"[0.02,0.02]",361.7427,0.0,36.0,36.0,189.0,1.0,,,,,,,
,,,,,,,683b46a5c71571449dd863cb,6846a84e5bfc320ef02303a3,2025-06-09_05h28.10.435,shape_ratio,2024.1.5,Win32,60.24096386,684250e4f00cb30b92d1fa88,,,,,,,,,,,361.7449,362.2419,,,362.4936,362.5762,right,,,,,,,,0.4,,,,,,362.2421,362.4935,0.0735,,362.5763,"[-0.13370235974802003,-0.06195796819821462]",4.0,"[-0.032325508862216565,-0.07853538204071224]",4.0,"[-0.015521952346423082,-0.002271142924172809]",4.0,"[0.1871994980551995,-0.008249754338496156]",100.0,"[-0.02564095234502306,0.04093969886734984]",100.0,"[0.029590926119783745,-0.07382860958380737]",100.0,"[-0.184111868380831,0.06613476740846247]",4.0,"[-0.08790722549233206,-0.03168472651407791]",100.0,"[0.017170728603149082,0.17142797688324396]",4.0,"[0.1309350717595064,0.09471843769300323]",100.0,"[0.17073346227444394,0.06636588548077943]",100.0,"[0.059220411225554576,0.09029051539795951]",4.0,"[0.11515567246940954,-0.08141598577728631]",4.0,"[-0.03424738986889858,0.1514314619612468]",4.0,"[-0.16129274415876121,0.11535133709580508]",4.0,"[-0.07991731730815134,0.008625698164488986]",4.0,"[0.13053808034822423,-0.028593345054730854]",100.0,"[0.07881965607237462,-0.0398112991046963]",4.0,"[0.08341923704222987,-0.15984192433800604]",4.0,"[-0.01371153078129831,-0.16174879208667775]",4.0,"[0.15666164858493617,-0.09477357738840601]",4.0,"[-0.055786836898716635,-0.19091530668938225]",100.0,"[-0.06493558919120884,0.18283287057984068]",4.0,"[-0.08968570824369682,-0.08909929319357046]",4.0,"[-0.0879359014558602,0.10194049717899478]",100.0,"[0.05603745716370879,-0.10627126641257216]",4.0,"[0.12029294213049907,0.14048287217890426]",100.0,"[-0.11693558899167306,0.15873828885484567]",4.0,"[0.12170982779596906,0.03338316860461459]",100.0,"[0.05813273336101146,0.04296266347549985]",100.0,"[-0.19270897168943668,0.012539611175541213]",4.0,"[-0.17911067878337542,-0.05789959934247066]",100.0,"[0.02,0.02]",363.6746,0.0,37.0,37.0,168.0,1.0,,,,,,,
,,,,,,,683b46a5c71571449dd863cb,6846a84e5bfc320ef02303a3,2025-06-09_05h28.10.435,shape_ratio,2024.1.5,Win32,60.24096386,684250e4f00cb30b92d1fa88,,,,,,,,,,,363.6769,364.1759,,,364.43,364.561,left,,,,,,,,0.9,,,,,,364.176,364.43,0.1152,,364.5611,"[-0.003931997597177656,-0.1845145381741127]",100.0,"[-0.1103046593158573,-0.15659714839194094]",100.0,"[0.0412975358236874,0.03919514288769861]",100.0,"[-0.02059998591900179,0.07592779900677951]",100.0,"[0.048196930495131934,-0.16044045414241814]",100.0,"[0.11033275927368484,-0.13886972711420947]",100.0,"[-0.12074698531131194,0.032672880143350215]",4.0,"[0.08364992260499497,0.14756312648317071]",100.0,"[0.08232885282716118,-0.07395695834936317]",100.0,"[-0.15996746606478238,-0.03651748698671088]",100.0,"[-0.0530116304876881,-0.13978582445113186]",100.0,"[0.13778485087835857,0.04103816596983906]",100.0,"[-0.001162279729165661,0.14802507968002762]",100.0,"[-0.18979357766106095,0.05431615550013905]",100.0,"[-0.11673890476560823,0.15945243606451653]",100.0,"[0.034563096745626236,-0.00915107385297978]",100.0,"[0.18827677248123742,0.061261663585034584]",100.0,"[0.1322902230936222,0.1150481757780712]",100.0,"[0.12662130213223857,-0.035646504754030174]",100.0,"[0.03651280052835658,0.09239557505361559]",100.0,"[0.05668541689520288,0.17789906413624945]",100.0,"[-0.033552764727486084,0.0353872920202281]",100.0,"[-0.12380909320319883,0.08200512756692009]",100.0,"[-0.0664897216319954,0.1667366572452234]",100.0,"[-0.0702320790525794,-0.012928778422184569]",4.0,"[-0.08424348149302334,0.11591206449286752]",100.0,"[-0.03057516949065606,-0.06678558095209178]",100.0,"[0.07355608942174509,0.004611084035046024]",100.0,"[-0.16039143938958095,0.012670926568753809]",100.0,"[0.03753948731395174,-0.05886289251368643]",100.0,"[-0.023099679142042456,0.19699995124881695]",4.0,"[0.18881466349846335,-0.04787737179816588]",100.0,"[0.02,0.02]",365.6557,0.0,38.0,38.0,7.0,1.0,,,,,,,
,,,,,,,683b46a5c71571449dd863cb,6846a84e5bfc320ef02303a3,2025-06-09_05h28.10.435,shape_ratio,2024.1.5,Win32,60.24096386,684250e4f00cb30b92d1fa88,,,,,,,,,,,365.6579,366.1553,,,366.406,366.5384,right,,,,,,,,0.4,,,,,,366.1554,366.406,0.1193,,366.5385,"[0.07781810053920207,0.14555562811498438]",100.0,"[-0.019242972572442587,0.12122309589198897]",100.0,"[-0.1892444577392963,-0.016297206264911834]",4.0,"[-0.07307766566891183,-0.16785105475570627]",4.0,"[-0.06506964786395286,-0.07090293530830469]",4.0,"[0.12207627151715016,-0.04811495030028973]",4.0,"[0.001783206100250704,-0.11089010071488564]",100.0,"[0.03403253471579621,0.0664816196900968]",4.0,"[-0.1340921789688496,-0.08633461406641102]",4.0,"[0.18352565691300407,0.024937445631467166]",4.0,"[-0.07949163066263784,0.09503130600015024]",4.0,"[-0.09238633898188503,-0.02733117801652773]",4.0,"[0.04714593640275844,-0.02005610756230165]",100.0,"[0.11520465005765436,0.07676036033199261]",4.0,"[-0.019451650300462482,0.1922170433476626]",4.0,"[0.042265003244007705,0.10642554458403253]",100.0,"[-0.12042537268088195,0.13896297702178795]",4.0,"[-0.14405995146387968,-0.03486524863578977]",4.0,"[0.10022238715539986,-0.15454760912684865]",100.0,"[0.0826487395383982,-0.08373844875652689]",4.0,"[-0.06267746167369831,0.1336712979327678]",100.0,"[-0.027459652490259036,0.012417596415601488]",4.0,"[0.04137743192869088,-0.16283156008483876]",100.0,"[-0.16618157483611937,0.05002720036944627]",100.0,"[0.0333521122226331,-0.08213522074874065]",100.0,"[-0.09460270237297896,0.17156846787181093]",4.0,"[0.14465326296737266,0.1076208009023736]",4.0,"[0.17812511277583631,-0.07369149913174793]",4.0,"[-0.08029333050878576,-0.12654619576120862]",100.0,"[0.008649736059857782,-0.1905604242235971]",100.0,"[0.02071364190798317,0.014052640644594716]",4.0,"[0.17604334161964777,-0.022977660549587487]",100.0,"[0.02,0.02]",367.637,0.0,39.0,39.0,178.0,1.0,,,,,,,
,,,,,,,683b46a5c71571449dd863cb,6846a84e5bfc320ef02303a3,2025-06-09_05h28.10.435,shape_ratio,2024.1.5,Win32,60.24096386,684250e4f00cb30b92d1fa88,,,,,,,,,,,367.6389,368.1368,,,368.3875,368.5913,left,,,,,,,,0.1,,,,,,368.137,368.3874,0.1958,,368.5914,"[-0.03280656527211319,0.18275058067384825]",100.0,"[0.011341837767391803,-0.11814883931068994]",4.0,"[-0.0925553301153579,-0.10733308468442898]",4.0,"[-0.12945823849093552,-0.052003397364166794]",4.0,"[0.11199587283617161,-0.04958634528710578]",4.0,"[0.06135891766997459,-0.16376542615267783]",4.0,"[0.08174538932065892,0.1575668856379724]",100.0,"[-0.039459679182527206,-0.12791440683840138]",4.0,"[0.09372079601005966,-0.10803548164790784]",4.0,"[-0.06263457962668781,0.1508021876500233]",4.0,"[-0.11498945319153683,-0.15409921090558784]",4.0,"[0.04210321423144491,0.05671947371638682]",4.0,"[-0.022110960363352264,-0.07652301783495259]",4.0,"[-0.050698465232109066,0.08838649373261113]",4.0,"[0.04966582756483059,0.0015636906243372075]",4.0,"[0.1479007837680844,-0.017957567362279287]",4.0,"[0.03499838305982943,0.14458599951274156]",4.0,"[0.08707491498136227,0.08971882417700933]",4.0,"[0.1932224898255458,0.014019246567014242]",4.0,"[0.1492184659048486,-0.11642007091955661]",4.0,"[-0.018685541888653703,-0.17696479781908486]",4.0,"[0.023586601193352073,-0.042013123825483806]",100.0,"[-0.07813931221138928,-0.007896637785955547]",4.0,"[0.12940406674781652,0.057762025423680294]",4.0,"[-0.02275878361906054,-0.008078613729605107]",4.0,"[0.005859482044305277,0.1069127118750291]",4.0,"[-0.11619386937662346,0.1223405472428941]",4.0,"[-0.15161290928971588,0.022627593019115263]",4.0,"[0.002373555568688406,0.035565954671623885]",4.0,"[-0.09681741529506531,0.04237218473470232]",4.0,"[0.15148880201878928,0.10083575403005639]",4.0,"[0.04979759986529479,-0.0968799354937348]",4.0,"[0.02,0.02]",369.6855,0.0,40.0,40.0,208.0,1.0,,,,,,,
,,,,,,,683b46a5c71571449dd863cb,6846a84e5bfc320ef02303a3,2025-06-09_05h28.10.435,shape_ratio,2024.1.5,Win32,60.24096386,684250e4f00cb30b92d1fa88,,,,,,,,,,,369.6871,370.1849,,,370.4381,370.5694,right,,,,,,,,0.6,,,,,,370.1852,370.4381,0.1117,,370.5696,"[-0.0020303629588954365,0.10556063136076926]",100.0,"[-0.10485336141279998,-0.104967839605287]",4.0,"[-0.016113176984809276,-0.09466661072848219]",4.0,"[-0.13044138614508125,-0.07213374495090621]",100.0,"[0.09816501517394229,-0.14995633977557746]",4.0,"[0.016179991682495846,0.1465374542113744]",4.0,"[0.10521949069829623,0.02531203869250781]",100.0,"[0.18283480917197123,-0.05599199908686696]",4.0,"[-0.08420261076865651,-0.01076474564916062]",100.0,"[0.06171909301955295,-0.07699428031301983]",4.0,"[0.0585581128832988,0.05188301635770146]",4.0,"[0.08310516606237806,0.08985438951359574]",100.0,"[0.13613252855973082,0.13003716120550843]",100.0,"[0.151368093384135,-0.1251587268953912]",100.0,"[0.08101188836241496,-0.029796350865071774]",100.0,"[0.17722153287433004,0.029191612028320615]",100.0,"[0.02385599338470803,-0.017162102876584023]",100.0,"[0.01689547271813733,0.0688738346162589]",100.0,"[-0.13983737981294445,0.009497546890589592]",4.0,"[-0.03157696200302209,-0.18528892516036918]",100.0,"[-0.041201525993252296,-0.028280951717596318]",100.0,"[0.06255685844713767,0.12765917090931686]",4.0,"[0.020928110261750173,-0.17517616585591994]",4.0,"[-0.006164198491520159,0.026374457217458656]",100.0,"[-0.12082010422351012,0.1316652252681261]",100.0,"[-0.055388918552332585,-0.13093938192876717]",100.0,"[-0.17899095475188492,0.0386703539999022]",4.0,"[-0.07778785810307451,0.03372713255540468]",100.0,"[-0.003704727902003654,-0.1376003707968186]",100.0,"[-0.03551114042748657,0.18651425877072272]",4.0,"[0.10190182508008049,-0.07814853449908661]",4.0,"[0.1449348410975155,0.08870050424814001]",100.0,"[0.02,0.02]",371.6669,0.0,41.0,41.0,56.0,1.0,,,,,,,
,,,,,,,683b46a5c71571449dd863cb,6846a84e5bfc320ef02303a3,2025-06-09_05h28.10.435,shape_ratio,2024.1.5,Win32,60.24096386,684250e4f00cb30b92d1fa88,,,,,,,,,,,371.6691,372.1716,,,372.4178,372.5371,left,,,,,,,,0.5,,,,,,372.1717,372.4176,0.1116,,372.5373,"[-0.13498415681236056,-0.023339994883214962]",100.0,"[-0.12922793923962744,0.047687707287774286]",4.0,"[0.0073652410013710845,-0.11185251985881386]",4.0,"[0.013547882361423066,0.046553279070331674]",100.0,"[0.1675925394914265,0.05834859802643883]",4.0,"[0.08196714156441409,0.07096201460211964]",100.0,"[0.14979122594371375,-0.040019417112221956]",100.0,"[-0.07084053066789288,0.013558326935485454]",4.0,"[0.03936190440902624,0.1111009015733591]",4.0,"[-0.18825621048420627,-0.0010693086486271357]",100.0,"[0.0610450643969346,-0.13522445211556672]",4.0,"[-0.03602729091213572,-0.039933972391269085]",100.0,"[0.14590526243223956,0.01874841986420914]",100.0,"[0.07200627670886701,0.031978620107072364]",100.0,"[0.07695967567135814,-0.03825411287067548]",100.0,"[0.07295946761426127,0.13659504664913044]",4.0,"[-0.002072498677649757,-0.06493568997763383]",4.0,"[0.15945156585997958,-0.10112876058317151]",4.0,"[0.054965193271832906,-0.18407727420407674]",4.0,"[0.12058044403893743,-0.07349153857838404]",100.0,"[0.0037081177613551425,-0.1979559068045468]",100.0,"[-0.10505349325848762,-0.0978040676435627]",100.0,"[-0.09982339672727432,0.13943666618268724]",100.0,"[-0.14427563232619858,-0.12168892490597157]",4.0,"[0.01798052094254521,-0.014709139715670352]",100.0,"[0.02272356166711976,0.19008268284671767]",4.0,"[-0.05904592521903195,0.10390198331606224]",4.0,"[-0.04906903429443799,-0.14513142503435822]",100.0,"[-0.027460384133829546,0.130150473908968]",100.0,"[0.10656141557417517,-0.11166272058555352]",4.0,"[-0.0841965253416086,-0.03273826205949548]",4.0,"[-0.13993677741511115,0.12085093444891538]",4.0,"[0.02,0.02]",373.632,0.0,42.0,42.0,107.0,1.0,,,,,,,
,,,,,,,683b46a5c71571449dd863cb,6846a84e5bfc320ef02303a3,2025-06-09_05h28.10.435,shape_ratio,2024.1.5,Win32,60.24096386,684250e4f00cb30b92d1fa88,,,,,,,,,,,373.6337,374.1319,,,374.3869,374.5484,right,,,,,,,,0.5,,,,,,374.132,374.3868,0.1385,,374.5487,"[-0.16913985749897545,-0.03126952517871485]",100.0,"[-0.018225683517737366,-0.008550350323999395]",100.0,"[-0.08460987284628538,0.12988579453776655]",100.0,"[-0.1466290945111783,0.03345559818269291]",100.0,"[0.11476937972438529,0.12585529593546152]",100.0,"[-0.0207189645745026,-0.13612146812984377]",100.0,"[0.10209445784559608,-0.09146140774303156]",4.0,"[0.031144649541772138,0.18626331685060446]",100.0,"[0.09584870518574369,-0.1572037782574008]",100.0,"[0.191584248642109,0.042151446290242825]",4.0,"[-0.0784269317917878,-0.0074569533658809415]",4.0,"[0.10333894986064697,0.011087156110429531]",4.0,"[-0.0016446159283435172,0.11960964998878573]",4.0,"[0.0866650467134771,0.15512912069003104]",100.0,"[0.1441317539409061,0.076856293838745]",4.0,"[-0.08404112506338018,-0.13237104603853597]",4.0,"[-0.05488819333950513,0.08696780150658846]",4.0,"[0.0512789559775044,-0.14161202467661166]",100.0,"[-0.13637536531932254,-0.09861884128463913]",4.0,"[-0.017655054290581396,-0.0540743007086648]",4.0,"[-0.15358699929523748,0.10863572541322572]",4.0,"[0.14758063649216974,-0.09130765540673642]",100.0,"[0.03721344964824304,-0.0072083794584222784]",4.0,"[-0.10347232794031729,-0.03957464525099378]",4.0,"[-0.009240290249462851,0.07402320244866038]",4.0,"[0.06733091804805537,-0.04843007175356458]",100.0,"[-0.12925354127305105,0.1442223437572537]",100.0,"[-0.0435466997142184,-0.1842654610402798]",4.0,"[0.03668266179370169,0.1075469366721138]",100.0,"[-0.009848448273357778,0.03260757843834873]",4.0,"[0.17162270930534276,-0.04859859614780109]",100.0,"[-0.04804119130468885,0.17281136803976443]",100.0,"[0.02,0.02]",375.6498,0.0,43.0,43.0,116.0,1.0,,,,,,,
,,,,,,,683b46a5c71571449dd863cb,6846a84e5bfc320ef02303a3,2025-06-09_05h28.10.435,shape_ratio,2024.1.5,Win32,60.24096386,684250e4f00cb30b92d1fa88,,,,,,,,,,,375.651,376.1456,,,376.3861,376.4868,left,,,,,,,,0.9,,,,,,376.1459,376.3859,0.0851,,376.487,"[0.08065489880499244,0.03283667799504768]",100.0,"[-0.01670741689572143,-0.1313609040698666]",100.0,"[0.029021766663285282,-0.04067999755635532]",100.0,"[0.10572479902754076,-0.03932528740381024]",100.0,"[-0.051483881690426045,0.045831052834990636]",100.0,"[0.09196197214987872,0.15024651574999925]",100.0,"[0.1489528934474847,-0.10845331173396446]",100.0,"[0.14376524002567817,-0.014275161219878076]",100.0,"[-0.03493153329093667,-0.06759231858414304]",100.0,"[0.1910030811230321,0.02626883664952904]",100.0,"[-0.11727844300132131,0.055804106523373295]",4.0,"[-0.1814780403950021,0.05421153219405434]",4.0,"[0.13475698041427897,0.03959449474816885]",100.0,"[0.030838234940772705,0.021802363567126146]",100.0,"[-0.10681725089694377,-0.042023434110015696]",100.0,"[0.026220398086359196,0.16533156962719084]",100.0,"[0.032926666679123744,-0.08211287689879217]",4.0,"[-0.06181247849384024,-0.15709924351755192]",100.0,"[-0.04543058732986273,0.15345587910511155]",100.0,"[-0.11491646071421756,-0.08377185517701952]",100.0,"[-0.024320196676869136,0.08770825265795282]",100.0,"[0.18406900153630756,-0.03710440235908619]",100.0,"[-0.0758918414338816,-0.07247238423931497]",100.0,"[0.17285869681450114,0.08545624866537568]",100.0,"[-0.10803641278660818,-0.13680984851989955]",100.0,"[0.017854248099161887,0.10523998583337235]",100.0,"[-0.06541638891559905,-0.027045773874207812]",100.0,"[-0.09610856658562188,0.14840888551901701]",100.0,"[0.07022687173141692,-0.17799095207768148]",100.0,"[0.057603785887305935,-0.1266579202351554]",100.0,"[0.12738991039602449,0.12197811738743311]",100.0,"[0.1100044216333003,-0.08073042279109742]",100.0,"[0.02,0.02]",377.577,0.0,44.0,44.0,25.0,1.0,,,,,,,
,,,,,,,683b46a5c71571449dd863cb,6846a84e5bfc320ef02303a3,2025-06-09_05h28.10.435,shape_ratio,2024.1.5,Win32,60.24096386,684250e4f00cb30b92d1fa88,,,,,,,,,,,377.5781,378.0773,,,378.3165,378.5342,right,,,,,,,,0.5,,,,,,378.0774,378.3164,0.2013,,378.5343,"[-0.15787354136521187,0.07412409060427644]",100.0,"[0.1864326327648178,-0.05634907881006941]",100.0,"[-0.10422887688514,-0.16310227704012967]",4.0,"[0.04895462088373577,0.021790296051710206]",100.0,"[-0.01317550806256592,0.0123371391198031]",4.0,"[-0.01109316116927118,-0.03434747031141857]",4.0,"[0.1693817964620145,0.03415068931946556]",4.0,"[0.12079526766088616,0.11036915876864856]",100.0,"[0.006333122772941415,-0.16655109055933093]",100.0,"[-0.08810427102188725,0.13533380341961618]",4.0,"[0.07884611443141981,-0.04074110787610231]",100.0,"[-0.050162935309808795,-0.09633628903538699]",4.0,"[-0.07596069170610571,0.025526651490451295]",4.0,"[-0.16058832270214918,-0.0036740960213316612]",100.0,"[0.056487709487656586,0.12454557217643265]",4.0,"[-0.13359937738582606,-0.052280427336587026]",4.0,"[0.10500105008275577,0.017105555566520044]",4.0,"[0.14805956303863457,0.07630994271752621]",100.0,"[0.06460938327888241,-0.08630968997802264]",100.0,"[0.0031803420663464262,0.18040433544929615]",4.0,"[0.16060628954984243,-0.006899273063091716]",100.0,"[-0.15798407225233013,-0.09181673976403909]",100.0,"[0.11273369070798663,-0.10732149544546078]",4.0,"[-0.08019648805116582,-0.05863423127766667]",100.0,"[0.04048953239138363,0.1635130908739516]",4.0,"[-0.03869903638423377,-0.19328728303866358]",4.0,"[0.024705298978320026,-0.06524416640714131]",100.0,"[-0.010426529899973542,0.09150020264811147]",100.0,"[0.020552405204992314,0.06479635526687069]",4.0,"[0.057087444304865044,-0.1485706229507412]",4.0,"[-0.04467605990994779,0.16602671280649714]",100.0,"[-0.11802914612066706,0.02272334467518758]",100.0,"[0.02,0.02]",379.6296,0.0,45.0,45.0,98.0,1.0,,,,,,,
,,,,,,,683b46a5c71571449dd863cb,6846a84e5bfc320ef02303a3,2025-06-09_05h28.10.435,shape_ratio,2024.1.5,Win32,60.24096386,684250e4f00cb30b92d1fa88,,,,,,,,,,,379.6307,380.1256,,,380.3642,380.5488,left,,,,,,,,0.4,,,,,,380.1258,380.3642,0.1676,,380.5489,"[0.1198546110498955,0.09562124216750689]",4.0,"[-0.14503462090163907,0.04257416764770795]",100.0,"[-0.18518554131633436,0.04147075032100824]",4.0,"[-0.06012366704478251,0.12028409499508166]",100.0,"[-0.060999539562233626,0.050941264810329026]",4.0,"[-0.05400954227622727,-0.07377161605800829]",4.0,"[0.17428622208904726,0.032750900943594764]",4.0,"[-0.10550186106775927,0.015256045454216133]",4.0,"[-0.10606908666482548,0.0661260374568999]",100.0,"[0.047861559933050635,0.025667104007552108]",4.0,"[0.02911272599902052,0.06749021437483069]",100.0,"[0.175617411285962,-0.05407263277299062]",100.0,"[-0.04367317240998905,-0.15045368042023272]",4.0,"[-0.12963083445807141,-0.05754530309217601]",4.0,"[-0.009658463604179109,-0.09164592564785204]",4.0,"[-0.14633064122048361,-0.12647722610539835]",100.0,"[-0.10741139253838203,0.16606801802543275]",100.0,"[0.014204320511346406,-0.03757453462546445]",4.0,"[0.11678007253454015,-0.04700664129013025]",4.0,"[0.05340061962366633,-0.1703532930535623]",100.0,"[0.11680183140540018,0.004933093471470547]",100.0,"[-0.007508792758655888,0.15193739634106906]",4.0,"[0.02260625584474145,0.18628127092621738]",100.0,"[-0.17420634945700497,-0.023400513706485007]",100.0,"[-0.028529929327052596,0.07469175189492584]",4.0,"[-0.15726146958270992,0.0839766436846287]",100.0,"[-0.09412024626826507,-0.12360069086796341]",100.0,"[0.13862500694207544,0.1344020739972699]",4.0,"[0.11560751517099957,0.05363010955373374]",4.0,"[-0.00827650272368498,-0.19755762772371388]",4.0,"[-0.03641816515843243,-0.032424789931908726]",4.0,"[0.060237804407987594,0.16366805720372007]",4.0,"[0.02,0.02]",381.6406,0.0,46.0,46.0,174.0,1.0,,,,,,,
,,,,,,,683b46a5c71571449dd863cb,6846a84e5bfc320ef02303a3,2025-06-09_05h28.10.435,shape_ratio,2024.1.5,Win32,60.24096386,684250e4f00cb30b92d1fa88,,,,,,,,,,,381.6429,382.1404,,,382.3966,382.5321,right,,,,,,,,0.1,,,,,,382.1405,382.3966,0.1196,,382.5322,"[-0.10973752486062771,0.15891534605876584]",4.0,"[-0.16958759506294474,0.10273567771150194]",4.0,"[0.08560077799474301,0.04964617348857663]",4.0,"[-0.007777760402092542,0.0246004377511975]",4.0,"[0.07606085101115519,0.15519064505017452]",4.0,"[-0.14106777470745718,-0.040341256582585736]",4.0,"[0.08444538520096895,-0.14069784610528843]",4.0,"[0.0440947902740814,-0.18856082561905443]",100.0,"[0.09957275540446917,-0.029389180785331735]",4.0,"[-0.12541569201353625,0.008875397933269469]",4.0,"[-0.058220832130729955,0.1338115897821354]",4.0,"[0.04826697328746638,-0.10015209187291525]",4.0,"[0.1246217186467709,-0.06712590229372932]",4.0,"[-0.11148591839032099,-0.1616508434640569]",4.0,"[-0.00274188291093904,-0.18055224951880425]",4.0,"[0.035613547222975925,-0.0020384537069601024]",4.0,"[0.061281864093208134,-0.059808827538494175]",4.0,"[0.17506146510170045,0.020125878468897223]",4.0,"[-0.02405101698046187,-0.02904686730966661]",100.0,"[-0.1296937317578054,-0.08015901552722214]",4.0,"[-0.1746764401189554,0.013381552162830232]",4.0,"[-0.1304815906419464,0.07385797480333438]",4.0,"[-0.03967753990508084,-0.07393041380173347]",4.0,"[-0.0921982433411808,-0.10953376351161016]",4.0,"[-0.06919465355064187,0.18270801140870024]",4.0,"[-0.04208845275870112,-0.12301851649518976]",4.0,"[0.15171442438780477,-0.12725206091415514]",4.0,"[0.1718651232335238,0.09836411051079928]",100.0,"[-0.07561553304041947,0.04454201919571998]",4.0,"[-0.18549115040044878,0.05953615198207014]",4.0,"[0.02257997667597307,0.11837865990133808]",4.0,"[-0.018375421377637324,0.12407416569672346]",4.0,"[0.02,0.02]",383.6279,0.0,47.0,47.0,186.0,1.0,,,,,,,
,,,,,,,683b46a5c71571449dd863cb,6846a84e5bfc320ef02303a3,2025-06-09_05h28.10.435,shape_ratio,2024.1.5,Win32,60.24096386,684250e4f00cb30b92d1fa88,,,,,,,,,,,383.6291,384.1252,,,384.3724,384.5048,left,,,,,,,,0.5,,,,,,384.1253,384.3722,0.1224,,384.5049,"[-0.04336220234789134,-0.16906408046441498]",4.0,"[0.08554242646253812,-0.10419950766535183]",4.0,"[-0.10849905008326076,-0.0008276913082593496]",100.0,"[0.07980733143104275,0.05661126923570032]",4.0,"[0.008468154725458529,-0.09915410261457272]",100.0,"[0.03623736795997141,0.09222013017478317]",100.0,"[-0.14427035773777766,-0.05415582015054054]",100.0,"[-0.11467636371516315,0.08743609568842008]",4.0,"[-0.025312223830968362,0.15684184171701648]",100.0,"[-0.024815384840873082,0.012137880667133557]",100.0,"[-0.09999841642802568,0.1583526727055127]",100.0,"[0.08431945959247529,0.16991574417364336]",4.0,"[0.05885511886477494,-0.13542497019655117]",100.0,"[0.018258672588241827,0.0016174985876423378]",4.0,"[0.1256755423358422,-0.05836094305115913]",4.0,"[0.16363206606728192,-0.005438916669474187]",4.0,"[-0.022945939553870594,0.10250181487372484]",4.0,"[-0.17370724021179904,-0.025272394980732464]",4.0,"[0.14659998797104662,0.09399123197485006]",100.0,"[-0.032783814936262215,-0.11246391653804819]",100.0,"[-0.1506341163459612,-0.12717674823397912]",4.0,"[0.05913399034873138,-0.18444305230916624]",100.0,"[-0.032863131019759705,-0.027885593523614034]",100.0,"[0.015518367465354264,0.15015366633313887]",4.0,"[0.1415328439275841,-0.09540406896619738]",4.0,"[-0.09756754628343,0.0459037128080584]",100.0,"[0.03851975492330342,-0.039507873392232246]",4.0,"[-0.08214043497286874,-0.0766716951750691]",100.0,"[0.10721600552045628,0.026409029103134158]",100.0,"[0.09628405421213512,-0.019293793838377194]",4.0,"[0.06969998577660964,0.012167729440313786]",100.0,"[-0.060006214856053806,0.08637645268613815]",4.0,"[0.02,0.02]",385.6036,0.0,48.0,48.0,108.0,1.0,,,,,,,
,,,,,,,683b46a5c71571449dd863cb,6846a84e5bfc320ef02303a3,2025-06-09_05h28.10.435,shape_ratio,2024.1.5,Win32,60.24096386,684250e4f00cb30b92d1fa88,,,,,,,,,,,385.6052,386.1031,,,386.3428,386.4865,right,,,,,,,,0.4,,,,,,386.1033,386.3427,0.1229,,386.4868,"[-0.005737930833287543,0.0731526251016717]",100.0,"[0.048484920975015194,-0.16657602664904092]",100.0,"[-0.14228963342364212,0.054480085345075334]",100.0,"[-0.08377614323234844,0.1008029264106023]",4.0,"[0.11295377902544322,0.12975266229587257]",100.0,"[0.1514922202605646,-0.033066892678138574]",4.0,"[-0.08611182612264229,0.011949918385513736]",4.0,"[0.19026131467593638,-0.018018698821846594]",100.0,"[0.0991715040751569,-0.09176627616344582]",4.0,"[0.05860494906232551,0.09660364144769644]",100.0,"[0.02370001820684878,-0.07476592921734593]",4.0,"[-0.020832270346761314,0.0030446020464080163]",100.0,"[0.11936491558581376,-0.005157562724890339]",4.0,"[-0.046805843643406515,-0.11667629468647177]",4.0,"[-0.07151327012376324,0.15264919041376324]",4.0,"[0.053294083014622545,0.04345875576856987]",100.0,"[0.03719873088216205,0.0003465321390993806]",100.0,"[-0.11287269919043294,-0.0723885823769483]",4.0,"[0.15431819956891046,0.05206017734758543]",4.0,"[-0.1572539501889528,-0.0029071618414626427]",100.0,"[-0.011495308155480966,0.16098901465664248]",4.0,"[-0.15996453448144174,-0.07132432518740897]",100.0,"[-0.057317434978430136,-0.06286163212038873]",100.0,"[-0.04360348592333846,-0.18986627305718337]",4.0,"[-0.10343663797201448,-0.16339607596131192]",4.0,"[0.01635258483410368,0.11289178156480116]",4.0,"[0.1458786543562943,-0.12125214652895872]",4.0,"[0.16622354862447633,-0.07682136185823188]",4.0,"[0.19438850002291472,0.035521859372195125]",4.0,"[0.10530442748445992,-0.16738553564421366]",4.0,"[-0.02781169981551857,0.11533544274801545]",100.0,"[-0.0979457957138274,-0.02701119127604442]",4.0,"[0.02,0.02]",387.5915,0.0,49.0,49.0,169.0,1.0,,,,,,,
