right,left,explain.started,explain.stopped,key_resp_3.keys,key_resp_3.rt,key_resp_3.duration,participant,session,date,expName,psychopyVersion,OS,frameRate,study_id,explain_2.started,explain_2.stopped,key_resp_4.keys,key_resp_4.rt,key_resp_4.duration,explain_3.started,explain_3.stopped,key_resp_5.keys,key_resp_5.rt,key_resp_5.duration,fixation.started,fixation.stopped,practice.started,practice.stopped,response.started,response.stopped,key_resp.keys,feedback.started,feedback.stopped,trials_2.thisRepN,trials_2.thisTrialN,trials_2.thisN,trials_2.thisIndex,trials_2.ran,dot_ratio,key_resp.rt,key_resp.duration,explain_4.started,explain_4.stopped,key_resp_6.keys,key_resp_6.rt,key_resp_6.duration,dotDisplay.started,dotDisplay.stopped,ITI.started,polygon_1.pos,polygon_1.edges,polygon_2.pos,polygon_2.edges,polygon_3.pos,polygon_3.edges,polygon_4.pos,polygon_4.edges,polygon_5.pos,polygon_5.edges,polygon_6.pos,polygon_6.edges,polygon_7.pos,polygon_7.edges,polygon_8.pos,polygon_8.edges,polygon_9.pos,polygon_9.edges,polygon_10.pos,polygon_10.edges,polygon_11.pos,polygon_11.edges,polygon_12.pos,polygon_12.edges,polygon_13.pos,polygon_13.edges,polygon_14.pos,polygon_14.edges,polygon_15.pos,polygon_15.edges,polygon_16.pos,polygon_16.edges,polygon_17.pos,polygon_17.edges,polygon_18.pos,polygon_18.edges,polygon_19.pos,polygon_19.edges,polygon_20.pos,polygon_20.edges,polygon_21.pos,polygon_21.edges,polygon_22.pos,polygon_22.edges,polygon_23.pos,polygon_23.edges,polygon_24.pos,polygon_24.edges,polygon_25.pos,polygon_25.edges,polygon_26.pos,polygon_26.edges,polygon_27.pos,polygon_27.edges,polygon_28.pos,polygon_28.edges,polygon_29.pos,polygon_29.edges,polygon_30.pos,polygon_30.edges,polygon_31.pos,polygon_31.edges,polygon_32.pos,polygon_32.edges,dot_size,ITI.stopped,trials.thisRepN,trials.thisTrialN,trials.thisN,trials.thisIndex,trials.ran,break_2.started,break_2.stopped,trials_3.thisRepN,trials_3.thisTrialN,trials_3.thisN,trials_3.thisIndex,trials_3.ran
subject chose dot,subject chose diamond,0.0002,36.1683,space,21.1454,,68279a5ab27e06f727e6648e,68439101354ce336828d8c05,2025-06-06_20h10.34.010,shape_ratio,2024.1.5,Win32,60.24096386,6842b561977af9ba9b0f87ca,,,,,,,,,,,,,,,,,,,,,,,,,,,,,,,,,,,,,,,,,,,,,,,,,,,,,,,,,,,,,,,,,,,,,,,,,,,,,,,,,,,,,,,,,,,,,,,,,,,,,,,,,,,,,,,,,
,,,,,,,68279a5ab27e06f727e6648e,68439101354ce336828d8c05,2025-06-06_20h10.34.010,shape_ratio,2024.1.5,Win32,60.24096386,6842b561977af9ba9b0f87ca,36.1687,99.6882,space,33.5032,,,,,,,,,,,,,,,,,,,,,,,,,,,,,,,,,,,,,,,,,,,,,,,,,,,,,,,,,,,,,,,,,,,,,,,,,,,,,,,,,,,,,,,,,,,,,,,,,,,,,,,,,,,,,
,,,,,,,68279a5ab27e06f727e6648e,68439101354ce336828d8c05,2025-06-06_20h10.34.010,shape_ratio,2024.1.5,Win32,60.24096386,6842b561977af9ba9b0f87ca,,,,,,99.6884,104.6003,space,1.8866,,,,,,,,,,,,,,,,,,,,,,,,,,,,,,,,,,,,,,,,,,,,,,,,,,,,,,,,,,,,,,,,,,,,,,,,,,,,,,,,,,,,,,,,,,,,,,,,,,,,,,,,
,,,,,,,68279a5ab27e06f727e6648e,68439101354ce336828d8c05,2025-06-06_20h10.34.010,shape_ratio,2024.1.5,Win32,60.24096386,6842b561977af9ba9b0f87ca,,,,,,,,,,,104.6208,105.1163,105.1169,105.3662,105.3664,106.8644,,106.8647,107.9632,0.0,0.0,0.0,1.0,1.0,0.8,,,,,,,,,,,,,,,,,,,,,,,,,,,,,,,,,,,,,,,,,,,,,,,,,,,,,,,,,,,,,,,,,,,,,,,,,,,,,,,,,,,,,,,,
,,,,,,,68279a5ab27e06f727e6648e,68439101354ce336828d8c05,2025-06-06_20h10.34.010,shape_ratio,2024.1.5,Win32,60.24096386,6842b561977af9ba9b0f87ca,,,,,,,,,,,107.9641,108.463,108.463,108.713,108.7131,109.5569,right,109.5571,110.6602,0.0,1.0,1.0,0.0,1.0,0.2,0.7665,,,,,,,,,,,,,,,,,,,,,,,,,,,,,,,,,,,,,,,,,,,,,,,,,,,,,,,,,,,,,,,,,,,,,,,,,,,,,,,,,,,,,,,
,,,,,,,68279a5ab27e06f727e6648e,68439101354ce336828d8c05,2025-06-06_20h10.34.010,shape_ratio,2024.1.5,Win32,60.24096386,6842b561977af9ba9b0f87ca,,,,,,,,,,,,,,,,,,,,,,,,,,,,110.6606,114.1907,space,0.5068,,,,,,,,,,,,,,,,,,,,,,,,,,,,,,,,,,,,,,,,,,,,,,,,,,,,,,,,,,,,,,,,,,,,,,,,,,,,,,,,,,
,,,,,,,68279a5ab27e06f727e6648e,68439101354ce336828d8c05,2025-06-06_20h10.34.010,shape_ratio,2024.1.5,Win32,60.24096386,6842b561977af9ba9b0f87ca,,,,,,,,,,,114.2048,114.7064,,,114.9572,115.2397,right,,,,,,,,0.4,0.2663,,,,,,,114.7069,114.9571,115.2405,"[-0.0855713783439894,-0.1372951375707894]",100.0,"[-0.020574326685628034,-0.155331828667662]",4.0,"[0.12072294028729416,0.15160437281733335]",100.0,"[0.15848833905765297,-0.056113602470972954]",4.0,"[0.1964583086678697,-0.0016654871221376652]",100.0,"[-0.02710877653081931,0.18761471196930654]",4.0,"[0.0033378093254518857,-0.05829461728395982]",4.0,"[0.07878406172712647,-0.03568812588100718]",4.0,"[-0.06125560948080486,-0.17219739723258323]",4.0,"[-0.06483960178814258,-0.00897947470878027]",4.0,"[0.0010450471616671184,-0.011076719109083942]",100.0,"[0.01883788323367583,0.073933106340438]",100.0,"[0.07128171361028424,0.05929467161892844]",4.0,"[0.1295757972714546,0.05750395821641081]",100.0,"[-0.14717480336693253,-0.02462954712404932]",4.0,"[-0.13750224212735582,-0.06974800718407383]",4.0,"[0.021656182181919403,-0.12092326395551055]",100.0,"[0.06711802850330777,-0.15433925630305695]",100.0,"[-0.0235260142563914,0.06624383085726368]",4.0,"[-0.0837324662092592,-0.07251500363332923]",100.0,"[-0.05656963057453585,0.13914180023223047]",4.0,"[-0.13576359912915667,0.05195917761791887]",4.0,"[0.1561612089839019,-0.10087780051708718]",100.0,"[0.03576656027725184,0.1729735574078984]",100.0,"[0.18534810575494365,0.0629182307141726]",4.0,"[-0.030586344697591555,-0.10690646687047206]",4.0,"[0.1134955682159333,0.001104699363773012]",4.0,"[-0.19558391594408156,0.0010482714109477595]",4.0,"[-0.10272466519047188,0.12384832689668848]",100.0,"[0.11427728631584898,-0.08605659330292607]",4.0,"[-0.09213892518447463,0.030907318744432578]",4.0,"[0.15752246618557625,0.02794705349407261]",100.0,"[0.02,0.02]",116.3386,0.0,0.0,0.0,159.0,1.0,,,,,,,
,,,,,,,68279a5ab27e06f727e6648e,68439101354ce336828d8c05,2025-06-06_20h10.34.010,shape_ratio,2024.1.5,Win32,60.24096386,6842b561977af9ba9b0f87ca,,,,,,,,,,,116.3394,116.8376,,,117.0879,117.1878,left,,,,,,,,0.55,0.0922,,,,,,,116.8378,117.0878,117.1879,"[-0.04535692156922018,-0.1592407824325285]",4.0,"[-0.03236679869988037,0.06722381147576469]",4.0,"[0.04227533274469641,-0.0016027013036849214]",100.0,"[0.004195894548577289,0.12866740853315542]",4.0,"[0.04073890003738214,0.09922349835610719]",4.0,"[-0.006692236384682227,-0.11819157811121889]",4.0,"[-0.025236814469345076,-0.052479809255559305]",100.0,"[0.18309305366579434,-0.07311025550072656]",100.0,"[-0.018807890845023618,0.19361272074781896]",4.0,"[0.07314280185679932,-0.06890789239775108]",100.0,"[-0.1157068244082863,0.07829809275300849]",100.0,"[0.07901013199949455,0.050797558403090276]",100.0,"[0.14275671586413968,0.1095781927929187]",4.0,"[-0.05007483307180633,-0.01653569028136771]",4.0,"[0.1268891828620804,0.04818130385195633]",100.0,"[0.15545339107899173,-0.01774000714197814]",100.0,"[0.08722008808365975,-0.1198851349581032]",100.0,"[-0.10227920133978648,0.14017790612306177]",100.0,"[-0.03900117406847271,0.15209000794772523]",4.0,"[-0.1920889039721285,-0.030906256905847005]",4.0,"[0.026275455802368987,-0.049926754918909626]",100.0,"[-0.15599775055367965,0.09657637868902534]",100.0,"[0.09322474337311289,0.13855087817496792]",100.0,"[0.11532175065968986,-0.049128271652828376]",100.0,"[-0.12612191178297952,-0.035722000026516466]",4.0,"[-0.0686898524475066,0.049029098674575465]",100.0,"[-0.07339493392099675,-0.056856398513156776]",4.0,"[0.023465492594344314,0.05542880873656291]",100.0,"[-0.18468827449041522,0.06420887315003149]",100.0,"[-0.10562102253907114,-0.1697874355835615]",100.0,"[-0.11767377902211378,0.006811632930791681]",4.0,"[0.11362166020755739,-0.15514062920191626]",4.0,"[0.02,0.02]",118.2862,0.0,1.0,1.0,76.0,1.0,,,,,,,
,,,,,,,68279a5ab27e06f727e6648e,68439101354ce336828d8c05,2025-06-06_20h10.34.010,shape_ratio,2024.1.5,Win32,60.24096386,6842b561977af9ba9b0f87ca,,,,,,,,,,,118.2869,118.7855,,,119.0361,119.1023,right,,,,,,,,0.45,0.0587,,,,,,,118.7857,119.0361,119.1026,"[-0.10427602199543058,0.0940433929025847]",100.0,"[0.030441528150906616,-0.006803291617731038]",100.0,"[-0.030333213286161044,-0.11367230628677873]",4.0,"[0.11135539839681713,-0.07842505417005884]",4.0,"[-0.16828981953277586,0.10473369264313842]",100.0,"[0.05022289143961628,0.14512797525386853]",4.0,"[-0.06328611833764393,0.05788983823359456]",100.0,"[-0.138934940508178,0.07137030430282715]",4.0,"[0.14926448194176126,-0.03108416540008666]",4.0,"[0.08611514165672722,-0.11095109106909008]",4.0,"[-0.18259721719101124,-0.06732971346060505]",100.0,"[0.04326940424672952,-0.12213314054411122]",4.0,"[-0.16619735818832784,0.03140692056592362]",100.0,"[-0.13636900456394932,-0.06308466034274353]",4.0,"[-0.06009439657396513,-0.059205466391442724]",100.0,"[0.1202748352495788,0.058387989947304805]",100.0,"[0.013728585928148115,0.18995682795953478]",4.0,"[0.09455711115048464,-0.006414078406084134]",4.0,"[-0.09439763594065922,-0.1263955663752772]",4.0,"[-0.1948257073325629,-0.0054294358541420295]",100.0,"[-0.050666314893681445,0.1420557630813771]",4.0,"[-0.012217831783256014,0.15790623311251367]",100.0,"[0.10062209390005987,0.12326889151559474]",100.0,"[-0.1466245890371509,-0.1248475584463841]",4.0,"[-0.10728012118675959,0.13549532133202122]",100.0,"[-0.005929784499735227,-0.1487675707638]",4.0,"[0.06587604827997193,0.18378029588459846]",4.0,"[0.0573126592782387,-0.05190757161979853]",100.0,"[0.1654773053701542,0.08243190094870426]",100.0,"[-0.035963220678029234,0.1916019004126498]",4.0,"[0.006554588792090197,-0.08389120023688418]",4.0,"[0.06049724509919854,0.07787910293694009]",4.0,"[0.02,0.02]",120.2009,0.0,2.0,2.0,147.0,1.0,,,,,,,
,,,,,,,68279a5ab27e06f727e6648e,68439101354ce336828d8c05,2025-06-06_20h10.34.010,shape_ratio,2024.1.5,Win32,60.24096386,6842b561977af9ba9b0f87ca,,,,,,,,,,,120.2013,120.701,,,120.9511,121.0338,left,,,,,,,,0.1,0.0765,,,,,,,120.7011,120.951,121.0339,"[0.04770767992993509,0.10256993018479607]",4.0,"[0.11347200577477252,0.0206313755103459]",100.0,"[0.04568680802417293,0.045443536829056226]",100.0,"[0.11266809981247874,0.06726182060448127]",4.0,"[-0.02054583767000432,0.11729108829309003]",4.0,"[0.19262448994533507,-0.050204354564902715]",4.0,"[-0.1457211466055455,0.07614840366033351]",4.0,"[-0.003647634457163623,-0.12500956185866127]",4.0,"[0.013750037209955232,-0.1920660194175808]",4.0,"[0.03100686303457239,-0.02751330256127482]",4.0,"[-0.1244838132755775,-0.13126243165991064]",4.0,"[-0.10298104051338725,0.0047353955159467965]",4.0,"[0.16021622376455497,0.107328669897356]",4.0,"[0.03746909987068715,-0.14179705498417594]",100.0,"[0.000812988183648911,0.1898811659429739]",4.0,"[-0.13093467243776905,-0.0542428904913211]",4.0,"[0.11031988874520912,0.13718837872068285]",4.0,"[-0.039303661616417324,0.19452787623368895]",4.0,"[0.07761665587723197,-0.17006547729391783]",4.0,"[-0.010867275538982864,-0.064652722922045]",4.0,"[0.1750570290603052,-0.008462849606344637]",4.0,"[0.0942772551664393,-0.01728407815601943]",4.0,"[-0.08311478345124808,-0.1111275381568472]",4.0,"[-0.17491892201645162,-0.083604757068718]",4.0,"[-0.04078497365127025,-0.10581944553770928]",4.0,"[-0.07870180386145521,0.07978078725037731]",4.0,"[-0.18729276268166367,0.03403321657330099]",4.0,"[-0.07782151407375407,-0.18053663642618703]",4.0,"[-0.03478044736194606,-0.01794038502719109]",4.0,"[-0.0253729438531971,0.058174382093490434]",4.0,"[0.09431989741702582,-0.0904830544891729]",4.0,"[-0.07410136964437927,0.03287741614431302]",4.0,"[0.02,0.02]",122.1325,0.0,3.0,3.0,199.0,1.0,,,,,,,
,,,,,,,68279a5ab27e06f727e6648e,68439101354ce336828d8c05,2025-06-06_20h10.34.010,shape_ratio,2024.1.5,Win32,60.24096386,6842b561977af9ba9b0f87ca,,,,,,,,,,,122.1329,122.6319,,,122.882,123.0156,right,,,,,,,,0.5,0.1298,,,,,,,122.6321,122.882,123.0157,"[-0.09638991889249081,-0.06810568223164715]",4.0,"[-0.044169860387708884,0.01606517498635408]",100.0,"[0.04774893840193335,0.18094066825143754]",4.0,"[0.02261798879756396,-0.1537478115063009]",100.0,"[0.12554207222528918,-0.0664896739103583]",100.0,"[-0.1817050454963152,0.036478789204388205]",4.0,"[-0.0128515874723452,-0.013118041861825493]",4.0,"[0.01304263485203122,0.07921995210721408]",4.0,"[0.08547045636859309,-0.017028751873093856]",100.0,"[-0.1418378176775033,0.0765123166191235]",100.0,"[0.18023898954700016,-0.0845277780268557]",4.0,"[0.08101045998452577,-0.17057995088238276]",100.0,"[-0.11226759758338828,0.10973538777125887]",4.0,"[-0.1411796186082934,0.023508016685046613]",100.0,"[0.17115548885547457,0.03516472102463152]",100.0,"[-0.06761792871627931,0.10947437882164797]",100.0,"[0.06167349383039184,0.11200668358293478]",100.0,"[0.011098183715012946,-0.1114724073887359]",100.0,"[0.04406524200258929,-0.003196685559187619]",4.0,"[-0.024113817544489234,0.12232376861381347]",4.0,"[0.17684706492236807,-0.023990992890674367]",100.0,"[0.026890611515364978,-0.06066741051850805]",4.0,"[0.10154215473658182,0.09401285336469792]",4.0,"[0.07761755483722173,0.026353094464026432]",4.0,"[-0.11017385066153777,-0.14978703185426384]",4.0,"[0.0590836093088936,-0.09958249378931774]",100.0,"[-0.035199091881152264,-0.1704348788624853]",4.0,"[-0.10590442073116556,0.047247222679783374]",100.0,"[-0.034526653617059574,-0.12266973300540944]",100.0,"[-0.038198053584256125,-0.057224097450697974]",4.0,"[0.10600933318726889,-0.10947016804662972]",4.0,"[-0.10769398503097374,-0.02776540609329146]",100.0,"[0.02,0.02]",124.1138,0.0,4.0,4.0,103.0,1.0,,,,,,,
,,,,,,,68279a5ab27e06f727e6648e,68439101354ce336828d8c05,2025-06-06_20h10.34.010,shape_ratio,2024.1.5,Win32,60.24096386,6842b561977af9ba9b0f87ca,,,,,,,,,,,124.1144,124.6136,,,124.8639,125.23,right,,,,,,,,0.4,0.3585,,,,,,,124.6137,124.8638,125.2301,"[-0.1054593541505788,-0.034686277439260546]",4.0,"[-0.17112773096852382,-0.0995672982937336]",4.0,"[-0.18203000597212324,0.028836114241990153]",4.0,"[0.14667905934620692,0.05064269310649241]",4.0,"[-0.1449322577037732,-0.027811081003487212]",100.0,"[0.08543722787020232,0.012589299925967204]",4.0,"[-0.0568664675111667,-0.08507079764887136]",100.0,"[0.03248851453400157,-0.0625920890420066]",4.0,"[0.1852931482021137,0.07041024932825946]",4.0,"[-0.05844114527806535,0.17465890208998902]",100.0,"[-0.07999325769847837,-0.1214908674118777]",100.0,"[0.0836252711843257,0.16672787165889733]",4.0,"[0.058469056533357454,-0.11870248650544671]",100.0,"[-0.0602589133740833,-0.16544988046058556]",4.0,"[0.00928827128153812,-0.19199834025049456]",4.0,"[-0.02011244937187651,0.1319415149369963]",100.0,"[-0.009410440442045885,-0.04283830293515994]",4.0,"[0.14387313270495977,0.13511043394497707]",100.0,"[0.07544980766360669,0.0530358705458388]",4.0,"[0.02393073298471837,-0.015453123703448868]",4.0,"[0.10505355604187053,-0.03923012413299319]",100.0,"[0.16078703823748822,-0.06348617676680778]",100.0,"[-0.11899139602975561,-0.10800830689859868]",4.0,"[-0.10395308473583119,0.127504454147279]",4.0,"[-0.0845481206679576,0.018578690182844547]",4.0,"[0.14629029078016534,-0.002229992640821152]",4.0,"[-0.14352703777486553,0.04303679485900885]",100.0,"[0.0850490365939843,-0.1642233613048475]",4.0,"[-0.027071611372754472,0.08281160159522441]",100.0,"[0.19598801467063498,0.023050319789614332]",100.0,"[-0.014354969536562798,-0.1169097023843299]",100.0,"[0.08042193079948327,0.10582841482618738]",4.0,"[0.02,0.02]",126.3283,0.0,5.0,5.0,168.0,1.0,,,,,,,
,,,,,,,68279a5ab27e06f727e6648e,68439101354ce336828d8c05,2025-06-06_20h10.34.010,shape_ratio,2024.1.5,Win32,60.24096386,6842b561977af9ba9b0f87ca,,,,,,,,,,,126.3287,126.8276,,,127.0781,127.544,left,,,,,,,,0.5,0.4582,,,,,,,126.8276,127.0781,127.544,"[-0.011375819469078232,-0.03939184862529555]",4.0,"[-0.13390262159441163,-0.11830510270601106]",100.0,"[0.1485706475495181,0.00686985323169947]",100.0,"[-0.09414839979687219,-0.06902179234835926]",4.0,"[-0.09606881857058998,0.10059286870949007]",4.0,"[0.13790396733548396,0.1118804057386769]",100.0,"[0.000759160088209658,-0.19271718523789402]",4.0,"[0.0586960259064357,-0.17491845857653515]",4.0,"[0.09470957973372637,-0.045093243082251655]",100.0,"[-0.05240301367393493,-0.13612651259446415]",100.0,"[0.1898879549073726,-0.0009381973112361974]",100.0,"[-0.18556986832762812,0.03332936673036785]",100.0,"[-0.15767178063052684,-0.07116323273038348]",4.0,"[0.08412773814540334,0.0769797139539896]",100.0,"[0.028677408409100567,0.023020417495882996]",100.0,"[-0.07478153263915267,0.13809660638262644]",4.0,"[0.02848790308193031,0.10467248866116727]",4.0,"[-0.0590519241657423,-0.006510932444525285]",4.0,"[-0.15860929941962656,0.07583625471505444]",4.0,"[0.06729204070397406,0.17785059906120862]",4.0,"[-0.0015841799538174786,0.13123805189811372]",4.0,"[-0.016246218516211417,0.17035438559094648]",100.0,"[-0.11903183547164006,0.00038773717881378364]",4.0,"[-0.09464717787720202,0.17530199677835234]",100.0,"[-0.020746066222381416,0.07688913226860455]",100.0,"[-0.05318510227116032,-0.05621960639977548]",4.0,"[0.03971842542971389,-0.08480498882349644]",100.0,"[0.1433061387517215,-0.12726736180486461]",4.0,"[-0.014062150464879701,-0.10648641491689675]",100.0,"[0.07233281450971273,-0.12811136071968768]",100.0,"[0.10740185734349576,0.042936287879780655]",4.0,"[0.16167231368331259,-0.07076315433540312]",100.0,"[0.02,0.02]",128.643,0.0,6.0,6.0,116.0,1.0,,,,,,,
,,,,,,,68279a5ab27e06f727e6648e,68439101354ce336828d8c05,2025-06-06_20h10.34.010,shape_ratio,2024.1.5,Win32,60.24096386,6842b561977af9ba9b0f87ca,,,,,,,,,,,128.6435,129.142,,,129.3921,129.5923,right,,,,,,,,0.4,0.1878,,,,,,,129.1421,129.3921,129.5923,"[-0.11396941858643475,0.022313266052425812]",100.0,"[0.03997920070664291,-0.18355566211615454]",100.0,"[-0.038232347606890406,-0.07943583486798958]",4.0,"[0.0384992004595736,-0.07944559886082192]",4.0,"[0.19091996985560694,-0.029974806541436333]",100.0,"[-0.033105674494207545,0.05660766461534795]",100.0,"[-0.04220728355657367,0.0968822080414117]",4.0,"[-0.16824437007722984,-0.06670211686491004]",100.0,"[0.05428695005894401,0.13234772745323198]",4.0,"[0.10293759382165402,-0.13690320794422334]",4.0,"[0.02192565472806435,0.1048308086231507]",4.0,"[0.006704238720280519,0.17042114905531724]",100.0,"[-0.07556337297537975,0.072234738358163]",4.0,"[-0.08940302825865104,0.12395757433800425]",100.0,"[0.013169563167886226,0.0017811809966305167]",100.0,"[0.12257479553146214,-0.02318107058052543]",4.0,"[-0.11788346665244523,-0.15653751345506864]",4.0,"[-0.06411999321163166,0.18166954706826452]",4.0,"[-0.1691501349349487,0.105215028799318]",4.0,"[0.1496834036214679,-0.0978447476352028]",100.0,"[-0.16729340866772507,-0.002332701523389373]",4.0,"[0.1459676495843774,0.08622212197743699]",4.0,"[0.04150780777464651,-0.14057368856915037]",4.0,"[0.09602170859377784,0.09355281788783062]",4.0,"[-0.004393799327197597,-0.12351562261208165]",100.0,"[0.122744195783866,0.1380493281363866]",100.0,"[-0.10274620854281527,-0.09043578383999737]",4.0,"[0.019575814518442404,-0.041383606223005374]",100.0,"[0.06207709859838883,0.06096738203796113]",100.0,"[0.19386814615447198,0.013191108601347777]",4.0,"[0.13494137131104955,0.015991045890542385]",4.0,"[0.17433344919177243,0.05069051946520705]",4.0,"[0.02,0.02]",130.6908,0.0,7.0,7.0,171.0,1.0,,,,,,,
,,,,,,,68279a5ab27e06f727e6648e,68439101354ce336828d8c05,2025-06-06_20h10.34.010,shape_ratio,2024.1.5,Win32,60.24096386,6842b561977af9ba9b0f87ca,,,,,,,,,,,130.6913,131.1902,,,131.4405,131.6236,right,,,,,,,,0.4,0.1786,,,,,,,131.1902,131.4405,131.6236,"[-0.0540859053314706,0.10836520362662613]",100.0,"[-0.18566616591239657,0.05017337345169086]",100.0,"[0.17348768134873982,-0.04259852302196872]",4.0,"[-0.0028407150172728214,-0.14833784084835946]",4.0,"[-0.14311413323365016,-0.09804533203998314]",4.0,"[0.0562680565273862,-0.16250676099566477]",4.0,"[0.011912421715648257,0.04157563194246254]",4.0,"[0.0033879960331073505,0.09671538459464939]",4.0,"[-0.0808667252912749,0.0732764097356823]",4.0,"[-0.028165469773340383,-0.0806463995972912]",100.0,"[-0.07021954008312815,-0.056524806972333856]",100.0,"[0.12532294046133258,0.02538440755694295]",4.0,"[-0.11783580082494383,-0.02677685740789925]",4.0,"[-0.09336673893975156,0.1657795143633801]",100.0,"[0.02982002407005143,0.14192970059343885]",4.0,"[-0.09367943938025979,-0.15009436953636207]",4.0,"[0.09932365041283336,-0.109647492740682]",4.0,"[0.08112407436537201,0.12222191570160498]",100.0,"[-0.02908399569978138,0.03954975888976885]",4.0,"[0.11500729710017987,-0.05817583465181023]",100.0,"[0.043721986586859385,0.08013075284544235]",100.0,"[-0.1604735127462871,-0.056452389651431636]",100.0,"[-0.016763533928131683,0.17681393768934503]",100.0,"[-0.11167844165894636,0.0347594045655645]",4.0,"[0.03270407187453916,-0.08948694937762713]",100.0,"[0.19220279302467264,0.008194275343326137]",4.0,"[-0.03250770340043535,-0.193476166333058]",100.0,"[0.15683155039047894,-0.09123859397595463]",4.0,"[0.1634066966783885,0.11210116720346049]",4.0,"[-0.0655470691021679,-0.010385738969114069]",100.0,"[-0.05688578084182477,-0.12804101533152332]",4.0,"[-0.12526297857705293,0.0874207305484605]",4.0,"[0.02,0.02]",132.722,0.0,8.0,8.0,172.0,1.0,,,,,,,
,,,,,,,68279a5ab27e06f727e6648e,68439101354ce336828d8c05,2025-06-06_20h10.34.010,shape_ratio,2024.1.5,Win32,60.24096386,6842b561977af9ba9b0f87ca,,,,,,,,,,,132.7224,133.2215,,,133.4717,133.5885,left,,,,,,,,0.55,0.1069,,,,,,,133.2215,133.4716,133.5885,"[0.009430635389822592,0.14335035622831674]",4.0,"[0.006354460200854901,0.008005907294720536]",100.0,"[0.05212285014760535,0.1378699650301076]",4.0,"[0.1906745712678181,-0.05739688861962783]",100.0,"[0.16269223106392147,0.01066219185364828]",4.0,"[-0.1299472197440192,-0.08945546102502937]",100.0,"[-0.08012383999951643,-0.1721792130032856]",4.0,"[0.1232909197045131,-0.10284622853653637]",4.0,"[0.12693562667893377,0.13939921069627056]",4.0,"[-0.027216908125674313,-0.04637783441411651]",100.0,"[0.10585469478306125,-0.024638950763511944]",4.0,"[0.02270962420717738,0.10375552977395809]",100.0,"[-0.17957258792219313,-0.03717613470824324]",100.0,"[-0.052560801050796184,-0.08510474601617009]",4.0,"[-0.14266459033724394,0.12242528207443747]",100.0,"[0.002586784112002966,-0.1656813886509038]",100.0,"[-0.08949384954655158,-0.014342727638242462]",4.0,"[-0.03919054972272797,0.04317110476791987]",100.0,"[-0.12550692932048954,0.007788229972841223]",4.0,"[0.06806759309616528,-0.11481898641923347]",100.0,"[0.07005269483134283,0.02495918078960607]",100.0,"[0.16257367515267054,-0.1157651882732998]",4.0,"[-0.11675888175457041,-0.13351582240212467]",100.0,"[0.08763771503942329,-0.17043003455224395]",100.0,"[-0.057508334382774626,0.11250921529923659]",100.0,"[0.002395963475885545,-0.08432081897389378]",4.0,"[0.053657259270846254,-0.07621917059051066]",4.0,"[0.1311699743977625,0.08926264064398931]",100.0,"[0.0416561212564625,-0.14703432833370386]",100.0,"[-0.1476580832876076,0.0817516500608461]",100.0,"[0.054793090224079334,-0.02563157603513699]",4.0,"[0.10025111945372903,0.17296077829387563]",100.0,"[0.02,0.02]",134.6868,0.0,9.0,9.0,89.0,1.0,,,,,,,
,,,,,,,68279a5ab27e06f727e6648e,68439101354ce336828d8c05,2025-06-06_20h10.34.010,shape_ratio,2024.1.5,Win32,60.24096386,6842b561977af9ba9b0f87ca,,,,,,,,,,,134.6872,135.1862,,,135.4368,135.5361,left,,,,,,,,0.55,0.0915,,,,,,,135.1864,135.4367,135.5361,"[0.16792645289727365,-0.03396660383621248]",100.0,"[0.06756944033695268,-0.18319022641166033]",100.0,"[-0.041394402430264564,-0.1492386788653165]",4.0,"[0.11722678955492599,0.15404760813283308]",100.0,"[0.02337269025630542,0.01769398620390026]",100.0,"[0.047329878017911275,0.07498151291104661]",100.0,"[0.0577821800669326,-0.12594270750265715]",4.0,"[0.09229144617493641,-0.07468026573800937]",4.0,"[0.009047606071612573,0.15404446255153273]",100.0,"[0.12018591106104312,0.065190044878963]",100.0,"[-0.14187387262331896,-0.07922253135241528]",4.0,"[-0.016144447138059265,-0.111925313403761]",4.0,"[0.01915929244068504,-0.04468245448402814]",4.0,"[-0.11379799758971745,0.04617112031841737]",100.0,"[-0.013948599567324431,0.04709533863839325]",100.0,"[-0.12365223296250516,-0.0162616012344322]",4.0,"[-0.04039798739610076,-0.0251801910746098]",4.0,"[-0.06354124415567698,0.15591191973029161]",100.0,"[-0.1252439018379983,0.11141926686633871]",100.0,"[0.13615494181673385,-0.0641505919563618]",100.0,"[-0.17944017921610383,0.07586801357393513]",4.0,"[-0.07417869764472605,-0.18070627263997424]",100.0,"[0.17156995512546563,0.056045398679055905]",4.0,"[0.06698843629542431,0.1858950595854592]",4.0,"[0.04692119866956474,0.1329379744641136]",4.0,"[0.017970081202205262,-0.14577810906569974]",100.0,"[0.007615209852880304,-0.18653962544455535]",100.0,"[-0.07360716543572177,0.0686918454796445]",4.0,"[0.1541323826747003,0.09852643555887536]",100.0,"[-0.1416234002163848,-0.13220740484659643]",4.0,"[-0.015075048503717684,0.11591672011160965]",100.0,"[-0.17797649520620712,-0.050414069317541554]",100.0,"[0.02,0.02]",136.635,0.0,10.0,10.0,65.0,1.0,,,,,,,
,,,,,,,68279a5ab27e06f727e6648e,68439101354ce336828d8c05,2025-06-06_20h10.34.010,shape_ratio,2024.1.5,Win32,60.24096386,6842b561977af9ba9b0f87ca,,,,,,,,,,,136.6356,137.1342,,,137.3848,137.5842,right,,,,,,,,0.55,0.1822,,,,,,,137.1343,137.3846,137.5843,"[0.06793420156843313,-0.04251308859188379]",4.0,"[0.15927227107488848,0.07783374402760607]",4.0,"[-0.13558329256163196,0.05568109050196751]",100.0,"[0.024644978620073744,0.06158917046178499]",100.0,"[0.1047657865328378,0.05749485024144837]",100.0,"[-0.17174438228359867,0.033071541823374045]",100.0,"[0.11449040222915798,-0.10791358869069198]",100.0,"[0.10518724686976308,0.09979950725698018]",4.0,"[-0.07605932353447784,-0.1796713415480399]",4.0,"[-0.09021349157492235,0.08318304500202775]",4.0,"[0.02640063954566267,-0.17543437177377047]",4.0,"[0.06475469824781374,-0.11620165998490375]",100.0,"[-0.17898550648391723,-0.018470563121435055]",100.0,"[0.020004364068281336,0.15962848333123594]",100.0,"[-0.029381076973137275,-0.19736980710845695]",4.0,"[-0.02850373274539651,-0.10787551229863834]",100.0,"[0.18194278103198314,-0.06364576417784612]",4.0,"[-0.025849544369828118,0.0770594783751664]",4.0,"[-0.06596895142769038,-0.0006814032005029111]",100.0,"[0.08993228524809337,0.14821378152572018]",100.0,"[0.11263467748439465,-0.04512785226259747]",100.0,"[-0.14764607501249574,0.09426962930777655]",100.0,"[0.10113966561376178,0.0035991098459325637]",4.0,"[-0.04894808196616957,0.123158458396683]",100.0,"[-0.11500035549933224,-0.039233616504355855]",4.0,"[-0.019387542820582467,0.012094190213102367]",100.0,"[-0.12836316567618566,-0.09310912715560639]",100.0,"[-0.0705930535181879,-0.0966946519886993]",100.0,"[-0.09689822972227084,0.0353702807822353]",100.0,"[-0.13151524324071345,0.1473237635983417]",4.0,"[-0.18175111843667396,-0.06511608160920913]",4.0,"[0.16247114210668373,-0.10005091903165303]",4.0,"[0.02,0.02]",138.6828,0.0,11.0,11.0,83.0,1.0,,,,,,,
,,,,,,,68279a5ab27e06f727e6648e,68439101354ce336828d8c05,2025-06-06_20h10.34.010,shape_ratio,2024.1.5,Win32,60.24096386,6842b561977af9ba9b0f87ca,,,,,,,,,,,138.6834,139.1824,,,139.433,139.5156,right,,,,,,,,0.45,0.076,,,,,,,139.1825,139.433,139.5157,"[0.11021228328017042,-0.09185661011054093]",100.0,"[-0.10358931196741675,0.0026454692463639476]",100.0,"[0.01443268174160355,-0.1543437101304898]",4.0,"[-0.1950255036499745,0.03376245730226912]",4.0,"[0.026675785996693773,0.036509970267749416]",4.0,"[-0.13256439169617745,-0.06602605305120259]",4.0,"[0.1104934528737279,-0.033891411758722706]",100.0,"[0.06361837589708044,-0.04569157641234611]",100.0,"[-0.04704340918626668,-0.08008261936303646]",4.0,"[0.10607724299341655,-0.15849853102679715]",100.0,"[0.10151465959446375,0.1368308862831352]",4.0,"[-0.06494945149567023,-0.14178715404226308]",4.0,"[-0.12705305139053583,0.09450399741016698]",4.0,"[-0.10291542900805307,-0.10992319737445906]",100.0,"[0.10356940723994154,0.03515060617092328]",100.0,"[-0.08067579341763943,-0.04978216161386319]",4.0,"[-0.15031422533103794,-0.004422757493598304]",4.0,"[-0.004014288230448243,0.18535059082232372]",4.0,"[-0.006675311413187776,-0.053451552013934714]",100.0,"[0.15179814840915135,-0.026893473933378632]",100.0,"[0.06165494221736593,-0.1437414005358137]",4.0,"[0.05302186058369495,0.17434863307593432]",100.0,"[-0.18359727087146877,-0.05329052731759604]",100.0,"[-0.19279524676977014,-0.0077379456686328865]",100.0,"[0.013753753148529965,0.11439160049860082]",4.0,"[-0.08130015543918137,0.04305048053239756]",4.0,"[-0.10164337913663032,0.1364678126908132]",4.0,"[-0.029727992665736128,0.13909636373056244]",4.0,"[0.04965020599511154,0.07061114763423917]",100.0,"[0.1713966050420024,0.054253273510261275]",4.0,"[-0.036969350254784296,0.07423247449427402]",4.0,"[0.19529672564330136,0.0014997871751759146]",100.0,"[0.02,0.02]",140.6143,0.0,12.0,12.0,122.0,1.0,,,,,,,
,,,,,,,68279a5ab27e06f727e6648e,68439101354ce336828d8c05,2025-06-06_20h10.34.010,shape_ratio,2024.1.5,Win32,60.24096386,6842b561977af9ba9b0f87ca,,,,,,,,,,,140.6147,141.1137,,,141.3641,141.4303,left,,,,,,,,0.45,0.054,,,,,,,141.1137,141.3641,141.4304,"[0.03090947507821687,-0.16240042193157453]",100.0,"[-0.11005235329059915,0.16535292026927342]",4.0,"[-0.05674069340719767,0.08203273732378258]",100.0,"[0.12353000194505533,0.09327240549579187]",4.0,"[-0.04846865653589582,0.14450440701027786]",4.0,"[-0.015110400781159229,0.1706277757101324]",100.0,"[-0.059320608436584855,0.04062117211800369]",100.0,"[-0.05615973664675491,-0.13388913683439846]",4.0,"[-0.10931183667300833,-0.09602292496204781]",4.0,"[-0.16571003695453773,0.04749562944746261]",100.0,"[0.15568372546889547,0.05534416551950265]",100.0,"[0.022849858544982195,-0.0377512287001678]",4.0,"[0.043661290651638526,0.08022697519740468]",4.0,"[-0.06381968305693801,-0.003268996520486625]",100.0,"[0.16454048450623562,-0.07520266554329842]",4.0,"[-0.18479719927516708,-0.018118299210607345]",4.0,"[0.054542279944223886,0.1705288015547991]",4.0,"[-0.010563566355445949,0.1299210688716219]",4.0,"[-0.08907648986171654,-0.03937593779990614]",100.0,"[-0.0860077223005831,-0.16428929601567085]",4.0,"[0.07074138416463892,0.01256123886002335]",4.0,"[0.10922552798233534,0.1570387673476077]",100.0,"[-0.016394294129373318,-0.07710123243924605]",4.0,"[0.09164286354405413,-0.06264891840073972]",100.0,"[0.13832559510757061,-0.108185143957237]",4.0,"[0.12813255047529618,0.014708296553844926]",100.0,"[-0.1275228593411818,-0.018251126262477685]",4.0,"[-0.012564711554252284,0.024658021250593992]",4.0,"[0.03836315819491867,-0.10084863969805384]",100.0,"[-0.04750883431952497,-0.1904998137381256]",4.0,"[-0.09796438433704721,0.10467920209389597]",100.0,"[0.002812235646694665,0.08241893135723627]",100.0,"[0.02,0.02]",142.5291,0.0,13.0,13.0,145.0,1.0,,,,,,,
,,,,,,,68279a5ab27e06f727e6648e,68439101354ce336828d8c05,2025-06-06_20h10.34.010,shape_ratio,2024.1.5,Win32,60.24096386,6842b561977af9ba9b0f87ca,,,,,,,,,,,142.5297,143.0285,,,143.2788,143.3452,right,,,,,,,,0.55,0.0529,,,,,,,143.0285,143.2788,143.3452,"[-0.12172587655106,-0.1341088455991322]",100.0,"[-0.1389419820859246,0.07947683680097417]",100.0,"[0.09032247042007263,0.06221028783463755]",4.0,"[0.06282716980762372,-0.17262217335795538]",4.0,"[0.017492609297209555,-0.09077893415092277]",100.0,"[0.007146022935491579,-0.19261966739186495]",100.0,"[-0.17577149611506201,0.05988566215225624]",4.0,"[0.15822662074879446,-0.08763499925976984]",100.0,"[-0.16995894759124033,-0.0012060540132840993]",4.0,"[0.00487437997521701,0.11361618871185275]",100.0,"[0.043760641019071955,-0.04467978030944448]",100.0,"[0.0216805704352279,0.178245681785051]",4.0,"[0.0543440626609951,0.09485691478290119]",4.0,"[0.08088687476890613,0.15671534970023748]",100.0,"[-0.0850695143304584,0.0015657669525976393]",4.0,"[-0.040856712380842326,0.18275762797457729]",4.0,"[0.08010633328771666,-0.07033544781261344]",4.0,"[0.013361528492746778,-0.15005958895487145]",100.0,"[-0.01995707628851421,-0.01071404183982598]",100.0,"[0.0510565639657577,0.032028375549469544]",100.0,"[0.1533672205507725,0.10612958673073851]",100.0,"[-0.08868637524538844,-0.051896569631313845]",4.0,"[-0.049282732736431044,-0.06872413190589756]",100.0,"[-0.059780345956363626,-0.13983712543784213]",100.0,"[0.1156479717745425,-0.13857863702593773]",4.0,"[0.19599503291423892,-0.03276075103389004]",100.0,"[-0.12845791952782845,0.1198108981684721]",4.0,"[-0.1345239020873545,-0.026134120681092336]",100.0,"[-0.025408882269693844,0.1441075251160133]",100.0,"[0.1945342728174696,0.02504554425437301]",100.0,"[-0.18333818630622561,-0.05380108442531511]",4.0,"[-0.10970816312868213,0.04077779208621866]",4.0,"[0.02,0.02]",144.4439,0.0,14.0,14.0,62.0,1.0,,,,,,,
,,,,,,,68279a5ab27e06f727e6648e,68439101354ce336828d8c05,2025-06-06_20h10.34.010,shape_ratio,2024.1.5,Win32,60.24096386,6842b561977af9ba9b0f87ca,,,,,,,,,,,144.4446,144.9435,,,145.1937,145.2436,left,,,,,,,,0.9,0.033,,,,,,,144.9436,145.1936,145.2436,"[0.18463838888446832,-0.07463050293938929]",100.0,"[0.019518873591911002,0.029501917335353223]",100.0,"[-0.0216882986793347,-0.10072078982935154]",100.0,"[-0.10095487272824762,0.14526840293432172]",4.0,"[-0.09058564467729367,-0.1369005981742397]",100.0,"[-0.18423338003322642,0.02875926590749772]",100.0,"[0.06874567183742022,0.18646712218260025]",100.0,"[0.0007463066109603058,0.0943725047186614]",100.0,"[0.1438172875668749,0.021900770040295642]",100.0,"[-0.10680386079323735,0.009696990859358663]",100.0,"[-0.029500865263893894,-0.013321849799242249]",100.0,"[0.07383719320799119,-0.05252536725673331]",100.0,"[-0.12278569960103725,-0.03265682404562973]",100.0,"[-0.191427480408977,-0.04091456531409672]",4.0,"[-0.02943947457659618,0.1268466075643284]",100.0,"[-0.13894456117006912,-0.11743333725757425]",100.0,"[0.049053240885657726,-0.12064490314621736]",100.0,"[0.07714233705220541,0.027996749829421932]",100.0,"[-0.07320460714241722,0.09614408403766411]",100.0,"[0.13815880896490915,-0.047804650414627774]",100.0,"[0.17310364091671904,-0.0060575458178601625]",100.0,"[-0.025823911107189602,0.06117199907705065]",100.0,"[0.061777902791828404,-0.009616267190134458]",100.0,"[-0.14748685864957456,0.04714671884151757]",4.0,"[0.1250274464302951,-0.09335354257846736]",100.0,"[0.06371926752559887,0.12454308769842697]",100.0,"[-0.18334817961995567,0.0726822709786547]",100.0,"[0.013562587712965386,-0.07380671939969459]",100.0,"[-0.11167075835678,0.07146798069711766]",100.0,"[0.18814721277647192,0.062345798107308975]",100.0,"[0.002452607274857498,-0.1794927398259782]",100.0,"[-0.046025484814909735,0.16836751367019645]",100.0,"[0.02,0.02]",146.3418,0.0,15.0,15.0,29.0,1.0,,,,,,,
,,,,,,,68279a5ab27e06f727e6648e,68439101354ce336828d8c05,2025-06-06_20h10.34.010,shape_ratio,2024.1.5,Win32,60.24096386,6842b561977af9ba9b0f87ca,,,,,,,,,,,146.3422,146.8416,,,147.0918,147.2588,left,,,,,,,,0.9,0.1512,,,,,,,146.8416,147.0917,147.2588,"[0.05279259327601402,-0.06726582968210089]",100.0,"[0.1065101441833477,-0.1370206596886067]",100.0,"[0.06001620982173011,0.04891006442748081]",100.0,"[-0.0769288006612672,0.003710986009837684]",100.0,"[-0.005058502239297332,0.16777026350640947]",100.0,"[-0.040383627431029294,0.07797053156692685]",100.0,"[-0.1402642274593231,0.005741691981208085]",100.0,"[-0.1862464811274911,-0.030773892363071924]",100.0,"[-0.13726290430450824,0.0934096131208109]",100.0,"[0.08031212719462774,0.17273136792055227]",100.0,"[-0.10133894656046309,-0.028642766256820548]",100.0,"[0.19397262469764429,0.0076489460863467685]",100.0,"[-0.013243741120291447,-0.009459427454492244]",100.0,"[-0.08406930394612926,0.14877611503741886]",100.0,"[-0.15047608857275133,-0.1236554360589571]",100.0,"[-0.08634780753288375,0.07699006170861178]",100.0,"[-0.04562154874874876,0.03624668608284482]",100.0,"[0.1046910560327874,-0.036757691448747076]",100.0,"[0.15778576223264199,-0.05651989702786204]",100.0,"[0.006614930508557384,0.12467966156374477]",4.0,"[0.04249247395056491,-0.18334129089140508]",100.0,"[-0.17931570369180447,0.028409823932496747]",100.0,"[-0.043915561142309587,-0.04721944755928277]",100.0,"[0.08217652823794873,0.12109237602006395]",100.0,"[-0.023867245806582966,-0.14124823256646576]",100.0,"[-0.09476468873341748,-0.1520271471570214]",100.0,"[0.09153629911417699,-0.08833893981609271]",4.0,"[0.049801998653948465,-0.010643133499724478]",100.0,"[0.006847458327005656,-0.07659244179565101]",100.0,"[-0.05807377992039054,-0.09286536233112055]",100.0,"[0.12558487486529937,0.04640582985477773]",4.0,"[0.12389598834717418,0.08834580770003567]",100.0,"[0.02,0.02]",148.3566,0.0,16.0,16.0,20.0,1.0,,,,,,,
,,,,,,,68279a5ab27e06f727e6648e,68439101354ce336828d8c05,2025-06-06_20h10.34.010,shape_ratio,2024.1.5,Win32,60.24096386,6842b561977af9ba9b0f87ca,,,,,,,,,,,148.3573,148.8563,,,149.1062,149.6727,left,,,,,,,,0.4,0.5501,,,,,,,148.8563,149.1061,149.6728,"[-0.1420590176951351,0.13894902147465993]",4.0,"[0.01421541667489761,0.12239163079049614]",4.0,"[0.15030748271861674,0.08177633474274164]",4.0,"[0.13886523997561653,0.005981101804932271]",4.0,"[0.06577709427428798,0.12589651415074368]",4.0,"[0.04380333921816632,-0.030945659384832142]",4.0,"[0.10311100183501236,-0.16750315285429387]",100.0,"[-0.008893054705444187,-0.1524189780956709]",100.0,"[0.10113013694274406,0.07039674850569144]",4.0,"[0.014201977608233744,0.00964419543589544]",4.0,"[-0.1875443818369646,-0.017093643411231946]",100.0,"[-0.0023333972720940006,0.06244063065983351]",4.0,"[0.13704581909728658,-0.13095163951024502]",100.0,"[-0.02485519764764752,-0.11206613767291525]",4.0,"[0.025061825624223103,0.16301924879432295]",4.0,"[0.12430272132096284,-0.0419880140689774]",4.0,"[0.05934561799060609,-0.1506621649796662]",4.0,"[0.17553741217079158,-0.024960853248636374]",100.0,"[-0.07482680319857489,-0.006537572196310797]",100.0,"[-0.03818359623743647,0.10324981852036916]",100.0,"[0.09298646085756358,-0.1112240124184549]",4.0,"[-0.1478664512845986,-0.005113185337761138]",100.0,"[-0.08385958917226881,0.053708386949387524]",4.0,"[0.1891418425734973,0.062432104090559465]",4.0,"[-0.028933614122389262,-0.06785454297627903]",4.0,"[-0.08853467565423266,-0.1145774985233749]",100.0,"[-0.14948877206072142,0.057461178118471845]",100.0,"[-0.08300095196366945,0.13960792540611827]",4.0,"[0.03254174330129537,-0.07189702560269838]",100.0,"[0.00008598548224396617,-0.19343201882319783]",4.0,"[-0.12984943029740886,-0.06249011403069168]",100.0,"[0.16232895931057473,-0.08007964215970861]",100.0,"[0.02,0.02]",150.7713,0.0,17.0,17.0,152.0,1.0,,,,,,,
,,,,,,,68279a5ab27e06f727e6648e,68439101354ce336828d8c05,2025-06-06_20h10.34.010,shape_ratio,2024.1.5,Win32,60.24096386,6842b561977af9ba9b0f87ca,,,,,,,,,,,150.7718,151.2706,,,151.5206,151.5873,right,,,,,,,,0.4,0.058,,,,,,,151.2706,151.5205,151.5874,"[-0.19200140099403998,0.018573900835459827]",4.0,"[-0.007280351122213832,0.04426850438821552]",100.0,"[0.039305576838022716,0.11006353606309308]",4.0,"[-0.1815582515515655,-0.020113152262060167]",4.0,"[0.07964555656974608,0.07888215035620495]",4.0,"[-0.04096794098742775,-0.06558663307142022]",4.0,"[-0.05510773694873166,0.012391255310289222]",4.0,"[-0.17032490700279612,0.08393019804633071]",4.0,"[-0.07945359538873069,0.07229975018502309]",100.0,"[-0.12883501717694015,-0.06387319623564788]",100.0,"[0.06811608343825319,-0.033743833715065924]",4.0,"[0.0017279539048361905,-0.030213258104798933]",4.0,"[-0.038682214867297615,-0.19169623958534884]",4.0,"[-0.12443634388143618,0.10044797364151506]",100.0,"[0.18390481161967104,-0.05414137033311006]",100.0,"[0.1513790751269769,0.04168795719666365]",100.0,"[0.15353337501707845,-0.09865539627523102]",100.0,"[0.12200741156386652,-0.05893416020370963]",100.0,"[0.12425694404871691,0.1549860703968349]",4.0,"[0.015155129932777338,-0.19154167828813265]",4.0,"[0.031141451215640506,0.15289855102501657]",4.0,"[0.04296959361064358,0.19144097483305997]",4.0,"[-0.06276429092164532,0.11736724925121009]",4.0,"[0.08263923079169909,0.007538930486958993]",100.0,"[0.06871858818146556,-0.1703434144282253]",100.0,"[0.0045029562806813105,-0.12558038827514553]",4.0,"[-0.10908708424136665,-0.006209707114232612]",4.0,"[0.04710440373385913,-0.0865819078344692]",100.0,"[0.07240172643553014,0.1643484472399632]",4.0,"[0.10318819382956886,-0.09608800819821423]",4.0,"[-0.03619101471710705,0.18705157417699353]",100.0,"[-0.046261773269935746,-0.13592267650007472]",100.0,"[0.02,0.02]",152.6858,0.0,18.0,18.0,150.0,1.0,,,,,,,
,,,,,,,68279a5ab27e06f727e6648e,68439101354ce336828d8c05,2025-06-06_20h10.34.010,shape_ratio,2024.1.5,Win32,60.24096386,6842b561977af9ba9b0f87ca,,,,,,,,,,,152.6862,153.1854,,,153.4357,153.4685,left,,,,,,,,0.6,0.0177,,,,,,,153.1854,153.4357,153.4685,"[0.1355753531229393,-0.07324608269132706]",100.0,"[-0.1913751666602828,-0.014318685912342815]",100.0,"[0.17660427856609023,0.060542520135904755]",100.0,"[0.1289338298203663,0.016597601207874086]",100.0,"[0.07109139317080959,0.17320467899582853]",100.0,"[0.010531577949625014,-0.11355685399741107]",100.0,"[0.16868691679311765,-0.00919683235515089]",4.0,"[-0.12199867637729353,0.06736182406333009]",100.0,"[0.14786633586546388,0.09955113924284731]",100.0,"[-0.10551882776765338,-0.1414056982051042]",4.0,"[0.0941444987556112,0.08300230453838511]",100.0,"[0.025708421463643306,0.10475583010559268]",100.0,"[-0.06756673989980605,-0.048912621770879836]",100.0,"[-0.1329420912924832,-0.06849493897891479]",100.0,"[0.08550667590127142,0.12822288979255927]",100.0,"[-0.031598091037450614,-0.10654265382835347]",4.0,"[-0.0161558318207024,0.08379831636298275]",100.0,"[0.07660690003158754,0.02313299512887123]",4.0,"[0.009364337799612129,-0.000013881070606142162]",4.0,"[0.037645231810746076,-0.047312925491049304]",4.0,"[-0.0727704015505555,0.1383428930106852]",4.0,"[-0.05696860721248351,0.023126545733909366]",100.0,"[0.006887535156475322,0.14766603795703445]",4.0,"[0.08412249714298387,-0.02052293971818266]",4.0,"[-0.05216621762999889,0.06452350626071314]",4.0,"[0.08415225306486918,-0.08199990307247776]",100.0,"[-0.11982094849615478,0.0248716163368159]",100.0,"[0.016757682646926474,-0.18343292024008184]",100.0,"[-0.054900880048990644,-0.15336872125169515]",100.0,"[0.09310973569905938,-0.16435819012395664]",4.0,"[-0.18205051578471879,-0.07907044878374259]",4.0,"[-0.1744290349177342,0.05682385267693584]",4.0,"[0.02,0.02]",154.5672,0.0,19.0,19.0,37.0,1.0,,,,,,,
,,,,,,,68279a5ab27e06f727e6648e,68439101354ce336828d8c05,2025-06-06_20h10.34.010,shape_ratio,2024.1.5,Win32,60.24096386,6842b561977af9ba9b0f87ca,,,,,,,,,,,154.5679,155.0666,,,155.3169,155.4832,left,,,,,,,,0.9,0.162,,,,,,,155.0667,155.3168,155.4833,"[0.08608910745784505,0.08813070629275578]",100.0,"[-0.1347590306361742,-0.06090914739788123]",100.0,"[-0.04360188593057144,0.059779287724441056]",100.0,"[0.09079221550907345,-0.0366367420156331]",100.0,"[0.08913128725420513,-0.1500069217038306]",100.0,"[-0.03883578748684693,-0.09712423430921013]",100.0,"[0.06569110081324547,-0.10976409570744741]",100.0,"[-0.13474407828455756,0.0220738355948007]",100.0,"[0.12607411022298645,-0.07685423597331369]",100.0,"[0.009097524360886414,0.04724778309813568]",100.0,"[0.11185120989532567,0.0034567308202915364]",100.0,"[-0.014710969976165571,-0.17335931264854246]",4.0,"[0.17099587045887496,-0.01029875175744365]",100.0,"[0.03896426091171936,0.11453920705428595]",4.0,"[0.05725163260078591,0.027727492245694246]",100.0,"[0.015280062189428234,-0.06400518674106367]",100.0,"[0.16789385473425117,0.0874051992598026]",100.0,"[0.00012719186164295747,-0.13492418524309868]",100.0,"[0.03633874801708348,-0.1857808975449122]",100.0,"[-0.018015659037380505,0.18678872004309463]",100.0,"[-0.11590312261173717,0.12723638560427125]",100.0,"[-0.08394000629504199,0.16808935824340843]",100.0,"[-0.04528093918810884,0.1531051106046764]",100.0,"[0.024734175773472467,0.16053787245056003]",100.0,"[-0.06829848707364125,-0.0038101621341425146]",100.0,"[-0.06191069823690514,-0.18989409284007686]",100.0,"[0.15942630450894457,-0.1047342920022631]",4.0,"[0.003957180343455183,-0.008238756291337489]",100.0,"[-0.1466753394047971,-0.13580317042416612]",100.0,"[-0.09028238548672075,-0.15518588074601328]",100.0,"[0.09290901164134747,0.13621910622492905]",100.0,"[-0.0873052916314272,0.08306653111546215]",100.0,"[0.02,0.02]",156.5821,0.0,20.0,20.0,16.0,1.0,,,,,,,
,,,,,,,68279a5ab27e06f727e6648e,68439101354ce336828d8c05,2025-06-06_20h10.34.010,shape_ratio,2024.1.5,Win32,60.24096386,6842b561977af9ba9b0f87ca,,,,,,,,,,,156.5824,157.0815,,,157.332,158.6138,right,,,,,,,,0.4,1.2713,,,,,,,157.0815,157.3319,158.6138,"[-0.0641155049505258,0.1397542540777392]",4.0,"[0.15611974541881715,-0.050579500199548384]",4.0,"[-0.1678160500881365,-0.019087727332620853]",100.0,"[-0.03083730452431734,-0.025478530920852633]",4.0,"[0.009973856479597885,-0.18531021967717004]",100.0,"[-0.12570895160183182,0.02097036805764762]",4.0,"[0.1024237186159503,-0.06979445140564844]",4.0,"[0.07661197719202083,-0.01794130008077048]",100.0,"[0.01572052839831187,-0.1273191387111479]",4.0,"[0.05449886519217848,-0.105747139897356]",4.0,"[0.11114695924423039,-0.1334993589453334]",4.0,"[-0.08824478162060834,-0.05498369547532923]",100.0,"[-0.12477259028665896,0.12701634304175355]",100.0,"[0.11366279078915678,0.1370481604308582]",4.0,"[0.14211892791852607,0.0841131251896652]",4.0,"[-0.04101050796364307,0.03833214372172508]",100.0,"[0.015646468082747632,0.06611828130143556]",4.0,"[0.025451723414303372,0.01860802828104621]",4.0,"[-0.04877685396977328,-0.07676165304318752]",4.0,"[0.1631461713559016,0.017026092313398078]",100.0,"[-0.07064247755615123,-0.18209613859642038]",100.0,"[0.006225373415257684,-0.08097056104956524]",4.0,"[-0.18080168371404862,-0.07167476333559286]",100.0,"[-0.07229217401928038,0.07974533570576402]",100.0,"[0.08541088851114972,0.04162113653405905]",4.0,"[-0.17729665631065783,0.03500958356217996]",4.0,"[-0.13683229648124706,-0.0859933606992803]",4.0,"[-0.03621677465450198,-0.14158615233826977]",4.0,"[-0.057452280730902874,0.18415781354973623]",4.0,"[-0.03215405577069629,0.08724525243843292]",100.0,"[-0.10383182390972036,-0.015324094653415919]",100.0,"[0.05013873590720181,0.12336875436841989]",100.0,"[0.02,0.02]",159.7122,0.0,21.0,21.0,164.0,1.0,,,,,,,
,,,,,,,68279a5ab27e06f727e6648e,68439101354ce336828d8c05,2025-06-06_20h10.34.010,shape_ratio,2024.1.5,Win32,60.24096386,6842b561977af9ba9b0f87ca,,,,,,,,,,,159.7128,160.2117,,,160.4618,160.5619,left,,,,,,,,0.55,0.0936,,,,,,,160.2117,160.4618,160.5619,"[-0.052007399456711484,0.0002762416613602465]",100.0,"[-0.12378898030421437,0.015964452245607517]",4.0,"[-0.06504105127032041,-0.1171927523014421]",4.0,"[-0.014112209673721284,-0.18953220913228]",4.0,"[0.13925679607722724,-0.014698241999191107]",4.0,"[0.039586497672784625,0.1198674584757989]",4.0,"[0.011922943118022293,0.05484395636271995]",100.0,"[0.00570408092260502,-0.08313067228351842]",100.0,"[-0.1127445559371113,0.15257123964604716]",4.0,"[-0.06981991125361395,0.13638981754320945]",4.0,"[0.1146156772049376,-0.10667296249589071]",100.0,"[-0.057220559303694976,-0.1886419313365972]",4.0,"[0.04272141260086914,0.0016943591519547694]",100.0,"[0.1342726387524169,0.037290205189397914]",4.0,"[0.07404581082088464,-0.08949022840185118]",100.0,"[-0.1346480687082702,-0.1323901721459783]",100.0,"[0.04794643436591407,-0.04464468310404909]",100.0,"[0.12137306761155009,0.12612701143279545]",100.0,"[0.09226806272105981,0.08510749419248176]",100.0,"[0.049459004488759485,0.17715293396673684]",4.0,"[0.08970878036717504,-0.16807099809606618]",100.0,"[0.08078088308730219,0.14905490847452335]",100.0,"[-0.14913339284342367,-0.08559245359138487]",100.0,"[0.051670545613072286,-0.1350171365621548]",4.0,"[-0.10246462170726224,0.09966551573792734]",100.0,"[-0.15122321513861967,-0.044274734418524794]",100.0,"[-0.03747303908700014,0.05831498160655915]",100.0,"[-0.16813560374356265,0.043702765418484245]",4.0,"[0.09291795861699878,-0.0011108809387026042]",100.0,"[0.07318900726938139,0.037449924975589244]",100.0,"[0.10728854905204416,-0.06545382460951661]",4.0,"[-0.17959897660102112,-0.010495051034460936]",4.0,"[0.02,0.02]",161.6604,0.0,22.0,22.0,61.0,1.0,,,,,,,
,,,,,,,68279a5ab27e06f727e6648e,68439101354ce336828d8c05,2025-06-06_20h10.34.010,shape_ratio,2024.1.5,Win32,60.24096386,6842b561977af9ba9b0f87ca,,,,,,,,,,,161.6608,162.1597,,,162.4099,162.5101,left,,,,,,,,0.45,0.0887,,,,,,,162.1598,162.4098,162.5102,"[-0.12327826975713048,0.09955758212052947]",4.0,"[-0.030713151715688693,-0.10573427300725301]",100.0,"[0.04277366581018191,-0.04819391803296693]",4.0,"[-0.04861155534803001,0.15258394366059125]",4.0,"[0.06126927506538956,0.11630913876200238]",100.0,"[-0.02161653845828058,-0.15118483660461549]",4.0,"[-0.060169450959071634,-0.07788378159218802]",4.0,"[-0.1418573059391955,0.058977512425487336]",100.0,"[0.0873380963776341,-0.12013800417913272]",4.0,"[0.005858157655366278,0.16271754859935253]",100.0,"[-0.11671420692744898,-0.0478857124754906]",100.0,"[-0.18058431966669278,-0.05085942297434334]",100.0,"[0.02751479849909471,0.024087714273410252]",100.0,"[0.05093547627721113,-0.14212814132532234]",100.0,"[0.09108223160689145,0.013144798687324115]",4.0,"[-0.030659546185023572,0.05664280176621903]",4.0,"[-0.06947700022186884,0.10296844781648334]",4.0,"[0.16413453422779337,-0.045544185768472634]",100.0,"[-0.11025162627549942,-0.1490792541989801]",4.0,"[0.15705188970182887,0.0557988320246548]",4.0,"[0.08694527240483889,-0.027794669281811478]",4.0,"[0.11881581467945737,0.11265840772650652]",4.0,"[-0.06355900489707063,-0.1347378212332739]",100.0,"[0.1714340324402247,0.008582925244078898]",4.0,"[-0.18777937747883164,0.024265867798259712]",100.0,"[0.11047537641399009,-0.08136982477796809]",4.0,"[0.1762415225583933,-0.09026350409008327]",4.0,"[-0.002207280298538424,0.09445762257331618]",4.0,"[0.14897045677666856,-0.13169573149177063]",4.0,"[0.08049807553064289,0.07179615877292989]",100.0,"[0.006098326103498283,-0.08707522299838606]",100.0,"[-0.11573095815625066,0.023214854314349234]",100.0,"[0.02,0.02]",163.6085,0.0,23.0,23.0,128.0,1.0,,,,,,,
,,,,,,,68279a5ab27e06f727e6648e,68439101354ce336828d8c05,2025-06-06_20h10.34.010,shape_ratio,2024.1.5,Win32,60.24096386,6842b561977af9ba9b0f87ca,,,,,,,,,,,163.6091,164.1077,,,164.3581,164.7408,left,,,,,,,,0.1,0.3695,,,,,,,164.1078,164.358,164.7408,"[0.0762886744822923,-0.0879783346529235]",4.0,"[-0.026275523844960503,0.15205830820985056]",4.0,"[-0.12661964776993948,-0.07743657240814461]",4.0,"[-0.023478128455102942,-0.09260674240735593]",4.0,"[0.1840413001484397,-0.007978385312282179]",4.0,"[-0.12029463035778258,0.10024100819376175]",100.0,"[-0.007438409771528155,0.07806544710297796]",4.0,"[-0.07820264619916686,0.000546740602280218]",4.0,"[0.13206319315076218,0.08047586854634799]",4.0,"[0.03180283410518859,0.17082333875557576]",4.0,"[0.059312180278251025,0.11973751769007697]",4.0,"[-0.1665840907234996,0.02835799749785398]",4.0,"[0.031559216346354335,0.031456058159094004]",4.0,"[-0.06454112808361431,-0.1736515204234695]",100.0,"[-0.07179095299594222,0.16044927019910624]",4.0,"[0.0952313615686921,0.02235324595608202]",100.0,"[-0.12475254589599574,-0.14153693841327836]",4.0,"[0.05109625470574682,-0.030709295133973587]",4.0,"[-0.018004083897296165,-0.17669115396170032]",4.0,"[-0.11303818036972674,-0.034083734636821815]",4.0,"[0.12037649612723424,-0.03322370730455149]",4.0,"[0.01079345430490515,-0.12689883717816658]",4.0,"[0.007428876960820125,-0.03363543917744319]",4.0,"[0.14338812119863523,0.03935707999759466]",4.0,"[0.0426364508753061,-0.19158358197505437]",4.0,"[-0.07175022007381114,-0.10947234992565993]",4.0,"[0.061165608650921716,-0.1558776591271514]",4.0,"[0.11629717536271282,0.12424058580371874]",4.0,"[-0.05473272309364297,-0.03862750845450835]",4.0,"[-0.18308618455780137,-0.03611254205135978]",4.0,"[0.1443928456097371,-0.11709397036078399]",4.0,"[0.18748006205960263,-0.05084077992615226]",4.0,"[0.02,0.02]",165.8398,0.0,24.0,24.0,205.0,1.0,,,,,,,
,,,,,,,68279a5ab27e06f727e6648e,68439101354ce336828d8c05,2025-06-06_20h10.34.010,shape_ratio,2024.1.5,Win32,60.24096386,6842b561977af9ba9b0f87ca,,,,,,,,,,,165.8403,166.339,,,166.5895,166.7557,left,,,,,,,,0.6,0.1508,,,,,,,166.339,166.5894,166.7558,"[-0.03857537471764264,-0.12437564246812928]",100.0,"[-0.07798795685138807,-0.07433518041219768]",4.0,"[-0.13796932498599299,-0.08120336642543596]",4.0,"[0.10287551530867098,-0.0083054802204949]",100.0,"[-0.11888390835634453,-0.1496732161888867]",100.0,"[0.19214238244845297,0.016308315050557316]",4.0,"[0.036005499619929944,-0.13723553528999358]",100.0,"[0.005547312288316428,0.10012667608798483]",4.0,"[-0.060165804537963816,-0.17023411035150987]",100.0,"[-0.06716618549636497,0.11349453826654245]",4.0,"[-0.10828441696495507,-0.010031471221582232]",100.0,"[0.08952594073642269,0.06760056718105228]",4.0,"[-0.08284431040778091,0.057458538168857966]",100.0,"[0.17498078636294737,-0.0691824349203814]",100.0,"[-0.12458589905243683,0.05995386194340007]",100.0,"[0.06399213128515646,-0.18507830216553203]",4.0,"[-0.015183119905276482,-0.017421610814990985]",100.0,"[0.1359403428805125,-0.1409089552728343]",4.0,"[-0.07073508541293272,-0.034963872258263605]",100.0,"[0.1392820345202057,0.05076523530765906]",4.0,"[0.08960405084957335,0.11566369192416423]",4.0,"[0.0936375537510215,-0.07986964079981805]",100.0,"[0.0070895397049734075,-0.06159145026726769]",4.0,"[0.1547180386616223,-0.02629731409270512]",100.0,"[-0.03695260322286997,0.032738635484423836]",100.0,"[0.04582364593036463,0.018603749027365127]",4.0,"[0.08011198044262195,0.16048732499880816]",100.0,"[-0.09504838640663574,0.14648059104485753]",100.0,"[0.03463743679042693,0.1881348766044695]",100.0,"[-0.1957686619060989,-0.03456640253717884]",100.0,"[0.14408355261205397,0.09132341063125676]",4.0,"[-0.1651204633200432,0.10748822044399736]",100.0,"[0.02,0.02]",167.8542,0.0,25.0,25.0,30.0,1.0,,,,,,,
,,,,,,,68279a5ab27e06f727e6648e,68439101354ce336828d8c05,2025-06-06_20h10.34.010,shape_ratio,2024.1.5,Win32,60.24096386,6842b561977af9ba9b0f87ca,,,,,,,,,,,167.8546,168.354,,,168.6039,168.6872,right,,,,,,,,0.55,0.0684,,,,,,,168.3541,168.6038,168.6873,"[-0.14786508646932112,-0.1220648402093141]",100.0,"[0.10213628606038816,0.05105468976295223]",100.0,"[-0.17975013046431515,0.03797846067467823]",4.0,"[0.080151008622948,-0.004367023000149409]",100.0,"[-0.021557971352733185,0.10756174917731076]",4.0,"[-0.11133438668092874,0.09652618286805215]",100.0,"[0.04151455482303087,-0.023449958717173716]",4.0,"[0.15203820204814503,0.06807826304046957]",100.0,"[-0.13686758077250563,0.05650766394855984]",100.0,"[-0.07620882789696555,-0.15065794972522842]",4.0,"[0.12241628189943124,-0.09304687856081345]",100.0,"[0.06046706693538513,-0.12290747597842959]",100.0,"[0.17575184687337778,-0.032374989815811286]",100.0,"[0.07951251045763791,0.15100180306278713]",100.0,"[0.06079318293495175,-0.17220570321372214]",4.0,"[-0.07027808144105985,0.05964190989122076]",100.0,"[-0.18246830563968366,-0.02041138262922301]",4.0,"[-0.02685113074860041,-0.08235684559061696]",100.0,"[0.07775566230047828,0.10440468198541954]",4.0,"[-0.11813153834063214,0.01881331853676876]",4.0,"[-0.006615178949560599,-0.1909989804561197]",100.0,"[-0.10289785479571403,-0.04120168951159639]",100.0,"[-0.13704609413273128,0.1368535323078121]",100.0,"[-0.0317400025177104,0.14958765325929177]",4.0,"[0.03241412666196042,0.18261901175637013]",4.0,"[-0.03178591483846603,0.04364337956229018]",100.0,"[-0.012796886794627559,-0.03049685199724932]",4.0,"[0.16822767618099077,-0.0923826305341571]",100.0,"[-0.09452292735326875,-0.09474758611895025]",4.0,"[-0.04592429544591335,-0.1832726644297561]",4.0,"[0.12913054378277877,-0.011124645097934316]",100.0,"[-0.03991820644274415,-0.12329622190823318]",4.0,"[0.02,0.02]",169.7857,0.0,26.0,26.0,85.0,1.0,,,,,,,
,,,,,,,68279a5ab27e06f727e6648e,68439101354ce336828d8c05,2025-06-06_20h10.34.010,shape_ratio,2024.1.5,Win32,60.24096386,6842b561977af9ba9b0f87ca,,,,,,,,,,,169.7864,170.2852,,,170.536,170.8683,left,,,,,,,,0.45,0.3242,,,,,,,170.2852,170.536,170.8686,"[-0.06388946360557088,0.06700287954306987]",100.0,"[0.06970368633541926,-0.021591221550442706]",100.0,"[0.03267545651558995,0.07108033761203514]",4.0,"[-0.0794234535239654,0.17640544827818505]",100.0,"[0.10988352091030336,0.09987898968798514]",100.0,"[0.05598346798060314,-0.178980806986565]",4.0,"[0.15606022460223798,-0.06896934744368824]",4.0,"[-0.05034043841240397,-0.030027703839387864]",4.0,"[-0.032812918979670334,-0.17970410567524323]",100.0,"[0.007194726961794088,-0.12283316976954074]",4.0,"[-0.038022155808864484,0.11684934078351253]",100.0,"[0.15524324916518425,0.02795873068898437]",4.0,"[-0.17737322087462162,0.051371083112495025]",4.0,"[0.06988322022467246,0.1447131690688664]",4.0,"[0.09543666089802505,-0.12915054985933325]",100.0,"[-0.11458421186805223,-0.0054472211228710835]",4.0,"[-0.16265942033107153,-0.10138802336877024]",4.0,"[0.10052428061205046,0.025170050186738402]",4.0,"[-0.09197797444175913,0.10188049359367066]",100.0,"[0.023020339999711478,0.18201152427251174]",100.0,"[0.1761976392015554,-0.011986517253438307]",4.0,"[-0.09987881399895057,0.04876154632784784]",100.0,"[0.0853390712355064,-0.06370730159206757]",100.0,"[-0.013301789857758416,0.16012185968903986]",100.0,"[0.006956978390151745,-0.08043580543982197]",4.0,"[-0.00944294924359143,-0.0343339115174196]",4.0,"[-0.12419271065296966,-0.13419837782729108]",4.0,"[-0.08818129863701459,-0.11110951110651889]",4.0,"[-0.0032941479608202995,0.018976689296060986]",4.0,"[0.023581239278550645,0.13685768765175313]",100.0,"[0.05042848346577147,-0.13691210252402092]",100.0,"[-0.13901071816745414,0.037903427389034086]",4.0,"[0.02,0.02]",171.967,0.0,27.0,27.0,124.0,1.0,,,,,,,
,,,,,,,68279a5ab27e06f727e6648e,68439101354ce336828d8c05,2025-06-06_20h10.34.010,shape_ratio,2024.1.5,Win32,60.24096386,6842b561977af9ba9b0f87ca,,,,,,,,,,,171.9676,172.4664,,,172.7168,172.8163,left,,,,,,,,0.6,0.0938,,,,,,,172.4664,172.7168,172.8163,"[0.17978625249624516,-0.011723232470484755]",100.0,"[0.1538408369395661,0.09309774970593983]",4.0,"[0.005669125032254382,0.07726467097656957]",100.0,"[0.07274043760042367,-0.03518954304059547]",4.0,"[-0.0623291470817867,0.010892404941525106]",4.0,"[0.11803524920633256,0.1127685205337077]",4.0,"[0.13764725327139174,-0.10790217048791191]",4.0,"[-0.09474211738984284,0.05354485865500887]",100.0,"[-0.1298894406832053,-0.08350205081645555]",100.0,"[0.10085938499630315,0.0342642074029871]",100.0,"[0.008206678906978468,0.1489789226990343]",4.0,"[-0.026445096736806367,-0.021879174736014306]",100.0,"[0.08585858913356437,-0.11123629708327547]",4.0,"[-0.17215508028563303,0.024031276949766363]",100.0,"[0.06338682243486934,0.13105013547709624]",4.0,"[-0.030429046825225677,0.06000509540171174]",100.0,"[-0.08055121091037515,0.09374895151608531]",100.0,"[-0.10680872871661956,0.14098240960265615]",100.0,"[-0.0730121521849468,-0.04355450709156833]",4.0,"[-0.1353133430538976,0.0016578599436909264]",100.0,"[0.004530185397403582,0.03715445657694953]",100.0,"[0.02550293870312316,-0.09851445905433115]",100.0,"[-0.133705586455632,-0.12779454494445736]",100.0,"[0.1686618089863825,-0.07037675718296359]",4.0,"[-0.057648673556409624,-0.11887676876194707]",100.0,"[0.1321716722990702,-0.01232847030581791]",4.0,"[-0.08965048958926629,-0.15671377703148334]",100.0,"[0.035190482247334454,0.1827386125683469]",100.0,"[-0.030072684120149785,0.1702785351503555]",4.0,"[-0.04679192115984006,0.13051004385783313]",4.0,"[0.031817491917338125,-0.029094803180341952]",100.0,"[-0.17404094441093484,-0.0294033929733572]",100.0,"[0.02,0.02]",173.915,0.0,28.0,28.0,34.0,1.0,,,,,,,
,,,,,,,68279a5ab27e06f727e6648e,68439101354ce336828d8c05,2025-06-06_20h10.34.010,shape_ratio,2024.1.5,Win32,60.24096386,6842b561977af9ba9b0f87ca,,,,,,,,,,,173.9155,174.4145,,,174.6644,175.0307,right,,,,,,,,0.1,0.358,,,,,,,174.4145,174.6643,175.0309,"[-0.17346408826269788,-0.011275664635733134]",4.0,"[0.1207679720216097,0.13217786388103522]",4.0,"[-0.08671087411645446,-0.13703589960157667]",4.0,"[-0.04003048137043084,0.18246765163838152]",100.0,"[0.05483492817336846,0.17445587374242238]",4.0,"[0.0200070596581127,0.01776903428539009]",4.0,"[-0.07085023838212508,-0.17494703303741155]",4.0,"[0.03785717048612461,-0.022568081021527006]",4.0,"[0.005857669113483218,-0.08985049084353584]",4.0,"[0.15299107706484574,-0.06146639992223654]",4.0,"[-0.028488024332988766,0.03781070928229327]",4.0,"[-0.11042587455620699,-0.03521475007429327]",4.0,"[-0.14503184423636103,-0.12693861347485472]",4.0,"[0.03902034872134571,-0.12897492866911814]",4.0,"[-0.016027409353047934,0.12238675154301916]",4.0,"[-0.13364129797983296,0.10713854354966401]",100.0,"[-0.01013811650652258,-0.03922648496674897]",4.0,"[0.15858930664503387,0.015993280103956394]",4.0,"[0.04306593736766355,0.08885127848419856]",4.0,"[-0.00547585577136798,-0.1965830523779955]",4.0,"[0.08011345852334317,0.1136306359228082]",4.0,"[-0.13211055466195298,0.06467530977532004]",100.0,"[0.06717973841072795,0.028089172813346358]",4.0,"[0.16086171021673892,-0.1074950483625109]",4.0,"[-0.04757419468910044,-0.11342665412080234]",4.0,"[0.09131187786740812,-0.05314880351243909]",4.0,"[-0.0012485185722093965,0.1929216235231863]",4.0,"[0.09806882996650874,-0.17270330896683866]",4.0,"[-0.10956708334030771,0.008135939422690648]",4.0,"[-0.0014700551198011823,-0.13208572184952008]",4.0,"[0.1462923754353809,0.09485789423627687]",4.0,"[-0.17863021682393737,0.033280816909062864]",4.0,"[0.02,0.02]",176.1296,0.0,29.0,29.0,204.0,1.0,,,,,,,
,,,,,,,68279a5ab27e06f727e6648e,68439101354ce336828d8c05,2025-06-06_20h10.34.010,shape_ratio,2024.1.5,Win32,60.24096386,6842b561977af9ba9b0f87ca,,,,,,,,,,,176.13,176.6289,,,176.8792,177.0457,left,,,,,,,,0.1,0.1513,,,,,,,176.6289,176.8792,177.0457,"[0.060562762132829136,0.15996890554145715]",4.0,"[0.09598214817683685,-0.01028296505487336]",4.0,"[-0.09029923843444888,0.05792714752840877]",4.0,"[0.041701233993689836,-0.06652511824348169]",4.0,"[0.12578508521310597,0.14670670106504047]",4.0,"[-0.047386892161932384,0.06909670425089845]",4.0,"[0.013241480333812266,0.1736801074842983]",4.0,"[0.038241650063910206,-0.16378813544049223]",4.0,"[0.04730880657880471,-0.0047851541040173995]",4.0,"[0.17264441029985703,-0.05088418237132808]",4.0,"[-0.008569462069854032,0.09107677819856341]",4.0,"[0.19765280010704211,-0.008412492663255508]",4.0,"[-0.027141985914197374,-0.02954311484769401]",4.0,"[-0.12569451748574445,0.08778298435749264]",4.0,"[0.03016735503757122,-0.10505517198291997]",4.0,"[-0.1150105140173152,-0.05918295211180542]",4.0,"[-0.17621011268050898,0.07826460035189592]",4.0,"[-0.12226802232351058,-0.007220153860842743]",4.0,"[-0.033544203971549065,-0.15799685549461193]",4.0,"[0.0796091420135937,-0.11968237188179293]",4.0,"[0.045527232921409054,0.07943677949351521]",4.0,"[0.13440086036100996,-0.09143655452778793]",100.0,"[-0.18756053164948963,-0.05402494190149494]",4.0,"[-0.025947740344304717,-0.08311697600542514]",4.0,"[-0.08168049505707518,0.17465732056420621]",100.0,"[-0.04647440193552837,0.013015933293337166]",4.0,"[0.12009265362359892,0.03500662990256412]",4.0,"[0.1640253634236021,0.08055571850287024]",100.0,"[-0.12460233627299099,0.14154210729153224]",4.0,"[-0.08596364716739555,-0.15443208686116028]",4.0,"[0.007943832022348331,-0.1972682539503833]",4.0,"[-0.16591964155849934,0.020795751862349717]",4.0,"[0.02,0.02]",178.1441,0.0,30.0,30.0,208.0,1.0,,,,,,,
,,,,,,,68279a5ab27e06f727e6648e,68439101354ce336828d8c05,2025-06-06_20h10.34.010,shape_ratio,2024.1.5,Win32,60.24096386,6842b561977af9ba9b0f87ca,,,,,,,,,,,178.1444,178.6436,,,178.8937,179.1435,left,,,,,,,,0.1,0.2335,,,,,,,178.6436,178.8937,179.1435,"[0.049697063236128276,-0.14882247094669093]",4.0,"[-0.14030214074262992,0.019248189296005334]",4.0,"[0.1647167919434888,-0.060455481967199895]",4.0,"[-0.04539207839103327,0.16001260069758247]",4.0,"[0.0883933189640406,0.17612133044089562]",4.0,"[0.07545841383386641,-0.05497848962652334]",100.0,"[0.13572322606937096,0.07226185586901798]",4.0,"[-0.00962789723108476,-0.1821047978182346]",4.0,"[-0.10721984656616258,-0.10658423795912343]",4.0,"[-0.14693047973257117,-0.13014406768072578]",4.0,"[-0.08457796582115908,0.07905957494045068]",4.0,"[0.17478575093313264,-0.019218352885232295]",4.0,"[0.06365234621140724,0.002787844811610781]",4.0,"[0.14021460052546006,0.0033313679739545047]",4.0,"[0.036061279428794314,-0.027426927240281056]",4.0,"[0.019171254353962493,0.1863850048887091]",4.0,"[-0.11892423840939437,-0.15982856091422507]",4.0,"[-0.011608359739419318,-0.014604615994632081]",4.0,"[-0.1622179090220109,-0.02021402813525223]",4.0,"[-0.0890669924008308,0.16724699395078768]",100.0,"[-0.07090262302853322,-0.08694022774994191]",4.0,"[-0.18270732073262833,0.07163591521394112]",4.0,"[-0.005169267410558131,0.04478594188204666]",4.0,"[-0.14842828872958988,-0.07979956762348818]",4.0,"[0.04342809857836274,0.1324615182048844]",4.0,"[-0.11157757486466902,0.12314709675349274]",4.0,"[-0.04200534642478961,0.0212656752089115]",4.0,"[0.1848972585904474,0.07297702997131088]",4.0,"[-0.0653281280504213,0.11823212952626225]",4.0,"[0.09048177950032153,0.10312150844787919]",4.0,"[-0.10614979030643044,-0.04863123101083663]",100.0,"[0.14921416741931776,0.13026140055827165]",4.0,"[0.02,0.02]",180.2421,0.0,31.0,31.0,188.0,1.0,,,,,,,
,,,,,,,68279a5ab27e06f727e6648e,68439101354ce336828d8c05,2025-06-06_20h10.34.010,shape_ratio,2024.1.5,Win32,60.24096386,6842b561977af9ba9b0f87ca,,,,,,,,,,,180.2425,180.7416,,,180.9917,181.0914,right,,,,,,,,0.55,0.095,,,,,,,180.7416,180.9916,181.0915,"[0.16082687525613745,-0.031484356461769905]",4.0,"[-0.0404403784809436,0.0576607018475819]",100.0,"[-0.08119206949640966,-0.006922553947705632]",100.0,"[-0.12764047202167603,-0.08415091543944987]",4.0,"[0.038511074348351985,0.09735272791512217]",4.0,"[-0.022579897870552517,0.15278348028071753]",100.0,"[-0.1632908559600318,0.04931991204339949]",100.0,"[0.07085103846213155,0.12160667270979951]",100.0,"[0.02985175610111482,0.14978262417755073]",4.0,"[0.01926200224206732,-0.0664699540351521]",100.0,"[-0.05165397589245028,-0.13286358468140907]",4.0,"[0.14382673759462258,0.0903328184570801]",100.0,"[0.10849376282723144,0.03465283976117617]",100.0,"[-0.11493890060814545,0.1539382900799268]",100.0,"[0.0121012010955648,0.19102026639220182]",4.0,"[0.04379357054940161,-0.09920227086656737]",100.0,"[0.17461055128783,-0.08511069298038663]",4.0,"[0.010614017180416083,-0.16495961438827525]",100.0,"[0.06541643480117489,0.04557624342044092]",100.0,"[-0.003709985991927077,-0.11639282728469215]",4.0,"[0.18221836200262076,0.006100770845952915]",100.0,"[0.12901680920485464,0.1521519185935762]",100.0,"[0.010171025911759118,-0.025667195363045275]",4.0,"[-0.02971949924645942,-0.04502022945052802]",4.0,"[0.07389702295795166,-0.03991068026003047]",100.0,"[-0.17999566003583606,-0.011605339333925976]",100.0,"[-0.09587842799602232,0.07097962222577808]",4.0,"[-0.0667947261315812,0.12030840719377715]",4.0,"[0.028570353620636434,0.027434815030255733]",4.0,"[-0.13630038852226437,-0.14037245426008255]",100.0,"[0.008950364688007435,0.0625817800008487]",100.0,"[0.07028127929704105,0.16973550346931546]",4.0,"[0.02,0.02]",182.1902,0.0,32.0,32.0,74.0,1.0,,,,,,,
,,,,,,,68279a5ab27e06f727e6648e,68439101354ce336828d8c05,2025-06-06_20h10.34.010,shape_ratio,2024.1.5,Win32,60.24096386,6842b561977af9ba9b0f87ca,,,,,,,,,,,182.1908,182.6898,,,182.94,183.0064,left,,,,,,,,0.5,0.0583,,,,,,,182.6898,182.9399,183.0065,"[0.18978632196030304,-0.05030950256480137]",100.0,"[-0.05137092405127999,-0.010480787270355518]",4.0,"[0.11592072154680376,0.027261571020887863]",100.0,"[-0.14072064337628054,-0.030798484286858645]",4.0,"[-0.09569295505653785,-0.14167308414784008]",4.0,"[0.04462464758947114,0.17450714926509114]",4.0,"[-0.05553680855671142,0.04400741488291223]",100.0,"[-0.041270780827386305,-0.06680780475711305]",4.0,"[-0.16250317798818226,0.025712311286364826]",4.0,"[0.12292379935552061,-0.020240589106014634]",100.0,"[0.08504888167727295,-0.09224447721269798]",100.0,"[-0.10774254792811247,0.1148160527275842]",4.0,"[0.005021148313712761,-0.07900038726148663]",4.0,"[0.12036697305278796,0.11429147754189707]",4.0,"[0.016573461735398615,-0.14105504873976482]",100.0,"[-0.022116432113008514,0.06619834907866454]",100.0,"[0.19156487972027647,0.04107413624177033]",100.0,"[0.019842719036770373,0.0064889511919692805]",100.0,"[0.19743532602955763,-0.004805646605031021]",100.0,"[-0.11639092206272066,0.03592367634064865]",4.0,"[0.06397882513124839,0.00016197384291956562]",4.0,"[0.08767640422875983,0.14206302885062067]",4.0,"[-0.02322952156029327,0.1535370470896909]",4.0,"[0.05696740828647545,-0.16963710799169804]",100.0,"[-0.19439600704494567,-0.016974625229542444]",4.0,"[0.1506354989065751,-0.0702125321642282]",100.0,"[-0.014573056523716285,-0.168115750001703]",4.0,"[0.026442474986466395,0.07831592417791425]",100.0,"[0.06767338295595247,0.07563118813818082]",100.0,"[-0.01693334398377248,-0.03373923780976477]",100.0,"[-0.06723156963837226,0.10248657782533457]",4.0,"[0.11727595283989437,-0.11759323950170393]",100.0,"[0.02,0.02]",184.1049,0.0,33.0,33.0,119.0,1.0,,,,,,,
,,,,,,,68279a5ab27e06f727e6648e,68439101354ce336828d8c05,2025-06-06_20h10.34.010,shape_ratio,2024.1.5,Win32,60.24096386,6842b561977af9ba9b0f87ca,,,,,,,,,,,184.1053,184.6048,,,184.8553,185.0709,left,,,,,,,,0.9,0.21,,,,,,,184.6048,184.8552,185.0709,"[0.03338922137582909,0.040270999650087846]",100.0,"[0.06354044907174117,-0.1685778300485121]",100.0,"[0.08619132971620737,0.1798555072343733]",100.0,"[0.07532473445673808,-0.08478177179838332]",100.0,"[-0.10077857063729767,0.00039102047404535284]",100.0,"[0.01626625515164632,0.15069939984881975]",100.0,"[-0.039671992117067616,-0.18092572589076966]",100.0,"[0.15771906287890164,0.002237076450900751]",100.0,"[-0.06195379092315747,-0.02258885253847808]",100.0,"[-0.08034365353049543,-0.11472643120065378]",100.0,"[0.1666800582822699,-0.10623630493340838]",100.0,"[-0.09973066407048657,0.13409846360747052]",100.0,"[0.14583087723492444,0.08883391071620383]",100.0,"[-0.1231560399751918,-0.128027113095538]",100.0,"[-0.1407619182100092,-0.08300106443443152]",100.0,"[-0.036651260067586275,-0.08508018785693805]",100.0,"[0.007436161428956443,-0.037631467624022634]",100.0,"[0.0746644333407855,0.08286002470782441]",100.0,"[0.044458256598911956,-0.1284098089194148]",100.0,"[-0.08105091361901996,0.06820798956279982]",100.0,"[-0.08070235795319057,-0.17549602961544009]",100.0,"[-0.012462955915165221,0.1883478902848604]",100.0,"[-0.006468899460216125,0.004899761075022713]",100.0,"[-0.15332838576472427,0.1135285561315601]",100.0,"[0.12668168072983457,0.03749450475323575]",100.0,"[0.009838571535648013,-0.16798967994624794]",4.0,"[0.009567582500054286,0.1071395036204159]",100.0,"[0.11464916148343238,0.11449057470603878]",100.0,"[-0.028689467739418217,0.07119082282235621]",100.0,"[0.07787440181767807,-0.01914233055497071]",4.0,"[-0.16904569534101102,0.03554754980531247]",100.0,"[-0.17432581593476026,-0.05287410878681108]",4.0,"[0.02,0.02]",186.1696,0.0,34.0,34.0,25.0,1.0,,,,,,,
,,,,,,,68279a5ab27e06f727e6648e,68439101354ce336828d8c05,2025-06-06_20h10.34.010,shape_ratio,2024.1.5,Win32,60.24096386,6842b561977af9ba9b0f87ca,,,,,,,,,,,186.17,186.6693,,,186.9196,186.9359,right,,,,,,,,0.45,0.0047,,,,,,,186.6694,186.9196,186.936,"[-0.06331571226697469,-0.12549662791412092]",4.0,"[0.18091638007266267,0.03734640244425352]",4.0,"[-0.18767862461423868,-0.06779038708129415]",4.0,"[-0.10765549235236752,-0.15499070271434023]",4.0,"[-0.018733054762760805,-0.09221221300300937]",4.0,"[0.07087945380069094,0.025494558036652914]",100.0,"[-0.19303811808782667,0.04567961089153058]",100.0,"[-0.1100191922599132,0.10824640515496999]",100.0,"[-0.08471208598030455,0.053259896222213596]",100.0,"[-0.14557160436113514,-0.041397487605506475]",4.0,"[-0.1253158478148524,-0.10056855977383283]",4.0,"[0.030535774372929633,-0.08063910029959645]",4.0,"[0.08234488256747595,0.11348998404731706]",4.0,"[-0.1793142201484733,0.005440831130620152]",4.0,"[0.06910469808394859,0.1668015202892789]",4.0,"[-0.05510249315341543,-0.057067056207368204]",4.0,"[0.14177199932276635,0.08826049433712463]",100.0,"[-0.03204048434699193,0.03498345205382811]",100.0,"[0.14374480655324978,-0.005918867965246253]",100.0,"[0.018520351870417392,0.13478312821307853]",100.0,"[-0.030709792372489973,-0.15919370961485954]",100.0,"[0.14496399730782614,-0.054980534250544943]",100.0,"[-0.07563402645165095,0.007725941572924958]",100.0,"[0.10943413454541885,-0.09252042991902287]",100.0,"[-0.12852790545069326,0.042093675301228095]",100.0,"[-0.021593735251032944,-0.005072510487582186]",4.0,"[0.08966314000245121,-0.17363056900771584]",100.0,"[0.012191268294481892,0.18611061897969822]",4.0,"[0.06521688605831844,-0.11041188447817832]",4.0,"[-0.10200517727647626,0.14980344597960762]",4.0,"[-0.01736892177744286,0.076681063204835]",4.0,"[0.06656296622117025,-0.017658670810434846]",4.0,"[0.02,0.02]",188.0345,0.0,35.0,35.0,135.0,1.0,,,,,,,
,,,,,,,68279a5ab27e06f727e6648e,68439101354ce336828d8c05,2025-06-06_20h10.34.010,shape_ratio,2024.1.5,Win32,60.24096386,6842b561977af9ba9b0f87ca,,,,,,,,,,,188.035,188.5341,,,188.7842,188.9504,left,,,,,,,,0.4,0.1501,,,,,,,188.5341,188.7842,188.9504,"[0.17658226327482357,0.0010036502826194504]",100.0,"[0.001753598949591257,-0.07548278529065582]",4.0,"[0.05550719637203927,0.03468530479756493]",4.0,"[-0.12298841252979613,0.11762520419221993]",4.0,"[0.140409101058945,-0.05558891688865354]",100.0,"[-0.1867355512181239,0.044845260800347994]",100.0,"[0.05587754618038088,-0.1426053163959368]",4.0,"[-0.17214039389639782,0.09627833362114302]",4.0,"[-0.007268190646845075,0.004375521490007885]",100.0,"[0.022028293577290275,0.1807899732634369]",4.0,"[-0.013082817771101615,-0.14077709862274573]",4.0,"[-0.04023898097432173,0.05497284563038276]",100.0,"[-0.080726354004457,-0.05470960291124826]",4.0,"[-0.045441104651646705,-0.17479435960985637]",100.0,"[0.1092719831594721,-0.02650413055457907]",4.0,"[0.12880245681591984,0.055595035166596744]",4.0,"[0.052907406549338384,-0.19081238003784684]",100.0,"[0.12020824902346602,-0.1266000472030874]",4.0,"[0.1508088524253226,0.1303189017674203]",4.0,"[-0.04749664236592893,0.18306848587822983]",100.0,"[-0.09208914738963275,0.0027994270144944275]",100.0,"[0.07783647773384786,0.08092885298413104]",4.0,"[-0.09390807327869402,0.15445235756552358]",4.0,"[-0.19492075599027708,-0.039960133253935014]",100.0,"[-0.13616995311818092,-0.12326748198704011]",100.0,"[-0.052835523260445535,-0.12237492949117197]",4.0,"[0.0598216910356293,0.11812785840746852]",4.0,"[0.10009635981839667,0.17146406795934951]",100.0,"[0.008823429377667062,0.07521628943296217]",4.0,"[-0.05115442738242304,-0.0817095031574892]",4.0,"[0.164227165709919,0.09031103673693108]",4.0,"[0.06662159579806382,-0.09959614560364288]",100.0,"[0.02,0.02]",190.0491,0.0,36.0,36.0,154.0,1.0,,,,,,,
,,,,,,,68279a5ab27e06f727e6648e,68439101354ce336828d8c05,2025-06-06_20h10.34.010,shape_ratio,2024.1.5,Win32,60.24096386,6842b561977af9ba9b0f87ca,,,,,,,,,,,190.0499,190.549,,,190.7988,190.8817,left,,,,,,,,0.6,0.0663,,,,,,,190.549,190.7988,190.8818,"[-0.17182276561546714,-0.0166573237463099]",100.0,"[-0.0072309601991429415,0.13676817844185654]",100.0,"[0.09712647157832913,-0.0010169598287872487]",100.0,"[0.14849936570848796,0.12230929092039414]",4.0,"[0.15717297172501554,0.07610383701434269]",4.0,"[0.08306062058047581,0.12916557590190444]",4.0,"[-0.08184913502893323,-0.151031400684401]",100.0,"[0.03684449395991197,-0.19548261883577883]",4.0,"[-0.09091628828440823,-0.10648974940281979]",4.0,"[-0.15441311152728776,0.11578452778486997]",100.0,"[-0.0971246021647299,-0.0029554024815377344]",4.0,"[-0.1251324840303247,-0.1435743428073234]",100.0,"[-0.1504326414500475,-0.05187825582456998]",100.0,"[0.05448378381955822,-0.05070443351087301]",100.0,"[0.007655294913506778,0.08190860865583732]",100.0,"[0.18307122618437302,-0.06601168504890793]",4.0,"[0.1107463347483831,-0.04322575581921017]",100.0,"[0.08428722002731093,0.16949157221118097]",100.0,"[0.06814781898236907,0.03305878793269808]",100.0,"[0.14310200701407355,0.0025307580980385037]",4.0,"[-0.024649122159726145,-0.1589397890927405]",4.0,"[-0.04297869004119971,-0.05295697322455414]",100.0,"[0.013719394520226452,-0.13467056826208149]",4.0,"[-0.024787132875392776,-0.10973934791097512]",100.0,"[0.004873769297120944,0.0035057721086182944]",100.0,"[-0.09180839702612262,0.15807571072172824]",100.0,"[-0.10011068693319201,0.08789707334907494]",4.0,"[-0.16776955702196406,0.04471366517798442]",100.0,"[0.10769572417050426,-0.14058846850749687]",4.0,"[-0.09144259196710666,-0.06363302541473327]",4.0,"[-0.058954211035154615,0.18603615781500765]",100.0,"[-0.057317065830370044,0.09600041280962752]",100.0,"[0.02,0.02]",191.9805,0.0,37.0,37.0,44.0,1.0,,,,,,,
,,,,,,,68279a5ab27e06f727e6648e,68439101354ce336828d8c05,2025-06-06_20h10.34.010,shape_ratio,2024.1.5,Win32,60.24096386,6842b561977af9ba9b0f87ca,,,,,,,,,,,191.9809,192.4801,,,192.7304,192.9131,right,,,,,,,,0.55,0.1782,,,,,,,192.4801,192.7303,192.9133,"[0.027161188480022587,-0.156976015680585]",4.0,"[-0.06102863219863575,0.00257769756045125]",100.0,"[0.04550040292395567,0.07349314729692198]",4.0,"[0.10458556600219587,-0.1485697827669149]",4.0,"[0.14545457757585797,0.12912814061331615]",100.0,"[-0.10412954023092946,-0.016098462116054587]",4.0,"[0.10224969441777834,0.06906400267139476]",100.0,"[-0.1043373039444434,0.10596481499793305]",100.0,"[-0.018283232351526593,-0.18850414124483392]",100.0,"[0.07069223295669616,-0.08161600437088425]",100.0,"[0.17778340970511705,-0.08667883495222457]",100.0,"[0.0020538731216425406,-0.03467968569231666]",100.0,"[-0.062133497021643246,0.13370538330395276]",100.0,"[0.013484911380786167,0.14629915223318762]",4.0,"[-0.15514168707991632,-0.09016311965332041]",4.0,"[0.18158435481549734,0.0036772777778629204]",100.0,"[-0.19089188847278551,-0.04720838813864903]",100.0,"[0.03345423249883109,-0.10901532346503914]",4.0,"[0.059380090578404744,-0.0056648028506941445]",100.0,"[-0.09775965751463662,0.03729310887817494]",4.0,"[-0.15367352306910292,0.0238049537115756]",4.0,"[-0.09073970861368627,-0.15895447222469683]",100.0,"[-0.17204489154372538,0.09583090951115932]",4.0,"[0.10785133697142764,-0.044171534347477004]",100.0,"[0.11961457841046873,-0.005280603471528887]",4.0,"[-0.11953520186323839,-0.07116859492066892]",4.0,"[0.0928137220314051,0.1553937790790539]",4.0,"[-0.0370102947313526,0.0391218431526481]",100.0,"[-0.0705376649777055,-0.0649431883441299]",100.0,"[-0.05862946048716879,0.18015919766510508]",100.0,"[-0.15133204672535652,-0.018358979169651714]",4.0,"[0.045883373254104215,0.12249111866368984]",100.0,"[0.02,0.02]",194.012,0.0,38.0,38.0,84.0,1.0,,,,,,,
,,,,,,,68279a5ab27e06f727e6648e,68439101354ce336828d8c05,2025-06-06_20h10.34.010,shape_ratio,2024.1.5,Win32,60.24096386,6842b561977af9ba9b0f87ca,,,,,,,,,,,194.0124,194.5114,,,194.762,195.6109,left,,,,,,,,0.45,0.8431,,,,,,,194.5115,194.7619,195.6109,"[-0.1496044061356108,-0.009267645257784455]",100.0,"[0.13036146119617625,0.10885927613014713]",100.0,"[0.011748251905553411,0.04606619714336413]",100.0,"[-0.020461150929403468,0.07410845225010253]",100.0,"[0.14743302110666462,0.03185386475323369]",4.0,"[0.005270982370337296,-0.1830287956681422]",100.0,"[0.15133492888224664,-0.03198151791164495]",4.0,"[-0.08384859219385145,-0.13756476433306905]",4.0,"[-0.1779658131744518,-0.07414597271527437]",4.0,"[0.007562552443070687,0.10390398174358566]",4.0,"[0.05564583084012118,-0.016035562812868227]",100.0,"[0.10332498796604558,-0.018459861418195483]",4.0,"[-0.15109764551114194,0.10812884000991009]",100.0,"[-0.10188595105298841,0.11605136007587519]",4.0,"[0.0696052461726704,0.14696505261852805]",100.0,"[0.141906370624462,-0.09315502734463132]",4.0,"[0.07997340494259716,-0.13126563577810205]",4.0,"[0.17298785742500258,0.07566861224236927]",100.0,"[0.027519086640409956,0.1850521373798941]",100.0,"[-0.03548345285623616,0.11234614659383138]",4.0,"[-0.18565909019272844,0.07113874936598047]",100.0,"[-0.08831165053360994,0.06938739441145363]",100.0,"[0.06809308765437685,-0.06842774140174122]",4.0,"[-0.0659990516852178,-0.08884132755042545]",4.0,"[-0.04654393918248115,-0.02648407036836159]",4.0,"[-0.09601091768629531,0.013857072649276277]",100.0,"[0.026905439925603934,-0.12697901182299887]",4.0,"[-0.015951033228724,-0.11107139499085385]",4.0,"[-0.13821144229382662,-0.11386403467821235]",4.0,"[-0.11248909976491439,-0.027595294024851145]",100.0,"[0.0082378996368757,0.1490673576320336]",4.0,"[0.08835629402446958,0.03817528327316401]",4.0,"[0.02,0.02]",196.7095,0.0,39.0,39.0,133.0,1.0,,,,,,,
,,,,,,,68279a5ab27e06f727e6648e,68439101354ce336828d8c05,2025-06-06_20h10.34.010,shape_ratio,2024.1.5,Win32,60.24096386,6842b561977af9ba9b0f87ca,,,,,,,,,,,196.7103,197.2094,,,197.4617,197.6765,right,,,,,,,,0.5,0.1928,,,,,,,197.2095,197.4617,197.6766,"[-0.1766490439902411,0.09288136311675232]",100.0,"[0.029573381709473292,-0.15762950885803984]",4.0,"[0.09761966330859694,-0.11189080153493497]",4.0,"[0.1238659395429957,0.12043159138879285]",100.0,"[-0.10386674586720059,0.13869846479260278]",100.0,"[-0.06049304020347199,-0.011591728360136097]",100.0,"[0.1521580264890379,-0.011264193595466666]",4.0,"[-0.008820719431027677,0.049550592697458484]",100.0,"[-0.07633166994461636,-0.17505996401993332]",100.0,"[-0.0635563351031058,0.035354760338733124]",4.0,"[0.04941632426968034,0.07483749684083629]",4.0,"[0.09631878634494148,-0.0320358805227576]",4.0,"[0.16242444970011136,0.040930210083790705]",4.0,"[0.04765079322839116,0.021197562462476224]",100.0,"[-0.12559177728335488,-0.13502519435114482]",4.0,"[-0.11405557662058496,-0.03779901300664277]",100.0,"[-0.12748493781967296,0.01587887459537887]",4.0,"[0.09004132063484907,-0.15617503247847395]",4.0,"[0.0035016511434624855,-0.09379420701409068]",100.0,"[0.03639489489512657,0.13348559542302518]",4.0,"[-0.0019546159299730246,-0.024374235018626914]",4.0,"[0.1064693346805754,-0.07255445982300013]",100.0,"[0.010586582991336285,0.17700618378839209]",100.0,"[-0.15312249138380432,0.06044108060826751]",4.0,"[0.17856788734205378,-0.07750962320143903]",100.0,"[-0.039154718108677294,-0.19082963614699472]",4.0,"[-0.18325607480987033,0.01686177346855589]",100.0,"[-0.06777932470483727,-0.051320200361197464]",4.0,"[0.15333314979460394,-0.1156325144988533]",100.0,"[-0.15858514240095117,-0.09144802147678423]",100.0,"[-0.03824561577131515,-0.11970809772644962]",4.0,"[-0.016186271705617334,0.14100532679759412]",100.0,"[0.02,0.02]",198.7757,0.0,40.0,40.0,100.0,1.0,,,,,,,
,,,,,,,68279a5ab27e06f727e6648e,68439101354ce336828d8c05,2025-06-06_20h10.34.010,shape_ratio,2024.1.5,Win32,60.24096386,6842b561977af9ba9b0f87ca,,,,,,,,,,,198.776,199.2735,,,199.5254,199.5572,left,,,,,,,,0.6,0.0096,,,,,,,199.274,199.5254,199.5577,"[-0.029299238106788635,-0.12194798176522927]",100.0,"[-0.10190563809532473,-0.052284853389743535]",4.0,"[-0.012096714264542596,-0.0625520153990798]",100.0,"[-0.18727850196730692,-0.021561505485550515]",4.0,"[0.05811538397404469,-0.025498645868121256]",4.0,"[-0.08243685565844132,0.12434287991476219]",4.0,"[0.0442450655465291,0.049824544191105546]",4.0,"[0.12027560262609358,-0.03835361511526256]",100.0,"[0.024526341605079098,0.19028351143697897]",100.0,"[-0.1102858144008214,0.07227307993120494]",4.0,"[-0.018234990728994097,0.17667905464344863]",100.0,"[-0.09887800916560827,-0.14068602265322042]",100.0,"[-0.018844864108416605,-0.0210272275808189]",100.0,"[0.0032846656252816446,0.13793640582384084]",100.0,"[-0.009097594680316743,0.0939561779846237]",100.0,"[0.02152245042048124,-0.11440226003622976]",100.0,"[-0.1412316738848071,-0.06692207956755218]",100.0,"[0.04719917882511626,0.09056398760973904]",100.0,"[0.09015413691026672,0.09620093424039777]",4.0,"[-0.19100078615292915,0.0512603931887]",100.0,"[-0.028358194430867296,0.042627206477753726]",100.0,"[-0.05833439727534352,0.08428984553886913]",4.0,"[0.0792874125952772,-0.07750339539008742]",4.0,"[-0.01718038473972734,-0.1948882310243028]",100.0,"[-0.06993133549697905,0.018807318927806783]",4.0,"[-0.051811362876666676,-0.05294298979788095]",4.0,"[0.12073060908467317,0.15191588117968768]",100.0,"[-0.09228414209521928,-0.09884145826060224]",4.0,"[0.1706251857091293,0.0988540854192785]",4.0,"[-0.12751420005349687,0.03062121595978219]",100.0,"[0.1155448906832992,-0.11348844189407647]",100.0,"[0.1646215912135934,-0.11092266602378845]",100.0,"[0.02,0.02]",200.6564,0.0,41.0,41.0,46.0,1.0,,,,,,,
,,,,,,,68279a5ab27e06f727e6648e,68439101354ce336828d8c05,2025-06-06_20h10.34.010,shape_ratio,2024.1.5,Win32,60.24096386,6842b561977af9ba9b0f87ca,,,,,,,,,,,200.657,201.1548,,,201.4073,201.4907,left,,,,,,,,0.9,0.0667,,,,,,,201.1551,201.4073,201.4907,"[-0.09077794714195772,-0.011644017891435725]",100.0,"[-0.02789715743750713,0.09616641373437632]",100.0,"[0.11587632092108552,0.06286021101386727]",100.0,"[0.10394681635581965,-0.02559912136736445]",100.0,"[0.04656740847433451,0.06288953502132631]",100.0,"[0.04642199721392239,-0.1770558067648615]",100.0,"[-0.12308792218855305,-0.07067266259513554]",100.0,"[-0.044993480633428465,-0.006639855686714787]",100.0,"[-0.0005890954467960784,-0.10436269255614081]",4.0,"[0.06602197609459735,-0.04806468365541482]",100.0,"[0.0007041813978583275,0.17349258862720313]",100.0,"[-0.08344791192773252,0.17256648982325315]",100.0,"[0.15843201904508494,-0.08310038599027081]",100.0,"[-0.1401020510398959,0.1383343339897973]",100.0,"[-0.18033610256516525,-0.058798145307666014]",100.0,"[-0.17245199188582488,0.03192576281860075]",100.0,"[0.15448252452914818,0.09768914341367055]",100.0,"[0.037808919199820136,0.1120636150704017]",100.0,"[-0.10343879657960126,0.08610983915698733]",4.0,"[-0.03514966217999609,-0.0642993670721604]",100.0,"[0.11319711282824292,-0.08937708722007097]",4.0,"[0.11127472209831059,-0.14393156834853138]",100.0,"[0.14236738040178387,0.02289325224900184]",100.0,"[-0.019761572656275535,-0.14973275848585182]",100.0,"[-0.09431316479668624,-0.12432586209006348]",100.0,"[0.14815784651322378,-0.04035580345189196]",100.0,"[-0.0721123957936072,0.03568435539640161]",100.0,"[-0.1407357769941394,-0.0009292984968737888]",100.0,"[-0.06720596967745908,-0.1801858974541284]",100.0,"[-0.1572960326629238,-0.0963532289586541]",100.0,"[0.025651883795355095,-0.02383711438994909]",100.0,"[0.09842004420894251,0.11112852234450654]",100.0,"[0.02,0.02]",202.5882,0.0,42.0,42.0,15.0,1.0,,,,,,,
,,,,,,,68279a5ab27e06f727e6648e,68439101354ce336828d8c05,2025-06-06_20h10.34.010,shape_ratio,2024.1.5,Win32,60.24096386,6842b561977af9ba9b0f87ca,,,,,,,,,,,202.5886,203.0864,,,203.3392,204.2699,right,,,,,,,,0.55,0.9102,,,,,,,203.0865,203.3392,204.2699,"[-0.07410419728095027,-0.05864217429528497]",4.0,"[-0.08967973273949324,0.0033885380746234497]",100.0,"[-0.026794768566816188,0.10579043374877]",100.0,"[0.025709160206544773,-0.003822003085189635]",100.0,"[-0.10774258406817634,-0.03290089906909838]",100.0,"[0.0062778728883460125,0.17884862832716722]",100.0,"[0.03843647274368225,0.13645410858631568]",4.0,"[0.0069901028475550415,-0.0786370721013039]",100.0,"[0.14666927701884694,-0.12404922636596119]",4.0,"[-0.14486126311522612,0.07966757528980328]",100.0,"[0.14926048987424317,-0.03230272170666977]",4.0,"[0.1829206694369571,-0.007005391657437584]",100.0,"[0.07409045473642417,-0.05841029850843572]",100.0,"[-0.052679928966416815,-0.12252225391793799]",100.0,"[0.10941440363893697,0.050109720611110166]",4.0,"[-0.031416346400504606,-0.020083182513760785]",4.0,"[-0.1305194986304683,-0.09741490137448565]",100.0,"[-0.09297414416039637,-0.13310846871283294]",100.0,"[0.11958444216687548,0.11548238029885886]",100.0,"[-0.1695357900758096,-0.05925272239030074]",4.0,"[0.0401173032449908,-0.17736865883895475]",4.0,"[-0.03663635752428345,0.16030047115194604]",4.0,"[-0.14696775228558226,0.0005469134080436482]",4.0,"[-0.08790843969348798,0.07691135530787616]",100.0,"[-0.021749204351225866,-0.19119968088447967]",100.0,"[0.0604902703992791,-0.10899785287343577]",4.0,"[0.0869326393041492,-0.017285741518759338]",100.0,"[0.0714897914935728,0.18222355103946894]",4.0,"[-0.016519919111386817,0.03732234180106103]",100.0,"[0.07958273353174024,0.10370702488620154]",4.0,"[0.1770578609155719,0.08530699614291463]",100.0,"[-0.11176007231599733,0.04350978882896374]",4.0,"[0.02,0.02]",205.3673,0.0,43.0,43.0,81.0,1.0,,,,,,,
,,,,,,,68279a5ab27e06f727e6648e,68439101354ce336828d8c05,2025-06-06_20h10.34.010,shape_ratio,2024.1.5,Win32,60.24096386,6842b561977af9ba9b0f87ca,,,,,,,,,,,205.3687,205.8674,,,206.1188,206.185,left,,,,,,,,0.4,0.0355,,,,,,,205.8675,206.1187,206.1851,"[-0.11534459955628458,-0.16098495412342415]",4.0,"[-0.10530732234688428,-0.041103457980862255]",100.0,"[0.06220963787526584,0.17108989039785902]",100.0,"[-0.09105066373748104,0.07081936177922453]",4.0,"[-0.04207391841525918,-0.12784279898170345]",100.0,"[-0.018770219998102546,0.07876788732827569]",100.0,"[-0.0036156975284033013,-0.019388236135026583]",4.0,"[0.16134289081591582,-0.07295410121823069]",100.0,"[0.06434376614319699,0.0135023842079683]",100.0,"[0.12393710740288112,0.10096329207762292]",100.0,"[0.013110588731603421,0.1536626170498776]",100.0,"[-0.15700567498862844,-0.03759850196389023]",4.0,"[0.17806557635338127,0.05789387811620588]",4.0,"[0.10548062096787164,-0.12240448658582981]",4.0,"[-0.007349269507998139,-0.1594508329595276]",4.0,"[0.17716372468045335,-0.03164220078827985]",4.0,"[0.13501808728209602,0.03729666851961952]",100.0,"[-0.04428923187731951,-0.06494465117659909]",100.0,"[-0.0244879394861458,0.0285722248961854]",4.0,"[0.11270242719750607,0.14859606234271946]",4.0,"[-0.04348065955833179,0.1422724767792705]",4.0,"[0.07395670049294091,-0.15036100085815185]",4.0,"[-0.10532987514642289,0.013423293785393838]",4.0,"[0.08694213344930582,0.11650022740627818]",4.0,"[0.08781883213505695,-0.0702352858614383]",100.0,"[-0.17852128581333646,0.026616258396636616]",4.0,"[-0.09920719152465828,0.1437069433669981]",4.0,"[0.039841838861304275,0.09932741865557679]",4.0,"[0.05489205158541145,0.057966710028774876]",4.0,"[-0.02316258897441318,0.18679928568394297]",100.0,"[0.03903101535819119,-0.19142550440351289]",100.0,"[-0.12761318159337326,-0.12240331840405677]",4.0,"[0.02,0.02]",207.2823,0.0,44.0,44.0,158.0,1.0,,,,,,,
,,,,,,,68279a5ab27e06f727e6648e,68439101354ce336828d8c05,2025-06-06_20h10.34.010,shape_ratio,2024.1.5,Win32,60.24096386,6842b561977af9ba9b0f87ca,,,,,,,,,,,207.2835,207.7821,,,208.0348,208.1335,left,,,,,,,,0.45,0.0827,,,,,,,207.7823,208.0347,208.1336,"[-0.055641262035368955,0.10981601545739297]",4.0,"[-0.07728331454963598,-0.04673470469864327]",4.0,"[0.15422860734729443,-0.04144826757510249]",4.0,"[0.056680413737630685,-0.1665928181261185]",100.0,"[0.059362813229661145,-0.03788700963185579]",100.0,"[-0.07864290597771288,-0.16023191932184744]",100.0,"[-0.13264641809346492,-0.018476395631360186]",4.0,"[0.08704304797288427,-0.10960053134929193]",100.0,"[-0.18835240962348726,-0.04344576562089692]",4.0,"[0.08897887893528166,0.14016575877205234]",4.0,"[-0.15986331959173622,0.011931283718422144]",100.0,"[0.1361534716719649,-0.1104761251548679]",4.0,"[-0.014019506764030411,0.12043336737609645]",100.0,"[0.04165288877359875,0.021638724405914786]",4.0,"[0.009921469865952036,-0.08556430148881661]",4.0,"[-0.1421660462072807,0.09095796977182628]",4.0,"[-0.010390186830241505,-0.010130597864038143]",4.0,"[0.1040012468182184,0.04783675302650955]",4.0,"[-0.11700400454170744,0.14521309880343225]",100.0,"[0.048725382042708015,0.14873918894694618]",4.0,"[0.16570559818009953,0.003296987584347561]",100.0,"[-0.15631617409507018,-0.11163099164261428]",4.0,"[-0.033277532833251765,0.06669621411320303]",4.0,"[0.14660207838093126,0.04468850156259699]",100.0,"[-0.005290844845267605,0.1612391161753783]",100.0,"[-0.0790796614228623,0.06932113821523783]",100.0,"[0.08274596814850958,-0.00019599223530177644]",100.0,"[-0.02450179495077434,-0.18894356533765794]",4.0,"[-0.0893948942310845,-0.0979602048289239]",100.0,"[-0.029292836921557333,-0.1006313400121931]",100.0,"[0.04945580726406026,0.07809989356215394]",4.0,"[-0.09722340101415698,0.002008896263132378]",4.0,"[0.02,0.02]",209.2303,0.0,45.0,45.0,140.0,1.0,,,,,,,
,,,,,,,68279a5ab27e06f727e6648e,68439101354ce336828d8c05,2025-06-06_20h10.34.010,shape_ratio,2024.1.5,Win32,60.24096386,6842b561977af9ba9b0f87ca,,,,,,,,,,,209.2314,209.7316,,,209.9826,210.3325,left,,,,,,,,0.5,0.3336,,,,,,,209.7316,209.9825,210.3325,"[0.06667529919651419,-0.007453809787602336]",4.0,"[0.012783723999816081,0.07860467964444821]",4.0,"[0.052730611320509616,-0.0935131281912626]",4.0,"[0.049619598286220305,0.038515223864778694]",100.0,"[-0.11382903897864653,0.06101464715814622]",4.0,"[-0.15309500139957163,-0.06902819400172672]",4.0,"[0.14142483847674228,-0.0413642025000859]",100.0,"[0.002818052379602615,0.1494405043617662]",100.0,"[-0.04449594139602291,0.08004127931984205]",4.0,"[-0.029409241721934022,0.17674215529030898]",100.0,"[0.08110060430778694,-0.16777029861487325]",4.0,"[0.012189806911573236,-0.15217790901495107]",4.0,"[-0.038589656235494596,-0.09667000132427653]",4.0,"[0.009134207386443691,0.19957026229506875]",4.0,"[0.10359289437181654,0.14426984530103082]",4.0,"[-0.10669438139406927,-0.040804872538260824]",100.0,"[0.11915476541557735,0.026356592657147435]",100.0,"[-0.19863761190821297,-0.0013616124974057402]",100.0,"[0.1398409123533136,-0.14160587913498016]",100.0,"[-0.1329603226415328,0.011514534839684492]",4.0,"[-0.0526707068152441,0.010803646346300147]",100.0,"[0.0029079482387430263,-0.0396004853220098]",100.0,"[0.17580072715116413,-0.07213323750598356]",100.0,"[0.18124139414015059,-0.019919718629873587]",4.0,"[-0.09374617788752199,-0.08941895645314342]",100.0,"[-0.09131226126912328,0.12939828076129056]",100.0,"[0.05447896923711687,0.13694894645539502]",4.0,"[0.1446923059465407,0.07360575872851251]",100.0,"[-0.05155612200866841,-0.17512548885763607]",100.0,"[0.002348745184845678,0.02160642958970175]",4.0,"[0.12718794325799868,0.110675440230841]",100.0,"[-0.17927286305250636,0.08408793245638894]",4.0,"[0.02,0.02]",211.4281,0.0,46.0,46.0,109.0,1.0,,,,,,,
,,,,,,,68279a5ab27e06f727e6648e,68439101354ce336828d8c05,2025-06-06_20h10.34.010,shape_ratio,2024.1.5,Win32,60.24096386,6842b561977af9ba9b0f87ca,,,,,,,,,,,211.4293,211.9299,,,212.1789,212.2784,right,,,,,,,,0.1,0.0775,,,,,,,211.9299,212.1789,212.2785,"[0.05254950210743102,-0.1735671077660157]",4.0,"[0.0876744037517001,0.10413321831798565]",100.0,"[0.13136083412132285,-0.11332052800076194]",4.0,"[0.14039181855252594,0.021017071821664048]",4.0,"[0.18286335745617374,0.08090472076069653]",4.0,"[-0.04513906197457348,-0.12731503714313183]",4.0,"[0.028202826980136275,0.14159450598587914]",4.0,"[-0.08949840620761575,0.01994652079202801]",4.0,"[0.006924183717316045,-0.05976113627097842]",4.0,"[-0.16851459217153542,-0.09923363363763037]",4.0,"[0.1289015676260147,-0.04469626673098192]",4.0,"[0.05908641306886145,0.06301420694663364]",4.0,"[0.11842177786016109,0.1315437997766789]",4.0,"[-0.1076104934951885,-0.07128418087643025]",4.0,"[-0.07242647317010362,0.11921902421373765]",4.0,"[-0.16290517853225558,0.05197325022698045]",4.0,"[-0.19682163281916787,-0.0034360917474608663]",4.0,"[0.032312056177656055,0.023611982644458428]",4.0,"[-0.12646030883558773,0.14048312861908424]",100.0,"[0.17807854070649584,-0.020093329347464606]",4.0,"[-0.018237771276585317,0.07665397087363679]",4.0,"[-0.11966753228049608,-0.028682410805121416]",4.0,"[-0.08947688479269462,-0.14950474356750293]",4.0,"[-0.16634992938132126,0.09715403413235851]",4.0,"[-0.10655770920993432,0.0810929526594973]",4.0,"[-0.1584747853391039,-0.0508014849234114]",100.0,"[-0.052213957076085345,-0.19189313647249545]",4.0,"[-0.05163010763230629,-0.06499445739365928]",4.0,"[0.048203440044386224,-0.1101945649081513]",4.0,"[0.07737844661388864,0.18309308140343822]",4.0,"[-0.012393761374678082,0.18500798967827742]",4.0,"[0.005117201141691098,-0.15987919838665196]",4.0,"[0.02,0.02]",213.3764,0.0,47.0,47.0,209.0,1.0,,,,,,,
,,,,,,,68279a5ab27e06f727e6648e,68439101354ce336828d8c05,2025-06-06_20h10.34.010,shape_ratio,2024.1.5,Win32,60.24096386,6842b561977af9ba9b0f87ca,,,,,,,,,,,213.3775,213.8776,,,214.1276,214.3268,left,,,,,,,,0.4,0.1791,,,,,,,213.8777,214.1276,214.3268,"[-0.05031899187341609,-0.045379480897727795]",4.0,"[0.03283602238744211,0.17675069669148763]",4.0,"[-0.08053756120974861,0.0698703103150187]",4.0,"[-0.0727928241214386,-0.17141485957761732]",100.0,"[-0.08107635603836597,0.1509586224459779]",100.0,"[0.08884363551349338,0.007520677275638228]",4.0,"[-0.0021956966551255432,0.12224207400406349]",100.0,"[0.04066489568280495,0.12447564878652224]",4.0,"[-0.11902889825832823,-0.04049289850518663]",100.0,"[0.0900966195753366,-0.11153036551607459]",4.0,"[0.04500690347180535,-0.1294244794447554]",100.0,"[0.0034332382756584474,-0.04361031090723875]",100.0,"[-0.11467102275015854,0.11682039316405773]",100.0,"[0.14294045617281131,-0.04474166165646918]",4.0,"[0.0870245028391816,-0.05786046823685403]",100.0,"[0.13028869389538503,0.0668654281122986]",4.0,"[-0.18696956307344928,-0.017350926250143332]",100.0,"[-0.0047666217927707,-0.1429511388475611]",4.0,"[0.13380657524525064,0.0007471851884510473]",4.0,"[-0.018435041730240062,0.08018344903119119]",4.0,"[0.048397595196271515,-0.004258338829339954]",4.0,"[-0.1356569194795224,-0.09367502130601806]",4.0,"[-0.09456570437882048,-0.0956676030861222]",100.0,"[0.1780204282421994,0.0013115914302128029]",4.0,"[0.10406538029603618,-0.16792438382764624]",100.0,"[-0.05983070529400696,0.023424216349538667]",4.0,"[-0.01704707454501742,0.1800055651914776]",4.0,"[-0.12846930672139853,0.026201446501419017]",4.0,"[0.11104255126163978,0.1379113944303745]",4.0,"[-0.15031011857231225,0.06964318754738286]",100.0,"[0.07761251958322055,0.18156325365938925]",4.0,"[0.08723701775162124,0.050822632043354715]",100.0,"[0.02,0.02]",215.4242,0.0,48.0,48.0,151.0,1.0,,,,,,,
,,,,,,,68279a5ab27e06f727e6648e,68439101354ce336828d8c05,2025-06-06_20h10.34.010,shape_ratio,2024.1.5,Win32,60.24096386,6842b561977af9ba9b0f87ca,,,,,,,,,,,215.4254,215.9236,,,216.1752,216.2604,left,,,,,,,,0.6,0.0672,,,,,,,215.9236,216.1751,216.2604,"[-0.006951657028266029,0.0029374634883299207]",4.0,"[0.07339942385955164,0.06479313126034844]",4.0,"[0.0035067169518041004,-0.05577748136908704]",100.0,"[0.17260213978464153,-0.02879385655096969]",4.0,"[-0.09289350223797971,0.08506199622420116]",4.0,"[-0.08634821545192967,-0.16636064447700633]",100.0,"[0.005376019500849953,0.08936076225273462]",100.0,"[-0.022778628858777357,-0.1142501001476536]",4.0,"[0.07308633841315343,0.16372894917073288]",4.0,"[0.08999380241693543,0.11716267635567743]",100.0,"[-0.11048591148422568,-0.10704552670185324]",100.0,"[-0.010844819877950315,0.15831153935987613]",100.0,"[-0.08524887424583763,0.1319363555097199]",4.0,"[0.04887408369162062,0.02069510794733923]",100.0,"[0.07012531527028244,-0.14882112959833343]",4.0,"[0.0837782297119125,-0.0873688468595006]",100.0,"[0.024240294819033722,0.18609589355774703]",100.0,"[-0.14062026600456226,-0.13493603386402533]",4.0,"[0.10498678611708481,0.03345817179306656]",100.0,"[0.020809900889391275,-0.1230600191089176]",100.0,"[-0.1577645842518017,0.08950543452820164]",100.0,"[0.03767883297298998,0.11306937306134242]",4.0,"[-0.05964580943246456,0.048993021073870685]",100.0,"[-0.1340340344540925,-0.03631092669620554]",100.0,"[0.011262139401432922,0.04653533018444939]",100.0,"[0.11463301888707016,-0.056065774865036826]",4.0,"[-0.14833609897938252,0.042432933877563375]",4.0,"[0.13237433481713776,0.06305011453101789]",4.0,"[-0.07802863770713582,0.0022718382057623078]",100.0,"[-0.17563245798699167,-0.08038797740444381]",100.0,"[-0.03868508978416489,-0.16903655433792644]",100.0,"[0.13991666441455267,0.14105593709491535]",100.0,"[0.02,0.02]",217.3559,0.0,49.0,49.0,49.0,1.0,,,,,,,
