right,left,explain.started,explain.stopped,key_resp_3.keys,key_resp_3.rt,key_resp_3.duration,participant,session,date,expName,psychopyVersion,OS,frameRate,study_id,explain_2.started,explain_2.stopped,key_resp_4.keys,key_resp_4.rt,key_resp_4.duration,explain_3.started,explain_3.stopped,key_resp_5.keys,key_resp_5.rt,key_resp_5.duration,fixation.started,fixation.stopped,practice.started,practice.stopped,response.started,response.stopped,key_resp.keys,feedback.started,feedback.stopped,trials_2.thisRepN,trials_2.thisTrialN,trials_2.thisN,trials_2.thisIndex,trials_2.ran,dot_ratio,key_resp.rt,key_resp.duration,explain_4.started,explain_4.stopped,key_resp_6.keys,key_resp_6.rt,key_resp_6.duration,dotDisplay.started,dotDisplay.stopped,ITI.started,polygon_1.pos,polygon_1.edges,polygon_2.pos,polygon_2.edges,polygon_3.pos,polygon_3.edges,polygon_4.pos,polygon_4.edges,polygon_5.pos,polygon_5.edges,polygon_6.pos,polygon_6.edges,polygon_7.pos,polygon_7.edges,polygon_8.pos,polygon_8.edges,polygon_9.pos,polygon_9.edges,polygon_10.pos,polygon_10.edges,polygon_11.pos,polygon_11.edges,polygon_12.pos,polygon_12.edges,polygon_13.pos,polygon_13.edges,polygon_14.pos,polygon_14.edges,polygon_15.pos,polygon_15.edges,polygon_16.pos,polygon_16.edges,polygon_17.pos,polygon_17.edges,polygon_18.pos,polygon_18.edges,polygon_19.pos,polygon_19.edges,polygon_20.pos,polygon_20.edges,polygon_21.pos,polygon_21.edges,polygon_22.pos,polygon_22.edges,polygon_23.pos,polygon_23.edges,polygon_24.pos,polygon_24.edges,polygon_25.pos,polygon_25.edges,polygon_26.pos,polygon_26.edges,polygon_27.pos,polygon_27.edges,polygon_28.pos,polygon_28.edges,polygon_29.pos,polygon_29.edges,polygon_30.pos,polygon_30.edges,polygon_31.pos,polygon_31.edges,polygon_32.pos,polygon_32.edges,dot_size,ITI.stopped,trials.thisRepN,trials.thisTrialN,trials.thisN,trials.thisIndex,trials.ran,break_2.started,break_2.stopped,trials_3.thisRepN,trials_3.thisTrialN,trials_3.thisN,trials_3.thisIndex,trials_3.ran
subject chose diamond,subject chose dot,0.0003,59.1419,space,44.1233,,67e18d3d9ae271b1719712c3,6846a85375e39dc6af24ce41,2025-06-09_05h29.30.748,shape_ratio,2024.1.5,Win32,59.88023952,684250e4f00cb30b92d1fa88,,,,,,,,,,,,,,,,,,,,,,,,,,,,,,,,,,,,,,,,,,,,,,,,,,,,,,,,,,,,,,,,,,,,,,,,,,,,,,,,,,,,,,,,,,,,,,,,,,,,,,,,,,,,,,,,,
,,,,,,,67e18d3d9ae271b1719712c3,6846a85375e39dc6af24ce41,2025-06-09_05h29.30.748,shape_ratio,2024.1.5,Win32,59.88023952,684250e4f00cb30b92d1fa88,59.1428,90.4541,space,1.2972,,,,,,,,,,,,,,,,,,,,,,,,,,,,,,,,,,,,,,,,,,,,,,,,,,,,,,,,,,,,,,,,,,,,,,,,,,,,,,,,,,,,,,,,,,,,,,,,,,,,,,,,,,,,,
,,,,,,,67e18d3d9ae271b1719712c3,6846a85375e39dc6af24ce41,2025-06-09_05h29.30.748,shape_ratio,2024.1.5,Win32,59.88023952,684250e4f00cb30b92d1fa88,,,,,,90.4545,93.5268,space,0.0669,,,,,,,,,,,,,,,,,,,,,,,,,,,,,,,,,,,,,,,,,,,,,,,,,,,,,,,,,,,,,,,,,,,,,,,,,,,,,,,,,,,,,,,,,,,,,,,,,,,,,,,,
,,,,,,,67e18d3d9ae271b1719712c3,6846a85375e39dc6af24ce41,2025-06-09_05h29.30.748,shape_ratio,2024.1.5,Win32,59.88023952,684250e4f00cb30b92d1fa88,,,,,,,,,,,93.5838,94.036,94.0371,94.287,94.2872,95.7847,,95.7849,96.8844,0.0,0.0,0.0,0.0,1.0,0.2,,,,,,,,,,,,,,,,,,,,,,,,,,,,,,,,,,,,,,,,,,,,,,,,,,,,,,,,,,,,,,,,,,,,,,,,,,,,,,,,,,,,,,,,
,,,,,,,67e18d3d9ae271b1719712c3,6846a85375e39dc6af24ce41,2025-06-09_05h29.30.748,shape_ratio,2024.1.5,Win32,59.88023952,684250e4f00cb30b92d1fa88,,,,,,,,,,,96.885,97.3842,97.3842,97.6361,97.6362,98.9522,right,98.9525,100.0515,0.0,1.0,1.0,1.0,1.0,0.8,1.3009,,,,,,,,,,,,,,,,,,,,,,,,,,,,,,,,,,,,,,,,,,,,,,,,,,,,,,,,,,,,,,,,,,,,,,,,,,,,,,,,,,,,,,,
,,,,,,,67e18d3d9ae271b1719712c3,6846a85375e39dc6af24ce41,2025-06-09_05h29.30.748,shape_ratio,2024.1.5,Win32,59.88023952,684250e4f00cb30b92d1fa88,,,,,,,,,,,,,,,,,,,,,,,,,,,,100.0525,113.2674,space,10.1935,,,,,,,,,,,,,,,,,,,,,,,,,,,,,,,,,,,,,,,,,,,,,,,,,,,,,,,,,,,,,,,,,,,,,,,,,,,,,,,,,,
,,,,,,,67e18d3d9ae271b1719712c3,6846a85375e39dc6af24ce41,2025-06-09_05h29.30.748,shape_ratio,2024.1.5,Win32,59.88023952,684250e4f00cb30b92d1fa88,,,,,,,,,,,113.3004,113.7832,,,114.0348,115.1336,left,,,,,,,,0.45,1.084,,,,,,,113.7843,114.0346,115.1347,"[0.10296492787896837,0.022917853973071608]",4.0,"[-0.03195209690245409,0.16199133532817897]",100.0,"[0.06462097978892199,0.17021953058545902]",100.0,"[-0.047186646353295385,0.0201494421510312]",4.0,"[0.055130237286014495,-0.002245015220015833]",4.0,"[-0.11447692372057573,0.09064998457773325]",100.0,"[-0.12193327217818417,-0.06302282074330882]",100.0,"[0.08795122140005215,-0.08251794558435978]",4.0,"[0.10453102713094373,0.15717265726569649]",4.0,"[0.006643878203326778,0.14230598696405308]",4.0,"[0.16592323791593272,-0.07219887578297327]",4.0,"[-0.17433032853726388,-0.052139749087621944]",4.0,"[-0.14935426481350209,0.13077751987425532]",100.0,"[-0.09316396920270212,-0.10454501737639085]",4.0,"[-0.13968622388323668,0.0025856656903249634]",100.0,"[0.11720057301709874,0.08636823074845214]",4.0,"[-0.07459810989590444,-0.1601999935389874]",100.0,"[0.016839064974516718,-0.19244139635686747]",100.0,"[0.1619579561626369,0.06347993250505277]",100.0,"[-0.04927063885058763,-0.05543384489807425]",4.0,"[0.005600506723862118,0.03516716387269152]",4.0,"[0.12255571350037614,-0.15387386745693807]",100.0,"[0.021566517535479824,-0.07675258362874725]",4.0,"[-0.09408829371923079,0.021941122547929185]",4.0,"[0.038897024461243296,-0.11943249156113349]",100.0,"[-0.038311917762965,0.07741043876636655]",4.0,"[0.051924490122849866,0.05212598742840151]",100.0,"[-0.19099972681332295,0.0007203605600378623]",100.0,"[-0.03823668763105939,-0.14293721237410018]",4.0,"[-0.13490305962863416,-0.11678994228787268]",4.0,"[0.010969207972740386,-0.023044545968247128]",4.0,"[0.11767358492647818,-0.02652099003469989]",100.0,"[0.02,0.02]",116.233,0.0,0.0,0.0,126.0,1.0,,,,,,,
,,,,,,,67e18d3d9ae271b1719712c3,6846a85375e39dc6af24ce41,2025-06-09_05h29.30.748,shape_ratio,2024.1.5,Win32,59.88023952,684250e4f00cb30b92d1fa88,,,,,,,,,,,116.2339,116.7327,,,116.9837,117.2164,left,,,,,,,,0.4,0.2166,,,,,,,116.7328,116.9836,117.2165,"[-0.051947691180859804,-0.039269479028926337]",4.0,"[-0.06866793449579445,0.16903801461573856]",4.0,"[0.05779060697969188,0.15355648024374755]",4.0,"[0.0756212557179494,0.07998663487648036]",4.0,"[0.188580715025483,-0.045921899774461]",100.0,"[0.03141864907677911,0.18419994982965662]",100.0,"[-0.030665950843750667,0.07332861167965161]",100.0,"[-0.14999643027572104,-0.10252525607106819]",100.0,"[-0.1655612288769354,0.09538575233038375]",4.0,"[0.030581637356880204,-0.19647307981949386]",4.0,"[-0.028138141485745744,0.1521152535558011]",100.0,"[-0.18392024727831283,0.04052651984149295]",4.0,"[-0.028273887726663897,0.19403046499826684]",100.0,"[0.07107897331880633,0.007458128127586006]",4.0,"[0.03147585835425434,-0.03887099898476647]",4.0,"[-0.022194060405746185,-0.11900654931054871]",100.0,"[-0.06217216182187576,-0.16278392778544115]",4.0,"[-0.10044415777419811,-0.08002278365197368]",100.0,"[-0.10396599607177712,-0.13655835558315513]",4.0,"[-0.0820174459468726,0.07356706065067507]",4.0,"[-0.11534858485903868,0.10938715852534306]",4.0,"[0.05657419584305034,-0.1156400971220843]",100.0,"[0.0021341854022696406,0.006689273321253434]",4.0,"[0.18552312226855647,0.03366555387521055]",100.0,"[0.1233102241122895,0.1482210841515119]",4.0,"[-0.15590273956311743,-0.045250225784851154]",100.0,"[0.09642325829306797,-0.08339684998587554]",100.0,"[0.02480784317677305,0.10858230654304821]",4.0,"[0.10943730904713754,0.044093984361849886]",4.0,"[-0.10466251211477601,-0.017254048774219707]",100.0,"[-0.13963212445318154,0.03667065772375608]",4.0,"[0.07718516304354375,-0.15814975999375766]",4.0,"[0.02,0.02]",118.3156,0.0,1.0,1.0,178.0,1.0,,,,,,,
,,,,,,,67e18d3d9ae271b1719712c3,6846a85375e39dc6af24ce41,2025-06-09_05h29.30.748,shape_ratio,2024.1.5,Win32,59.88023952,684250e4f00cb30b92d1fa88,,,,,,,,,,,118.3165,118.8153,,,119.0553,119.3372,right,,,,,,,,0.55,0.2661,,,,,,,118.8155,119.0551,119.3373,"[0.09365779333112025,-0.04251065210439636]",100.0,"[-0.11237308555553904,0.09547988317913166]",4.0,"[-0.114771967669234,0.1568493679700726]",4.0,"[0.1744690071952536,-0.07026936208268146]",100.0,"[-0.0554285058085199,0.018422118854046578]",4.0,"[-0.1662530134525167,0.07114061631383202]",100.0,"[-0.030168873916874124,0.1218292004987777]",100.0,"[0.0223031446008128,-0.12775838717383792]",100.0,"[-0.08732816212391906,-0.17964019966250194]",4.0,"[-0.15674053358290027,0.029168408761827396]",4.0,"[0.07255796797520807,-0.14180372681683504]",100.0,"[0.04003897306170769,0.09174589502123356]",100.0,"[-0.04604072300189793,-0.03528115469187073]",4.0,"[-0.07283882995557256,0.14703227874478797]",4.0,"[-0.12080915907976882,-0.10800598760596158]",100.0,"[0.10599825675101393,0.00968930047743119]",4.0,"[0.09431283249922749,0.11647230973755011]",4.0,"[0.11497656451061017,-0.11887964466255609]",4.0,"[0.17187124021443562,0.021576509792708354]",100.0,"[-0.04240433764037458,-0.11827741641442113]",4.0,"[-0.14560616644909274,-0.06295219559295341]",100.0,"[0.007604835655999137,-0.18911297699746946]",100.0,"[-0.0347566339679518,-0.18876169910254398]",4.0,"[0.14191981987686456,0.07633398301552721]",100.0,"[-0.13192169397900153,-0.00999961604765935]",4.0,"[0.04207065619306203,0.1426545859837188]",100.0,"[-0.08242079970245991,-0.06928158137112392]",100.0,"[-0.07960739418247395,0.06831266856853936]",100.0,"[0.027331732765030026,-0.06919026408979542]",100.0,"[0.024838923437169272,-0.016292059433577984]",100.0,"[0.022964838082557514,0.18285925000594766]",4.0,"[0.14290454669409985,-0.04139074789442412]",100.0,"[0.02,0.02]",120.4368,0.0,2.0,2.0,68.0,1.0,,,,,,,
,,,,,,,67e18d3d9ae271b1719712c3,6846a85375e39dc6af24ce41,2025-06-09_05h29.30.748,shape_ratio,2024.1.5,Win32,59.88023952,684250e4f00cb30b92d1fa88,,,,,,,,,,,120.4371,120.938,,,121.183,121.8162,left,,,,,,,,0.6,0.6189,,,,,,,120.9381,121.1829,121.8162,"[-0.02328801314372752,-0.18602481337430748]",4.0,"[0.0799077596246865,-0.156821975864058]",100.0,"[-0.06283919272925542,-0.13429164942674743]",100.0,"[-0.04557736793119236,-0.08161762230224323]",100.0,"[0.1378733456246235,-0.08783547307212877]",100.0,"[-0.1099906727240645,-0.1599714464726259]",100.0,"[-0.0011135524312657593,0.1622944477956426]",100.0,"[-0.07926408071750678,0.12912170851334107]",4.0,"[0.10768182612747638,0.11586052621541307]",100.0,"[-0.019168386088414414,0.0012608471172774439]",4.0,"[-0.1063071231787971,0.007436915599057343]",100.0,"[0.14386293498186506,-0.04621926901699616]",4.0,"[-0.031011333039154734,0.07471289018277559]",100.0,"[0.045061492067238265,-0.11483773406092726]",4.0,"[-0.11573986168942427,-0.03565655421611043]",100.0,"[-0.14178143400721252,0.1293982664445768]",4.0,"[0.08838120742929813,0.01358559564174834]",4.0,"[-0.02680428214514636,0.19805495461821582]",100.0,"[-0.15609137471456772,-0.04771804609474654]",100.0,"[0.05038351227895158,-0.05509226911607209]",4.0,"[-0.09046538380953502,0.17348311491882432]",4.0,"[-0.1619466401542637,0.07498961175603572]",100.0,"[-0.15317744424496643,-0.12346911204874651]",100.0,"[0.03407907183970905,0.027838590937364748]",100.0,"[0.12269568146219453,0.07373941484866282]",100.0,"[0.013476129244692483,-0.0754284662045049]",4.0,"[-0.11152608946449477,-0.09989142193775208]",100.0,"[0.1877387749523685,-0.013312725078134063]",100.0,"[-0.0734883708449259,0.05869925092004847]",100.0,"[0.059473954448283003,0.14366044137045353]",4.0,"[0.1838517877952018,0.07608368188382562]",4.0,"[-0.004807694421138738,-0.13350794808201202]",4.0,"[0.02,0.02]",122.9152,0.0,3.0,3.0,55.0,1.0,,,,,,,
,,,,,,,67e18d3d9ae271b1719712c3,6846a85375e39dc6af24ce41,2025-06-09_05h29.30.748,shape_ratio,2024.1.5,Win32,59.88023952,684250e4f00cb30b92d1fa88,,,,,,,,,,,122.916,123.4142,,,123.666,123.7656,right,,,,,,,,0.9,0.0846,,,,,,,123.4143,123.6659,123.7657,"[-0.03519935718886623,-0.1321864707273543]",100.0,"[0.11515336135668752,0.14813043866261086]",100.0,"[-0.11467427177055488,0.07350046470462752]",100.0,"[0.032104935324775194,0.09655957135886085]",100.0,"[-0.11176581460228395,-0.023598802919872337]",100.0,"[0.07211892874920497,0.04692725076916773]",100.0,"[-0.07131056621660116,0.08202002320871524]",100.0,"[-0.04066435698281988,-0.037420001707714375]",100.0,"[-0.09387285484527626,0.03617246317039477]",100.0,"[-0.0959750247986022,-0.15723577105853653]",4.0,"[0.1664278656778588,0.08367627498735812]",100.0,"[-0.023791532151340278,-0.1755237297286879]",4.0,"[-0.15905595056642569,-0.0033395636831238954]",100.0,"[0.025836732024519173,-0.1407310092425474]",100.0,"[0.002373014534558669,-0.0944308554549698]",100.0,"[0.12450388791876643,0.03559519801759243]",100.0,"[-0.06176634882696604,0.1584436607066558]",100.0,"[0.000504760870451907,0.060063176572399526]",100.0,"[0.17723462474403995,-0.04421680432213491]",100.0,"[-0.18623306829429023,0.07006207164670361]",100.0,"[-0.04380921527050892,0.023859467344872563]",100.0,"[-0.019688001668343686,0.13312816009435274]",4.0,"[0.03735778757707696,0.15447720436878973]",100.0,"[0.12224044010435954,-0.05629520427195892]",100.0,"[0.1567502964563189,-0.008149573730752768]",100.0,"[-0.15038610231272256,-0.09498878468142719]",100.0,"[0.08631087716960523,-0.16041273456267996]",100.0,"[0.07648146141240247,-0.07348655746360877]",100.0,"[0.11642992338069717,0.09396844972134234]",100.0,"[-0.11793881972994684,0.1495970903059772]",100.0,"[0.15841223152166603,-0.09843812141214732]",100.0,"[-0.045525710359603656,-0.08840645589627524]",100.0,"[0.02,0.02]",124.8648,0.0,4.0,4.0,10.0,1.0,,,,,,,
,,,,,,,67e18d3d9ae271b1719712c3,6846a85375e39dc6af24ce41,2025-06-09_05h29.30.748,shape_ratio,2024.1.5,Win32,59.88023952,684250e4f00cb30b92d1fa88,,,,,,,,,,,124.8658,125.3646,,,125.616,126.032,right,,,,,,,,0.1,0.4021,,,,,,,125.3647,125.616,126.0321,"[-0.031020788082351952,0.029052172221681768]",4.0,"[-0.032889803900456704,-0.12203028440392581]",4.0,"[0.0716205228362708,0.10154767968361712]",4.0,"[0.029057770934415028,0.08159156529724983]",4.0,"[0.035530552378907475,0.14174571472631142]",100.0,"[-0.08514914378384514,-0.1134048954096824]",100.0,"[-0.053414815319396645,0.09870744453615685]",4.0,"[-0.12396462994469042,0.10993751593826831]",4.0,"[0.11320538148267899,-0.14250362086143117]",4.0,"[0.05926920052126157,0.01139330273064607]",4.0,"[0.05254476197521359,-0.0479119908529103]",4.0,"[0.026878076357620292,0.18696541412368742]",4.0,"[-0.08579034057281214,0.06847455998570269]",4.0,"[0.16343072658370636,-0.0749644289445187]",4.0,"[-0.1133806764711232,-0.05635371846615164]",4.0,"[0.1520191525249848,0.012759251174532624]",4.0,"[0.1935426735205144,0.013703103915114073]",4.0,"[0.12872619845474578,0.14893593153323373]",4.0,"[-0.1526352665022027,-0.025690385670872826]",4.0,"[-0.015237976270948079,0.1344675743552964]",4.0,"[0.0624653396514778,-0.12058596810977913]",4.0,"[0.000841262297697237,-0.19253985570738594]",4.0,"[0.11552988063402114,-0.0649956372869454]",4.0,"[-0.030659303817326226,0.19656804206176487]",4.0,"[-0.16120513182404,-0.07150954503486191]",4.0,"[0.0007658540713254166,-0.05313738855348498]",4.0,"[-0.19408654734826586,0.035860196452007456]",100.0,"[-0.1285558068074988,0.1515793161058116]",4.0,"[0.11076190288051516,0.08946376681355224]",4.0,"[-0.0381834090391484,-0.07145177237500361]",4.0,"[0.0636005904988775,0.059859224848021864]",4.0,"[-0.12443232474612582,-0.101650058204576]",4.0,"[0.02,0.02]",127.1311,0.0,5.0,5.0,192.0,1.0,,,,,,,
,,,,,,,67e18d3d9ae271b1719712c3,6846a85375e39dc6af24ce41,2025-06-09_05h29.30.748,shape_ratio,2024.1.5,Win32,59.88023952,684250e4f00cb30b92d1fa88,,,,,,,,,,,127.1319,127.631,,,127.8824,128.082,left,,,,,,,,0.5,0.1881,,,,,,,127.6311,127.8823,128.082,"[0.01758313060193664,0.046004355410088765]",100.0,"[-0.037070228284155064,-0.05716524979288043]",100.0,"[-0.0000284097337240431,0.09322234988615263]",4.0,"[-0.10054692101258206,-0.14243661117968653]",100.0,"[0.08577956738964472,-0.01250014270950611]",4.0,"[0.0008802033790637345,0.1491723558878981]",4.0,"[-0.022140748947029783,-0.14192825228398653]",100.0,"[0.13784156191194769,0.00652850528072776]",100.0,"[-0.1023974315072823,-0.005344188593668089]",4.0,"[0.018534600828875133,-0.02548675063255085]",4.0,"[-0.16521234048559938,0.026145845624703543]",4.0,"[0.005738572915893859,-0.07202907283228105]",4.0,"[-0.0021216351013380406,-0.18037382529113805]",4.0,"[0.0993177973156287,0.04049851919355069]",4.0,"[-0.096051681687057,-0.07107296453206981]",4.0,"[0.15880078682213253,-0.029002633103768678]",4.0,"[0.05160930783546842,0.07752731779679102]",100.0,"[0.13218262255798643,-0.07400414366406088]",4.0,"[0.04735220368672633,0.1687799183637125]",100.0,"[-0.14910897820384184,0.1035542399789593]",100.0,"[-0.09522551327658825,0.1721695769973204]",100.0,"[0.03934218480455262,0.11925747666141391]",100.0,"[-0.04644275064702448,0.12065152242404502]",100.0,"[-0.11445426978470835,0.06920599133566631]",100.0,"[0.10303847795369793,0.10993991569101504]",4.0,"[0.0771473415784241,-0.12393931890743302]",4.0,"[-0.17303000312169675,-0.07413102963037625]",100.0,"[-0.1842325644220209,-0.0319981553850327]",100.0,"[-0.055023011550064366,0.18748052701927584]",100.0,"[0.12902847975021098,-0.13086406391243055]",4.0,"[-0.045060576575218975,0.004263174289943587]",4.0,"[0.025322600937202167,-0.14129478996629868]",100.0,"[0.02,0.02]",129.1812,0.0,6.0,6.0,108.0,1.0,,,,,,,
,,,,,,,67e18d3d9ae271b1719712c3,6846a85375e39dc6af24ce41,2025-06-09_05h29.30.748,shape_ratio,2024.1.5,Win32,59.88023952,684250e4f00cb30b92d1fa88,,,,,,,,,,,129.182,129.6805,,,129.9324,130.1984,right,,,,,,,,0.5,0.2503,,,,,,,129.6805,129.9323,130.1985,"[-0.10001506801453527,-0.06325116231415868]",100.0,"[0.1578904007753989,-0.09123750358860164]",100.0,"[-0.08582738456544037,-0.02482107970310151]",4.0,"[0.08129333580254869,-0.08014623793132648]",4.0,"[-0.008290407807789961,-0.08796435272826175]",4.0,"[0.1360917180938319,-0.03033818430747788]",4.0,"[-0.14408775196428603,-0.05627457937741474]",100.0,"[0.07034501527127053,0.08520165612231556]",100.0,"[0.03943895658102412,-0.04394595511915409]",100.0,"[-0.014035882745741246,-0.18513737111016978]",100.0,"[-0.11590059973421439,-0.12111212287357459]",100.0,"[-0.01809748750396098,0.14886546619831012]",100.0,"[-0.17476373261776357,0.0343278314869943]",100.0,"[0.14792175765048624,0.08533460399138196]",4.0,"[0.19543992569899227,0.0004325574225318025]",100.0,"[-0.08438273305608474,-0.1584166724407834]",4.0,"[0.04330514476355584,0.03060127578144604]",100.0,"[0.05165561273723788,0.16391130361232464]",100.0,"[-0.08795471350288961,0.17516173108694844]",4.0,"[-0.008537730852428474,-0.14057119590481923]",100.0,"[-0.1946976337660296,-0.043735922457335236]",4.0,"[0.08687160316457353,-0.009178837929951389]",4.0,"[-0.12171158723133947,0.1427503787566009]",4.0,"[0.012941888159898374,-0.012666513753680348]",4.0,"[-0.04221352535702227,-0.04840982505309865]",4.0,"[0.08800419420243276,0.13675723490267125]",4.0,"[-0.012201062708935787,0.061972518512427056]",100.0,"[0.1473987757721429,0.1257641024195822]",100.0,"[0.11440599370771301,-0.11239510083495508]",100.0,"[-0.033761060080830484,0.10297803559751667]",4.0,"[-0.08643717962434863,0.11072164578435725]",4.0,"[-0.15347581966127694,0.10961668152971765]",4.0,"[0.02,0.02]",131.2975,0.0,7.0,7.0,100.0,1.0,,,,,,,
,,,,,,,67e18d3d9ae271b1719712c3,6846a85375e39dc6af24ce41,2025-06-09_05h29.30.748,shape_ratio,2024.1.5,Win32,59.88023952,684250e4f00cb30b92d1fa88,,,,,,,,,,,131.2983,131.7975,,,132.0482,132.1646,left,,,,,,,,0.9,0.0998,,,,,,,131.7975,132.0482,132.1646,"[0.05007513588873936,-0.05185952941438577]",100.0,"[-0.05884948562746442,0.0780309213838213]",100.0,"[0.048491094997598086,0.18693394990066023]",100.0,"[-0.07877670418379216,-0.1257444383466782]",100.0,"[0.11801600269569215,0.1525991836465656]",100.0,"[-0.0392905899624514,0.01946039360459208]",100.0,"[0.077476401024588,-0.08927434224481692]",100.0,"[0.17259166094719167,-0.05059629513785359]",100.0,"[-0.08357138796659463,-0.0016389169112183202]",100.0,"[-0.060105652636772464,0.16292280112358853]",100.0,"[-0.17513089856645597,-0.02322906023503902]",100.0,"[-0.09286162030444259,-0.05259621110709778]",100.0,"[0.004650888009350289,0.04832595905341549]",100.0,"[0.016582270398305992,0.15570062679639493]",4.0,"[0.13664666720913266,-0.0837821250691778]",4.0,"[0.02798557647391122,0.10856503397021526]",100.0,"[0.0747270007297005,-0.0026512293272920894]",100.0,"[-0.15535737748321782,0.05341659011166324]",100.0,"[0.1328180936582805,0.10853357890892858]",4.0,"[-0.06291493767077577,-0.08362267771982049]",100.0,"[-0.006340211848508589,-0.051701574215073216]",100.0,"[0.03400556068234268,-0.13515092766348735]",100.0,"[-0.15332904684237744,-0.08088463324474489]",100.0,"[0.07552373472689562,-0.15329722077937444]",100.0,"[0.1438148716350879,0.05903817584272428]",100.0,"[0.07694965991816596,0.1442675606318438]",100.0,"[-0.11324225183171892,0.14592177098120995]",100.0,"[-0.013810117051377675,-0.14360684400847182]",100.0,"[-0.16390279672647767,0.10784995819507531]",100.0,"[-0.09385147388152822,0.050356984097120076]",100.0,"[0.023390438618078293,-0.007790841990612545]",100.0,"[0.07190790014322679,0.04262883426349194]",100.0,"[0.02,0.02]",133.2638,0.0,8.0,8.0,12.0,1.0,,,,,,,
,,,,,,,67e18d3d9ae271b1719712c3,6846a85375e39dc6af24ce41,2025-06-09_05h29.30.748,shape_ratio,2024.1.5,Win32,59.88023952,684250e4f00cb30b92d1fa88,,,,,,,,,,,133.2648,133.7639,,,134.0037,134.2543,left,,,,,,,,0.6,0.2348,,,,,,,133.7639,134.0037,134.2544,"[-0.10982440071611203,-0.1568191083326277]",100.0,"[-0.07158312235916403,-0.03186601126041694]",100.0,"[-0.04074879479835399,0.07446607628880818]",4.0,"[-0.14207094703130488,-0.06585084146451028]",100.0,"[-0.09261894059092372,-0.11408988534237437]",100.0,"[-0.011263162557939629,0.18434748983225518]",100.0,"[-0.03243747267250088,-0.12328848773012142]",100.0,"[0.10809895949019319,-0.021304742769869166]",100.0,"[0.17712195330059838,-0.021551980011049725]",4.0,"[0.09538319614988118,0.14075113824366625]",4.0,"[0.050485769017962014,0.17241025652055136]",100.0,"[-0.18006780770966435,0.030095355086164607]",4.0,"[0.01233531400700449,-0.05673196013670432]",100.0,"[0.08312496991390125,-0.06678408689794585]",4.0,"[-0.07283875604676114,0.14475053472512872]",100.0,"[-0.1087863732059786,0.05625807497247884]",4.0,"[0.050135908150322955,-0.11003437976056872]",100.0,"[0.06557328239986097,-0.1652700664299232]",100.0,"[-0.11298640738236108,-0.012062848759245818]",4.0,"[-0.06426172743522682,0.18582716917600406]",100.0,"[0.04422984635999067,-0.025081116345936495]",100.0,"[0.15784765354163696,-0.07922549853902659]",100.0,"[-0.03181414606114454,0.14359003210145382]",4.0,"[-0.0019699182539992545,-0.008332706594892342]",4.0,"[0.006315165048889138,0.12750981709664458]",100.0,"[-0.06177030832628879,-0.16312156580764386]",100.0,"[0.0982974556385948,-0.10910611414834655]",4.0,"[-0.058447108808594696,0.02512673502621204]",100.0,"[0.1146236369748653,0.06010325316181801]",4.0,"[-0.13751780523040022,0.11155947051874165]",4.0,"[0.009395692389841033,0.03267055011221918]",4.0,"[0.04207725341193445,0.10505111726693012]",100.0,"[0.02,0.02]",135.3461,0.0,9.0,9.0,41.0,1.0,,,,,,,
,,,,,,,67e18d3d9ae271b1719712c3,6846a85375e39dc6af24ce41,2025-06-09_05h29.30.748,shape_ratio,2024.1.5,Win32,59.88023952,684250e4f00cb30b92d1fa88,,,,,,,,,,,135.3465,135.8468,,,136.0977,136.3804,left,,,,,,,,0.4,0.2694,,,,,,,135.8468,136.0977,136.3805,"[-0.0706088467354783,-0.09624411278571927]",4.0,"[0.07922268866805299,-0.013111979380777322]",100.0,"[0.15375895575664378,-0.05248813139662688]",4.0,"[-0.05841518903070566,-0.13965214272902604]",4.0,"[-0.01670861331270494,0.026910491512393622]",100.0,"[0.14595876412738418,0.11462138219695599]",4.0,"[-0.02843144782524059,0.1599060446724865]",4.0,"[-0.02042455294597611,-0.17379642758671673]",4.0,"[-0.13637168412459658,0.005298335809693564]",4.0,"[-0.16709463865209645,0.07488845892693276]",4.0,"[0.007202634503124074,-0.03941195627937266]",100.0,"[0.16239627104723725,-0.11084683158124731]",4.0,"[-0.07249716309734935,-0.01083175158329956]",4.0,"[0.05260669567721022,-0.1396610435773428]",100.0,"[0.17388090497046843,0.02276300059692485]",4.0,"[-0.11967338638049645,-0.10455677928850984]",100.0,"[-0.09746831005049812,0.14977435389816524]",100.0,"[-0.042166792702982445,-0.05397739012631728]",100.0,"[0.08982217049773754,0.12302358776287875]",100.0,"[-0.176881987920465,-0.08692210908199688]",100.0,"[0.1789498260901721,0.0638261947228045]",4.0,"[0.012243213094316223,0.13880739387834437]",4.0,"[-0.08990869225150233,0.08893651740615596]",100.0,"[0.06851787731445837,-0.09967019766836342]",4.0,"[0.1298698191219399,-0.1427472069091408]",4.0,"[0.12994780606572115,-0.018696509236085717]",4.0,"[-0.16366601187733057,-0.04900537517946501]",100.0,"[0.06746529621397218,-0.18081725528903092]",4.0,"[0.10708811815433408,0.16234798885090365]",100.0,"[0.05380480320014178,0.06887789752034044]",4.0,"[-0.037756501743042986,0.10677117937285181]",4.0,"[0.006051503911422271,0.09312123986735006]",100.0,"[0.02,0.02]",137.4799,0.0,10.0,10.0,156.0,1.0,,,,,,,
,,,,,,,67e18d3d9ae271b1719712c3,6846a85375e39dc6af24ce41,2025-06-09_05h29.30.748,shape_ratio,2024.1.5,Win32,59.88023952,684250e4f00cb30b92d1fa88,,,,,,,,,,,137.4808,137.9797,,,138.2307,138.4791,left,,,,,,,,0.1,0.2409,,,,,,,137.9798,138.2306,138.4791,"[-0.003323172171715741,0.1613851804849936]",4.0,"[-0.028844142632844422,-0.04844439732801241]",4.0,"[0.03504781042241837,0.08180073904037073]",100.0,"[0.029612329987982154,-0.08941764209135504]",100.0,"[0.1217059995394598,-0.07397312495117782]",4.0,"[-0.08614354667456707,-0.1738790274689337]",4.0,"[-0.1624484296128032,0.07742551614509922]",4.0,"[-0.15040096273657966,-0.06580249709801052]",100.0,"[0.1235212114993555,0.10981441645668197]",4.0,"[0.09351126423347206,-0.010249270296963185]",4.0,"[-0.06033938604716194,-0.02182317254418704]",4.0,"[0.1533485569578351,0.03826016565098033]",4.0,"[0.00028448940033693474,0.04720073529868503]",4.0,"[-0.023597554729360124,-0.1230925664986982]",4.0,"[-0.10809343701618722,0.012775645647619517]",4.0,"[-0.07249186480296102,-0.10095605686786396]",4.0,"[-0.10614342033653765,0.1182300482447203]",4.0,"[0.0706972690807304,-0.053527450044192404]",4.0,"[-0.10848533328438291,-0.08115282213027203]",4.0,"[-0.05812655496152119,0.06865435352827551]",4.0,"[0.002030949196026054,-0.018796148613408156]",4.0,"[0.12307558479301552,-0.1221892953695092]",4.0,"[-0.06135210431002395,0.145590039204767]",4.0,"[0.013362135943740071,-0.1568957050695805]",4.0,"[0.07702761726102289,-0.10465386892072277]",4.0,"[0.0537055230619999,0.13690133627702253]",4.0,"[-0.194233303211517,0.03969906044266223]",4.0,"[0.19133576974004,0.0031680105714309028]",4.0,"[-0.18969616967505584,-0.05237047028185701]",4.0,"[0.08670780992530973,-0.15546015343134417]",4.0,"[-0.1448545344750331,-0.006502242870969345]",4.0,"[-0.1361961343442518,-0.11928408993927121]",4.0,"[0.02,0.02]",139.5796,0.0,11.0,11.0,186.0,1.0,,,,,,,
,,,,,,,67e18d3d9ae271b1719712c3,6846a85375e39dc6af24ce41,2025-06-09_05h29.30.748,shape_ratio,2024.1.5,Win32,59.88023952,684250e4f00cb30b92d1fa88,,,,,,,,,,,139.5804,140.0797,,,140.3307,140.5137,right,,,,,,,,0.6,0.1682,,,,,,,140.0797,140.3306,140.5138,"[-0.07040877604314633,0.010753703135891917]",4.0,"[-0.1833766819360006,0.034556649695704295]",100.0,"[0.1319410536092757,0.05637529315949975]",4.0,"[0.11682981174672219,0.1031581778156989]",100.0,"[0.045506068230824474,-0.12211031003628171]",100.0,"[-0.1609821427191777,-0.11289000068377213]",100.0,"[-0.015125762287537833,-0.12358589590879535]",100.0,"[-0.029507774669051735,0.12532841137473014]",100.0,"[-0.1566345539027019,-0.017140355450898884]",100.0,"[0.011217080831538545,0.0041611282101250745]",100.0,"[-0.03150500984786554,0.052109561463996756]",4.0,"[0.04607673196267893,-0.1778347734663727]",4.0,"[-0.16120079944195348,0.0877430127388508]",100.0,"[0.03359024249413967,0.15386746384204206]",100.0,"[-0.10632826778031153,-0.10591820214822331]",100.0,"[-0.10917885331981822,0.16701580758511755]",4.0,"[0.10819920594755582,-0.03246690897955242]",100.0,"[0.1949792350146813,-0.029612809856011682]",100.0,"[-0.1238794465393912,-0.04707751965132378]",100.0,"[0.0440958014433251,-0.05274040202055521]",4.0,"[0.11690643271972934,0.1593456867338756]",100.0,"[-0.14244368726578813,0.13558233476990073]",4.0,"[0.020974731399363417,-0.08765830108966421]",100.0,"[-0.08293603560064006,0.09265111951320344]",4.0,"[0.13758247772686408,-0.083690852120448]",4.0,"[0.18672752668870693,0.012775022951738334]",4.0,"[-0.12224242093929198,0.07454423635329105]",4.0,"[0.09659421907327552,-0.14200763604643846]",100.0,"[-0.06720963449882653,-0.12333302465860156]",100.0,"[0.020412125824876233,0.0851458280039812]",4.0,"[0.07619667668461538,0.1325795189444366]",100.0,"[-0.03293931585579518,0.18304608386863505]",4.0,"[0.02,0.02]",141.6132,0.0,12.0,12.0,56.0,1.0,,,,,,,
,,,,,,,67e18d3d9ae271b1719712c3,6846a85375e39dc6af24ce41,2025-06-09_05h29.30.748,shape_ratio,2024.1.5,Win32,59.88023952,684250e4f00cb30b92d1fa88,,,,,,,,,,,141.6139,142.1126,,,142.3635,142.4973,left,,,,,,,,0.6,0.1267,,,,,,,142.1127,142.3635,142.4974,"[0.1176344067128098,-0.12417532990792515]",4.0,"[0.08579780796263482,0.03887690545936137]",100.0,"[-0.02705339891930976,-0.12875074918638044]",100.0,"[0.13516689820002328,-0.08425611880786717]",100.0,"[-0.16451857608284495,-0.0060987894938892805]",100.0,"[-0.11929979516751225,0.01324695476945224]",100.0,"[-0.12193987971089848,0.06781278934226329]",4.0,"[-0.016232307358858614,0.0010465421690317505]",100.0,"[0.14136654395983658,0.017855201045937283]",4.0,"[0.1960805217376218,0.03768705386972003]",100.0,"[-0.12137861896979257,0.14161930144530152]",100.0,"[-0.11385129082016077,-0.14239650109377242]",100.0,"[0.09602489319352835,0.15827329119023367]",4.0,"[-0.07080839895106861,0.027786996532141228]",100.0,"[0.11664637047361512,0.099178178659847]",100.0,"[0.019820494992670506,-0.06944083297328422]",4.0,"[0.11950040513862266,-0.028487579395877833]",100.0,"[0.08946376871053341,-0.059356146177635745]",100.0,"[-0.16759241889625676,-0.08944281751645305]",100.0,"[0.054919442583299526,-0.02118734422704738]",4.0,"[-0.02366624281265488,0.17228295899978663]",4.0,"[0.19564037193730965,-0.013546770870684859]",4.0,"[-0.07873195240227226,-0.01731358306848482]",100.0,"[-0.03556688102765298,0.09302154466673583]",4.0,"[-0.034076848733099886,0.050902217463939296]",100.0,"[-0.08014536060946316,0.16215472255129737]",100.0,"[-0.05756390679988296,0.12782609258593713]",100.0,"[-0.06957105050513158,-0.06350028638954541]",4.0,"[0.03673219390817157,0.05935944381019536]",100.0,"[0.04565258348315062,-0.10721592927834607]",4.0,"[-0.15042485374186798,0.1128454773641831]",4.0,"[0.00461576956580348,0.098430785280449]",4.0,"[0.02,0.02]",143.596,0.0,13.0,13.0,53.0,1.0,,,,,,,
,,,,,,,67e18d3d9ae271b1719712c3,6846a85375e39dc6af24ce41,2025-06-09_05h29.30.748,shape_ratio,2024.1.5,Win32,59.88023952,684250e4f00cb30b92d1fa88,,,,,,,,,,,143.597,144.0961,,,144.3465,144.463,right,,,,,,,,0.5,0.1055,,,,,,,144.0962,144.3464,144.4631,"[0.11759913254715551,-0.039890959202136575]",4.0,"[0.010447563533515983,-0.09601767217410674]",4.0,"[0.07306270394133614,0.17756569114095408]",100.0,"[0.14875120693374208,0.004198347904348651]",4.0,"[0.0856040859762465,0.05047776041598342]",4.0,"[-0.15351009801745685,0.006929676726884977]",100.0,"[-0.024586564668466024,-0.012264759294257596]",100.0,"[-0.15568238817766294,-0.12335420251812308]",100.0,"[0.043884570117383316,-0.03597332572673613]",4.0,"[-0.010363234027819352,0.07968125104847894]",4.0,"[-0.033726311000837964,-0.1453706701049754]",4.0,"[-0.1432302944230238,0.13524900913274382]",4.0,"[-0.07596413266856293,-0.10093549566828502]",4.0,"[-0.05622955844963549,0.07772014406298562]",100.0,"[-0.006142555612388492,0.035269907507313486]",4.0,"[-0.1885374898782507,-0.05866607353514376]",4.0,"[-0.08732001898577163,0.04578224732017072]",100.0,"[-0.11360683562700065,-0.12241224166014332]",100.0,"[-0.10526424877103385,0.15024594928130652]",100.0,"[0.08471733350501315,-0.16506482901549524]",100.0,"[0.17058892709077117,0.0480675326930591]",4.0,"[0.13443488621716637,0.10773395501854326]",4.0,"[0.17141153605607432,-0.06898314857035129]",100.0,"[-0.07087837725582014,-0.027177908013060807]",100.0,"[-0.11470471712262484,-0.06297428522192869]",4.0,"[0.02032935784727001,0.12470947477049828]",4.0,"[0.10128727808695952,0.004052072650717087]",100.0,"[-0.05026058897218254,0.16404136268474515]",100.0,"[-0.16274586120845408,0.0755953994686922]",100.0,"[0.047283614619446634,-0.18632695540730718]",100.0,"[0.049570052484692095,-0.12740752899036434]",100.0,"[-0.035564339358408685,-0.06147537377188834]",4.0,"[0.02,0.02]",145.5614,0.0,14.0,14.0,90.0,1.0,,,,,,,
,,,,,,,67e18d3d9ae271b1719712c3,6846a85375e39dc6af24ce41,2025-06-09_05h29.30.748,shape_ratio,2024.1.5,Win32,59.88023952,684250e4f00cb30b92d1fa88,,,,,,,,,,,145.5617,146.0621,,,146.3124,146.4786,left,,,,,,,,0.6,0.1515,,,,,,,146.0621,146.3124,146.4789,"[-0.14080996920910674,0.09692084245804496]",100.0,"[0.1871027278325237,0.04692257578780836]",4.0,"[0.0002323663986359969,-0.12430753024288334]",100.0,"[0.15110555419325686,-0.029928926490002047]",100.0,"[-0.08297390974446867,0.006847789181376247]",100.0,"[-0.03763929041399595,0.04061768365864377]",100.0,"[0.0007519352479755438,-0.1948860184859811]",100.0,"[0.11269659283537131,-0.11727905937156742]",100.0,"[0.03577504785662017,-0.058775344351631946]",100.0,"[-0.09323570281281099,-0.083083352277763]",4.0,"[-0.0621148868865441,0.18960366985964106]",4.0,"[0.09436019057855188,-0.16711221010448862]",4.0,"[-0.026920180067329193,0.15282912742181906]",100.0,"[-0.04131877345615791,-0.13887362498505906]",4.0,"[-0.012858852312421997,-0.024088333711887476]",4.0,"[0.052937557586521335,0.05792239827929282]",100.0,"[0.1173159758272296,0.1448982220024661]",4.0,"[0.05223231214325124,0.11105479243094679]",4.0,"[0.02756331077755789,0.18807561198154474]",4.0,"[-0.13049661347191652,0.01215254345886946]",100.0,"[-0.08108440425074055,0.049608633216705667]",100.0,"[0.09800353463726034,-0.05955826214894051]",100.0,"[0.1700709413012298,-0.06886253653595698]",4.0,"[0.18129629698584374,0.0059717942194054885]",100.0,"[-0.001602554908585036,0.062416312644425265]",4.0,"[-0.09468830690823961,-0.12587184911411067]",100.0,"[0.056261679468211645,-0.11059100926537019]",100.0,"[-0.06461101043558057,0.13483662317368245]",100.0,"[-0.15479463849334968,-0.12523342284295844]",4.0,"[-0.12891563012107785,0.15285907622172815]",4.0,"[0.10708824932924696,0.051800129470418475]",100.0,"[-0.06083241057678388,-0.17400497337814497]",100.0,"[0.02,0.02]",147.5785,0.0,15.0,15.0,59.0,1.0,,,,,,,
,,,,,,,67e18d3d9ae271b1719712c3,6846a85375e39dc6af24ce41,2025-06-09_05h29.30.748,shape_ratio,2024.1.5,Win32,59.88023952,684250e4f00cb30b92d1fa88,,,,,,,,,,,147.5793,148.0783,,,148.3292,148.5127,left,,,,,,,,0.45,0.1719,,,,,,,148.0784,148.3291,148.5128,"[0.06307241320829293,0.0839349092417204]",100.0,"[-0.0043340007631382325,-0.18807993286341354]",100.0,"[0.17205991892490538,-0.06889001710636894]",4.0,"[-0.13123523215226943,-0.13858054471768871]",100.0,"[0.10772324154986179,-0.11503728886330956]",100.0,"[-0.011166641179268305,0.09687490858015423]",4.0,"[0.0669337899916243,0.16018424767923947]",100.0,"[-0.08908636710752038,0.10120179711220736]",100.0,"[0.1721513667967901,0.10034847697623989]",4.0,"[0.16054364512999428,0.007962667868156819]",4.0,"[-0.02996862924657737,0.1720413130429327]",100.0,"[-0.1310679474920547,-0.03270030328845143]",100.0,"[-0.08001787737333958,-0.13002815444899393]",4.0,"[0.061891060392752835,-0.052557295017379387]",4.0,"[-0.08885665953982486,0.0557716776826581]",4.0,"[0.016923780481109003,0.021324718689431227]",100.0,"[-0.1458428822849235,0.11355477801755187]",4.0,"[0.03361639647290779,-0.09341656966610058]",4.0,"[-0.10576528762333749,0.012478023976663552]",100.0,"[-0.16101240963306715,0.025727903586237204]",100.0,"[-0.1565365514369704,-0.08693181910628212]",4.0,"[0.14971758459567686,-0.112619445170635]",4.0,"[-0.06187744805432216,-0.18279640746935483]",100.0,"[0.00908649887314565,-0.06006011304564057]",4.0,"[-0.10385590071257356,-0.16897494497482643]",4.0,"[0.022427495203850636,0.07422723970775727]",4.0,"[0.18971107000053405,0.04002584123338815]",4.0,"[0.0854282292366538,-0.1793095894044968]",100.0,"[0.02956812805572927,-0.16372822088769107]",4.0,"[0.12678218899045096,-0.15324743330439075]",100.0,"[-0.03954234980686089,-0.09636887659527675]",4.0,"[-0.19008624652322553,-0.02170877821971182]",4.0,"[0.02,0.02]",149.6112,0.0,16.0,16.0,123.0,1.0,,,,,,,
,,,,,,,67e18d3d9ae271b1719712c3,6846a85375e39dc6af24ce41,2025-06-09_05h29.30.748,shape_ratio,2024.1.5,Win32,59.88023952,684250e4f00cb30b92d1fa88,,,,,,,,,,,149.6116,150.1118,,,150.3626,150.5626,left,,,,,,,,0.6,0.1923,,,,,,,150.112,150.3625,150.5628,"[0.013445868940650895,-0.0109450522064864]",100.0,"[0.006730338850368813,-0.12211538547580843]",100.0,"[0.15812360700827205,-0.04815133040169351]",4.0,"[0.03279710097174038,0.1508341744962585]",100.0,"[-0.0004830647185080847,0.12464673405035462]",4.0,"[-0.066256055697234,0.10683689433053281]",100.0,"[-0.18183318965932166,-0.0275316585502857]",100.0,"[-0.1237158068704424,-0.06237547851834475]",100.0,"[-0.08491320100346833,-0.0840973372299998]",4.0,"[0.0911642549486958,0.07131417537511311]",100.0,"[0.0811300439873543,-0.15187160596578803]",4.0,"[-0.011121450521761906,0.0343755905452653]",4.0,"[0.06774408858197165,0.12245861275458271]",100.0,"[0.07923695656897585,-0.017640891379185904]",100.0,"[0.14907210621014658,0.012994537059681417]",100.0,"[-0.0013598812331141554,-0.0693446279850412]",4.0,"[-0.11691475755442134,0.03428904327554875]",100.0,"[-0.12513556967517828,0.11502747594052223]",4.0,"[-0.1003337439256843,-0.15307600690516626]",4.0,"[-0.03444809080341959,-0.12075190755646956]",100.0,"[0.02717193076995446,0.0741142850524495]",4.0,"[0.005096987681267192,0.19458775006372994]",100.0,"[0.14650352186833868,-0.08788774957043359]",100.0,"[-0.1479305244935174,-0.11152170771905465]",4.0,"[0.17746545462412372,0.06373313267399143]",100.0,"[-0.06719328283067305,-0.1881151457721979]",100.0,"[-0.1684916824579877,0.05648230730555752]",100.0,"[-0.07752442442424587,0.04387219656865398]",100.0,"[-0.04059143719462754,0.0043517786045584785]",4.0,"[-0.0339596903528885,0.07408663865104792]",4.0,"[-0.11655952692243471,-0.01218438810939303]",100.0,"[0.04830513494774245,-0.11513740547314287]",4.0,"[0.02,0.02]",151.6609,0.0,17.0,17.0,32.0,1.0,,,,,,,
,,,,,,,67e18d3d9ae271b1719712c3,6846a85375e39dc6af24ce41,2025-06-09_05h29.30.748,shape_ratio,2024.1.5,Win32,59.88023952,684250e4f00cb30b92d1fa88,,,,,,,,,,,151.6613,152.1613,,,152.4014,152.6353,left,,,,,,,,0.6,0.2185,,,,,,,152.1615,152.4012,152.6354,"[0.11958573058600318,-0.09591673436262743]",4.0,"[-0.05850418911278619,-0.07276509337762344]",100.0,"[-0.09779519226347672,-0.05934554430697441]",4.0,"[-0.01991944411459092,0.08860422530260036]",100.0,"[0.07392084960599254,0.01214285408757611]",100.0,"[0.03944977451712386,-0.021072445102274524]",4.0,"[0.08903818550384286,-0.05103874787382175]",4.0,"[0.04792813200280429,-0.11458842191139018]",4.0,"[0.16425469337335646,0.016791487059123807]",100.0,"[-0.13843429201810223,0.1064908419483071]",100.0,"[0.06677198418876915,0.14660163322065042]",100.0,"[-0.07267928682053389,0.026260775366752077]",100.0,"[-0.009638052042857032,0.03522856999228355]",4.0,"[-0.04381694973612281,-0.02000652620764461]",100.0,"[-0.15839127847292592,-0.09473685326169548]",100.0,"[-0.03013501272826523,0.18695461184708811]",100.0,"[-0.023740190593942324,0.14340243170344952]",100.0,"[0.10476186159020691,0.1690459388414004]",100.0,"[-0.14534406856888646,-0.13581273979991468]",100.0,"[-0.10798953307214772,-0.1566231283303813]",100.0,"[0.046288078380275745,0.11200742441829935]",4.0,"[-0.10459129671777613,-0.019646803039756182]",100.0,"[0.058939158779424475,0.06329968834070455]",4.0,"[0.15528187317651887,-0.07690096570959849]",4.0,"[0.13340732014749876,-0.03470284051248014]",4.0,"[-0.02335679413095245,-0.1367820370045725]",100.0,"[0.16107703531364967,0.09241442811315477]",4.0,"[-0.1615195890425178,-0.01695666387638947]",100.0,"[0.18828338226506763,-0.03022932994451098]",4.0,"[-0.07666777464960815,0.13203454456130054]",100.0,"[0.015430919689602564,-0.16541049622354248]",100.0,"[0.11606881039730325,0.0961059462541435]",4.0,"[0.02,0.02]",153.7273,0.0,18.0,18.0,50.0,1.0,,,,,,,
,,,,,,,67e18d3d9ae271b1719712c3,6846a85375e39dc6af24ce41,2025-06-09_05h29.30.748,shape_ratio,2024.1.5,Win32,59.88023952,684250e4f00cb30b92d1fa88,,,,,,,,,,,153.7276,154.2336,,,154.4786,154.6615,left,,,,,,,,0.5,0.1665,,,,,,,154.2337,154.4784,154.6615,"[0.018087477127168385,0.04235208488047343]",4.0,"[-0.0897179261387743,0.09100892966905558]",4.0,"[0.02529760256962769,0.19066897896304505]",100.0,"[0.15022305323991278,0.09415866515838595]",100.0,"[0.012300685504805682,-0.16447500190915576]",100.0,"[0.18800288915909985,0.04352362039826643]",100.0,"[-0.07986015499858672,0.040513280403793726]",100.0,"[-0.05582649920807856,0.15086993047376482]",4.0,"[-0.12586475671712094,-0.013582056195036553]",4.0,"[0.12605930970984444,-0.04731397056568372]",4.0,"[-0.03099409903372556,0.03138909125156985]",4.0,"[0.12445811953892223,-0.09577293410046167]",4.0,"[-0.1723768371996429,0.07780764439720844]",100.0,"[-0.024371222107697262,-0.11376515473652264]",100.0,"[-0.1475098636339568,0.04200641106643755]",100.0,"[0.0034855408641201835,0.15208785462768415]",4.0,"[-0.18653518500595953,-0.05787337143339145]",100.0,"[0.07709749451650628,0.006885010584136811]",100.0,"[0.07023956299938092,-0.09547964931737671]",100.0,"[-0.09688021769461434,-0.14124263557288141]",4.0,"[-0.14120315197078395,-0.12236878103959116]",4.0,"[0.19680171278084926,-0.013069014354656188]",100.0,"[0.0952758368567268,0.09855586906366551]",4.0,"[-0.07050918849521397,-0.007259437152069801]",4.0,"[0.046693559205216624,-0.05438268670328783]",100.0,"[0.011549759292327608,0.08456177543447606]",100.0,"[0.15053371723217956,-0.005128208441037677]",4.0,"[0.077981390099839,-0.18266572823043548]",100.0,"[0.08803193993795108,0.16512584937667932]",4.0,"[0.01721651927171174,-0.02500548093961092]",4.0,"[-0.016705160198102652,-0.0495871271818264]",4.0,"[-0.04445337162230276,0.09423340628198626]",100.0,"[0.02,0.02]",155.7603,0.0,19.0,19.0,118.0,1.0,,,,,,,
,,,,,,,67e18d3d9ae271b1719712c3,6846a85375e39dc6af24ce41,2025-06-09_05h29.30.748,shape_ratio,2024.1.5,Win32,59.88023952,684250e4f00cb30b92d1fa88,,,,,,,,,,,155.7606,156.2608,,,156.5016,156.6615,left,,,,,,,,0.9,0.1423,,,,,,,156.2609,156.5015,156.6617,"[0.10933120938194038,-0.10868265681980525]",100.0,"[-0.006111823225140514,-0.008392953792362493]",100.0,"[0.12636523342717274,-0.04750308533016404]",100.0,"[0.07568769937561198,-0.1576869040557444]",100.0,"[-0.05197781187114068,0.1123379999107845]",100.0,"[0.029304274684876737,-0.15362992446477597]",100.0,"[-0.05288044253732022,-0.014406039186761322]",100.0,"[0.06758259066600363,-0.0451710629199928]",100.0,"[-0.05347499922688881,0.05214955637075392]",100.0,"[-0.14561814924406996,-0.06212917138164286]",100.0,"[-0.10406248183051793,0.09000368849075868]",100.0,"[-0.07360902161391775,-0.13546409431794731]",100.0,"[-0.006113045713860345,-0.10919419916004344]",100.0,"[0.1065516961518619,0.018068479832563104]",100.0,"[-0.04713985411470704,-0.07220054266077637]",100.0,"[0.17852039517601945,0.023694585291155503]",100.0,"[0.03533295618837763,0.1767498114183329]",100.0,"[0.07376131999173921,0.04283260931312859]",100.0,"[-0.11590810168549655,0.04509779262874695]",100.0,"[-0.18288230979252781,-0.03082218834519886]",100.0,"[0.03947724084007555,0.11860796934962768]",100.0,"[-0.13967583532083436,0.0012403126369842598]",4.0,"[0.15983058674426795,-0.013643634578641166]",100.0,"[-0.12121032859106844,-0.15347480402722213]",100.0,"[-0.025845910630390653,-0.18187769950834926]",4.0,"[-0.07975306042977205,0.18015719561452168]",100.0,"[0.1429112035276501,0.10627574585161238]",100.0,"[0.017491900932863708,0.07410611543254407]",4.0,"[0.043061917969535575,-0.0038143263876933087]",100.0,"[-0.026963169026413943,0.16846287884794073]",100.0,"[-0.10998813801513567,-0.09411098429810229]",100.0,"[-0.1090692174584783,-0.04500914435930225]",100.0,"[0.02,0.02]",157.7606,0.0,20.0,20.0,16.0,1.0,,,,,,,
,,,,,,,67e18d3d9ae271b1719712c3,6846a85375e39dc6af24ce41,2025-06-09_05h29.30.748,shape_ratio,2024.1.5,Win32,59.88023952,684250e4f00cb30b92d1fa88,,,,,,,,,,,157.7616,158.2663,,,158.5117,158.5945,left,,,,,,,,0.55,0.0683,,,,,,,158.2664,158.5117,158.5946,"[0.08712113682492045,-0.09751110460350905]",100.0,"[0.11688523325581414,0.144485240038996]",4.0,"[0.07988380861208286,0.04620716876584476]",4.0,"[-0.048514083269332035,0.1338716443162859]",4.0,"[-0.064579176576434,0.17538858736567667]",100.0,"[0.18325202367818566,0.012692561143561439]",4.0,"[-0.05253630617667584,0.08429588995338631]",100.0,"[-0.0009728403872809172,-0.17429466056012055]",4.0,"[0.14420993982908317,0.09858344444018056]",100.0,"[-0.1796653270842097,0.06998789832153186]",100.0,"[-0.00004026078641345901,-0.08339854425046879]",4.0,"[0.07470514711808857,0.09063641262234573]",100.0,"[0.0026272987519927907,0.0521799658425896]",100.0,"[0.14820458582117074,0.03395843720146819]",100.0,"[-0.15130070293161282,-0.024394728110483106]",100.0,"[0.028473818778674404,0.1635967113269901]",4.0,"[0.05131896461823331,-0.06308994749329336]",100.0,"[0.07133386632229415,-0.13473569021584006]",4.0,"[-0.123672075381718,0.05607439202537287]",100.0,"[-0.19049679740047995,-0.007372494536599142]",100.0,"[-0.04235567271376516,0.02121099051398946]",4.0,"[-0.11692563144079543,-0.09211344181177254]",100.0,"[-0.10197041741175968,-0.15254634863790248]",100.0,"[-0.10259236475421155,0.009400614778831006]",4.0,"[0.07988672027550324,-0.005745206970480112]",100.0,"[-0.07762391680915,-0.03873842407002393]",4.0,"[-0.1553087354789718,-0.11702123446318109]",100.0,"[-0.10000961099672927,0.14641080337030934]",100.0,"[0.045662310329970965,-0.17072771262704992]",4.0,"[0.02399983048895106,0.10502324179741751]",4.0,"[0.1493930277098717,-0.082908216198786]",100.0,"[-0.042714984715388725,-0.17815982122764767]",4.0,"[0.02,0.02]",159.6936,0.0,21.0,21.0,67.0,1.0,,,,,,,
,,,,,,,67e18d3d9ae271b1719712c3,6846a85375e39dc6af24ce41,2025-06-09_05h29.30.748,shape_ratio,2024.1.5,Win32,59.88023952,684250e4f00cb30b92d1fa88,,,,,,,,,,,159.695,160.1936,,,160.4333,160.7678,left,,,,,,,,0.4,0.3183,,,,,,,160.1936,160.4332,160.7678,"[0.11437728104840304,0.08522228189317568]",100.0,"[-0.014575650070235629,-0.049469692867624517]",100.0,"[-0.031005581001160142,0.11216112752923774]",4.0,"[-0.17400709076953255,0.02348474969714726]",4.0,"[0.00616006700713223,-0.09276266006676345]",100.0,"[-0.03203909667986124,-0.10708684203798473]",4.0,"[0.07625645587625779,-0.011530078784335306]",100.0,"[-0.07684269624278584,0.055265945325731675]",4.0,"[-0.13904035059321462,0.12943125823982352]",100.0,"[-0.11769382804140076,-0.10158941662595779]",4.0,"[-0.08104882553895248,-0.07576021725079951]",4.0,"[-0.01884985031442023,0.07368387694032648]",100.0,"[0.08807314974248125,0.028447812717347195]",4.0,"[-0.04154968604632152,0.029415601386303662]",4.0,"[0.1704047774827951,0.03448456087689238]",100.0,"[0.16792096492367195,-0.04578885774651408]",100.0,"[-0.17885829396311836,-0.05366990615254953]",4.0,"[-0.11959390173696731,0.07153809178949848]",4.0,"[0.06838182834127109,0.18165355370044867]",4.0,"[0.07240133363851559,-0.05616100157208148]",100.0,"[0.02760328684760757,-0.039613434522442814]",100.0,"[-0.12249414542603998,-0.03856876882977203]",4.0,"[-0.010706613412751993,0.16713827831466865]",4.0,"[0.09872902581513814,-0.13169513842730388]",4.0,"[-0.12670648227017292,-0.14516378937623292]",4.0,"[0.025653411157882604,0.09521303828810583]",4.0,"[-0.07081679085639948,-0.010953552542751339]",4.0,"[0.047012916281949806,0.02065481334766067]",100.0,"[0.003986947965172786,-0.18250669352988266]",4.0,"[-0.06418753363424103,0.15330996812564604]",4.0,"[0.12931673182749384,-0.0289506616164714]",100.0,"[-0.11497479760320296,0.006844410342518955]",100.0,"[0.02,0.02]",161.866,0.0,22.0,22.0,161.0,1.0,,,,,,,
,,,,,,,67e18d3d9ae271b1719712c3,6846a85375e39dc6af24ce41,2025-06-09_05h29.30.748,shape_ratio,2024.1.5,Win32,59.88023952,684250e4f00cb30b92d1fa88,,,,,,,,,,,161.8668,162.3601,,,162.6109,162.7942,left,,,,,,,,0.9,0.168,,,,,,,162.3602,162.6108,162.7943,"[0.0044965039250087465,0.13477838725503566]",100.0,"[0.048538430268873084,0.053832593389572816]",100.0,"[-0.028483989746778328,-0.1673623554491816]",100.0,"[-0.1863830474257495,-0.05316353824644675]",100.0,"[0.005000196544050234,-0.08432434952249436]",100.0,"[-0.0760428554334738,-0.040304077327878364]",100.0,"[-0.12036576665647902,0.1423114079266411]",100.0,"[-0.00604882255384658,0.040730307017042805]",4.0,"[0.09348032459084916,0.17129858334337497]",100.0,"[0.11203431641734074,0.09700870796621482]",100.0,"[-0.08265242347565789,0.02554224197396713]",100.0,"[-0.19790830943962073,0.0056539626843325206]",100.0,"[0.16860082149871963,0.042593873225397774]",100.0,"[0.09510883121673515,-0.04984356789113542]",100.0,"[-0.17247893834084263,0.08405195025720645]",100.0,"[0.0437671199118814,-0.12871745416595365]",4.0,"[0.04429887910605204,0.09454731000396936]",100.0,"[-0.007961213241384298,0.08485976575648138]",100.0,"[0.047271286703182286,0.18500037679772438]",100.0,"[-0.03618680626117235,0.15626886035644685]",100.0,"[-0.02945191197922732,-0.01183568525685611]",100.0,"[-0.15273440825819098,-0.1287371888921528]",4.0,"[-0.05575132751111286,0.1164616233467479]",100.0,"[-0.12275068684060207,0.021181472618502995]",100.0,"[-0.1072724610330597,-0.14398903800322324]",100.0,"[0.11711836520781985,0.021102355071584866]",100.0,"[0.02960101916644387,-0.040911413329783375]",100.0,"[0.1650511726644528,-0.03777212623462688]",100.0,"[-0.026911167567564318,-0.11301296800546537]",100.0,"[-0.07533281162261843,0.1700234204058619]",100.0,"[0.11356969292921118,-0.13605575997596595]",100.0,"[-0.1332116579200234,-0.04509062121952838]",100.0,"[0.02,0.02]",163.8931,0.0,23.0,23.0,29.0,1.0,,,,,,,
,,,,,,,67e18d3d9ae271b1719712c3,6846a85375e39dc6af24ce41,2025-06-09_05h29.30.748,shape_ratio,2024.1.5,Win32,59.88023952,684250e4f00cb30b92d1fa88,,,,,,,,,,,163.8938,164.3932,,,164.632,164.817,left,,,,,,,,0.55,0.1683,,,,,,,164.3933,164.632,164.8172,"[-0.003882527641191564,0.10091608144427046]",4.0,"[-0.054360160527142556,0.05918432328419785]",100.0,"[-0.019006569052469065,-0.020501289347887242]",100.0,"[-0.009492822960553706,0.15345285299415018]",100.0,"[-0.1683775455868193,-0.08620284310816444]",100.0,"[0.034556035818115484,0.0724068341033426]",4.0,"[0.025766220245539914,-0.09592097707491207]",100.0,"[0.05966752212223415,-0.019232344387843384]",4.0,"[0.18348238212288073,-0.04820017075914914]",4.0,"[0.05583561939719566,0.1293090608224852]",4.0,"[-0.09715415517613363,-0.08161228041740906]",4.0,"[-0.07415974847072827,0.16219748840927123]",100.0,"[-0.03027627220348748,-0.15379025552544268]",100.0,"[-0.047371909930851774,-0.19151594770582242]",4.0,"[0.1024693736955131,-0.08811341640069484]",100.0,"[-0.05253455162527159,0.11067539184277199]",4.0,"[0.027288294045553503,-0.17759163432222985]",100.0,"[0.14365970162957697,0.010718562831201688]",100.0,"[-0.11542455298909089,0.11085794786428342]",4.0,"[-0.007311932831644972,0.05086885558067737]",100.0,"[0.13040438974008262,0.13458323247207113]",4.0,"[0.10670093123619384,-0.12802468600894054]",4.0,"[-0.1218109440157324,-0.02557089197390341]",100.0,"[-0.15501423698449054,0.04853520393718961]",4.0,"[0.15351832273904445,0.08896382471824361]",100.0,"[0.09319422517307266,0.1733224921825001]",100.0,"[-0.16143507990426365,0.09393989337164874]",100.0,"[0.0877733873240707,0.05807832400765529]",100.0,"[-0.14016140762260254,-0.1287913329484387]",4.0,"[0.19277221170488784,0.04104535381973265]",100.0,"[0.03431581371101854,0.1889295547533509]",4.0,"[-0.0597355656016832,-0.05025108978731103]",100.0,"[0.02,0.02]",165.9154,0.0,24.0,24.0,73.0,1.0,,,,,,,
,,,,,,,67e18d3d9ae271b1719712c3,6846a85375e39dc6af24ce41,2025-06-09_05h29.30.748,shape_ratio,2024.1.5,Win32,59.88023952,684250e4f00cb30b92d1fa88,,,,,,,,,,,165.9162,166.4095,,,166.6602,166.7589,left,,,,,,,,0.1,0.0812,,,,,,,166.4096,166.6601,166.7589,"[0.08736168927306813,-0.0692593813210172]",4.0,"[0.057844202659703636,-0.10833746985197491]",4.0,"[0.18424730799641012,-0.07667420076394031]",4.0,"[-0.14750178765720828,0.06988646621553836]",4.0,"[0.17781760759516138,0.033663362967116035]",4.0,"[0.0003593936147366042,0.08651775783747181]",4.0,"[0.030042592127985095,0.023402491146253642]",4.0,"[0.06292299114573223,0.18385979474966552]",4.0,"[-0.11409138396629195,-0.09302518440224594]",4.0,"[0.10104322544494297,0.0880393171049032]",4.0,"[0.019865599000253722,-0.18432959758230036]",100.0,"[-0.018919796033072905,-0.01914455867541297]",4.0,"[0.14935546005956005,-0.10249278817578791]",4.0,"[0.15382049250947694,0.11265981869208203]",4.0,"[-0.07235466283975993,0.15828148310084375]",4.0,"[0.12039773254907027,0.15329857571677966]",4.0,"[-0.06981614877533909,-0.12326771388387259]",100.0,"[-0.1670215326623925,-0.09988619253528352]",4.0,"[-0.03615150093724211,0.05683917494317719]",4.0,"[0.07001847303706424,-0.00859636101416007]",4.0,"[-0.09304152929625158,-0.0364850203289279]",4.0,"[-0.012590693701368581,0.15850659403799983]",4.0,"[-0.18298604293881368,-0.026497493745895422]",4.0,"[-0.04565427789500201,-0.08804203120501566]",100.0,"[0.05253373862661557,0.08569340492344842]",4.0,"[-0.08282707789128059,0.08473889460826792]",4.0,"[0.08854035650782702,-0.17343512816875029]",4.0,"[0.017291867482064488,-0.05880080440002395]",4.0,"[0.18792330366651744,-0.031847129419636806]",4.0,"[-0.0934399776586869,0.04208486461807375]",4.0,"[-0.037905218447112726,0.194424093825261]",4.0,"[0.18219697317407083,0.08039943703947004]",4.0,"[0.02,0.02]",167.8586,0.0,25.0,25.0,207.0,1.0,,,,,,,
,,,,,,,67e18d3d9ae271b1719712c3,6846a85375e39dc6af24ce41,2025-06-09_05h29.30.748,shape_ratio,2024.1.5,Win32,59.88023952,684250e4f00cb30b92d1fa88,,,,,,,,,,,167.8589,168.3585,,,168.6089,168.7085,right,,,,,,,,0.55,0.0822,,,,,,,168.3585,168.6088,168.7086,"[0.10344929751849223,0.01086138459501226]",100.0,"[-0.09394936711603852,-0.09687245128385624]",4.0,"[-0.18471970969067042,-0.00680057923954951]",4.0,"[-0.10966870505842227,0.021214836498426138]",4.0,"[-0.10192754475943773,0.10129665932409601]",4.0,"[-0.1831462362034015,0.07951983048546063]",4.0,"[0.049060522512385685,0.03076138489707003]",100.0,"[-0.0520145399273048,0.151586700709222]",100.0,"[0.06027258440151283,-0.06784002465819972]",4.0,"[-0.0468704818310066,-0.024966485208029816]",100.0,"[0.1208255258519182,0.05263641923747785]",4.0,"[0.011672815563911641,-0.056379920582113344]",100.0,"[-0.0591581258301599,-0.1628034142985923]",100.0,"[-0.10050597854608972,-0.16824886010372028]",4.0,"[0.08936496312397736,-0.10220175163920754]",100.0,"[0.13316798118694062,-0.04396696804241218]",100.0,"[0.012491179761879313,0.16857957034747226]",4.0,"[0.027697439148614666,-0.11039101166193954]",100.0,"[-0.012418660225479498,0.13492047679265243]",100.0,"[0.060719734005865236,0.1621484251524277]",4.0,"[0.023437141911292123,-0.1717782510016005]",4.0,"[0.1778443345087013,-0.038569289852749454]",100.0,"[0.13439590277787167,-0.11595074382945895]",4.0,"[-0.07456269110480788,0.06187658944443168]",100.0,"[-0.13559181745028137,0.13439434672445275]",100.0,"[-0.029183195447572537,-0.08475649935353607]",4.0,"[0.06068408773986062,-0.018165789897992023]",4.0,"[0.07195696285419693,0.08083672438233387]",100.0,"[-0.00674432527770223,0.06587208088128009]",100.0,"[0.1556370346934035,0.11977833027629907]",100.0,"[0.16299281916504196,-0.08685521668027935]",100.0,"[0.17596004873620957,0.012213290075787994]",100.0,"[0.02,0.02]",169.8083,0.0,26.0,26.0,64.0,1.0,,,,,,,
,,,,,,,67e18d3d9ae271b1719712c3,6846a85375e39dc6af24ce41,2025-06-09_05h29.30.748,shape_ratio,2024.1.5,Win32,59.88023952,684250e4f00cb30b92d1fa88,,,,,,,,,,,169.8086,170.3083,,,170.5584,170.6585,left,,,,,,,,0.1,0.0823,,,,,,,170.3083,170.5584,170.6585,"[0.17896446379314782,-0.05727463183879516]",4.0,"[0.06908436209087221,-0.1804756451646035]",4.0,"[-0.05549140624730547,0.013646040655365864]",4.0,"[0.1533908063152292,0.06821928782916165]",100.0,"[-0.18440249020124302,0.0390909198822095]",4.0,"[0.008812480250329447,-0.0350635024162673]",4.0,"[0.1107511157207163,-0.08299230097664015]",4.0,"[0.0648789710979741,-0.0012026760661983543]",4.0,"[-0.06159838944680541,-0.03706562689721794]",4.0,"[-0.03385674510519717,-0.19481008539855868]",4.0,"[0.10719567939192848,0.03873740509534634]",4.0,"[0.052909784736269755,0.03980873273665037]",4.0,"[0.06684424494010474,0.127595839526159]",4.0,"[-0.10255019650293952,-0.06973763738359597]",4.0,"[0.1420653245901543,0.0007922149544292675]",4.0,"[0.03338845331970752,0.17896013757708965]",4.0,"[-0.005633921720444293,-0.12201406219383955]",4.0,"[-0.033526075221535286,0.12734758759414117]",4.0,"[-0.09488776214940442,0.03846877273635441]",4.0,"[-0.14084315716299492,-0.09781574246867716]",100.0,"[-0.015062574574191856,0.014060924696912416]",4.0,"[0.019424850788839144,0.1006076536037387]",100.0,"[0.0802908594448213,0.17458540915196485]",4.0,"[-0.13509613305572699,0.02173834798635654]",4.0,"[0.0853465501730618,-0.1275950602345048]",4.0,"[-0.03157568522614471,0.06752459986130364]",4.0,"[-0.013058305278555801,-0.07854551272846833]",4.0,"[0.19604462962188288,-0.01972026991035422]",4.0,"[-0.145358285482859,-0.038343769451193145]",4.0,"[-0.07345170158407946,-0.1642782684787813]",4.0,"[-0.05814416575701975,-0.111310897045089]",4.0,"[-0.13117258352074976,-0.14573303051758793]",4.0,"[0.02,0.02]",171.7582,0.0,27.0,27.0,202.0,1.0,,,,,,,
,,,,,,,67e18d3d9ae271b1719712c3,6846a85375e39dc6af24ce41,2025-06-09_05h29.30.748,shape_ratio,2024.1.5,Win32,59.88023952,684250e4f00cb30b92d1fa88,,,,,,,,,,,171.7584,172.2581,,,172.5088,172.6417,right,,,,,,,,0.45,0.117,,,,,,,172.2581,172.5088,172.6417,"[0.11605730512005193,-0.057475636183812934]",100.0,"[-0.19300407505641778,-0.00784692281267152]",100.0,"[0.020810463513174685,-0.011561842741055052]",100.0,"[-0.1547208937133977,-0.06149081904876443]",100.0,"[0.07082122623590772,0.15226838140380552]",100.0,"[-0.06464289318102254,-0.021045529169125447]",4.0,"[-0.1299698866817931,0.12506243372668246]",100.0,"[-0.06376767097010973,-0.08146178333317186]",4.0,"[-0.01891911752750367,-0.1346384100883409]",4.0,"[-0.10665649157805615,-0.07504779215238569]",4.0,"[0.12970370126740785,0.05943464561615851]",100.0,"[0.032497312511378766,0.0413635299850003]",4.0,"[-0.17134687462019677,0.056151696278767343]",100.0,"[-0.04590578727015669,0.08330939876612449]",4.0,"[0.0067655587402276835,-0.17035917419787397]",100.0,"[-0.12640818964980588,0.023024572196891704]",100.0,"[0.08989251016516618,0.010195192852017834]",4.0,"[-0.0087307028495778,0.1046064350061173]",100.0,"[-0.07806005729931985,0.11255723051894274]",4.0,"[0.06246002152647948,-0.18845176148545303]",4.0,"[0.1761772967839739,0.0020960141071902577]",4.0,"[0.08578265991358718,0.0945051876475125]",100.0,"[-0.01792223737250968,-0.033004153665790105]",4.0,"[-0.08376401049079693,-0.13055184401361525]",4.0,"[0.04540236989315064,-0.08258057850660071]",100.0,"[0.11306594369383328,-0.13670433454173903]",4.0,"[0.18032690860151693,-0.04939838520765863]",100.0,"[-0.07202271249746117,0.1728919499255326]",4.0,"[0.0018880366833666795,0.184156849279924]",4.0,"[0.19140934866481632,0.051032905770348386]",4.0,"[0.1374358182569018,-0.09300606542672123]",4.0,"[-0.08541257344583512,0.06288804124763112]",4.0,"[0.02,0.02]",173.7418,0.0,28.0,28.0,148.0,1.0,,,,,,,
,,,,,,,67e18d3d9ae271b1719712c3,6846a85375e39dc6af24ce41,2025-06-09_05h29.30.748,shape_ratio,2024.1.5,Win32,59.88023952,684250e4f00cb30b92d1fa88,,,,,,,,,,,173.7425,174.2414,,,174.4919,174.5248,right,,,,,,,,0.5,0.0253,,,,,,,174.2414,174.4919,174.5249,"[0.02655552029780502,0.0310998991961728]",100.0,"[-0.14121136391542904,-0.07053953887112198]",100.0,"[0.06330710397146308,-0.08371377587214789]",100.0,"[-0.13026027944459578,-0.013032604499396248]",100.0,"[0.1731634351141716,-0.049673359892767825]",4.0,"[0.08975850476680641,-0.14496852885211936]",4.0,"[-0.10210154533840698,0.11994709240480693]",100.0,"[-0.07755821126783216,-0.14894196428882434]",4.0,"[0.17300944936807644,-0.006701295443581778]",4.0,"[-0.014906536125783566,-0.17361558980524025]",4.0,"[0.015245780172175453,0.14193021672279552]",100.0,"[-0.054264311702127005,-0.05641445462351294]",4.0,"[-0.06008397285825379,0.15658639331795846]",100.0,"[-0.049590375427778284,0.11722022584809141]",100.0,"[0.1296526685504393,-0.09400574388698175]",4.0,"[-0.035529240713074874,-0.018683105308436438]",4.0,"[0.1403115069113622,0.10291169523814636]",100.0,"[0.03949956487201843,-0.01024102289599804]",100.0,"[0.09056925529569569,0.14788665559048159]",4.0,"[0.09717284605541376,-0.04726073657156484]",100.0,"[0.0018364159847841259,-0.06951324755930262]",100.0,"[-0.09483366818704428,0.03001353070828924]",4.0,"[0.02244275400620975,0.19738457653527097]",4.0,"[0.0506483932438887,0.1178881592599605]",4.0,"[-0.14031218266405035,0.06391358655106838]",4.0,"[-0.017488505503500902,0.02974504772830373]",4.0,"[0.0943472861237249,0.06540033114137067]",4.0,"[-0.17337423043169467,0.027538054833705018]",100.0,"[-0.14416596315424215,0.13494867771483343]",100.0,"[0.03648102100298134,-0.13641606400080714]",4.0,"[-0.13805650509653078,-0.11538908692599098]",100.0,"[-0.02957861400917029,0.07744791837589185]",100.0,"[0.02,0.02]",175.6253,0.0,29.0,29.0,94.0,1.0,,,,,,,
,,,,,,,67e18d3d9ae271b1719712c3,6846a85375e39dc6af24ce41,2025-06-09_05h29.30.748,shape_ratio,2024.1.5,Win32,59.88023952,684250e4f00cb30b92d1fa88,,,,,,,,,,,175.6264,176.1244,,,176.376,176.4085,left,,,,,,,,0.5,0.0175,,,,,,,176.1244,176.3758,176.4086,"[-0.012425415101875077,-0.19197979991866304]",4.0,"[-0.16557606553045215,0.0021259941237808237]",100.0,"[-0.05503316470224504,-0.11070620467712039]",4.0,"[0.034108312516673,0.08329797883487826]",100.0,"[-0.1464911907732683,-0.060811807535460935]",4.0,"[-0.07047203517843635,0.0737629291670203]",100.0,"[0.02705252060576304,0.03626325053246483]",100.0,"[0.11976806179107186,0.08252719767869227]",100.0,"[0.08643880491197067,-0.1513038634644834]",4.0,"[-0.010515348643353857,0.15037281718368808]",4.0,"[-0.09664296368056095,-0.048490571790049036]",100.0,"[0.10013768793933393,-0.06071189927134187]",100.0,"[-0.0864493436631355,0.03649129423620692]",4.0,"[0.030412159100659426,-0.04870288102117199]",4.0,"[-0.0028655040180633113,-0.10999307589389488]",100.0,"[0.13542113706879091,0.04092078679938433]",4.0,"[0.04090278024637467,-0.1473439679086209]",100.0,"[0.14786085539790045,0.13106424450070336]",4.0,"[-0.025686190447688773,-0.07561513001521798]",100.0,"[0.07930526904066422,0.1662407863438794]",100.0,"[0.19908230758322268,-0.0011092535074973212]",100.0,"[0.15988476189928522,-0.10133706648090206]",4.0,"[-0.018311549094618965,0.11112766181295067]",4.0,"[-0.12303076840296236,-0.0037997208552575197]",4.0,"[-0.09094783156813305,0.11083983116278309]",100.0,"[-0.10598462263217485,-0.0967674346955053]",4.0,"[0.04948442967848441,-0.010913845411006538]",4.0,"[0.01374612681674287,0.19394406035823716]",100.0,"[-0.12196363800734865,0.06335067884357377]",4.0,"[-0.02461321554945117,0.043012239518794924]",100.0,"[-0.1552704129713707,0.10424323477987368]",100.0,"[-0.07763513564236277,-0.1578412845013223]",4.0,"[0.02,0.02]",177.5081,0.0,30.0,30.0,91.0,1.0,,,,,,,
,,,,,,,67e18d3d9ae271b1719712c3,6846a85375e39dc6af24ce41,2025-06-09_05h29.30.748,shape_ratio,2024.1.5,Win32,59.88023952,684250e4f00cb30b92d1fa88,,,,,,,,,,,177.5089,178.0081,,,178.2588,178.4085,right,,,,,,,,0.1,0.1342,,,,,,,178.0082,178.2588,178.4086,"[-0.07292581268092596,0.07524764248769894]",4.0,"[-0.04715438819156278,-0.16078407309687312]",4.0,"[0.052871013856888506,-0.001944485505359417]",4.0,"[-0.023718844433433642,0.028899038408547073]",4.0,"[-0.11471974412045904,0.08436756362022234]",4.0,"[0.12231596913095566,0.10597118318611994]",4.0,"[0.07558418928352142,0.17945812286395404]",4.0,"[-0.01913825546633142,0.11919663455266079]",4.0,"[-0.05477964336495958,-0.022618193845712464]",4.0,"[0.0417669168663109,0.055293996107520865]",4.0,"[0.19157752411603618,0.0062734240959410395]",4.0,"[0.07941994753041164,-0.11409119670853293]",4.0,"[-0.163891352929947,0.10155627106242636]",4.0,"[0.017432752208971808,0.19876020549587095]",4.0,"[-0.18130556006957346,-0.007900775996355485]",4.0,"[0.020388159422035555,-0.13845582125933964]",4.0,"[0.11048064239780733,-0.0033318044877631236]",4.0,"[-0.06302288137657548,-0.1185938817771653]",4.0,"[-0.10495699381792949,0.011745397500658391]",4.0,"[0.13366932214319782,-0.03808863597951471]",100.0,"[-0.1290178067027485,-0.06890694767994382]",4.0,"[-0.1211065826509653,0.15170968536373824]",4.0,"[-0.14305394014050327,0.027465832470409946]",4.0,"[-0.003946395449136625,-0.09176669870848744]",4.0,"[-0.14171646156438283,-0.13828536357397855]",4.0,"[0.1494350257040375,0.06491588282464117]",4.0,"[-0.07026405106489846,0.13561864111922026]",4.0,"[0.12005127910390317,-0.10934848365664225]",4.0,"[0.14737950918447548,0.016166126659602573]",4.0,"[-0.10619282012934332,-0.1651675717501308]",100.0,"[0.00941253074549918,0.14991268052706225]",100.0,"[-0.09724646739219886,-0.03640695605232002]",4.0,"[0.02,0.02]",179.5077,0.0,31.0,31.0,185.0,1.0,,,,,,,
,,,,,,,67e18d3d9ae271b1719712c3,6846a85375e39dc6af24ce41,2025-06-09_05h29.30.748,shape_ratio,2024.1.5,Win32,59.88023952,684250e4f00cb30b92d1fa88,,,,,,,,,,,179.5087,180.0079,,,180.2593,181.4415,left,,,,,,,,0.4,1.1725,,,,,,,180.008,180.2592,181.4415,"[-0.06943766786592803,0.03233564336290215]",100.0,"[0.0327749752121964,-0.074305482408652]",4.0,"[-0.16438159784748518,-0.06316109510022203]",100.0,"[0.046307914374955156,-0.19194621758112912]",100.0,"[-0.02630776756953632,0.19633442598860337]",100.0,"[-0.05817412946703698,-0.10372926837931828]",4.0,"[0.022049268943884703,0.16067930168784703]",4.0,"[0.08984290743027369,0.09348855058504144]",4.0,"[-0.14238469896640937,0.08654265029353672]",4.0,"[0.031571031113152626,0.015269615968136087]",100.0,"[0.08211999855411035,-0.13424201198472907]",4.0,"[-0.06357903880010846,-0.05515265282961636]",100.0,"[-0.19594673191911688,0.006051786899072115]",100.0,"[-0.08389902259998923,0.12207845851006625]",4.0,"[0.06778547957481766,0.16506540137897913]",4.0,"[-0.052824414164947535,0.07980978009056049]",100.0,"[-0.13589625730765786,-0.027539689013813522]",4.0,"[-0.012991302739095725,-0.007358185068241588]",4.0,"[0.09131173969375113,-0.03271025785870341]",4.0,"[-0.0065361402162084125,0.06626908617168772]",4.0,"[0.10444318228009139,0.014096083654749118]",4.0,"[0.030237155740937216,-0.12377595350806764]",100.0,"[-0.10863182551592572,-0.09402514581983826]",100.0,"[-0.02162260867783623,0.11158355573272728]",100.0,"[0.11406008393221742,-0.08496913273092609]",100.0,"[0.15837756852824034,0.009522745369717178]",4.0,"[-0.04018927381664228,-0.17957417436086753]",4.0,"[0.17358690194118714,-0.08393037956920123]",4.0,"[0.13614034372497283,0.05644491683975584]",4.0,"[-0.12184219473015842,-0.13909657905416006]",4.0,"[-0.16904983381842353,0.05193930688605997]",100.0,"[0.14014420531606375,0.1016082766977544]",4.0,"[0.02,0.02]",182.5409,0.0,32.0,32.0,167.0,1.0,,,,,,,
,,,,,,,67e18d3d9ae271b1719712c3,6846a85375e39dc6af24ce41,2025-06-09_05h29.30.748,shape_ratio,2024.1.5,Win32,59.88023952,684250e4f00cb30b92d1fa88,,,,,,,,,,,182.5417,183.0408,,,183.2915,183.3421,left,,,,,,,,0.1,0.0422,,,,,,,183.0409,183.2914,183.3422,"[0.10466625949232589,0.11844582134392546]",4.0,"[-0.1713065507698246,0.015523276104369587]",4.0,"[-0.1109073514900899,0.05544640641159554]",4.0,"[-0.06936293574408993,0.05678456629616722]",4.0,"[-0.09742572546348623,-0.06562090178781732]",4.0,"[0.08761178382113213,0.08044793314536583]",4.0,"[0.17101530159026967,-0.032942512131106626]",4.0,"[-0.019326163511593518,0.02770147281389129]",4.0,"[-0.06523976750133573,0.17889232551649806]",4.0,"[0.02959420464418077,-0.1449617815321569]",4.0,"[-0.023058021381619536,0.1289363018900502]",4.0,"[0.08376068236241777,-0.08962477841234213]",4.0,"[0.1321796013314161,0.07672584261730851]",100.0,"[0.10586763522957537,-0.03186066509825051]",4.0,"[-0.008453707185790268,-0.16015505982805975]",4.0,"[-0.14398946742551358,-0.09681979635652246]",100.0,"[-0.03927050351153312,-0.13438142566002784]",4.0,"[0.17701929508609765,0.029375869838130852]",4.0,"[0.1335901996081209,-0.1365596813775597]",4.0,"[-0.12677972195621734,-0.0311996845975129]",4.0,"[0.003298954226408985,-0.07238826038454056]",4.0,"[-0.02849447737673294,0.07339614741148395]",4.0,"[-0.06505173533827006,-0.005521125663450581]",4.0,"[0.01687927210082861,0.14936063537867736]",4.0,"[0.09348568613833569,-0.1541158574008007]",4.0,"[0.15256433443709677,0.11238447905218055]",4.0,"[-0.1664435753178772,0.07936964776667291]",4.0,"[-0.08204547985772659,0.09665389221953301]",4.0,"[-0.11250331001239448,-0.16310914911915714]",100.0,"[-0.10603585733479763,0.14835215774436433]",4.0,"[0.0609783495623181,0.12764837416735636]",4.0,"[-0.17711941972343656,-0.037913973534232426]",4.0,"[0.02,0.02]",184.4407,0.0,33.0,33.0,182.0,1.0,,,,,,,
,,,,,,,67e18d3d9ae271b1719712c3,6846a85375e39dc6af24ce41,2025-06-09_05h29.30.748,shape_ratio,2024.1.5,Win32,59.88023952,684250e4f00cb30b92d1fa88,,,,,,,,,,,184.4414,184.9408,,,185.1913,185.2734,left,,,,,,,,0.6,0.0669,,,,,,,184.9408,185.1913,185.2736,"[-0.11578617261394883,-0.11855482173125005]",4.0,"[-0.15463127086440304,0.06772738147465251]",100.0,"[0.1704811468631054,0.032568320902160906]",100.0,"[-0.055051024251891574,0.12115615957056693]",100.0,"[0.0017935772426068888,0.05137222574052939]",4.0,"[0.04146410864110055,-0.07635146917723333]",4.0,"[-0.018793880990254055,0.010276761166414638]",100.0,"[0.03614562098099029,-0.1829366483360118]",4.0,"[0.13792939564095946,-0.019211898529406902]",100.0,"[-0.03649709715996454,-0.07092110084342844]",100.0,"[-0.010513496430090643,0.0918866468143095]",4.0,"[-0.09273440114804068,-0.16684990096397162]",4.0,"[0.06569192487294301,0.18234371026444415]",4.0,"[0.19147944845394532,-0.011572894284501162]",4.0,"[-0.10087876740317961,-0.023446064078600334]",4.0,"[0.1622213277688768,-0.06321782254112415]",4.0,"[-0.09496045336499276,0.097353633717084]",4.0,"[0.09807574044073958,0.15262576483094104]",100.0,"[0.12498440274226645,0.020143705716479554]",100.0,"[-0.04607933569771081,-0.1508843081361468]",100.0,"[0.061589555250118846,0.053287793184566716]",100.0,"[0.15493898839040648,-0.10587295364577126]",100.0,"[-0.07162047005328319,0.041607269438414994]",4.0,"[-0.013901358444741833,-0.19559481670098117]",100.0,"[-0.04177788687107851,0.1685390191924963]",4.0,"[-0.0006786549607104867,-0.1459851587248538]",100.0,"[-0.17529693145830882,-0.016593603067695594]",100.0,"[-0.10460672798553565,-0.06609175561810067]",100.0,"[0.031425487544155674,0.1584993727362998]",100.0,"[-0.08489884011521767,0.17052871196116925]",100.0,"[0.15083273218025406,0.07029916859558401]",100.0,"[0.0599258052087206,0.11007185206331081]",100.0,"[0.02,0.02]",186.3736,0.0,34.0,34.0,35.0,1.0,,,,,,,
,,,,,,,67e18d3d9ae271b1719712c3,6846a85375e39dc6af24ce41,2025-06-09_05h29.30.748,shape_ratio,2024.1.5,Win32,59.88023952,684250e4f00cb30b92d1fa88,,,,,,,,,,,186.375,186.8736,,,187.1243,187.241,left,,,,,,,,0.9,0.103,,,,,,,186.8737,187.1243,187.2412,"[-0.03625933149159357,-0.14956690328576647]",100.0,"[-0.030654228772843534,-0.19103735754053977]",100.0,"[-0.06738159386975405,-0.02505029444936785]",100.0,"[-0.01676243058326678,0.07036920505938118]",100.0,"[-0.1343282877882129,0.033491705983532384]",100.0,"[-0.04632281365750332,-0.0609937219441406]",100.0,"[-0.06825929406853075,0.08585200766412424]",4.0,"[-0.08748079124780966,-0.0691467997628453]",4.0,"[0.13949150196143809,-0.10597348601853364]",100.0,"[-0.1263540482195298,0.11370490412549768]",100.0,"[0.19911570891972621,0.016814164139890345]",100.0,"[0.1048334401052816,-0.05300841498384523]",100.0,"[0.17536776241191193,0.06859593282546185]",100.0,"[0.031467515134011304,-0.045749428660676036]",100.0,"[0.01824459760419102,0.1829418530008163]",100.0,"[-0.09446529965356715,0.15320961090794105]",100.0,"[0.1029658760042885,-0.1300961880443221]",100.0,"[-0.15708897968160793,0.06881554177313112]",100.0,"[0.11283899728420578,0.014979416510649095]",100.0,"[-0.1881762623450932,-0.024131351336397426]",100.0,"[0.053005081139885904,0.09132507702383638]",100.0,"[0.07357342301251571,0.15019782541445167]",100.0,"[-0.1263342688053188,-0.020780837520429234]",100.0,"[-0.049455019228217205,0.034446060779885865]",100.0,"[0.03383527109380337,-0.16076699328081737]",4.0,"[-0.002192437916511663,0.1372945059050657]",100.0,"[-0.01151473715293261,-0.08824416407877424]",100.0,"[-0.1562602278966416,-0.06864014882333667]",100.0,"[0.11791049361316759,0.1320943781175266]",100.0,"[-0.11111696746261103,0.06868143061545469]",100.0,"[-0.14717254832432952,-0.12843292721305355]",100.0,"[0.15389567705257357,0.028292604696289008]",100.0,"[0.02,0.02]",188.3402,0.0,35.0,35.0,25.0,1.0,,,,,,,
,,,,,,,67e18d3d9ae271b1719712c3,6846a85375e39dc6af24ce41,2025-06-09_05h29.30.748,shape_ratio,2024.1.5,Win32,59.88023952,684250e4f00cb30b92d1fa88,,,,,,,,,,,188.3411,188.84,,,189.0907,189.2406,left,,,,,,,,0.9,0.134,,,,,,,188.8401,189.0905,189.2407,"[0.1460541982293276,-0.007747016923235333]",4.0,"[-0.07832895702187731,0.06473022921904323]",4.0,"[0.12405485159237076,0.06981299364970914]",100.0,"[0.06615372360345707,0.009828831719586548]",100.0,"[0.010703683309918648,0.015331451169187627]",100.0,"[-0.040122134153840555,0.12400618821637786]",100.0,"[-0.07033250262960165,-0.12784974228203805]",100.0,"[0.07716747232234777,-0.10139669684559476]",100.0,"[0.0006752453296965071,0.1338058695733101]",100.0,"[0.03251035454072183,-0.05213114615032282]",100.0,"[-0.05458198753274457,0.029413050005268726]",100.0,"[-0.18145705666361447,-0.08190253210805729]",100.0,"[-0.02277322630919198,-0.09468761409249342]",100.0,"[0.019538760128406007,-0.16876999636174086]",100.0,"[-0.08678218594880874,0.13866612023262792]",100.0,"[-0.06313007570630304,-0.07679285539213179]",100.0,"[0.17885895504393975,0.020340819217388267]",100.0,"[0.0009281745975603425,0.07303917402302658]",100.0,"[-0.02236726265850811,-0.18874410891337667]",100.0,"[0.09463877853462085,0.15357620859589924]",100.0,"[-0.044338983690355604,-0.034198303860958075]",100.0,"[-0.0978154827539433,-0.05652936363196033]",4.0,"[0.046100480120296876,0.12057902205407997]",100.0,"[0.07353733547059893,-0.1469000247237371]",100.0,"[0.15114571336773266,-0.11072811472107645]",100.0,"[-0.16575825440564373,-0.03458778180849379]",100.0,"[-0.11126798732818524,-0.15156349898890087]",100.0,"[0.17637987622328585,0.06720761079543196]",100.0,"[0.09916367069139213,-0.021928619191831644]",100.0,"[0.11020523408370862,0.021512121176212453]",100.0,"[-0.15746648938904254,0.008714496826471735]",100.0,"[-0.13068027807221372,0.04520162497157315]",100.0,"[0.02,0.02]",190.3399,0.0,36.0,36.0,5.0,1.0,,,,,,,
,,,,,,,67e18d3d9ae271b1719712c3,6846a85375e39dc6af24ce41,2025-06-09_05h29.30.748,shape_ratio,2024.1.5,Win32,59.88023952,684250e4f00cb30b92d1fa88,,,,,,,,,,,190.3415,190.8399,,,191.0909,191.3567,left,,,,,,,,0.45,0.2571,,,,,,,190.8399,191.0908,191.3569,"[0.08490355268539765,0.1269701232151075]",4.0,"[0.15728621537732027,0.04864813178062958]",100.0,"[0.04953805374127714,-0.19317649546497487]",100.0,"[-0.03351846332879202,-0.1280828432015827]",100.0,"[0.08144300568673649,0.059057907752493026]",100.0,"[-0.07440172223170684,-0.14446203391983925]",4.0,"[-0.12718624824651706,-0.092004208619433]",100.0,"[-0.0356096044888991,-0.06070869805931528]",4.0,"[-0.08918295792985131,0.12295738892229]",100.0,"[0.020765129293872482,-0.09399171114468172]",4.0,"[0.07224076016412294,-0.032998678071521105]",4.0,"[0.0007519186103875929,0.177271521459986]",100.0,"[0.008984223485038184,-0.18965701912844796]",4.0,"[-0.03183906106793019,0.04817124989106933]",4.0,"[0.03034060652161649,0.0595008169899437]",100.0,"[-0.18213941939787004,-0.04322591974584382]",100.0,"[-0.16295188686947887,0.0350718388917048]",4.0,"[-0.10040646943200236,-0.0297388768793154]",100.0,"[-0.048320297131174604,0.11976995568061827]",4.0,"[-0.11130578785716432,0.010339027503993004]",4.0,"[0.08352455325335055,0.17535312847053833]",100.0,"[-0.12219130154457648,-0.1372408920864039]",100.0,"[-0.10247955733506432,0.05093864664199775]",100.0,"[0.043506950738593696,0.018425885865570903]",4.0,"[-0.0013055406353530013,0.09094474479160719]",4.0,"[-0.07870949172547474,0.16317067130698945]",100.0,"[0.15280526548761705,-0.11397986826787715]",4.0,"[0.09655710747369953,-0.1442556414862652]",4.0,"[0.19052659000236202,-0.02681764182687328]",4.0,"[0.1341150525243401,0.011311156033795847]",4.0,"[-0.06545233563063621,-0.18354400017968048]",4.0,"[-0.1575614851017984,0.09630070947976119]",4.0,"[0.02,0.02]",192.4563,0.0,37.0,37.0,121.0,1.0,,,,,,,
,,,,,,,67e18d3d9ae271b1719712c3,6846a85375e39dc6af24ce41,2025-06-09_05h29.30.748,shape_ratio,2024.1.5,Win32,59.88023952,684250e4f00cb30b92d1fa88,,,,,,,,,,,192.4572,192.9563,,,193.2067,193.3235,right,,,,,,,,0.1,0.1023,,,,,,,192.9564,193.2066,193.3237,"[-0.1463106478345569,0.11787328032759813]",4.0,"[0.05433624252544506,0.10045861858842438]",4.0,"[0.12299682136246026,-0.03349977972131077]",4.0,"[-0.1560049239400622,-0.002388823952839617]",4.0,"[-0.1206515156911171,-0.05067586473437193]",4.0,"[-0.16317673583396095,-0.09167702497081705]",4.0,"[-0.03101942553014653,-0.12886546196810364]",4.0,"[-0.19221596860368026,-0.019444160855983866]",4.0,"[-0.07515157514648162,-0.07527894519149471]",4.0,"[0.01700829470743961,0.16861796720702715]",4.0,"[-0.11818907058051571,0.06301626316761219]",4.0,"[-0.01062775634885602,-0.09436179509696488]",4.0,"[-0.09806824648988177,-0.12487237452141178]",4.0,"[0.05793958979631031,-0.04092170033792663]",4.0,"[-0.0022012909312489836,0.03982134461639723]",4.0,"[0.08197917859595799,-0.120090575650071]",4.0,"[0.03619586453685515,-0.18852366915678256]",4.0,"[0.15092555943128574,0.060507788140472724]",4.0,"[0.11602445306591846,0.14730147240131608]",4.0,"[0.15877204830219435,-0.11319141512413369]",4.0,"[-0.02583144595633915,0.005884736244135013]",4.0,"[-0.06656741761798393,-0.16969055013937598]",4.0,"[0.05379816670934126,0.03510192176279972]",4.0,"[-0.02909123866994419,0.11928029665715689]",100.0,"[0.15113901121062193,0.009859961437713591]",4.0,"[-0.14022370893320055,-0.13005875457803137]",4.0,"[0.16578754588955066,-0.04021066306818049]",4.0,"[0.03514212378069695,-0.0907406276232638]",100.0,"[-0.08203811184464922,0.13013856758709944]",4.0,"[0.11976132611178064,-0.150250505320444]",4.0,"[-0.024089376856415504,-0.17519342564601503]",4.0,"[-0.12451763398866861,0.1541226275490254]",100.0,"[0.02,0.02]",194.4226,0.0,38.0,38.0,206.0,1.0,,,,,,,
,,,,,,,67e18d3d9ae271b1719712c3,6846a85375e39dc6af24ce41,2025-06-09_05h29.30.748,shape_ratio,2024.1.5,Win32,59.88023952,684250e4f00cb30b92d1fa88,,,,,,,,,,,194.4236,194.9229,,,195.1735,195.3895,left,,,,,,,,0.6,0.208,,,,,,,194.9229,195.1734,195.3898,"[-0.17545666272117708,-0.08194700012943285]",100.0,"[-0.031473036054003346,0.1651526574648934]",100.0,"[-0.059637642165544576,-0.1450868098036988]",4.0,"[-0.0344977235588236,-0.018537276786033022]",100.0,"[-0.18037708697479837,0.013583855522553919]",100.0,"[0.08680819192429035,-0.09143170697570824]",100.0,"[0.07048101730576227,0.10588727923828277]",4.0,"[0.062444877933090996,0.03309053382644322]",100.0,"[0.08474074311271768,-0.15085316586257133]",100.0,"[-0.1588699388675549,0.05603150445434859]",4.0,"[0.19579385636265623,0.022449359200332523]",4.0,"[0.11486884428271119,0.1037070408028168]",100.0,"[0.02104713011701283,0.1630434802275462]",100.0,"[-0.10839717078125423,-0.08758542135624484]",4.0,"[-0.05054897612513005,0.053205508231468954]",100.0,"[-0.005694618820620874,0.009415019176123605]",100.0,"[-0.07198111416779925,0.1347532303276998]",4.0,"[-0.01332729052863666,0.10162388148286407]",100.0,"[-0.08675948460627363,0.009296255682853022]",100.0,"[0.004289760143349773,0.04972801123792939]",100.0,"[-0.15428029267754523,0.12671461860951916]",100.0,"[-0.11486430051014325,-0.019701812021051684]",100.0,"[-0.03676002457101731,-0.0595530227730026]",4.0,"[-0.09742938280706706,0.1000122892245394]",4.0,"[0.12972449191387414,0.008996246995303311]",100.0,"[0.0025627575963237015,-0.1863500303193053]",4.0,"[0.0020932599791088644,-0.07050427066545341]",100.0,"[-0.11945286991552083,-0.1350557932283541]",4.0,"[0.08083769196415351,0.17387346395651881]",4.0,"[-0.18328849022183671,-0.03390257922599005]",100.0,"[0.1874143622364551,-0.03126156867999411]",4.0,"[0.1101217944290935,0.059843070095773006]",4.0,"[0.02,0.02]",196.489,0.0,39.0,39.0,33.0,1.0,,,,,,,
,,,,,,,67e18d3d9ae271b1719712c3,6846a85375e39dc6af24ce41,2025-06-09_05h29.30.748,shape_ratio,2024.1.5,Win32,59.88023952,684250e4f00cb30b92d1fa88,,,,,,,,,,,196.49,196.9888,,,197.2397,197.3728,right,,,,,,,,0.1,0.119,,,,,,,196.9888,197.2397,197.3729,"[0.17257752270137058,0.07257959458447434]",4.0,"[-0.056681165077665664,-0.11804486113266645]",4.0,"[-0.009620728651207522,0.09205392907443512]",4.0,"[-0.09865687375862747,0.11070865006116284]",4.0,"[0.04275192811587825,-0.017178294135434143]",4.0,"[0.037858055082296345,-0.10781323526712298]",4.0,"[-0.01530961329023624,0.13189760957548577]",4.0,"[-0.13192564183332858,-0.03994214202278427]",4.0,"[0.13134892278636714,-0.14870984175950253]",4.0,"[0.1721225009309885,-0.060059778975382734]",4.0,"[-0.16195197226714447,0.03414456346077276]",4.0,"[0.16946775024504857,0.03172000716678488]",4.0,"[0.08536717868626748,-0.052411102287420235]",4.0,"[-0.05129299497046674,0.16795577721055338]",4.0,"[-0.005263794462247608,0.013011177495709203]",4.0,"[-0.14576701994982472,-0.12618351483222515]",4.0,"[0.12735841365796868,0.04158530427802202]",4.0,"[0.04128809176096335,0.11742243793273682]",4.0,"[-0.159024425508486,-0.07163059468669118]",4.0,"[-0.12687031726394657,0.005374694238239795]",100.0,"[0.08043022220071798,0.08714635241721934]",4.0,"[0.13022258242698495,-0.0009983807067281093]",4.0,"[0.05097182581151776,0.19136565953595902]",4.0,"[0.10402746060291108,0.1294341198079647]",100.0,"[-0.07605507540716215,-0.17276424546561547]",4.0,"[0.051407502276920224,0.029991437198672272]",4.0,"[0.08547800641233433,-0.16459233939596493]",4.0,"[-0.04373060335396903,-0.039966781584633994]",4.0,"[0.037854589181457975,-0.1920653453944097]",4.0,"[-0.1541985288952833,0.1214898326761047]",4.0,"[0.15361378524727498,-0.09587185381725853]",100.0,"[-0.08949641264983202,0.06656814787919481]",4.0,"[0.02,0.02]",198.472,0.0,40.0,40.0,201.0,1.0,,,,,,,
,,,,,,,67e18d3d9ae271b1719712c3,6846a85375e39dc6af24ce41,2025-06-09_05h29.30.748,shape_ratio,2024.1.5,Win32,59.88023952,684250e4f00cb30b92d1fa88,,,,,,,,,,,198.4728,198.9721,,,199.2225,199.3723,left,,,,,,,,0.9,0.1399,,,,,,,198.9722,199.2225,199.3725,"[0.11899269929347599,-0.09039348000486971]",100.0,"[0.07738996466776998,-0.13986373193066495]",100.0,"[0.005307810456813602,0.10401075851139839]",4.0,"[-0.022160390061399658,0.18594316812199077]",100.0,"[-0.14011798405030418,0.01350236014258574]",100.0,"[0.0139378527500689,0.008200784601051694]",100.0,"[0.004253176668193844,0.14425254189852607]",100.0,"[-0.1519823738318043,-0.07006625707450394]",100.0,"[0.153814925055202,-0.06477238457917431]",100.0,"[-0.11226431045162638,-0.03693676432220706]",100.0,"[-0.0840737063087101,0.05249963566304856]",100.0,"[0.04053427803602434,-0.06142227139741754]",100.0,"[-0.03669874671238939,-0.12150652144320145]",100.0,"[0.02888724664832819,-0.13631394996606405]",4.0,"[0.007968977315336988,-0.18601201631263498]",100.0,"[0.08185755800629833,-0.008210075889325583]",100.0,"[0.04948205432967427,0.19009022648296536]",100.0,"[-0.1821628117234794,0.0019566448621968356]",100.0,"[0.1320111646038722,0.08235766010406864]",100.0,"[-0.0018884991113759498,-0.07673554008770855]",100.0,"[-0.03308660499948,0.038410310736995724]",100.0,"[0.016992661883151135,0.05483693982763452]",100.0,"[0.19051679432759883,-0.01651297776821976]",100.0,"[-0.08301329232969132,0.010506970858009326]",100.0,"[-0.12195453301904938,0.13017520824586962]",100.0,"[-0.0362950209568855,-0.04450434789766821]",100.0,"[0.16199468274438628,0.11724621918884497]",4.0,"[-0.07472684582471098,0.11547808432463626]",100.0,"[-0.14340061195703724,-0.11270743404511466]",100.0,"[-0.07557343282977327,-0.057514534468163514]",100.0,"[0.05468028900828882,0.13381672235750652]",100.0,"[-0.07710170482718286,0.17033965843558369]",100.0,"[0.02,0.02]",200.4718,0.0,41.0,41.0,27.0,1.0,,,,,,,
,,,,,,,67e18d3d9ae271b1719712c3,6846a85375e39dc6af24ce41,2025-06-09_05h29.30.748,shape_ratio,2024.1.5,Win32,59.88023952,684250e4f00cb30b92d1fa88,,,,,,,,,,,200.4727,200.9719,,,201.2227,201.3559,right,,,,,,,,0.1,0.1165,,,,,,,200.972,201.2227,201.356,"[0.15414641729401382,0.09947525492969966]",100.0,"[-0.04534970859572462,0.11226120423548587]",4.0,"[0.10824513408339442,0.05642467100786746]",4.0,"[-0.007634522287327114,0.12919258841165174]",4.0,"[-0.12934898414535934,-0.10541256244514224]",4.0,"[0.061165724424790395,0.0989713061778993]",4.0,"[-0.16455032927787525,-0.05312930267695891]",4.0,"[0.06053149199924061,0.031510358375821564]",4.0,"[-0.19299412730614288,-0.015269825575565143]",4.0,"[-0.15401946452274046,0.11870801964471377]",4.0,"[0.003690313968726915,0.18684489304293658]",4.0,"[0.036608806662052254,-0.17021754977913614]",4.0,"[-0.11237350932284947,-0.06424748378747376]",100.0,"[0.07399383262128449,-0.1436559231124983]",4.0,"[0.01653648912454694,-0.12745097222348067]",4.0,"[-0.09993204018617453,0.07303749270563553]",4.0,"[-0.10185021174089927,0.14822697823327657]",4.0,"[-0.06394103514372514,-0.008212184799954367]",4.0,"[-0.06943410524392654,-0.09991276207422153]",100.0,"[-0.011658506516848004,-0.09277727066656757]",4.0,"[0.14999729708662796,-0.03835853286564725]",4.0,"[0.11293579619813657,0.0067838233116097645]",4.0,"[0.16175187887916487,0.007829130406292842]",4.0,"[-0.11814961936352437,-0.1482933554350762]",4.0,"[0.18969770785187273,0.04157803538737784]",4.0,"[-0.03777498170565342,0.1869629675627919]",4.0,"[0.04185587132723639,0.15967843100734408]",4.0,"[-0.015106611476780099,0.0128340089948571]",4.0,"[0.05668675248177807,-0.01616943649586002]",4.0,"[-0.13542048227857223,0.024547024296911097]",4.0,"[-0.06093486446314681,-0.1688523153726291]",4.0,"[0.11644431519853983,0.15094325922440158]",4.0,"[0.02,0.02]",202.4548,0.0,42.0,42.0,196.0,1.0,,,,,,,
,,,,,,,67e18d3d9ae271b1719712c3,6846a85375e39dc6af24ce41,2025-06-09_05h29.30.748,shape_ratio,2024.1.5,Win32,59.88023952,684250e4f00cb30b92d1fa88,,,,,,,,,,,202.4556,202.9551,,,203.206,203.3552,left,,,,,,,,0.9,0.1403,,,,,,,202.9551,203.2058,203.3553,"[-0.004876820648038207,-0.023955120791759422]",100.0,"[0.1221122360062933,0.026749075508864635]",100.0,"[-0.12783170466608276,0.13328497366131675]",100.0,"[0.18769085682690742,-0.020957239291485602]",4.0,"[0.10550593968986867,-0.08257677569720345]",100.0,"[-0.12366313502375789,-0.08784673498787524]",100.0,"[-0.04818175031457168,-0.1511607684676323]",100.0,"[-0.15018056731833418,-0.04160072487666959]",100.0,"[-0.0011848384798215411,0.19037314565445987]",100.0,"[-0.07104661678508284,0.0157360734888567]",100.0,"[-0.13893620371892812,0.029343711474512955]",100.0,"[-0.010735455449663782,-0.07048684975454643]",100.0,"[-0.06496971537314844,0.18673483966978505]",100.0,"[0.06301710609349079,0.10938686019973]",100.0,"[0.035662123286359156,-0.01081434550484205]",100.0,"[-0.018281410285480783,0.050067254417432844]",100.0,"[0.09666034936215667,-0.020506007394238884]",100.0,"[-0.16974866471474484,0.0804764426234776]",100.0,"[0.17463290879476098,0.07115963485208593]",100.0,"[-0.05321584614798492,-0.08091755815270656]",100.0,"[0.0611963762348153,-0.14290756525011855]",4.0,"[-0.06556015304104558,0.0987894002146059]",100.0,"[0.028532234101261943,0.13706653658482923]",100.0,"[-0.08272806433715123,-0.02831823637492416]",100.0,"[0.006746561386022573,-0.17292929198438295]",100.0,"[0.038384735367583044,0.05755005041443022]",100.0,"[0.06159725430932142,-0.04992833012504449]",4.0,"[0.06507024739679294,-0.10239290436682219]",100.0,"[0.10774481564595043,0.14185309488482084]",100.0,"[-0.18937467714194162,-0.012887276871179448]",100.0,"[0.11356562834241314,-0.12714703245955297]",100.0,"[-0.09266237865278652,-0.17276427201296116]",100.0,"[0.02,0.02]",204.4546,0.0,43.0,43.0,28.0,1.0,,,,,,,
,,,,,,,67e18d3d9ae271b1719712c3,6846a85375e39dc6af24ce41,2025-06-09_05h29.30.748,shape_ratio,2024.1.5,Win32,59.88023952,684250e4f00cb30b92d1fa88,,,,,,,,,,,204.4556,204.9547,,,205.1928,205.3088,right,,,,,,,,0.4,0.0989,,,,,,,204.9547,205.1928,205.3089,"[0.04403351084025202,-0.11185294503285668]",4.0,"[0.053226334138569004,0.1547557351242327]",4.0,"[-0.008194427390588562,-0.07109276514187919]",4.0,"[0.02227927962735492,0.05802626209128146]",100.0,"[0.10236207643987986,0.0035160749514868287]",100.0,"[0.1826438962042241,-0.012805946933034077]",100.0,"[0.0995067094659585,-0.154511029697227]",4.0,"[0.14788427875437843,0.08984126982429184]",4.0,"[-0.09744292445996856,0.08671817376629362]",100.0,"[0.07441413956530572,0.05140967753299469]",100.0,"[-0.06884032565855668,-0.1621544404544792]",4.0,"[-0.10524526232747333,0.013356618234814769]",4.0,"[-0.07000256342428526,-0.023189098641119798]",4.0,"[0.0923780249477866,0.09556152766161898]",4.0,"[-0.16019164514669024,-0.03036709702917984]",4.0,"[-0.08155587990991182,0.13499561614907252]",4.0,"[0.1408010820391764,-0.11457426563233833]",4.0,"[0.024086717590243018,0.1222945766973449]",4.0,"[-0.05662465731496388,0.07617205638845219]",100.0,"[-0.1441355203231081,-0.12126893953604914]",100.0,"[-0.015229262658496967,0.07524793256677742]",4.0,"[-0.05859491128187596,0.17074146248690641]",4.0,"[-0.03577754417467544,0.13730536135368007]",100.0,"[0.1570036052204316,-0.07656145146468256]",100.0,"[0.12613409897586222,0.12679578970673122]",100.0,"[0.023929535030892537,-0.153550937901268]",100.0,"[-0.16861608793459437,0.061638727476212025]",4.0,"[0.06618924684130563,-0.02391352337952168]",4.0,"[0.03151452791561125,-0.05793957957981981]",4.0,"[-0.1383091270685203,0.1423592871042088]",4.0,"[0.14550128935352258,0.019713491563535107]",100.0,"[0.10260049016496502,-0.09051216366889807]",100.0,"[0.02,0.02]",206.4043,0.0,44.0,44.0,173.0,1.0,,,,,,,
,,,,,,,67e18d3d9ae271b1719712c3,6846a85375e39dc6af24ce41,2025-06-09_05h29.30.748,shape_ratio,2024.1.5,Win32,59.88023952,684250e4f00cb30b92d1fa88,,,,,,,,,,,206.4054,206.9043,,,207.1554,207.2713,left,,,,,,,,0.4,0.1074,,,,,,,206.9044,207.1554,207.2714,"[0.07621000482541579,-0.0040525292663426095]",100.0,"[0.11804988244630693,-0.1460203985887409]",4.0,"[-0.08419178789394752,-0.1551256655420668]",100.0,"[0.15329772846681006,-0.066337103458767]",100.0,"[-0.0008575054789298459,-0.1932786621782089]",4.0,"[-0.04828422394294764,0.08649550517189657]",4.0,"[-0.00044937427666620286,0.0845447931679208]",100.0,"[-0.0351188151886502,-0.17177178305252205]",100.0,"[-0.19698443203811153,0.012969495601060173]",4.0,"[-0.16501768399207672,0.07592743970794304]",4.0,"[-0.07668086187791598,0.12417964463749426]",4.0,"[-0.06083093939972577,-0.03999803958965193]",4.0,"[0.1832687498943874,-0.037411142671050675]",4.0,"[0.1029294826369449,-0.0849068114061485]",100.0,"[-0.07127346100750362,-0.08428938635483199]",100.0,"[0.038311590011484015,0.19247449647255307]",4.0,"[-0.11420259706307131,-0.10928144169673318]",4.0,"[-0.024861765830266055,-0.08075846954232642]",100.0,"[0.14467147321411386,0.04778412598450648]",4.0,"[0.07210197981906474,-0.056387600381665584]",4.0,"[-0.03325577764095536,0.17779970625287478]",4.0,"[-0.12146233126809769,-0.05985599279943643]",100.0,"[-0.11380410453545549,0.1621627547655055]",4.0,"[-0.012909997197655997,0.03185938267492975]",4.0,"[0.020745610507762132,-0.00816758686893999]",4.0,"[-0.06183171955338112,0.005155454890731946]",100.0,"[-0.034033837235288314,0.12441720914340845]",4.0,"[0.06501049011943005,0.10032438473100437]",100.0,"[0.17038420093565124,-0.10283056417987312]",4.0,"[0.06328224489518403,-0.14380215453103481]",100.0,"[0.15679375399675685,0.00897074775650771]",4.0,"[-0.14606568581817597,0.00874669722266207]",100.0,"[0.02,0.02]",208.3709,0.0,45.0,45.0,157.0,1.0,,,,,,,
,,,,,,,67e18d3d9ae271b1719712c3,6846a85375e39dc6af24ce41,2025-06-09_05h29.30.748,shape_ratio,2024.1.5,Win32,59.88023952,684250e4f00cb30b92d1fa88,,,,,,,,,,,208.3718,208.8708,,,209.1207,209.2204,right,,,,,,,,0.55,0.089,,,,,,,208.8709,209.1207,209.2204,"[-0.06890334928085985,-0.16109533531725947]",4.0,"[-0.09287172466053449,0.02391050424912657]",100.0,"[0.09689800324285332,0.14049549787782]",100.0,"[0.012787922167605784,0.09466917779426542]",4.0,"[-0.06448004740430524,-0.1212468012382877]",100.0,"[-0.020535549718761287,0.15404354202734008]",100.0,"[0.06183517022630377,-0.12858363219005994]",100.0,"[-0.07978149424888337,-0.0806385966998332]",100.0,"[0.1747299810757379,-0.05439853406858642]",4.0,"[0.06109855975954158,-0.07490565867179272]",4.0,"[0.13725187788442544,-0.008437891776245668]",4.0,"[-0.03393434665055018,0.08272884631276435]",4.0,"[-0.07202345142402129,0.17176894248459235]",100.0,"[0.021969437978631465,-0.1477193329846778]",100.0,"[-0.06964592687774798,-0.03415638564799151]",4.0,"[-0.1560707641734723,0.04087055435576961]",100.0,"[-0.006412748646856079,0.01102405198392768]",4.0,"[0.0413859963950649,-0.009842436981715207]",4.0,"[0.16276745927468514,-0.11023886006979623]",100.0,"[-0.15003912755200877,-0.10783861502543585]",4.0,"[0.19972232793747421,0.005934724869369813]",4.0,"[0.13637435385446586,0.09572792359476257]",100.0,"[0.03377274436416548,0.15430262778505713]",100.0,"[0.09288835478419333,-0.02971723284544031]",4.0,"[0.06213000480298654,0.04722350588270554]",4.0,"[-0.11672591585823044,0.11958422357305973]",100.0,"[-0.16234662054008447,-0.02130230623535034]",100.0,"[0.1627725142544498,0.06191284860092806]",100.0,"[0.03728772951158357,-0.18732608768006612]",100.0,"[-0.1378942570566328,0.08507707696120685]",4.0,"[-0.05161839998422664,0.03393904197105472]",100.0,"[-0.19970729046460328,0.004760462166569479]",100.0,"[0.02,0.02]",210.3207,0.0,46.0,46.0,72.0,1.0,,,,,,,
,,,,,,,67e18d3d9ae271b1719712c3,6846a85375e39dc6af24ce41,2025-06-09_05h29.30.748,shape_ratio,2024.1.5,Win32,59.88023952,684250e4f00cb30b92d1fa88,,,,,,,,,,,210.3215,210.8207,,,211.0713,211.2044,left,,,,,,,,0.55,0.1192,,,,,,,210.8208,211.0712,211.2045,"[-0.13431032063961237,-0.07291240967099306]",4.0,"[0.0985544726329081,-0.10561071085357167]",4.0,"[-0.03795247270172498,-0.01654381678312965]",4.0,"[-0.022035126662316714,-0.085077991687972]",100.0,"[-0.10797579269446354,0.16377986411376003]",100.0,"[-0.034829175651542074,-0.17263162535159046]",4.0,"[0.06192330165665133,0.11497909296880145]",100.0,"[0.17278780093078047,-0.0409242244197359]",4.0,"[0.0338983669890944,-0.018951808576807592]",4.0,"[-0.03303916129781689,0.0911180345486885]",100.0,"[0.042615480361566045,0.05544489052925745]",4.0,"[-0.024588987672955524,0.0415763703315442]",4.0,"[0.033694396031792896,-0.17262042694269772]",4.0,"[0.13240170722237457,0.01223464587108163]",100.0,"[0.1473388279871614,0.07055257347843288]",4.0,"[0.07017561079046548,0.01564203456248903]",4.0,"[0.020527779082119096,0.10425240995210466]",100.0,"[-0.14473422655827184,-0.02723546564503625]",4.0,"[0.05716324645343654,-0.05373619217299895]",100.0,"[-0.1409401142494566,0.10192821155753533]",100.0,"[0.14280496151059596,0.12472827155523755]",100.0,"[-0.07874093784313084,0.11673938606718577]",100.0,"[-0.1789361215230007,0.0013303980128494108]",4.0,"[-0.05598539637254019,0.17705426819310513]",100.0,"[-0.09430489918984793,-0.07292634337786723]",100.0,"[0.045231589860569923,0.1583326001994428]",100.0,"[0.09394047777362702,-0.017998312030279705]",100.0,"[-0.11830866372483917,0.06327363872972423]",100.0,"[-0.10369037012841141,0.011678023568486514]",100.0,"[-0.10092186882525783,-0.13453495506328422]",100.0,"[-0.0760862324976991,0.05357864084512352]",100.0,"[0.07333510489282696,-0.1539068976459076]",4.0,"[0.02,0.02]",212.304,0.0,47.0,47.0,84.0,1.0,,,,,,,
,,,,,,,67e18d3d9ae271b1719712c3,6846a85375e39dc6af24ce41,2025-06-09_05h29.30.748,shape_ratio,2024.1.5,Win32,59.88023952,684250e4f00cb30b92d1fa88,,,,,,,,,,,212.3047,212.8037,,,213.0541,213.1545,left,,,,,,,,0.1,0.0913,,,,,,,212.8038,213.054,213.1546,"[0.001693011127473202,0.09835897268298242]",4.0,"[-0.1507657120433118,-0.036779164082300385]",100.0,"[-0.09469835177879082,0.021895053960236145]",4.0,"[0.011512274084230065,0.0034885427456358043]",4.0,"[0.05821060441256808,0.05078071363634461]",4.0,"[-0.07160883761670783,0.09672370706452661]",4.0,"[0.16382677348432206,-0.015103448583023918]",4.0,"[0.09435431251209865,-0.025338485189373667]",4.0,"[-0.07960169219052651,-0.08836735979916309]",100.0,"[0.052259929149349814,0.17444748101354215]",4.0,"[0.10805526326154093,0.08924537864350353]",4.0,"[-0.12025652248085555,-0.09192299185179865]",4.0,"[-0.10773487453736294,-0.16195406428757103]",4.0,"[0.0339390986179103,-0.1949986249696978]",4.0,"[0.029295533485085453,-0.11445653871752591]",4.0,"[0.003970249204899659,0.15062906556833425]",4.0,"[-0.03597563076832006,0.18134866530645324]",4.0,"[-0.18578276507364694,-0.05982987346993626]",4.0,"[0.07133109316333247,-0.15648862323259413]",4.0,"[0.1358084433666308,-0.10984254419071558]",4.0,"[-0.029053015318849826,-0.1651452606856895]",4.0,"[-0.17504193679234592,0.0006518140589699192]",4.0,"[0.149080722484181,0.08626523469546257]",4.0,"[0.05464269083320978,-0.08155579002614541]",4.0,"[-0.050173400486470954,0.03320195244680221]",4.0,"[-0.04366448495054995,-0.045764800635256196]",4.0,"[0.012610096322940117,0.19409194466022298]",100.0,"[-0.15587870993566036,0.08310787827727333]",4.0,"[-0.0015488187846963593,-0.07195790150884009]",4.0,"[-0.062086713961709006,-0.12547873638002338]",4.0,"[-0.11094722627707475,0.08681461954540877]",4.0,"[0.11288234934754607,-0.15605277829215622]",4.0,"[0.02,0.02]",214.2533,0.0,48.0,48.0,205.0,1.0,,,,,,,
,,,,,,,67e18d3d9ae271b1719712c3,6846a85375e39dc6af24ce41,2025-06-09_05h29.30.748,shape_ratio,2024.1.5,Win32,59.88023952,684250e4f00cb30b92d1fa88,,,,,,,,,,,214.2543,214.7533,,,215.004,215.0876,right,,,,,,,,0.4,0.0701,,,,,,,214.7533,215.0038,215.0876,"[-0.12520834218438387,0.10859928506767627]",100.0,"[-0.13089982122090146,-0.11260261438801271]",100.0,"[-0.08173865523629749,0.09330188285338821]",4.0,"[-0.09983919936082021,-0.16352902652515738]",4.0,"[0.12738735984308852,0.09715541057218684]",4.0,"[-0.17672362065350578,-0.08832539313828223]",4.0,"[0.09149052555615438,0.05815446629564854]",4.0,"[-0.1488854221692806,-0.010015949605307287]",100.0,"[0.02349726834731748,-0.0317713714631367]",100.0,"[-0.04908733159901892,-0.06281219064082462]",4.0,"[-0.02209137158580572,-0.003809547656444434]",100.0,"[-0.03756392287973532,0.1398105302842318]",4.0,"[0.15230185881329522,-0.017824019576389957]",100.0,"[-0.08697806164741827,-0.023326505266488575]",4.0,"[0.08128175682007087,0.1568192306483348]",4.0,"[0.0973250187868625,-0.047305047056811086]",4.0,"[-0.08071811775146256,0.04968036315864597]",4.0,"[-0.06219947264741335,-0.12646483226031122]",100.0,"[-0.18394187481355215,0.018584242254312218]",4.0,"[0.03769924547009818,0.17561825463488007]",100.0,"[-0.16161434812450926,0.06771145143806882]",100.0,"[-0.037860200438792846,0.18096653607776528]",100.0,"[0.026769837784781328,-0.179361073116204]",4.0,"[0.05342801931730816,0.016027795307042413]",4.0,"[0.1022593213434818,-0.0955958909315865]",100.0,"[0.0020986906173770404,0.12038924817329806]",4.0,"[0.042400550047480404,0.06694825709362241]",100.0,"[0.1562141834422569,0.04949210046083401]",4.0,"[-0.035826689253046454,-0.1595213747254084]",4.0,"[0.05040681105883336,0.12272959033705888]",4.0,"[-0.014319401823369623,0.07532419345531513]",4.0,"[0.18520966246876508,0.01844139328627461]",100.0,"[0.02,0.02]",216.1867,0.0,49.0,49.0,172.0,1.0,,,,,,,
