right,left,explain.started,explain.stopped,key_resp_3.keys,key_resp_3.rt,key_resp_3.duration,participant,session,date,expName,psychopyVersion,OS,frameRate,study_id,explain_2.started,explain_2.stopped,key_resp_4.keys,key_resp_4.rt,key_resp_4.duration,explain_3.started,explain_3.stopped,key_resp_5.keys,key_resp_5.rt,key_resp_5.duration,fixation.started,fixation.stopped,practice.started,practice.stopped,response.started,response.stopped,key_resp.keys,feedback.started,feedback.stopped,trials_2.thisRepN,trials_2.thisTrialN,trials_2.thisN,trials_2.thisIndex,trials_2.ran,dot_ratio,key_resp.rt,key_resp.duration,explain_4.started,explain_4.stopped,key_resp_6.keys,key_resp_6.rt,key_resp_6.duration,dotDisplay.started,dotDisplay.stopped,ITI.started,polygon_1.pos,polygon_1.edges,polygon_2.pos,polygon_2.edges,polygon_3.pos,polygon_3.edges,polygon_4.pos,polygon_4.edges,polygon_5.pos,polygon_5.edges,polygon_6.pos,polygon_6.edges,polygon_7.pos,polygon_7.edges,polygon_8.pos,polygon_8.edges,polygon_9.pos,polygon_9.edges,polygon_10.pos,polygon_10.edges,polygon_11.pos,polygon_11.edges,polygon_12.pos,polygon_12.edges,polygon_13.pos,polygon_13.edges,polygon_14.pos,polygon_14.edges,polygon_15.pos,polygon_15.edges,polygon_16.pos,polygon_16.edges,polygon_17.pos,polygon_17.edges,polygon_18.pos,polygon_18.edges,polygon_19.pos,polygon_19.edges,polygon_20.pos,polygon_20.edges,polygon_21.pos,polygon_21.edges,polygon_22.pos,polygon_22.edges,polygon_23.pos,polygon_23.edges,polygon_24.pos,polygon_24.edges,polygon_25.pos,polygon_25.edges,polygon_26.pos,polygon_26.edges,polygon_27.pos,polygon_27.edges,polygon_28.pos,polygon_28.edges,polygon_29.pos,polygon_29.edges,polygon_30.pos,polygon_30.edges,polygon_31.pos,polygon_31.edges,polygon_32.pos,polygon_32.edges,dot_size,ITI.stopped,trials.thisRepN,trials.thisTrialN,trials.thisN,trials.thisIndex,trials.ran,break_2.started,break_2.stopped,trials_3.thisRepN,trials_3.thisTrialN,trials_3.thisN,trials_3.thisIndex,trials_3.ran
subject chose diamond,subject chose dot,0.0008,17.0687,space,2.0292,,6744814c173b9afac78cf039,6846a84c60a471a75d0d8e47,2025-06-09_11h28.56.973,shape_ratio,2024.1.5,Win32,57.80346821,684250e4f00cb30b92d1fa88,,,,,,,,,,,,,,,,,,,,,,,,,,,,,,,,,,,,,,,,,,,,,,,,,,,,,,,,,,,,,,,,,,,,,,,,,,,,,,,,,,,,,,,,,,,,,,,,,,,,,,,,,,,,,,,,,
,,,,,,,6744814c173b9afac78cf039,6846a84c60a471a75d0d8e47,2025-06-09_11h28.56.973,shape_ratio,2024.1.5,Win32,57.80346821,684250e4f00cb30b92d1fa88,17.0697,56.7554,space,9.658,,,,,,,,,,,,,,,,,,,,,,,,,,,,,,,,,,,,,,,,,,,,,,,,,,,,,,,,,,,,,,,,,,,,,,,,,,,,,,,,,,,,,,,,,,,,,,,,,,,,,,,,,,,,,
,,,,,,,6744814c173b9afac78cf039,6846a84c60a471a75d0d8e47,2025-06-09_11h28.56.973,shape_ratio,2024.1.5,Win32,57.80346821,684250e4f00cb30b92d1fa88,,,,,,56.7556,63.3219,space,3.5577,,,,,,,,,,,,,,,,,,,,,,,,,,,,,,,,,,,,,,,,,,,,,,,,,,,,,,,,,,,,,,,,,,,,,,,,,,,,,,,,,,,,,,,,,,,,,,,,,,,,,,,,
,,,,,,,6744814c173b9afac78cf039,6846a84c60a471a75d0d8e47,2025-06-09_11h28.56.973,shape_ratio,2024.1.5,Win32,57.80346821,684250e4f00cb30b92d1fa88,,,,,,,,,,,63.3602,63.8369,63.8375,64.0898,64.0901,65.59,,65.5903,66.6803,0.0,0.0,0.0,1.0,1.0,0.8,,,,,,,,,,,,,,,,,,,,,,,,,,,,,,,,,,,,,,,,,,,,,,,,,,,,,,,,,,,,,,,,,,,,,,,,,,,,,,,,,,,,,,,,
,,,,,,,6744814c173b9afac78cf039,6846a84c60a471a75d0d8e47,2025-06-09_11h28.56.973,shape_ratio,2024.1.5,Win32,57.80346821,684250e4f00cb30b92d1fa88,,,,,,,,,,,66.6819,67.1824,67.1824,67.4218,67.4218,67.9852,left,67.9853,69.0877,0.0,1.0,1.0,0.0,1.0,0.2,0.5017,,,,,,,,,,,,,,,,,,,,,,,,,,,,,,,,,,,,,,,,,,,,,,,,,,,,,,,,,,,,,,,,,,,,,,,,,,,,,,,,,,,,,,,
,,,,,,,6744814c173b9afac78cf039,6846a84c60a471a75d0d8e47,2025-06-09_11h28.56.973,shape_ratio,2024.1.5,Win32,57.80346821,684250e4f00cb30b92d1fa88,,,,,,,,,,,,,,,,,,,,,,,,,,,,69.0884,76.5051,space,4.3997,,,,,,,,,,,,,,,,,,,,,,,,,,,,,,,,,,,,,,,,,,,,,,,,,,,,,,,,,,,,,,,,,,,,,,,,,,,,,,,,,,
,,,,,,,6744814c173b9afac78cf039,6846a84c60a471a75d0d8e47,2025-06-09_11h28.56.973,shape_ratio,2024.1.5,Win32,57.80346821,684250e4f00cb30b92d1fa88,,,,,,,,,,,76.5337,77.0177,,,77.2493,77.7593,right,,,,,,,,0.55,0.4923,,,,,,,77.0187,77.249,77.7599,"[-0.005611561934858634,-0.18675570847940468]",100.0,"[-0.17994196461740647,-0.03351566599057157]",100.0,"[-0.1137643775035676,0.03223861608966481]",100.0,"[0.15129523931404965,0.020040062218728182]",100.0,"[0.01801595751300928,0.1873634501815375]",4.0,"[0.017504594255283015,-0.011709829086593954]",4.0,"[-0.1276190121447669,-0.10553681823544891]",100.0,"[0.14146389345845428,-0.1366096930882439]",100.0,"[-0.09207987531019123,0.16019939334348016]",4.0,"[-0.050067678177204776,0.16107787817112773]",100.0,"[0.16090038784352215,-0.06480484086531253]",100.0,"[0.10448399671817042,0.009791817423559808]",4.0,"[-0.03733241118230397,-0.015685668019782252]",4.0,"[-0.02402060685651973,-0.07599345460205192]",4.0,"[-0.028467829562680545,0.062146193424154866]",100.0,"[0.054648192502157994,-0.04911655306185476]",100.0,"[-0.17996135318225676,-0.08271537430752934]",4.0,"[-0.14251356448610208,0.0780443219760407]",4.0,"[-0.02716914253902429,0.19585008248675978]",100.0,"[0.0347248766591163,0.0354366290560414]",4.0,"[0.08840010700103755,0.1187226044678314]",4.0,"[0.0760355324933683,0.0514348374660681]",100.0,"[0.02749314117067715,-0.11919859940853564]",4.0,"[0.09639692821732777,-0.1158671881144799]",100.0,"[0.08623822828308297,0.16513855466198996]",100.0,"[0.09255883687383357,-0.07547000929195832]",4.0,"[-0.07155587677975475,0.06195797495855331]",100.0,"[0.02479197356818561,0.12230306830936849]",100.0,"[-0.11517419399147373,-0.04006209465630975]",100.0,"[-0.11441183667118793,0.12283352382468239]",4.0,"[0.13150660596540995,0.11120061119391358]",100.0,"[0.025180680509038742,0.07694504823585395]",4.0,"[0.02,0.02]",78.8494,0.0,0.0,0.0,65.0,1.0,,,,,,,
,,,,,,,6744814c173b9afac78cf039,6846a84c60a471a75d0d8e47,2025-06-09_11h28.56.973,shape_ratio,2024.1.5,Win32,57.80346821,684250e4f00cb30b92d1fa88,,,,,,,,,,,78.85,79.354,,,79.5801,80.0937,left,,,,,,,,0.9,0.4937,,,,,,,79.3541,79.5801,80.0938,"[-0.11961487468814187,-0.03897690226701663]",100.0,"[0.12128238202393725,-0.03154496362480891]",100.0,"[0.06126965797074125,0.07044698359604329]",100.0,"[0.020789303287934328,-0.029327801569293443]",100.0,"[0.06545158643417064,-0.16615213018653777]",100.0,"[-0.020916300842759795,0.08093180456577882]",100.0,"[-0.04421524882334166,-0.1099233668039374]",100.0,"[-0.08113742777196918,0.002606300351092078]",100.0,"[0.11032507307209495,0.08649872988546928]",100.0,"[0.014127976740782257,-0.12688720795162506]",4.0,"[-0.029500008511781,-0.01929556411340826]",100.0,"[0.12419178632109783,-0.10638192719732639]",100.0,"[-0.11897529168608498,0.01606560336629011]",100.0,"[-0.08398417221596578,-0.17756277609011092]",100.0,"[0.02096313881477836,0.1032248065185973]",100.0,"[-0.1693317643208295,0.07322898998834887]",100.0,"[-0.12520279190990727,0.14789645749611324]",100.0,"[-0.1721276226438015,0.002575434119336911]",100.0,"[0.04004429735948099,0.024095469239589756]",100.0,"[-0.1609067542874185,-0.11195531898194654]",100.0,"[0.1808003994337503,0.04693161763246032]",100.0,"[-0.07655835911674312,0.11606029714011008]",100.0,"[0.17652809670151134,-0.029754472696715457]",100.0,"[-0.055102053226965104,-0.0662697434462271]",100.0,"[0.12444531997752806,0.013293378127849278]",100.0,"[-0.11688825595804953,-0.12585352234472985]",4.0,"[0.1048783053302197,0.14487676795771887]",100.0,"[0.04437150743567021,-0.09754099129181519]",100.0,"[-0.02461784653791522,0.03198494850335387]",4.0,"[-0.07660372383196203,0.16634678125145994]",100.0,"[0.046559304459691454,0.15292061457478806]",100.0,"[-0.016605730017262867,0.1706515676520648]",100.0,"[0.02,0.02]",81.1913,0.0,1.0,1.0,12.0,1.0,,,,,,,
,,,,,,,6744814c173b9afac78cf039,6846a84c60a471a75d0d8e47,2025-06-09_11h28.56.973,shape_ratio,2024.1.5,Win32,57.80346821,684250e4f00cb30b92d1fa88,,,,,,,,,,,81.1923,81.6888,,,81.9294,81.95,right,,,,,,,,0.9,0.0008,,,,,,,81.6889,81.9293,81.95,"[0.12511338406515674,-0.030103363788413353]",100.0,"[-0.008968647506228505,0.183057943063878]",100.0,"[-0.01263277417643732,-0.1415571601783412]",100.0,"[-0.0029190999901186595,0.0682907410503874]",100.0,"[-0.18926080492292532,0.04349728943945555]",100.0,"[-0.0415385505740252,-0.025068113343299413]",100.0,"[0.037805225945134115,0.19385212146186123]",100.0,"[-0.173446494418767,-0.05991681572727396]",4.0,"[0.012676043830760661,-0.029495330895428013]",100.0,"[0.046680838239125305,0.03537581007006989]",100.0,"[-0.10121729564623304,0.03359818120524858]",100.0,"[-0.057093672745175544,0.14799083463100735]",100.0,"[-0.18554028344577086,-0.006755656407757458]",100.0,"[-0.029425677107045776,-0.19216011438909142]",4.0,"[0.065782633078232,-0.10640942656674028]",100.0,"[0.10716364862886987,-0.12673306667929177]",100.0,"[-0.1270809445046197,0.06508202486568486]",100.0,"[-0.09428555320980056,-0.09965039017231592]",100.0,"[0.06512449001242063,0.08270766992345528]",100.0,"[-0.012158889531207414,-0.07573910383039625]",100.0,"[0.16429671914329397,-0.09198469879648834]",100.0,"[-0.12238324972606501,-0.05584228850269863]",100.0,"[-0.11875274318946116,0.15172927985230994]",100.0,"[0.1034566041806344,0.05854354180865577]",100.0,"[0.17365054785509978,0.04949345526736814]",100.0,"[-0.1498337416021765,-0.10468922272962626]",100.0,"[0.06344105337524245,-0.15879256229198965]",100.0,"[0.07409786713853202,0.13662126313866685]",100.0,"[-0.08207157429349453,0.08744547467651247]",100.0,"[-0.06198484462720263,0.18777533096784682]",100.0,"[-0.08748598253328449,-0.028602113705241804]",4.0,"[0.0886855705813434,0.011017888256099102]",100.0,"[0.02,0.02]",83.0452,0.0,2.0,2.0,8.0,1.0,,,,,,,
,,,,,,,6744814c173b9afac78cf039,6846a84c60a471a75d0d8e47,2025-06-09_11h28.56.973,shape_ratio,2024.1.5,Win32,57.80346821,684250e4f00cb30b92d1fa88,,,,,,,,,,,83.0466,83.5459,,,83.7874,83.8525,left,,,,,,,,0.6,0.048,,,,,,,83.546,83.7873,83.8525,"[0.10731615622639992,0.0691060650131979]",100.0,"[-0.003503434663944443,0.17349868510365463]",100.0,"[-0.07335780924626177,0.16528007485178137]",100.0,"[0.04266532652941163,-0.12224401761457498]",100.0,"[0.03403985035843142,0.055929727911900685]",100.0,"[-0.15356353185599975,-0.10280569578143055]",100.0,"[0.095152739505088,-0.08200574311219368]",4.0,"[-0.05793423683977145,0.12443454640111284]",100.0,"[-0.06539946334116933,0.0645804841582476]",100.0,"[0.13284297980501011,-0.1291125403056824]",4.0,"[0.14912340827654894,-0.02706178664952481]",100.0,"[0.16276965028896387,0.06535636254347706]",100.0,"[-0.0177060783473526,-0.06991767603102454]",4.0,"[-0.12251322378529138,-0.050974957945512565]",100.0,"[-0.11577208573350896,0.061096057509247244]",100.0,"[-0.04189825788870087,-0.17416583999077254]",100.0,"[-0.0463940649163691,0.025607661773425085]",4.0,"[-0.004701040256620176,0.07619092313753406]",4.0,"[0.04818395591084381,0.1617554752670486]",4.0,"[-0.16636436046608172,0.051774358947052505]",4.0,"[-0.09988110270555277,-0.14720573752782803]",100.0,"[0.17101725312560845,-0.07865947211576159]",100.0,"[0.04239000599433927,0.0001099773541504045]",4.0,"[0.034292536846087227,-0.16554566573481688]",4.0,"[-0.07805881396432698,-0.0027606229297640777]",4.0,"[-0.14056241971937897,-0.013266285274398753]",100.0,"[0.014525559798412972,0.11541219444146923]",100.0,"[0.14543085330668415,0.12037892954678606]",100.0,"[0.17923085282800008,0.018697422218224267]",4.0,"[0.03920369289505288,-0.06669001596935518]",4.0,"[-0.019911340015682896,-0.11179805715564468]",4.0,"[0.08783145022245165,0.13388929500178592]",100.0,"[0.02,0.02]",84.9451,0.0,3.0,3.0,59.0,1.0,,,,,,,
,,,,,,,6744814c173b9afac78cf039,6846a84c60a471a75d0d8e47,2025-06-09_11h28.56.973,shape_ratio,2024.1.5,Win32,57.80346821,684250e4f00cb30b92d1fa88,,,,,,,,,,,84.9457,85.4431,,,85.6819,85.7417,right,,,,,,,,0.4,0.0424,,,,,,,85.4432,85.6818,85.7418,"[-0.0015388604055537444,0.11011572980040978]",100.0,"[0.009839722287117042,0.011460033717771713]",4.0,"[0.05718775846304351,-0.048583425204891714]",4.0,"[-0.06426108301022411,-0.15126572128935767]",100.0,"[0.14187440802178597,-0.02821286124196878]",4.0,"[-0.07410717678546977,-0.09582705185577527]",4.0,"[0.029871423291764038,-0.11861722198359025]",100.0,"[-0.16721838521056842,-0.03223354358991048]",4.0,"[0.1986530169177494,0.002239068254471338]",100.0,"[0.10261208464049175,-0.0648925223239052]",4.0,"[-0.09632970600145263,-0.022355576224399314]",4.0,"[0.07560006087933512,-0.17765410830889175]",100.0,"[-0.11024651174336336,-0.14287115834692585]",100.0,"[-0.057847045745612835,0.15680447962300606]",100.0,"[0.13733488353218493,-0.13374302281851322]",4.0,"[-0.06304075359400932,0.102071443212072]",4.0,"[0.06261953381580075,0.001951190641104851]",4.0,"[-0.012694422817220384,-0.14870677939433363]",4.0,"[-0.11265424096155886,0.13396331510045903]",4.0,"[-0.025026728995362665,0.0743085688472737]",4.0,"[0.09119574945007776,0.17464005659953377]",4.0,"[0.12786674862602682,0.010058873548613748]",100.0,"[0.1173199623313065,0.07882948144713911]",100.0,"[0.14802134761434013,0.12691954279380657]",4.0,"[0.08657028591935488,0.0451543327030481]",100.0,"[-0.03622339104814334,-0.06102823630429818]",100.0,"[0.10275058915126928,-0.1123932522192685]",100.0,"[0.05089818797501069,0.16405103966991738]",4.0,"[0.10027388283642423,0.13143870202084693]",100.0,"[-0.1156934839518697,0.035915309028793724]",4.0,"[0.07552747826789583,0.084289862371155]",4.0,"[-0.06347553845545365,0.04609914387071122]",4.0,"[0.02,0.02]",86.8314,0.0,4.0,4.0,176.0,1.0,,,,,,,
,,,,,,,6744814c173b9afac78cf039,6846a84c60a471a75d0d8e47,2025-06-09_11h28.56.973,shape_ratio,2024.1.5,Win32,57.80346821,684250e4f00cb30b92d1fa88,,,,,,,,,,,86.8323,87.3417,,,87.6114,87.663,left,,,,,,,,0.1,0.0418,,,,,,,87.3418,87.6114,87.6631,"[0.13412416755777593,0.026027994589354668]",4.0,"[-0.11595066876856883,-0.02280112207381603]",4.0,"[-0.10004469486021282,0.01681868701576507]",4.0,"[0.11391439507998687,-0.09638849082835041]",4.0,"[0.16067384559424455,-0.024326935531193337]",4.0,"[-0.008422400072775935,0.08601495108129152]",4.0,"[0.14423912541391404,0.11504272046408079]",4.0,"[-0.1558762238615171,0.04149034046344571]",4.0,"[0.04423871307898753,0.03640055758953472]",4.0,"[0.18101951985264378,-0.06383654132044608]",4.0,"[-0.09759937161808441,0.16628191266358894]",4.0,"[-0.16625044698112426,-0.054828257657349305]",4.0,"[0.013266858148528156,0.13808956900322336]",4.0,"[-0.0173225005656378,-0.10797043463588457]",100.0,"[-0.09636997492691844,-0.06930799450490192]",4.0,"[0.01900979756752707,-0.08604210699865521]",4.0,"[0.06485166190764177,-0.12134327052779068]",4.0,"[-0.06313945477246914,-0.1510881237454713]",4.0,"[-0.03385655562745458,-0.059835500312595345]",4.0,"[0.03755768591685461,0.17427392602409364]",4.0,"[0.016892999220626554,-0.02036593236867628]",4.0,"[-0.14576055270226257,0.09046793933641364]",100.0,"[-0.0956576009393639,0.10131426766779067]",4.0,"[0.10819994739985067,0.14750887085230738]",4.0,"[-0.03300251363936897,0.03900894829923533]",4.0,"[0.09556078403745222,-0.01869997096783598]",4.0,"[0.08554542376956785,0.021444613114363513]",4.0,"[-0.06617773450209068,0.133472345885461]",4.0,"[0.09273813508178554,0.09471695999536404]",100.0,"[-0.11903554946878996,-0.12519118695357745]",4.0,"[0.11646446890585657,-0.1453264966915587]",4.0,"[0.198652418135837,-0.0069486880402379325]",4.0,"[0.02,0.02]",88.768,0.0,5.0,5.0,191.0,1.0,,,,,,,
,,,,,,,6744814c173b9afac78cf039,6846a84c60a471a75d0d8e47,2025-06-09_11h28.56.973,shape_ratio,2024.1.5,Win32,57.80346821,684250e4f00cb30b92d1fa88,,,,,,,,,,,88.7688,89.2661,,,89.5054,90.5651,right,,,,,,,,0.4,1.0372,,,,,,,89.2661,89.5054,90.5651,"[-0.13921850972413172,0.01370547897570503]",4.0,"[0.08185330427610775,-0.18093245505313635]",4.0,"[-0.13339074083671187,-0.05206004706604415]",4.0,"[0.0349290476612397,0.11654416780430431]",100.0,"[0.01040395113647845,-0.049659112733079]",100.0,"[0.17905576292529382,0.01369402870210257]",100.0,"[0.03332025455949767,-0.17138806793119282]",4.0,"[-0.18069562996166988,-0.044358172584189885]",4.0,"[0.08328215063791324,-0.10482419355211499]",4.0,"[-0.08113076846803209,-0.06996142257911693]",100.0,"[-0.1913834302821842,0.0013077795587622155]",100.0,"[0.08231292446985755,0.012806134784668965]",100.0,"[0.017505641745070282,0.004416427553079339]",100.0,"[0.06272565260919391,0.17063279900796632]",100.0,"[-0.13578139526286087,-0.10656240906952189]",4.0,"[-0.08738949422457047,0.09308318420386724]",4.0,"[0.10437605092936285,0.08561711660493443]",100.0,"[-0.07097516834551035,0.02788323773004651]",4.0,"[-0.16185823673148247,0.10720862203291893]",4.0,"[0.01996318401694699,0.05419287791493676]",4.0,"[-0.1537051346664666,0.06753994028670925]",100.0,"[-0.021624719854018606,0.1379369613020414]",4.0,"[0.1304744265163466,0.025990801694767796]",4.0,"[-0.09653350873609098,-0.174154550586939]",4.0,"[0.12041683721658246,-0.062433705037518605]",4.0,"[0.059496481437535255,-0.14084564106093098]",100.0,"[-0.0468933439958697,0.09977547438804645]",4.0,"[0.14672915347492752,-0.11318079264968152]",4.0,"[-0.07298002743872375,-0.12494146644139874]",100.0,"[0.17696521458968817,0.08895222841992868]",100.0,"[-0.07914985703494035,0.18054798355939866]",4.0,"[-0.03344640449850337,-0.10555000318110953]",4.0,"[0.02,0.02]",91.6668,0.0,6.0,6.0,168.0,1.0,,,,,,,
,,,,,,,6744814c173b9afac78cf039,6846a84c60a471a75d0d8e47,2025-06-09_11h28.56.973,shape_ratio,2024.1.5,Win32,57.80346821,684250e4f00cb30b92d1fa88,,,,,,,,,,,91.6679,92.1623,,,92.3905,92.8328,left,,,,,,,,0.45,0.4211,,,,,,,92.1623,92.3905,92.8329,"[0.03180429498693587,-0.1693300768197521]",4.0,"[-0.031917402420798685,0.12467886442203276]",4.0,"[-0.08847138731662367,0.09413845549286105]",100.0,"[-0.0665050738484825,0.039677321057697064]",4.0,"[-0.07205387423502604,0.14916177410705764]",4.0,"[0.021463583302629388,-0.05649914915347012]",4.0,"[-0.10245791820054706,-0.06813212775790335]",4.0,"[-0.16004904876589435,0.09178445808966182]",4.0,"[-0.01993895256741922,-0.1100076283237154]",100.0,"[0.0777121613023821,0.17107623625354515]",100.0,"[0.09716365681938618,0.06662745074842351]",4.0,"[-0.1828449757158324,-0.07697726972665217]",4.0,"[0.06483961420272046,-0.13415548413362102]",100.0,"[0.0985920926605543,-0.07980820568628974]",100.0,"[0.05196716568951863,0.12189073752447482]",4.0,"[0.12474925992433392,-0.03070023416866707]",100.0,"[0.03793443242349972,0.04214209055432611]",100.0,"[0.05632436330607238,-0.09311860909205943]",4.0,"[-0.17865243629776092,0.04826668803606644]",4.0,"[-0.02423400236031247,0.010114741755828216]",100.0,"[-0.06082481609145067,-0.021110795797968006]",4.0,"[-0.017732223824140088,0.16714705247131165]",100.0,"[0.05814212007173245,-0.018516246956665896]",100.0,"[-0.03972759149531839,0.0721435335575219]",4.0,"[-0.14478555333549978,-0.04995937028322948]",4.0,"[-0.11257886434021484,0.028119464928484904]",4.0,"[0.15347023112766148,0.04291158742756818]",100.0,"[0.1457108678573114,-0.1365870372946939]",4.0,"[-0.020583780682258558,-0.16055684613338514]",100.0,"[0.1876951567450983,-0.04665535691424849]",100.0,"[0.033748292548864814,0.1607809155763524]",100.0,"[0.1377750986415325,0.13969288106174854]",4.0,"[0.02,0.02]",93.9331,0.0,7.0,7.0,144.0,1.0,,,,,,,
,,,,,,,6744814c173b9afac78cf039,6846a84c60a471a75d0d8e47,2025-06-09_11h28.56.973,shape_ratio,2024.1.5,Win32,57.80346821,684250e4f00cb30b92d1fa88,,,,,,,,,,,93.9341,94.4292,,,94.6708,94.8505,right,,,,,,,,0.1,0.1623,,,,,,,94.4293,94.6707,94.8506,"[-0.13980710060148208,-0.08214130120637503]",100.0,"[0.15620826378788813,0.051053835074342246]",4.0,"[-0.0877115184755626,-0.15693320313194348]",4.0,"[-0.023713295277988117,0.13572432132333812]",4.0,"[-0.06223157195540228,0.09003758011514718]",4.0,"[0.040766699806140096,-0.09861566504184402]",4.0,"[0.173996899155334,-0.028587145522967133]",4.0,"[0.042340407489691846,-0.05441931545560015]",4.0,"[0.12136931866797192,-0.004256982077159866]",4.0,"[0.02096815791530079,0.07494341539525913]",4.0,"[-0.033055707483841894,-0.025042167954514246]",4.0,"[0.12148739223458173,-0.11316587965411876]",4.0,"[-0.06662604766053769,0.03490294664466553]",100.0,"[-0.12939981856070612,0.061513238328322714]",4.0,"[-0.17880607937870327,0.08803989953804263]",4.0,"[0.13957949801825867,0.11107912213957206]",4.0,"[-0.03936061782108126,-0.19207860017931527]",4.0,"[0.08618967370840207,0.092067228909896]",4.0,"[-0.10581779580939261,-0.0032468260996217453]",4.0,"[-0.01692573869153753,0.059437027836870236]",4.0,"[-0.08203267381405303,-0.05019404987426899]",4.0,"[0.07716466820169761,0.13406765265527434]",4.0,"[0.0036937711601492673,0.024113770209074358]",4.0,"[-0.13155089722971777,0.11799521324001776]",4.0,"[0.061677337285330494,0.03976781509614388]",4.0,"[0.03469978896853498,0.14885613344077725]",4.0,"[0.07863744392424782,0.175830839400212]",4.0,"[0.04146693112954799,-0.15619786826665888]",4.0,"[0.14740807581835336,-0.08078924960718567]",4.0,"[0.11575645435759979,0.043843818273953075]",4.0,"[-0.04831551551309326,0.17781119354293395]",100.0,"[-0.1815343371928327,-0.07789872391101717]",4.0,"[0.02,0.02]",95.9346,0.0,8.0,8.0,185.0,1.0,,,,,,,
,,,,,,,6744814c173b9afac78cf039,6846a84c60a471a75d0d8e47,2025-06-09_11h28.56.973,shape_ratio,2024.1.5,Win32,57.80346821,684250e4f00cb30b92d1fa88,,,,,,,,,,,95.9355,96.4454,,,96.6989,96.7516,left,,,,,,,,0.5,0.0416,,,,,,,96.4454,96.6988,96.7517,"[-0.064339362756202,0.08946919643231349]",4.0,"[-0.11571560524397899,0.07956403693100975]",4.0,"[0.11566330834367368,-0.04964196529919129]",100.0,"[0.04309636170115447,-0.16960007147992584]",100.0,"[0.03606925617235162,0.01123054635856017]",100.0,"[0.008104158017672544,-0.14901884582830005]",4.0,"[-0.1913039495352297,0.03069797373441077]",100.0,"[-0.1567086809469846,0.0035250022877006816]",100.0,"[-0.11101795003457161,0.13056446348924786]",4.0,"[0.08786224408045896,-0.1070285769417616]",4.0,"[0.15901555317201557,0.015974204558448224]",4.0,"[0.0641109697261653,0.18823209243636732]",100.0,"[0.0631100631142302,0.08779497918767107]",4.0,"[-0.13016605426579933,0.03419657743705823]",4.0,"[-0.008116185471233491,0.1312489273718136]",100.0,"[-0.08196053514496086,-0.112265115667892]",100.0,"[-0.15468744509791174,-0.08621342548388387]",100.0,"[-0.022244353528225052,-0.06500487528297141]",4.0,"[0.031252899053266545,0.1461965640445445]",100.0,"[-0.06288469577597049,0.00852450415445876]",100.0,"[0.045400078331040324,-0.10815360750950641]",100.0,"[0.1557351578532554,-0.1166823882577955]",4.0,"[-0.17640900191293654,-0.03660205517791293]",4.0,"[0.11512933415868266,0.05096916007279309]",4.0,"[0.11216397795344703,-0.15563675869639357]",100.0,"[-0.03348664627252996,-0.16886442498950668]",4.0,"[0.12227962280096202,0.10183173690862944]",100.0,"[0.05304039015405595,-0.03459778130906213]",100.0,"[0.15819990923646274,0.07116941924950261]",4.0,"[0.010515591394209907,0.0949121729495841]",100.0,"[-0.0033556175134453734,0.196799337929751]",4.0,"[0.18711663247476407,-0.026565580289099375]",4.0,"[0.02,0.02]",97.8483,0.0,9.0,9.0,93.0,1.0,,,,,,,
,,,,,,,6744814c173b9afac78cf039,6846a84c60a471a75d0d8e47,2025-06-09_11h28.56.973,shape_ratio,2024.1.5,Win32,57.80346821,684250e4f00cb30b92d1fa88,,,,,,,,,,,97.8494,98.3417,,,98.5946,99.4691,left,,,,,,,,0.9,0.8497,,,,,,,98.3419,98.5945,99.4692,"[-0.018896661364442933,-0.12496727217055971]",100.0,"[0.14177732816687877,-0.05984048496962285]",4.0,"[0.1667240722150203,-0.014823810636911856]",100.0,"[-0.08716053759485301,0.08055318429370846]",100.0,"[0.10478107685061501,0.06541710169399978]",4.0,"[0.003932369889726024,0.14709619834464946]",100.0,"[-0.05654877638123401,-0.04331474898658968]",100.0,"[0.05764362449972973,0.1373368280236482]",100.0,"[-0.06280467825449129,0.14706190806826863]",100.0,"[-0.06996933927805418,-0.08590211776187436]",100.0,"[-0.1387905123137271,0.006003393461725966]",100.0,"[0.030307238614281317,0.06758531188822252]",100.0,"[-0.14185986835221326,0.050670576859635066]",100.0,"[-0.11215355223432422,-0.03227542672603372]",100.0,"[0.051017666739081036,0.006481311677773183]",100.0,"[-0.12690457139946157,-0.12807940834324275]",100.0,"[-0.10615718992131438,0.16328081678434544]",100.0,"[0.17801090947999618,0.06535365274928782]",4.0,"[-0.009082771875843651,-0.03809451651672707]",100.0,"[0.14569001901603928,0.13004603078562899]",100.0,"[0.031644724609283324,-0.1378806195387953]",100.0,"[0.02479150233321725,0.1984107414978711]",100.0,"[-0.12869292211918612,0.11044615393838322]",100.0,"[0.06117498230216367,-0.07519524702998327]",100.0,"[-0.1892655203130183,-0.02397079995389387]",100.0,"[0.09474626015057667,-0.14119228183759205]",100.0,"[0.1075042696584305,0.1101926522387709]",100.0,"[0.1742927255126208,-0.08663459655488172]",100.0,"[-0.11546219367921652,-0.07801562833352134]",100.0,"[-0.02148016888188841,0.10109555426047905]",100.0,"[0.12379098280224816,0.02225181229311847]",100.0,"[-0.1573769792147136,-0.07815229758014003]",100.0,"[0.02,0.02]",100.57,0.0,10.0,10.0,15.0,1.0,,,,,,,
,,,,,,,6744814c173b9afac78cf039,6846a84c60a471a75d0d8e47,2025-06-09_11h28.56.973,shape_ratio,2024.1.5,Win32,57.80346821,684250e4f00cb30b92d1fa88,,,,,,,,,,,100.571,101.0662,,,101.3056,101.8832,right,,,,,,,,0.45,0.5603,,,,,,,101.0662,101.3055,101.8832,"[-0.03265718539138834,-0.11422458387999068]",100.0,"[-0.05253159158237928,0.0652460831703594]",100.0,"[-0.07001593300767578,0.16996497797666454]",4.0,"[-0.11970295206876366,0.00916339416034255]",100.0,"[0.0892413243005799,0.147816444390156]",100.0,"[0.12018486962915045,-0.049177516933942775]",4.0,"[0.03624415235972881,-0.05951756221001087]",4.0,"[-0.13431733514638144,-0.12231819465389167]",4.0,"[0.010948963834989797,0.011232311673268014]",100.0,"[-0.04093367180539552,-0.1610549648851966]",100.0,"[0.12101866900197507,-0.12019697234053833]",4.0,"[0.062057713270532805,0.06567376235068027]",4.0,"[-0.11884358601419856,0.10232610005081832]",4.0,"[0.11726206215862411,0.11177710879933096]",100.0,"[0.15789232297030298,-0.012814600363884461]",4.0,"[-0.09706609951516135,-0.056743475809300746]",4.0,"[-0.18175089925391635,-0.05145264916964027]",4.0,"[-0.11027944628238376,0.05599766294977043]",100.0,"[-0.1937253110258919,0.04614849911867273]",4.0,"[-0.16730261180734182,0.09148682445235547]",100.0,"[-0.019427429201843347,-0.0483672899617862]",4.0,"[0.13057940941690033,0.018240071700972048]",100.0,"[0.05192513868082167,0.02327340681975375]",100.0,"[0.014592364121424879,0.09427342297300433]",4.0,"[-0.07621986694109502,0.11751962128231615]",4.0,"[0.02510309912466701,-0.13547300159959966]",4.0,"[0.025731410549935406,-0.18534867472052513]",4.0,"[0.0024288853527948216,0.14819871585891836]",100.0,"[-0.15846187861184638,-0.08604064896069688]",4.0,"[-0.13705619641077854,0.13975250908848852]",100.0,"[-0.041898996433209636,-0.012928746417014627]",4.0,"[0.04176593276665403,0.17939357798450872]",100.0,"[0.02,0.02]",102.9763,0.0,11.0,11.0,139.0,1.0,,,,,,,
,,,,,,,6744814c173b9afac78cf039,6846a84c60a471a75d0d8e47,2025-06-09_11h28.56.973,shape_ratio,2024.1.5,Win32,57.80346821,684250e4f00cb30b92d1fa88,,,,,,,,,,,102.9772,103.4837,,,103.7332,104.1433,left,,,,,,,,0.6,0.3738,,,,,,,103.4837,103.7331,104.1434,"[-0.0723917475355872,0.041447375117589]",100.0,"[-0.007420515183187666,0.10897698647182251]",100.0,"[0.010434908694286694,0.007624606904001181]",4.0,"[-0.01721621304222714,-0.03973728717248657]",4.0,"[-0.0982351184635687,-0.04715862595158374]",4.0,"[0.06537811117225358,-0.002648107212265204]",4.0,"[0.09785652297994196,0.14358787595821443]",4.0,"[-0.13313911573886306,0.06933847396772715]",100.0,"[0.02370459796958333,-0.030321764685524992]",4.0,"[0.002056188924873981,-0.14605346283895618]",4.0,"[-0.0881590569775704,0.10334263937206788]",100.0,"[-0.029774459651164778,0.05086774505420343]",100.0,"[0.04870916913717652,-0.15504208647469947]",100.0,"[-0.1329716854323121,-0.003943453484088494]",100.0,"[0.1674865482674899,0.04375889494452489]",4.0,"[-0.13638375744622533,-0.11724158481120228]",100.0,"[-0.08909163028119466,-0.15227115136432037]",4.0,"[0.10242479465294885,0.06981415996853267]",100.0,"[0.03907923758403072,0.06889643426178334]",100.0,"[0.16094476612639208,0.10891737895804897]",100.0,"[0.04663017090920062,0.13871142049647636]",4.0,"[0.08014499914219485,-0.0843485719967722]",4.0,"[0.020866497204676565,0.18489006760750845]",4.0,"[-0.0395748680841259,-0.11113622042370586]",100.0,"[-0.15975733829820055,-0.039058574392477646]",100.0,"[-0.18997299880769888,0.04264685032597575]",100.0,"[-0.08007670085679784,-0.1129996717269539]",100.0,"[-0.13214767422217746,0.14838198002787711]",100.0,"[0.18289763692873037,-0.07082162341657185]",100.0,"[0.10661923904837863,-0.03594485031332791]",4.0,"[0.04056583476827906,-0.11208021160180716]",100.0,"[-0.05214880408717645,-0.013949788035958898]",100.0,"[0.02,0.02]",105.2469,0.0,12.0,12.0,33.0,1.0,,,,,,,
,,,,,,,6744814c173b9afac78cf039,6846a84c60a471a75d0d8e47,2025-06-09_11h28.56.973,shape_ratio,2024.1.5,Win32,57.80346821,684250e4f00cb30b92d1fa88,,,,,,,,,,,105.2478,105.739,,,105.986,106.1049,right,,,,,,,,0.55,0.0993,,,,,,,105.7391,105.986,106.105,"[-0.028676959768449913,0.0457821802909557]",4.0,"[0.11667203981400831,-0.1043031389175081]",4.0,"[-0.06848819059145414,0.03009788860286143]",100.0,"[0.06348459706233181,0.022306960643297163]",4.0,"[0.07489859714145004,-0.07757973348639682]",100.0,"[-0.08869232865205495,0.12523494043399627]",4.0,"[-0.05593019387591575,-0.1366853252168797]",100.0,"[-0.18628112175521733,-0.030041859712952194]",100.0,"[-0.14531610328474756,0.04350203575870849]",4.0,"[0.000019048817567762115,0.01767683665044844]",4.0,"[-0.10012485744161613,-0.09289414256780162]",100.0,"[-0.10554700953104623,-0.041188339373895676]",100.0,"[-0.008678314780448195,-0.03252011632329528]",4.0,"[0.03197904949837733,0.1168841453461766]",4.0,"[-0.13852684101413276,0.12039120057825127]",100.0,"[-0.05403156004926308,-0.011087770800459648]",4.0,"[0.12792523828477878,-0.04949235204204944]",4.0,"[0.06440313097774451,0.06282784698300692]",100.0,"[0.13527364265498282,-0.004304431012520834]",4.0,"[-0.006059294545540437,-0.11588246616340543]",100.0,"[-0.1400150985226553,-0.11616590970518069]",100.0,"[0.11090812407966517,0.15011431656256602]",4.0,"[-0.180033117510111,-0.07507666948283505]",100.0,"[0.04891032951540896,0.1610876604898441]",100.0,"[-0.10435957019233123,0.16228681314258978]",100.0,"[0.035924453628138384,-0.02203575061557109]",100.0,"[0.18258730988225175,0.05489359436365138]",100.0,"[0.07759113400788267,0.11864803030825505]",4.0,"[0.033990637781343085,-0.08005809456764548]",4.0,"[0.19324014927435745,-0.03526550621065515]",100.0,"[-0.09855446651075755,0.06288813127807492]",100.0,"[0.1372492035718846,0.07182632630577804]",100.0,"[0.02,0.02]",107.2008,0.0,13.0,13.0,88.0,1.0,,,,,,,
,,,,,,,6744814c173b9afac78cf039,6846a84c60a471a75d0d8e47,2025-06-09_11h28.56.973,shape_ratio,2024.1.5,Win32,57.80346821,684250e4f00cb30b92d1fa88,,,,,,,,,,,107.2014,107.6899,,,107.9433,108.0234,left,,,,,,,,0.5,0.0619,,,,,,,107.69,107.9433,108.0235,"[0.1475782198608214,-0.029651832562168235]",4.0,"[-0.1402155977673897,0.007001848488137335]",4.0,"[-0.06123204782737778,-0.09869481471075875]",4.0,"[0.11693251816405983,0.07390183910804787]",100.0,"[0.10618473038470924,-0.00141509989382672]",100.0,"[0.07977429383782228,-0.10673127299489117]",100.0,"[-0.09101439884318253,0.053321447187086764]",4.0,"[0.05569358599851361,-0.03160169999800246]",100.0,"[0.05388639058845884,-0.15588444952242747]",4.0,"[-0.07275814506387757,0.12631582669137473]",100.0,"[-0.04422809536407787,0.17502705479972824]",4.0,"[0.0023207523411475093,-0.00044562135243414013]",100.0,"[-0.17966723784065497,0.05495051828400516]",4.0,"[-0.05169384618757351,0.06659594333443171]",4.0,"[0.04357250184780529,0.18658521257545232]",4.0,"[0.08028009267863308,0.1508612279181618]",100.0,"[0.01811684865334163,-0.07602081729407016]",100.0,"[0.12206893552439635,-0.10058851652604567]",100.0,"[-0.011081371854856118,-0.12426088537080501]",100.0,"[0.1356737520432021,0.12362890507232671]",100.0,"[-0.038952159483320405,-0.01931743780344149]",100.0,"[-0.12526484266044519,0.15521071876860004]",4.0,"[0.07121638916430126,0.07217347831330247]",4.0,"[-0.0003246871239295035,-0.17139088988416953]",4.0,"[0.12988791189077015,-0.14262957534330617]",4.0,"[0.0333704836331021,0.09341004768765886]",100.0,"[-0.06830521532445746,-0.18319390655251336]",4.0,"[0.09199883323361638,-0.06028072025881289]",100.0,"[-0.1581661010861123,-0.05913547466563927]",100.0,"[0.0038924585981878266,0.12617905204987778]",100.0,"[0.07310826243686631,0.022157752223732508]",4.0,"[0.19561526663465797,0.005030791561636796]",4.0,"[0.02,0.02]",109.1214,0.0,14.0,14.0,95.0,1.0,,,,,,,
,,,,,,,6744814c173b9afac78cf039,6846a84c60a471a75d0d8e47,2025-06-09_11h28.56.973,shape_ratio,2024.1.5,Win32,57.80346821,684250e4f00cb30b92d1fa88,,,,,,,,,,,109.1222,109.6241,,,109.8736,109.8916,right,,,,,,,,0.45,0.0012,,,,,,,109.6242,109.8735,109.8916,"[-0.12188914547743543,-0.155269740767628]",4.0,"[-0.194538810454805,-0.015234186166103596]",4.0,"[0.1063966068428108,-0.085852454315572]",4.0,"[0.11151706021066182,-0.1573656911387917]",4.0,"[-0.10299693230725325,0.15914878189354512]",4.0,"[0.07097408393182852,-0.016936382786989456]",100.0,"[0.0625869492140869,0.14810035620927373]",4.0,"[-0.11566511192112064,0.07687681842169071]",100.0,"[0.16569249148389897,0.018569821337785297]",4.0,"[0.17676723572934602,-0.0815293614250276]",100.0,"[-0.05418246768511886,-0.03480453986677326]",4.0,"[-0.13786273481531047,0.022738976702890424]",100.0,"[-0.1467524172276231,-0.020096787445410734]",4.0,"[0.019842481188864728,-0.1254434213077714]",4.0,"[0.08327828328695726,0.02579935079453255]",100.0,"[0.11355760091916804,0.12828929186165308]",4.0,"[0.16501461287817024,-0.03162905725618854]",100.0,"[-0.033888550685227635,0.13325816092919732]",4.0,"[-0.018598769537402814,0.05022360463544401]",4.0,"[0.06780349223201511,-0.15804767594592917]",100.0,"[-0.06546669679631313,-0.14581858709822096]",100.0,"[-0.09843789539723503,-0.0768530523403732]",4.0,"[-0.1751288774786636,0.074528160514813]",100.0,"[0.08341164112674698,0.09907027942246754]",100.0,"[-0.09371518584079686,0.02419881841762101]",4.0,"[0.010658546334316671,-0.0000990016373228475]",100.0,"[0.022740473254995206,0.10727275998888684]",4.0,"[-0.0318365699215494,-0.18864523640327965]",4.0,"[0.1421094194364205,0.0646234606773556]",100.0,"[-0.009270990837992836,0.18392090613002834]",100.0,"[-0.1391666874418511,-0.10444243155078797]",100.0,"[-0.1968650919192909,0.027924831900037514]",4.0,"[0.02,0.02]",111.0046,0.0,15.0,15.0,127.0,1.0,,,,,,,
,,,,,,,6744814c173b9afac78cf039,6846a84c60a471a75d0d8e47,2025-06-09_11h28.56.973,shape_ratio,2024.1.5,Win32,57.80346821,684250e4f00cb30b92d1fa88,,,,,,,,,,,111.0055,111.5086,,,111.7414,111.7603,left,,,,,,,,0.1,0.0012,,,,,,,111.5086,111.7413,111.7604,"[-0.0178174343066308,-0.1645556456368036]",4.0,"[-0.022799038972090065,0.12747562510270813]",4.0,"[0.17755975117527809,0.014458916450185082]",4.0,"[0.12424623342239788,0.07397124861150664]",4.0,"[-0.09254770848253102,-0.07755796061823712]",4.0,"[-0.13460953415664295,0.1329771407638165]",4.0,"[0.043615389979303594,0.12081797503683772]",4.0,"[0.05283060832868128,0.002212302517899996]",4.0,"[0.10546232032609033,0.1374759776819427]",4.0,"[-0.013460650562964,0.19296821783278773]",4.0,"[-0.07717607078682358,-0.024879306371381853]",4.0,"[0.06447099629653327,-0.08937125580619266]",4.0,"[0.17220132554941578,-0.0711068473944042]",4.0,"[0.11854405438419231,0.021550652498438082]",4.0,"[0.04430264874339122,-0.05396349834088697]",4.0,"[0.002490698655434853,-0.10267170823629898]",4.0,"[-0.052597047657141766,-0.0709910767661379]",4.0,"[0.06302010465621574,-0.14301138628074067]",4.0,"[0.18345250763488768,0.0668007263067344]",4.0,"[-0.11770050545553724,-0.015158389742722562]",4.0,"[-0.024439349969934986,0.06006866402740979]",4.0,"[0.11480887747728646,-0.12008198021427725]",4.0,"[-0.0321043256717148,-0.0038039079615463075]",4.0,"[-0.07583092889073707,0.1758638715347756]",100.0,"[-0.1612210102422863,0.054321769400810876]",4.0,"[-0.01508080929466934,-0.05076270986651564]",4.0,"[-0.13068025461169144,-0.1403146472839737]",100.0,"[0.12585239432683593,-0.05156663827115436]",4.0,"[0.10069896376781183,-0.01811828158819033]",4.0,"[0.055577471823225866,0.06070762290526137]",4.0,"[-0.16535906150834442,0.008951087694855194]",100.0,"[0.0700639604491033,0.15656910476746377]",4.0,"[0.02,0.02]",112.8424,0.0,16.0,16.0,181.0,1.0,,,,,,,
,,,,,,,6744814c173b9afac78cf039,6846a84c60a471a75d0d8e47,2025-06-09_11h28.56.973,shape_ratio,2024.1.5,Win32,57.80346821,684250e4f00cb30b92d1fa88,,,,,,,,,,,112.8433,113.3438,,,113.5926,114.5879,left,,,,,,,,0.6,0.9761,,,,,,,113.3438,113.5926,114.588,"[0.06432178741785856,0.12178505171090809]",100.0,"[-0.148859547816984,-0.0486633975737047]",4.0,"[0.004781077744889699,0.1813100510493144]",4.0,"[-0.053029147261993766,0.027317218742249936]",4.0,"[0.04106900032094051,-0.16706699705220404]",100.0,"[-0.022495088068625383,-0.044727384635371695]",100.0,"[0.023643751904688235,-0.02823602165271713]",4.0,"[-0.046719006696639476,-0.12424583841754251]",4.0,"[0.12235805738056894,0.058472848988401036]",100.0,"[0.07839213063114064,0.016355600608041615]",4.0,"[-0.10147987833002989,0.014470188844725881]",4.0,"[-0.06388494869016938,-0.17914615299077177]",4.0,"[-0.13682491599532542,0.07755202022163149]",100.0,"[0.12075146714045389,-0.09030319085909456]",100.0,"[0.07578718377708381,0.1705393340612382]",100.0,"[0.19239449100621836,-0.01577020738245868]",100.0,"[0.16063236173581366,0.07696049199627049]",100.0,"[0.1348465957946115,-0.14210139190885068]",100.0,"[-0.0696492254138024,0.06733026153712142]",4.0,"[-0.12248019032107636,0.13127146670149062]",100.0,"[-0.09160798779689346,-0.07216165074803388]",100.0,"[0.12957140956895027,0.1140778953751871]",100.0,"[-0.018306997661556437,0.1407890023248224]",4.0,"[0.03764878292898205,-0.08324322351861518]",100.0,"[-0.03662375598125503,-0.08378952826431153]",100.0,"[-0.09563824696680023,-0.12956817948565053]",100.0,"[0.1390358170248375,0.001782543013080546]",100.0,"[0.11941948421383715,0.15954734112433117]",100.0,"[0.029511018188995708,0.0759767548191843]",100.0,"[-0.06320183947030683,-0.02216672379890325]",4.0,"[-0.1749280227743183,0.03193365271051053]",4.0,"[0.08149132752289287,-0.07188945896430307]",4.0,"[0.02,0.02]",115.6813,0.0,17.0,17.0,34.0,1.0,,,,,,,
,,,,,,,6744814c173b9afac78cf039,6846a84c60a471a75d0d8e47,2025-06-09_11h28.56.973,shape_ratio,2024.1.5,Win32,57.80346821,684250e4f00cb30b92d1fa88,,,,,,,,,,,115.6848,116.182,,,116.4434,116.7269,right,,,,,,,,0.1,0.2659,,,,,,,116.1821,116.4433,116.727,"[-0.1105624448508601,-0.16434897930114123]",4.0,"[0.11582221189470476,-0.04278068133884226]",4.0,"[0.09863905475765439,0.1629886501967465]",4.0,"[-0.09887727710830295,0.049902516832025144]",4.0,"[0.10462984649226247,0.06164358085647361]",100.0,"[-0.13777083161712178,0.12918882877424673]",4.0,"[0.06066451887966397,0.00790180857417542]",4.0,"[0.0037809735696392134,0.06530903638306466]",4.0,"[0.13461504616478112,-0.11474150790885226]",4.0,"[-0.06907152155476196,0.1116201591963254]",4.0,"[0.0001282359691443626,-0.13283130886834668]",4.0,"[-0.18317297184886566,-0.023214908116644367]",4.0,"[0.031031681989005397,-0.02648086361402598]",100.0,"[0.00529908375138516,-0.06575762047965147]",4.0,"[-0.04010668511232513,0.06160624428759334]",4.0,"[0.19440275909318683,-0.044041977164105725]",4.0,"[-0.04522532811483473,-0.17682235324780904]",4.0,"[0.08963565705426903,-0.09378426424093388]",4.0,"[0.02170425706591443,0.1188331458826535]",4.0,"[0.1957108240829837,0.021135619730328924]",4.0,"[-0.13813355492459783,-0.011089722278224617]",100.0,"[-0.0118386780455371,0.15990142463956777]",4.0,"[-0.13721588798971177,-0.09854803264995529]",4.0,"[0.0481987535541058,0.18991808483424077]",4.0,"[0.04860486497777839,-0.14215374563612912]",4.0,"[0.08317143537684624,-0.1814313849656143]",4.0,"[0.08123954331150948,0.0957768774372189]",4.0,"[-0.043654143861452804,0.02101457986781501]",4.0,"[-0.06759053793061794,-0.12577944944149927]",4.0,"[-0.1660038485734946,0.06170773687478748]",4.0,"[-0.05277100862341324,-0.07650798486178347]",4.0,"[0.1814812104099383,0.07626393877187831]",4.0,"[0.02,0.02]",117.8217,0.0,18.0,18.0,183.0,1.0,,,,,,,
,,,,,,,6744814c173b9afac78cf039,6846a84c60a471a75d0d8e47,2025-06-09_11h28.56.973,shape_ratio,2024.1.5,Win32,57.80346821,684250e4f00cb30b92d1fa88,,,,,,,,,,,117.8226,118.3282,,,118.5792,118.7886,left,,,,,,,,0.55,0.181,,,,,,,118.3282,118.5792,118.7888,"[0.09010417129764732,-0.12110265950718109]",4.0,"[0.004264784380522936,-0.17883374135398358]",100.0,"[0.02301718441177202,0.13986392373862416]",100.0,"[0.13056945600499462,-0.029551608833660502]",100.0,"[-0.01590728046847202,0.05969065817665332]",100.0,"[0.12083748587782839,0.06606223922815281]",100.0,"[-0.01896123416160228,0.1723714021176429]",100.0,"[0.028127823177399647,-0.11470306621696809]",100.0,"[0.17817822024133215,-0.013142260082970088]",100.0,"[0.10742196061218996,-0.16299821268488587]",100.0,"[-0.05415163718365591,0.004874390607714054]",100.0,"[-0.19993030857034255,-0.0006955505893986951]",4.0,"[0.12474488552065889,0.13732950093424734]",100.0,"[-0.13270414234195513,-0.04477414817211731]",4.0,"[0.053822371924389316,-0.16643347875100023]",100.0,"[-0.1337406568939933,-0.09913154484000349]",4.0,"[-0.12136751507662877,0.032358262913012144]",4.0,"[0.11598349301317987,0.01909843064040431]",4.0,"[0.06488110101507824,0.15970293691839896]",4.0,"[-0.09752533444301047,0.11061293126783946]",4.0,"[0.1601885231224158,-0.09981962577736281]",4.0,"[-0.06764278338565918,-0.08661275585387933]",100.0,"[-0.057045899460089936,-0.13442764869992663]",4.0,"[-0.1179690890992546,0.15697282999271656]",100.0,"[-0.080332450918501,-0.1772572383319649]",100.0,"[0.09485780557365452,0.1098395910394627]",4.0,"[0.036242136045412154,-0.023798823151600465]",100.0,"[-0.15704126043831154,-0.008332300352259497]",100.0,"[-0.15148614537477198,0.09618857933656962]",4.0,"[0.06375879670309241,-0.06075581586713029]",100.0,"[-0.0905403177613725,0.06080293663147575]",4.0,"[-0.08223301464830796,-0.03255192577352393]",4.0,"[0.02,0.02]",119.9087,0.0,19.0,19.0,66.0,1.0,,,,,,,
,,,,,,,6744814c173b9afac78cf039,6846a84c60a471a75d0d8e47,2025-06-09_11h28.56.973,shape_ratio,2024.1.5,Win32,57.80346821,684250e4f00cb30b92d1fa88,,,,,,,,,,,119.9092,120.394,,,120.6404,120.7046,right,,,,,,,,0.9,0.0478,,,,,,,120.3941,120.6403,120.7047,"[-0.08809020489081858,-0.045451650677771786]",100.0,"[-0.14369898608563134,-0.07624787315800091]",100.0,"[0.08506418436969321,0.14219189519707853]",100.0,"[0.18290585980951846,-0.023555506398085756]",100.0,"[-0.08182032005503645,0.10093283249176736]",100.0,"[0.12145195246233882,0.0052440846592663555]",100.0,"[-0.12874086192237172,-0.03640388140296637]",4.0,"[-0.0490503275878713,-0.12173529186023561]",100.0,"[-0.022548232466074666,-0.014342659488006807]",100.0,"[-0.10612403009548003,0.02025939352482705]",100.0,"[0.14590913347644802,0.05549421437099836]",4.0,"[0.003796722714210391,-0.0659877125223639]",100.0,"[0.05299140407390889,-0.056653923822881626]",100.0,"[-0.03622763280480757,-0.06732909112879927]",100.0,"[0.135153417915926,-0.1053542837196067]",100.0,"[-0.00906121224787515,-0.19618746008774202]",100.0,"[0.029718363732003334,0.045673334851733104]",100.0,"[0.13294166048703437,0.11106524612752564]",100.0,"[0.0027029784172123528,-0.14191219450903278]",100.0,"[-0.08329095598593045,0.1417385044402798]",100.0,"[0.0794000112829491,0.02115838884853446]",100.0,"[0.021445715039077384,0.11614309043250767]",100.0,"[0.08638474441162525,-0.144646742506293]",4.0,"[0.07230953397948714,-0.02028083709370216]",100.0,"[-0.023117478215730694,0.09258238398329093]",100.0,"[0.012633198096988303,0.17872310439786523]",100.0,"[0.1784006037793926,0.08857340248906444]",100.0,"[-0.07020529608731046,-0.1610980815498778]",100.0,"[0.05214952134291677,-0.09845729219724252]",100.0,"[-0.15354272718109946,0.10390836211247659]",100.0,"[0.08408028280580092,0.06496083389154172]",100.0,"[-0.0340393083739839,0.03617324780161242]",100.0,"[0.02,0.02]",121.7863,0.0,20.0,20.0,20.0,1.0,,,,,,,
,,,,,,,6744814c173b9afac78cf039,6846a84c60a471a75d0d8e47,2025-06-09_11h28.56.973,shape_ratio,2024.1.5,Win32,57.80346821,684250e4f00cb30b92d1fa88,,,,,,,,,,,121.7868,122.2874,,,122.5299,122.6453,left,,,,,,,,0.4,0.0975,,,,,,,122.2875,122.5299,122.6455,"[-0.10251787461486991,-0.1320911661016028]",4.0,"[0.1707737294398855,-0.020518920019803755]",100.0,"[0.06846721683360635,-0.11785615936167113]",4.0,"[-0.12293989005835372,-0.05900938522022309]",100.0,"[0.14174718897844854,0.0462710793631713]",4.0,"[-0.04944146788900005,0.04882829375796305]",100.0,"[0.12987807460543566,-0.14299475253138091]",4.0,"[-0.18991240190843697,0.022690148910092956]",100.0,"[-0.03578814264540813,-0.11005201659039696]",100.0,"[0.0720628594902386,-0.16662359217794037]",100.0,"[0.07580548855480275,0.1427825235322285]",4.0,"[-0.12784586972320255,0.13173303636921316]",100.0,"[0.027602972159653263,0.16760989341794677]",4.0,"[-0.020543284893412467,0.09538104672012945]",4.0,"[-0.12856882550645876,0.022319187654434254]",100.0,"[0.13777945204066339,0.11701655456036483]",100.0,"[0.0702231113951561,-0.0007744810399129636]",4.0,"[-0.18260313593087235,-0.07016761113747805]",4.0,"[0.09980031157390766,0.09118881030098713]",100.0,"[0.10607249794262268,-0.10292321452583877]",100.0,"[-0.06264786765471425,-0.1653244703439699]",100.0,"[0.05434173359755745,-0.05987847105679072]",4.0,"[0.002264568531825287,-0.02560295413992554]",100.0,"[-0.024623812235906734,-0.19197560086219836]",4.0,"[0.019314936988822744,-0.14458719847492715]",4.0,"[-0.02809201149112302,0.18230640120804734]",4.0,"[-0.06800461550572379,-0.02197011452683237]",4.0,"[0.004160499619458889,-0.09458236751387541]",4.0,"[-0.005121072048063701,0.14105725577193365]",4.0,"[0.10148387662082473,-0.03983958399309852]",4.0,"[0.16840612500643973,-0.07326480596691444]",4.0,"[-0.15558200263721927,-0.02540150493553321]",4.0,"[0.02,0.02]",123.7583,0.0,21.0,21.0,172.0,1.0,,,,,,,
,,,,,,,6744814c173b9afac78cf039,6846a84c60a471a75d0d8e47,2025-06-09_11h28.56.973,shape_ratio,2024.1.5,Win32,57.80346821,684250e4f00cb30b92d1fa88,,,,,,,,,,,123.7591,124.2605,,,124.5136,124.5987,right,,,,,,,,0.1,0.0573,,,,,,,124.2606,124.5135,124.5989,"[0.06783454654211386,-0.14475354732677162]",4.0,"[-0.1636651856402548,0.030286654354888264]",4.0,"[0.15705734995335885,-0.05437920087314125]",4.0,"[0.11360059625310513,-0.11867217982902215]",4.0,"[-0.0033578757921335824,0.19263090772677063]",4.0,"[-0.0174523865948458,-0.004661271721578635]",4.0,"[-0.11102367675473786,-0.1658465081332144]",4.0,"[0.04841649718908474,-0.19392562111689896]",4.0,"[0.08352457324136395,0.0366260718586807]",4.0,"[0.07859333103998534,0.08508648824253477]",4.0,"[0.10582365230319483,0.11507933968707322]",4.0,"[-0.09136736676906174,0.05949811485206307]",4.0,"[-0.07905270796285327,-0.06449782051299188]",4.0,"[-0.0547933418760842,0.1620238868179431]",100.0,"[0.16890216228373325,0.10411663860727194]",4.0,"[-0.0012840272036449458,0.10655335642829045]",4.0,"[0.16580058918909735,-0.10219961968812638]",4.0,"[-0.15027647194555596,-0.0964708635196843]",4.0,"[-0.09102439164896606,0.13428010176309096]",4.0,"[-0.1583988134809286,-0.03368756391689348]",4.0,"[0.040137213105089664,0.09638591243449614]",4.0,"[-0.006689048131405517,-0.12853732194545575]",4.0,"[-0.13215312773927515,0.08348324603958228]",4.0,"[-0.0424435614219817,0.06551224347709705]",4.0,"[0.09922771940550268,-0.013691551131895255]",4.0,"[-0.10584496220575124,-0.006718751598262785]",4.0,"[-0.05039500097561884,0.01912929894819584]",100.0,"[0.19250998508201886,0.03476727650592906]",4.0,"[0.018121203788822843,0.039460933709926795]",100.0,"[-0.021686155275338577,-0.19506555265094078]",4.0,"[0.06674681400129882,-0.10433187181914995]",4.0,"[0.19522001674679426,-0.02641808257314106]",4.0,"[0.02,0.02]",125.6968,0.0,22.0,22.0,207.0,1.0,,,,,,,
,,,,,,,6744814c173b9afac78cf039,6846a84c60a471a75d0d8e47,2025-06-09_11h28.56.973,shape_ratio,2024.1.5,Win32,57.80346821,684250e4f00cb30b92d1fa88,,,,,,,,,,,125.6977,126.1919,,,126.4482,126.4846,left,,,,,,,,0.45,0.019,,,,,,,126.1919,126.4481,126.4846,"[0.1212849146867306,0.07989779498538077]",4.0,"[0.05475326054401108,-0.07454330507506376]",100.0,"[-0.07939081839340112,0.07052247393724176]",4.0,"[-0.09688464424073485,-0.06417530075704393]",4.0,"[0.04236200391097938,0.10734863883425576]",4.0,"[0.005060251001766589,-0.09591788654209049]",4.0,"[-0.09153452686188454,-0.14907682896617278]",4.0,"[-0.185183500162265,-0.06622307890982007]",4.0,"[0.11263918113418042,0.033537755440535215]",100.0,"[-0.19421041218418408,0.022967596556186222]",4.0,"[-0.07309288422160869,0.1814808463762779]",100.0,"[-0.022343683667015297,-0.1394948775773676]",4.0,"[0.06178235137630407,-0.13694733711727655]",4.0,"[0.18813539002130214,0.02957730232129855]",4.0,"[-0.1525922186925529,0.02044400129981858]",100.0,"[0.16429044044597807,-0.09763453985820231]",4.0,"[0.1573558987977321,-0.00533381780214435]",100.0,"[0.0763633796115095,0.07213266893560848]",100.0,"[0.11053744200997802,-0.10856819880027804]",4.0,"[0.03230132294020341,0.020059714148253097]",100.0,"[-0.1273105901856928,-0.03267991456961739]",100.0,"[-0.058395075076289195,0.014029792752403743]",100.0,"[-0.1613635546652484,0.11221473889742509]",4.0,"[-0.018890236096067013,-0.19417577782576345]",100.0,"[0.04874917562007515,0.18330101489718412]",4.0,"[0.109439658963953,0.13979294623710004]",100.0,"[-0.10874347070234985,0.1601553185363361]",100.0,"[0.1781780150328326,-0.04817738574883524]",4.0,"[0.05949325503505835,-0.02607309385696906]",4.0,"[-0.14531811883647477,0.06509527105524006]",100.0,"[-0.030744475785485968,0.12026225625121674]",4.0,"[-0.018718697383516066,0.050687955540884455]",100.0,"[0.02,0.02]",127.5761,0.0,23.0,23.0,142.0,1.0,,,,,,,
,,,,,,,6744814c173b9afac78cf039,6846a84c60a471a75d0d8e47,2025-06-09_11h28.56.973,shape_ratio,2024.1.5,Win32,57.80346821,684250e4f00cb30b92d1fa88,,,,,,,,,,,127.5771,128.0815,,,128.3105,128.4672,right,,,,,,,,0.45,0.1388,,,,,,,128.0816,128.3104,128.4673,"[0.011961650627282156,-0.101140281031003]",100.0,"[0.17023268835247302,-0.0058292661948228]",100.0,"[0.0918704523467831,0.126716102724584]",100.0,"[0.005463199890139079,0.034832662253969186]",4.0,"[0.13948859862071528,-0.08615236435337095]",4.0,"[0.00428217790069316,0.1885706924442546]",4.0,"[0.02724324959212594,0.13029074589775974]",100.0,"[0.041237561292859166,0.08648138166897228]",100.0,"[0.10029821632177476,0.06871949704013891]",100.0,"[-0.1663570128606842,0.10042980234692211]",100.0,"[-0.08304661075483945,0.11920922912713001]",100.0,"[-0.1488788218278354,0.06007706191401011]",4.0,"[0.0728769719045005,-0.001228755834796286]",4.0,"[-0.18264846644890959,-0.07208391255203762]",4.0,"[-0.04261272875853892,-0.11431342812207407]",4.0,"[-0.10801388931243744,-0.09517066578980313]",100.0,"[-0.05768453581561349,-0.004562004746054797]",4.0,"[-0.10061929474013845,0.03249862424307662]",4.0,"[0.18029374289240405,0.06612209649110981]",100.0,"[0.057754341455240256,-0.1019503946755826]",4.0,"[0.07373670702270642,-0.1398041599408714]",100.0,"[0.0016020772575716352,-0.04344440076124543]",4.0,"[-0.04040791207291199,0.03638451918345745]",100.0,"[-0.08612468095195039,-0.03527696236529079]",4.0,"[-0.03973503125988333,-0.06644491845223742]",100.0,"[-0.13803149497699083,-0.13738177542279165]",100.0,"[-0.1053201437018539,0.07428561820688265]",4.0,"[-0.0016948020938663585,-0.18673903661424054]",4.0,"[0.1437258422275509,0.1147200799070507]",4.0,"[0.1265959529721924,-0.02849217133575268]",4.0,"[-0.04199554639576564,0.1280488122743667]",4.0,"[-0.17721163060594355,0.02150687539861316]",4.0,"[0.02,0.02]",129.5523,0.0,24.0,24.0,128.0,1.0,,,,,,,
,,,,,,,6744814c173b9afac78cf039,6846a84c60a471a75d0d8e47,2025-06-09_11h28.56.973,shape_ratio,2024.1.5,Win32,57.80346821,684250e4f00cb30b92d1fa88,,,,,,,,,,,129.5533,130.0455,,,130.3001,131.4568,right,,,,,,,,0.5,1.139,,,,,,,130.0456,130.3001,131.4568,"[0.10090698330388448,-0.07716064738768201]",4.0,"[-0.15353250838638416,-0.11571849993889494]",4.0,"[0.03328146220849664,0.008551532134900978]",100.0,"[0.15957655574407642,0.11984891063297698]",4.0,"[0.1493822141019038,0.014631361316053476]",100.0,"[-0.1467133584910411,0.03496197863038378]",100.0,"[-0.1923538134045055,-0.03756167531872683]",4.0,"[0.16681523243030477,-0.030548219881448124]",100.0,"[-0.07229043573583781,-0.11435893080795373]",4.0,"[-0.07061047835069087,0.1763067114737798]",4.0,"[0.16540902788493403,-0.08494135853594811]",100.0,"[0.05611256390336459,0.07030807723559679]",100.0,"[0.006229850843638941,0.1677467244513291]",4.0,"[0.03695179357619043,-0.15888092376882618]",4.0,"[0.06230627602137313,0.13965296941183408]",4.0,"[0.09310780221527434,-0.028548321542431823]",4.0,"[-0.005113230803988911,-0.013384827949411739]",100.0,"[-0.033234755178064394,-0.14613544941903125]",100.0,"[-0.016538425129295445,0.12572035597279083]",4.0,"[-0.1152466994734788,0.07231683191391486]",100.0,"[0.12196272025830483,-0.1432642687181708]",100.0,"[-0.08889219917783299,-0.06502163388191143]",4.0,"[0.10372448141982792,0.08152886117028704]",100.0,"[-0.027015214380043236,0.07652076576362908]",4.0,"[0.003596122838767538,-0.10365877226849239]",100.0,"[0.1724635789002207,0.054061296853588306]",4.0,"[0.08551400104091494,0.036138568348699]",4.0,"[-0.05929906895083012,0.05254265420975163]",100.0,"[-0.03016144256591645,-0.0678469578082573]",100.0,"[-0.09087229724404272,-0.0023942783131817844]",4.0,"[-0.17463630237216576,0.06539452186859933]",100.0,"[-0.07403526753145313,-0.17253074327105825]",100.0,"[0.02,0.02]",132.5454,0.0,25.0,25.0,111.0,1.0,,,,,,,
,,,,,,,6744814c173b9afac78cf039,6846a84c60a471a75d0d8e47,2025-06-09_11h28.56.973,shape_ratio,2024.1.5,Win32,57.80346821,684250e4f00cb30b92d1fa88,,,,,,,,,,,132.5463,133.0459,,,133.2988,133.4026,left,,,,,,,,0.5,0.0944,,,,,,,133.046,133.2987,133.4026,"[-0.15163540182288737,-0.0044280385166211135]",4.0,"[0.07406071347674946,0.03158214347100968]",100.0,"[0.114453061978866,-0.09719413825137094]",100.0,"[-0.018530094805353475,0.14549397025923994]",4.0,"[0.05348135743647112,-0.07351660494329121]",100.0,"[-0.059685271913830905,0.03416816943503669]",4.0,"[-0.15464931819559735,-0.10486950498381326]",100.0,"[0.020593862293119505,0.16250151420968878]",4.0,"[-0.03149185632278499,-0.030407519317487752]",4.0,"[-0.02886469503388477,-0.13187999050449192]",4.0,"[-0.029162328340905316,0.09950098560336246]",100.0,"[-0.11976539586966102,0.08478474866540776]",100.0,"[0.13605963823117465,-0.006773782836982555]",4.0,"[0.019285645328848546,0.058021495735820126]",100.0,"[-0.17195472798380715,0.08233212214625013]",100.0,"[-0.11054499608175676,-0.07832180584284272]",4.0,"[0.17713810353589052,0.00396076993004637]",100.0,"[0.007306112780263289,-0.18488232436486277]",100.0,"[-0.04434623143591637,-0.1892049221619602]",100.0,"[0.0710318635628133,0.11741875216613226]",4.0,"[0.06587844277052796,-0.17043919889481854]",100.0,"[-0.06283322346505224,0.18966972180858582]",4.0,"[-0.010010839154887789,-0.0930386585926088]",4.0,"[-0.11480773548562331,-0.12311788590758808]",4.0,"[-0.1867709534904301,-0.03593587961254374]",100.0,"[0.18639749468617212,0.051845238890706635]",4.0,"[0.18110200651680106,-0.05980168390698078]",100.0,"[-0.09679058048083847,0.14326564124191193]",4.0,"[-0.13597206372560502,0.13147242300431808]",4.0,"[0.01496661900952919,0.10931573476209426]",100.0,"[-0.0718873499007577,-0.15764779103109228]",4.0,"[0.12418511513874828,-0.05813948527184008]",100.0,"[0.02,0.02]",134.4908,0.0,26.0,26.0,105.0,1.0,,,,,,,
,,,,,,,6744814c173b9afac78cf039,6846a84c60a471a75d0d8e47,2025-06-09_11h28.56.973,shape_ratio,2024.1.5,Win32,57.80346821,684250e4f00cb30b92d1fa88,,,,,,,,,,,134.4913,134.99,,,135.243,135.5351,left,,,,,,,,0.55,0.2635,,,,,,,134.9901,135.2429,135.5352,"[-0.03591390342043141,0.059292541227220295]",100.0,"[0.05893946462310444,0.0005481938522729426]",4.0,"[-0.19217807954530702,-0.005411485746175488]",100.0,"[0.12651983587871654,-0.05425336404138379]",100.0,"[-0.07860779909361854,0.0634656915696726]",100.0,"[0.06467720601995869,0.10910038983393856]",100.0,"[0.041303833587601126,0.14920788957778586]",4.0,"[-0.029328060183371998,0.01339622749707958]",4.0,"[0.14357508789946538,0.061092181691239825]",4.0,"[-0.09754270743741049,-0.02006612646059482]",100.0,"[-0.09500361155720106,0.1378544907147258]",4.0,"[0.11617344025737532,0.020151554547392442]",4.0,"[-0.10262457821143091,-0.09784069429787019]",100.0,"[0.17240301418210138,-0.050308611217571415]",100.0,"[0.19480810440599844,-0.012891806539697057]",4.0,"[-0.04753018227504235,-0.11911129536652623]",100.0,"[0.0362960587375143,-0.08371550716171165]",100.0,"[0.09358793248117393,-0.11466764396111087]",4.0,"[0.03281511758246823,-0.0323638319585349]",4.0,"[-0.05266604545094069,0.13312624137737172]",100.0,"[-0.0012452539425480552,-0.1139422145908655]",100.0,"[-0.10738368597948819,-0.16039984105629404]",4.0,"[-0.15844890590177144,0.029199825146283498]",100.0,"[0.009862189823339203,-0.16295205333555848]",100.0,"[0.1570291421383112,0.02166446238030871]",4.0,"[0.10278586296383212,0.14192405379813536]",100.0,"[-0.11912200929470436,0.07405125393199447]",4.0,"[0.07500197069657838,0.17086217353896974]",100.0,"[-0.006787456281951681,-0.06996095640010108]",4.0,"[-0.12049471321452991,-0.05322096050490088]",4.0,"[0.0620929035286909,0.060327358432812055]",100.0,"[-0.06751419001962948,0.17261933870407725]",100.0,"[0.02,0.02]",136.6257,0.0,27.0,27.0,77.0,1.0,,,,,,,
,,,,,,,6744814c173b9afac78cf039,6846a84c60a471a75d0d8e47,2025-06-09_11h28.56.973,shape_ratio,2024.1.5,Win32,57.80346821,684250e4f00cb30b92d1fa88,,,,,,,,,,,136.6266,137.1238,,,137.3757,137.5975,left,,,,,,,,0.9,0.1978,,,,,,,137.1239,137.3756,137.5976,"[-0.007498736108957449,0.08400004591949871]",4.0,"[0.12677998834367002,-0.035151427732386276]",100.0,"[0.011545024268370953,0.04681790492988937]",100.0,"[-0.09662191475760869,-0.031917018979175545]",100.0,"[-0.0353753273684609,0.015291323083300673]",100.0,"[0.05273745718643587,0.04225268428514388]",100.0,"[-0.15123389105346463,-0.05657393640466365]",100.0,"[0.06888967822699181,0.1333436803127032]",100.0,"[-0.05672520042972714,0.1588844573887538]",100.0,"[0.02646588128530721,0.17483562768093816]",100.0,"[-0.09547244747325137,0.04902528460752897]",100.0,"[-0.04655995091016681,-0.03607427886954724]",100.0,"[0.03976167766836384,0.09928007682936564]",100.0,"[0.0988606283803787,0.05053726739372516]",100.0,"[0.16021647371222478,-0.0835946075504466]",100.0,"[-0.17314945015897368,-0.006969182406227383]",100.0,"[0.14069199732758847,0.09741984021142484]",100.0,"[0.025630166302631766,-0.05753617553038097]",100.0,"[-0.10605147421241361,0.16364373179273814]",100.0,"[0.07818460238696733,-0.037629082249131154]",4.0,"[0.11069483358003523,0.15175014761132052]",100.0,"[-0.02188314843933845,-0.19153081253193796]",100.0,"[-0.1467829991652687,0.07351525538575578]",100.0,"[0.0676193140257809,-0.12092533144096651]",100.0,"[-0.02886300407178184,-0.10824226602505337]",100.0,"[0.11252082988529159,-0.07573252569225068]",100.0,"[-0.13420561792027244,0.12419538553265792]",100.0,"[-0.11789376112818663,-0.09368256825752538]",100.0,"[-0.04588690604555135,0.06558651855737574]",100.0,"[0.09471717585166313,0.0049985183984735185]",4.0,"[-0.013814776141947854,-0.07091889293236808]",100.0,"[-0.18558600669479408,0.05750624074577457]",100.0,"[0.02,0.02]",138.6979,0.0,28.0,28.0,0.0,1.0,,,,,,,
,,,,,,,6744814c173b9afac78cf039,6846a84c60a471a75d0d8e47,2025-06-09_11h28.56.973,shape_ratio,2024.1.5,Win32,57.80346821,684250e4f00cb30b92d1fa88,,,,,,,,,,,138.6987,139.1865,,,139.4285,139.6856,right,,,,,,,,0.1,0.2329,,,,,,,139.1865,139.4285,139.6857,"[-0.13402368441153964,-0.05105462001292853]",4.0,"[0.03982562726478534,0.022595216072019562]",4.0,"[-0.09273824318968504,0.09393609179643084]",4.0,"[-0.10005411056826945,-0.14569687078959492]",4.0,"[0.06374297330211001,-0.10322136841435572]",4.0,"[0.19276131809111166,0.008356398796068485]",4.0,"[0.16120824638408246,0.038247161873494195]",4.0,"[0.05568616033996498,0.18313005400513183]",100.0,"[-0.09200897328637608,0.1736257882327108]",4.0,"[0.06637126786412269,0.07579798852919442]",100.0,"[-0.0761808783838449,-0.18274097747790977]",4.0,"[0.030172409890364942,0.12920178575292202]",4.0,"[-0.011555269237138267,0.1811722147266912]",4.0,"[-0.07592623755805603,0.029919329637118606]",4.0,"[-0.03628663762734087,-0.16357903880680583]",4.0,"[0.11446609935569123,-0.02517320285589649]",4.0,"[0.04740062966044798,-0.02408721223427765]",4.0,"[-0.049533987779452934,0.15095257383275235]",4.0,"[0.00533756655303243,0.05322513053302814]",100.0,"[-0.15116205516315567,0.11109150041795411]",4.0,"[-0.008142363814865126,-0.08582164768940062]",4.0,"[-0.1718146800707243,-0.07043365972773893]",4.0,"[-0.0806850561004205,-0.06450659943689499]",4.0,"[-0.17894115744173814,-0.011354068637014665]",4.0,"[-0.13551050916500987,0.03286473145741302]",4.0,"[0.006523488610142104,-0.03211342526000341]",4.0,"[-0.02952715268524625,0.10539290957967608]",4.0,"[0.08291111218757857,0.03336490412625218]",4.0,"[0.16756176915759136,0.10336259192451418]",4.0,"[0.11031789421410036,-0.09814382404553566]",4.0,"[0.06190729983664434,-0.17160902404681458]",4.0,"[0.07784379900573134,0.12254844793073255]",4.0,"[0.02,0.02]",140.7715,0.0,29.0,29.0,194.0,1.0,,,,,,,
,,,,,,,6744814c173b9afac78cf039,6846a84c60a471a75d0d8e47,2025-06-09_11h28.56.973,shape_ratio,2024.1.5,Win32,57.80346821,684250e4f00cb30b92d1fa88,,,,,,,,,,,140.7726,141.285,,,141.5389,141.922,left,,,,,,,,0.5,0.3618,,,,,,,141.285,141.5387,141.922,"[-0.1618957715027276,-0.0928230588159948]",4.0,"[0.05526449844283171,-0.09202979169305024]",100.0,"[0.09607055604826187,0.030975708311992717]",4.0,"[-0.06735760224932233,-0.17145453538375685]",4.0,"[-0.05256737852918471,-0.009499380865399566]",100.0,"[-0.09518482394056453,0.01663074252267426]",100.0,"[-0.13326834407897342,-0.14827552215078432]",100.0,"[-0.08795236965386195,-0.1362455363740785]",4.0,"[0.12217387142981163,-0.00994630504490425]",100.0,"[-0.08700429097480178,0.17833253878776129]",100.0,"[-0.036201672575285684,-0.14274091325005536]",100.0,"[0.13242600440189178,-0.14590331403364293]",100.0,"[0.030012564389967945,0.1515610674808387]",100.0,"[-0.08906835724750478,-0.08798157466656856]",100.0,"[0.056285946609219616,-0.15616645010205826]",100.0,"[-0.04575405475163035,0.08239394234869832]",4.0,"[0.04253965552029187,0.01923122592992645]",4.0,"[-0.17268201645022493,0.04058135754708599]",4.0,"[0.11755652353160613,0.08002464752800455]",100.0,"[0.05653230982278588,0.18774821313910348]",100.0,"[0.015055202653002673,-0.16799150792167572]",4.0,"[-0.015202181074061403,-0.08042996613062886]",4.0,"[-0.04293857452595916,0.14955248318649472]",100.0,"[-0.049609976221222894,-0.05458387923801406]",100.0,"[-0.19220133698573338,-0.042005018583108136]",100.0,"[-0.09697879829257783,-0.03916517265090687]",4.0,"[-0.10828784238396744,0.14236796852728162]",4.0,"[0.18372212474982388,-0.07893604726715409]",4.0,"[0.13163980552417234,-0.06793318863019703]",4.0,"[0.0137124884126886,-0.11951180438975142]",4.0,"[0.03157129435469824,0.09050763438003641]",4.0,"[-0.02041040916422885,-0.18871418751818883]",4.0,"[0.02,0.02]",143.0274,0.0,30.0,30.0,106.0,1.0,,,,,,,
,,,,,,,6744814c173b9afac78cf039,6846a84c60a471a75d0d8e47,2025-06-09_11h28.56.973,shape_ratio,2024.1.5,Win32,57.80346821,684250e4f00cb30b92d1fa88,,,,,,,,,,,143.0289,143.5257,,,143.7796,143.9395,right,,,,,,,,0.4,0.1366,,,,,,,143.5258,143.7795,143.9395,"[-0.0774405370270079,0.07219603649228223]",4.0,"[0.06635849483959289,-0.10733809986348905]",4.0,"[0.15654856384969515,-0.04056090381717922]",100.0,"[0.05415723725470489,0.025382290330160918]",4.0,"[0.04664602852646298,0.11341618722210993]",4.0,"[0.023836594752777836,-0.11631980280686845]",4.0,"[-0.04877992808050017,0.01592243039210118]",4.0,"[-0.1468176408330925,0.06541289329791104]",100.0,"[-0.01818361987077772,0.13705703502854424]",4.0,"[-0.10210650589317337,0.16422320489064485]",100.0,"[0.032965976215101646,-0.16626990937133834]",4.0,"[0.027533865720914086,0.1678885307424836]",100.0,"[-0.02000075797225644,-0.17623100315758053]",100.0,"[0.08437855750723734,-0.15857280475865193]",4.0,"[0.0028816697963613583,-0.028137171889201083]",100.0,"[-0.053776256723097014,-0.1114741465983401]",4.0,"[0.11071348913824547,0.11660952122554147]",100.0,"[-0.11454451618838649,-0.016333109725952123]",4.0,"[0.19260788919960145,0.005245319596771152]",4.0,"[-0.0426506633745019,0.1728657084985335]",100.0,"[-0.008916665144128547,0.08581631151202855]",4.0,"[0.15881502552705584,-0.09824826417339251]",100.0,"[0.09316212717926296,0.04046399875745161]",4.0,"[0.15127989592805965,0.06661272834153821]",4.0,"[-0.16498455257019298,-0.11053892149318136]",100.0,"[-0.0026647252507990948,-0.06846094515089618]",100.0,"[-0.06719439299051917,-0.04624383241253786]",100.0,"[0.03306415957529463,0.07240421448704305]",4.0,"[0.10456029668480893,-0.027994477974427574]",4.0,"[-0.12878686662800612,-0.09085007237333785]",4.0,"[0.12329497282835031,-0.07715394990945403]",100.0,"[-0.18203160827597792,0.04256200174319464]",4.0,"[0.02,0.02]",145.0481,0.0,31.0,31.0,158.0,1.0,,,,,,,
,,,,,,,6744814c173b9afac78cf039,6846a84c60a471a75d0d8e47,2025-06-09_11h28.56.973,shape_ratio,2024.1.5,Win32,57.80346821,684250e4f00cb30b92d1fa88,,,,,,,,,,,145.0491,145.5282,,,145.7808,145.8622,left,,,,,,,,0.4,0.0541,,,,,,,145.5283,145.7808,145.8623,"[0.00821203543767188,-0.0018259708927257181]",100.0,"[-0.1193800511119971,0.13716013628837925]",100.0,"[-0.07614562761422208,0.12629113858326005]",100.0,"[-0.12186118975235233,-0.13484553712244618]",4.0,"[0.0828174797510137,-0.1563573354363382]",4.0,"[0.04872336567636798,0.017133836883599294]",100.0,"[-0.06965922604019092,-0.17743927370886597]",4.0,"[0.1724841101302146,-0.03571898022160744]",100.0,"[-0.04460933148259268,0.17685058800975578]",4.0,"[-0.032261721798389854,-0.09752927205717724]",4.0,"[0.04875530683434984,0.13721152593551866]",100.0,"[-0.03754102347136181,0.012209206723901246]",4.0,"[-0.18504427386322142,0.0025911939606598736]",4.0,"[0.1328104142515671,-0.0715203454058023]",4.0,"[0.08882099291268183,-0.04446671913687773]",100.0,"[0.08177120854764999,0.10364789810929995]",4.0,"[0.1666202742417856,0.05984766325686547]",4.0,"[0.029086675834934638,-0.18610097681097718]",4.0,"[-0.10172499599171149,-0.017123547659054474]",4.0,"[0.03569030233867002,-0.04139519417508536]",4.0,"[-0.10972945889339199,0.027715467312853518]",4.0,"[0.19634898499259085,0.012188047479666989]",4.0,"[0.016335653384005163,0.18463448254815912]",100.0,"[0.04159786795436701,-0.13994167714408687]",4.0,"[-0.15685657258679242,0.0837544464523687]",4.0,"[0.08745131220149484,0.059338577836250794]",100.0,"[-0.039683020341721366,-0.04648655631796969]",100.0,"[-0.18885953210906878,0.05239016449177246]",100.0,"[0.1425289332684154,0.09290857514374733]",100.0,"[0.01790543761636716,0.0671112363279907]",4.0,"[0.13235636494818095,-0.028236352497462838]",100.0,"[0.09834442653049441,-0.002185823776805584]",4.0,"[0.02,0.02]",146.9429,0.0,32.0,32.0,166.0,1.0,,,,,,,
,,,,,,,6744814c173b9afac78cf039,6846a84c60a471a75d0d8e47,2025-06-09_11h28.56.973,shape_ratio,2024.1.5,Win32,57.80346821,684250e4f00cb30b92d1fa88,,,,,,,,,,,146.9439,147.4368,,,147.6823,147.7031,right,,,,,,,,0.9,0.0016,,,,,,,147.4369,147.6823,147.7032,"[0.18125080222197645,0.05263971914441713]",100.0,"[0.04144421024445172,0.18409489819100983]",100.0,"[0.004021511632487404,-0.1001159937641965]",100.0,"[0.1743104747783016,-0.07514338797225967]",100.0,"[-0.0409065292289251,-0.16484461770116982]",100.0,"[-0.13131553705577578,-0.0062257846478833085]",100.0,"[0.050008936788611937,0.07011821830345102]",100.0,"[0.05809529849563665,-0.17220961304873672]",100.0,"[-0.06317191539981591,-0.0008155633950315052]",100.0,"[-0.10914199077200164,0.03286085343939203]",100.0,"[0.10846915349571487,0.0035089924939936856]",100.0,"[-0.03433489159518836,0.07148425244372647]",100.0,"[0.04873660043572672,-0.06058245732920349]",100.0,"[-0.14644147472141633,-0.08810211337666833]",100.0,"[-0.08769687071922455,-0.06127415069923402]",100.0,"[0.06027497612619925,-0.12859596108534782]",100.0,"[-0.076572569898181,0.08387718610895173]",100.0,"[-0.13690904384590794,0.09021883276517066]",100.0,"[-0.17319071028256516,0.05984236865814705]",4.0,"[0.12174945408296053,-0.14363758968976367]",100.0,"[0.13308662698014778,0.11165614261240057]",4.0,"[0.002824242442953659,-0.1679432255496205]",100.0,"[-0.03935922025096761,-0.10496478426255636]",100.0,"[0.0471703282537618,0.017259684981311037]",100.0,"[-0.17666245868055022,-0.0028395689754204165]",100.0,"[0.0699271722545679,0.11462564440410035]",4.0,"[-0.17331404898337752,-0.049703807203136385]",100.0,"[0.10417426870551101,-0.10725915195373391]",100.0,"[0.027963330185462838,0.10966099234048352]",100.0,"[0.14253507739613547,0.038053550823610525]",100.0,"[-0.0027687426907348576,-0.00030340446137480393]",100.0,"[-0.04465178799022413,0.1495385263861867]",100.0,"[0.02,0.02]",148.7977,0.0,33.0,33.0,18.0,1.0,,,,,,,
,,,,,,,6744814c173b9afac78cf039,6846a84c60a471a75d0d8e47,2025-06-09_11h28.56.973,shape_ratio,2024.1.5,Win32,57.80346821,684250e4f00cb30b92d1fa88,,,,,,,,,,,148.7982,149.2786,,,149.541,149.6454,left,,,,,,,,0.6,0.0882,,,,,,,149.2786,149.541,149.6454,"[-0.19552075432041888,-0.016897831566538627]",4.0,"[0.02820550627062769,0.18797011280294]",100.0,"[-0.09817414081014175,0.16202264035003514]",4.0,"[-0.044442762649434454,-0.14838442634925073]",100.0,"[-0.15260774137760172,-0.12109207332323636]",100.0,"[0.046498055193956535,-0.14556105860881097]",100.0,"[0.0380652887005197,0.02845874283711297]",100.0,"[0.0910539991829577,0.14289808625673148]",100.0,"[-0.11469846937691566,-0.08045219994794306]",4.0,"[0.10975711939313171,-0.14016863227199625]",100.0,"[-0.006503322514499577,0.15091197596893294]",4.0,"[0.03523868253521745,-0.04554796980285946]",4.0,"[0.10671268610391517,0.10062769247001149]",100.0,"[0.11091098879425722,-0.07500976917799106]",4.0,"[-0.026253291729445762,-0.07441417698949326]",100.0,"[-0.18911413657875262,0.04140378616288767]",100.0,"[-0.11155764814674687,-0.008714400172725548]",4.0,"[-0.14326073383371313,0.056882621390643505]",100.0,"[0.14669041370423724,-0.10641299832446426]",4.0,"[0.1994259795807191,0.014322938645973105]",4.0,"[0.1598249302446574,0.05720864136842927]",100.0,"[-0.01774375627800634,0.10448148876455043]",100.0,"[-0.0589096675795892,0.08387297119866269]",100.0,"[0.029773229921054856,0.11089418637905869]",4.0,"[0.06585919854454626,0.060207176214217714]",100.0,"[-0.043952209849411256,0.18660414854978727]",4.0,"[-0.07089880967692726,-0.03811729703526603]",100.0,"[0.010570971274376296,-0.18731424405122876]",100.0,"[-0.022489559522365764,0.02919079952337852]",100.0,"[0.1770475992322025,-0.06517063170618212]",100.0,"[-0.0634012295663095,-0.10314850476519241]",4.0,"[0.13418215118206875,0.02172652111061388]",4.0,"[0.02,0.02]",150.762,0.0,34.0,34.0,32.0,1.0,,,,,,,
,,,,,,,6744814c173b9afac78cf039,6846a84c60a471a75d0d8e47,2025-06-09_11h28.56.973,shape_ratio,2024.1.5,Win32,57.80346821,684250e4f00cb30b92d1fa88,,,,,,,,,,,150.7629,151.2584,,,151.5111,151.834,right,,,,,,,,0.9,0.3056,,,,,,,151.2585,151.5111,151.8341,"[0.1687747928141254,-0.06407360880399887]",100.0,"[0.1516461321922284,0.005942902256975495]",100.0,"[0.09002796480653735,-0.08505186688112905]",100.0,"[0.06549032566109012,0.0008044624813672829]",100.0,"[-0.10763868428337436,0.1630424033068456]",100.0,"[-0.1481840455896296,0.10480346723583692]",100.0,"[0.0468296277800857,-0.062337136590347515]",100.0,"[0.004930035949154348,-0.014416291232567128]",100.0,"[0.0051283043428424395,-0.16009670733565726]",100.0,"[-0.11675794614746983,-0.025332996667128804]",4.0,"[0.055261203682263914,-0.13222255781337244]",100.0,"[0.01592983539398251,0.1397023245080577]",100.0,"[-0.003444974931236299,0.0747875870813648]",100.0,"[0.15363538561422668,0.0613487237276343]",100.0,"[-0.05836252926587495,0.16302088577444573]",100.0,"[-0.12192185470092527,0.024534856634944764]",100.0,"[0.08723644483137805,-0.17070389788551185]",100.0,"[-0.07847286691049687,0.0785388439375235]",100.0,"[0.05456950217348596,0.10124061492526332]",100.0,"[0.11455831968481,0.08519965326975416]",100.0,"[-0.040056923471488294,-0.08834646662548382]",100.0,"[0.14413251119902726,-0.13217254701645595]",100.0,"[-0.15730976024889912,-0.120176520051249]",100.0,"[-0.16593771631024645,0.027073290620979858]",100.0,"[0.1333030603494486,-0.04067984976713536]",100.0,"[-0.07283918451619749,-0.12028192173594071]",100.0,"[0.055015313644378235,0.15174790908934244]",100.0,"[-0.05029604405849324,0.027446144224454065]",4.0,"[-0.012813458896488904,0.18649723563037762]",4.0,"[0.19306275618877825,0.03694254800060694]",100.0,"[0.13881508346430235,0.13054391525388226]",100.0,"[-0.08396944823314191,0.0014565660357301895]",100.0,"[0.02,0.02]",152.9382,0.0,35.0,35.0,13.0,1.0,,,,,,,
,,,,,,,6744814c173b9afac78cf039,6846a84c60a471a75d0d8e47,2025-06-09_11h28.56.973,shape_ratio,2024.1.5,Win32,57.80346821,684250e4f00cb30b92d1fa88,,,,,,,,,,,152.939,153.4426,,,153.6933,153.7943,left,,,,,,,,0.1,0.0849,,,,,,,153.4427,153.6932,153.7943,"[-0.033830995652194454,-0.08748588817255414]",4.0,"[-0.12076950200399131,0.0561591202717328]",4.0,"[-0.07655242952663621,0.09719375004472741]",4.0,"[-0.17415235164442333,0.007287652832389911]",4.0,"[-0.07835391094276029,0.03828944566191676]",4.0,"[-0.1409950802715809,-0.12637014538754607]",4.0,"[-0.08087911027601571,-0.07885362011280196]",4.0,"[0.13115148539671287,0.037746695230224406]",100.0,"[0.022967919398457392,-0.09367650526830205]",4.0,"[-0.11789012329759811,0.003681107665933271]",4.0,"[-0.02111464810933368,-0.14704517783468765]",100.0,"[-0.02935762162819472,0.07931602137791129]",4.0,"[-0.029547198773945106,-0.03777027048812542]",100.0,"[-0.06383582580317693,0.14083289324010156]",4.0,"[0.023055608856367368,-0.04645037813588453]",4.0,"[-0.013014375943080228,0.1515417082880446]",4.0,"[-0.1628372414392657,0.0838211714473789]",4.0,"[0.09141166297930668,0.13300854250481947]",4.0,"[-0.14769950218114056,0.12099144217981199]",4.0,"[-0.10659205828294212,-0.037603405758537316]",4.0,"[0.05329046980449978,0.04273862426861148]",4.0,"[-0.049664208399394234,-0.19091233305553662]",4.0,"[0.10627885502258906,-0.0749702564653971]",4.0,"[0.04394272704255565,0.12063658733796627]",4.0,"[0.09594458439781502,0.06989674178431964]",4.0,"[0.14588981366074313,-0.1334151016299684]",4.0,"[0.19376362662924487,0.019988055152946316]",4.0,"[0.0369518932892019,0.0003739239532332375]",4.0,"[0.07186161622787825,-0.034618662931320335]",4.0,"[-0.16301698531623895,-0.032101198773096806]",4.0,"[0.011322625398841506,-0.19435148939654512]",4.0,"[0.05541532587041517,-0.1689212331816152]",4.0,"[0.02,0.02]",154.8861,0.0,36.0,36.0,193.0,1.0,,,,,,,
,,,,,,,6744814c173b9afac78cf039,6846a84c60a471a75d0d8e47,2025-06-09_11h28.56.973,shape_ratio,2024.1.5,Win32,57.80346821,684250e4f00cb30b92d1fa88,,,,,,,,,,,154.8869,155.3777,,,155.6226,155.7156,right,,,,,,,,0.45,0.0701,,,,,,,155.3778,155.6225,155.7157,"[0.09692772668310692,-0.16807776166526453]",4.0,"[0.07147324376369935,-0.06959081333482715]",100.0,"[-0.14166299933015283,-0.0470421446530217]",100.0,"[0.14005507912277756,0.0642901127015009]",4.0,"[-0.13119901083326857,0.03993187906189771]",100.0,"[0.06171245597961296,0.11859810599289182]",100.0,"[0.1647140946540786,-0.06786566586946326]",100.0,"[-0.0549846647209082,0.03912459667621984]",4.0,"[-0.15971961917639335,-0.09577196876080958]",4.0,"[-0.004580955752351389,0.008230696041897575]",100.0,"[0.04031822140890576,-0.10388085507780108]",100.0,"[-0.16615193587207078,0.07746811999631757]",100.0,"[-0.04593444488317192,0.18969562337503226]",4.0,"[-0.04470279154330562,-0.009026610932522106]",4.0,"[-0.020553721627177595,0.1187078477731234]",4.0,"[0.10318183624370428,0.08317578137890569]",100.0,"[-0.19682757382868088,0.023526475672921314]",4.0,"[-0.015319720390861975,-0.06457232416387226]",4.0,"[-0.011725187044184104,-0.11751393549683042]",4.0,"[-0.08852794508021528,-0.10438389344882562]",4.0,"[-0.03417767979217544,-0.15409435380241226]",4.0,"[0.008279070966721657,0.18959620925399448]",4.0,"[-0.12505375892118548,0.11933982932442863]",100.0,"[0.07417124322180457,0.035668656035538045]",100.0,"[-0.13644577411684308,-0.006340351644423002]",4.0,"[0.012515368934332484,-0.15635472630099775]",4.0,"[-0.19839079372270738,-0.01681933752637302]",4.0,"[0.03296263507056604,-0.0304148251147667]",100.0,"[-0.04849824446811034,-0.1013092744973567]",100.0,"[0.1997345651662213,-0.007946961106575431]",4.0,"[-0.12789408407901381,-0.12095425672871334]",100.0,"[-0.014455247988730234,0.07402538299848173]",4.0,"[0.02,0.02]",156.8043,0.0,37.0,37.0,136.0,1.0,,,,,,,
,,,,,,,6744814c173b9afac78cf039,6846a84c60a471a75d0d8e47,2025-06-09_11h28.56.973,shape_ratio,2024.1.5,Win32,57.80346821,684250e4f00cb30b92d1fa88,,,,,,,,,,,156.8052,157.3066,,,157.5467,157.6399,left,,,,,,,,0.1,0.0766,,,,,,,157.3067,157.5467,157.64,"[0.060352705968133157,0.08560450369267253]",4.0,"[-0.045963136766326185,0.18182345588434096]",4.0,"[-0.17065605456843086,-0.006038030153506333]",4.0,"[0.06856835571291496,-0.11677215730162127]",4.0,"[-0.03698180500328997,-0.1228915349120135]",4.0,"[-0.015047826582708661,0.048178416889963084]",4.0,"[-0.05572553229296736,0.1311036870617565]",4.0,"[0.1757765208882395,0.02988375143554409]",4.0,"[0.07441711641441094,-0.034961795578942904]",4.0,"[-0.08551333654784576,-0.048959400598969346]",4.0,"[-0.14388766910054238,0.09790023094133185]",4.0,"[0.15695962364513116,-0.04355428025644704]",4.0,"[0.16162875070519503,0.08388084857765046]",4.0,"[0.03524133175781549,0.05264771272228487]",4.0,"[0.020953918056851775,0.10616528725730459]",4.0,"[-0.10340416733687495,0.11939021839559961]",4.0,"[-0.12363091446551787,-0.01712721586850369]",4.0,"[-0.018657248333356254,0.09986638778856027]",4.0,"[0.12397480208107077,-0.12965996254941414]",100.0,"[-0.17071902578410528,0.0397074034775132]",4.0,"[0.0999008413427923,0.15816938452085033]",4.0,"[-0.02676632292483964,0.008405084862273586]",4.0,"[0.10714609093972456,-0.07166275022139479]",100.0,"[-0.09037840731721125,-0.11427489049612817]",4.0,"[-0.0030101429692105898,-0.1969206482748746]",4.0,"[-0.09843649234073573,0.16357997093498294]",4.0,"[0.013417668470008862,0.18896395932239676]",4.0,"[0.07340442826504583,0.024374147138729863]",4.0,"[-0.12586813334322197,0.035138684335613526]",4.0,"[-0.07246455077916514,0.043903509641282076]",100.0,"[0.11368902094855865,0.08779275511244347]",4.0,"[0.034957582862243965,-0.15910328766058707]",4.0,"[0.02,0.02]",158.7402,0.0,38.0,38.0,192.0,1.0,,,,,,,
,,,,,,,6744814c173b9afac78cf039,6846a84c60a471a75d0d8e47,2025-06-09_11h28.56.973,shape_ratio,2024.1.5,Win32,57.80346821,684250e4f00cb30b92d1fa88,,,,,,,,,,,158.7411,159.2311,,,159.4707,159.6992,right,,,,,,,,0.55,0.2059,,,,,,,159.2312,159.4706,159.6993,"[0.09597762306958348,-0.11713107102438894]",100.0,"[0.14706423307481117,-0.029888305497493543]",4.0,"[0.1612465090513475,-0.1100570730019165]",100.0,"[0.0842158440646407,0.027753648213144154]",4.0,"[0.04263743350788953,0.016368757837473328]",100.0,"[-0.03560997349492183,0.025447227336430005]",100.0,"[-0.001637402891550483,-0.0680567400882116]",4.0,"[0.05661611438522272,-0.026987150544579733]",100.0,"[-0.09821811094775224,0.0034157056252404443]",100.0,"[-0.0059215504557797805,0.17143926862384967]",100.0,"[0.030097360433566797,0.057019248269949224]",100.0,"[-0.09496996816109401,-0.09434827115874744]",100.0,"[-0.1762747557934807,-0.05968502497614043]",4.0,"[-0.052813807045616654,0.08008688324890116]",100.0,"[-0.0905132220892465,0.09613101310168794]",4.0,"[-0.0014789534383338522,-0.15267465394849164]",100.0,"[0.06182178174713608,-0.14640890248060542]",100.0,"[0.18427855252058292,0.06819760082380959]",100.0,"[0.14117560248467634,0.011812576022976971]",4.0,"[0.09837840242529798,0.09599597118009064]",100.0,"[-0.0736182285574141,0.17951861383381904]",100.0,"[0.04180653803918923,-0.08890382418985684]",100.0,"[-0.03798111814352168,0.12968356059111316]",4.0,"[0.09349623076013014,-0.0742656724485081]",4.0,"[0.09000851571102213,0.14229267699947162]",4.0,"[-0.11714929043678692,-0.14516233759887348]",4.0,"[-0.11683684809843357,0.13241297013625944]",4.0,"[0.04909514900300345,0.11241010137568602]",4.0,"[0.12714498581063347,-0.1466775725536557]",4.0,"[-0.12287631587331746,-0.0640123177663225]",4.0,"[-0.04176533416795294,-0.1218072762140408]",100.0,"[-0.01820701460374479,-0.012209209684672304]",100.0,"[0.02,0.02]",160.7923,0.0,39.0,39.0,81.0,1.0,,,,,,,
,,,,,,,6744814c173b9afac78cf039,6846a84c60a471a75d0d8e47,2025-06-09_11h28.56.973,shape_ratio,2024.1.5,Win32,57.80346821,684250e4f00cb30b92d1fa88,,,,,,,,,,,160.7932,161.2826,,,161.5215,162.0486,left,,,,,,,,0.6,0.5045,,,,,,,161.2827,161.5215,162.0486,"[0.03184037180795435,0.18831336164963117]",100.0,"[-0.08266068933586769,0.05221026343626459]",100.0,"[-0.19189553587276378,-0.010420627045771718]",4.0,"[-0.06017830694127288,-0.0703810876010835]",100.0,"[-0.11281998568315485,0.09666678427705346]",4.0,"[-0.0954391926390774,0.012719830608564882]",4.0,"[-0.15982924661774195,-0.10950877104025833]",100.0,"[-0.11071894593800213,-0.09851096471596393]",100.0,"[-0.031612608017015174,0.03320396944997421]",100.0,"[-0.002950171312888321,-0.197634903474239]",100.0,"[0.15203166946933908,-0.10491123247708035]",4.0,"[0.11085222666822765,0.00727809145622234]",100.0,"[-0.18196948770040366,-0.07301822675752846]",4.0,"[0.13535980260510783,0.14072809031882463]",100.0,"[0.08504417895663308,-0.14343030371282198]",100.0,"[0.06562354732022652,0.09540183910967598]",4.0,"[0.0020077122275375353,0.11019256000592781]",100.0,"[0.1865259619732152,0.05399790236746761]",4.0,"[0.18888148923310574,-0.004109098980179322]",100.0,"[-0.027462932297827137,-0.12826668592239984]",4.0,"[0.015438027285745089,-0.021116668306740433]",4.0,"[-0.15236735892695108,0.11633122824437576]",4.0,"[0.1766445419987772,-0.06619823742734536]",100.0,"[0.1505348869454688,-0.0243454452125524]",100.0,"[-0.16881134336753817,0.06334768079802856]",4.0,"[0.07847773498417547,-0.035880869766462146]",100.0,"[0.03870449398039841,-0.14846354651246466]",4.0,"[0.11280577028115604,0.08746899847503331]",100.0,"[-0.06180143861693392,-0.15144791472379499]",100.0,"[-0.1428882143085013,-0.03313032022814583]",100.0,"[0.12718679832416468,-0.15028482866910783]",100.0,"[0.03970718803211768,0.04702546364987207]",4.0,"[0.02,0.02]",163.1509,0.0,40.0,40.0,54.0,1.0,,,,,,,
,,,,,,,6744814c173b9afac78cf039,6846a84c60a471a75d0d8e47,2025-06-09_11h28.56.973,shape_ratio,2024.1.5,Win32,57.80346821,684250e4f00cb30b92d1fa88,,,,,,,,,,,163.1518,163.6457,,,163.881,164.1064,right,,,,,,,,0.1,0.2091,,,,,,,163.6458,163.881,164.1064,"[0.047573537579875806,-0.004812204818990957]",4.0,"[0.04412365661160253,-0.16866067441991142]",4.0,"[-0.07773637125246112,0.03911069623132538]",4.0,"[-0.17123372299892223,-0.08469564100803349]",4.0,"[0.04215293788289611,0.14639053394761248]",4.0,"[-0.15427000254740134,0.07412945459457054]",4.0,"[0.06384738276802646,0.10912390378532326]",4.0,"[0.009385556906524418,-0.031010936563951475]",4.0,"[-0.0256543432698756,0.04620135570900097]",4.0,"[0.09404686023459422,0.009912947515846253]",4.0,"[-0.13749536690505168,-0.11582896096234686]",4.0,"[-0.08601383643037183,-0.1347426661926402]",4.0,"[0.14213136498401124,-0.07912129497124225]",4.0,"[-0.052650913978576255,-0.02520069689011819]",4.0,"[-0.006155785080281028,-0.13072021639480455]",4.0,"[0.14445696170980485,0.03937166203662203]",4.0,"[0.09176730508023356,-0.058538160174566166]",100.0,"[-0.1082103030480036,-0.003960878563067451]",4.0,"[-0.03664496767850716,0.14828600006376164]",4.0,"[-0.01726470013167291,0.18843769684686043]",4.0,"[-0.14852988617746443,-0.03513445925768377]",4.0,"[-0.0639062927390336,-0.1853017377618472]",4.0,"[0.07492447134378893,0.06111909131956703]",4.0,"[0.0042606099520955155,0.08708347077720781]",4.0,"[0.18573600830648196,-0.010277350356236531]",100.0,"[0.13106531222585216,0.11528054219216656]",4.0,"[-0.09009669290973123,0.14113839087615596]",4.0,"[-0.057808310689410156,0.08281365082891526]",4.0,"[0.16700028016167343,0.08043421400527638]",4.0,"[-0.09461912794036065,-0.04245266229085647]",100.0,"[-0.19760059735963897,0.02492853189380191]",4.0,"[0.05439255354445313,-0.11761271641400384]",4.0,"[0.02,0.02]",165.1959,0.0,41.0,41.0,208.0,1.0,,,,,,,
,,,,,,,6744814c173b9afac78cf039,6846a84c60a471a75d0d8e47,2025-06-09_11h28.56.973,shape_ratio,2024.1.5,Win32,57.80346821,684250e4f00cb30b92d1fa88,,,,,,,,,,,165.1968,165.7102,,,165.9635,166.2019,left,,,,,,,,0.4,0.2196,,,,,,,165.7102,165.9634,166.2019,"[0.11352887205333273,0.07405254485126496]",4.0,"[-0.011984414417865524,0.0875868153545601]",100.0,"[-0.013010475525914675,-0.07490655530615838]",4.0,"[0.017805332517389943,0.16942395682537953]",4.0,"[0.17364540197928663,-0.06729562580973297]",100.0,"[0.08393567759318868,-0.09889420842589017]",4.0,"[0.06140352143273375,-0.059684069301175466]",4.0,"[0.05133043026955344,0.062011393948830165]",4.0,"[-0.1433939956520206,-0.11616895125511754]",4.0,"[0.0673133772032349,0.10821331638703116]",4.0,"[-0.04402345486856961,0.14657151847731503]",100.0,"[-0.15280774868900787,0.005234749452036333]",4.0,"[0.1035637749184121,-0.02875678904865121]",100.0,"[0.12635542076573822,0.12311840110430758]",4.0,"[-0.04675737940700374,0.038305060184835704]",100.0,"[0.024223374581524196,-0.030331562606002224]",100.0,"[-0.04359861676860766,-0.1635443576011565]",4.0,"[-0.1425390788090711,-0.06469033076516018]",100.0,"[0.10429924607069291,-0.14124352144632285]",100.0,"[0.15230257371343164,-0.10429478806477453]",100.0,"[-0.15163159022778488,0.08207921253038512]",100.0,"[0.04266718830262907,0.021548883458529906]",4.0,"[-0.083575239545972,-0.17464974896233332]",100.0,"[-0.021407219064957305,-0.03041018695445683]",4.0,"[-0.08955233814868342,-0.100220644785213]",4.0,"[0.021660713399764726,-0.14416428963268896]",4.0,"[-0.19471508669652282,-0.038749688694215474]",100.0,"[-0.05249696499551202,0.10243783219828828]",4.0,"[-0.08779676816434986,0.06177427601226837]",4.0,"[-0.006623594940455239,0.03628454924031281]",100.0,"[0.18124242935465443,0.03255334764544556]",4.0,"[-0.018990482066846778,-0.12716928111450648]",4.0,"[0.02,0.02]",167.2959,0.0,42.0,42.0,153.0,1.0,,,,,,,
,,,,,,,6744814c173b9afac78cf039,6846a84c60a471a75d0d8e47,2025-06-09_11h28.56.973,shape_ratio,2024.1.5,Win32,57.80346821,684250e4f00cb30b92d1fa88,,,,,,,,,,,167.2964,167.7959,,,168.051,168.556,right,,,,,,,,0.5,0.4838,,,,,,,167.796,168.0509,168.5563,"[0.05514151172412522,-0.1833544411632747]",4.0,"[-0.08179458594789873,0.16250239091506685]",100.0,"[0.027593012237649605,0.07641290801893277]",100.0,"[0.013412408085425102,0.14631665754340623]",4.0,"[0.020637331811160797,-0.03775845470398078]",4.0,"[-0.11097033881658384,-0.09906711879697845]",4.0,"[0.11605875536508961,0.13244673986189032]",100.0,"[-0.11843917969035599,0.008558653459927339]",100.0,"[-0.14393456376014246,0.07314586700312715]",4.0,"[-0.1668297109686407,0.018856012579315396]",100.0,"[0.17752172710259967,0.07194369707144882]",100.0,"[-0.15252119578228204,-0.020901328236012665]",4.0,"[0.09937525315264491,0.002428780412595511]",100.0,"[0.13289527453750588,-0.06714789544721839]",4.0,"[0.08510230023924448,-0.1174353282148827]",4.0,"[-0.02642574729426505,-0.13241481432190766]",4.0,"[-0.003298382170805995,0.033287619953302885]",100.0,"[0.04042685096158808,0.02927037955224459]",4.0,"[0.07478791640187826,0.10720335635329904]",100.0,"[-0.047281967724254734,-0.08144749906760072]",100.0,"[-0.04533978026166414,-0.023714998151563593]",4.0,"[0.052738155274447786,0.18856109267097365]",100.0,"[-0.09138460125558695,-0.038965014776833166]",4.0,"[0.12974057818802073,0.04204233329771795]",100.0,"[-0.028017350008060934,0.18909755422376373]",100.0,"[-0.12850881942133816,-0.05625062109012383]",4.0,"[0.14636549194863763,-0.020375902460740464]",100.0,"[-0.1530045941983912,-0.11089429540194813]",4.0,"[0.08725896584522036,0.06216244190407817]",4.0,"[-0.047923922389625645,0.10796028667282387]",100.0,"[-0.03412435847722394,-0.18129095870592218]",4.0,"[-0.06108093525431089,0.02950401841122106]",100.0,"[0.02,0.02]",169.6645,0.0,43.0,43.0,108.0,1.0,,,,,,,
,,,,,,,6744814c173b9afac78cf039,6846a84c60a471a75d0d8e47,2025-06-09_11h28.56.973,shape_ratio,2024.1.5,Win32,57.80346821,684250e4f00cb30b92d1fa88,,,,,,,,,,,169.665,170.1686,,,170.4172,170.7928,left,,,,,,,,0.4,0.3595,,,,,,,170.1686,170.4172,170.7929,"[-0.13091930825647025,-0.10990430804654454]",100.0,"[0.016751203368970582,0.14650257045140427]",4.0,"[0.018684651742583866,-0.01725377963385291]",4.0,"[-0.17714280012672337,0.056402046667625105]",100.0,"[-0.18126819139800845,-0.019439661820799845]",4.0,"[0.17008951893161567,-0.08612657799571945]",100.0,"[-0.07477022257722006,-0.11890478741057874]",4.0,"[-0.027592090123751443,-0.03282708452391554]",4.0,"[-0.061932850135713494,0.16879930747334254]",100.0,"[0.08734569382671527,0.01770667345257528]",100.0,"[0.06648658306540983,-0.0695313889780834]",100.0,"[-0.013620969751487782,0.012714011869532554]",100.0,"[0.10761247609432013,0.12161246571988699]",100.0,"[-0.053418999377592216,0.12081833441837041]",100.0,"[-0.1373559431538041,0.06090679206505607]",4.0,"[0.10647074277098223,-0.08289666388551573]",4.0,"[-0.029235401771400056,0.0865310213630001]",4.0,"[0.1110570770278266,-0.04150409819932441]",4.0,"[0.0457545480085333,-0.1561511041937755]",4.0,"[0.1559373573549606,0.0052782276676081865]",100.0,"[0.049673787018984124,0.17151537922531784]",4.0,"[0.012044028993809902,-0.13013916510727358]",4.0,"[-0.09780914870449439,0.04380295256912227]",4.0,"[-0.06702298417349149,0.009443055734581084]",4.0,"[-0.1247554141563719,0.12209792890897943]",4.0,"[0.07538393852117509,-0.18501318162963137]",4.0,"[-0.0018932983349002489,-0.06545427835273887]",4.0,"[-0.11910839160892013,-0.0671303520325005]",4.0,"[-0.1063553382537221,-0.001634097202302601]",100.0,"[-0.13723083015055138,-0.02884186590561079]",100.0,"[0.1125995063489528,-0.1596907630252601]",4.0,"[0.16538056010118823,0.07815553114938845]",100.0,"[0.02,0.02]",171.8843,0.0,44.0,44.0,169.0,1.0,,,,,,,
,,,,,,,6744814c173b9afac78cf039,6846a84c60a471a75d0d8e47,2025-06-09_11h28.56.973,shape_ratio,2024.1.5,Win32,57.80346821,684250e4f00cb30b92d1fa88,,,,,,,,,,,171.8852,172.373,,,172.6029,172.9207,right,,,,,,,,0.1,0.2902,,,,,,,172.373,172.6028,172.9208,"[-0.1211566543021217,-0.1325002765244028]",4.0,"[0.019170011886843946,0.12493465496893698]",4.0,"[-0.010602580840984125,-0.10861618582532034]",4.0,"[-0.02495563559122602,-0.17428192848266286]",4.0,"[0.08034185118633512,-0.15449083458758808]",4.0,"[-0.07807530526193311,-0.09333148846696233]",4.0,"[-0.03347863014354552,-0.027624463175553657]",4.0,"[0.13576904774316745,-0.13788383100936127]",4.0,"[0.16541910932110443,-0.0631164260797237]",4.0,"[-0.03358512019461007,0.15501255899166372]",4.0,"[0.09737398683688364,0.15335113051092672]",100.0,"[-0.005664891090381037,0.06089320393054392]",4.0,"[-0.04138055562081624,0.02526330126003112]",4.0,"[-0.16517484145199648,0.10741119463050175]",4.0,"[-0.07095838055997766,0.06650922607259879]",4.0,"[0.031159846366383734,0.007134590449591246]",4.0,"[-0.158686774682547,-0.05860415170305318]",4.0,"[0.13633924895410415,0.06583419191516228]",4.0,"[0.14599507528807038,-0.018554242888045788]",4.0,"[0.023211335009498006,-0.17389289766360966]",4.0,"[-0.06881519789303124,-0.15794586895849994]",4.0,"[0.19226941127341746,0.026927069404545437]",4.0,"[0.12632348669841392,0.10665816753240567]",4.0,"[-0.15076902592106453,0.07004977376455201]",4.0,"[0.08606291762274744,0.0688250509343885]",4.0,"[0.12489253966218551,0.025701481438738457]",4.0,"[-0.14864869701397587,-0.011882724868901049]",4.0,"[-0.10361624313972946,0.10501184292688515]",4.0,"[0.07441137930839124,0.12018531117987152]",4.0,"[0.04466158799875251,-0.11764454455889731]",4.0,"[0.023522324619240746,0.19834221476428843]",100.0,"[0.09120746737733026,-0.008867433582414963]",100.0,"[0.02,0.02]",174.0161,0.0,45.0,45.0,201.0,1.0,,,,,,,
,,,,,,,6744814c173b9afac78cf039,6846a84c60a471a75d0d8e47,2025-06-09_11h28.56.973,shape_ratio,2024.1.5,Win32,57.80346821,684250e4f00cb30b92d1fa88,,,,,,,,,,,174.0186,174.5172,,,174.7706,175.32,right,,,,,,,,0.55,0.5318,,,,,,,174.5172,174.7706,175.32,"[-0.08262374395836347,0.05817811325357718]",4.0,"[-0.17361863599063937,-0.09555917935918297]",100.0,"[-0.017965533272732835,0.03351364464088384]",100.0,"[0.05262135348865137,0.08308336272767056]",100.0,"[0.09906128243153259,0.026265011617818086]",100.0,"[-0.09126799716501686,0.12683765485411672]",100.0,"[0.1484688129979469,0.0681027447598109]",4.0,"[-0.030609306982818187,-0.044929053691641324]",100.0,"[0.12739103599678445,0.10553500889554793]",4.0,"[-0.17725852422319446,0.02465741568687331]",4.0,"[-0.020694039676742174,-0.15796545762188816]",100.0,"[0.11995323442772941,0.15782950035772628]",4.0,"[0.07863764537292033,-0.044956117969728274]",4.0,"[0.16503862325412197,-0.10848193138853314]",4.0,"[0.0847627111753075,-0.14115283376761953]",100.0,"[-0.10722426809971024,-0.08580749094489258]",4.0,"[0.14482296294040084,-0.06139795451177679]",4.0,"[0.07187155646542336,0.16973462989758403]",100.0,"[-0.1943993393908049,-0.01405728848712212]",4.0,"[-0.07784308823134783,0.010487107409875141]",4.0,"[0.01786006502451906,0.1511464885868718]",100.0,"[0.19368395081657916,0.03353832510796979]",100.0,"[0.007718654012260276,-0.08371039205824461]",4.0,"[-0.12890859488911113,-0.02326425547505666]",100.0,"[0.06016474296498932,-0.09064631575940013]",100.0,"[-0.06395549231439475,-0.14018864574012158]",100.0,"[0.06496938890123369,0.12399607167952796]",4.0,"[-0.009725524363259389,0.11500318691929394]",100.0,"[-0.05528400355890427,0.09032996828697644]",100.0,"[-0.07703450949937796,0.17402805779653052]",4.0,"[0.019414340410378487,0.05009068384617679]",100.0,"[0.020555860070675152,-0.0410500181573649]",100.0,"[0.02,0.02]",176.4199,0.0,46.0,46.0,64.0,1.0,,,,,,,
,,,,,,,6744814c173b9afac78cf039,6846a84c60a471a75d0d8e47,2025-06-09_11h28.56.973,shape_ratio,2024.1.5,Win32,57.80346821,684250e4f00cb30b92d1fa88,,,,,,,,,,,176.4208,176.9091,,,177.1538,177.3278,left,,,,,,,,0.5,0.1531,,,,,,,176.9091,177.1537,177.3279,"[-0.1691397676564492,0.0323034068983413]",100.0,"[-0.09700167117733363,0.12216014388239713]",4.0,"[-0.12449986824470317,-0.024885152875256684]",100.0,"[-0.032659487614936054,0.014868919302313108]",100.0,"[0.10052839440003626,-0.11164620866424863]",4.0,"[0.06676775044696537,0.11384662276807327]",100.0,"[-0.10316670674719748,-0.14442266575992121]",100.0,"[0.1563983156253416,-0.05750573683045462]",100.0,"[0.10952378543023725,-0.15571642678844597]",4.0,"[0.02943975834458114,0.14919557569821837]",4.0,"[-0.16870654609110872,-0.07848527363126989]",4.0,"[0.03189942082853472,-0.14732139744372996]",4.0,"[-0.012486664107423355,0.1049358085393459]",100.0,"[-0.04711321584689794,-0.0930733448847479]",4.0,"[-0.19778386809610166,-0.020306527218761947]",100.0,"[-0.06008581170358765,0.06704413983427282]",100.0,"[0.15865349584187494,0.10428161621996014]",4.0,"[0.112170701918747,-0.0610293484644364]",4.0,"[-0.045818748994469756,0.18288961994832262]",100.0,"[-0.1737212119604033,0.07876956486557603]",100.0,"[0.12380327501894593,0.15015592469426098]",4.0,"[0.13171411887174103,-0.01735053398004459]",4.0,"[0.04850342649205263,-0.03425362046031884]",100.0,"[-0.08616463745176985,-0.002957171890509715]",4.0,"[-0.0266281192199392,-0.13522358240099044]",100.0,"[-0.10786258146407521,0.0811956661868787]",4.0,"[-0.1232074846985525,0.028810621687767695]",4.0,"[0.035931429170610985,0.05849693165155315]",100.0,"[0.12906411447208932,0.06088824816736184]",100.0,"[-0.009423552969567154,-0.07421583557218422]",4.0,"[0.18700754775331724,0.019222344689812838]",4.0,"[0.005849307282629278,0.19706052000291688]",100.0,"[0.02,0.02]",178.4249,0.0,47.0,47.0,119.0,1.0,,,,,,,
,,,,,,,6744814c173b9afac78cf039,6846a84c60a471a75d0d8e47,2025-06-09_11h28.56.973,shape_ratio,2024.1.5,Win32,57.80346821,684250e4f00cb30b92d1fa88,,,,,,,,,,,178.426,178.9377,,,179.179,179.4398,right,,,,,,,,0.4,0.2375,,,,,,,178.9377,179.1788,179.4398,"[-0.0007584043171471094,-0.00291691467914641]",4.0,"[-0.05452507420692524,-0.1369683368142666]",4.0,"[-0.10322861788165623,0.08074235708003781]",4.0,"[-0.060073322944234654,0.1349934991487185]",4.0,"[0.11727837902491549,0.08718709044179623]",4.0,"[0.03852360748173584,-0.1675714308952986]",4.0,"[0.076814038321107,-0.14505214570401403]",4.0,"[-0.15643702269722612,-0.12249310488365779]",100.0,"[-0.1651063665463313,-0.04762130182586668]",100.0,"[0.05188632706073793,0.11567762996064043]",4.0,"[-0.04719735521319191,0.1770878639505879]",4.0,"[-0.04708940575979876,-0.019288288772549646]",4.0,"[0.06355020953503314,-0.04845004016975592]",100.0,"[0.1418915590678737,-0.13144330971239385]",4.0,"[0.17639622868051694,-0.05352294782728837]",4.0,"[0.10369421828854776,-0.10840702948858257]",100.0,"[0.11429893805146932,0.03178646128971723]",100.0,"[-0.12264420967530763,-0.01260829906555749]",100.0,"[0.04488334782812554,0.18909270852365492]",100.0,"[0.015036731497816157,-0.0714455596657043]",100.0,"[-0.08816114897195129,-0.08808817295423631]",100.0,"[-0.04770514506016279,0.028447330239275724]",4.0,"[-0.1372952472837237,0.14008335567804056]",100.0,"[0.042431488511211674,0.005031827731636468]",4.0,"[0.007884671100728054,0.12845884073302785]",100.0,"[-0.017954300986464736,-0.18405743018008536]",4.0,"[0.08269376062311667,0.1738405460141429]",100.0,"[-0.19661420734930177,-0.001245815631248903]",100.0,"[-0.023600414843547777,-0.10300492301413396]",4.0,"[0.07245064377103878,0.06792427582732397]",4.0,"[-0.10187671264850216,0.026027886096619133]",4.0,"[-0.1514921303976612,0.024399330175242814]",4.0,"[0.02,0.02]",180.5385,0.0,48.0,48.0,162.0,1.0,,,,,,,
,,,,,,,6744814c173b9afac78cf039,6846a84c60a471a75d0d8e47,2025-06-09_11h28.56.973,shape_ratio,2024.1.5,Win32,57.80346821,684250e4f00cb30b92d1fa88,,,,,,,,,,,180.5391,181.0285,,,181.2569,181.8687,right,,,,,,,,0.45,0.5943,,,,,,,181.0286,181.2568,181.8688,"[0.12476808904304958,0.05487019453834325]",100.0,"[-0.08537774911214284,-0.0616340743696407]",4.0,"[-0.16499469394024377,-0.0960113196424621]",4.0,"[0.05561044221889416,-0.14289177153806665]",4.0,"[0.08325031975757229,-0.1779248665287977]",100.0,"[-0.14260417700276815,-0.05582841908129587]",4.0,"[0.026842889759792855,0.15134855859913443]",100.0,"[-0.14039385443190106,0.03396988351613362]",100.0,"[0.03225747719465476,0.005941758779052486]",4.0,"[0.05473240551818033,-0.06764367063964025]",4.0,"[0.13722701487605293,0.10592433335377546]",4.0,"[-0.019743118690026817,-0.1043101905828022]",100.0,"[-0.007612097056115296,-0.16532516155863197]",100.0,"[0.09718487435608454,-0.10976435532904294]",4.0,"[0.17694346445648929,0.043232306216652666]",4.0,"[-0.02756309419306111,0.1137747667427819]",100.0,"[0.10345012382783153,0.008353382280656468]",4.0,"[-0.023210472089568696,0.01461928524344073]",100.0,"[-0.08049156883755465,0.013279162024731887]",4.0,"[-0.06576466783072477,-0.1251088495354733]",100.0,"[0.017081053854990175,-0.1234193062144977]",100.0,"[0.09408184232044801,0.0888942838265936]",4.0,"[-0.037803315494368245,0.1541802260132479]",4.0,"[0.07972072930896755,0.16110245550679192]",4.0,"[-0.11699496460664162,0.12497644335112472]",4.0,"[-0.16877949176948087,0.09944351734137304]",100.0,"[0.04596112643463415,0.04961649537029926]",4.0,"[0.19491170467989022,-0.0052068658394890345]",4.0,"[0.14513393552735798,-0.03426261792996921]",4.0,"[0.01244582265423211,0.08328643395332176]",100.0,"[0.16010219557612157,-0.11578264236405349]",100.0,"[0.09419410439231128,-0.03412672694925493]",100.0,"[0.02,0.02]",182.9571,0.0,49.0,49.0,137.0,1.0,,,,,,,
