right,left,explain.started,explain.stopped,key_resp_3.keys,key_resp_3.rt,key_resp_3.duration,participant,session,date,expName,psychopyVersion,OS,frameRate,study_id,explain_2.started,explain_2.stopped,key_resp_4.keys,key_resp_4.rt,key_resp_4.duration,explain_3.started,explain_3.stopped,key_resp_5.keys,key_resp_5.rt,key_resp_5.duration,fixation.started,fixation.stopped,practice.started,practice.stopped,response.started,response.stopped,key_resp.keys,feedback.started,feedback.stopped,trials_2.thisRepN,trials_2.thisTrialN,trials_2.thisN,trials_2.thisIndex,trials_2.ran,dot_ratio,key_resp.rt,key_resp.duration,explain_4.started,explain_4.stopped,key_resp_6.keys,key_resp_6.rt,key_resp_6.duration,dotDisplay.started,dotDisplay.stopped,ITI.started,polygon_1.pos,polygon_1.edges,polygon_2.pos,polygon_2.edges,polygon_3.pos,polygon_3.edges,polygon_4.pos,polygon_4.edges,polygon_5.pos,polygon_5.edges,polygon_6.pos,polygon_6.edges,polygon_7.pos,polygon_7.edges,polygon_8.pos,polygon_8.edges,polygon_9.pos,polygon_9.edges,polygon_10.pos,polygon_10.edges,polygon_11.pos,polygon_11.edges,polygon_12.pos,polygon_12.edges,polygon_13.pos,polygon_13.edges,polygon_14.pos,polygon_14.edges,polygon_15.pos,polygon_15.edges,polygon_16.pos,polygon_16.edges,polygon_17.pos,polygon_17.edges,polygon_18.pos,polygon_18.edges,polygon_19.pos,polygon_19.edges,polygon_20.pos,polygon_20.edges,polygon_21.pos,polygon_21.edges,polygon_22.pos,polygon_22.edges,polygon_23.pos,polygon_23.edges,polygon_24.pos,polygon_24.edges,polygon_25.pos,polygon_25.edges,polygon_26.pos,polygon_26.edges,polygon_27.pos,polygon_27.edges,polygon_28.pos,polygon_28.edges,polygon_29.pos,polygon_29.edges,polygon_30.pos,polygon_30.edges,polygon_31.pos,polygon_31.edges,polygon_32.pos,polygon_32.edges,dot_size,ITI.stopped,trials.thisRepN,trials.thisTrialN,trials.thisN,trials.thisIndex,trials.ran,break_2.started,break_2.stopped,trials_3.thisRepN,trials_3.thisTrialN,trials_3.thisN,trials_3.thisIndex,trials_3.ran
subject chose dot,subject chose diamond,0.0005,31.364,space,16.3525,,5ecfc4e722413102e68160ba,684391103ff03c54a4ebb646,2025-06-07_03h08.38.669,shape_ratio,2024.1.5,Win32,142.8571429,6842b561977af9ba9b0f87ca,,,,,,,,,,,,,,,,,,,,,,,,,,,,,,,,,,,,,,,,,,,,,,,,,,,,,,,,,,,,,,,,,,,,,,,,,,,,,,,,,,,,,,,,,,,,,,,,,,,,,,,,,,,,,,,,,
,,,,,,,5ecfc4e722413102e68160ba,684391103ff03c54a4ebb646,2025-06-07_03h08.38.669,shape_ratio,2024.1.5,Win32,142.8571429,6842b561977af9ba9b0f87ca,31.3643,68.0312,space,6.6633,,,,,,,,,,,,,,,,,,,,,,,,,,,,,,,,,,,,,,,,,,,,,,,,,,,,,,,,,,,,,,,,,,,,,,,,,,,,,,,,,,,,,,,,,,,,,,,,,,,,,,,,,,,,,
,,,,,,,5ecfc4e722413102e68160ba,684391103ff03c54a4ebb646,2025-06-07_03h08.38.669,shape_ratio,2024.1.5,Win32,142.8571429,6842b561977af9ba9b0f87ca,,,,,,68.0313,129.5561,space,58.5125,,,,,,,,,,,,,,,,,,,,,,,,,,,,,,,,,,,,,,,,,,,,,,,,,,,,,,,,,,,,,,,,,,,,,,,,,,,,,,,,,,,,,,,,,,,,,,,,,,,,,,,,
,,,,,,,5ecfc4e722413102e68160ba,684391103ff03c54a4ebb646,2025-06-07_03h08.38.669,shape_ratio,2024.1.5,Win32,142.8571429,6842b561977af9ba9b0f87ca,,,,,,,,,,,129.5645,130.063,130.0631,130.3131,130.3132,131.8127,,131.8127,132.9097,0.0,0.0,0.0,0.0,1.0,0.2,,,,,,,,,,,,,,,,,,,,,,,,,,,,,,,,,,,,,,,,,,,,,,,,,,,,,,,,,,,,,,,,,,,,,,,,,,,,,,,,,,,,,,,,
,,,,,,,5ecfc4e722413102e68160ba,684391103ff03c54a4ebb646,2025-06-07_03h08.38.669,shape_ratio,2024.1.5,Win32,142.8571429,6842b561977af9ba9b0f87ca,,,,,,,,,,,132.9099,133.4096,133.4096,133.6597,133.6597,134.0762,right,134.0763,135.1731,0.0,1.0,1.0,1.0,1.0,0.8,0.409,,,,,,,,,,,,,,,,,,,,,,,,,,,,,,,,,,,,,,,,,,,,,,,,,,,,,,,,,,,,,,,,,,,,,,,,,,,,,,,,,,,,,,,
,,,,,,,5ecfc4e722413102e68160ba,684391103ff03c54a4ebb646,2025-06-07_03h08.38.669,shape_ratio,2024.1.5,Win32,142.8571429,6842b561977af9ba9b0f87ca,,,,,,,,,,,,,,,,,,,,,,,,,,,,135.1734,174.6044,space,36.4186,,,,,,,,,,,,,,,,,,,,,,,,,,,,,,,,,,,,,,,,,,,,,,,,,,,,,,,,,,,,,,,,,,,,,,,,,,,,,,,,,,
,,,,,,,5ecfc4e722413102e68160ba,684391103ff03c54a4ebb646,2025-06-07_03h08.38.669,shape_ratio,2024.1.5,Win32,142.8571429,6842b561977af9ba9b0f87ca,,,,,,,,,,,174.6094,175.1111,,,175.3613,176.1042,right,,,,,,,,0.55,0.7389,,,,,,,175.1113,175.3613,176.1044,"[0.15821604593963912,0.08220964517737883]",100.0,"[-0.16017285856102342,0.08195059643193038]",4.0,"[-0.16736858218782402,0.018444638212852357]",100.0,"[-0.07267514629760614,-0.08268744439784771]",100.0,"[0.028673513087589374,0.12195109265103227]",4.0,"[0.13697472602093674,-0.09259722045314416]",4.0,"[-0.12052482957256933,-0.10677351707002473]",4.0,"[-0.05980256797924169,-0.12382845039810657]",4.0,"[0.012584872311259942,-0.06606812674168057]",100.0,"[-0.09465729101726494,0.055112563378636154]",100.0,"[0.11591722001103241,0.07487380730237889]",100.0,"[-0.013421386247055656,-0.15442696291101946]",4.0,"[0.05680903187062203,0.04708177218405829]",100.0,"[-0.19467844352741517,-0.02962865259180815]",4.0,"[0.17622150582005564,-0.02586585333467573]",4.0,"[-0.05602726182061249,0.004117227609384853]",4.0,"[-0.08786093002804382,0.1664505830919853]",4.0,"[0.04178273140169356,-0.14100651018100505]",100.0,"[-0.01922075520614077,-0.11336391813009249]",100.0,"[-0.038376514218665225,0.1685297724256361]",100.0,"[-0.021079186486601505,0.12468545187406725]",4.0,"[0.09234899962394819,-0.13541685334298434]",4.0,"[0.08719100871679203,0.12379994791796042]",4.0,"[-0.03990177315635773,0.07184803506709452]",100.0,"[-0.13285766239954608,-0.05307523649551422]",100.0,"[0.048889331542210264,-0.025819089821433685]",100.0,"[0.10386643094665465,0.17051343690776993]",100.0,"[-0.1165254698736354,-0.011620812631390138]",100.0,"[-0.01603657275311743,0.03017103734845456]",100.0,"[0.18610101393510498,-0.06928908636673156]",100.0,"[-0.13665135739193782,0.12740891971750637]",100.0,"[-0.02771082413477166,-0.0701940043967463]",4.0,"[0.02,0.02]",177.2011,0.0,0.0,0.0,77.0,1.0,,,,,,,
,,,,,,,5ecfc4e722413102e68160ba,684391103ff03c54a4ebb646,2025-06-07_03h08.38.669,shape_ratio,2024.1.5,Win32,142.8571429,6842b561977af9ba9b0f87ca,,,,,,,,,,,177.2013,177.701,,,177.9511,178.5066,left,,,,,,,,0.55,0.5488,,,,,,,177.701,177.9511,178.5066,"[-0.1204825593139901,-0.06508764652226458]",4.0,"[-0.10619876842292722,0.08487942182118365]",100.0,"[-0.02120318518405388,-0.1691204377134295]",4.0,"[0.1313915238082526,0.07930738151804569]",4.0,"[-0.1471834883217288,-0.10411306560761512]",100.0,"[0.05522479739198333,0.17836916553538817]",100.0,"[-0.14275670224418185,0.11819409444408446]",4.0,"[0.01968318955373389,0.13527957437721355]",100.0,"[0.1003526528324624,0.12140269658815904]",4.0,"[0.12333705273853576,-0.05220270137719422]",100.0,"[-0.052775696743052006,-0.11729904516917047]",100.0,"[-0.06587606845330289,0.1022423089399935]",4.0,"[0.06900445685892215,0.07338508941534508]",100.0,"[0.06102342932439769,0.017275863914430967]",4.0,"[0.10097357441518372,0.005483935096987895]",100.0,"[-0.05383612646128266,0.1457604967255873]",100.0,"[-0.07748144553055993,0.05416596628629446]",100.0,"[-0.016183384310469836,0.0788775848381743]",100.0,"[-0.03180334145113815,-0.029151083539436587]",100.0,"[-0.12920363003168656,-0.0034065935699782463]",100.0,"[-0.09043838222413805,-0.1334243951292371]",100.0,"[0.052585526684681194,-0.0883060306898299]",100.0,"[-0.07715955663476672,0.005174925527753775]",4.0,"[0.050835559639749256,-0.18165123157931917]",4.0,"[-0.0722729275532452,-0.06009996259908726]",4.0,"[0.10653269710511344,0.047111035269088795]",4.0,"[0.1242999911527129,-0.11250179757289082]",4.0,"[0.009135878431007721,-0.05116056965146627]",4.0,"[-0.1857659781424679,0.054685691533092926]",4.0,"[0.1690038067022723,-0.10313134832020554]",100.0,"[0.015009640041546165,-0.10406731676620841]",100.0,"[-0.01672881367866375,0.19741088922636243]",100.0,"[0.02,0.02]",179.6035,0.0,1.0,1.0,64.0,1.0,,,,,,,
,,,,,,,5ecfc4e722413102e68160ba,684391103ff03c54a4ebb646,2025-06-07_03h08.38.669,shape_ratio,2024.1.5,Win32,142.8571429,6842b561977af9ba9b0f87ca,,,,,,,,,,,179.6037,180.1034,,,180.3535,180.9159,right,,,,,,,,0.5,0.5552,,,,,,,180.1034,180.3535,180.9159,"[0.06038503219254806,0.10552186227791513]",100.0,"[0.14070654793407117,-0.13375491826597694]",4.0,"[0.18639333695237975,0.011766563662608568]",4.0,"[-0.12237811594658556,-0.05338525553658395]",100.0,"[-0.04903007995504591,-0.05284078274491517]",100.0,"[-0.14233659790603984,-0.12205405858157266]",100.0,"[0.027828114741432982,-0.053696204153066036]",4.0,"[0.08999426908495697,-0.06345521520444555]",100.0,"[0.008119801818887792,-0.11680079076869392]",4.0,"[-0.023242733938212717,0.12015514169477362]",100.0,"[0.12827587652137207,0.04309365938488987]",100.0,"[-0.053116099640602536,0.08721285075496459]",100.0,"[-0.01129271407034289,0.06030774676348412]",100.0,"[0.038537664970930495,-0.15501354784511587]",4.0,"[-0.1730542518553328,-0.08917302184161617]",4.0,"[-0.11072974006276977,-0.16497723203246628]",100.0,"[-0.16932040084674807,0.028040809929848334]",4.0,"[-0.028564370000592754,-0.19297724838813204]",4.0,"[0.02508785347750059,-0.00010764197776323348]",100.0,"[-0.12242305752472135,0.08293003139826277]",4.0,"[-0.06624147322211074,0.18724693760208327]",4.0,"[0.18984873515649253,0.06252735876165647]",4.0,"[0.1302045858014062,0.10279611491153923]",4.0,"[-0.07345065374220426,0.015040225753240993]",4.0,"[-0.008701894477895262,-0.02617885925894965]",100.0,"[0.07113469555328354,0.047555946817194834]",100.0,"[0.10273879649419132,0.14466842282889747]",4.0,"[0.13898408774915777,-0.048835753430547996]",100.0,"[0.0656123708496224,-0.020962850368612538]",100.0,"[-0.13423329364316586,-0.013885588227872052]",4.0,"[-0.09547422994600718,-0.10835705729724823]",100.0,"[-0.19048218569257883,-0.029486370366099558]",4.0,"[0.02,0.02]",182.0131,0.0,2.0,2.0,90.0,1.0,,,,,,,
,,,,,,,5ecfc4e722413102e68160ba,684391103ff03c54a4ebb646,2025-06-07_03h08.38.669,shape_ratio,2024.1.5,Win32,142.8571429,6842b561977af9ba9b0f87ca,,,,,,,,,,,182.0132,182.5127,,,182.7629,183.8113,right,,,,,,,,0.55,1.0415,,,,,,,182.5127,182.7628,183.8113,"[-0.11081544005691212,0.0359424915645918]",100.0,"[0.12125326966473678,-0.15040941613764494]",100.0,"[0.10893044842913495,0.15811072118186442]",4.0,"[0.05113213665962559,0.17097607894637404]",4.0,"[0.11994578932932752,0.09891998904654992]",4.0,"[-0.05602538441335545,0.16134102611055584]",100.0,"[-0.0368710637580605,-0.014938737220451215]",100.0,"[-0.14744489657256954,0.06905050470382812]",100.0,"[0.011496900124708652,-0.029135286128020656]",100.0,"[0.10957822950078125,0.014297834251886018]",4.0,"[-0.179347077956131,0.001707737034868855]",100.0,"[0.02778570663220785,0.12450251149228295]",4.0,"[-0.19320191889765054,-0.041331043048188125]",100.0,"[0.007994060305897815,0.04962554575354722]",100.0,"[-0.06574753887660388,-0.16378321775191887]",100.0,"[0.13002745101514127,-0.05037878564411465]",4.0,"[-0.006756967488743093,-0.10357205902756958]",100.0,"[0.04008369972362226,0.085900280279409]",4.0,"[0.010714699654673034,0.19337533714243105]",100.0,"[-0.12918409872032766,-0.06530016007354417]",4.0,"[0.16318627393492308,0.10485369074934482]",4.0,"[0.19544800594945128,-0.02975453229596555]",100.0,"[0.03879216226465606,0.022213869773222632]",100.0,"[-0.08451647831001746,-0.014730592949507423]",100.0,"[0.07383167093567657,-0.022432127403560556]",4.0,"[-0.04885134981311997,-0.05358887038749488]",4.0,"[-0.08461010517268444,-0.0798082864207238]",4.0,"[-0.03616330765476573,-0.1958734115427366]",100.0,"[-0.11148204150966899,-0.14969611192098836]",100.0,"[0.08856594072012416,-0.11951601491548734]",4.0,"[-0.07188469155102635,0.11820974873679833]",100.0,"[-0.018469596984569937,0.13784030300974293]",4.0,"[0.02,0.02]",184.9084,0.0,3.0,3.0,68.0,1.0,,,,,,,
,,,,,,,5ecfc4e722413102e68160ba,684391103ff03c54a4ebb646,2025-06-07_03h08.38.669,shape_ratio,2024.1.5,Win32,142.8571429,6842b561977af9ba9b0f87ca,,,,,,,,,,,184.9087,185.4082,,,185.6582,186.1234,right,,,,,,,,0.9,0.4583,,,,,,,185.4082,185.6582,186.1234,"[-0.12735152067427397,-0.03787366057633202]",100.0,"[-0.17220779280398765,-0.04758380776120041]",100.0,"[0.054824518800278534,-0.06387990102843051]",100.0,"[-0.05426555793987601,0.017786564941582466]",100.0,"[-0.09758377944825443,-0.08186146318946148]",100.0,"[0.15758146981000035,-0.11143269430001598]",4.0,"[-0.058432391599693094,-0.1032310727791819]",100.0,"[0.028650010368142454,0.010828387586366617]",100.0,"[0.1299002011520019,-0.04531766150395994]",100.0,"[-0.13758669571028656,-0.08913614496934913]",100.0,"[-0.025410986474724593,0.13195566316776833]",100.0,"[-0.0208285236475632,-0.07452464047339759]",4.0,"[-0.0033710788948030255,-0.1178743613938987]",100.0,"[0.012209698193435859,0.18208693542191315]",100.0,"[0.18391639875298196,-0.03660427363141469]",100.0,"[0.00017479046937327877,-0.186403340144071]",100.0,"[0.12461136364812446,0.08570985627425629]",100.0,"[-0.10262534144680498,0.07794402351916734]",100.0,"[0.15241712196376644,0.03226393419662904]",100.0,"[0.103553685026305,-0.1298276830343436]",100.0,"[-0.14208043012997504,0.13157318050076594]",100.0,"[-0.14000271985393226,0.011523424731578212]",100.0,"[-0.16803948885426306,0.07860576144635643]",100.0,"[-0.017675023503475593,-0.0294441657442749]",100.0,"[0.08527650013371617,0.1421383613175584]",100.0,"[-0.19291824107107555,0.04191489987772272]",100.0,"[0.08818288897075618,-0.014246372586529598]",100.0,"[-0.08738883637953304,0.1655992747415464]",100.0,"[0.06715526084883523,0.023656868502634692]",100.0,"[-0.06336019905793398,-0.16311288067146856]",4.0,"[0.04468803233104555,-0.15312710982961253]",100.0,"[0.01955866085648376,0.06883389030963032]",100.0,"[0.02,0.02]",187.2204,0.0,4.0,4.0,23.0,1.0,,,,,,,
,,,,,,,5ecfc4e722413102e68160ba,684391103ff03c54a4ebb646,2025-06-07_03h08.38.669,shape_ratio,2024.1.5,Win32,142.8571429,6842b561977af9ba9b0f87ca,,,,,,,,,,,187.2206,187.7203,,,187.9705,188.9145,left,,,,,,,,0.4,0.9375,,,,,,,187.7203,187.9705,188.9145,"[-0.07931429103133478,-0.011776170027109541]",4.0,"[0.18237806818507568,-0.06468286074275179]",4.0,"[-0.03964601736910278,-0.027015796208677997]",100.0,"[0.07932593237925148,0.16660772271994806]",4.0,"[0.0103193085163109,-0.08980055251613688]",4.0,"[0.08941395082062835,-0.12989202535984642]",4.0,"[0.13247201138866632,-0.03133959337534045]",4.0,"[0.0467479738417119,-0.17506644994297849]",4.0,"[-0.05181887495625644,0.13107153303392674]",4.0,"[-0.14125281323605418,-0.13909896554428602]",100.0,"[-0.07986793634812105,-0.06421514927137646]",4.0,"[0.07448574114363259,0.04219245514874038]",100.0,"[-0.10609400717114567,0.056205606359867474]",100.0,"[0.17123286646564342,0.05691154361194034]",4.0,"[0.13812772416615315,0.12764381121097246]",4.0,"[-0.13640665840828356,-0.08624867391381628]",100.0,"[-0.042470638267315355,0.1950895449318837]",4.0,"[-0.07838021793407522,-0.1095007282278594]",4.0,"[0.015856923159700446,0.07645582429684694]",4.0,"[-0.18582414506080475,0.06540181988878432]",100.0,"[0.10484116914693535,0.09584231744704329]",100.0,"[0.13758589264539162,-0.09507489343595406]",100.0,"[0.012163582049138427,0.13194203638398574]",4.0,"[0.09599061946411476,-0.0025483172747242534]",4.0,"[-0.031135335766988986,0.056435655852860984]",100.0,"[-0.11309332872425477,0.10648376255740102]",100.0,"[0.016864923810784336,-0.0059054143975526335]",4.0,"[0.0430378916361558,0.1899915871947172]",100.0,"[0.06124748223854449,-0.049253393094375944]",100.0,"[-0.13811670635996912,0.13958002231966526]",100.0,"[0.18517406924955399,-0.01210009494814656]",4.0,"[0.0015515530569160747,-0.17145588984412322]",4.0,"[0.02,0.02]",190.0116,0.0,5.0,5.0,169.0,1.0,,,,,,,
,,,,,,,5ecfc4e722413102e68160ba,684391103ff03c54a4ebb646,2025-06-07_03h08.38.669,shape_ratio,2024.1.5,Win32,142.8571429,6842b561977af9ba9b0f87ca,,,,,,,,,,,190.0116,190.5115,,,190.7616,191.6502,right,,,,,,,,0.6,0.8825,,,,,,,190.5116,190.7616,191.6502,"[-0.08053049883213419,-0.024467637225326886]",100.0,"[-0.043716200682302385,0.10462375647984261]",4.0,"[-0.13653080910682044,0.12355074415575173]",100.0,"[0.019844294171636124,-0.04233410860091813]",100.0,"[0.19008978593609147,0.033688475479255714]",100.0,"[-0.02799750987652676,0.04789172933920425]",100.0,"[0.10269692713492179,0.15277220629265806]",4.0,"[-0.07667957663863871,0.06783410147483897]",100.0,"[0.024865260603981795,0.10726736631503751]",100.0,"[-0.14411307390558417,0.019300812655251205]",100.0,"[-0.13394334016520643,-0.10859495085427612]",100.0,"[-0.08589954584481178,-0.06487197551350415]",100.0,"[-0.10240372228913633,0.16828328374672494]",4.0,"[-0.015551209037786723,-0.12220880484168482]",100.0,"[0.04914415550933287,0.17215386865656804]",4.0,"[0.0748154488580492,-0.08917593224222602]",4.0,"[0.07448865711607007,-0.1693140687067753]",100.0,"[0.1935523468212659,-0.04129481950283265]",100.0,"[0.1391212556672681,-0.0802931959987449]",4.0,"[0.08002687839153635,-0.014509132214749443]",100.0,"[-0.10184768273816328,0.0295490344866678]",4.0,"[-0.17716522518013766,0.06082426989265886]",4.0,"[0.0075966494010613235,-0.16349177486305863]",4.0,"[0.15173441678083235,-0.1273953062985487]",4.0,"[-0.06299532147529353,-0.1458519259073715]",100.0,"[-0.11037077891997901,0.0930196997902182]",100.0,"[-0.1287102838100685,-0.05657029032219943]",4.0,"[-0.187143708443845,-0.0381949107927414]",100.0,"[0.1421933737480007,-0.01729432226027643]",4.0,"[-0.062282722161048826,-0.18734942725083562]",4.0,"[0.08138677441711313,0.03386307484850468]",100.0,"[0.1566530832121596,0.09854497731664603]",100.0,"[0.02,0.02]",192.7473,0.0,6.0,6.0,31.0,1.0,,,,,,,
,,,,,,,5ecfc4e722413102e68160ba,684391103ff03c54a4ebb646,2025-06-07_03h08.38.669,shape_ratio,2024.1.5,Win32,142.8571429,6842b561977af9ba9b0f87ca,,,,,,,,,,,192.7475,193.2471,,,193.4972,194.6636,right,,,,,,,,0.9,1.1626,,,,,,,193.2471,193.4971,194.6636,"[-0.09581247433593092,0.0799878664976079]",100.0,"[-0.02718551446087302,0.15073670210780618]",100.0,"[-0.14208815161304816,0.06171369431803512]",100.0,"[-0.14808527718059936,0.009853745664685554]",100.0,"[0.08622296515562529,0.05891269480632344]",100.0,"[-0.168664103537782,-0.02645637504520697]",100.0,"[0.0786757735478801,-0.0015758419342805298]",100.0,"[0.05655105952969467,-0.1476327283721912]",100.0,"[-0.0035533559280837494,-0.04284722535159019]",100.0,"[0.15492433216905976,-0.06808109566932934]",100.0,"[-0.019690564934144145,0.07982943031642979]",100.0,"[0.004432903675172552,-0.14819907695845108]",100.0,"[-0.1525746466857583,-0.0843756113126246]",100.0,"[0.06742043934552677,0.18473488432994997]",100.0,"[0.11992680246582679,0.15289415509158658]",100.0,"[0.17379601183365506,0.0865588735375457]",100.0,"[0.016101802054708028,0.14485576214544718]",100.0,"[0.19594447602874862,-0.014618045098806123]",100.0,"[-0.1424682215666548,0.13733050235988115]",100.0,"[-0.08461127298389702,-0.11953228320257452]",100.0,"[-0.10156041585327628,0.12969839194466212]",100.0,"[-0.03844712183175609,-0.09474707625033989]",4.0,"[0.05791081103300432,-0.07277862186735584]",100.0,"[0.05604611053692005,0.114291541927154]",100.0,"[-0.037400125465385105,-0.13653536771731703]",100.0,"[-0.10765855121532651,-0.02251776509757876]",100.0,"[0.15326935940141873,-0.007181697125853332]",100.0,"[0.11714222242610181,0.016896850119876704]",100.0,"[0.1344293822013394,0.06857336183056563]",4.0,"[-0.009146289473982404,0.019488892410096652]",100.0,"[-0.07343567329839536,-0.05363041729278065]",100.0,"[-0.05471199401870776,0.003342344086150246]",4.0,"[0.02,0.02]",195.7607,0.0,7.0,7.0,3.0,1.0,,,,,,,
,,,,,,,5ecfc4e722413102e68160ba,684391103ff03c54a4ebb646,2025-06-07_03h08.38.669,shape_ratio,2024.1.5,Win32,142.8571429,6842b561977af9ba9b0f87ca,,,,,,,,,,,195.7609,196.2605,,,196.5108,197.6145,right,,,,,,,,0.55,1.1011,,,,,,,196.2605,196.5108,197.6146,"[0.09205306464629914,-0.11789637102933227]",100.0,"[-0.04717873279948608,0.18618901966799764]",4.0,"[-0.18748458690745423,-0.05448953693030232]",100.0,"[0.046176572360217084,0.10867649963916934]",100.0,"[0.11028212857325972,-0.021098934368308203]",4.0,"[0.13165383903306443,-0.10197555967912135]",4.0,"[-0.038721610541946956,0.11983605625191356]",100.0,"[0.18985063886293038,0.020311233180694718]",100.0,"[-0.09903684409905397,-0.01133555061351734]",4.0,"[-0.07732491278711802,-0.16127889740352447]",100.0,"[-0.14635613856888827,-0.01530009975647741]",100.0,"[0.17821730805826488,0.06832590861008815]",100.0,"[0.035192551103892,-0.15893270778675078]",100.0,"[0.019338651387898923,0.16947652808299757]",100.0,"[-0.16722840283007545,0.05322684373583019]",100.0,"[-0.1252599746230582,-0.07382628533825299]",4.0,"[0.09762551739774349,0.07507862527101142]",4.0,"[-0.07722460050764031,-0.08358612671496707]",4.0,"[-0.05831351941765349,0.0023195972048010286]",100.0,"[0.1318956371546021,0.13199812450790768]",100.0,"[0.1678904081780148,-0.03079845404534678]",4.0,"[-0.017451574333061288,0.03877385057874115]",4.0,"[-0.061461259900626695,-0.044275245954101594]",100.0,"[-0.10219779371228618,0.16005406866206037]",100.0,"[-0.1290472879396362,0.12388742832103049]",4.0,"[-0.0028523518592443713,-0.023949469110991422]",4.0,"[0.07122541476299786,-0.08292804719295417]",4.0,"[0.06621803359800216,0.021654074114781402]",4.0,"[-0.18443657083394763,0.013615493475279478]",4.0,"[0.06541583796940227,-0.18718493477628928]",100.0,"[-0.016959499145601596,-0.15514118133949506]",100.0,"[0.1081717275078597,0.02881365533475598]",100.0,"[0.02,0.02]",198.7116,0.0,8.0,8.0,89.0,1.0,,,,,,,
,,,,,,,5ecfc4e722413102e68160ba,684391103ff03c54a4ebb646,2025-06-07_03h08.38.669,shape_ratio,2024.1.5,Win32,142.8571429,6842b561977af9ba9b0f87ca,,,,,,,,,,,198.7119,199.2114,,,199.4615,200.0169,right,,,,,,,,0.45,0.5505,,,,,,,199.2114,199.4615,200.017,"[-0.058504211340730354,0.10140430037916907]",4.0,"[-0.03489996529539721,-0.04488116942648994]",100.0,"[0.17054092281500996,-0.005846296433530833]",4.0,"[0.12740838611051397,-0.09232006936414819]",4.0,"[0.05557947383153542,0.1130954814869347]",4.0,"[-0.1615878512545006,-0.11765221483613544]",4.0,"[-0.08349946028408725,-0.1682365040990154]",4.0,"[-0.16613834622041276,-0.06650222667009213]",4.0,"[0.03844958740055421,0.05686686794175642]",100.0,"[-0.14284291361688986,0.05069790057662813]",100.0,"[0.14102049429972338,0.06358661072857175]",4.0,"[0.10861240683849809,-0.16021775156677895]",4.0,"[0.015272660414803279,-0.1059846493787548]",100.0,"[-0.02724369743462153,0.16656721241361092]",100.0,"[0.07956546474225165,0.042792094747336744]",100.0,"[0.17284917342211673,-0.07816597376093819]",100.0,"[0.03075407819978024,0.15755207030680635]",4.0,"[0.08244756663568878,0.14345631097113176]",100.0,"[0.052361689603603837,-0.1392861804055103]",100.0,"[-0.10445054102454834,0.06846545942123115]",4.0,"[0.0443506908454342,-0.04705527655012236]",100.0,"[-0.046293315728279515,0.05434937991849121]",100.0,"[-0.12801821270291222,0.14494128531525688]",4.0,"[-0.16067110415751207,0.01009312104706187]",100.0,"[-0.12502822728732554,-0.14105180429451114]",4.0,"[0.09566877811014309,0.08882365295916544]",4.0,"[0.07120651122530493,0.18664738388217028]",4.0,"[-0.0060778263913088305,-0.18730190376541953]",4.0,"[0.09514571565816493,-0.047802048805789775]",4.0,"[0.1279193258904798,0.14688849363268858]",100.0,"[-0.19599441428354103,0.039726960838962044]",100.0,"[0.007036372197208575,0.110459762426627]",4.0,"[0.02,0.02]",201.1139,0.0,9.0,9.0,131.0,1.0,,,,,,,
,,,,,,,5ecfc4e722413102e68160ba,684391103ff03c54a4ebb646,2025-06-07_03h08.38.669,shape_ratio,2024.1.5,Win32,142.8571429,6842b561977af9ba9b0f87ca,,,,,,,,,,,201.1141,201.6139,,,201.864,202.5582,right,,,,,,,,0.4,0.6918,,,,,,,201.6139,201.864,202.5582,"[-0.16769419963021848,-0.004087820790653524]",100.0,"[0.08854863030819858,-0.01776692969687157]",4.0,"[0.10810293306636105,0.11820171427144623]",4.0,"[-0.037108116650690956,0.11641045287756883]",100.0,"[0.11174856142532505,-0.13804205355389065]",100.0,"[-0.12480209708544418,0.07032620327187825]",4.0,"[0.019814739907776567,0.14258781039761156]",4.0,"[-0.0068258330599384005,-0.12789296396504354]",4.0,"[-0.06115224741778371,-0.06208444325321276]",100.0,"[-0.023532191412047102,0.07581518882788027]",100.0,"[0.17741267911670178,0.0022980382712097804]",100.0,"[-0.09605704784712778,0.13781572808506884]",4.0,"[-0.08308470735965882,-0.02514041090461379]",100.0,"[0.1333408866466962,-0.1012369516619988]",4.0,"[0.17272785296987614,0.05532408671042678]",4.0,"[0.02710660702593326,-0.002678707103906352]",100.0,"[0.011787837004163283,-0.16872189095452014]",100.0,"[0.07958603295047278,0.16104305795451637]",4.0,"[0.05290925668484488,-0.05472294383230148]",4.0,"[0.0069838693388861155,0.03842244243955255]",4.0,"[0.052153589003474964,0.08879938619872468]",4.0,"[-0.05224660948277647,-0.17483310145607783]",4.0,"[0.011399699903207224,-0.08971737622995721]",4.0,"[0.09215235093892728,-0.08898771483547807]",100.0,"[0.14487181214431144,-0.03103482862983716]",100.0,"[-0.14020785207819378,0.12621326542699007]",100.0,"[-0.13790027749896386,-0.07470346961017918]",4.0,"[0.09356958783304108,-0.1748834523893274]",100.0,"[-0.05024592511067027,0.01602447927923778]",4.0,"[-0.13360763770053086,-0.12831952301457175]",4.0,"[-0.01351343979117276,0.18323210142301868]",4.0,"[-0.11752732809055204,0.014905510114854359]",4.0,"[0.02,0.02]",203.6552,0.0,10.0,10.0,162.0,1.0,,,,,,,
,,,,,,,5ecfc4e722413102e68160ba,684391103ff03c54a4ebb646,2025-06-07_03h08.38.669,shape_ratio,2024.1.5,Win32,142.8571429,6842b561977af9ba9b0f87ca,,,,,,,,,,,203.6554,204.1551,,,204.4052,204.8633,right,,,,,,,,0.6,0.4548,,,,,,,204.1552,204.4052,204.8633,"[-0.10220711838182421,-0.14837518792189316]",100.0,"[-0.06342445968265238,0.020775098525511054]",100.0,"[-0.10299537552222804,0.08658600230547724]",4.0,"[0.1822217696381984,-0.009555126535609818]",100.0,"[-0.008164597973659815,-0.10275123754179917]",100.0,"[0.1038303413762961,-0.12409195600903801]",100.0,"[0.18464973631719817,-0.06444590498306207]",100.0,"[0.10858999104324518,0.1295915896528076]",100.0,"[0.09141122596991212,-0.031073301880733557]",100.0,"[-0.03878213022953042,-0.05681825624118941]",100.0,"[-0.10057916742019195,0.15965078009543654]",100.0,"[-0.008362695038811992,0.1897088214529765]",4.0,"[-0.16003910738966723,-0.024420322386618915]",4.0,"[0.014243771006910636,0.028247544104837773]",100.0,"[-0.10086940080371355,-0.04672341666438868]",100.0,"[0.12644251824464925,0.05507162130202014]",100.0,"[-0.19602325180463928,0.039460005066844495]",4.0,"[0.14892762927634323,0.09202667762678111]",4.0,"[-0.10067905970641562,-0.0031220195752814602]",100.0,"[0.03181215585841366,-0.08083946273893003]",4.0,"[-0.008015566468434597,-0.19202483226058772]",100.0,"[-0.13513716211368096,0.04631979161990777]",100.0,"[-0.0023782915025022384,0.13683100695349523]",4.0,"[-0.031362325084429134,-0.016969516762809302]",100.0,"[-0.1465533590731296,-0.07172383984962537]",100.0,"[0.01997681410372913,0.102614664016471]",100.0,"[0.17211206825719777,0.0431988336965832]",4.0,"[0.07139733381323553,0.0733195925032144]",4.0,"[-0.07953032196613448,-0.08590684137892779]",4.0,"[0.06780560380071043,-0.18708104005677803]",4.0,"[-0.061721469511733115,0.07605624783047062]",4.0,"[0.08635707653122245,-0.0825326984985669]",4.0,"[0.02,0.02]",205.9603,0.0,11.0,11.0,46.0,1.0,,,,,,,
,,,,,,,5ecfc4e722413102e68160ba,684391103ff03c54a4ebb646,2025-06-07_03h08.38.669,shape_ratio,2024.1.5,Win32,142.8571429,6842b561977af9ba9b0f87ca,,,,,,,,,,,205.9605,206.4602,,,206.7103,207.6407,left,,,,,,,,0.5,0.9257,,,,,,,206.4603,206.7103,207.6407,"[0.08604097749696134,-0.024988455243293406]",100.0,"[0.104649744594784,-0.12681441344273076]",4.0,"[-0.03570569098659835,0.17429529515922382]",4.0,"[0.15615818821363406,0.0664727608022073]",4.0,"[0.08186914152481152,0.10606019317480068]",4.0,"[0.0008511928229946468,-0.06973689976243751]",100.0,"[0.1144485810536976,0.06331182892031262]",100.0,"[0.1221576734315417,-0.006889324437094407]",4.0,"[-0.11732526310441124,-0.06636590156426818]",100.0,"[-0.17211581953980834,-0.05971012744737716]",100.0,"[-0.036769378259075496,-0.10217431431889955]",4.0,"[-0.0339268232816613,0.03596254290038584]",100.0,"[-0.10761086221557525,-0.0033734606745183127]",100.0,"[-0.15173589413406335,0.05535756832948014]",4.0,"[-0.0648803946815923,-0.18621664507364027]",100.0,"[-0.06744082818643805,-0.04815547485436071]",100.0,"[0.05496558940031596,-0.1769823533139985]",4.0,"[0.11846006050425224,0.15161608047844638]",4.0,"[-0.0959772360321978,0.05504057430377021]",4.0,"[0.19402802380539796,-0.03433746702303567]",4.0,"[-0.13065900383784426,-0.10753394422582638]",4.0,"[0.06509572963128495,-0.10575854836310034]",100.0,"[0.14052446683057188,-0.08139226465712764]",4.0,"[0.0662262842007822,0.015260267082246868]",4.0,"[-0.11801619399370003,0.1279764728257172]",100.0,"[0.028616754419374325,0.10786205627938075]",4.0,"[0.01783656821358463,-0.026471171206042216]",100.0,"[0.049313632899990835,0.06229310659304551]",100.0,"[-0.01386326086992626,0.08436291077671168]",100.0,"[-0.06251342984480786,0.10673743881820456]",100.0,"[0.08576357846546569,0.17634057990281002]",100.0,"[-0.012523268528136197,0.12623571473419595]",4.0,"[0.02,0.02]",208.7377,0.0,12.0,12.0,104.0,1.0,,,,,,,
,,,,,,,5ecfc4e722413102e68160ba,684391103ff03c54a4ebb646,2025-06-07_03h08.38.669,shape_ratio,2024.1.5,Win32,142.8571429,6842b561977af9ba9b0f87ca,,,,,,,,,,,208.7379,209.2376,,,209.4877,209.974,right,,,,,,,,0.4,0.4843,,,,,,,209.2376,209.4877,209.974,"[0.14811287354343436,0.09641904180471558]",4.0,"[-0.007565948649412113,-0.17704240846079802]",4.0,"[0.10979856823715664,0.13006674060723106]",100.0,"[0.047007239898518335,-0.10235027692180787]",4.0,"[-0.12734644440659817,0.13704668152151442]",100.0,"[-0.029437439064292206,-0.11799468401424817]",100.0,"[0.024663554250652336,-0.13949631410129865]",100.0,"[-0.0545975834861465,0.025507084154824545]",100.0,"[-0.18352269472523575,0.008874413958554133]",4.0,"[-0.011713194994692736,0.153152953555526]",100.0,"[-0.14282064809972514,0.042005622816132765]",4.0,"[-0.07501579645103162,0.1330952130118646]",4.0,"[0.037988231441541294,0.042825379199289235]",4.0,"[0.16249686751093523,-0.06195330762776703]",4.0,"[0.12194618493922216,-0.07157247995878892]",100.0,"[0.18010967864744834,0.01773831350540069]",4.0,"[0.07681684582270192,0.1536767091503541]",4.0,"[-0.0552927275771601,-0.05132609793427854]",100.0,"[0.1325184946625396,0.02613498361223618]",100.0,"[0.03542631108463581,0.17021278942262671]",4.0,"[0.07010233194587777,0.1062411004514971]",4.0,"[0.01855743938566126,-0.0296817866223306]",4.0,"[-0.01562760951570265,0.10817158194372266]",4.0,"[0.08518442107577988,-0.17635068941160795]",100.0,"[-0.13464441317904055,-0.12788996169110226]",100.0,"[-0.09760389677342277,0.0033690066175734645]",4.0,"[-0.13938760626375435,-0.05970599210237575]",100.0,"[0.14814353357834548,-0.12416200890596783]",4.0,"[-0.0827908920665798,0.06249096307516361]",4.0,"[-0.001505037752556006,0.02192550386572331]",100.0,"[-0.0023496926978988464,-0.07410627678618112]",4.0,"[0.1792392249045628,0.06206315919906625]",4.0,"[0.02,0.02]",211.0706,0.0,13.0,13.0,167.0,1.0,,,,,,,
,,,,,,,5ecfc4e722413102e68160ba,684391103ff03c54a4ebb646,2025-06-07_03h08.38.669,shape_ratio,2024.1.5,Win32,142.8571429,6842b561977af9ba9b0f87ca,,,,,,,,,,,211.0708,211.5705,,,211.8206,212.626,left,,,,,,,,0.1,0.7992,,,,,,,211.5705,211.8206,212.626,"[0.1970320346458508,-0.029347723302252163]",4.0,"[0.16625797966114753,-0.10390943910256073]",4.0,"[-0.03762049955974026,-0.06021736938826017]",4.0,"[-0.12168769641689214,-0.1504691202002205]",4.0,"[-0.06361143873688373,0.026000192592100957]",4.0,"[-0.13879945105637437,0.07732044726544515]",4.0,"[-0.010953481380671416,0.15072422002790964]",4.0,"[-0.05760282191060616,0.17347567320476515]",4.0,"[0.055977782337069903,-0.08712561894305815]",4.0,"[0.062073919455877556,0.14493800357013126]",4.0,"[0.15123481753550383,0.029475156090904325]",100.0,"[-0.06041864074048173,0.07023764928683547]",100.0,"[0.155504406515979,0.08906699233525486]",100.0,"[0.12682753136333608,-0.03565329378234344]",4.0,"[0.09352366323005125,-0.0655750253214284]",4.0,"[0.01783940696664757,0.03437760109419719]",4.0,"[-0.07730734355598456,-0.121736604495563]",4.0,"[0.027615935027505624,0.07580568668583487]",4.0,"[-0.15764803210913556,0.027823070850995356]",4.0,"[0.04396209834799904,-0.037558672136350585]",4.0,"[-0.09179018914548569,0.14386069488569184]",4.0,"[0.13416744730262875,0.14556705809899712]",4.0,"[-0.04624560473206391,-0.01180432901649384]",4.0,"[0.02435244596007427,-0.1421666922550869]",4.0,"[-0.0334600422190998,-0.14310074870423672]",4.0,"[-0.14091856980660458,-0.026161677727881836]",4.0,"[0.06858570767927225,-0.14999932548808118]",4.0,"[0.09749400931418396,0.005318325517904462]",4.0,"[-0.04514519126085994,0.12382515217047056]",4.0,"[0.19416073264214656,0.03232134780880948]",4.0,"[0.11869457611470242,0.07246254120211515]",4.0,"[-0.1267629846939971,-0.10385019958543429]",4.0,"[0.02,0.02]",213.723,0.0,14.0,14.0,185.0,1.0,,,,,,,
,,,,,,,5ecfc4e722413102e68160ba,684391103ff03c54a4ebb646,2025-06-07_03h08.38.669,shape_ratio,2024.1.5,Win32,142.8571429,6842b561977af9ba9b0f87ca,,,,,,,,,,,213.7231,214.2229,,,214.473,215.681,left,,,,,,,,0.6,1.2028,,,,,,,214.2229,214.473,215.681,"[0.12215056015825132,-0.10972011173479393]",100.0,"[0.15940784149384404,0.02843418474495047]",4.0,"[-0.1696980492421944,0.08671264430185772]",100.0,"[0.12412393498784707,0.008959658402705463]",4.0,"[-0.027945644439910537,-0.13647130115235032]",100.0,"[0.1652476837711695,0.09535363973331225]",100.0,"[-0.047414247776559004,-0.09358971140905445]",100.0,"[-0.10656077362804374,-0.04318118335563697]",100.0,"[0.09363750787111004,0.09030070807647027]",100.0,"[-0.10684151787899718,0.133107362436952]",100.0,"[0.10751193671546576,0.14003474875164285]",4.0,"[0.0028304113375187652,-0.005226574327248461]",100.0,"[-0.08321711958889012,0.06088446787262236]",4.0,"[0.049694780719781353,0.12225436665699617]",100.0,"[-0.12608235348969746,0.08823643736889243]",4.0,"[0.044272425915711656,0.16710383640329926]",4.0,"[0.01210968704317182,0.047016046181282474]",4.0,"[-0.13458024121744624,0.04890981887130169]",100.0,"[-0.005778883641883709,-0.07429742037358716]",100.0,"[-0.029940306862236643,0.03771916588895341]",4.0,"[0.05411872318720875,-0.02556130602294132]",4.0,"[-0.09246998596906526,-0.1556438142750922]",100.0,"[-0.06595714359262693,0.1779181094309958]",4.0,"[-0.16973809969362508,-0.05405439034919997]",100.0,"[0.05324641890800619,-0.1659406840613501]",4.0,"[-0.05094808211378696,-0.18498672474236902]",100.0,"[-0.1387638542578159,-0.13831520029050595]",4.0,"[0.18014322294533722,-0.02820054264159163]",100.0,"[0.10404491349672693,-0.041651242249975545]",100.0,"[-0.03128085455912443,0.14375311538502275]",100.0,"[0.05945117909585495,-0.10683119643402254]",100.0,"[-0.013585803253323417,0.09769539410644841]",4.0,"[0.02,0.02]",216.778,0.0,15.0,15.0,53.0,1.0,,,,,,,
,,,,,,,5ecfc4e722413102e68160ba,684391103ff03c54a4ebb646,2025-06-07_03h08.38.669,shape_ratio,2024.1.5,Win32,142.8571429,6842b561977af9ba9b0f87ca,,,,,,,,,,,216.7782,217.278,,,217.528,218.2709,right,,,,,,,,0.5,0.74,,,,,,,217.2781,217.528,218.2709,"[0.03727080591306126,0.1612304529680574]",100.0,"[0.051037819322191307,-0.11596743360608164]",4.0,"[-0.011510387786069514,-0.12169063905372227]",100.0,"[0.14047948181317924,-0.12420945199721377]",100.0,"[-0.05592103132935118,-0.032097185491115454]",100.0,"[0.012671372975367218,-0.06982295668380416]",4.0,"[-0.1399986341674463,-0.06547498365343012]",100.0,"[0.015390388291455847,0.12156527201767085]",100.0,"[-0.11613150076024985,0.0259675236980896]",100.0,"[0.18195946881510688,0.007934337092875837]",100.0,"[0.057835571927154376,0.008250995085189715]",100.0,"[0.11534732283192455,0.0036902545045406966]",100.0,"[0.10153363853896775,0.0579091388825694]",100.0,"[0.1045450926286975,-0.07862762256768757]",100.0,"[-0.019020638382887374,-0.00434956343343615]",4.0,"[0.15483666561200107,0.07840166065967516]",4.0,"[0.0901145596969698,0.1688111002685348]",4.0,"[0.07566439994109278,-0.04784828097100896]",4.0,"[-0.13590176547382957,0.10254988719986516]",100.0,"[0.0752348562061675,0.10479633216877249]",4.0,"[-0.061745221971697864,0.042703258477118915]",4.0,"[0.004232416761640833,0.04324581658530508]",4.0,"[-0.06090978544203966,0.1610917872986576]",100.0,"[0.17639904258416025,-0.061437427108104174]",4.0,"[-0.017836078519155543,0.1964019182738481]",4.0,"[-0.16757163852312576,0.03614963782431745]",4.0,"[-0.057601234208938576,-0.15303357948975552]",4.0,"[-0.07802900874861986,0.12202395952420295]",100.0,"[-0.09821370661510569,-0.08210949126359676]",4.0,"[-0.19830827836769663,0.01029978166287565]",4.0,"[-0.11559813740026546,-0.1487818468622352]",4.0,"[-0.022279091542519565,0.09400926192771643]",100.0,"[0.02,0.02]",219.3679,0.0,16.0,16.0,113.0,1.0,,,,,,,
,,,,,,,5ecfc4e722413102e68160ba,684391103ff03c54a4ebb646,2025-06-07_03h08.38.669,shape_ratio,2024.1.5,Win32,142.8571429,6842b561977af9ba9b0f87ca,,,,,,,,,,,219.368,219.8678,,,220.1179,220.7358,right,,,,,,,,0.9,0.6141,,,,,,,219.8678,220.1179,220.7358,"[-0.1031301175291551,-0.12993395571824432]",100.0,"[0.08754340022960636,-0.16396361646182195]",100.0,"[-0.07851450617969492,0.11320095635045448]",100.0,"[0.05617175051340519,0.1440721066724866]",100.0,"[-0.056043148705672306,-0.007179561809051604]",100.0,"[0.09679468789570309,-0.03866732865397043]",100.0,"[0.10018157249290309,-0.08913264025909866]",4.0,"[-0.031101267444590176,-0.16695557655259788]",4.0,"[-0.13640444365842572,0.130546616863459]",100.0,"[-0.03654313605505309,0.07592146397193762]",100.0,"[-0.08686038861841544,-0.07155628777937564]",100.0,"[-0.17144260524701666,-0.10129804121609276]",100.0,"[0.07811262458431464,0.08370034292227707]",100.0,"[0.04496485534602078,-0.02982008571851705]",100.0,"[0.16172862926325063,-0.07800619866758685]",100.0,"[0.16783177392045964,0.08136885679659925]",100.0,"[-0.10544601377573529,-0.028044602632233528]",100.0,"[0.05570977672559161,-0.11255012917712687]",100.0,"[0.09805017387696865,0.002066856576156397]",100.0,"[-0.020230077626333533,-0.045627680942151125]",4.0,"[0.1858472255096269,0.042183721860592015]",100.0,"[-0.13528842031259253,0.033811894651277825]",100.0,"[0.04949080512567912,0.04291754538799291]",100.0,"[0.12568043644127805,0.12592249193742588]",100.0,"[-0.005506330542299322,0.03049668451763986]",100.0,"[-0.05110105245000076,0.16379360938990079]",100.0,"[0.012181792516281986,0.15853576867016725]",100.0,"[0.04000218534363723,0.09747515942149275]",100.0,"[0.04352717211988813,-0.1710378865162053]",100.0,"[-0.18292167463203254,0.021242180999228897]",100.0,"[0.165878417090088,-0.004885342817520363]",100.0,"[-0.08848884296567733,-0.17162899615736452]",100.0,"[0.02,0.02]",221.8329,0.0,17.0,17.0,16.0,1.0,,,,,,,
,,,,,,,5ecfc4e722413102e68160ba,684391103ff03c54a4ebb646,2025-06-07_03h08.38.669,shape_ratio,2024.1.5,Win32,142.8571429,6842b561977af9ba9b0f87ca,,,,,,,,,,,221.833,222.3328,,,222.5829,223.1034,right,,,,,,,,0.4,0.5169,,,,,,,222.3329,222.5829,223.1034,"[-0.15281492473200342,-0.10534452682137856]",100.0,"[-0.15968419270866013,-0.05259917249504679]",4.0,"[-0.14720562870174186,0.08372198627678756]",4.0,"[0.10291231268175356,-0.09704310455499687]",4.0,"[0.17835052066055856,0.0312698187049603]",4.0,"[0.12304086817402286,0.08651123721323573]",4.0,"[0.02209279969662589,-0.1892955775514479]",4.0,"[0.12838753840273012,0.03508749942882317]",100.0,"[0.046037463295095664,0.12724837718885856]",100.0,"[0.010174200385687107,-0.00013342331404400068]",4.0,"[-0.0626231790232901,0.00989675018368212]",4.0,"[-0.07371092670020196,-0.14932284209449986]",100.0,"[-0.1095758154042658,0.1238231174881883]",100.0,"[-0.07039512979046819,-0.06012692163911425]",100.0,"[-0.04858004744027545,0.07477124546699816]",4.0,"[0.02508373145266715,-0.057101839656789194]",100.0,"[-0.09046408400473674,0.05773998080760065]",4.0,"[0.07572652786766966,-0.0052763980328491816]",4.0,"[-0.11102010861332014,-0.06614084335338406]",4.0,"[-0.17033287603234282,0.02769191008139266]",100.0,"[0.040632092326785635,-0.14341830497460145]",4.0,"[0.06190446597734413,-0.08967053880210737]",4.0,"[0.17354357662675693,0.09681873625016534]",4.0,"[0.0930295286677452,-0.047191624489419694]",100.0,"[-0.052936173083571667,0.13468894879735172]",100.0,"[0.07486904060460797,0.07234366534281074]",100.0,"[-0.12717546843949887,-0.014584575532895164]",4.0,"[0.1261253261564474,-0.018779575585404298]",4.0,"[0.0026761600883383916,0.14155996385043731]",100.0,"[0.16187242255530776,-0.048903026057697786]",4.0,"[0.12515667237646305,-0.14314640850851212]",100.0,"[-0.03926091727439101,-0.08644649317447137]",4.0,"[0.02,0.02]",224.2005,0.0,18.0,18.0,159.0,1.0,,,,,,,
,,,,,,,5ecfc4e722413102e68160ba,684391103ff03c54a4ebb646,2025-06-07_03h08.38.669,shape_ratio,2024.1.5,Win32,142.8571429,6842b561977af9ba9b0f87ca,,,,,,,,,,,224.2006,224.7004,,,224.9504,225.86,right,,,,,,,,0.4,0.9021,,,,,,,224.7004,224.9504,225.86,"[0.028941379070567146,0.1765066969360448]",4.0,"[-0.06814434518302648,0.10245335008671642]",4.0,"[-0.1770080822236221,-0.04384131346177273]",4.0,"[0.09477437711613826,-0.17028929482240698]",100.0,"[-0.14081228126826323,-0.09931392219223797]",4.0,"[-0.08158931412985208,-0.08741805325863655]",4.0,"[0.16441536737362525,0.016384644554395218]",4.0,"[-0.08597443530943476,-0.1645073641284274]",4.0,"[-0.10214983958798074,-0.008701311630206114]",4.0,"[0.05515917478714376,0.08639455455904385]",4.0,"[-0.03172516821776496,0.0006251246606341094]",100.0,"[0.0060073023274202835,0.07297206766127705]",100.0,"[0.036422123491064634,-0.030247038792351345]",4.0,"[-0.011408049522916158,-0.12960703395863601]",100.0,"[0.11409939608367961,-0.0674260781925974]",100.0,"[0.0878346074446071,-0.013116176027232272]",4.0,"[0.0322216781106423,0.13264177462969412]",100.0,"[-0.04696538594402241,0.05265659739834033]",4.0,"[0.05892233941823001,0.037184808974882654]",4.0,"[-0.033168667723067514,0.1449701023936619]",4.0,"[-0.17726959609392012,0.06638612995877845]",4.0,"[0.13925981184027036,0.05767571061207252]",4.0,"[-0.16465758261901586,0.014777150580016147]",100.0,"[-0.10587334361994166,0.12234021784519825]",4.0,"[-0.13167667898042726,-0.03613983848927036]",100.0,"[-0.022638166927102767,-0.05174075131503841]",100.0,"[0.07927688063768767,0.1758343920889089]",100.0,"[0.10300070613638175,0.07855984354237876]",100.0,"[0.051170378986091544,-0.09702138881979859]",100.0,"[-0.043268516321600704,0.1899568864985472]",4.0,"[0.05140599133734523,-0.1504152244269072]",100.0,"[-0.12679579189209822,-0.15346791304530788]",4.0,"[0.02,0.02]",226.957,0.0,19.0,19.0,175.0,1.0,,,,,,,
,,,,,,,5ecfc4e722413102e68160ba,684391103ff03c54a4ebb646,2025-06-07_03h08.38.669,shape_ratio,2024.1.5,Win32,142.8571429,6842b561977af9ba9b0f87ca,,,,,,,,,,,226.9571,227.4569,,,227.707,228.2277,right,,,,,,,,0.5,0.5129,,,,,,,227.4569,227.707,228.2277,"[-0.018489457425006697,0.19259247089321072]",100.0,"[-0.1318602438717361,-0.06131727764485527]",100.0,"[-0.1199730422176943,0.1341937887699117]",100.0,"[-0.01425478316410074,-0.14966259397213313]",4.0,"[0.12063787840606215,-0.1574606292040576]",4.0,"[0.08494797587209993,0.0020200031797861216]",100.0,"[-0.06609268933389983,-0.18521743950446234]",100.0,"[0.0011981284591560401,-0.11172948381996357]",100.0,"[-0.173577485841886,-0.07952207401753404]",4.0,"[0.18644628208699052,-0.03534950661725301]",100.0,"[0.012071399305180287,0.051772082123661106]",4.0,"[0.1376843766628283,-0.025670492901955833]",100.0,"[0.05588008221643269,-0.08189070435885325]",4.0,"[0.14007765229166705,0.1422287959022357]",100.0,"[-0.06056283811439495,-0.12516255424020808]",100.0,"[-0.08653617782419343,0.02852344145471847]",100.0,"[-0.0466399961823254,0.11262612649741421]",4.0,"[0.10410769076145525,0.08220733021945598]",100.0,"[0.01932024129862427,-0.1814856643371195]",100.0,"[-0.16781959723758672,0.06371328373511657]",4.0,"[0.07175988401041618,-0.15781847191957413]",4.0,"[0.1442293267047813,-0.0885729320127991]",4.0,"[-0.10235897428426945,-0.09943692213265376]",4.0,"[-0.03744330118866953,-0.07790482034776733]",4.0,"[0.06787211858175485,0.13549611306796003]",100.0,"[0.025826511135428772,0.01057893401297324]",100.0,"[-0.07098858489966564,-0.050111379639175925]",4.0,"[-0.0068522999809707335,0.15283456258448513]",4.0,"[0.053919737367721425,0.06689911708859496]",100.0,"[0.06950810083389161,0.17728682989791048]",4.0,"[-0.19286254485146231,-0.0016827041839483745]",4.0,"[-0.14208594293956647,-0.10905481598321866]",4.0,"[0.02,0.02]",229.3246,0.0,20.0,20.0,112.0,1.0,,,,,,,
,,,,,,,5ecfc4e722413102e68160ba,684391103ff03c54a4ebb646,2025-06-07_03h08.38.669,shape_ratio,2024.1.5,Win32,142.8571429,6842b561977af9ba9b0f87ca,,,,,,,,,,,229.3248,229.8245,,,230.0746,230.5883,right,,,,,,,,0.45,0.506,,,,,,,229.8246,230.0745,230.5884,"[-0.03561582922587529,0.12771268571957822]",4.0,"[0.060291902500542914,0.11599153278261577]",100.0,"[0.17767581074129424,0.0915794056630983]",4.0,"[0.009853262395326188,0.1165245562665067]",4.0,"[0.1292710853428096,0.05138183041979524]",4.0,"[-0.04242153824907027,0.18691605101767336]",100.0,"[0.02958707156952003,-0.1188203381620858]",100.0,"[-0.046075149951365024,0.04183649907159069]",4.0,"[-0.0629485604601287,0.09489213721734706]",4.0,"[-0.010957685609996659,0.022329816339875647]",4.0,"[0.05610363820003769,0.00084258222987397]",100.0,"[-0.14952484404070304,0.13103132937167833]",100.0,"[0.18624761301686713,-0.04145264835099697]",100.0,"[0.10833253509688245,0.1595192698940011]",4.0,"[-0.08306961417747644,-0.024756180823857298]",100.0,"[0.0024088614628339816,-0.17190334020715792]",4.0,"[-0.11085209431787904,0.15207776550321578]",4.0,"[0.07324925069456797,-0.060104870919398375]",4.0,"[0.13447728200035938,-0.13355180968298966]",100.0,"[-0.1055554148862964,0.017075042151871802]",4.0,"[-0.115151262059748,0.10225908780558743]",100.0,"[-0.18064573047413054,-0.011363550862013143]",100.0,"[-0.033320308496935826,-0.04431355232123757]",100.0,"[0.12638339634439796,0.00413119064908874]",4.0,"[0.08706629514866535,-0.12902953802908917]",100.0,"[-0.1331541598254765,-0.07796361165642268]",100.0,"[-0.08291484198659131,-0.06910151484272001]",4.0,"[0.04473228961580043,0.16185566642891858]",4.0,"[-0.09382907588796002,-0.13190929026340403]",4.0,"[-0.02861000706001384,-0.14483625433694114]",4.0,"[0.03637126587914785,0.038429157049231416]",4.0,"[0.1979630708201614,0.01469159201025173]",100.0,"[0.02,0.02]",231.6854,0.0,21.0,21.0,141.0,1.0,,,,,,,
,,,,,,,5ecfc4e722413102e68160ba,684391103ff03c54a4ebb646,2025-06-07_03h08.38.669,shape_ratio,2024.1.5,Win32,142.8571429,6842b561977af9ba9b0f87ca,,,,,,,,,,,231.6856,232.1853,,,232.4353,232.9768,left,,,,,,,,0.45,0.5365,,,,,,,232.1853,232.4353,232.9768,"[-0.00905597856275474,0.005371729919598809]",4.0,"[0.08385710570548133,0.16088023913448837]",100.0,"[0.10921621453016893,-0.0640146492003492]",100.0,"[-0.0739287120493232,-0.01939586699104763]",4.0,"[-0.05959775377777158,0.13462090905725674]",100.0,"[-0.03255914067381233,-0.1673502732153343]",4.0,"[-0.11500583111239158,-0.1056280406498817]",4.0,"[-0.1863471983982761,-0.003030295523317266]",4.0,"[-0.13072178964673278,0.11789897439125416]",4.0,"[0.12225389853262422,-0.14011600864512597]",4.0,"[-0.12223668541959265,-0.1554009812917948]",100.0,"[0.010580624755572953,-0.1080773359257057]",100.0,"[0.0023064081343196078,0.1341918122416099]",100.0,"[-0.00029670024017370433,0.19364908448831183]",4.0,"[0.018575900903142917,-0.16332443509136035]",100.0,"[0.1885342183883028,0.004382285912396559]",100.0,"[-0.1539170334753391,-0.08257346458520357]",100.0,"[0.054119248531097175,0.056178706878120134]",100.0,"[0.14443940758759927,-0.03406638122137215]",4.0,"[0.17173061673784137,0.09721150369584777]",4.0,"[0.09260116193766317,-0.0032211229032306672]",4.0,"[0.046526601596411435,-0.04268176734208977]",4.0,"[0.1311636615420805,0.06318648570804385]",100.0,"[-0.17659201161000998,0.06328479347922257]",100.0,"[-0.05788251814235152,-0.10511573657019513]",100.0,"[-0.09347478812112049,0.0728743599624536]",4.0,"[0.005192120115363499,0.09332267042187381]",4.0,"[-0.13250157530193238,-0.02042414085893425]",4.0,"[0.14883552515788395,-0.08653010206293216]",4.0,"[-0.03682656580696794,0.053469021919811906]",100.0,"[-0.11040743800637622,0.16110336306669698]",4.0,"[0.008702575758049098,0.04135269166312047]",4.0,"[0.02,0.02]",234.0739,0.0,22.0,22.0,147.0,1.0,,,,,,,
,,,,,,,5ecfc4e722413102e68160ba,684391103ff03c54a4ebb646,2025-06-07_03h08.38.669,shape_ratio,2024.1.5,Win32,142.8571429,6842b561977af9ba9b0f87ca,,,,,,,,,,,234.0742,234.5737,,,234.8238,235.414,left,,,,,,,,0.45,0.588,,,,,,,234.5737,234.8238,235.414,"[-0.11435949084678441,0.15935037466958427]",100.0,"[-0.03747408685669114,0.050637574169689094]",100.0,"[-0.18518896065634652,0.002269396150373342]",100.0,"[-0.02028855804884058,-0.17484092623356404]",100.0,"[-0.11833214893213169,0.027745684070659023]",4.0,"[0.1617145766043852,-0.036585178215490295]",4.0,"[0.14022392159786673,0.08001643579543352]",100.0,"[0.07675873951018333,-0.08620005104709529]",4.0,"[0.16672430320818202,-0.0988954110244866]",4.0,"[-0.1438179739981602,-0.08238528557588792]",4.0,"[0.03684108935520287,0.0796341889982805]",100.0,"[-0.11578709047750428,-0.14046245740313712]",4.0,"[-0.13146210828423896,0.07672207231635692]",4.0,"[0.06963458858784508,0.16094779970437448]",100.0,"[-0.011688383811407745,-0.11214060687639049]",4.0,"[-0.1001078862711556,-0.03308177787518942]",100.0,"[0.001155939307973046,-0.06613104304122487]",4.0,"[0.030705795143620426,0.03830050125735205]",100.0,"[-0.16816962066034533,0.0508592855034761]",100.0,"[-0.0010220382413897219,-0.015013107239092235]",4.0,"[-0.08867849226243353,0.12044174928667176]",4.0,"[0.10080069457803725,0.05182601192452968]",100.0,"[0.03517559079512123,-0.10282627587961797]",100.0,"[0.06738677557620207,0.10631401470393399]",4.0,"[-0.07058975261467564,-0.15347940558334847]",4.0,"[0.07139847301964362,0.015598898871315098]",4.0,"[0.12263045626252758,-0.06807825135489907]",100.0,"[0.09666994801029072,-0.020630355994905404]",100.0,"[0.11919102311138956,0.1473003609124776]",4.0,"[-0.008136146292865565,0.11752557654152841]",4.0,"[-0.02409158542611715,0.1878106220120456]",4.0,"[-0.06398505985560847,0.17852831811656264]",4.0,"[0.02,0.02]",236.511,0.0,23.0,23.0,139.0,1.0,,,,,,,
,,,,,,,5ecfc4e722413102e68160ba,684391103ff03c54a4ebb646,2025-06-07_03h08.38.669,shape_ratio,2024.1.5,Win32,142.8571429,6842b561977af9ba9b0f87ca,,,,,,,,,,,236.5111,237.0109,,,237.2609,238.0941,right,,,,,,,,0.6,0.831,,,,,,,237.0109,237.2609,238.0942,"[-0.18652728007134592,0.06429632500428235]",100.0,"[0.036238452528034905,0.18306541226911746]",4.0,"[-0.1379784011059675,0.12022271703145307]",4.0,"[-0.0839334665884761,0.13905846830156685]",4.0,"[0.054645534037485656,0.11102003547156758]",100.0,"[-0.05295583970206619,0.005050650311387765]",100.0,"[0.007635638507940432,-0.17704466256435247]",100.0,"[0.10876858015275889,0.00497892293480472]",4.0,"[-0.04503258094303914,0.12274778231705401]",100.0,"[0.15191701394724932,-0.09175336445003979]",4.0,"[-0.04791893616362799,-0.04154817596021384]",4.0,"[-0.08919074319207415,-0.12424356515450895]",100.0,"[0.07956650170699624,0.18095934858623514]",4.0,"[0.10151456044476156,-0.11993532065232619]",100.0,"[0.07107143615649113,-0.16510309279157984]",100.0,"[0.15095821204086418,0.05436887006636739]",100.0,"[0.06370588572301461,-0.054666700507415476]",100.0,"[0.1850241085821673,0.001639264563404024]",100.0,"[0.11216922934314329,0.11064803851349919]",4.0,"[-0.098520193343722,0.0470494977278468]",4.0,"[0.01637964313605601,0.06400050870733177]",100.0,"[-0.13784219069367976,-0.024456804058959582]",4.0,"[0.17565185258705765,-0.05532520547790748]",4.0,"[0.14514951946121868,-0.015412604243550045]",100.0,"[0.08359626744460566,0.0601829112600208]",4.0,"[-0.06760605243956416,-0.08595759314635648]",100.0,"[-0.0985747432366373,0.08754787306240329]",100.0,"[-0.13958061536333655,0.041155275384358814]",100.0,"[-0.024466338177214823,0.041525854064101995]",100.0,"[0.06840503718885522,0.0028518401552651246]",4.0,"[0.0028817234894777093,-0.0386894134762683]",100.0,"[-0.03315068939186505,-0.14720162971156453]",100.0,"[0.02,0.02]",239.1911,0.0,24.0,24.0,40.0,1.0,,,,,,,
,,,,,,,5ecfc4e722413102e68160ba,684391103ff03c54a4ebb646,2025-06-07_03h08.38.669,shape_ratio,2024.1.5,Win32,142.8571429,6842b561977af9ba9b0f87ca,,,,,,,,,,,239.1912,239.691,,,239.9411,240.4896,right,,,,,,,,0.45,0.5428,,,,,,,239.691,239.941,240.4896,"[0.1095583476472383,0.06155648815039223]",4.0,"[0.16267417299736395,0.10509686405740902]",100.0,"[0.06919557155650555,0.01568815258231889]",100.0,"[-0.15865546570307293,-0.0880828344435069]",4.0,"[0.03287563397101633,-0.1713439894741666]",100.0,"[-0.05934446918225542,0.12851378196724592]",4.0,"[0.17775905740431613,0.058469434429705584]",4.0,"[-0.03969027697095286,0.02095662257028279]",4.0,"[-0.02399292780561861,0.08846722639659596]",4.0,"[-0.06676469206793378,0.17227925823024617]",100.0,"[-0.027670529755641392,-0.13062703469197612]",4.0,"[-0.030405335273838853,0.19276425765273517]",4.0,"[-0.04183702113165857,-0.07129832292894335]",4.0,"[-0.08315294009119092,-0.10233461185622122]",4.0,"[0.05183962596204282,0.08265888122744394]",4.0,"[0.06755319201716335,-0.11448594289781909]",100.0,"[0.028297575240590362,0.1548242286984988]",100.0,"[0.14827481025361364,-0.06477939117763594]",4.0,"[0.09397103090552084,-0.06258415522723275]",100.0,"[-0.13475804147657933,0.09566098932304283]",100.0,"[0.17609956032349813,-0.03042720095943218]",4.0,"[-0.07153527143079803,-0.028235452452832148]",100.0,"[-0.14146900206504845,0.052328037683916834]",100.0,"[-0.016657364851007564,0.12998916748930078]",4.0,"[0.022973628741916448,-0.09006672470694316]",100.0,"[-0.0806732061065708,0.059871798173212205]",100.0,"[-0.14411157235499644,-0.0380952146806628]",100.0,"[-0.11008914583826016,0.016392691408894947]",100.0,"[0.010873865237047671,-0.02158407107872975]",4.0,"[0.12227036035569562,0.1320765387609676]",4.0,"[0.0864235722298312,0.17229684680043666]",4.0,"[0.005939176431281012,0.020099308214238113]",4.0,"[0.02,0.02]",241.5866,0.0,25.0,25.0,127.0,1.0,,,,,,,
,,,,,,,5ecfc4e722413102e68160ba,684391103ff03c54a4ebb646,2025-06-07_03h08.38.669,shape_ratio,2024.1.5,Win32,142.8571429,6842b561977af9ba9b0f87ca,,,,,,,,,,,241.5868,242.0864,,,242.3368,242.8434,right,,,,,,,,0.4,0.4994,,,,,,,242.0864,242.3368,242.8434,"[0.17951591821323892,0.021285206121887463]",100.0,"[0.07599338287345012,0.08040509822939172]",4.0,"[0.1307003021587804,0.11295055548750901]",4.0,"[-0.10402437417260162,-0.04844131789051105]",4.0,"[-0.071561073269828,0.0912458977996825]",4.0,"[0.1758305960134896,0.06215205165251823]",100.0,"[-0.04250976710541377,-0.021939714818201072]",4.0,"[0.022269099808199747,0.17413011554837474]",100.0,"[-0.14099625853450226,0.05807361069564667]",4.0,"[-0.11630522396936814,0.09636986862583093]",100.0,"[0.012212500433618356,-0.14984463548355098]",100.0,"[-0.06510698364910127,0.16033507413683162]",4.0,"[0.1298110099400831,0.009783699926137505]",4.0,"[-0.1467694556359008,-0.12589991038411652]",4.0,"[0.17476824227291587,-0.08924630856884279]",100.0,"[0.08572424270974337,0.010368368201016807]",100.0,"[0.0986271718973538,0.16939502575343837]",4.0,"[0.020801564085584992,-0.011010618601131658]",100.0,"[-0.0030513896928822644,0.13260327126007518]",4.0,"[0.0795703510142133,-0.034529573277876875]",100.0,"[-0.02578812798196521,-0.062247500460949366]",100.0,"[-0.021970021940830378,0.07487464180709447]",4.0,"[-0.03043285605778343,0.19109697476531207]",4.0,"[-0.16344612044207754,0.10400540728033672]",4.0,"[0.06025060540661862,-0.07019732027903479]",4.0,"[-0.15459165472095907,-0.04631852484363634]",4.0,"[-0.021020701459311616,-0.11409000483918498]",100.0,"[-0.04626740931393876,-0.16724278355125735]",100.0,"[-0.074371521264866,-0.08754455873122778]",4.0,"[-0.1935343047903061,-0.012237401554103295]",4.0,"[0.0817096964281385,-0.12592220888085595]",4.0,"[0.020443178192605625,-0.05372659246721846]",100.0,"[0.02,0.02]",243.9403,0.0,26.0,26.0,154.0,1.0,,,,,,,
,,,,,,,5ecfc4e722413102e68160ba,684391103ff03c54a4ebb646,2025-06-07_03h08.38.669,shape_ratio,2024.1.5,Win32,142.8571429,6842b561977af9ba9b0f87ca,,,,,,,,,,,243.9405,244.4403,,,244.6903,245.586,right,,,,,,,,0.9,0.8896,,,,,,,244.4403,244.6903,245.586,"[0.06144502594463219,-0.12294687096124386]",100.0,"[0.13426654239934396,0.02302443312858167]",100.0,"[-0.1142627701904655,0.14039832665946755]",100.0,"[-0.11358424078050688,0.06948129108001704]",100.0,"[-0.05384638646441539,-0.04754986926076084]",100.0,"[0.1322998661265566,0.06623126700065962]",100.0,"[-0.047881923792467536,0.12484686756011847]",100.0,"[-0.02761730853248737,-0.10930627783157196]",100.0,"[0.03069846131688214,-0.05190695118747318]",100.0,"[0.13017621789447634,-0.04408743767270735]",100.0,"[-0.10396829219332847,-0.018840331367128805]",100.0,"[0.17906211369898958,0.07111179194233345]",100.0,"[0.044636853708477066,-0.012684068611761853]",4.0,"[0.0032193500429685304,-0.0009628945772705888]",100.0,"[0.09193044964525936,0.11382263888743097]",100.0,"[0.008492818127390757,0.0954312010993378]",100.0,"[-0.1729241088844214,0.014740678127615224]",100.0,"[0.08812433932081037,-0.06716971780614907]",100.0,"[0.08663009985080031,0.05867087301204165]",100.0,"[-0.03806143948586752,0.04199885866537496]",100.0,"[-0.08514464806894534,0.035599142972162816]",100.0,"[0.07446551917064478,0.16624169367513175]",100.0,"[0.15607028535666084,-0.08371656296242498]",100.0,"[-0.025161231843549313,0.186883621058601]",100.0,"[-0.15184315602986512,-0.12434634993141276]",100.0,"[0.0660206954042373,-0.17919184936124155]",100.0,"[0.17528584211249648,-0.035137518355030914]",100.0,"[-0.07891045706175251,-0.1435680988609125]",100.0,"[0.14447061834092426,0.13570187941853917]",100.0,"[0.04551377075496192,0.13446078318249743]",4.0,"[-0.04182249283811082,-0.0035815192435251397]",100.0,"[-0.1667791104860851,-0.041252978287253404]",4.0,"[0.02,0.02]",246.683,0.0,27.0,27.0,7.0,1.0,,,,,,,
,,,,,,,5ecfc4e722413102e68160ba,684391103ff03c54a4ebb646,2025-06-07_03h08.38.669,shape_ratio,2024.1.5,Win32,142.8571429,6842b561977af9ba9b0f87ca,,,,,,,,,,,246.6831,247.1828,,,247.4331,247.9397,right,,,,,,,,0.6,0.4998,,,,,,,247.1828,247.4331,247.9398,"[-0.10351122272919136,-0.004768168217811476]",4.0,"[-0.11179817681621407,-0.1280813071384599]",100.0,"[-0.1277580423521695,0.12809529182458992]",4.0,"[-0.04106517539857905,-0.1338097685216256]",100.0,"[0.02740831342722836,0.00384252911578441]",100.0,"[0.07123477153192459,0.1361458650333918]",100.0,"[0.10508760947655871,0.08414013298620769]",100.0,"[0.1458678907947741,-0.06015338175927816]",4.0,"[0.0113260858256101,0.06768977053644404]",100.0,"[-0.061122605567887914,-0.18198044349979264]",100.0,"[-0.034233693716217546,0.1879199835984197]",100.0,"[0.0007740808727365024,-0.12069606983705304]",4.0,"[0.1260911717131811,-0.13261425295460919]",4.0,"[0.11197491645578485,0.003906906763982119]",4.0,"[-0.16335200691887367,0.07069009773419316]",100.0,"[0.10360523971683411,-0.07859263265926547]",100.0,"[0.06371752648457556,-0.035319104366116606]",100.0,"[-0.08424198615048797,0.04615396048433706]",4.0,"[0.18370216307927836,-0.04606524749002315]",4.0,"[-0.17616277874983824,-0.014468708175942011]",4.0,"[0.06668782697239743,0.0673541850838562]",100.0,"[-0.009659776203680056,-0.05789785596350228]",100.0,"[-0.12144591276345151,-0.041951361009767325]",100.0,"[-0.03420444268444387,0.07170209674674412]",4.0,"[0.16259993614419785,0.1045702010179993]",100.0,"[-0.0911857378008542,-0.09345786689367419]",100.0,"[-0.08688846746646876,0.14231453788723689]",4.0,"[-0.17789960999112112,-0.0724290328278682]",100.0,"[-0.11946082063996503,0.07175312695830945]",4.0,"[0.06757922804466739,-0.12206644809294584]",4.0,"[0.19430986996657795,0.01151059970330387]",100.0,"[0.0498008726253276,0.17111729209543833]",100.0,"[0.02,0.02]",249.0368,0.0,28.0,28.0,54.0,1.0,,,,,,,
,,,,,,,5ecfc4e722413102e68160ba,684391103ff03c54a4ebb646,2025-06-07_03h08.38.669,shape_ratio,2024.1.5,Win32,142.8571429,6842b561977af9ba9b0f87ca,,,,,,,,,,,249.0371,249.5367,,,249.7867,250.2381,right,,,,,,,,0.6,0.4493,,,,,,,249.5367,249.7867,250.2381,"[-0.07081654304362159,-0.057177392542312314]",4.0,"[0.11656593518260458,-0.15647526326831818]",100.0,"[0.051402814118341286,0.10559658875949585]",4.0,"[0.14211720509782347,-0.09889133488222081]",100.0,"[-0.0537132272831275,-0.15573010927806552]",100.0,"[-0.1527822937719054,-0.07971607982505197]",4.0,"[-0.11330853840239478,-0.1306407018761767]",100.0,"[0.10139108954907793,0.06792049792129971]",100.0,"[-0.02342190598408589,-0.07488008087009777]",4.0,"[0.03824917299238254,0.01684442189043226]",100.0,"[0.1426363409826497,0.07075350680376005]",4.0,"[-0.08972137383483424,0.039510971570859255]",4.0,"[-0.0336295640178588,0.1856146411370597]",100.0,"[-0.08773970280208901,0.156594345616771]",4.0,"[-0.06647215252621867,0.005108748619015273]",100.0,"[-0.14454934203310435,0.0385712680112472]",4.0,"[0.04186616615375195,-0.17469254412571916]",100.0,"[0.020484506368143064,0.13263983016185282]",100.0,"[-0.13168294383810544,-0.041280401348538415]",100.0,"[0.18802788495054681,0.007887002621469592]",4.0,"[0.06772405870783306,-0.02219447072769838]",4.0,"[-0.011010946210979063,-0.03176811747642881]",100.0,"[0.022349668701817482,0.19452227707059147]",4.0,"[0.13473746682515628,-0.0026530722306783187]",100.0,"[0.10589931626982928,0.140201300752539]",100.0,"[0.05209211173024265,-0.09767537628747851]",100.0,"[-0.0006219093286339275,-0.1684429352296691]",100.0,"[-0.032030620792502636,0.11410839020991925]",100.0,"[-0.18137807694524827,-0.011552795853982488]",4.0,"[-0.03146271136214931,-0.11729695490130854]",100.0,"[0.18136162873988063,-0.08033915428389277]",100.0,"[0.15226301707623308,-0.04334636819006555]",4.0,"[0.02,0.02]",251.335,0.0,29.0,29.0,44.0,1.0,,,,,,,
,,,,,,,5ecfc4e722413102e68160ba,684391103ff03c54a4ebb646,2025-06-07_03h08.38.669,shape_ratio,2024.1.5,Win32,142.8571429,6842b561977af9ba9b0f87ca,,,,,,,,,,,251.3353,251.8349,,,252.0851,252.7376,left,,,,,,,,0.1,0.6468,,,,,,,251.8349,252.085,252.7376,"[0.11404958990034308,-0.09507140974104768]",4.0,"[-0.03091237410468118,-0.07915060679993263]",4.0,"[0.10816962221818023,0.015539939774053045]",4.0,"[-0.10877609601548947,0.034569051992385566]",4.0,"[-0.028128359234077815,-0.17410481613107492]",4.0,"[0.025650714973273703,-0.09334214134643651]",4.0,"[0.11447119829375506,-0.14161505809607558]",4.0,"[-0.15839282506336178,-0.014434397955966217]",100.0,"[0.1397922166545795,0.05663531340263306]",4.0,"[-0.1823873590946862,0.04016883797791536]",4.0,"[0.1729976648475319,-0.041003470008997976]",4.0,"[-0.06504767393381528,0.1852650435620266]",100.0,"[-0.005841512597849566,-0.11885888406191093]",4.0,"[-0.15767996570122217,-0.07193972436904024]",4.0,"[-0.004626726664254357,0.18584465797946081]",4.0,"[-0.02422350776994576,0.03232674508628471]",4.0,"[-0.08545358414516308,-0.1228991623673518]",4.0,"[-0.06720410071877858,-0.06165361675865495]",4.0,"[0.019437178710483564,-0.026982427915281902]",4.0,"[0.04489546532438955,0.047101666801106355]",4.0,"[-0.14047565648444604,0.07274960911108706]",4.0,"[0.027037332557115254,-0.14669767836723174]",4.0,"[0.036127384409920964,0.13544378776694352]",4.0,"[-0.03515372305156405,-0.036090267801624276]",4.0,"[0.16923514541496304,-0.08285489820995154]",4.0,"[-0.10491118439109,0.09731017779045126]",4.0,"[-0.07574015617212405,-0.0132908667660643]",4.0,"[-0.03025095892763332,0.09561704423115334]",4.0,"[-0.13976929496752655,0.12638461789731345]",4.0,"[0.08513369615820947,0.0781679068038935]",4.0,"[0.007970890445617855,-0.19634770034908855]",4.0,"[0.10790560571859534,0.14804479376380641]",100.0,"[0.02,0.02]",253.8347,0.0,30.0,30.0,191.0,1.0,,,,,,,
,,,,,,,5ecfc4e722413102e68160ba,684391103ff03c54a4ebb646,2025-06-07_03h08.38.669,shape_ratio,2024.1.5,Win32,142.8571429,6842b561977af9ba9b0f87ca,,,,,,,,,,,253.8348,254.3345,,,254.5847,255.39,right,,,,,,,,0.6,0.8035,,,,,,,254.3346,254.5846,255.39,"[0.0978315372050536,0.12725476927929208]",4.0,"[0.16011505517694094,-0.01502733012565729]",100.0,"[0.15164874358627356,0.11731771007415938]",100.0,"[-0.16014412799458386,-0.10185847301477914]",100.0,"[-0.0314486925113232,-0.07566230934399489]",100.0,"[-0.012315191169921143,-0.11523660087948001]",4.0,"[0.08091806660522845,-0.13781305672423477]",4.0,"[-0.09985200028932867,0.13138694540420337]",4.0,"[-0.05786639178575787,0.01101428485860457]",100.0,"[-0.12324058957701073,0.09178532233290498]",4.0,"[0.023340348015443154,-0.0935740888857844]",4.0,"[-0.19358775670188114,0.042210165016079146]",100.0,"[0.16802488333491963,0.05048431267711861]",4.0,"[0.013667873599735933,0.1289839000558973]",100.0,"[-0.01297756984776204,-0.006502734436412495]",100.0,"[-0.06823323627343758,0.18248138128711167]",4.0,"[0.03679533420193443,-0.030376622985101395]",100.0,"[-0.08708414000154134,0.052710839318873944]",4.0,"[-0.14985108787137552,0.011957971257334415]",100.0,"[-0.02838811547108825,0.13050469703185705]",100.0,"[-0.14252359401723833,0.13749977757764156]",4.0,"[0.06672640588041932,0.07368288959805253]",100.0,"[-0.03823824372835307,-0.18159056782991145]",100.0,"[0.16359327018942646,-0.10021694185141129]",4.0,"[0.12602697600578416,0.017106042926355047]",100.0,"[0.12388686558731654,-0.05899406216202017]",100.0,"[0.020681938902311327,-0.14303174720895268]",4.0,"[-0.12000656474537084,-0.13016474385723878]",100.0,"[-0.15643686582651295,-0.03723699761860048]",100.0,"[0.07998596322657073,-0.0573311687965252]",100.0,"[0.02329687911593926,0.0650078220576321]",100.0,"[-0.12261981955554736,-0.06296416461286063]",4.0,"[0.02,0.02]",256.4872,0.0,31.0,31.0,41.0,1.0,,,,,,,
,,,,,,,5ecfc4e722413102e68160ba,684391103ff03c54a4ebb646,2025-06-07_03h08.38.669,shape_ratio,2024.1.5,Win32,142.8571429,6842b561977af9ba9b0f87ca,,,,,,,,,,,256.4875,256.9869,,,257.237,258.7366,,,,,,,,,0.45,,,,,,,,256.9869,257.237,258.7366,"[0.049081598648448556,-0.08157352002486479]",100.0,"[0.14997938696820334,0.07126481593677758]",4.0,"[0.0489219820961221,0.08173450543662104]",100.0,"[-0.03539582864692536,0.0747522223909565]",100.0,"[-0.11218799546662135,0.0455107958781101]",100.0,"[-0.09423227358577965,-0.1608866847563926]",4.0,"[-0.048977336541094416,0.013223116179306918]",4.0,"[-0.01386148690547152,-0.044402387374359704]",100.0,"[0.06688901376902387,0.16765829427271495]",4.0,"[0.05825072167935863,-0.022951458516043032]",100.0,"[-0.00015977844738257452,0.1743926561509517]",4.0,"[-0.08774757274872552,-0.021506001667585296]",4.0,"[-0.09426416930519578,0.09512699792245016]",4.0,"[0.16329386909608815,0.1108775140676541]",100.0,"[0.007585009293821002,-0.09216150840144843]",4.0,"[-0.18544490575321795,-0.010194824849333088]",4.0,"[0.009671446411267515,-0.16770144688457078]",4.0,"[0.11880235102488088,0.10362776337948376]",100.0,"[-0.03660892966296006,0.14218722928629796]",4.0,"[-0.13481948062040053,-0.011514108156137888]",4.0,"[0.1872650582088584,0.009647851711403033]",4.0,"[-0.17448784905391493,0.0712268308594673]",4.0,"[0.12387600960169466,-0.03549407553633816]",100.0,"[-0.06611211419705638,-0.11239829999489]",100.0,"[-0.049838148079790486,-0.15937119392452517]",4.0,"[-0.10615434985016067,-0.05786751189072917]",100.0,"[0.05042729715139961,-0.1526033986310509]",100.0,"[0.12223918318554752,-0.10518391358406395]",100.0,"[0.022584104783322158,0.13160779757538837]",4.0,"[0.18477880141814523,-0.043374607808339585]",4.0,"[-0.16037469761149192,-0.08911188737962533]",100.0,"[-0.00724746822890927,0.0076348181717715395]",4.0,"[0.02,0.02]",259.8336,0.0,32.0,32.0,122.0,1.0,,,,,,,
,,,,,,,5ecfc4e722413102e68160ba,684391103ff03c54a4ebb646,2025-06-07_03h08.38.669,shape_ratio,2024.1.5,Win32,142.8571429,6842b561977af9ba9b0f87ca,,,,,,,,,,,259.8337,260.3336,,,260.5836,261.5765,left,,,,,,,,0.1,0.9885,,,,,,,260.3336,260.5836,261.5765,"[0.006170438211797955,0.008169618451473556]",4.0,"[0.0011130996855252574,-0.16548060770038614]",4.0,"[0.11068043293186337,0.09800164772875027]",4.0,"[-0.1079011493916129,0.09741970148297072]",4.0,"[-0.18161502001892815,0.006766811886608292]",4.0,"[0.08559408917362475,0.05852165796059604]",4.0,"[-0.04720293201470266,-0.046188428982768856]",4.0,"[0.14365098532321166,-0.005400244201055494]",4.0,"[-0.153945584457836,-0.09325114075378207]",4.0,"[-0.0902864060782426,-0.04950349887612827]",4.0,"[-0.09848360165021386,0.041015377760389854]",4.0,"[0.10693207036271395,-0.16289670138760062]",100.0,"[0.023389186148833518,0.13009487491022162]",4.0,"[-0.06967385506228431,-0.1368575715931897]",4.0,"[0.004131381997231956,-0.11081343340755524]",4.0,"[-0.06519664721296829,0.16919770856445487]",4.0,"[-0.126385637823803,-0.029618202761872114]",4.0,"[-0.03387327277180833,0.017767281488721916]",4.0,"[-0.019605837376972825,0.18690250210616768]",4.0,"[0.06459746514755599,-0.056714582153022185]",100.0,"[0.12227911456031014,0.14844550760794686]",4.0,"[0.16633134415690062,0.10736333962492915]",4.0,"[-0.09465665758556387,0.13643973951321536]",4.0,"[0.019639048711474854,-0.07029896210323777]",4.0,"[-0.12393633599725373,-0.12505115424569543]",4.0,"[0.03423305044285618,0.18393005627060593]",4.0,"[0.0703341396441641,0.010616566890538933]",4.0,"[0.04365070976784084,-0.1880920065315779]",4.0,"[-0.1708146246020156,0.07730866219631047]",100.0,"[-0.028363458756592737,0.05768405097830263]",4.0,"[0.19109324941699615,-0.048200575139472665]",4.0,"[0.14338068581710728,-0.048091635160291975]",4.0,"[0.02,0.02]",262.6734,0.0,33.0,33.0,188.0,1.0,,,,,,,
,,,,,,,5ecfc4e722413102e68160ba,684391103ff03c54a4ebb646,2025-06-07_03h08.38.669,shape_ratio,2024.1.5,Win32,142.8571429,6842b561977af9ba9b0f87ca,,,,,,,,,,,262.6736,263.1735,,,263.4237,264.7079,left,,,,,,,,0.6,1.2768,,,,,,,263.1735,263.4236,264.7079,"[0.12621934551230304,-0.08041979957397381]",100.0,"[-0.1557976075503053,0.06421909794101034]",100.0,"[-0.1607152726882935,-0.11352955187628481]",100.0,"[0.170688284510486,-0.08770221845971764]",100.0,"[-0.09937653312976819,0.15574060947515245]",4.0,"[0.026499845980915177,0.09290961755312852]",100.0,"[-0.09566707220104971,0.05821504907399133]",100.0,"[0.19058458999390937,0.05187419418540252]",100.0,"[0.10777211881272275,-0.16233602752898244]",100.0,"[0.15695364522600633,-0.022693259898653676]",100.0,"[0.06966702432128598,0.00025605067802394256]",100.0,"[0.1442051053177816,0.05432617180656676]",100.0,"[-0.026838905664676792,-0.002020658815518993]",100.0,"[0.010868080012605561,-0.14053758109280398]",100.0,"[-0.059043067254706705,-0.04470100425505712]",4.0,"[0.058753128896663245,-0.05191494770644614]",100.0,"[-0.0031347534409233596,-0.09587567612822356]",100.0,"[-0.01566866406581827,0.13741340444839323]",100.0,"[0.1089094165176675,0.08685359883849768]",100.0,"[0.16584811588699375,0.01769168281571453]",4.0,"[-0.09765788362471914,-0.11379231497147178]",4.0,"[0.13272736318808276,0.1483806187991477]",4.0,"[-0.08095186018586219,-0.17626525051172903]",100.0,"[0.029359195682633073,0.0315847188240024]",4.0,"[-0.16086901078129792,-0.057167360845029776]",4.0,"[-0.08888581878972397,0.09771448017038259]",4.0,"[0.01744697972822274,-0.029466672082611316]",100.0,"[-0.05746908578398947,0.17785435965770852]",4.0,"[-0.019408188363599164,0.049269486363999845]",4.0,"[0.04867733682109014,-0.10999216591865472]",4.0,"[-0.12274300242357185,-0.023200637597821087]",4.0,"[0.06807713527807607,-0.18798248894574313]",4.0,"[0.02,0.02]",265.8049,0.0,34.0,34.0,58.0,1.0,,,,,,,
,,,,,,,5ecfc4e722413102e68160ba,684391103ff03c54a4ebb646,2025-06-07_03h08.38.669,shape_ratio,2024.1.5,Win32,142.8571429,6842b561977af9ba9b0f87ca,,,,,,,,,,,265.805,266.3048,,,266.5548,267.4576,left,,,,,,,,0.4,0.897,,,,,,,266.3048,266.5548,267.4576,"[-0.1770074789785333,-0.021036055934759552]",4.0,"[-0.13330546405147192,-0.057897802234029475]",100.0,"[0.14426250971337878,-0.053411345249214884]",100.0,"[-0.10341195478621815,0.007505882355915566]",100.0,"[-0.09387985131480873,-0.0345223461557705]",4.0,"[-0.12046410615210834,-0.12359248535032219]",100.0,"[-0.09526444969986624,-0.07734568937602518]",4.0,"[0.046945931800049814,-0.043245030744537075]",4.0,"[0.16054549871523774,-0.09858021255135767]",4.0,"[-0.015669177906483547,0.09929384662729143]",4.0,"[0.08702297532687835,-0.013762322368825635]",4.0,"[0.013407977573503585,0.0006921684335664095]",100.0,"[-0.022793277309310814,-0.1435703389798782]",100.0,"[0.12720487279085826,0.012639597438486984]",100.0,"[0.02101805449965054,0.18425302442108882]",4.0,"[0.05230210785484788,0.11610415632816147]",100.0,"[-0.17477866291571112,0.08664965600449297]",4.0,"[-0.07303405045720358,0.17088780560110645]",4.0,"[-0.15163213962337482,-0.09465886483406766]",4.0,"[-0.05362567777412819,-0.02591523617387412]",4.0,"[-0.05887039587127103,-0.18079282837236282]",4.0,"[-0.07280720648103868,-0.11476440624560852]",4.0,"[0.04838972216218456,0.07360366067152363]",100.0,"[-0.021651158783559617,0.1730115605837731]",4.0,"[0.176274070909858,0.087796616227323]",4.0,"[-0.11826639001658255,0.05393499747804821]",4.0,"[0.10867096292453673,0.06945144512206891]",100.0,"[0.022471929772150286,-0.16268705022989252]",4.0,"[0.04514772866119868,-0.10170698030156694]",4.0,"[0.16609065956343158,0.0019509201696435463]",100.0,"[0.007287091104186961,-0.06548278931063652]",100.0,"[0.1309921956550803,-0.1400233860510898]",100.0,"[0.02,0.02]",268.5545,0.0,35.0,35.0,164.0,1.0,,,,,,,
,,,,,,,5ecfc4e722413102e68160ba,684391103ff03c54a4ebb646,2025-06-07_03h08.38.669,shape_ratio,2024.1.5,Win32,142.8571429,6842b561977af9ba9b0f87ca,,,,,,,,,,,268.5547,269.0545,,,269.3044,270.2418,left,,,,,,,,0.55,0.9314,,,,,,,269.0545,269.3044,270.2418,"[-0.14298307842822458,0.04424004657362701]",4.0,"[0.005146024135759357,0.1202320977459146]",100.0,"[-0.11612064215212808,0.010736129476216178]",100.0,"[-0.06865379871739097,0.04100807448892819]",100.0,"[0.06255164965161862,-0.039137918637366584]",4.0,"[0.07935823463211684,-0.07942520029496583]",4.0,"[-0.07869775638294998,-0.10304851621690912]",100.0,"[-0.04362571551782374,-0.07885787173652961]",4.0,"[0.1292705762353439,0.092865941928963]",4.0,"[-0.04282095602633787,-0.02999729829879124]",100.0,"[-0.1832196203597784,0.009564529747651616]",100.0,"[-0.06244760531738401,0.09649729559133727]",100.0,"[-0.167796153883018,-0.06212481094859941]",4.0,"[-0.15891088358738928,-0.11924198769527664]",100.0,"[0.035677789722187825,-0.00025104474346998226]",100.0,"[0.027841049031253222,-0.06819195268219452]",100.0,"[0.14378889965359135,-0.042750231785658524]",100.0,"[-0.02130864680117139,0.04986226771605937]",4.0,"[-0.010322747607446855,-0.13005340463783638]",100.0,"[-0.09282345895923962,-0.049201290394801]",4.0,"[0.11432943018007567,-0.14889761809163163]",100.0,"[0.05389937885809304,0.15517235899132978]",4.0,"[-0.01969791860527888,0.15776754835780377]",4.0,"[0.0411264970429018,-0.1493565627163001]",4.0,"[0.11333796885033894,0.1321558380367522]",100.0,"[-0.10757754536999743,0.09785718634968742]",100.0,"[-0.11449687488516982,-0.12433026557097708]",4.0,"[0.05793795559960609,0.08637999751471384]",100.0,"[-0.08375518214910396,-0.18009748123032557]",100.0,"[0.12899325847235624,0.025909681419498946]",100.0,"[-0.05245951709688653,-0.144037775081323]",4.0,"[0.13512494906251035,-0.10530059388883443]",4.0,"[0.02,0.02]",271.3387,0.0,36.0,36.0,76.0,1.0,,,,,,,
,,,,,,,5ecfc4e722413102e68160ba,684391103ff03c54a4ebb646,2025-06-07_03h08.38.669,shape_ratio,2024.1.5,Win32,142.8571429,6842b561977af9ba9b0f87ca,,,,,,,,,,,271.3389,271.8387,,,272.0888,272.5817,right,,,,,,,,0.6,0.491,,,,,,,271.8387,272.0888,272.5817,"[0.10111730943548312,0.04421453748030532]",100.0,"[-0.0909980750321741,-0.034535693526549484]",100.0,"[-0.029985064372202754,-0.08342206798232228]",100.0,"[-0.19137135840714925,0.0443266525055234]",4.0,"[-0.10024718939277286,-0.12170054217329113]",100.0,"[0.04610289011865763,0.014431246501743905]",100.0,"[0.03489193113931516,-0.17959496437468958]",100.0,"[0.10323139618940787,0.137685741583355]",4.0,"[-0.00919314882431153,-0.04121606919554588]",4.0,"[0.15089510762748842,-0.06260518791489929]",4.0,"[0.02437201378099649,0.139727583473034]",4.0,"[-0.010251044072012253,-0.19786022134811423]",100.0,"[-0.08747863467892385,0.14311615834970645]",100.0,"[-0.1437108038026691,-0.04302311377063223]",4.0,"[0.006862261564784233,0.031022694293924815]",100.0,"[0.0015599650729836627,0.08370698123782001]",100.0,"[0.13925864168491048,-0.12285097075798021]",4.0,"[0.18164790210244736,-0.01779160416727286]",100.0,"[0.07952925586931871,-0.1336067862670387]",100.0,"[-0.032908910113546117,0.14069384813847585]",100.0,"[-0.14657404849572991,0.03260564620269517]",4.0,"[-0.1681493734836826,0.09339696664061523]",100.0,"[-0.008462633381980725,-0.14709280536730193]",4.0,"[0.057977185790586555,-0.061576868722019715]",100.0,"[0.062003501026573565,0.082987776042008]",4.0,"[-0.0116108963150301,0.1820537751982702]",100.0,"[-0.09644870662880778,0.05771299696937277]",4.0,"[-0.08490027969985205,-0.07459952522959157]",4.0,"[-0.1410658294387452,0.129793862296261]",4.0,"[-0.11645929913974862,-0.16059304961042542]",100.0,"[0.08219012321384023,-0.0052231443959733885]",100.0,"[-0.046454510982064615,0.09138369808577347]",100.0,"[0.02,0.02]",273.6789,0.0,37.0,37.0,55.0,1.0,,,,,,,
,,,,,,,5ecfc4e722413102e68160ba,684391103ff03c54a4ebb646,2025-06-07_03h08.38.669,shape_ratio,2024.1.5,Win32,142.8571429,6842b561977af9ba9b0f87ca,,,,,,,,,,,273.679,274.1785,,,274.4287,274.9354,right,,,,,,,,0.9,0.5033,,,,,,,274.1785,274.4287,274.9354,"[0.09006904243591307,0.012399039177999366]",100.0,"[-0.13214661001572783,-0.0522410509814897]",100.0,"[-0.07069336486670084,0.1837737074536566]",100.0,"[-0.11921028330713268,0.0871630946240653]",100.0,"[-0.0647808282049124,0.027969901366873013]",100.0,"[0.09948907711255617,0.1306741879753162]",100.0,"[-0.07530613005862465,-0.1597279493806958]",100.0,"[-0.010188822955780349,-0.012754973400807456]",100.0,"[-0.05893477966188564,0.12688840539447685]",100.0,"[-0.15741292505924637,0.12139466805515466]",100.0,"[0.13825670233325307,-0.13924406124966496]",100.0,"[0.14378681726126083,-0.042262133529809884]",100.0,"[0.11612937181169028,-0.08486537781935896]",100.0,"[-0.04796955670475469,-0.03495028157851593]",4.0,"[-0.17031264557800613,0.008582870119373805]",4.0,"[0.15021741228074842,0.12891534813595493]",100.0,"[0.13465324522065078,0.05865276237983829]",100.0,"[-0.08868971218823993,-0.072381313096578]",100.0,"[-0.03888009560427187,-0.12877610167554546]",100.0,"[0.03253247006795079,0.1848443169440453]",100.0,"[-0.10066119619223092,-0.12485196374967916]",100.0,"[-0.02073245100327825,-0.19488864195550293]",100.0,"[0.05576014130512092,0.138352718763605]",100.0,"[-0.04388785804485639,-0.07769688247883728]",100.0,"[0.019579317203605975,-0.09083202952553181]",100.0,"[0.030703540153079745,-0.15734884062711546]",100.0,"[-0.045251608748233745,0.06608141769044502]",100.0,"[0.014138005734292303,0.07624940093883058]",4.0,"[-0.10185575303492243,0.046803729427496235]",100.0,"[0.06218644373235014,-0.1876143957757659]",100.0,"[0.04570356918805606,0.0212319419326205]",100.0,"[-0.00548466132613535,0.031179609579143525]",100.0,"[0.02,0.02]",276.0324,0.0,38.0,38.0,5.0,1.0,,,,,,,
,,,,,,,5ecfc4e722413102e68160ba,684391103ff03c54a4ebb646,2025-06-07_03h08.38.669,shape_ratio,2024.1.5,Win32,142.8571429,6842b561977af9ba9b0f87ca,,,,,,,,,,,276.0326,276.5323,,,276.7823,277.2545,right,,,,,,,,0.6,0.4695,,,,,,,276.5323,276.7823,277.2546,"[-0.07739396202506306,0.004301905456334175]",4.0,"[-0.0655579389297258,0.1365141473837844]",100.0,"[0.05381531081647062,-0.11433482741072717]",100.0,"[0.06848384469209616,0.0014312878733553816]",100.0,"[0.013390763589992855,-0.16557101127042786]",4.0,"[-0.16528243051254837,-0.020577080315857282]",4.0,"[0.0029451871312837132,0.08724480390929477]",4.0,"[0.010983046651511778,-0.04731692845894987]",100.0,"[-0.03789146161653322,-0.1141248623201496]",4.0,"[0.0991826451556,0.1261803303754437]",100.0,"[-0.16767614197478384,-0.09334635390173726]",4.0,"[-0.09084775998539851,0.07699272377653273]",4.0,"[0.17970992431948218,0.05153194621418246]",100.0,"[0.022834920789951113,0.012075909351480068]",100.0,"[-0.16342318593105823,0.09366070185490662]",100.0,"[-0.03794107000218043,0.08644184781992986]",100.0,"[0.08037273786440145,-0.17082329422418327]",4.0,"[-0.13428734076162538,0.04187262921605713]",4.0,"[-0.11034669454931192,-0.03991176645805652]",100.0,"[-0.19230991736848713,0.04618098159999828]",100.0,"[0.1007257255161536,-0.08197953746593624]",100.0,"[0.154502097391188,0.015494744461669355]",100.0,"[-0.03183498699076712,-0.06495501252120083]",100.0,"[-0.10910253890380169,-0.14748531715166677]",100.0,"[-0.14153801915559688,0.13086778722782963]",4.0,"[0.13316247122857328,-0.035395367163513804]",100.0,"[-0.0413646963268866,0.18067390232471398]",100.0,"[0.16368239695296385,-0.06627367502559842]",4.0,"[-0.06307378805332703,-0.15989379064735101]",4.0,"[0.19116207339621338,-0.008304288920778946]",100.0,"[0.04031095794103784,0.13922928882592273]",4.0,"[0.0904081528763588,0.07042230251658202]",100.0,"[0.02,0.02]",278.3515,0.0,39.0,39.0,37.0,1.0,,,,,,,
,,,,,,,5ecfc4e722413102e68160ba,684391103ff03c54a4ebb646,2025-06-07_03h08.38.669,shape_ratio,2024.1.5,Win32,142.8571429,6842b561977af9ba9b0f87ca,,,,,,,,,,,278.3517,278.8514,,,279.1015,279.6431,right,,,,,,,,0.6,0.5348,,,,,,,278.8514,279.1014,279.6431,"[0.026018970995633023,0.1623756742870439]",100.0,"[0.10509765630527532,-0.013618902830559599]",4.0,"[0.05489350065410634,0.016070255455566094]",100.0,"[0.1337817591230907,0.10271619005015165]",100.0,"[-0.03122512869772886,-0.1470220778748086]",100.0,"[0.07854610595874341,-0.16941884592861564]",100.0,"[0.07186322179243862,0.14743538425466146]",4.0,"[0.07655681451985412,-0.08213153342581603]",4.0,"[-0.16039269398887226,0.03893395715512149]",100.0,"[0.0879719385146344,0.09622423640867883]",100.0,"[-0.16048543983756205,-0.014326385407531568]",100.0,"[0.03908870628059681,-0.12604353735775406]",100.0,"[-0.06037973133253292,0.044168789088950354]",100.0,"[-0.11440424353701346,0.07784345422450076]",100.0,"[-0.10903350230632773,0.1543918410871504]",100.0,"[-0.15473099509756785,0.09833284306443914]",100.0,"[0.0024009418793558804,-0.05416158466250505]",100.0,"[-0.1668277394069489,-0.06056906568183768]",100.0,"[0.18406878580771155,0.0483637114899446]",4.0,"[-0.05714803380614541,-0.08092570331179635]",4.0,"[0.07382744243046827,0.054339355338156814]",4.0,"[-0.0838767281104514,-0.14425942367888916]",4.0,"[-0.0726488383533613,0.10329621906103716]",4.0,"[-0.05290935981260507,0.19101234434255876]",100.0,"[-0.015308408592296718,0.07336995269880624]",100.0,"[0.06534539047680153,-0.030430367554221748]",4.0,"[0.02120625020396607,0.09840006033830641]",4.0,"[-0.10434168845644178,-0.10925940016079401]",4.0,"[-0.02414631028175592,0.11301466518647357]",100.0,"[-0.05012768318225299,-0.01669231419406326]",4.0,"[0.036867681440102475,-0.19569861785302023]",4.0,"[0.1188070037122024,-0.09937352402665102]",100.0,"[0.02,0.02]",280.7401,0.0,40.0,40.0,39.0,1.0,,,,,,,
,,,,,,,5ecfc4e722413102e68160ba,684391103ff03c54a4ebb646,2025-06-07_03h08.38.669,shape_ratio,2024.1.5,Win32,142.8571429,6842b561977af9ba9b0f87ca,,,,,,,,,,,280.7402,281.2399,,,281.49,282.1357,right,,,,,,,,0.5,0.6419,,,,,,,281.24,281.49,282.1357,"[0.15707716391866117,-0.018509446572968793]",4.0,"[-0.1258245093343119,-0.08632003822446596]",100.0,"[0.005309916159804047,0.08493635637052517]",100.0,"[-0.10561211932631413,0.12271418464870845]",4.0,"[0.1225518596275914,-0.12387802862613206]",100.0,"[-0.05169669536925204,0.1546329242302061]",4.0,"[-0.18733386589468928,-0.039790112156463]",100.0,"[0.10555517748327568,0.12073804103070837]",100.0,"[-0.006380201249095207,-0.1580475562285401]",4.0,"[0.042974285777371876,-0.049029236533679785]",100.0,"[0.1657719557536163,-0.05793356669664581]",100.0,"[-0.0411649473587283,0.07387473976030116]",4.0,"[-0.1903784465064961,0.0027983944548290902]",4.0,"[-0.0729817138345941,-0.16138580837060584]",4.0,"[-0.14059975599797198,-0.12755843378176265]",100.0,"[0.11292951472139812,0.027532260947423864]",4.0,"[-0.08382360733437692,-0.1148119896883363]",100.0,"[0.08854783439119902,-0.0623900626766317]",4.0,"[0.1842937607518024,0.024088106264395327]",4.0,"[0.07190858786066455,0.08272971030642297]",4.0,"[0.008441751120631754,0.13330574647061788]",100.0,"[-0.008934043699149038,-0.11398541175918295]",4.0,"[-0.10810809981227641,0.050467565357021245]",4.0,"[-0.027938760176695818,-0.0219708820569787]",4.0,"[-0.09443089156929299,-0.01645715952678354]",100.0,"[0.12784537825108977,-0.07526381610276045]",4.0,"[0.06549085776079173,-0.13778843034184093]",100.0,"[0.03144121754295708,0.051009080913377365]",100.0,"[0.14737205467557352,0.08622096436734722]",4.0,"[-0.15480989826123032,0.0689906564879401]",100.0,"[-0.07762347309439813,-0.067429360545367]",100.0,"[0.03661806207298417,0.1648871681455627]",100.0,"[0.02,0.02]",283.2328,0.0,41.0,41.0,109.0,1.0,,,,,,,
,,,,,,,5ecfc4e722413102e68160ba,684391103ff03c54a4ebb646,2025-06-07_03h08.38.669,shape_ratio,2024.1.5,Win32,142.8571429,6842b561977af9ba9b0f87ca,,,,,,,,,,,283.2331,283.7326,,,283.9827,284.6838,right,,,,,,,,0.5,0.6935,,,,,,,283.7326,283.9826,284.6838,"[0.06595884937231106,0.012805589171557817]",4.0,"[-0.19211543102734815,0.04752344958417788]",100.0,"[0.030093805155485914,-0.06436909353976103]",4.0,"[0.1738029662174647,0.07648586423127056]",4.0,"[0.00905551283348094,0.19827229165862842]",100.0,"[-0.040407068630880935,-0.11974852699842867]",4.0,"[0.12060267710021606,-0.09859360992115089]",100.0,"[-0.05400106089697439,0.18157641586775053]",100.0,"[0.056995885653010024,0.16790471455798445]",4.0,"[0.05797760766519283,0.12664872954789747]",4.0,"[-0.036640226411465866,0.08570690611606227]",100.0,"[-0.1667046459858898,-0.043169496252414265]",4.0,"[0.1899044255852492,-0.0021734569539932852]",4.0,"[-0.019213258338286496,-0.01301594867455194]",100.0,"[-0.08615372778426637,-0.03645737787440021]",100.0,"[-0.02648214598302549,0.03235271516721186]",4.0,"[0.13885045300356996,0.05516255225770001]",100.0,"[-0.0993405035328149,0.10889382452197234]",100.0,"[-0.07648708625652444,0.012945530997973832]",4.0,"[0.06751651707724761,0.07230399222795392]",100.0,"[-0.15832873534473005,-0.09505083545098021]",100.0,"[-0.1654665429327394,0.010512877677971173]",4.0,"[-0.01757703187223023,0.12218906839035013]",4.0,"[0.09747191978799143,-0.015905403623941546]",4.0,"[-0.1402142824261223,0.12765662691037571]",100.0,"[0.10408339757561953,0.15976967898523844]",4.0,"[0.07240712200599789,-0.08401023893604781]",100.0,"[-0.1154222214979913,-0.09238811718855468]",4.0,"[0.18538309402425965,-0.07175230713505558]",4.0,"[0.11699417138837993,0.09117632946581418]",100.0,"[0.13444853680451083,-0.04757770705165241]",100.0,"[0.011984583208490187,0.013670698144364593]",100.0,"[0.02,0.02]",285.7808,0.0,42.0,42.0,105.0,1.0,,,,,,,
,,,,,,,5ecfc4e722413102e68160ba,684391103ff03c54a4ebb646,2025-06-07_03h08.38.669,shape_ratio,2024.1.5,Win32,142.8571429,6842b561977af9ba9b0f87ca,,,,,,,,,,,285.7809,286.2807,,,286.5309,287.2806,right,,,,,,,,0.5,0.745,,,,,,,286.2807,286.5307,287.2806,"[0.15134976186994392,0.009051571432423116]",4.0,"[-0.01659567382350553,0.16325108351454556]",100.0,"[-0.11160012786741023,-0.016172682356823113]",4.0,"[0.168890500985021,-0.05739290627456547]",4.0,"[0.08618013585624897,0.014807877640922092]",4.0,"[-0.16182616540097444,-0.0630699712709754]",100.0,"[-0.09363415446846873,0.14322127881782679]",4.0,"[0.09051988666441432,0.08194379755278124]",100.0,"[-0.05048632825404315,-0.08589854797232484]",4.0,"[0.0795544431081606,-0.1305278072796229]",100.0,"[-0.1015766090301922,0.03507633712101396]",100.0,"[0.06102651458094505,0.13996803077721692]",100.0,"[-0.03791509058660491,-0.03566012016855692]",4.0,"[-0.07520280180025639,-0.14230253068228776]",100.0,"[0.02164068275262959,-0.020666518029103534]",4.0,"[-0.036628408697158554,0.035947123521952284]",100.0,"[-0.01448883904154001,0.07918288645071184]",4.0,"[0.1318234763625229,-0.14907732098542267]",100.0,"[-0.055165822602652306,0.11993008512775832]",100.0,"[0.06850939856638973,-0.18009060651587597]",4.0,"[0.18415438350983393,0.03667516991763576]",4.0,"[-0.13021956548038177,-0.13434893387800992]",4.0,"[-0.09891888938128542,-0.061219686468685836]",4.0,"[0.18523993043986303,-0.015571963351718]",4.0,"[-0.19350090753255703,0.020176502511553243]",100.0,"[0.11552114787097399,-0.01343298728429297]",4.0,"[0.011550026547356592,0.028233987607588072]",100.0,"[0.026671911334967578,-0.1378873503655443]",100.0,"[0.16559604705470637,0.10981969331045324]",100.0,"[-0.15889566323291587,0.07404143075050393]",100.0,"[-0.17535344396170677,-0.017139928607934504]",100.0,"[0.05760931144472637,-0.0748717279400652]",4.0,"[0.02,0.02]",288.3776,0.0,43.0,43.0,114.0,1.0,,,,,,,
,,,,,,,5ecfc4e722413102e68160ba,684391103ff03c54a4ebb646,2025-06-07_03h08.38.669,shape_ratio,2024.1.5,Win32,142.8571429,6842b561977af9ba9b0f87ca,,,,,,,,,,,288.3777,288.8776,,,289.1277,289.69,right,,,,,,,,0.6,0.556,,,,,,,288.8777,289.1277,289.69,"[-0.15077181429807057,-0.037483559516287096]",4.0,"[-0.10358686998730833,-0.13109009000018312]",100.0,"[0.1598894146354562,0.02079737230463262]",100.0,"[0.03492594647301598,0.14833516751237982]",4.0,"[-0.03236387182957009,-0.18159630081689654]",100.0,"[0.07725743823734224,0.04155510012677986]",100.0,"[-0.10324347434539491,0.09548559147149528]",100.0,"[0.0010647801114528708,0.17819419638534098]",4.0,"[-0.0653155201063133,-0.06743364479040638]",4.0,"[0.16861762477181777,-0.019190196946517774]",100.0,"[-0.1475983610092064,0.04372123213116116]",100.0,"[0.09010544893514047,-0.020288754932198064]",4.0,"[0.07232490976249341,-0.07589150004393248]",100.0,"[-0.17473026152444615,0.08074684121748249]",100.0,"[0.17335231673616633,-0.09099059433105289]",4.0,"[0.13143429853343785,-0.07938948417091238]",100.0,"[-0.001347980324744962,-0.053791060864745666]",4.0,"[-0.09771820130938422,-0.03207306586349607]",100.0,"[0.08928832173669798,-0.17301916389999972]",100.0,"[-0.015137641335960909,-0.005076372890520354]",100.0,"[0.12615999858235624,0.14295200862929136]",4.0,"[-0.0658857526979257,-0.11196979881032877]",4.0,"[0.04332650385272114,-0.16581956579725265]",100.0,"[-0.12487748400478013,-0.08164430573206513]",100.0,"[-0.16587911039955844,0.0014035391715063762]",100.0,"[-0.05366954966399084,0.1440451261665479]",4.0,"[0.012007837530881265,-0.09489703138010024]",4.0,"[0.13042045467276192,-0.1315540877558103]",100.0,"[0.04946554051137618,-0.11213109057853458]",100.0,"[0.1683780436678888,0.06854119960555136]",4.0,"[0.00831810912357538,0.10951309489129823]",100.0,"[-0.11265959406098247,0.16355153883876974]",4.0,"[0.02,0.02]",290.787,0.0,44.0,44.0,50.0,1.0,,,,,,,
,,,,,,,5ecfc4e722413102e68160ba,684391103ff03c54a4ebb646,2025-06-07_03h08.38.669,shape_ratio,2024.1.5,Win32,142.8571429,6842b561977af9ba9b0f87ca,,,,,,,,,,,290.7872,291.2869,,,291.5369,292.3146,left,,,,,,,,0.45,0.771,,,,,,,291.287,291.5369,292.3146,"[0.06557835571635383,-0.027954432929740845]",100.0,"[-0.009559919240969347,-0.159328650209484]",4.0,"[0.1290069424208962,-0.11264967735169516]",100.0,"[-0.17600827084269835,0.0028563582248553186]",100.0,"[-0.003919648700925864,0.18907798989434832]",4.0,"[-0.1405904642345887,0.06506507368969545]",100.0,"[0.04797656876645727,0.10485560873271747]",100.0,"[-0.06598015132316246,0.11965260080312222]",4.0,"[-0.007429054337462446,-0.10102211770461934]",4.0,"[-0.07183116624636941,-0.17060741389560324]",4.0,"[0.1779583420434494,0.035726976451073256]",100.0,"[-0.032846257870773034,0.047726937202688495]",4.0,"[0.01956616000885146,-0.04117821535846902]",4.0,"[-0.05005953497522507,-0.12345518280068224]",4.0,"[0.14814187315830105,0.13225732719841962]",100.0,"[0.09114948268959502,-0.1757237533845546]",100.0,"[0.11379162701500962,-0.017388117059494838]",100.0,"[0.1350144017353625,-0.05697282313166306]",4.0,"[0.1648806121420271,-0.0898908296852124]",100.0,"[-0.11393257453237354,-0.1546144020833145]",4.0,"[0.10384939023589504,0.09888651670840208]",4.0,"[0.07523392646804321,0.04824018446132533]",4.0,"[-0.09056027002315843,-0.08137148197131112]",4.0,"[-0.05513792749878059,-0.05584061572616084]",4.0,"[0.11123966457877779,0.15902803887770012]",4.0,"[0.03834520396303503,-0.17435852223637355]",100.0,"[0.19797346283081063,-0.00687399098255497]",100.0,"[0.047988307612121146,-0.09751882065167972]",100.0,"[0.03955764604223929,0.15601282382338386]",4.0,"[0.13151290437406998,0.029368600882193115]",100.0,"[0.08651240803898999,-0.0702967904364313]",4.0,"[-0.1824842076837472,-0.058761566291328456]",4.0,"[0.02,0.02]",293.4116,0.0,45.0,45.0,123.0,1.0,,,,,,,
,,,,,,,5ecfc4e722413102e68160ba,684391103ff03c54a4ebb646,2025-06-07_03h08.38.669,shape_ratio,2024.1.5,Win32,142.8571429,6842b561977af9ba9b0f87ca,,,,,,,,,,,293.4117,293.9115,,,294.1615,294.7379,right,,,,,,,,0.5,0.5703,,,,,,,293.9115,294.1615,294.7379,"[0.010037613274851353,-0.021364443073784985]",100.0,"[-0.1257425573090606,-0.054716816962265644]",100.0,"[-0.0735316136179041,-0.03305530760772747]",4.0,"[0.06737458571303474,0.17188542947532445]",100.0,"[0.1876004629749873,0.0367215044954207]",4.0,"[0.08752756767042986,-0.06406766355230431]",4.0,"[-0.030409516827530302,-0.02880139830220645]",100.0,"[-0.09962968894627852,0.033323742927717614]",4.0,"[0.12055046168493513,-0.10845355398147774]",100.0,"[-0.06074527076610544,0.1688356106419117]",4.0,"[0.03266816130735924,-0.11395613954488301]",4.0,"[0.07271161571563536,0.03090106331758104]",4.0,"[0.17474741193751978,-0.015229557124799294]",100.0,"[0.13262049468473888,0.008370948687724103]",4.0,"[0.011237786475911862,-0.19089082244074082]",100.0,"[-0.13522661796373892,0.0712545614022419]",4.0,"[-0.1779591255284654,0.009718657346902897]",4.0,"[0.06744234080255292,0.1061615425604531]",100.0,"[-0.06949159216223648,-0.14261028097387698]",4.0,"[0.11326844398494723,0.11446112568255207]",100.0,"[-0.168816637622179,-0.08642059564710071]",4.0,"[-0.032689330053972454,-0.16665516335700545]",4.0,"[0.010445551064112178,0.11479534585281936]",100.0,"[-0.06096613457688255,0.058038956185021834]",100.0,"[-0.104167815579117,0.15825735276756325]",4.0,"[-0.012688803390399312,0.14794165901490383]",100.0,"[0.04449960494621579,-0.15987823101340642]",100.0,"[-0.032206617194861224,-0.08140271473481177]",100.0,"[-0.14704818004914116,-0.12234762591755385]",4.0,"[0.0681038945876376,-0.026323366358024465]",100.0,"[-0.0001298239121751338,0.03045632443112713]",100.0,"[0.1764540697144568,-0.0817246788187539]",4.0,"[0.02,0.02]",295.8349,0.0,46.0,46.0,101.0,1.0,,,,,,,
,,,,,,,5ecfc4e722413102e68160ba,684391103ff03c54a4ebb646,2025-06-07_03h08.38.669,shape_ratio,2024.1.5,Win32,142.8571429,6842b561977af9ba9b0f87ca,,,,,,,,,,,295.8351,296.3348,,,296.5849,297.3,left,,,,,,,,0.45,0.7075,,,,,,,296.3348,296.5849,297.3,"[-0.10114775885584626,-0.08954998197461095]",4.0,"[-0.09891457936404757,0.11808018277440986]",4.0,"[0.11863126072121767,0.129028057747797]",4.0,"[0.02104795025546666,0.030332186485953264]",100.0,"[-0.051677233423605785,0.12606135501154184]",4.0,"[0.07543895940253785,-0.12327862637681841]",4.0,"[-0.02405208511027644,0.06165134948317596]",4.0,"[-0.0751103622772514,-0.12842236168230892]",100.0,"[-0.07125957414469634,-0.01756847647202553]",100.0,"[0.02369992498187567,0.18530722177346262]",100.0,"[0.12692727062288217,-0.13134815672613906]",4.0,"[0.1014086766076762,0.06648562006067003]",100.0,"[-0.19588530874151103,-0.026663500671427014]",4.0,"[0.0012560709062784004,-0.06309869241610933]",100.0,"[0.14899108278805404,-0.05158505387592331]",100.0,"[-0.07181630801598243,0.1831998356237992]",100.0,"[-0.06471875733579714,-0.17605521309863945]",4.0,"[0.06575223330620777,0.14298479504500575]",4.0,"[-0.14286550359915026,0.08495742796183296]",4.0,"[0.1670786046175789,0.08845451390973073]",100.0,"[0.19335544806785074,0.0290724221643042]",4.0,"[-0.1918161845138645,0.032240027333374624]",4.0,"[0.004415465298392191,0.13073072295012952]",4.0,"[0.051548985350278194,0.10259411351752393]",100.0,"[-0.10100669358759447,0.03205579777140878]",100.0,"[0.09588738542206071,-0.1608413669256415]",100.0,"[0.017572362375473972,-0.12878791448302537]",4.0,"[0.07810108602403952,-0.06902550775323102]",100.0,"[-0.14299187089380858,0.13141733621035223]",4.0,"[0.16332549525215073,-0.01163052746874249]",4.0,"[0.0018469075297859383,-0.178246793413299]",100.0,"[-0.05383172301728567,-0.07197939353810348]",4.0,"[0.02,0.02]",298.3969,0.0,47.0,47.0,128.0,1.0,,,,,,,
,,,,,,,5ecfc4e722413102e68160ba,684391103ff03c54a4ebb646,2025-06-07_03h08.38.669,shape_ratio,2024.1.5,Win32,142.8571429,6842b561977af9ba9b0f87ca,,,,,,,,,,,298.3971,298.897,,,299.1469,300.4801,right,,,,,,,,0.55,1.329,,,,,,,298.897,299.1469,300.4801,"[0.07705582453036097,0.09531968345842377]",4.0,"[-0.18147461341542617,0.016229659390434827]",100.0,"[-0.15456049177392128,0.06467963348685148]",100.0,"[-0.058724238591385196,-0.004735739947340557]",4.0,"[0.022399395058339457,0.12182494775307694]",100.0,"[0.12278595589156784,0.11644160780502302]",100.0,"[-0.08551397348938063,0.1721104009772636]",100.0,"[-0.14865156514607322,0.11761638684790002]",100.0,"[0.10877660006942952,-0.0677912893942147]",4.0,"[-0.05561099964295799,-0.044730653222854466]",4.0,"[-0.03054638795126153,-0.1826254246035316]",4.0,"[0.15384734602870945,-0.04722093610913814]",4.0,"[0.1461151824185457,0.0741612788658322]",100.0,"[-0.12296050031129446,-0.03567475251030633]",4.0,"[0.04271851400160566,0.19416262888931213]",100.0,"[0.04090451464523237,-0.08864889210061123]",100.0,"[-0.111062419915794,0.05419339799493821]",100.0,"[-0.10894285279148007,0.12965066842990106]",4.0,"[0.0015803132629577418,0.059509937109193084]",100.0,"[0.14288847611521538,0.012718920323346736]",100.0,"[-0.03157165071086673,0.13496564256193744]",100.0,"[-0.16254926372435133,-0.08388498330132532]",4.0,"[0.17408533728916853,0.04252905666586607]",100.0,"[-0.04247923300412834,0.17953504450416422]",100.0,"[0.14078846984895343,-0.141064518896489]",4.0,"[0.00048526060241422495,-0.043036932164115686]",100.0,"[0.05364453181599687,-0.15599314598236147]",4.0,"[0.04733667821600884,-0.011223050522367528]",4.0,"[-0.06099715549433508,0.04339447210909869]",4.0,"[0.04526156185397219,0.061127076605360715]",100.0,"[-0.022583923529822098,-0.07929537629643842]",100.0,"[0.11573622023783013,-0.017270595997891314]",4.0,"[0.02,0.02]",301.5769,0.0,48.0,48.0,88.0,1.0,,,,,,,
,,,,,,,5ecfc4e722413102e68160ba,684391103ff03c54a4ebb646,2025-06-07_03h08.38.669,shape_ratio,2024.1.5,Win32,142.8571429,6842b561977af9ba9b0f87ca,,,,,,,,,,,301.5771,302.0769,,,302.327,302.9448,right,,,,,,,,0.4,0.6128,,,,,,,302.0769,302.327,302.9448,"[0.04559147539192064,0.015967065526284657]",100.0,"[-0.10288959039967568,0.010587263182005329]",4.0,"[0.1209023413060721,-0.041565807545514755]",4.0,"[0.015768447946947747,0.07709208920691374]",4.0,"[0.09574564538265705,0.06546400736836208]",4.0,"[0.07569263052881271,-0.04514432114094745]",100.0,"[-0.07370115541798662,-0.09689286221433546]",4.0,"[-0.12783816765968106,0.12525104482336383]",100.0,"[-0.020541874008282834,-0.17005650401010744]",4.0,"[0.0494370483225588,-0.1433740105203266]",4.0,"[0.0579105281106287,-0.10186752301698111]",100.0,"[0.09536544164708739,0.13322263561237518]",4.0,"[-0.1596098498760093,0.01409112815954863]",4.0,"[-0.008757252081233173,-0.05586073448006361]",4.0,"[0.04377635411901138,0.1756686858313416]",4.0,"[0.013445818716923208,0.13431079405643118]",4.0,"[-0.08682609733036382,0.05032709426019189]",4.0,"[0.15697468709498416,0.05474850864971757]",4.0,"[-0.06838431726854918,-0.03556328289886808]",4.0,"[0.10923753155601802,-0.09642880035319823]",4.0,"[-0.010302449288170146,-0.12383491466150384]",100.0,"[-0.0475670498163707,0.1439059466352893]",100.0,"[-0.007972368288175172,0.1832009665439698]",4.0,"[0.12703265313847625,-0.13334758820696346]",100.0,"[-0.03892402940338741,0.05412567342864974]",100.0,"[-0.166452141332857,-0.09656865465369267]",4.0,"[-0.15155057086075213,-0.037756226692163955]",100.0,"[0.11292775047820185,0.025787700926918632]",100.0,"[0.18311270930374152,0.023706849948190858]",100.0,"[-0.06375562414716944,-0.17966547526174978]",4.0,"[-0.11607573628862046,-0.13113562222426517]",100.0,"[-0.011714538048877276,0.0076507929977864386]",100.0,"[0.02,0.02]",304.0418,0.0,49.0,49.0,165.0,1.0,,,,,,,
