right,left,explain.started,explain.stopped,key_resp_3.keys,key_resp_3.rt,key_resp_3.duration,participant,session,date,expName,psychopyVersion,OS,frameRate,study_id,explain_2.started,explain_2.stopped,key_resp_4.keys,key_resp_4.rt,key_resp_4.duration,explain_3.started,explain_3.stopped,key_resp_5.keys,key_resp_5.rt,key_resp_5.duration,fixation.started,fixation.stopped,practice.started,practice.stopped,response.started,response.stopped,key_resp.keys,key_resp.rt,key_resp.duration,feedback.started,feedback.stopped,trials_2.thisRepN,trials_2.thisTrialN,trials_2.thisN,trials_2.thisIndex,trials_2.ran,dot_ratio,explain_4.started,explain_4.stopped,key_resp_6.keys,key_resp_6.rt,key_resp_6.duration,dotDisplay.started,dotDisplay.stopped,ITI.started,polygon_1.pos,polygon_1.edges,polygon_2.pos,polygon_2.edges,polygon_3.pos,polygon_3.edges,polygon_4.pos,polygon_4.edges,polygon_5.pos,polygon_5.edges,polygon_6.pos,polygon_6.edges,polygon_7.pos,polygon_7.edges,polygon_8.pos,polygon_8.edges,polygon_9.pos,polygon_9.edges,polygon_10.pos,polygon_10.edges,polygon_11.pos,polygon_11.edges,polygon_12.pos,polygon_12.edges,polygon_13.pos,polygon_13.edges,polygon_14.pos,polygon_14.edges,polygon_15.pos,polygon_15.edges,polygon_16.pos,polygon_16.edges,polygon_17.pos,polygon_17.edges,polygon_18.pos,polygon_18.edges,polygon_19.pos,polygon_19.edges,polygon_20.pos,polygon_20.edges,polygon_21.pos,polygon_21.edges,polygon_22.pos,polygon_22.edges,polygon_23.pos,polygon_23.edges,polygon_24.pos,polygon_24.edges,polygon_25.pos,polygon_25.edges,polygon_26.pos,polygon_26.edges,polygon_27.pos,polygon_27.edges,polygon_28.pos,polygon_28.edges,polygon_29.pos,polygon_29.edges,polygon_30.pos,polygon_30.edges,polygon_31.pos,polygon_31.edges,polygon_32.pos,polygon_32.edges,dot_size,ITI.stopped,trials.thisRepN,trials.thisTrialN,trials.thisN,trials.thisIndex,trials.ran,break_2.started,break_2.stopped,trials_3.thisRepN,trials_3.thisTrialN,trials_3.thisN,trials_3.thisIndex,trials_3.ran
subject chose dot,subject chose diamond,0.0,19.447,space,4.416,,672adb2909ca72744f212a7d,684395e6ae8bb79da192d28c,2025-06-06_18h29.32.372,shape_ratio,2024.1.5,MacIntel,59.95203837,6842b561977af9ba9b0f87ca,,,,,,,,,,,,,,,,,,,,,,,,,,,,,,,,,,,,,,,,,,,,,,,,,,,,,,,,,,,,,,,,,,,,,,,,,,,,,,,,,,,,,,,,,,,,,,,,,,,,,,,,,,,,,,,,,
,,,,,,,672adb2909ca72744f212a7d,684395e6ae8bb79da192d28c,2025-06-06_18h29.32.372,shape_ratio,2024.1.5,MacIntel,59.95203837,6842b561977af9ba9b0f87ca,19.447,50.597,space,1.134,,,,,,,,,,,,,,,,,,,,,,,,,,,,,,,,,,,,,,,,,,,,,,,,,,,,,,,,,,,,,,,,,,,,,,,,,,,,,,,,,,,,,,,,,,,,,,,,,,,,,,,,,,,,,
,,,,,,,672adb2909ca72744f212a7d,684395e6ae8bb79da192d28c,2025-06-06_18h29.32.372,shape_ratio,2024.1.5,MacIntel,59.95203837,6842b561977af9ba9b0f87ca,,,,,,50.597,54.948,space,1.345,,,,,,,,,,,,,,,,,,,,,,,,,,,,,,,,,,,,,,,,,,,,,,,,,,,,,,,,,,,,,,,,,,,,,,,,,,,,,,,,,,,,,,,,,,,,,,,,,,,,,,,,
,,,,,,,672adb2909ca72744f212a7d,684395e6ae8bb79da192d28c,2025-06-06_18h29.32.372,shape_ratio,2024.1.5,MacIntel,59.95203837,6842b561977af9ba9b0f87ca,,,,,,,,,,,54.961,55.464,55.464,55.715,55.715,57.014,right,1.263,,57.014,58.114,0.0,0.0,0.0,0.0,1.0,0.2,,,,,,,,,,,,,,,,,,,,,,,,,,,,,,,,,,,,,,,,,,,,,,,,,,,,,,,,,,,,,,,,,,,,,,,,,,,,,,,,,,,,,,
,,,,,,,672adb2909ca72744f212a7d,684395e6ae8bb79da192d28c,2025-06-06_18h29.32.372,shape_ratio,2024.1.5,MacIntel,59.95203837,6842b561977af9ba9b0f87ca,,,,,,,,,,,58.115,58.614,58.615,58.866,58.866,59.697,right,0.825,,59.697,60.797,0.0,1.0,1.0,1.0,1.0,0.8,,,,,,,,,,,,,,,,,,,,,,,,,,,,,,,,,,,,,,,,,,,,,,,,,,,,,,,,,,,,,,,,,,,,,,,,,,,,,,,,,,,,,,
,,,,,,,672adb2909ca72744f212a7d,684395e6ae8bb79da192d28c,2025-06-06_18h29.32.372,shape_ratio,2024.1.5,MacIntel,59.95203837,6842b561977af9ba9b0f87ca,,,,,,,,,,,,,,,,,,,,,,,,,,,,60.798,65.264,space,1.442,,,,,,,,,,,,,,,,,,,,,,,,,,,,,,,,,,,,,,,,,,,,,,,,,,,,,,,,,,,,,,,,,,,,,,,,,,,,,,,,,,
,,,,,,,672adb2909ca72744f212a7d,684395e6ae8bb79da192d28c,2025-06-06_18h29.32.372,shape_ratio,2024.1.5,MacIntel,59.95203837,6842b561977af9ba9b0f87ca,,,,,,,,,,,65.274,65.764,,,66.014,67.364,right,1.339,,,,,,,,,0.6,,,,,,65.764,66.014,67.365,"[0.03186618877923823,-0.008193814998517191]",4.0,"[0.14488351329752702,-0.10574903398378888]",100.0,"[0.13148219351480056,-0.021980514024099593]",4.0,"[-0.11038750992840489,-0.09922024127521896]",100.0,"[0.16375376422892665,0.006947730106238735]",4.0,"[0.06541620654582639,0.04456355884921238]",4.0,"[0.00899835692419822,0.044274852672754945]",100.0,"[0.1269860946726808,-0.06542760155726389]",4.0,"[0.03721188112656875,0.16686705196740603]",4.0,"[-0.03429468052246236,-0.047308195859413205]",100.0,"[0.015514132367794748,-0.12778530024015233]",100.0,"[-0.11109287881336692,0.032083682988561825]",100.0,"[-0.0569304446293482,0.05950947881192287]",100.0,"[0.057861102224768104,-0.10144850053659378]",4.0,"[0.02884552160690325,-0.1887120644745907]",100.0,"[0.06616603691373057,-0.14636823827186968]",100.0,"[-0.06585709589286079,-0.10939149778342336]",100.0,"[0.09159708721264845,0.16729147944070244]",100.0,"[0.13052960618824522,0.14354085533482366]",100.0,"[0.034514985960963744,0.0954021049159769]",4.0,"[0.07548951860375068,-0.03181979464920412]",4.0,"[0.1596289555458846,0.09055046499788416]",100.0,"[-0.01825825979019985,0.15287741965777843]",100.0,"[0.08460426902092255,0.12553017758187354]",4.0,"[0.020217348724108877,-0.04809772234420299]",100.0,"[-0.10934083190878556,0.1581830988326294]",4.0,"[-0.08135407673461427,-0.17196717065507067]",100.0,"[-0.09659031327057915,0.07692594377404334]",100.0,"[-0.1540890405970019,-0.04337970516550744]",4.0,"[0.11797072011625506,0.04154464145633617]",4.0,"[0.19366785624244404,-0.048159476728196905]",100.0,"[-0.05895284738651947,-0.002686360764187219]",100.0,"[0.02,0.02]",68.465,0.0,0.0,0.0,37.0,1.0,,,,,,,
,,,,,,,672adb2909ca72744f212a7d,684395e6ae8bb79da192d28c,2025-06-06_18h29.32.372,shape_ratio,2024.1.5,MacIntel,59.95203837,6842b561977af9ba9b0f87ca,,,,,,,,,,,68.468,68.964,,,69.215,70.632,left,1.398,,,,,,,,,0.1,,,,,,68.965,69.215,70.632,"[-0.1182193208420061,-0.016466965646363647]",4.0,"[-0.09919254940586862,0.022403979177614417]",4.0,"[-0.0981793954526285,0.07596487601103918]",4.0,"[-0.11939050487153634,0.1427264596802302]",4.0,"[0.054182216033399726,-0.015119272784791696]",100.0,"[0.179224514147403,0.08000374454516933]",4.0,"[0.11241000487614078,-0.12047075792863453]",4.0,"[0.012517551770677706,-0.18595353623554092]",4.0,"[-0.028297036048092878,-0.1596772885209871]",4.0,"[0.02741239723873565,0.1575203034560288]",4.0,"[0.0828006069728592,-0.16562191043001265]",4.0,"[-0.12494662308835576,-0.12167433218226129]",4.0,"[-0.04097098647701368,0.028472041239176484]",4.0,"[-0.19716954022823355,0.00978078213958852]",4.0,"[0.07765058317337425,0.10714108734398521]",4.0,"[-0.06804407993832011,-0.13123950911488524]",4.0,"[0.13925648561351445,-0.012930959914551027]",4.0,"[0.16245287176547404,-0.11278974396283818]",4.0,"[0.01799704338471147,-0.0729091403304039]",4.0,"[0.05907119830827499,-0.11458372676947237]",4.0,"[-0.15503039264504867,0.09686061864992634]",4.0,"[0.0915860511188913,-0.056393291263176624]",4.0,"[-0.0974514698710537,-0.07125467041000175]",4.0,"[-0.04290939887224806,-0.031878838991598504]",4.0,"[-0.15810651796949568,-0.04304771860022454]",4.0,"[0.06730128039607997,0.055474232029763794]",4.0,"[-0.0018251331038105364,-0.0015036580523024076]",100.0,"[-0.027872175528249648,-0.0915109014592738]",4.0,"[0.15301929241642967,0.025506516362302483]",4.0,"[0.13102428325856233,0.116645857661781]",4.0,"[0.03542600966390555,-0.15303700413428437]",100.0,"[0.031191062115509656,0.025187591506626424]",4.0,"[0.02,0.02]",71.73,0.0,1.0,1.0,180.0,1.0,,,,,,,
,,,,,,,672adb2909ca72744f212a7d,684395e6ae8bb79da192d28c,2025-06-06_18h29.32.372,shape_ratio,2024.1.5,MacIntel,59.95203837,6842b561977af9ba9b0f87ca,,,,,,,,,,,71.731,72.23,,,72.482,72.98,right,0.486,,,,,,,,,0.9,,,,,,72.23,72.482,72.98,"[0.033261727751717034,-0.051356159795472825]",100.0,"[0.12939399521568756,0.06656525732862653]",100.0,"[0.12901692171699441,-0.07065199545025103]",100.0,"[0.07264502229612035,-0.18119651467346773]",100.0,"[-0.14724201013259386,0.026774518763930583]",100.0,"[-0.05374214605774479,-0.18781041212001698]",100.0,"[-0.1249075011791775,-0.0756645206598968]",100.0,"[0.18506573161566284,-0.002686599877670331]",100.0,"[-0.02758248717032269,0.12525868528759243]",100.0,"[-0.0992970999455054,0.06760416234342852]",100.0,"[0.017504861081721567,0.03784690094598377]",100.0,"[-0.16208314449230463,0.10900744260553748]",100.0,"[0.03179967466612099,-0.13802442758038347]",100.0,"[0.08220056899911439,0.0005540554027464729]",100.0,"[-0.16850206562417042,-0.05195747160827405]",100.0,"[-0.11898215832629352,-0.12513915637642326]",4.0,"[-0.025457704087469613,0.18784216806280576]",100.0,"[-0.09137348546732249,0.018988295771651557]",100.0,"[-0.015661126970704146,-0.09694089641392664]",100.0,"[0.029564690923941504,0.17823405494041467]",100.0,"[0.1420426734745467,0.002384576152089578]",100.0,"[0.07450532412630362,0.14559031219590834]",100.0,"[-0.04978151889523681,-0.13934110285863527]",100.0,"[0.15218307810302825,0.10375870466002664]",100.0,"[-0.11383988015352146,0.13829707233510177]",100.0,"[0.021816901388666293,-0.1835173144445826]",100.0,"[-0.030760913542550224,0.0722311769019405]",100.0,"[-0.19950970910047802,-0.013205685477391085]",100.0,"[0.07518934375870567,-0.1356862755991598]",4.0,"[-0.056451248637168994,0.15832726043670603]",100.0,"[0.181813404308319,-0.06797475608091205]",4.0,"[-0.05619537720523207,-0.034505846313099574]",100.0,"[0.02,0.02]",74.08,0.0,2.0,2.0,10.0,1.0,,,,,,,
,,,,,,,672adb2909ca72744f212a7d,684395e6ae8bb79da192d28c,2025-06-06_18h29.32.372,shape_ratio,2024.1.5,MacIntel,59.95203837,6842b561977af9ba9b0f87ca,,,,,,,,,,,74.08,74.581,,,74.831,75.847,right,1.0,,,,,,,,,0.5,,,,,,74.581,74.831,75.847,"[-0.03211893527373887,-0.14392563413914036]",4.0,"[-0.17765855282205778,-0.034836150944895505]",4.0,"[0.004772872743450181,0.02584538815852586]",4.0,"[0.09389367903223475,0.15802273327944374]",100.0,"[-0.07012169451431166,0.11101010991079328]",100.0,"[-0.04733220894232698,0.19321603748770816]",4.0,"[-0.01998552001179721,0.05841193697370431]",100.0,"[-0.12448212151044827,0.08181212330441978]",4.0,"[0.11797830351377761,0.06658362250022488]",100.0,"[0.023762034208831946,-0.028302016191515015]",4.0,"[0.18162404859824263,0.06789633631032486]",100.0,"[0.14727306238637577,0.10617968324444994]",100.0,"[-0.09648433789490174,-0.025369413773978163]",100.0,"[0.14948481058077934,-0.010893580349885095]",4.0,"[0.09500341229464579,-0.16295257384491588]",100.0,"[-0.03607133811556255,-0.03985119390636424]",4.0,"[-0.19773997337450372,0.028231697263427412]",100.0,"[-0.07762148519891796,0.0321506280994287]",4.0,"[0.021761822641792484,-0.09017269588258231]",100.0,"[-0.15916360850905134,0.10417313547701998]",100.0,"[0.020154931136321164,0.1810939433077552]",4.0,"[0.06758708972040676,0.006242170130471994]",4.0,"[-0.03212030870758336,-0.09292933999297733]",100.0,"[0.11820372086085648,-0.055664183936784836]",100.0,"[0.034733673447467285,0.08529242740554738]",100.0,"[-0.03418122201944023,0.012308310193848211]",4.0,"[-0.12382720856574407,0.014560087150729085]",4.0,"[0.18591657349319032,0.024391294579281925]",4.0,"[-0.16072155683223893,0.050536440474493835]",4.0,"[-0.09331394427767295,-0.14190614231766663]",100.0,"[0.12397592000869509,0.02547365663578725]",4.0,"[-0.08430135878424923,0.17791452700152807]",100.0,"[0.02,0.02]",76.947,0.0,3.0,3.0,96.0,1.0,,,,,,,
,,,,,,,672adb2909ca72744f212a7d,684395e6ae8bb79da192d28c,2025-06-06_18h29.32.372,shape_ratio,2024.1.5,MacIntel,59.95203837,6842b561977af9ba9b0f87ca,,,,,,,,,,,76.949,77.447,,,77.697,78.529,left,0.82,,,,,,,,,0.5,,,,,,77.447,77.697,78.53,"[-0.08026862656441747,-0.062056498325237415]",4.0,"[0.11200515768805638,-0.16564387221008336]",4.0,"[0.07142830629150049,-0.06469225069500291]",100.0,"[-0.07876048346449543,-0.14052602624621277]",4.0,"[0.10730409969785741,-0.10968841389521673]",4.0,"[-0.06493255717850578,0.09313054726673009]",4.0,"[0.13054405086337822,0.12839709873786662]",100.0,"[0.09302424440146216,0.003059168149867796]",100.0,"[0.12728333905308034,0.08321984420845506]",4.0,"[-0.058278157522621,0.0413515550663937]",4.0,"[0.09700048259204615,0.16388437571046535]",4.0,"[0.017778313692362473,0.075763007721735]",100.0,"[0.0458736643440695,-0.15624756811413956]",100.0,"[-0.1098565108289415,0.014193264508906123]",4.0,"[0.06513424147070777,0.04102251634738694]",100.0,"[0.1785910725996972,-0.0002645895668005086]",4.0,"[-0.11936015674289827,0.1273418495641366]",100.0,"[-0.1767644585877151,0.092379586885423]",4.0,"[-0.1699877281244893,-0.014800124197046726]",100.0,"[0.04586905051378328,-0.10367222770925205]",4.0,"[0.05262518676977719,-0.028748107575848874]",4.0,"[-0.044441867332504895,0.16161996178796206]",100.0,"[-0.14120143952981126,-0.04373148027297335]",4.0,"[-0.0240477196601159,-0.04966800583700063]",100.0,"[0.06793864888917955,0.12539971672152922]",100.0,"[-0.13036198292719076,-0.1468837314484795]",100.0,"[-0.08428270972824144,-0.02066678023692546]",100.0,"[-0.12646649702358043,-0.10403551549882756]",4.0,"[0.08638367652937,0.07961876703707617]",100.0,"[-0.13759201032153914,0.07339011737195929]",4.0,"[0.15417184937393072,-0.07637281198953634]",100.0,"[0.1459361278018091,-0.12862930817158919]",100.0,"[0.02,0.02]",79.63,0.0,4.0,4.0,114.0,1.0,,,,,,,
,,,,,,,672adb2909ca72744f212a7d,684395e6ae8bb79da192d28c,2025-06-06_18h29.32.372,shape_ratio,2024.1.5,MacIntel,59.95203837,6842b561977af9ba9b0f87ca,,,,,,,,,,,79.63,80.131,,,80.381,80.88,right,0.486,,,,,,,,,0.9,,,,,,80.131,80.381,80.88,"[-0.13984972960033498,-0.0372962710424768]",100.0,"[-0.180193556137149,0.029056030665799707]",4.0,"[-0.06567017382720734,-0.13326611317043832]",100.0,"[0.09708333719879128,-0.15467645165687216]",100.0,"[0.019081989409200164,-0.1256207605498712]",100.0,"[-0.1508081461123597,0.10763328926815398]",100.0,"[0.14292855315265743,0.02279228163357673]",100.0,"[0.061912471156135296,0.006461164884080679]",100.0,"[0.10696884413045912,-0.039588839718072956]",100.0,"[-0.040678863013760676,-0.028570762289871297]",100.0,"[0.01280937564289331,-0.04586376216598985]",100.0,"[-0.09611993800446243,-0.08904211312893105]",100.0,"[-0.1823956991793745,-0.07795746529505881]",100.0,"[-0.013512751058874143,0.009860668363307377]",100.0,"[0.10806398549302122,0.04534401091134233]",4.0,"[-0.05846547608986327,0.07645421866161854]",100.0,"[-0.11382929419145364,0.04502399225825883]",100.0,"[0.017835933863975202,0.16553409458130663]",100.0,"[-0.04970190937567732,0.12260188382524607]",100.0,"[-0.046377166534811394,0.16284688047353738]",100.0,"[-0.09315624101344862,0.10548318334106502]",100.0,"[0.17541775919076277,0.08514156318902265]",100.0,"[0.19720335170720155,0.01735107914583829]",100.0,"[0.049886084845278574,-0.17310300855604238]",100.0,"[0.057058102972510086,0.17728177409499654]",100.0,"[-0.13836051389383255,-0.08102225377945836]",100.0,"[0.05652775489915462,-0.09574763150558373]",100.0,"[-0.028669175062652034,-0.18116268843573718]",100.0,"[0.005308135646736781,0.11905388600400951]",100.0,"[-0.012919372195330195,0.05910644117821671]",100.0,"[-0.14685863016414877,0.06765414375605686]",100.0,"[-0.011804352985227537,-0.08340587860960522]",4.0,"[0.02,0.02]",81.98,0.0,5.0,5.0,23.0,1.0,,,,,,,
,,,,,,,672adb2909ca72744f212a7d,684395e6ae8bb79da192d28c,2025-06-06_18h29.32.372,shape_ratio,2024.1.5,MacIntel,59.95203837,6842b561977af9ba9b0f87ca,,,,,,,,,,,81.981,82.481,,,82.731,83.68,left,0.932,,,,,,,,,0.1,,,,,,82.481,82.731,83.68,"[0.14532964354617658,-0.04340465167116865]",4.0,"[0.1140349255469213,-0.11778232286654158]",4.0,"[0.04103372108866207,-0.022723675588418556]",4.0,"[-0.07099250261757266,-0.14790780952219587]",4.0,"[0.11063883052331931,0.1521047201616613]",4.0,"[-0.06963036867054323,-0.07245780752731384]",100.0,"[0.1121435445810122,0.07493861163399793]",100.0,"[-0.043211609702674736,-0.10399791542477554]",4.0,"[-0.035960769101290604,0.09915411427724]",4.0,"[0.06709584992923358,0.04417837987469482]",4.0,"[-0.14442925724337013,0.08621920115119762]",4.0,"[-0.1723615139201241,-0.07875693317160813]",4.0,"[-0.020441579082345285,-0.018614924982197578]",4.0,"[0.05764216655962828,0.1908650326480159]",4.0,"[0.06707777741889083,-0.17529520635062681]",4.0,"[0.18350645625578613,-0.05913118411060024]",4.0,"[0.022718961181440973,-0.15640839315984514]",4.0,"[-0.1119684516535446,-0.11338196175715497]",4.0,"[0.023032334496658834,0.022218745644535035]",4.0,"[-0.0399288612984325,0.15106148162584485]",4.0,"[-0.09770759791740333,-0.014417208792479777]",4.0,"[-0.09725962525566917,0.07688861444231118]",4.0,"[-0.14476717883251142,-0.015695500302070876]",100.0,"[-0.07886557074325587,0.12050245981325]",4.0,"[0.1067471742788974,0.0318752533372199]",4.0,"[0.01708957064347048,0.08704393852496113]",4.0,"[-0.1139092600541123,0.15243469872388815]",4.0,"[0.17449343469970197,0.008295251888624632]",4.0,"[-0.0594151949168202,-0.0024960461045049403]",4.0,"[-0.12874978590320535,-0.05706825094129204]",4.0,"[0.025139918557064423,-0.19767113787480542]",4.0,"[0.04590936814087328,-0.06830071568080363]",4.0,"[0.02,0.02]",84.78,0.0,6.0,6.0,183.0,1.0,,,,,,,
,,,,,,,672adb2909ca72744f212a7d,684395e6ae8bb79da192d28c,2025-06-06_18h29.32.372,shape_ratio,2024.1.5,MacIntel,59.95203837,6842b561977af9ba9b0f87ca,,,,,,,,,,,84.782,85.28,,,85.53,86.246,right,0.7,,,,,,,,,0.45,,,,,,85.28,85.53,86.246,"[-0.0026975832144263863,-0.0801758608117144]",4.0,"[-0.09404480842815938,0.07310447424026896]",100.0,"[-0.029739662251654798,-0.024459620541802715]",4.0,"[0.141318082664961,-0.038570186286355376]",4.0,"[0.09721857812856242,-0.052074615257779476]",100.0,"[-0.0698543537023939,-0.12067087044883036]",4.0,"[0.11834065481468695,0.0940014917999994]",100.0,"[0.03690927455449436,0.08965032000463535]",4.0,"[-0.14895045560819575,0.0008031296503328882]",100.0,"[-0.035045025929144685,0.10878041005426928]",4.0,"[0.07421130696266377,0.15590361112094173]",100.0,"[-0.10960866829686354,-0.16341819493084714]",100.0,"[0.05049641745913868,-0.037745404860732655]",4.0,"[0.13456461855466276,-0.0917321632414182]",4.0,"[-0.09057921332131365,-0.0812846960989449]",4.0,"[-0.1711582519118275,-0.08767032615278596]",4.0,"[-0.035306106185701645,-0.19140240255256252]",4.0,"[0.027602373323841176,-0.10977879752090111]",4.0,"[-0.07076309993963616,-0.03750450396105539]",4.0,"[-0.02098971982891137,0.06611992177157178]",100.0,"[0.1230422887658959,0.029923104036789758]",4.0,"[0.1920591617183553,0.0011490651291645598]",4.0,"[0.02110658298322087,0.042421862689650716]",100.0,"[-0.029736861674017033,-0.1129822112134149]",100.0,"[-0.047942213670115245,0.1790480447269214]",100.0,"[-0.18313514589759375,-0.046669042210831714]",4.0,"[-0.12715082033502026,0.10035034847410143]",100.0,"[0.1780714956225666,0.04982180741646523]",4.0,"[-0.12764501371702106,-0.12136919172142023]",100.0,"[-0.07634396272413731,0.03556270180596404]",100.0,"[-0.15904391361285836,0.0398612716161682]",100.0,"[-0.0396138378095178,0.015544128660264816]",4.0,"[0.02,0.02]",87.347,0.0,7.0,7.0,137.0,1.0,,,,,,,
,,,,,,,672adb2909ca72744f212a7d,684395e6ae8bb79da192d28c,2025-06-06_18h29.32.372,shape_ratio,2024.1.5,MacIntel,59.95203837,6842b561977af9ba9b0f87ca,,,,,,,,,,,87.348,87.847,,,88.097,88.78,right,0.669,,,,,,,,,0.55,,,,,,87.847,88.097,88.78,"[-0.043351919985721785,-0.09806768746601409]",100.0,"[0.1702603781133537,0.07539849525193791]",100.0,"[0.09907043083906227,-0.03785497710290304]",100.0,"[0.07553199443449227,0.14312072855900929]",100.0,"[0.16076248641892726,-0.07400728584334992]",100.0,"[0.03633232761551309,0.1014676939043074]",4.0,"[-0.006262411592652923,-0.06937765416839606]",4.0,"[0.016790975526384654,0.17087594706174136]",100.0,"[-0.05039296636455959,0.1866804850439995]",4.0,"[0.12997244801364144,-0.0012690731613212956]",4.0,"[-0.05497031378890726,0.014325907538328972]",100.0,"[0.030478328837789025,-0.08961211665618371]",100.0,"[-0.152373014436686,-0.07529902155289048]",4.0,"[0.05877728378063818,-0.015490182513766274]",4.0,"[0.13766017971556643,0.1104062448651234]",4.0,"[-0.06947659383611374,-0.03841202903662144]",4.0,"[-0.0015598304879691062,-0.02695846916758975]",4.0,"[-0.1468741732025517,-0.029994420845633217]",100.0,"[-0.09739028333474138,0.08209157645644784]",4.0,"[-0.031278197347598714,0.14828369935108413]",4.0,"[0.1281064537519627,-0.12730424661663903]",4.0,"[-0.13894782544619236,-0.12682690680650627]",100.0,"[-0.02163154000409896,0.09601494019227225]",100.0,"[0.11864321891352565,0.04797819347781424]",4.0,"[0.09299192367623872,0.10114776564584627]",100.0,"[0.055284810802293506,0.06261639112927912]",100.0,"[0.015591652288011905,0.022987468527351042]",4.0,"[-0.018118075276919818,-0.18549134982210522]",100.0,"[-0.09523663107521244,0.1712987676454549]",100.0,"[0.19628312761966182,-0.03618418178088159]",100.0,"[0.07960345605499969,-0.14163322315692978]",100.0,"[-0.17067112034592694,0.05350123974090897]",100.0,"[0.02,0.02]",89.879,0.0,8.0,8.0,71.0,1.0,,,,,,,
,,,,,,,672adb2909ca72744f212a7d,684395e6ae8bb79da192d28c,2025-06-06_18h29.32.372,shape_ratio,2024.1.5,MacIntel,59.95203837,6842b561977af9ba9b0f87ca,,,,,,,,,,,89.88,90.38,,,90.63,91.781,right,1.139,,,,,,,,,0.6,,,,,,90.38,90.63,91.782,"[-0.028833761425148152,0.10375300931385277]",100.0,"[-0.12291949445261044,0.11671246884424828]",4.0,"[-0.17126242318404958,-0.004044871775685656]",100.0,"[0.06623809318379706,0.10569059308617763]",100.0,"[0.12245385211337839,0.07737935296871346]",100.0,"[-0.06792208022288546,0.025128324036536177]",100.0,"[-0.13660187502407975,0.05956157956030891]",4.0,"[-0.09329253478542976,0.0851807739766706]",100.0,"[0.055333491102159044,-0.05405054488558783]",4.0,"[0.1537139933144462,-0.02837053404373783]",100.0,"[0.043787135889718796,-0.011180424399591046]",100.0,"[-0.08029146904736902,-0.034754609731050885]",4.0,"[-0.012898432836211124,0.14655117457578676]",4.0,"[-0.12969613500616564,0.0030948694223883245]",4.0,"[-0.08809247856576699,-0.13797221063961287]",100.0,"[-0.18579284200550097,0.04104199964343025]",100.0,"[0.0824019625928966,-0.16744799486971954]",100.0,"[-0.1480010572522248,-0.10231187090777677]",4.0,"[0.046484529331785256,0.19076678615728485]",4.0,"[-0.11978996352225979,-0.05419237664703613]",4.0,"[-0.027909638151973896,-0.0005197298737105922]",100.0,"[0.011931517524509426,0.0943450857032605]",4.0,"[0.08620140247905582,0.04461254897736607]",4.0,"[-0.009577053399583648,-0.05032731677291329]",4.0,"[0.020740726721353343,0.028868142346887966]",100.0,"[-0.09605433942253712,0.15433134945068133]",100.0,"[-0.011666726963701324,-0.1703087197371782]",100.0,"[0.1440904496859699,-0.11351110373523728]",100.0,"[0.17169823085320038,0.056555973725064865]",100.0,"[0.03159231515092126,-0.15395932852733082]",100.0,"[0.02651578297743256,-0.10461757885310878]",4.0,"[-0.05237106125230056,-0.17649995032700544]",100.0,"[0.02,0.02]",92.883,0.0,9.0,9.0,44.0,1.0,,,,,,,
,,,,,,,672adb2909ca72744f212a7d,684395e6ae8bb79da192d28c,2025-06-06_18h29.32.372,shape_ratio,2024.1.5,MacIntel,59.95203837,6842b561977af9ba9b0f87ca,,,,,,,,,,,92.884,93.38,,,93.63,94.514,left,0.872,,,,,,,,,0.45,,,,,,93.38,93.63,94.514,"[0.10914871662895016,-0.0838290772908749]",4.0,"[0.014282397322577096,0.18365433225632363]",4.0,"[0.0012544187813626599,-0.12413158181684765]",100.0,"[0.04311933655080002,-0.10885995378820577]",4.0,"[0.17896779606287852,0.054430743666920044]",4.0,"[-0.07711102458972077,0.11966530411379389]",4.0,"[-0.052646708193067854,-0.024571146516734314]",100.0,"[-0.11551011590034108,0.001276919549007379]",4.0,"[0.06605659320439355,-0.18367051179447252]",100.0,"[-0.07477021742341765,0.16630935464589697]",100.0,"[0.06411010822857222,0.03218242446549379]",100.0,"[0.0455636822559838,-0.006923285328826163]",100.0,"[-0.10921936346472043,-0.1377421522243634]",100.0,"[0.17010544756559562,-0.047061782200515455]",100.0,"[0.0006958977052305221,-0.07438628982538846]",100.0,"[0.0761277337070437,-0.055421026024791986]",4.0,"[-0.11297430625731476,0.04468187936183695]",100.0,"[0.16864434647327994,0.000805051680334469]",100.0,"[-0.14774352229058482,-0.08613095207868332]",4.0,"[0.12207761980195082,-0.013395878198965266]",4.0,"[-0.13792591303023968,-0.03555366278022108]",4.0,"[-0.03655228232149815,-0.15848625692932683]",100.0,"[-0.09794162219782798,-0.07996880258440442]",4.0,"[-0.02968390854112404,0.06416397558943804]",4.0,"[-0.19109979737253818,0.00012059234595533855]",4.0,"[0.023610553292568833,0.12158553380900433]",100.0,"[0.10284743193024276,0.07300546487402183]",4.0,"[-0.060379504812019355,0.01585829618298436]",4.0,"[-0.12988926515193255,0.147955747321312]",4.0,"[0.1688826788412703,-0.10328458737147037]",4.0,"[0.03402025919614686,0.05894038451051884]",100.0,"[-0.07653900530271937,-0.17053216369035634]",4.0,"[0.02,0.02]",95.613,0.0,10.0,10.0,140.0,1.0,,,,,,,
,,,,,,,672adb2909ca72744f212a7d,684395e6ae8bb79da192d28c,2025-06-06_18h29.32.372,shape_ratio,2024.1.5,MacIntel,59.95203837,6842b561977af9ba9b0f87ca,,,,,,,,,,,95.613,96.114,,,96.363,97.53,left,1.157,,,,,,,,,0.1,,,,,,96.114,96.363,97.53,"[-0.10089738553417367,0.1611523551955035]",100.0,"[0.0047827632735824716,0.19893873188985783]",4.0,"[0.13277663620805022,0.03269193399420742]",4.0,"[-0.10966323340777802,-0.06232446464697905]",4.0,"[0.0006933126863565591,0.028647284489300186]",4.0,"[0.005363244753572615,0.15364365393528298]",4.0,"[0.07593372657788426,-0.05094482532477172]",4.0,"[-0.11563888825699171,0.1234711506658603]",4.0,"[0.15114940566610022,-0.0653675095697876]",100.0,"[0.07165164424065879,-0.008873079814105043]",4.0,"[-0.1379093861878436,0.07063183979114727]",4.0,"[-0.07169148408477295,0.13204037550135356]",4.0,"[0.17965620576161248,0.029580250448700503]",4.0,"[0.11743992106643532,-0.09398488087798468]",4.0,"[-0.0877052161105354,0.03960105808884839]",4.0,"[0.00809092794504433,-0.12288701442644184]",4.0,"[0.1026049892814726,0.130628553832603]",4.0,"[0.011020656519419008,-0.07801252491979309]",4.0,"[0.06895267552561546,-0.13238278096583114]",4.0,"[-0.17768257469017715,-0.007952771805398386]",4.0,"[-0.09735733118643396,-0.1605430872856033]",4.0,"[0.11330159130293858,-0.1553689262531207]",4.0,"[-0.0758094428415292,0.09202040779268156]",4.0,"[0.15212694687316483,-0.006015471573608694]",4.0,"[-0.04714955471239487,-0.016525214712082698]",4.0,"[0.06064277272569304,0.09194440025291893]",4.0,"[-0.09279857117626948,-0.00685139074321015]",4.0,"[0.02773348195118608,0.11522310938175531]",4.0,"[-0.17282751893813114,-0.07249784713891036]",4.0,"[-0.05685707513778472,-0.17353155391404024]",4.0,"[0.18469813390541756,-0.030287429458409326]",4.0,"[0.15695415320472778,0.0834707915138577]",100.0,"[0.02,0.02]",98.632,0.0,11.0,11.0,187.0,1.0,,,,,,,
,,,,,,,672adb2909ca72744f212a7d,684395e6ae8bb79da192d28c,2025-06-06_18h29.32.372,shape_ratio,2024.1.5,MacIntel,59.95203837,6842b561977af9ba9b0f87ca,,,,,,,,,,,98.633,99.13,,,99.381,100.03,right,0.637,,,,,,,,,0.45,,,,,,99.13,99.38,100.03,"[-0.15320129155109682,0.06528209202378578]",4.0,"[-0.08457577087512917,0.1468663362075254]",4.0,"[-0.04798655733283649,-0.1372684667736515]",100.0,"[0.14549178950551667,0.08725491291956727]",4.0,"[0.17973426529971787,-0.07613660641869029]",4.0,"[-0.09649237635817746,-0.07142699548231224]",100.0,"[0.05139807257528101,0.07192334569686788]",4.0,"[-0.01788385543432297,0.12558301286086518]",4.0,"[-0.08913123739658399,0.05450139208108012]",4.0,"[-0.11763699130300198,0.0009868903152725744]",4.0,"[-0.06629757456341207,-0.02533208360587974]",4.0,"[-0.029981269240762536,-0.04521260086470806]",100.0,"[-0.010399328790305447,0.04803614941889956]",4.0,"[0.13355203344187133,0.14495072494215958]",100.0,"[0.09748382387338536,-0.017728710473293836]",100.0,"[-0.09452386599463776,-0.16572069772817052]",4.0,"[0.038663133309948854,0.12427185892475114]",4.0,"[0.07366760172280057,-0.1475425324313184]",100.0,"[0.13799471772500788,-0.06427049734853517]",4.0,"[0.016005130255687894,0.00413901998077998]",4.0,"[-0.17318157719241586,-0.04686396809642555]",4.0,"[0.1862838151699064,-0.02325967782753646]",100.0,"[0.13669550472380132,-0.14560617152372354]",100.0,"[-0.013541464519407504,0.18170553651729912]",100.0,"[0.17086129057333518,0.03195509218415641]",4.0,"[-0.12892498611176162,0.1072649957153301]",100.0,"[0.024019845015656856,-0.09383664362622147]",4.0,"[-0.18695106746479262,0.029835589168244355]",100.0,"[-0.1565529225265391,-0.09267584492244813]",100.0,"[0.06319657996312184,0.013797483898982927]",4.0,"[-0.04240585879582633,0.08219988722453592]",100.0,"[0.05523752339249268,-0.05593044156445072]",100.0,"[0.02,0.02]",101.131,0.0,12.0,12.0,129.0,1.0,,,,,,,
,,,,,,,672adb2909ca72744f212a7d,684395e6ae8bb79da192d28c,2025-06-06_18h29.32.372,shape_ratio,2024.1.5,MacIntel,59.95203837,6842b561977af9ba9b0f87ca,,,,,,,,,,,101.133,101.63,,,101.882,102.397,right,0.507,,,,,,,,,0.9,,,,,,101.631,101.882,102.397,"[0.1138058969944134,-0.15436903508975755]",100.0,"[0.09553933748713357,-0.09703664773911654]",100.0,"[-0.19060036234881383,0.05967503025898217]",100.0,"[-0.14367685715197792,0.04221731346552321]",100.0,"[0.06275560188068792,-0.05524476445228597]",100.0,"[0.05868246396555273,-0.1765767080388277]",100.0,"[0.02576070828495171,0.18258580395454302]",100.0,"[-0.11597745841535757,0.1253122647443162]",100.0,"[0.11694132001413167,0.05389402232549451]",100.0,"[0.1416199230356371,-0.06906903509024451]",4.0,"[-0.02687448226428936,-0.1826056063735917]",100.0,"[0.16557882326047577,0.09368967343301196]",100.0,"[-0.0962169579461101,-0.1255984221684649]",100.0,"[-0.04713756719921177,0.14618559764936215]",100.0,"[0.08116352107073423,0.09275596701519859]",100.0,"[-0.0481864716649033,-0.1352903670357349]",100.0,"[-0.04635117499710411,-0.04133271571097198]",100.0,"[-0.10322599566908279,-0.05367798297316964]",100.0,"[-0.0019646379400069377,0.11100983377066226]",100.0,"[-0.11674783516405088,0.0030517760983624982]",100.0,"[0.10976408311596479,-0.04015565975545118]",100.0,"[0.04383518389899223,0.07109705124432031]",100.0,"[0.16333671421411802,0.014452997071548004]",4.0,"[0.021894613004857767,-0.08420883566962753]",100.0,"[-0.16772861955297325,0.00670204739712176]",100.0,"[-0.003043269585498493,-0.009487061917438512]",100.0,"[-0.16227875606535125,-0.06334021295140023]",100.0,"[-0.043605506593749475,0.033373445458701016]",100.0,"[-0.06280892322005943,0.18859438970380393]",100.0,"[0.06231362512766985,0.0068373521425828115]",4.0,"[0.19906184144827344,-0.017084506568377008]",100.0,"[0.11074945568435768,0.1338743168212888]",100.0,"[0.02,0.02]",103.496,0.0,13.0,13.0,22.0,1.0,,,,,,,
,,,,,,,672adb2909ca72744f212a7d,684395e6ae8bb79da192d28c,2025-06-06_18h29.32.372,shape_ratio,2024.1.5,MacIntel,59.95203837,6842b561977af9ba9b0f87ca,,,,,,,,,,,103.497,103.998,,,104.247,105.247,right,0.988,,,,,,,,,0.6,,,,,,103.998,104.247,105.247,"[0.09808765970031723,0.0855474266349016]",4.0,"[-0.04539633545378778,-0.01827333458080963]",4.0,"[0.1012446413698825,-0.050901681392091495]",100.0,"[0.17429043241552908,0.050012503373683785]",100.0,"[-0.08666662623062604,-0.02879081381214357]",100.0,"[-0.0023352504606921195,-0.1021718288293052]",100.0,"[0.18496741868046074,-0.05956805888735903]",4.0,"[0.08040440478646756,-0.11785340898032534]",4.0,"[0.05377184785066689,0.128804839742267]",100.0,"[-0.18589847133805465,-0.04642286250098127]",100.0,"[-0.008289858052724924,0.08304852471497697]",100.0,"[-0.11122434413488841,0.009481207841924518]",4.0,"[0.12580803908855415,0.14647253837144425]",4.0,"[0.034594138874814606,-0.12920328012853796]",100.0,"[-0.067890250159748,0.17245928297174612]",100.0,"[-0.10493909894005378,-0.0969579381187425]",100.0,"[0.05711452491657213,-0.07332151466379838]",4.0,"[0.09137820851025844,0.03606899662028635]",100.0,"[0.1860076702693629,0.004125928697139233]",4.0,"[-0.16258003791377357,0.008450243658130772]",4.0,"[0.04242503528008986,0.08275743405595176]",100.0,"[-0.06705563662904246,-0.17741372389612348]",4.0,"[-0.13139234405476308,-0.13171593450676294]",100.0,"[0.13129448857189693,-0.08113227877356]",100.0,"[-0.15102640500398312,0.08799042781034458]",4.0,"[-0.08975567469372904,0.10515954112500542]",100.0,"[0.15136311204738778,0.10024225590663075]",100.0,"[0.05235183096493297,-0.02521705179639503]",100.0,"[-0.037314805551645035,-0.08055231461188321]",4.0,"[-0.11653866274245246,0.14500442413937037]",4.0,"[0.005902778265517922,-0.16397236776791105]",100.0,"[0.017714922070365402,0.048756339066076744]",100.0,"[0.02,0.02]",106.347,0.0,14.0,14.0,52.0,1.0,,,,,,,
,,,,,,,672adb2909ca72744f212a7d,684395e6ae8bb79da192d28c,2025-06-06_18h29.32.372,shape_ratio,2024.1.5,MacIntel,59.95203837,6842b561977af9ba9b0f87ca,,,,,,,,,,,106.348,106.848,,,107.098,107.947,right,0.837,,,,,,,,,0.55,,,,,,106.848,107.098,107.947,"[0.06854447499414586,0.004001345111311823]",100.0,"[-0.17403837334540764,0.05936395262543419]",100.0,"[0.028463846591951964,0.1326567156109583]",4.0,"[0.18683928304102213,0.05599019496765326]",4.0,"[0.13060074858141743,-0.1280514478696796]",4.0,"[-0.06097126071111515,-0.14437745051236908]",100.0,"[0.14071703635484253,0.08562473963528307]",100.0,"[0.19257298965276506,-0.04308814756473208]",100.0,"[0.08035701732334836,0.08267337398705714]",100.0,"[-0.12175104928768857,0.02793586450308046]",100.0,"[-0.162761916573958,-0.01308489210723299]",100.0,"[-0.148320399605367,0.10109088907898908]",100.0,"[-0.004134287316504965,0.17502259255023955]",100.0,"[-0.02455931735511207,-0.036207968459261095]",4.0,"[-0.08982059987272169,0.05727150372589835]",100.0,"[0.12369057659227838,-0.07277174957403877]",4.0,"[0.09879425293461873,-0.156034656535918]",4.0,"[-0.05240493266109285,0.0910871577451435]",100.0,"[-0.0018604353250604895,-0.07396472296456424]",100.0,"[-0.05548335664462885,0.03414024274688858]",100.0,"[-0.09052066681214631,-0.1139889862901022]",4.0,"[0.06066947511447741,-0.09940933891472276]",100.0,"[0.10279427451474937,0.12494864130441294]",4.0,"[0.009862097147079855,0.051173774656279786]",100.0,"[0.06435169135719941,0.16497471434172037]",4.0,"[-0.13393229917782307,0.14162681995309928]",100.0,"[-0.12947489230011502,-0.13728509746305956]",100.0,"[0.11847534874127158,-0.031071532981879254]",4.0,"[0.1420990546579287,0.022863991823303585]",4.0,"[-0.09367152749523558,-0.06677884564807723]",4.0,"[-0.05441969135988709,0.18364893530920992]",4.0,"[-0.014389333685641336,0.1121470782165859]",4.0,"[0.02,0.02]",109.046,0.0,15.0,15.0,81.0,1.0,,,,,,,
,,,,,,,672adb2909ca72744f212a7d,684395e6ae8bb79da192d28c,2025-06-06_18h29.32.372,shape_ratio,2024.1.5,MacIntel,59.95203837,6842b561977af9ba9b0f87ca,,,,,,,,,,,109.046,109.547,,,109.796,110.797,right,0.989,,,,,,,,,0.5,,,,,,109.547,109.796,110.797,"[-0.11803028867407553,-0.014882786845941937]",4.0,"[0.06463097411200228,0.01959416628003321]",4.0,"[-0.13572533482160531,0.10830616642638523]",100.0,"[0.01923936586338126,0.1501136364701222]",100.0,"[-0.05375486642292394,-0.11215550177691921]",4.0,"[0.0644375475483772,-0.14641928549565195]",4.0,"[0.19545442662219992,0.006715225381848641]",4.0,"[-0.04253447219594042,-0.18722625940401394]",4.0,"[0.140293554190151,-0.03496760404753831]",100.0,"[0.0528924612981172,-0.08035947634528925]",4.0,"[-0.1852933721598448,-0.012352468697167105]",100.0,"[0.18511330658366848,-0.0476642505065464]",100.0,"[-0.15196203472585273,0.03398916576698668]",4.0,"[0.16091495356096877,0.06959276935460429]",100.0,"[-0.007704011480529771,-0.08899043966527674]",100.0,"[-0.07411868726335198,-0.03650470928953846]",4.0,"[-0.00297795270572872,0.014634800856701399]",100.0,"[-0.00024094377633531223,-0.14609742033944523]",4.0,"[-0.025285681004311365,0.06826030306549143]",4.0,"[0.02329518309191272,0.09633415770422672]",100.0,"[0.1285579266831825,0.09524217311398138]",4.0,"[-0.042559383894924314,0.024264905962162603]",100.0,"[0.14503604975111303,-0.13442667590996157]",100.0,"[0.07568324993909312,0.16288952137923163]",4.0,"[0.06666164843881381,0.10382952030249094]",100.0,"[-0.13096628482842818,0.14856711554646151]",100.0,"[-0.03285034793189161,-0.0337360424192671]",4.0,"[0.07726039624291658,-0.03903147869502967]",4.0,"[-0.0704011682837385,0.1805515469975025]",100.0,"[0.11278370061770826,-0.08752547899635173]",100.0,"[-0.11226349831005163,0.04303978381475892]",4.0,"[-0.04863277654466257,0.13464783423526638]",100.0,"[0.02,0.02]",111.896,0.0,16.0,16.0,99.0,1.0,,,,,,,
,,,,,,,672adb2909ca72744f212a7d,684395e6ae8bb79da192d28c,2025-06-06_18h29.32.372,shape_ratio,2024.1.5,MacIntel,59.95203837,6842b561977af9ba9b0f87ca,,,,,,,,,,,111.897,112.396,,,112.647,113.646,right,0.993,,,,,,,,,0.4,,,,,,112.396,112.647,113.646,"[-0.11236821863860343,0.1592494515677417]",100.0,"[-0.04781181325999742,-0.05061873252232804]",4.0,"[-0.04861610595094147,0.1347273425741364]",100.0,"[-0.0541501729310339,0.18950637758973396]",4.0,"[0.013391933492685179,0.0511358854780984]",100.0,"[0.009592428744116368,-0.09183428046182965]",4.0,"[0.15366022901718138,0.05691411152985048]",4.0,"[-0.03201982640475123,0.052014127176465356]",100.0,"[0.02906122860059151,-0.1782826486222467]",4.0,"[0.033823280372368904,0.15818252315356007]",4.0,"[-0.1382695849492038,0.07448934558602242]",4.0,"[0.16012092161825328,-0.04028745945234464]",100.0,"[0.11860218813631754,-0.14007831575909915]",4.0,"[0.08937333153317947,0.05350375722452159]",4.0,"[-0.18689574134459438,0.015824928629806705]",4.0,"[-0.09432817080241375,0.011155805616764486]",4.0,"[0.05271182389871731,-0.008763254906130887]",100.0,"[-0.13107868701679695,-0.13916891277152688]",100.0,"[-0.06756963233013125,0.07606195824201191]",100.0,"[0.047147248490016516,0.08384676308440402]",4.0,"[-0.048211297207871956,-0.09908749550951637]",100.0,"[0.11567732028417392,-0.04572393841788058]",4.0,"[0.11502982991520223,0.09487686861786433]",100.0,"[-0.14359577448275804,0.02800334805483841]",4.0,"[0.05249231465756215,-0.10073657198682787]",4.0,"[-0.18992785812096177,-0.05820113215853541]",100.0,"[-0.013982877183080673,0.09270512729593089]",4.0,"[0.11752511650024797,-0.08602047301336227]",4.0,"[0.172192448211161,-0.09789474852411253]",4.0,"[-0.018227532391301975,-0.12991066653808128]",4.0,"[-0.10604642903350184,0.11828050249842043]",100.0,"[-0.024128790248970796,-0.18199774364457763]",100.0,"[0.02,0.02]",114.747,0.0,17.0,17.0,150.0,1.0,,,,,,,
,,,,,,,672adb2909ca72744f212a7d,684395e6ae8bb79da192d28c,2025-06-06_18h29.32.372,shape_ratio,2024.1.5,MacIntel,59.95203837,6842b561977af9ba9b0f87ca,,,,,,,,,,,114.748,115.247,,,115.497,116.997,,,,,,,,,,,0.4,,,,,,115.247,115.497,116.997,"[0.14286114062126523,0.0675546110617852]",4.0,"[0.08664232029995467,-0.03920245466317565]",4.0,"[-0.027744115973217652,-0.0808298680940423]",100.0,"[0.010951043942812183,0.13207815256708097]",4.0,"[-0.17774450894080607,-0.005165322439060336]",100.0,"[0.18798890446729719,-0.00799655660789409]",4.0,"[-0.0714946483633322,-0.16275146041528987]",4.0,"[0.052628777080681095,0.07830253867358158]",100.0,"[-0.15018543739108142,0.09630728153406658]",100.0,"[0.07844766043417097,-0.174486110211412]",4.0,"[-0.044494706057771054,0.014326835151914113]",4.0,"[-0.0996694612186122,-0.05650912532405987]",100.0,"[-0.023352626736438814,-0.1452572163993645]",4.0,"[-0.11338632515517423,-0.1051009700555026]",4.0,"[-0.10234044234336744,0.034493921873829374]",4.0,"[0.1401475593097817,-0.0546549519797544]",4.0,"[0.09438825237616756,-0.10988637032750394]",100.0,"[0.0024305520622533976,0.08107453180014867]",100.0,"[-0.0058346574759244535,-0.19293524254280173]",4.0,"[-0.06622655933457264,0.057247196000590965]",4.0,"[-0.1379100830076737,-0.03148841756207272]",100.0,"[-0.08061867312994486,0.13289118385162263]",4.0,"[0.020349252588039973,-0.07950877483546683]",100.0,"[0.024596270029335225,0.03571423786581039]",100.0,"[0.1895101142049377,-0.05401871006585759]",4.0,"[0.05536887131395252,-0.13819488157597923]",4.0,"[0.17259256050576224,0.030876878431523258]",100.0,"[-0.15259008242094257,-0.07754819083105079]",4.0,"[-0.1409283175073047,0.0215268963206802]",100.0,"[0.11593886355900516,-0.14699455079853924]",100.0,"[0.07696987357314924,0.12038789448592921]",4.0,"[-0.04151726531297615,0.11873003413140787]",4.0,"[0.02,0.02]",118.097,0.0,18.0,18.0,152.0,1.0,,,,,,,
,,,,,,,672adb2909ca72744f212a7d,684395e6ae8bb79da192d28c,2025-06-06_18h29.32.372,shape_ratio,2024.1.5,MacIntel,59.95203837,6842b561977af9ba9b0f87ca,,,,,,,,,,,118.098,118.596,,,118.847,119.463,right,0.6,,,,,,,,,0.55,,,,,,118.596,118.847,119.463,"[-0.10473330189288006,-0.11089552504472766]",4.0,"[-0.09442268696289917,0.021444192658674793]",100.0,"[0.19699267542676901,0.0029719259035576747]",100.0,"[-0.13572928518840666,-0.0032324862535681566]",4.0,"[0.0450905006424146,-0.09749638487934598]",100.0,"[0.1472588793222493,0.1178501592484032]",100.0,"[-0.008778077020932733,0.14773885106026602]",100.0,"[0.0632090380378551,-0.03398286431763798]",100.0,"[0.18296972086455823,-0.06780797156578008]",100.0,"[0.14743420345748595,0.04124614009911199]",4.0,"[-0.09520216330205407,0.15164006654203396]",100.0,"[-0.03239702086545787,-0.1777572462734965]",100.0,"[-0.16656456354323076,-0.0998974564941039]",4.0,"[-0.07637877523028548,-0.1566900825012585]",100.0,"[0.0030783100719275853,-0.014488023915327244]",4.0,"[-0.01818479470720789,0.08302879815534268]",100.0,"[-0.18274483726015137,0.05392637621744149]",4.0,"[-0.07898016385708079,0.11337389481347236]",4.0,"[-0.01179731540718254,-0.11630719903782354]",100.0,"[0.12475562920522193,-0.1311214601146544]",100.0,"[-0.027656719847319065,0.024218387031909507]",100.0,"[-0.14637298117591263,-0.052868736943814935]",100.0,"[-0.05504424953226155,0.06641273956131083]",4.0,"[0.059867306175932306,0.14247363430660417]",4.0,"[-0.10187941861753558,-0.046273929295659544]",100.0,"[0.024842282871668907,-0.16606700003258787]",4.0,"[0.09673075965357204,0.06994183473815377]",4.0,"[-0.14154061299655676,0.11969884844721126]",100.0,"[-0.029586714328389392,-0.0714812496218985]",100.0,"[-0.02921010425183272,0.18373366962938384]",4.0,"[0.06993816017016712,-0.13709771585519281]",4.0,"[0.04072492342934295,0.0010121368898855585]",4.0,"[0.02,0.02]",120.564,0.0,19.0,19.0,60.0,1.0,,,,,,,
,,,,,,,672adb2909ca72744f212a7d,684395e6ae8bb79da192d28c,2025-06-06_18h29.32.372,shape_ratio,2024.1.5,MacIntel,59.95203837,6842b561977af9ba9b0f87ca,,,,,,,,,,,120.564,121.064,,,121.314,121.847,left,0.519,,,,,,,,,0.1,,,,,,121.064,121.314,121.847,"[-0.11120460144833175,0.1642957128815691]",4.0,"[0.15964446149090433,-0.07320467244869823]",4.0,"[-0.18176815814666422,-0.031870505243103024]",100.0,"[0.04375858998043464,0.09004323979885867]",4.0,"[0.012741117219642483,0.11544218389269251]",4.0,"[0.0979015336277618,0.0342303002212372]",4.0,"[0.04034277970715756,-0.11212672840170405]",4.0,"[0.03209897568177703,-0.026741273772075164]",4.0,"[0.15879055534963088,-0.019262647269269313]",4.0,"[0.13237173206520142,0.06565293317760794]",4.0,"[-0.18481660721768783,0.02397523180394401]",4.0,"[-0.0977998305562375,-0.14445661063014834]",4.0,"[0.10941682526341437,0.1091179317478841]",4.0,"[0.044860029192862395,-0.1824718894868089]",4.0,"[0.17553342810454275,0.05183800821903111]",4.0,"[-0.16346233431744545,-0.1117439639781609]",4.0,"[-0.026544481571362737,-0.09100792868466451]",4.0,"[-0.011962772510301993,0.19422929715212062]",4.0,"[-0.11838572564748306,0.1091475118615268]",4.0,"[-0.06593401254767119,0.14964826236780504]",100.0,"[0.0006819368420841342,0.04115277898428404]",4.0,"[-0.09933433190976922,-0.019319492988051863]",4.0,"[0.19161707820912627,-0.04363676422534508]",4.0,"[-0.13516794822082914,0.044090835557246265]",4.0,"[-0.04654058991908242,-0.16880788161550891]",4.0,"[-0.12370197948520716,-0.08793358966924]",4.0,"[0.0939640270267998,-0.11763244053136908]",4.0,"[0.10114742702074819,-0.025621360999358096]",100.0,"[0.14494905162025537,0.13248949311846495]",4.0,"[0.09565037843148141,-0.07420613706698322]",4.0,"[-0.015631581643260162,-0.14207102409178946]",4.0,"[0.10146708547629071,0.15548939689126953]",4.0,"[0.02,0.02]",122.947,0.0,20.0,20.0,185.0,1.0,,,,,,,
,,,,,,,672adb2909ca72744f212a7d,684395e6ae8bb79da192d28c,2025-06-06_18h29.32.372,shape_ratio,2024.1.5,MacIntel,59.95203837,6842b561977af9ba9b0f87ca,,,,,,,,,,,122.947,123.447,,,123.698,124.414,right,0.708,,,,,,,,,0.6,,,,,,123.447,123.697,124.414,"[0.01092076750962015,-0.184803399707868]",100.0,"[0.030599270515503235,0.1872219766342828]",100.0,"[-0.07928265149180849,0.03861486499675096]",4.0,"[0.06419335651217861,-0.05415170662276647]",4.0,"[0.1263090964572593,-0.019769760469165662]",100.0,"[0.14350463847102682,-0.0661535413591978]",100.0,"[-0.03264685938011065,0.14463714808435377]",100.0,"[0.14335019155688059,0.11027697738600145]",100.0,"[-0.08786128198840623,-0.13252257843005905]",4.0,"[-0.009531520285199198,0.0011616971349898684]",100.0,"[0.06236304999841787,-0.18143839732605266]",4.0,"[0.012803157771050368,0.12547391700561608]",4.0,"[0.12760170838003185,-0.13014438828453206]",4.0,"[-0.026247621574509796,-0.07415461064652765]",100.0,"[0.021246888392601665,-0.09336402557383029]",4.0,"[-0.1128063939349653,0.14997135349034488]",4.0,"[0.18695446344304317,0.05954940515097338]",100.0,"[-0.1279591487956018,0.05415933415627528]",100.0,"[-0.06154883020121228,-0.010863336613368788]",4.0,"[0.10174575258410187,0.1118704603171008]",100.0,"[-0.08125603850127071,0.12463692016145152]",100.0,"[0.1019930680815774,0.017259944637705277]",100.0,"[0.03098236588000095,-0.0013449182263222503]",100.0,"[0.007905377532330247,-0.03881490148453702]",100.0,"[-0.07024314910193792,-0.07730557486132517]",100.0,"[-0.19212804506987607,0.002202594917048386]",100.0,"[-0.1303160913305792,-0.033612432788426586]",4.0,"[-0.18105592894456765,0.06315286691536978]",100.0,"[0.10706789842906549,-0.08812233419868412]",4.0,"[-0.0650652397429506,0.17766999647171175]",4.0,"[-0.031151730273308496,0.04297406357914372]",100.0,"[0.05971904576863274,0.14660318900153402]",4.0,"[0.02,0.02]",125.513,0.0,21.0,21.0,55.0,1.0,,,,,,,
,,,,,,,672adb2909ca72744f212a7d,684395e6ae8bb79da192d28c,2025-06-06_18h29.32.372,shape_ratio,2024.1.5,MacIntel,59.95203837,6842b561977af9ba9b0f87ca,,,,,,,,,,,125.513,126.013,,,126.264,127.014,right,0.738,,,,,,,,,0.4,,,,,,126.013,126.264,127.014,"[-0.00013179736642651143,0.1604970644623315]",100.0,"[-0.05689192535591543,0.024750992285420232]",4.0,"[0.09032865737922859,0.13754347366779673]",4.0,"[-0.03169261624453207,-0.16614165538971248]",100.0,"[-0.18714239638452437,-0.00880646491888028]",100.0,"[0.12706149719842566,-0.10573405946732657]",4.0,"[-0.02519245653104978,0.1923258964609232]",100.0,"[-0.04155142548008057,-0.04427212577460169]",4.0,"[-0.07598724832567992,-0.13967311741330612]",100.0,"[0.13819636253668036,0.13137118163828856]",100.0,"[0.13031474336800208,-0.03782335333812875]",4.0,"[0.08856291898650623,-0.027327899013695322]",100.0,"[0.07580869226111,0.05391416210561182]",100.0,"[0.008855680283549857,-0.19222143090070318]",4.0,"[0.1938768162422832,-0.010394345190552599]",4.0,"[0.1713857172288443,-0.07290169819908641]",4.0,"[0.06909805829618736,-0.0765945981883544]",4.0,"[-0.05209625524607416,0.1204157892529632]",4.0,"[-0.11339630856684603,0.017545897350146833]",100.0,"[-0.1372142313926936,-0.12287084585025387]",4.0,"[0.16132577591208522,0.046166938811745516]",4.0,"[0.01599458497025083,0.03597681575748134]",4.0,"[-0.09288370734388046,0.17205906970110688]",4.0,"[0.029811073179001682,0.1158169480074549]",100.0,"[-0.08573572179152074,-0.09119527401184059]",4.0,"[0.01056593237634344,-0.03339383988887773]",4.0,"[-0.16834125295805105,-0.09117416121165943]",100.0,"[0.12536194954613186,0.01624842482923399]",4.0,"[-0.12418037237928872,0.09493071572868088]",100.0,"[0.04997181097665396,-0.04038601742745247]",4.0,"[0.007540368688836227,-0.15123777719548673]",4.0,"[-0.08831632669864478,0.0527780925483193]",100.0,"[0.02,0.02]",128.113,0.0,22.0,22.0,171.0,1.0,,,,,,,
,,,,,,,672adb2909ca72744f212a7d,684395e6ae8bb79da192d28c,2025-06-06_18h29.32.372,shape_ratio,2024.1.5,MacIntel,59.95203837,6842b561977af9ba9b0f87ca,,,,,,,,,,,128.115,128.613,,,128.862,129.531,left,0.65,,,,,,,,,0.1,,,,,,128.613,128.862,129.531,"[-0.06746826916027208,0.18580269351119866]",4.0,"[0.030699308131253673,0.0718501189813231]",4.0,"[-0.12174579649548305,0.035428997870636796]",4.0,"[-0.014313537114609837,0.11789441909587021]",4.0,"[-0.03571360680277868,-0.153006048910824]",4.0,"[-0.015616698139832862,-0.06392897747667028]",4.0,"[0.04461149688095309,-0.1926744513175644]",4.0,"[-0.10173201318689257,-0.10036440796900482]",4.0,"[-0.14834759964973818,-0.07056392802776273]",4.0,"[0.11131847146491586,0.0018597522384561653]",4.0,"[0.17777312184139563,-0.0845215467621132]",4.0,"[0.12002644793785044,-0.06142570207869598]",4.0,"[0.05157682435464158,-0.07348552139679572]",100.0,"[-0.1736913513208713,0.062360428608498275]",100.0,"[-0.12136639606756051,-0.01679716966455566]",4.0,"[0.13964181300578124,-0.113403823924329]",4.0,"[0.1841007772422109,0.0753047342764119]",4.0,"[-0.0351699296232251,-0.011743259885289263]",4.0,"[0.09521434547001582,-0.1479316017811378]",4.0,"[0.02236347952157594,0.023948602735490713]",4.0,"[0.06811649570089631,0.1398230538744502]",100.0,"[0.10481205255738134,0.16494331156359443]",4.0,"[-0.08081104332400535,-0.04380474584716839]",4.0,"[0.15194970338112526,0.12771052374826053]",4.0,"[0.14579361254942494,0.02993522290318474]",4.0,"[-0.16337069377834304,-0.001809090677781803]",4.0,"[-0.1419065506983298,0.08790785215989555]",4.0,"[-0.1282650879995146,-0.14808737185446366]",4.0,"[-0.0734047242952162,0.0626630200083369]",4.0,"[-0.12261421963021882,0.1497146844410483]",4.0,"[-0.08051548889109039,0.1359210277235506]",4.0,"[0.17289559881039349,-0.013805625840516362]",4.0,"[0.02,0.02]",130.63,0.0,23.0,23.0,204.0,1.0,,,,,,,
,,,,,,,672adb2909ca72744f212a7d,684395e6ae8bb79da192d28c,2025-06-06_18h29.32.372,shape_ratio,2024.1.5,MacIntel,59.95203837,6842b561977af9ba9b0f87ca,,,,,,,,,,,130.631,131.13,,,131.381,131.946,right,0.552,,,,,,,,,0.9,,,,,,131.13,131.381,131.947,"[0.15226420016748787,0.08917359696531832]",4.0,"[-0.027377590092082366,0.08915723088322995]",100.0,"[-0.012226550475999451,0.03867421231207402]",100.0,"[-0.07915583945419986,-0.07566484701561148]",100.0,"[-0.014173688760782642,-0.08537428334476743]",100.0,"[-0.0776075744496501,0.13920558625688642]",100.0,"[-0.1599899740067415,0.10687677412817928]",100.0,"[0.0036055785660054976,-0.038785222232964135]",100.0,"[0.05298246262379436,-0.07555353238946139]",100.0,"[-0.007905590029820305,-0.15735280848097943]",100.0,"[-0.06406696459497475,-0.00696857641020931]",100.0,"[0.0999530326185385,-0.09566760715073896]",4.0,"[-0.07577127477992171,0.08531149469890024]",100.0,"[0.04953878902601504,0.04847243920367202]",100.0,"[-0.1643759514931974,-0.08427475933113199]",100.0,"[0.12547342662262162,0.12085958272963965]",100.0,"[-0.051052854148152534,-0.17865062057607248]",100.0,"[-0.10433992709723366,-0.15407334924039165]",100.0,"[-0.056001287365768974,0.18799736505128165]",100.0,"[0.09802062951948581,0.16784645089120134]",100.0,"[-0.12536914767445811,-0.02011085895342396]",100.0,"[0.07931362873580569,-0.15677640938955656]",100.0,"[-0.0634799298234338,-0.11652291437835695]",100.0,"[-0.1260286010308347,0.15174285699687448]",100.0,"[0.14938781017456504,-0.07246684049663867]",100.0,"[0.024049905835307032,0.0030580926846555685]",100.0,"[0.08283527027691896,-0.04519548330712865]",100.0,"[0.16506200989176623,0.030069527868332942]",100.0,"[-0.15941392460820417,0.001603200887949527]",4.0,"[-0.03385787906999476,0.14298179643695752]",100.0,"[0.03585459521829828,0.17008255086227952]",100.0,"[0.034438261881047746,-0.14526938350859697]",100.0,"[0.02,0.02]",133.047,0.0,24.0,24.0,19.0,1.0,,,,,,,
,,,,,,,672adb2909ca72744f212a7d,684395e6ae8bb79da192d28c,2025-06-06_18h29.32.372,shape_ratio,2024.1.5,MacIntel,59.95203837,6842b561977af9ba9b0f87ca,,,,,,,,,,,133.047,133.547,,,133.798,134.514,right,0.707,,,,,,,,,0.5,,,,,,133.548,133.798,134.514,"[-0.01150372618567765,0.015607810632424744]",100.0,"[0.08371251727995735,-0.02004652376648784]",4.0,"[-0.08316470341726263,0.15324052714409825]",100.0,"[0.12341963964286015,-0.10993515175794266]",100.0,"[-0.03562952987181521,-0.12910206897479573]",4.0,"[0.0650942717313894,-0.10893190651505773]",4.0,"[0.04381186261186371,0.17343275692373716]",100.0,"[-0.00929310194089288,0.12327889626634969]",4.0,"[-0.08507779939744589,-0.012628901818305479]",4.0,"[-0.1880573723204399,-0.027752760880524495]",100.0,"[0.03783026182288308,0.053514179114148276]",100.0,"[0.012315840392197056,-0.04482158353473793]",100.0,"[0.1646225510716361,-0.05927846273721225]",4.0,"[0.000608570435845551,0.1884600133753232]",4.0,"[0.125942980788503,0.08913915866996716]",4.0,"[0.10846845549265985,0.1451452549107658]",4.0,"[0.06233146723974486,0.10179204224944176]",4.0,"[-0.13590710494368785,-0.13968090545174958]",4.0,"[-0.0942166213764594,-0.15480221154034937]",4.0,"[-0.11410698606733882,-0.09975669330007601]",100.0,"[0.11710325825771632,-0.05723008020999554]",100.0,"[0.16588281682394923,0.027153143641435517]",4.0,"[-0.17229375735918168,0.03746671390084138]",100.0,"[-0.07297144389555593,0.06616570110223112]",100.0,"[0.1605757176114649,-0.015008591424246903]",100.0,"[-0.04180145869803409,-0.060211596314776274]",4.0,"[0.016919333581380556,-0.19764736004910016]",100.0,"[-0.11302730591950365,0.06186279330283266]",100.0,"[-0.04439492701585789,-0.1818769114440659]",100.0,"[0.05658793894433,-0.17251589586790625]",100.0,"[0.06410068538854594,-0.06230314661419342]",4.0,"[0.18464940430093224,0.07444495702474985]",4.0,"[0.02,0.02]",135.614,0.0,25.0,25.0,95.0,1.0,,,,,,,
,,,,,,,672adb2909ca72744f212a7d,684395e6ae8bb79da192d28c,2025-06-06_18h29.32.372,shape_ratio,2024.1.5,MacIntel,59.95203837,6842b561977af9ba9b0f87ca,,,,,,,,,,,135.617,136.113,,,136.365,137.614,right,1.243,,,,,,,,,0.55,,,,,,136.114,136.365,137.614,"[0.0904454325209467,-0.05736241300600729]",4.0,"[-0.09784614068054996,0.1009984315064198]",100.0,"[-0.0028210734859790815,0.055919624432479505]",4.0,"[-0.11457566044481926,-0.031820513385219414]",100.0,"[-0.11740198995121028,-0.10848570634610541]",4.0,"[-0.15837271334825248,0.014409893631970318]",100.0,"[-0.05547487901862888,-0.123064099462244]",100.0,"[-0.04622630821544315,-0.1804039536297796]",4.0,"[0.014519854394241801,-0.09207807729161804]",100.0,"[0.1055555987919019,0.10564327014513646]",100.0,"[0.08325037241892244,-0.14961385731537707]",4.0,"[0.026580003059583236,0.16150851823896026]",4.0,"[0.09448136401548712,0.007430712834978937]",100.0,"[0.08262759392101829,0.14688365961019204]",100.0,"[0.18037399606401677,-0.017330724160360963]",100.0,"[-0.15403464971006112,0.08518558520486179]",4.0,"[0.140033066705619,-0.05263899301560109]",100.0,"[-0.17211974930916474,-0.06978029285194583]",100.0,"[-0.0421938466697699,-0.020192739723891035]",4.0,"[0.16587211355142442,-0.1054678462590287]",4.0,"[0.12409216521539237,0.041934077230473765]",100.0,"[-0.017716988803245445,0.18846446776039036]",4.0,"[0.02856956951958982,-0.05456885324479478]",4.0,"[-0.048970368040951014,0.03438256454322542]",4.0,"[0.17461868189354443,0.07414339075397892]",100.0,"[-0.056140093130725856,0.08714787896949516]",100.0,"[0.007043976879883938,-0.16155566194065313]",100.0,"[-0.18938796697257482,-0.03209043432631589]",4.0,"[-0.06180049742736115,-0.07589257304295469]",100.0,"[0.06808383609023251,0.03758909874841093]",4.0,"[0.04798088713177542,-0.17119084369280244]",100.0,"[-0.12761232294722405,0.13408007604514588]",100.0,"[0.02,0.02]",138.713,0.0,26.0,26.0,65.0,1.0,,,,,,,
,,,,,,,672adb2909ca72744f212a7d,684395e6ae8bb79da192d28c,2025-06-06_18h29.32.372,shape_ratio,2024.1.5,MacIntel,59.95203837,6842b561977af9ba9b0f87ca,,,,,,,,,,,138.713,139.213,,,139.464,140.398,right,0.919,,,,,,,,,0.5,,,,,,139.213,139.463,140.398,"[0.04810753305251919,-0.08632582296223085]",4.0,"[-0.06738060747009926,0.04042443724072664]",100.0,"[-0.0804024935758985,0.09888083017525892]",4.0,"[0.0042822722852110355,0.002920927846913745]",4.0,"[-0.013038187944115022,0.047607780215970556]",100.0,"[-0.09454019449106059,-0.04767245308825721]",100.0,"[-0.02380477384322858,-0.1717482306525038]",100.0,"[0.1437180630459644,-0.05194513790625476]",4.0,"[0.018342031252585864,-0.041998880835192084]",4.0,"[-0.05156055700914543,0.1452117306261845]",4.0,"[0.0044342859294489384,0.11451670619509718]",4.0,"[-0.1246923420005988,-0.11892526862758258]",100.0,"[0.11157552944233741,0.07654464393069646]",4.0,"[0.0711162198881852,0.07998345782391807]",4.0,"[-0.07233719660690001,0.1808371442970309]",4.0,"[0.15701932180568504,0.089108792491163]",100.0,"[0.08755788411674138,0.16562749270207947]",100.0,"[-0.07564878397902955,-0.0910240781414374]",100.0,"[0.11180674634312994,-0.12333826165065274]",100.0,"[0.17668246819074523,0.0302629315584764]",4.0,"[-0.15885727008429362,0.036676143480335294]",100.0,"[-0.06601680461856126,-0.18108719995836095]",100.0,"[-0.15040665138617626,0.11540941984868958]",4.0,"[0.08557038625653292,-0.019109772767843734]",4.0,"[0.03608392290661846,0.15694331758034272]",100.0,"[-0.11122678273281841,0.062075952829492846]",4.0,"[0.09461697298999591,0.03225007463136163]",100.0,"[-0.14476409891256306,-0.036370687584908815]",100.0,"[-0.1900476956157286,-0.011471024118357055]",100.0,"[-0.012204371697782612,-0.10515241067966241]",4.0,"[0.06820821618146583,-0.16649855207250222]",4.0,"[0.17553767592591224,-0.01983437711203415]",100.0,"[0.02,0.02]",141.498,0.0,27.0,27.0,119.0,1.0,,,,,,,
,,,,,,,672adb2909ca72744f212a7d,684395e6ae8bb79da192d28c,2025-06-06_18h29.32.372,shape_ratio,2024.1.5,MacIntel,59.95203837,6842b561977af9ba9b0f87ca,,,,,,,,,,,141.499,141.997,,,142.248,142.832,right,0.579,,,,,,,,,0.9,,,,,,141.997,142.248,142.832,"[0.04811742814616333,-0.18144104682572426]",100.0,"[-0.014372261396006263,-0.07254367689799077]",100.0,"[-0.11090717296137696,-0.14469286463042014]",100.0,"[-0.04246195445242064,-0.14390572851461145]",100.0,"[-0.017429736929258702,0.09283029807929172]",100.0,"[0.13003613195511876,-0.0007308652408715109]",100.0,"[-0.10392568492216417,-0.011864989707792564]",100.0,"[0.17583331529855664,0.060783554460975435]",100.0,"[-0.02418453665571878,0.1625844465152296]",100.0,"[0.020391330013217048,0.11506815744560421]",100.0,"[0.15877197667974793,-0.08270044325618789]",100.0,"[0.038062776328761205,-0.03831946072764359]",100.0,"[-0.1492605652132165,-0.03789416765750228]",100.0,"[-0.05238682943571242,0.021594695452412865]",100.0,"[0.056692746631683916,0.1856239470852247]",100.0,"[-0.0958661043179551,-0.0988366735431343]",100.0,"[0.0011882793923607329,0.055068374911950255]",100.0,"[0.1561540055059708,-0.037449328208570214]",100.0,"[0.19494196588758508,0.0010017437970986844]",100.0,"[-0.19731044590148067,0.0017579149701742864]",4.0,"[-0.04090474962442977,-0.19467195932421522]",100.0,"[-0.11533171537119091,0.05600156333962325]",100.0,"[0.10481509210914781,-0.05025913504385058]",4.0,"[0.0476524895047177,0.05499925136676306]",100.0,"[0.050227773834994945,-0.11088308322674077]",100.0,"[-0.0802408420127743,0.11659805461730213]",100.0,"[-0.0312727399373067,-0.03181673344912746]",100.0,"[0.11200727796161498,-0.1502002071259587]",100.0,"[0.06246215740559807,0.10017198171322568]",4.0,"[0.058947815619329366,0.0055062383836057245]",100.0,"[0.014155449764692353,0.18526170927772284]",100.0,"[-0.15304853308384947,-0.07904796243845465]",100.0,"[0.02,0.02]",143.93,0.0,28.0,28.0,6.0,1.0,,,,,,,
,,,,,,,672adb2909ca72744f212a7d,684395e6ae8bb79da192d28c,2025-06-06_18h29.32.372,shape_ratio,2024.1.5,MacIntel,59.95203837,6842b561977af9ba9b0f87ca,,,,,,,,,,,143.932,144.43,,,144.68,145.564,left,0.871,,,,,,,,,0.1,,,,,,144.43,144.68,145.564,"[-0.159711210426431,-0.01434670824210781]",4.0,"[-0.10041867538831663,-0.04061656729771688]",4.0,"[0.13228477116361295,0.09604169977480163]",4.0,"[0.04532936731587863,0.04034248344696659]",4.0,"[0.037418513592675395,0.14704576331237587]",4.0,"[-0.04739082292342838,0.05993934788798533]",4.0,"[0.16271939893600418,-0.03854817054530061]",4.0,"[0.08166454606745743,-0.07458035051092256]",4.0,"[0.1661410290300244,0.006830551935024139]",4.0,"[-0.08040115187844575,-0.08012162312860395]",4.0,"[-0.09555174957396162,0.007789299898347046]",4.0,"[0.10348274780445069,0.020347760063651008]",100.0,"[-0.006238004511462944,0.11187869398977171]",4.0,"[0.11819164121564982,0.13450225634801458]",4.0,"[0.16150270134541087,-0.08458456400436763]",4.0,"[-0.13912272343362886,0.1290340278569188]",4.0,"[-0.09238442711853624,0.06225058172205455]",4.0,"[0.0761010301785073,0.0859165504581782]",4.0,"[0.0018122079555901685,0.1973512604470865]",4.0,"[0.05285066066220705,-0.03344329422442554]",4.0,"[-0.01743379578690341,-0.0827888919626948]",4.0,"[-0.05062293951224274,-0.19191279435490793]",4.0,"[0.060241000403238806,-0.16439814390983365]",4.0,"[-0.16489071688846213,0.07538572306055791]",4.0,"[0.02125316470670972,-0.18304502147910606]",4.0,"[0.1079121848934877,-0.16009441532321164]",4.0,"[0.03025396594898454,-0.11768280382482574]",4.0,"[-0.1179009766484163,-0.09516987702630444]",4.0,"[0.013835555226288758,-0.05024054284012759]",100.0,"[0.0317389705814313,0.0835035873151396]",100.0,"[-0.09041034039448466,0.14231388418926366]",4.0,"[-0.0070879004847549665,0.002738724336581853]",4.0,"[0.02,0.02]",146.664,0.0,29.0,29.0,206.0,1.0,,,,,,,
,,,,,,,672adb2909ca72744f212a7d,684395e6ae8bb79da192d28c,2025-06-06_18h29.32.372,shape_ratio,2024.1.5,MacIntel,59.95203837,6842b561977af9ba9b0f87ca,,,,,,,,,,,146.665,147.164,,,147.415,148.83,right,1.402,,,,,,,,,0.4,,,,,,147.164,147.415,148.83,"[0.15362251753368023,0.05488726340641455]",4.0,"[0.09035689896607893,0.14437427425855098]",4.0,"[-0.15835395776074937,-0.11549456204213612]",4.0,"[0.06639026144075677,-0.16092789208965952]",100.0,"[0.07806833986177487,0.052576831345716536]",100.0,"[-0.03999550503188735,-0.1105537783731453]",4.0,"[-0.07375630067100919,-0.083890575832574]",4.0,"[0.0012455103775088883,0.0681974499824388]",4.0,"[0.025136746070353117,0.026278117287093575]",100.0,"[-0.10519749750778584,-0.1234736626218696]",100.0,"[-0.11752582468621861,0.10251256973308986]",4.0,"[0.11164974241515281,0.10175154300723137]",4.0,"[-0.10046973808857461,-0.16565986642542557]",100.0,"[-0.05031113975401262,-0.036889733101558284]",4.0,"[0.14071183372136126,-0.13343446740847995]",4.0,"[-0.026718125763230124,0.13876584886487248]",4.0,"[-0.15843021006310512,0.02135750761310937]",100.0,"[0.05596816731552604,0.11870965255451343]",100.0,"[-0.037840098697504015,0.180474258001057]",4.0,"[0.06289156897262502,0.18062743205286924]",100.0,"[-0.19445314215296133,-0.011241700545372837]",100.0,"[0.11670790694610353,0.0007800637630728481]",4.0,"[0.017335865121269046,-0.08249978009576202]",4.0,"[-0.164404394563363,0.10252873344237147]",100.0,"[-0.1110210014282565,-0.04825904910922514]",4.0,"[0.18610589631482338,-0.07194308279992204]",4.0,"[0.09999967009035421,-0.06689901512567036]",100.0,"[0.06794780253255774,-0.10345044081355513]",4.0,"[0.06089273679569865,-0.014028719618854477]",4.0,"[0.1783801436318309,-0.01968482907286412]",100.0,"[-0.08775450852504829,0.17326914252280814]",100.0,"[-0.03351257277115468,0.004950128226131168]",4.0,"[0.02,0.02]",149.93,0.0,30.0,30.0,159.0,1.0,,,,,,,
,,,,,,,672adb2909ca72744f212a7d,684395e6ae8bb79da192d28c,2025-06-06_18h29.32.372,shape_ratio,2024.1.5,MacIntel,59.95203837,6842b561977af9ba9b0f87ca,,,,,,,,,,,149.931,150.429,,,150.68,151.347,left,0.655,,,,,,,,,0.1,,,,,,150.429,150.68,151.347,"[-0.056792049629951664,-0.047214921319036506]",4.0,"[0.01614626054801965,0.08838502074038938]",4.0,"[0.010185927734429301,-0.016658337225018964]",4.0,"[-0.06457800433130646,0.11519323287135087]",4.0,"[-0.021337545772062764,0.19024944075980987]",4.0,"[-0.1006074086039852,-0.031718107987621584]",4.0,"[-0.05587829549297433,-0.17721427803503664]",4.0,"[0.10772872917914571,0.15886281365469676]",4.0,"[-0.1308647973935024,-0.10127239489028964]",4.0,"[0.07876203322148229,-0.037389333250933646]",4.0,"[0.08932904511179574,0.06995102026925673]",100.0,"[0.13328583296599172,0.059558851242007986]",4.0,"[0.01559873312096438,0.16967709273437948]",4.0,"[-0.004723024142364875,-0.11427703815921388]",4.0,"[-0.16231620361817864,0.09336234128514667]",4.0,"[-0.07242843479603467,0.051927131192990666]",4.0,"[0.03127923376047579,-0.187091209091547]",4.0,"[0.06151194561945704,-0.14271705977446464]",100.0,"[-0.19014609562660562,0.05200772699457978]",4.0,"[0.1722032646622975,-0.09978555172302325]",4.0,"[0.11205296187164589,-0.13531200637790863]",4.0,"[-0.016693659486540665,0.033881641341525257]",4.0,"[0.05276409652631793,0.04867989466017756]",4.0,"[-0.05001939156340643,-0.10373198729733361]",100.0,"[0.17867015823082966,-0.038397270523579066]",4.0,"[0.13824258762973135,0.1025242102475946]",4.0,"[-0.04446388583212881,0.15354998770863196]",4.0,"[0.18910390461271218,0.028053696767598803]",4.0,"[-0.17238799540826089,-0.0007876818950056982]",4.0,"[0.031039338912794097,-0.0538998039642541]",4.0,"[-0.15229812310556892,-0.05978777380093005]",4.0,"[-0.11417217837829056,0.08256773415642644]",4.0,"[0.02,0.02]",152.447,0.0,31.0,31.0,194.0,1.0,,,,,,,
,,,,,,,672adb2909ca72744f212a7d,684395e6ae8bb79da192d28c,2025-06-06_18h29.32.372,shape_ratio,2024.1.5,MacIntel,59.95203837,6842b561977af9ba9b0f87ca,,,,,,,,,,,152.448,152.947,,,153.198,153.913,right,0.702,,,,,,,,,0.55,,,,,,152.947,153.198,153.913,"[0.14334332697297697,0.11234262827454375]",4.0,"[-0.1593321440942419,-0.05475923869395935]",100.0,"[-0.04515899432550768,-0.15763669947267478]",4.0,"[0.02886440497425411,0.14407582622813325]",100.0,"[0.0924355685248915,0.056628178902498806]",4.0,"[-0.1241548709358609,0.03873220423850932]",4.0,"[0.017000766876023043,0.02680734890545719]",100.0,"[0.16722805336224073,0.04339499269190346]",4.0,"[-0.0787968244487683,0.0021568700220787862]",100.0,"[-0.07209388641195229,0.1550318734521251]",4.0,"[-0.03206238707217808,-0.006974744805901453]",100.0,"[0.0931416139623641,0.1720707224432157]",4.0,"[-0.1409573324412607,-0.09237966117010978]",4.0,"[0.11809116491861674,-0.02075691633687811]",4.0,"[0.05272949563686102,-0.16711036966752563]",100.0,"[0.05350942985971086,0.0932266426061869]",4.0,"[0.14979311376130455,-0.10752621395536437]",100.0,"[-0.010667976053367998,-0.18293641906657138]",4.0,"[0.15102973881225765,-0.06648157686648991]",100.0,"[0.03734399678376087,0.1956479728274539]",100.0,"[0.015243921228043331,-0.06508027094583482]",100.0,"[-0.09902091877529404,-0.143496496921371]",100.0,"[-0.057403342232174324,0.06286884293951155]",100.0,"[-0.06953712810046858,-0.11017461640233332]",100.0,"[0.12073667738702168,0.026627916619977397]",100.0,"[0.07255520854195899,-0.05752015465568461]",100.0,"[-0.1574790924079328,0.008832507729306702]",100.0,"[0.08347631816329058,0.1250240222128234]",100.0,"[0.038173731438499385,-0.018564146438566232]",100.0,"[-0.16058142473042475,0.10494350665223479]",4.0,"[-0.0036255398285005504,0.11936920738495703]",4.0,"[0.08580600556422138,0.0037553946424022026]",4.0,"[0.02,0.02]",155.014,0.0,32.0,32.0,69.0,1.0,,,,,,,
,,,,,,,672adb2909ca72744f212a7d,684395e6ae8bb79da192d28c,2025-06-06_18h29.32.372,shape_ratio,2024.1.5,MacIntel,59.95203837,6842b561977af9ba9b0f87ca,,,,,,,,,,,155.015,155.514,,,155.764,156.664,left,0.884,,,,,,,,,0.1,,,,,,155.514,155.764,156.664,"[0.14436956816322585,-0.07077719535253127]",4.0,"[0.04493333987599018,-0.12450264397625249]",4.0,"[-0.12001969588639912,0.0017626215870913985]",4.0,"[0.09841950721162114,-0.03810456089400526]",4.0,"[0.1355748675368235,-0.13672760597981262]",4.0,"[-0.13101313056734343,0.04485872145283942]",4.0,"[0.18011003627505992,0.04794022930843879]",4.0,"[-0.12003969912558186,-0.05202836636686283]",4.0,"[0.0034403578714015254,0.0823222556091903]",4.0,"[0.03388261235383121,0.15796898738081855]",4.0,"[-0.12644401355751586,0.1441433412893247]",4.0,"[-0.047065899863959405,0.16382592846279118]",100.0,"[-0.09128474276235245,0.09824550132524494]",4.0,"[-0.15389012122084642,0.07979336880771781]",4.0,"[-0.03477860693333316,-0.017071503755650357]",100.0,"[-0.0389061275715511,-0.1960744808203715]",4.0,"[-0.04222943475498853,0.10411336271147777]",4.0,"[0.0714297973832792,-0.07779495632717563]",4.0,"[0.18106151013942037,-0.028040990781321516]",4.0,"[0.10232672094700511,0.036988901769036464]",4.0,"[-0.15113126134701974,-0.09439703820510831]",4.0,"[-0.028204104135806686,0.025031645329455645]",4.0,"[0.06440688011149627,-0.17282182362665396]",4.0,"[0.155141967353344,0.11956910448738073]",4.0,"[0.04658430341465963,0.04650789364202499]",4.0,"[0.00830693137150782,-0.19707437627356464]",4.0,"[-0.037096573903259066,-0.06116885283902838]",4.0,"[0.14058308404441014,-0.00106128593782923]",100.0,"[-0.07731509993220427,-0.05680062240628493]",4.0,"[-0.02095799207981883,-0.15922183460122746]",4.0,"[0.0930683833177604,0.08378997522976293]",4.0,"[-0.16516129087795567,0.02213357602086332]",4.0,"[0.02,0.02]",157.764,0.0,33.0,33.0,192.0,1.0,,,,,,,
,,,,,,,672adb2909ca72744f212a7d,684395e6ae8bb79da192d28c,2025-06-06_18h29.32.372,shape_ratio,2024.1.5,MacIntel,59.95203837,6842b561977af9ba9b0f87ca,,,,,,,,,,,157.764,158.263,,,158.514,159.429,left,0.904,,,,,,,,,0.1,,,,,,158.263,158.514,159.429,"[-0.059307657584897554,-0.02141295742902859]",4.0,"[-0.08142360083050322,-0.16186750480189804]",4.0,"[0.1183821862390932,-0.149582968477155]",4.0,"[0.009214432292020963,-0.06479586353655821]",4.0,"[0.10273783985890732,0.10764941298625563]",4.0,"[0.14617084140569225,0.08424878418323176]",4.0,"[0.06935320570455214,-0.1437133849232647]",4.0,"[0.05695801046564088,0.09202430480881059]",4.0,"[-0.15955599890357225,-0.12047032909690589]",4.0,"[0.00668493813813,0.1146080282841507]",4.0,"[-0.010310911122127396,-0.1884282928534696]",4.0,"[-0.07888736020268172,-0.10945079685540354]",4.0,"[-0.07393243857698224,0.14091115495017228]",4.0,"[-0.12217673043232838,0.03133108857270365]",4.0,"[-0.016452275166586303,-0.0002602456804658886]",4.0,"[-0.02543446005455779,0.049952829570756634]",4.0,"[-0.16061535632435572,0.05013679925017887]",4.0,"[-0.012079316970487966,-0.13272598374511763]",100.0,"[0.15582249389644684,-0.02789732305322045]",4.0,"[-0.04167305515563997,0.17231636831060926]",100.0,"[0.18523467864648058,-0.06469615848585643]",4.0,"[0.15031009260507122,-0.08613843429566911]",4.0,"[0.10504897508949103,-0.07702039710429573]",4.0,"[-0.12429593219469752,0.15123651897910143]",4.0,"[0.028238196104573236,-0.1622730146295784]",4.0,"[0.06349942309792304,0.045320740703273174]",100.0,"[-0.18112026736717962,-0.04611270670834399]",4.0,"[0.03508781317016357,-0.002874020913096645]",4.0,"[-0.17077344126090016,0.096960595562181]",4.0,"[0.14814535002954438,0.01970006584534363]",4.0,"[0.05569269683262622,-0.05773546997878416]",4.0,"[0.03814807255677618,-0.09888343744857407]",4.0,"[0.02,0.02]",160.53,0.0,34.0,34.0,186.0,1.0,,,,,,,
,,,,,,,672adb2909ca72744f212a7d,684395e6ae8bb79da192d28c,2025-06-06_18h29.32.372,shape_ratio,2024.1.5,MacIntel,59.95203837,6842b561977af9ba9b0f87ca,,,,,,,,,,,160.533,161.03,,,161.28,161.747,right,0.452,,,,,,,,,0.9,,,,,,161.03,161.28,161.747,"[-0.11071857160483577,0.10533743428688298]",100.0,"[0.1331008445095266,-0.03244319336817826]",100.0,"[-0.02550790196852035,0.16137609783763254]",100.0,"[0.02316270590711508,-0.04155675493605624]",100.0,"[0.17052496840639506,0.023231468777850234]",100.0,"[-0.1610052966794611,-0.027224363656806933]",100.0,"[-0.11337940537587055,-0.1328224343503784]",100.0,"[0.04124674246660114,0.1923290252206765]",100.0,"[-0.1489429358287215,0.057412381452341066]",100.0,"[-0.06647997590888549,-0.09097023128340127]",100.0,"[0.0729061423473074,-0.06530618114575996]",100.0,"[-0.0981889598285289,0.0597925314353075]",100.0,"[-0.02842171621275341,0.013726796044297633]",100.0,"[0.003375723523835571,-0.15208859378933554]",100.0,"[0.08523429829824382,0.12481002512591768]",100.0,"[0.14013280541619677,0.1022415683304447]",100.0,"[-0.1585154737575364,-0.07270842172563949]",100.0,"[-0.0371704753934331,0.08656962925447008]",100.0,"[-0.16876542201963882,0.01868020025708429]",100.0,"[0.12655026150711876,0.030993953320099903]",100.0,"[-0.1179389222820905,-0.08848667046336534]",100.0,"[-0.07080356720210981,0.11163994769998073]",100.0,"[-0.08834145407310903,-0.164460394555412]",100.0,"[0.027543601926212788,0.00337187943351297]",100.0,"[0.11291138254045241,-0.10047358250649542]",100.0,"[-0.10800968996176107,-0.035546084796630115]",100.0,"[-0.06458376355728561,0.1760860940720682]",100.0,"[0.07203982031143377,-0.18140571643633926]",4.0,"[-0.02039530335406554,-0.08896027893208751]",100.0,"[-0.06059258467420086,-0.1316478729997637]",100.0,"[-0.1441457911288434,0.1274606323526797]",4.0,"[-0.1268884811881228,0.00694194829824462]",4.0,"[0.02,0.02]",162.846,0.0,35.0,35.0,17.0,1.0,,,,,,,
,,,,,,,672adb2909ca72744f212a7d,684395e6ae8bb79da192d28c,2025-06-06_18h29.32.372,shape_ratio,2024.1.5,MacIntel,59.95203837,6842b561977af9ba9b0f87ca,,,,,,,,,,,162.847,163.347,,,163.596,164.247,right,0.638,,,,,,,,,0.5,,,,,,163.347,163.596,164.247,"[0.017691970011413247,-0.0148267522313117]",100.0,"[0.13736021927911493,0.06087766555508029]",4.0,"[-0.01677255662674175,-0.1557471967017445]",4.0,"[0.16503145986932696,0.10798126186727226]",100.0,"[-0.060987998886803035,-0.0657511726319487]",100.0,"[-0.1762053599533918,-0.07788940774642523]",4.0,"[0.021255438160853683,0.12338177809531613]",100.0,"[-0.11502631757046194,0.10284644007927923]",4.0,"[-0.005433032659548269,-0.0896131735815135]",4.0,"[-0.12490555384546602,-0.14530598347175736]",100.0,"[0.1495465572787296,-0.07824611833791136]",100.0,"[-0.053911033282725895,0.12802849216809967]",100.0,"[-0.005505490193705146,0.18575122500164137]",4.0,"[-0.03808464386500871,0.011902880193554979]",100.0,"[0.11968609218563762,0.14405014472030633]",100.0,"[-0.16168112580709687,0.0959626816529899]",100.0,"[0.036602395679827336,-0.1406296608397259]",4.0,"[-0.18874561249178615,0.04056509945326918]",4.0,"[0.0937961234074686,-0.08705632257421705]",4.0,"[-0.1781675388180583,-0.026893185187657046]",100.0,"[-0.11239582897097539,0.16192048019604927]",4.0,"[0.08515386904770524,0.08105192263408237]",100.0,"[0.18593561332688044,0.04423021054829005]",4.0,"[0.08190986378985773,0.16380187957981054]",4.0,"[-0.059558710500626076,-0.1738311268789812]",4.0,"[0.1842075375912344,-0.007319359894422976]",4.0,"[-0.13130031710776924,0.02549258139488854]",100.0,"[0.13572870240355092,-0.13962127687581447]",100.0,"[0.024460128231708782,0.08052086250038933]",100.0,"[-0.0016403187277211366,-0.19752606386749022]",4.0,"[0.014900113124386667,0.038961993467063985]",4.0,"[-0.07335033863287148,-0.017258911678033256]",100.0,"[0.02,0.02]",165.347,0.0,36.0,36.0,105.0,1.0,,,,,,,
,,,,,,,672adb2909ca72744f212a7d,684395e6ae8bb79da192d28c,2025-06-06_18h29.32.372,shape_ratio,2024.1.5,MacIntel,59.95203837,6842b561977af9ba9b0f87ca,,,,,,,,,,,165.348,165.846,,,166.098,166.847,right,0.736,,,,,,,,,0.45,,,,,,165.846,166.097,166.847,"[0.022331256597880912,0.049703034462727405]",100.0,"[-0.11906082113216859,0.10251007537210018]",4.0,"[0.08275378417628945,-0.12908382089943796]",100.0,"[0.08281002521836334,0.08630870651644411]",100.0,"[-0.0970470995338964,-0.14739163721276996]",4.0,"[-0.0511013184686802,0.045091981277678904]",100.0,"[-0.1489274860047845,0.07276498787597328]",100.0,"[-0.18778740576439276,-0.058034589497416515]",100.0,"[0.12614060145864245,-0.024385888090304734]",4.0,"[-0.1604735614366093,0.011306632244161825]",100.0,"[-0.061918045753449495,0.12973758334717778]",4.0,"[-0.12034176595862559,0.04051625111841564]",4.0,"[0.039436920411560564,0.17008088712694147]",100.0,"[0.0035647565305048316,-0.14099631695486384]",4.0,"[0.03378387079385277,-0.08833249299105032]",100.0,"[-0.014498093869258323,-0.1815082833546326]",100.0,"[-0.06103542466761043,-0.0012629019827904737]",4.0,"[0.17578347537421296,0.0033450166244303947]",100.0,"[0.13360152004524492,-0.11729610303235614]",100.0,"[0.04242946138149304,-0.03156534122912587]",4.0,"[-0.018408893322496823,0.018212004870186517]",4.0,"[0.16125163366165315,-0.07027853955743506]",4.0,"[-0.03654927374576006,-0.084222968835051]",4.0,"[0.17983745525594183,0.07867058563361186]",4.0,"[0.12704506349178038,0.11990664268595676]",4.0,"[0.15917165995950208,0.04111026890597751]",4.0,"[-0.06349405315579784,-0.0498106966072329]",4.0,"[-0.03168104730932428,0.1028178761304352]",4.0,"[-0.11847252606538676,-0.07869180795969812]",4.0,"[-0.13899317221732177,-0.04016686565956424]",100.0,"[0.11988145929224303,0.06605738965151663]",4.0,"[-0.017464241428230526,0.18693682047061577]",100.0,"[0.02,0.02]",167.949,0.0,37.0,37.0,147.0,1.0,,,,,,,
,,,,,,,672adb2909ca72744f212a7d,684395e6ae8bb79da192d28c,2025-06-06_18h29.32.372,shape_ratio,2024.1.5,MacIntel,59.95203837,6842b561977af9ba9b0f87ca,,,,,,,,,,,167.952,168.447,,,168.697,169.431,right,0.719,,,,,,,,,0.5,,,,,,168.447,168.697,169.431,"[0.05393834769936843,0.10672618661074436]",100.0,"[0.036594581752422514,-0.09549874537810987]",100.0,"[0.06994178478744453,0.1801883303389132]",100.0,"[0.12588495316366288,0.09783506297179219]",4.0,"[-0.03737687610663319,-0.15543606650081335]",100.0,"[-0.10972618127842153,0.06881489862994943]",4.0,"[-0.03705379630195396,-0.0871707612973865]",4.0,"[-0.0039440005072970226,0.06975303361322904]",4.0,"[-0.13888000315237772,-0.06615270903598826]",100.0,"[0.17802321481732175,-0.028773471192575863]",4.0,"[-0.17296677451211928,-0.025195460364288692]",100.0,"[-0.01805679341942718,0.15821242128787877]",4.0,"[-0.04956199819715191,-0.030054411358888845]",4.0,"[0.12498145652903285,0.13865649554037796]",100.0,"[-0.09005176296930248,-0.16305182938214405]",100.0,"[0.07605159835464423,-0.18169937418454513]",4.0,"[-0.1312619457896582,0.0023393839322086436]",4.0,"[-0.15577928560798804,0.06381515553928636]",4.0,"[-0.05281761764289581,0.06020921392250732]",100.0,"[0.12127610543534417,-0.1290104512031732]",100.0,"[0.06025265246307925,-0.014770405576346715]",100.0,"[0.08030560770656123,-0.10759410143425402]",100.0,"[0.021994070742884553,-0.05604135797754202]",4.0,"[0.007102694097307001,-0.013668065925701531]",100.0,"[-0.08176103429271193,-0.06277791720801267]",100.0,"[-0.16782708552780884,-0.09526380401937803]",100.0,"[-0.08907588163942147,-0.12073277601101393]",4.0,"[0.03323743859990668,0.018649878932179616]",4.0,"[0.14883668578136589,0.03160318047953233]",100.0,"[-0.09352889578746529,0.12838238599269447]",4.0,"[0.034494635258828,-0.15496258061780935]",4.0,"[0.06758007367205182,-0.06440228767824477]",4.0,"[0.02,0.02]",170.53,0.0,38.0,38.0,104.0,1.0,,,,,,,
,,,,,,,672adb2909ca72744f212a7d,684395e6ae8bb79da192d28c,2025-06-06_18h29.32.372,shape_ratio,2024.1.5,MacIntel,59.95203837,6842b561977af9ba9b0f87ca,,,,,,,,,,,170.532,171.03,,,171.28,172.412,left,1.123,,,,,,,,,0.45,,,,,,171.03,171.28,172.412,"[0.1001487060043125,-0.028814053711270573]",4.0,"[-0.1190557356513162,0.048943561666026036]",4.0,"[-0.06275233549856536,0.07998797159981266]",100.0,"[0.13612378771626532,0.023104028080403224]",100.0,"[-0.158201913523698,-0.043239142986597194]",100.0,"[0.15838355386464334,0.0915540872273153]",4.0,"[-0.012705625744822958,0.17073116071287026]",4.0,"[0.04308559831047393,-0.05471856300281797]",100.0,"[-0.017947736795652428,0.011579085557491374]",4.0,"[0.025828927313255406,-0.19156412256838456]",100.0,"[0.008131999254905205,-0.1010174952952196]",100.0,"[-0.08759731647759844,0.0074654383801241505]",4.0,"[-0.0776214921103789,-0.1568246266669819]",4.0,"[0.07868001693019323,-0.17759832042417878]",100.0,"[0.11410691584714781,-0.10016330730435193]",100.0,"[0.05172099191753701,0.17440765695606616]",4.0,"[-0.19662887831067025,0.0346584260143718]",4.0,"[0.13016862928787576,0.12871447570463268]",100.0,"[-0.07389971862084327,0.16938316426349811]",100.0,"[0.16102929522873088,-0.04977058828292186]",100.0,"[-0.1642702710518894,-0.09627410388093288]",4.0,"[-0.13743282305448223,0.1367308205941293]",100.0,"[-0.09405683647181638,-0.10421550040912599]",4.0,"[-0.097781417179901,0.12248205421942253]",100.0,"[0.015232582864510794,-0.14058628140118595]",4.0,"[-0.0023085633999093812,0.08349833932438497]",4.0,"[-0.15784611269147394,0.07119197136295605]",4.0,"[0.07315622317437039,-0.11551091808636897]",4.0,"[-0.04659127058961474,0.13380658181947902]",4.0,"[-0.14395561418527794,-0.1310614708355251]",4.0,"[0.014510072869449223,0.036177166983194044]",4.0,"[0.1746107367847366,0.03421412744030996]",100.0,"[0.02,0.02]",173.513,0.0,39.0,39.0,133.0,1.0,,,,,,,
,,,,,,,672adb2909ca72744f212a7d,684395e6ae8bb79da192d28c,2025-06-06_18h29.32.372,shape_ratio,2024.1.5,MacIntel,59.95203837,6842b561977af9ba9b0f87ca,,,,,,,,,,,173.515,174.014,,,174.264,174.88,right,0.607,,,,,,,,,0.5,,,,,,174.014,174.264,174.88,"[0.140038387246818,-0.023656156499021003]",100.0,"[-0.1188881296449892,0.0909233374812]",4.0,"[0.0667889568342839,0.05391931200212077]",4.0,"[0.040461848440512774,0.19379094805032665]",100.0,"[-0.04438394858354195,-0.021272823779997715]",4.0,"[-0.12337777770605216,0.0180249354613931]",100.0,"[0.06448990980325753,-0.056596742719393196]",4.0,"[-0.06679832400199805,-0.08802650378454338]",100.0,"[0.16780499319240516,0.08439052772006271]",100.0,"[0.011292023905759346,0.14385052755713496]",100.0,"[-0.07378956664626389,0.15124212273764268]",4.0,"[0.021317387033355874,-0.06746747497515967]",4.0,"[0.023221749593883557,0.03250802214726094]",4.0,"[-0.10036760469778087,-0.055021045880122056]",4.0,"[-0.147382467709371,0.05823379957268443]",100.0,"[0.10952188427313139,0.15930020620620666]",4.0,"[-0.03619064830475498,-0.184865521114379]",100.0,"[0.11565523950618876,-0.1560642907415501]",4.0,"[-0.018861352405934954,-0.06414780561048174]",4.0,"[-0.06822671990199215,0.014352100201616199]",4.0,"[0.10797167555665671,-0.10003757678293165]",100.0,"[-0.19863362906396465,0.012513326395345014]",4.0,"[-0.14764714319396707,-0.05233117058995969]",4.0,"[-0.13177455264036012,-0.11941294947792534]",100.0,"[0.0908138254373556,-0.0008384585858913495]",100.0,"[-0.00804394570820176,0.10222300867477713]",100.0,"[-0.07809689598782603,0.06837649999495062]",100.0,"[-0.09351001160101122,-0.1319243463701913]",4.0,"[0.10481657746177403,0.09651237108979721]",100.0,"[0.05163783638793227,0.13766772155584797]",100.0,"[0.049186258974796435,-0.1485169133272788]",100.0,"[0.15636357652446617,-0.08271193353296384]",4.0,"[0.02,0.02]",175.98,0.0,40.0,40.0,111.0,1.0,,,,,,,
,,,,,,,672adb2909ca72744f212a7d,684395e6ae8bb79da192d28c,2025-06-06_18h29.32.372,shape_ratio,2024.1.5,MacIntel,59.95203837,6842b561977af9ba9b0f87ca,,,,,,,,,,,175.982,176.48,,,176.73,177.396,right,0.652,,,,,,,,,0.4,,,,,,176.48,176.73,177.396,"[-0.02386040354135507,0.010076780898779093]",100.0,"[-0.016289587140605764,-0.03583383161918254]",4.0,"[-0.09973080332632814,0.05146411051371726]",100.0,"[0.10073155692677109,0.11096603295126878]",100.0,"[0.10522111629733691,-0.013857148716236197]",4.0,"[-0.0725223428466043,0.155148197893458]",4.0,"[0.0961304660532989,-0.12949544820068376]",100.0,"[0.1319849048536751,0.13769032893315722]",4.0,"[0.000983538626281032,-0.18485455476126686]",4.0,"[-0.15067778336612678,0.04713135750561405]",4.0,"[0.12822174437796152,-0.06691269931729292]",4.0,"[0.05649049229050628,-0.14639520372682652]",100.0,"[0.06914457760439556,0.07951135377743783]",4.0,"[0.17059534511413796,-0.01318087126422264]",4.0,"[0.16023444568145268,0.048517278103802325]",100.0,"[0.028675428365022456,-0.10813511927831856]",4.0,"[-0.02717455942583676,0.15650005317605503]",4.0,"[0.029107055771641858,0.025929000230635973]",4.0,"[-0.13925793486542892,-0.04005996168499048]",100.0,"[0.016994833640639282,0.11150432494145202]",4.0,"[0.14753231863654373,-0.12243130084481971]",4.0,"[-0.06359919165628246,-0.0678258617647769]",100.0,"[0.06295653937063093,-0.07020905051098683]",100.0,"[-0.1297965348990069,-0.09313261449128768]",100.0,"[-0.10484734383505995,0.008620588823243406]",4.0,"[0.07737441652557417,0.17868608201744415]",100.0,"[-0.07671317339276001,-0.17674904117815993]",4.0,"[0.031849205662830074,-0.01895960008287075]",4.0,"[-0.02543943515295609,-0.10235001032942802]",100.0,"[0.09485450530524375,0.0357482089572149]",4.0,"[0.019418024044153513,0.15243177578927036]",100.0,"[-0.1436759760392305,0.09442400143404844]",4.0,"[0.02,0.02]",178.497,0.0,41.0,41.0,177.0,1.0,,,,,,,
,,,,,,,672adb2909ca72744f212a7d,684395e6ae8bb79da192d28c,2025-06-06_18h29.32.372,shape_ratio,2024.1.5,MacIntel,59.95203837,6842b561977af9ba9b0f87ca,,,,,,,,,,,178.499,178.997,,,179.247,179.78,right,0.52,,,,,,,,,0.9,,,,,,178.997,179.247,179.781,"[-0.14326364574782594,-0.10572621120898253]",100.0,"[0.06922042769694937,0.15872899826483805]",100.0,"[0.12842904714474015,0.013373189679983435]",100.0,"[0.022481230886683728,-0.19872685575353746]",100.0,"[0.03883885136666573,0.05994520711920122]",100.0,"[-0.07880251361377509,-0.090221059335168]",100.0,"[-0.1089285451464801,0.052689413920039806]",100.0,"[-0.0863134582561222,-0.1319355971031131]",100.0,"[0.1714926508526631,0.05673800364660416]",100.0,"[-0.0717183360523141,-0.17455611096901394]",100.0,"[0.13188993455532477,-0.12255836656576007]",100.0,"[0.09292037268981285,0.06072201088641883]",100.0,"[0.16867999118202456,-0.022604360964121772]",100.0,"[-0.005441592378533965,-0.15693359554703173]",100.0,"[-0.04494261401036257,0.058901766790364095]",100.0,"[0.09260427923847193,-0.0876909650948978]",100.0,"[0.07225039002155773,0.10584756457613342]",100.0,"[-0.15958138617192458,0.09407530429766817]",100.0,"[0.03471415625036919,-0.015596795721636011]",4.0,"[-0.09344083532027049,0.1706152656045024]",100.0,"[-0.0014322210178207718,0.1754591545857331]",100.0,"[0.18813781010905783,-0.061853808841239435]",100.0,"[0.1365707770157488,-0.08265276000459142]",100.0,"[-0.08145653023444044,0.1155186863704698]",4.0,"[-0.0537953990325429,0.015884620806563096]",100.0,"[0.02375389750891036,-0.08618573098781018]",4.0,"[-0.14195640587164535,0.012730468619580597]",100.0,"[-0.12227660866424465,0.136049045154764]",100.0,"[0.11398769467717024,0.1544519945985587]",100.0,"[-0.023911523200118905,-0.19645352863770588]",100.0,"[0.06079845951959525,-0.15340226562282708]",100.0,"[-0.10015184344439702,-0.055828704914445935]",100.0,"[0.02,0.02]",180.88,0.0,42.0,42.0,15.0,1.0,,,,,,,
,,,,,,,672adb2909ca72744f212a7d,684395e6ae8bb79da192d28c,2025-06-06_18h29.32.372,shape_ratio,2024.1.5,MacIntel,59.95203837,6842b561977af9ba9b0f87ca,,,,,,,,,,,180.88,181.38,,,181.631,182.413,right,0.774,,,,,,,,,0.45,,,,,,181.38,181.631,182.414,"[0.02990483015221312,-0.08412937435436059]",100.0,"[-0.12112086857608055,0.1163801645757032]",100.0,"[0.1920767279358285,0.011275635749236715]",4.0,"[-0.14663060370510525,-0.048088840453060756]",4.0,"[0.056533792897770475,0.06451612454193938]",4.0,"[-0.12031889645498355,0.004962016669277681]",4.0,"[0.02497973966823662,-0.17800096152813463]",4.0,"[0.12934364386823846,0.13459278923693554]",4.0,"[0.16146023820966887,-0.04601197614797264]",4.0,"[0.09745890753996457,-0.003204395079085736]",4.0,"[0.10607191919741274,0.04698517119649425]",4.0,"[-0.14221209091725687,-0.12610112292894574]",100.0,"[0.043337137993407625,0.11818722819240614]",100.0,"[-0.013370207372452782,0.1414978718714337]",100.0,"[0.05124608691830157,0.015922709805812996]",100.0,"[-0.017400720471705006,-0.1548177542456161]",100.0,"[0.09380437404042875,-0.1132771648041967]",4.0,"[-0.03823880553734706,0.010428683602427291]",4.0,"[0.06533118316630837,-0.1545244259188583]",100.0,"[-0.05930803550156212,-0.02981906228378562]",4.0,"[-0.1044535389966328,-0.06482504930140075]",4.0,"[-0.07911353012831777,0.16073026711122498]",100.0,"[0.11682976815593285,-0.0528208895950552]",4.0,"[0.06628097255794226,0.17142646937791103]",4.0,"[0.13007774377676565,0.0840639843167231]",100.0,"[0.015134290435119378,0.19059773469526867]",100.0,"[-0.014174268608551855,-0.030808261863110618]",4.0,"[0.16961947625633536,-0.10553606259352041]",100.0,"[-0.05099171867760617,0.11136553525927591]",100.0,"[0.07475228759641608,-0.04808830411227675]",4.0,"[-0.19733266211816466,0.028551826722306814]",100.0,"[-0.10327767794395055,0.06917130885235763]",4.0,"[0.02,0.02]",183.513,0.0,43.0,43.0,131.0,1.0,,,,,,,
,,,,,,,672adb2909ca72744f212a7d,684395e6ae8bb79da192d28c,2025-06-06_18h29.32.372,shape_ratio,2024.1.5,MacIntel,59.95203837,6842b561977af9ba9b0f87ca,,,,,,,,,,,183.514,184.013,,,184.264,184.83,left,0.553,,,,,,,,,0.1,,,,,,184.013,184.264,184.83,"[-0.06954545085045559,0.16504442666362676]",4.0,"[-0.05996682109438513,-0.004483920873343183]",4.0,"[0.016807707269946872,0.05550840265071859]",4.0,"[0.11695584998603133,-0.03370385347855434]",4.0,"[0.06387586481398143,0.1565534745602788]",4.0,"[-0.10477398322407597,0.029721489615888178]",4.0,"[-0.02230475109015698,-0.0561377716749325]",4.0,"[0.027385580965393806,-0.07987863272006496]",4.0,"[-0.16311647757984762,0.03796542201826591]",4.0,"[-0.08041433045990887,0.09642322158161287]",4.0,"[0.019872290803257947,-0.13134814910070353]",4.0,"[0.06859505480144677,-0.01534557706762279]",4.0,"[0.08382809483939174,-0.1351418483791114]",4.0,"[-0.13713763863845166,-0.03308652378817222]",4.0,"[-0.1522763705324747,-0.08579128368006031]",4.0,"[0.12233812330992258,0.06354868445370285]",4.0,"[0.11327672846796495,0.019230159649280612]",4.0,"[-0.03383388079638508,0.049299080773514484]",4.0,"[-0.1275640242654644,-0.14291172511475617]",4.0,"[-0.008049698135659561,0.19512722027205154]",100.0,"[0.11853280176383352,-0.09455693176639944]",4.0,"[0.1929141743291291,0.006101854136081076]",4.0,"[0.07043461584997236,-0.07291478968520178]",4.0,"[-0.0779317138797265,-0.05036750771294549]",100.0,"[0.15096561188216964,0.12895601733361034]",4.0,"[-0.005070474249298384,0.01277028069713099]",4.0,"[-0.18922556208409558,0.0057772511987268516]",4.0,"[-0.12461799560293114,0.11816466311958315]",4.0,"[0.022617901599519832,0.11086885738411588]",4.0,"[-0.03246977796957908,0.13888220260249626]",4.0,"[0.16406192787861093,0.049737340871668846]",4.0,"[0.069597779990909,0.06725130047751703]",100.0,"[0.02,0.02]",185.93,0.0,44.0,44.0,196.0,1.0,,,,,,,
,,,,,,,672adb2909ca72744f212a7d,684395e6ae8bb79da192d28c,2025-06-06_18h29.32.372,shape_ratio,2024.1.5,MacIntel,59.95203837,6842b561977af9ba9b0f87ca,,,,,,,,,,,185.931,186.43,,,186.681,187.38,right,0.685,,,,,,,,,0.45,,,,,,186.43,186.681,187.38,"[0.002581179535976792,0.11269864883391448]",100.0,"[-0.18637272958370077,0.07141826104004921]",4.0,"[0.13646778598585968,-0.026358435207519976]",4.0,"[0.08018371604493532,-0.08664330793455796]",4.0,"[-0.07195345699586429,0.033603090641351974]",4.0,"[0.10736132536381976,0.06885717644722687]",100.0,"[-0.009790927117458569,-0.15369779246924217]",4.0,"[0.17209824070071666,-0.005160073350539691]",4.0,"[-0.14785435071774214,-0.1278676407200532]",4.0,"[0.1476182518083108,0.1314758751282963]",100.0,"[-0.03609300386104947,-0.11198446805333066]",4.0,"[0.04654328514343234,0.09478327314342738]",100.0,"[-0.1053195119421855,0.11806464420978148]",4.0,"[-0.061200371973444904,0.11025539599215899]",4.0,"[-0.03602692669272722,0.01581340200787896]",100.0,"[0.139220744779706,-0.06890339421271302]",100.0,"[-0.09288041247357758,-0.07000164461505226]",100.0,"[0.0812177256323132,0.008895659660344106]",4.0,"[0.07630977605514336,-0.042851188116986995]",4.0,"[0.07315379463439291,0.15806600460738973]",100.0,"[-0.1583198981036966,0.10890166933357859]",100.0,"[-0.1998149928211755,-0.003650130282660189]",100.0,"[-0.04602294527330781,0.15650990886749316]",4.0,"[-0.12208034367517252,-0.03887327947314736]",4.0,"[0.021039655079556813,-0.022999640007768902]",4.0,"[-0.1621992066804852,-0.04161609466295614]",4.0,"[0.033946334961349016,0.18784269646211965]",100.0,"[-0.08693757254937075,-0.12649783648876964]",100.0,"[0.1423140509189748,-0.12066830357325639]",100.0,"[-0.02351196764973353,-0.19327967840377072]",100.0,"[-0.06021510475151268,-0.04234096678695791]",4.0,"[-0.14320154481020292,0.04767046022477092]",4.0,"[0.02,0.02]",188.48,0.0,45.0,45.0,125.0,1.0,,,,,,,
,,,,,,,672adb2909ca72744f212a7d,684395e6ae8bb79da192d28c,2025-06-06_18h29.32.372,shape_ratio,2024.1.5,MacIntel,59.95203837,6842b561977af9ba9b0f87ca,,,,,,,,,,,188.482,188.98,,,189.231,189.946,right,0.698,,,,,,,,,0.5,,,,,,188.98,189.231,189.946,"[-0.08967327377621996,-0.1772822661268246]",100.0,"[0.020298365259679662,-0.06458938990346677]",4.0,"[0.167599103643698,0.09803558719221915]",4.0,"[0.12378023499139806,-0.0599059707302887]",100.0,"[0.03435961050052557,0.18809504955625636]",100.0,"[0.0966925864952282,0.01099014394215982]",4.0,"[0.15637467179439074,0.03182024483297447]",4.0,"[0.11457368126572261,-0.12164642962496884]",100.0,"[-0.04118078974967613,-0.04353007398996723]",100.0,"[0.07713944416582026,-0.18127419497850839]",4.0,"[-0.12158435008038054,0.018596311154957933]",4.0,"[-0.0809514544323933,0.12773556328248784]",4.0,"[-0.02059059836686154,-0.19423114962932292]",4.0,"[-0.04507535315710759,-0.1426120378397527]",4.0,"[-0.07630492391511155,0.008606534147405368]",4.0,"[-0.10894854244622125,0.06925759823414383]",100.0,"[0.08349712459623224,-0.08927386411449001]",100.0,"[0.05785689434059847,0.055728340028885825]",4.0,"[-0.10727215382542928,-0.0893659472224701]",4.0,"[0.022473574548661345,0.09640978522426064]",100.0,"[-0.16411860660054195,0.08174422117459716]",100.0,"[0.013668198989753124,-0.11427310726580274]",100.0,"[-0.19290927127022217,0.05132317768322583]",100.0,"[0.004628741709696638,0.1581272701243821]",4.0,"[0.021671556667563735,0.014787254280176517]",4.0,"[0.008820584890727554,0.05289532077133435]",4.0,"[0.11426443896521062,0.15125281607195593]",100.0,"[0.06264248638850035,0.11847269485773711]",100.0,"[-0.07001063038100679,0.058655675316218805]",100.0,"[-0.13857271162277882,-0.13300620468160715]",4.0,"[-0.043561545565474785,-0.08761739188864948]",100.0,"[0.10816078356473818,0.10264831937941495]",100.0,"[0.02,0.02]",191.047,0.0,46.0,46.0,98.0,1.0,,,,,,,
,,,,,,,672adb2909ca72744f212a7d,684395e6ae8bb79da192d28c,2025-06-06_18h29.32.372,shape_ratio,2024.1.5,MacIntel,59.95203837,6842b561977af9ba9b0f87ca,,,,,,,,,,,191.048,191.547,,,191.797,192.38,right,0.571,,,,,,,,,0.9,,,,,,191.547,191.797,192.38,"[0.1439595753498216,0.09598923179448215]",100.0,"[0.0037387216300231734,-0.09566567861118583]",100.0,"[0.07978727715587929,-0.10646635217620164]",100.0,"[0.041062011100553845,0.17644370987739807]",100.0,"[-0.027125243555857527,-0.03561648578393334]",100.0,"[-0.1173754016132668,-0.026817633496071414]",4.0,"[-0.07800084506257915,-0.10226239058215683]",100.0,"[-0.12505365734386903,-0.138199444579945]",100.0,"[0.0944346081133039,0.017717766812438217]",100.0,"[0.08381964555665415,0.16528675061929424]",100.0,"[0.08413580605845077,0.11532215080571404]",100.0,"[-0.05922707450885557,0.1640498723437651]",100.0,"[-0.017639209154797948,0.07082492345718089]",100.0,"[0.13280118905832583,0.040705038473044436]",100.0,"[0.046389834309599094,0.06605643206847239]",100.0,"[0.000598009484506457,0.1624661698059622]",100.0,"[-0.17982185471495107,-0.02845534118462025]",100.0,"[0.05713895988451814,-0.012653374473332951]",100.0,"[-0.06893033137319238,0.04473675225713552]",100.0,"[0.08907224585086543,-0.0429635577421648]",100.0,"[0.18936887205576622,-0.014908776334054786]",100.0,"[0.014134654621899756,-0.18075573120203262]",4.0,"[0.1307123983706492,-0.09577725104565579]",100.0,"[0.04073785430480719,0.10836446265837207]",100.0,"[0.04457517605138798,-0.06461156534078451]",4.0,"[-0.15578858133715792,-0.06377146797096976]",100.0,"[0.07259168927731027,-0.14818352891412764]",100.0,"[-0.06392512462776488,-0.18380640253949168]",100.0,"[0.12007426501479766,-0.15731058903666223]",100.0,"[-0.10745677342440112,0.15647421494357894]",100.0,"[-0.13913762361078322,0.026844131461027335]",100.0,"[-0.18930159394013674,0.04477013922778031]",100.0,"[0.02,0.02]",193.48,0.0,47.0,47.0,25.0,1.0,,,,,,,
,,,,,,,672adb2909ca72744f212a7d,684395e6ae8bb79da192d28c,2025-06-06_18h29.32.372,shape_ratio,2024.1.5,MacIntel,59.95203837,6842b561977af9ba9b0f87ca,,,,,,,,,,,193.482,193.981,,,194.23,194.713,right,0.473,,,,,,,,,0.45,,,,,,193.981,194.23,194.713,"[0.06902552311019217,-0.022917825501859713]",100.0,"[0.027021357404353012,0.18997997778470915]",4.0,"[-0.17104867826881162,-0.045943164705083375]",100.0,"[0.11010274292372706,-0.007772184671219677]",4.0,"[0.014184111149312716,0.03393347622563189]",4.0,"[0.15054426212790867,0.04089429037442476]",4.0,"[-0.07577794121983934,0.03392176548056197]",4.0,"[-0.10602171847510143,-0.14213832692679126]",4.0,"[0.08655166089819989,0.10765155755116317]",4.0,"[0.14588093219034584,-0.0817085075172807]",100.0,"[-0.12556530186470227,0.06471055111206893]",4.0,"[0.051183052844696035,-0.16839903222301747]",4.0,"[0.06507728208563635,0.04256120795991479]",100.0,"[-0.033506741644660436,-0.04066158053983579]",4.0,"[-0.06371946828378498,-0.07397906998320856]",4.0,"[-0.024205719579616446,-0.17247706614602928]",4.0,"[-0.043579724979662,0.17294300890131]",4.0,"[-0.08490543473397237,0.10075851196560472]",100.0,"[-0.11783819349294462,0.0058741646629096094]",100.0,"[0.14278381935920567,0.1273308244268373]",100.0,"[-0.12932526521958315,0.13326436506786749]",100.0,"[0.04607586578942329,0.13876683264930892]",4.0,"[-0.08508992287906625,0.15553470893468183]",100.0,"[0.08905026355273649,-0.0960045679826325]",4.0,"[0.0864220149541642,0.16267781169980072]",100.0,"[0.15487316502401255,0.08163129461057143]",100.0,"[0.10836127314260323,-0.05428964570462355]",4.0,"[-0.00434074027927715,0.1162424246368929]",100.0,"[0.10287754517696265,-0.15616802368377874]",4.0,"[-0.013292481302262652,-0.12541692124995224]",4.0,"[-0.14142369991224762,-0.1077984140297324]",100.0,"[0.023307624898346663,0.08386821222463213]",100.0,"[0.02,0.02]",195.813,0.0,48.0,48.0,132.0,1.0,,,,,,,
,,,,,,,672adb2909ca72744f212a7d,684395e6ae8bb79da192d28c,2025-06-06_18h29.32.372,shape_ratio,2024.1.5,MacIntel,59.95203837,6842b561977af9ba9b0f87ca,,,,,,,,,,,195.814,196.313,,,196.564,197.18,left,0.607,,,,,,,,,0.4,,,,,,196.313,196.564,197.18,"[-0.08790464135720082,-0.11302586340885541]",100.0,"[0.06973029551482947,0.1817454643078732]",4.0,"[-0.19457719030100193,-0.02708636514814978]",4.0,"[0.1474608212817392,-0.08945441790767818]",100.0,"[0.07782660898013599,-0.17451844521807597]",100.0,"[0.03582680915563685,-0.10705339470848156]",4.0,"[-0.01267219613249203,0.14973101035369346]",4.0,"[-0.0237803260810466,-0.03065435234464535]",4.0,"[0.038780814957277775,0.12761670321675186]",4.0,"[0.13060546039098325,-0.14248455634268312]",4.0,"[-0.03845201511012777,0.11095562005949917]",100.0,"[-0.08184843872758378,0.060402136683415736]",4.0,"[0.08926792505691088,-0.05320870063293342]",100.0,"[0.1358229468990885,0.030288030569417083]",100.0,"[0.173373520820464,-0.04043002188139622]",100.0,"[-0.06152546338784251,-0.1673761399532114]",4.0,"[0.1361173535183068,0.1363503090184998]",100.0,"[-0.1195529046324867,0.03802902610534629]",100.0,"[0.0912321903210283,0.14462856986491018]",100.0,"[-0.1973126981875482,0.022058672940694916]",100.0,"[-0.0008559255686211102,0.1964594917412807]",4.0,"[-0.14651868065124754,-0.08031469310777542]",100.0,"[0.1894284859151515,0.06014443643975258]",4.0,"[-0.03189636613219871,-0.09330369266247668]",4.0,"[0.06942439638737848,0.09955475053644797]",4.0,"[-0.015588304115383783,-0.18110173926717207]",100.0,"[-0.10088228752199312,-0.027621864161515162]",4.0,"[0.026328068263243947,0.05872567781542286]",4.0,"[-0.06993848386036675,0.17369347629039142]",4.0,"[0.14534915340348084,0.08919199295747621]",4.0,"[-0.030456031999246846,0.014937473448267947]",4.0,"[-0.14700953381819018,-0.00024245812798850288]",4.0,"[0.02,0.02]",198.28,0.0,49.0,49.0,157.0,1.0,,,,,,,
